S13 800C 10Kmin    CELL:    5.90166   5.90166  23.16197   90.0000   90.0000  120.0000   SPGR: P 63/m m c             TEMP:     35.00
  1    775     1.78919     1.79310     0.53181     0.00000    -0.83959    0
   70    0    2
      59.50000      63.70000
      47.20000      48.40000
 2Theta	Yobs	Ycal	Yobs-Ycal	Backg	Bragg	Posr	(hkl)	K
     34.2679	  1029.0	  1076.6	 -3071.6	   855.2	     35.3426	       0	(  1  1  0)	  0  1
     34.3065	  1120.0	  1086.0	 -2990.0	   860.1	     35.4213	       0	(  1  1  0)	  0  2
     34.3452	  1156.0	  1093.0	 -2961.0	   864.8	     36.0348	       0	(  0  0  8)	  0  1
     34.3839	  1052.0	  1101.1	 -3073.1	   869.2	     36.1152	       0	(  0  0  8)	  0  2
     34.4225	  1138.0	  1108.1	 -2994.1	   873.4	     36.4954	       0	(  1  1  2)	  0  1
     34.4613	  1177.0	  1115.3	 -2962.3	   877.4	     36.5770	       0	(  1  1  2)	  0  2
     34.5000	  1069.0	  1122.6	 -3077.6	   881.1	     37.5970	       0	(  1  0  7)	  0  1
     34.5387	  1196.0	  1130.1	 -2958.1	   884.8	     37.6812	       0	(  1  0  7)	  0  2
     34.5774	  1058.0	  1138.0	 -3104.0	   888.2	     39.7803	       0	(  1  1  4)	  0  1
     34.6162	  1164.0	  1146.4	 -3006.4	   891.5	     39.8699	       0	(  1  1  4)	  0  2
     34.6550	  1149.0	  1155.5	 -3030.5	   894.7	     40.9641	       0	(  2  0  0)	  0  1
     34.6938	  1180.0	  1165.5	 -3009.5	   897.8	     41.0566	       0	(  2  0  0)	  0  2
     34.7326	  1119.0	  1176.6	 -3081.6	   900.8	     41.2212	       0	(  2  0  1)	  0  1
     34.7714	  1222.0	  1189.7	 -2991.7	   903.7	     41.3144	       0	(  2  0  1)	  0  2
     34.8102	  1233.0	  1205.6	 -2996.6	   906.5	     41.5759	       0	(  1  0  8)	  0  1
     34.8491	  1197.0	  1226.1	 -3053.1	   909.3	     41.6700	       0	(  1  0  8)	  0  2
     34.8880	  1282.0	  1254.0	 -2996.0	   912.0	     41.9847	       0	(  2  0  2)	  0  1
     34.9268	  1265.0	  1293.3	 -3052.3	   914.6	     42.0798	       0	(  2  0  2)	  0  2
     34.9657	  1321.0	  1348.7	 -3051.7	   917.3	     43.2328	       0	(  2  0  3)	  0  1
     35.0046	  1428.0	  1425.4	 -3021.4	   919.9	     43.3311	       0	(  2  0  3)	  0  2
     35.0435	  1557.0	  1529.9	 -2996.9	   922.5	     44.8045	       0	(  1  1  6)	  0  1
     35.0825	  1643.0	  1674.7	 -3055.7	   925.1	     44.9068	       0	(  1  1  6)	  0  2
     35.1214	  1858.0	  1883.5	 -3049.5	   927.6	     44.9331	       0	(  2  0  4)	  0  1
     35.1604	  2154.0	  2175.1	 -3045.1	   930.2	     45.0358	       0	(  2  0  4)	  0  2
     35.1994	  2533.0	  2539.4	 -3030.4	   932.8	     45.3744	       0	(  0  0 10)	  0  1
     35.2384	  3023.0	  2990.2	 -2991.2	   935.4	     45.4782	       0	(  0  0 10)	  0  2
     35.2774	  3823.0	  3698.4	 -2899.4	   938.1	     45.7382	       0	(  1  0  9)	  0  1
     35.3164	  4837.0	  4834.2	 -3021.2	   940.7	     45.8430	       0	(  1  0  9)	  0  2
     35.3554	  5942.0	  5968.3	 -3050.3	   943.4	     47.0480	       0	(  2  0  5)	  0  1
     35.3945	  6367.0	  6298.0	 -2955.0	   946.2	     47.1562	       0	(  2  0  5)	  0  2
     35.4335	  5491.0	  5672.5	 -3205.5	   948.9	     49.5387	       0	(  2  0  6)	  0  1
     35.4726	  4370.0	  4437.6	 -3091.6	   951.8	     49.6535	       0	(  2  0  6)	  0  2
     35.5117	  3129.0	  3146.9	 -3041.9	   954.6	     50.0674	       0	(  1  0 10)	  0  1
     35.5508	  2196.0	  2208.1	 -3036.1	   957.5	     50.1835	       0	(  1  0 10)	  0  2
     35.5899	  1760.0	  1700.8	 -2964.8	   960.5	     51.1773	       0	(  1  1  8)	  0  1
     35.6290	  1638.0	  1502.6	 -2888.6	   963.5	     51.2965	       0	(  1  1  8)	  0  2
     35.6682	  1453.0	  1462.6	 -3033.6	   966.6	     52.3692	       0	(  2  0  7)	  0  1
     35.7073	  1581.0	  1485.8	 -2928.8	   969.7	     52.4917	       0	(  2  0  7)	  0  2
     35.7465	  1502.0	  1529.6	 -3051.6	   972.9	     54.5563	       0	(  1  0 11)	  0  1
     35.7857	  1486.0	  1577.3	 -3115.3	   976.1	     54.6848	       0	(  1  0 11)	  0  2
     35.8249	  1602.0	  1624.2	 -3046.2	   979.4	     55.0167	       0	(  2  1  0)	  0  1
     35.8641	  1616.0	  1673.5	 -3081.5	   982.8	     55.0661	       0	(  0  0 12)	  0  1
     35.9033	  1740.0	  1738.4	 -3022.4	   986.2	     55.1465	       0	(  2  1  0)	  0  2
     35.9426	  1854.0	  1841.0	 -3011.0	   989.6	     55.1961	       0	(  0  0 12)	  0  2
     35.9818	  1963.0	  1998.1	 -3059.1	   993.2	     55.2229	       0	(  2  1  1)	  0  1
     36.0211	  2173.0	  2189.5	 -3040.5	   996.8	     55.3533	       0	(  2  1  1)	  0  2
     36.0603	  2385.0	  2346.7	 -2985.7	  1000.4	     55.5084	       0	(  2  0  8)	  0  1
     36.0996	  2456.0	  2402.6	 -2970.6	  1004.1	     55.6396	       0	(  2  0  8)	  0  2
     36.1389	  2256.0	  2339.8	 -3107.8	  1007.9	     55.8387	       0	(  2  1  2)	  0  1
     36.1783	  2072.0	  2187.6	 -3139.6	  1011.7	     55.9708	       0	(  2  1  2)	  0  2
     36.2176	  2054.0	  2002.6	 -2972.6	  1015.6	     56.8552	       0	(  2  1  3)	  0  1
     36.2569	  1842.0	  1838.9	 -3020.9	  1019.5	     56.9902	       0	(  2  1  3)	  0  2
     36.2963	  1796.0	  1726.1	 -2954.1	  1023.4	     58.2593	       0	(  2  1  4)	  0  1
     36.3357	  1680.0	  1669.2	 -3013.2	  1027.5	     58.3983	       0	(  2  1  4)	  0  2
     36.3750	  1737.0	  1664.0	 -2951.0	  1031.5	     58.6271	       0	(  1  1 10)	  0  1
     36.4144	  1814.0	  1715.3	 -2925.3	  1035.6	     58.7672	       0	(  1  1 10)	  0  2
     36.4539	  1879.0	  1832.2	 -2977.2	  1039.8	     58.9314	       0	(  2  0  9)	  0  1
     36.4933	  2009.0	  1982.0	 -2997.0	  1044.0	     59.0724	       0	(  2  0  9)	  0  2
     36.5327	  2062.0	  2077.6	 -3039.6	  1048.2	     59.2055	       0	(  1  0 12)	  0  1
     36.5722	  1916.0	  2066.2	 -3174.2	  1052.5	     59.3473	       0	(  1  0 12)	  0  2
     36.6116	  1840.0	  1959.5	 -3143.5	  1056.8	     63.8891	       0	(  3  0  2)	  0  1
     36.6511	  1671.0	  1806.5	 -3159.5	  1061.2	     64.0216	       0	(  1  0 13)	  0  1
     36.6906	  1688.0	  1666.4	 -3002.4	  1065.6	     64.0450	       0	(  3  0  2)	  0  2
     36.7301	  1624.0	  1571.9	 -2971.9	  1070.0	     64.1779	       0	(  1  0 13)	  0  2
     36.7696	  1670.0	  1525.5	 -2879.5	  1074.4	     64.6280	       0	(  2  1  7)	  0  1
     36.8091	  1558.0	  1514.6	 -2980.6	  1078.9	     64.7862	       0	(  2  1  7)	  0  2
     36.8487	  1625.0	  1525.7	 -2924.7	  1083.4	     64.8295	       0	(  3  0  3)	  0  1
     36.8882	  1635.0	  1550.5	 -2939.5	  1087.9	     64.9883	       0	(  3  0  3)	  0  2
     36.9278	  1681.0	  1586.0	 -2929.0	  1092.4	     65.2345	       0	(  0  0 14)	  0  1
     36.9674	  1673.0	  1632.7	 -2983.7	  1097.0	     65.3945	       0	(  0  0 14)	  0  2
     37.0070	  1684.0	  1693.1	 -3033.1	  1101.5
     37.0466	  1801.0	  1770.6	 -2993.6	  1106.1
     37.0862	  1692.0	  1869.2	 -3201.2	  1110.6
     37.1258	  1918.0	  1992.2	 -3098.2	  1115.2
     37.1654	  1935.0	  2142.2	 -3231.2	  1119.8
     37.2051	  2086.0	  2321.5	 -3259.5	  1124.4
     37.2448	  2262.0	  2533.4	 -3295.4	  1129.0
     37.2844	  2409.0	  2782.4	 -3397.4	  1133.5
     37.3241	  2704.0	  3071.5	 -3391.5	  1138.1
     37.3638	  3242.0	  3399.7	 -3181.7	  1142.7
     37.4035	  3724.0	  3770.8	 -3070.8	  1147.2
     37.4433	  4528.0	  4223.4	 -2719.4	  1151.8
     37.4830	  5074.0	  4863.6	 -2813.6	  1156.3
     37.5228	  6079.0	  5835.4	 -2780.4	  1160.8
     37.5625	  7377.0	  7143.4	 -2790.4	  1165.3
     37.6023	  8429.0	  8436.9	 -3031.9	  1169.8
     37.6421	  9062.0	  9152.2	 -3114.2	  1174.2
     37.6819	  8583.0	  8984.0	 -3425.0	  1178.6
     37.7217	  7689.0	  7999.5	 -3334.5	  1183.0
     37.7615	  6240.0	  6532.4	 -3316.4	  1187.4
     37.8014	  4703.0	  5009.9	 -3330.9	  1191.7
     37.8412	  3575.0	  3735.5	 -3184.5	  1196.0
     37.8811	  2952.0	  2821.6	 -2893.6	  1200.2
     37.9210	  2620.0	  2243.6	 -2647.6	  1204.5
     37.9608	  2283.0	  1917.5	 -2658.5	  1208.6
     38.0007	  2054.0	  1754.6	 -2724.6	  1212.8
     38.0406	  2009.0	  1686.4	 -2701.4	  1216.9
     38.0806	  1967.0	  1667.5	 -2724.5	  1220.9
     38.1205	  1937.0	  1670.6	 -2757.6	  1224.9
     38.1604	  1808.0	  1680.5	 -2896.5	  1228.9
     38.2004	  1832.0	  1689.2	 -2881.2	  1232.8
     38.2404	  1808.0	  1693.7	 -2909.7	  1236.7
     38.2803	  1693.0	  1693.7	 -3024.7	  1240.5
     38.3203	  1727.0	  1690.1	 -2987.1	  1244.2
     38.3603	  1732.0	  1684.5	 -2976.5	  1247.9
     38.4003	  1733.0	  1677.9	 -2968.9	  1251.6
     38.4404	  1659.0	  1671.4	 -3036.4	  1255.2
     38.4804	  1672.0	  1665.8	 -3017.8	  1258.7
     38.5205	  1787.0	  1661.3	 -2898.3	  1262.2
     38.5605	  1754.0	  1658.2	 -2928.2	  1265.6
     38.6006	  1817.0	  1656.5	 -2863.5	  1269.0
     38.6407	  1762.0	  1656.2	 -2918.2	  1272.3
     38.6808	  1799.0	  1657.3	 -2882.3	  1275.5
     38.7209	  1733.0	  1659.9	 -2950.9	  1278.7
     38.7610	  1661.0	  1663.8	 -3026.8	  1281.8
     38.8011	  1687.0	  1669.1	 -3006.1	  1284.9
     38.8412	  1533.0	  1675.9	 -3166.9	  1287.9
     38.8814	  1578.0	  1684.4	 -3130.4	  1290.8
     38.9215	  1526.0	  1694.7	 -3192.7	  1293.7
     38.9617	  1532.0	  1707.2	 -3199.2	  1296.5
     39.0019	  1700.0	  1722.5	 -3046.5	  1299.2
     39.0421	  1604.0	  1741.3	 -3161.3	  1301.9
     39.0823	  1735.0	  1765.2	 -3054.2	  1304.4
     39.1225	  1665.0	  1796.0	 -3155.0	  1307.0
     39.1627	  1657.0	  1836.6	 -3203.6	  1309.4
     39.2030	  1679.0	  1890.9	 -3235.9	  1311.8
     39.2432	  1736.0	  1963.6	 -3251.6	  1314.2
     39.2835	  1909.0	  2060.0	 -3175.0	  1316.4
     39.3237	  1908.0	  2185.4	 -3301.4	  1318.6
     39.3640	  2063.0	  2345.4	 -3306.4	  1320.8
     39.4043	  2261.0	  2547.5	 -3310.5	  1322.8
     39.4446	  2489.0	  2804.6	 -3339.6	  1324.8
     39.4849	  2793.0	  3137.4	 -3368.4	  1326.7
     39.5252	  3349.0	  3566.1	 -3241.1	  1328.6
     39.5656	  3768.0	  4102.7	 -3358.7	  1330.4
     39.6059	  4700.0	  4754.5	 -3078.5	  1332.1
     39.6463	  5846.0	  5583.1	 -2761.1	  1333.8
     39.6866	  6892.0	  6747.4	 -2879.4	  1335.4
     39.7270	  8640.0	  8384.5	 -2768.5	  1336.9
     39.7674	 10308.0	 10249.7	 -2965.7	  1338.4
     39.8078	 12096.0	 11575.2	 -2503.2	  1339.8
     39.8482	 11995.0	 11728.1	 -2757.1	  1341.1
     39.8886	 10922.0	 10665.4	 -2767.4	  1342.4
     39.9290	  8911.0	  8755.9	 -2868.9	  1343.6
     39.9695	  6666.0	  6609.9	 -2967.9	  1344.8
     40.0099	  4796.0	  4756.6	 -2984.6	  1345.9
     40.0504	  3632.0	  3428.8	 -2820.8	  1346.9
     40.0908	  2847.0	  2611.4	 -2788.4	  1347.9
     40.1313	  2703.0	  2170.9	 -2491.9	  1348.8
     40.1718	  2308.0	  1961.9	 -2677.9	  1349.6
     40.2123	  2140.0	  1876.2	 -2760.2	  1350.4
     40.2528	  2036.0	  1848.6	 -2836.6	  1351.2
     40.2933	  1967.0	  1843.9	 -2900.9	  1351.8
     40.3338	  1936.0	  1845.0	 -2933.0	  1352.5
     40.3744	  1880.0	  1844.3	 -2988.3	  1353.0
     40.4149	  1847.0	  1840.1	 -3017.1	  1353.5
     40.4555	  1763.0	  1833.2	 -3094.2	  1354.0
     40.4960	  1825.0	  1825.6	 -3024.6	  1354.4
     40.5366	  1717.0	  1820.2	 -3127.2	  1354.8
     40.5772	  1769.0	  1817.4	 -3072.4	  1355.1
     40.6178	  1760.0	  1820.4	 -3084.4	  1355.3
     40.6584	  1760.0	  1831.3	 -3095.3	  1355.5
     40.6990	  1826.0	  1855.1	 -3053.1	  1355.6
     40.7396	  1865.0	  1897.0	 -3056.0	  1355.7
     40.7802	  1923.0	  1959.6	 -3060.6	  1355.8
     40.8209	  1976.0	  2044.4	 -3092.4	  1355.8
     40.8615	  2209.0	  2161.0	 -2976.0	  1355.8
     40.9022	  2379.0	  2327.8	 -2972.8	  1355.7
     40.9428	  2558.0	  2538.2	 -3004.2	  1355.6
     40.9835	  2728.0	  2721.6	 -3017.6	  1355.4
     41.0242	  2808.0	  2802.5	 -3018.5	  1355.2
     41.0649	  2794.0	  2776.9	 -3006.9	  1354.9
     41.1056	  2741.0	  2692.3	 -2975.3	  1354.6
     41.1463	  2594.0	  2626.6	 -3056.6	  1354.3
     41.1870	  2628.0	  2636.4	 -3032.4	  1353.9
     41.2278	  2593.0	  2695.1	 -3126.1	  1353.5
     41.2685	  2748.0	  2722.2	 -2998.2	  1353.0
     41.3092	  2638.0	  2674.8	 -3060.8	  1352.6
     41.3500	  2654.0	  2561.1	 -2931.1	  1352.0
     41.3908	  2425.0	  2423.5	 -3022.5	  1351.5
     41.4315	  2423.0	  2318.7	 -2919.7	  1350.9
     41.4723	  2480.0	  2286.4	 -2830.4	  1350.3
     41.5131	  2438.0	  2335.1	 -2921.1	  1349.6
     41.5539	  2490.0	  2436.7	 -2970.7	  1348.9
     41.5947	  2558.0	  2532.3	 -2998.3	  1348.2
     41.6355	  2506.0	  2568.2	 -3086.2	  1347.5
     41.6764	  2293.0	  2526.0	 -3257.0	  1346.7
     41.7172	  2273.0	  2418.3	 -3169.3	  1345.9
     41.7581	  2273.0	  2277.5	 -3028.5	  1345.1
     41.7989	  2101.0	  2141.1	 -3064.1	  1344.3
     41.8398	  2010.0	  2036.2	 -3050.2	  1343.4
     41.8806	  1969.0	  1977.4	 -3032.4	  1342.5
     41.9215	  1955.0	  1968.1	 -3037.1	  1341.6
     41.9624	  2026.0	  1995.4	 -2993.4	  1340.6
     42.0033	  2107.0	  2025.0	 -2942.0	  1339.7
     42.0442	  2022.0	  2023.5	 -3025.5	  1338.7
     42.0851	  2077.0	  1982.9	 -2929.9	  1337.7
     42.1260	  1825.0	  1911.6	 -3110.6	  1336.6
     42.1669	  1700.0	  1829.6	 -3153.6	  1335.6
     42.2079	  1676.0	  1756.9	 -3104.9	  1334.5
     42.2488	  1747.0	  1704.0	 -2981.0	  1333.5
     42.2898	  1708.0	  1671.5	 -2987.5	  1332.4
     42.3307	  1612.0	  1654.8	 -3066.8	  1331.3
     42.3717	  1575.0	  1648.1	 -3097.1	  1330.1
     42.4127	  1568.0	  1647.1	 -3103.1	  1329.0
     42.4537	  1616.0	  1649.7	 -3057.7	  1327.8
     42.4946	  1670.0	  1654.9	 -3008.9	  1326.7
     42.5356	  1755.0	  1663.3	 -2932.3	  1325.5
     42.5766	  1702.0	  1674.5	 -2996.5	  1324.3
     42.6177	  1707.0	  1690.7	 -3007.7	  1323.1
     42.6587	  1806.0	  1712.7	 -2930.7	  1321.9
     42.6997	  1787.0	  1742.8	 -2979.8	  1320.7
     42.7407	  1716.0	  1783.2	 -3091.2	  1319.5
     42.7818	  1793.0	  1836.3	 -3067.3	  1318.2
     42.8228	  1893.0	  1905.4	 -3036.4	  1317.0
     42.8639	  2001.0	  1997.0	 -3020.0	  1315.7
     42.9050	  2158.0	  2121.9	 -2987.9	  1314.5
     42.9460	  2394.0	  2295.2	 -2925.2	  1313.2
     42.9871	  2511.0	  2530.7	 -3043.7	  1311.9
     43.0282	  2991.0	  2836.4	 -2869.4	  1310.7
     43.0693	  3297.0	  3223.2	 -2950.2	  1309.4
     43.1104	  3938.0	  3725.5	 -2811.5	  1308.1
     43.1515	  4430.0	  4395.4	 -2989.4	  1306.8
     43.1926	  5155.0	  5215.6	 -3084.6	  1305.5
     43.2337	  5703.0	  5974.2	 -3295.2	  1304.2
     43.2749	  6296.0	  6348.4	 -3076.4	  1302.9
     43.3160	  6010.0	  6188.8	 -3202.8	  1301.6
     43.3571	  5237.0	  5557.7	 -3344.7	  1300.3
     43.3983	  4360.0	  4641.5	 -3305.5	  1299.0
     43.4395	  3522.0	  3690.4	 -3192.4	  1297.8
     43.4806	  2864.0	  2895.7	 -3055.7	  1296.5
     43.5218	  2340.0	  2329.3	 -3013.3	  1295.2
     43.5630	  2072.0	  1980.0	 -2932.0	  1293.9
     43.6041	  1955.0	  1786.7	 -2855.7	  1292.6
     43.6453	  1845.0	  1690.9	 -2869.9	  1291.3
     43.6865	  1742.0	  1646.8	 -2928.8	  1290.0
     43.7277	  1766.0	  1627.5	 -2885.5	  1288.7
     43.7690	  1613.0	  1618.6	 -3029.6	  1287.4
     43.8102	  1670.0	  1613.2	 -2967.2	  1286.1
     43.8514	  1716.0	  1607.9	 -2915.9	  1284.8
     43.8926	  1531.0	  1601.9	 -3094.9	  1283.6
     43.9339	  1692.0	  1595.0	 -2927.0	  1282.3
     43.9751	  1610.0	  1587.7	 -3001.7	  1281.0
     44.0163	  1587.0	  1580.6	 -3017.6	  1279.7
     44.0576	  1590.0	  1574.0	 -3008.0	  1278.5
     44.0989	  1550.0	  1568.3	 -3042.3	  1277.2
     44.1401	  1530.0	  1563.8	 -3057.8	  1276.0
     44.1814	  1512.0	  1560.7	 -3072.7	  1274.7
     44.2227	  1606.0	  1559.2	 -2977.2	  1273.5
     44.2640	  1631.0	  1559.4	 -2952.4	  1272.3
     44.3053	  1493.0	  1561.5	 -3092.5	  1271.1
     44.3466	  1564.0	  1565.7	 -3025.7	  1269.8
     44.3879	  1521.0	  1572.5	 -3075.5	  1268.6
     44.4292	  1612.0	  1582.6	 -2994.6	  1267.4
     44.4705	  1581.0	  1597.3	 -3040.3	  1266.2
     44.5118	  1624.0	  1617.7	 -3017.7	  1265.0
     44.5531	  1634.0	  1644.8	 -3034.8	  1263.9
     44.5945	  1667.0	  1679.6	 -3036.6	  1262.7
     44.6358	  1763.0	  1723.9	 -2984.9	  1261.5
     44.6771	  1799.0	  1781.7	 -3006.7	  1260.4
     44.7185	  1772.0	  1856.6	 -3108.6	  1259.2
     44.7598	  1926.0	  1944.5	 -3042.5	  1258.1
     44.8012	  2016.0	  2025.3	 -3033.3	  1257.0
     44.8426	  2181.0	  2069.7	 -2912.7	  1255.9
     44.8839	  2065.0	  2061.7	 -3020.7	  1254.8
     44.9253	  1969.0	  2004.1	 -3059.1	  1253.7
     44.9667	  1941.0	  1911.6	 -2994.6	  1252.6
     45.0081	  1858.0	  1806.7	 -2972.7	  1251.5
     45.0495	  1669.0	  1710.3	 -3065.3	  1250.5
     45.0909	  1557.0	  1634.3	 -3101.3	  1249.4
     45.1323	  1584.0	  1581.7	 -3021.7	  1248.4
     45.1737	  1588.0	  1549.4	 -2985.4	  1247.3
     45.2151	  1554.0	  1532.5	 -3002.5	  1246.3
     45.2565	  1488.0	  1526.1	 -3062.1	  1245.3
     45.2979	  1527.0	  1524.1	 -3021.1	  1244.3
     45.3394	  1533.0	  1528.3	 -3019.3	  1243.3
     45.3808	  1489.0	  1533.4	 -3068.4	  1242.4
     45.4222	  1591.0	  1535.8	 -2968.8	  1241.4
     45.4637	  1523.0	  1536.9	 -3037.9	  1240.5
     45.5051	  1578.0	  1535.6	 -2981.6	  1239.5
     45.5466	  1469.0	  1533.0	 -3088.0	  1238.6
     45.5880	  1607.0	  1530.8	 -2947.8	  1237.7
     45.6295	  1499.0	  1530.5	 -3055.5	  1236.8
     45.6709	  1516.0	  1532.9	 -3040.9	  1235.9
     45.7124	  1569.0	  1537.1	 -2992.1	  1235.1
     45.7539	  1584.0	  1540.7	 -2980.7	  1234.2
     45.7954	  1497.0	  1541.3	 -3068.3	  1233.4
     45.8369	  1539.0	  1538.0	 -3023.0	  1232.6
     45.8783	  1624.0	  1531.1	 -2931.1	  1231.8
     45.9198	  1523.0	  1522.0	 -3023.0	  1231.0
     45.9613	  1472.0	  1512.9	 -3064.9	  1230.2
     46.0028	  1426.0	  1505.3	 -3103.3	  1229.4
     46.0443	  1386.0	  1500.1	 -3138.1	  1228.7
     46.0858	  1418.0	  1497.5	 -3103.5	  1228.0
     46.1274	  1442.0	  1497.6	 -3079.6	  1227.2
     46.1689	  1444.0	  1500.1	 -3080.1	  1226.5
     46.2104	  1527.0	  1504.6	 -3001.6	  1225.9
     46.2519	  1411.0	  1511.3	 -3124.3	  1225.2
     46.2934	  1453.0	  1520.5	 -3091.5	  1224.5
     46.3350	  1495.0	  1532.6	 -3061.6	  1223.9
     46.3765	  1529.0	  1548.2	 -3043.2	  1223.3
     46.4181	  1528.0	  1568.6	 -3064.6	  1222.7
     46.4596	  1491.0	  1594.7	 -3127.7	  1222.1
     46.5011	  1513.0	  1627.8	 -3138.8	  1221.6
     46.5427	  1631.0	  1669.4	 -3062.4	  1221.0
     46.5843	  1771.0	  1721.8	 -2974.8	  1220.5
     46.6258	  1819.0	  1789.1	 -2994.1	  1220.0
     46.6674	  1853.0	  1878.0	 -3049.0	  1219.5
     46.7089	  1961.0	  1998.1	 -3061.1	  1219.0
     46.7505	  2207.0	  2159.7	 -2976.7	  1218.6
     46.7921	  2370.0	  2371.8	 -3025.8	  1218.1
     46.8337	  2601.0	  2641.8	 -3064.8	  1217.7
     46.8752	  2958.0	  2980.4	 -3046.4	  1217.3
     46.9168	  3503.0	  3406.7	 -2927.7	  1216.9
     46.9584	  3964.0	  3935.1	 -2995.1	  1216.6
     47.0000	  4593.0	  4531.9	 -2962.9	  1216.2
     47.0416	  4846.0	  5069.0	 -3247.0	  1215.9
     47.0832	  5447.0	  5367.4	 -2944.4	  1215.6
     47.1248	  5742.0	  5328.8	 -2610.8	  1215.3
     47.1664	  4873.0	  1399.1	   449.9	  1215.1
     47.2080	  4311.0	  1398.9	 -3024.0	  1214.8
     47.2496	  3758.0	  1398.7	 -3024.0	  1214.6
     47.2912	  3076.0	  1398.5	 -3024.0	  1214.4
     47.3328	  2693.0	  1398.3	 -3024.0	  1214.2
     47.3744	  2364.0	  1398.2	 -3024.0	  1214.1
     47.4160	  2017.0	  1398.0	 -3024.0	  1213.9
     47.4577	  1855.0	  1397.9	 -3024.0	  1213.8
     47.4993	  1827.0	  1397.8	 -3024.0	  1213.7
     47.5409	  1820.0	  1397.7	 -3024.0	  1213.7
     47.5826	  1718.0	  1397.7	 -3024.0	  1213.6
     47.6242	  1718.0	  1397.7	 -3024.0	  1213.6
     47.6658	  1750.0	  1397.6	 -3024.0	  1213.6
     47.7075	  1712.0	  1397.7	 -3024.0	  1213.6
     47.7491	  1697.0	  1397.7	 -3024.0	  1213.6
     47.7907	  1677.0	  1397.8	 -3024.0	  1213.7
     47.8324	  1577.0	  1397.8	 -3024.0	  1213.8
     47.8740	  1652.0	  1397.9	 -3024.0	  1213.9
     47.9157	  1536.0	  1398.1	 -3024.0	  1214.0
     47.9573	  1590.0	  1398.2	 -3024.0	  1214.1
     47.9990	  1628.0	  1398.4	 -3024.0	  1214.3
     48.0406	  1798.0	  1398.6	 -3024.0	  1214.5
     48.0823	  1803.0	  1398.8	 -3024.0	  1214.7
     48.1240	  1945.0	  1399.0	 -3024.0	  1214.9
     48.1656	  1917.0	  1399.3	 -3024.0	  1215.2
     48.2073	  1920.0	  1399.5	 -3024.0	  1215.5
     48.2489	  1883.0	  1399.8	 -3024.0	  1215.8
     48.2906	  1739.0	  1400.2	 -3024.0	  1216.1
     48.3323	  1649.0	  1400.5	 -3024.0	  1216.4
     48.3739	  1601.0	  1400.9	 -3024.0	  1216.8
     48.4156	  1549.0	  1469.3	 -2944.3	  1217.2
     48.4573	  1565.0	  1470.2	 -2929.2	  1217.6
     48.4990	  1615.0	  1471.7	 -2880.7	  1218.0
     48.5406	  1597.0	  1473.7	 -2900.7	  1218.5
     48.5823	  1451.0	  1476.3	 -3049.3	  1218.9
     48.6240	  1545.0	  1479.6	 -2958.6	  1219.4
     48.6657	  1411.0	  1483.8	 -3096.8	  1219.9
     48.7074	  1525.0	  1489.1	 -2988.1	  1220.5
     48.7491	  1595.0	  1495.9	 -2924.9	  1221.0
     48.7907	  1522.0	  1504.4	 -3006.4	  1221.6
     48.8324	  1688.0	  1515.1	 -2851.1	  1222.2
     48.8741	  1651.0	  1528.6	 -2901.6	  1222.8
     48.9158	  1562.0	  1545.4	 -3007.4	  1223.5
     48.9575	  1558.0	  1566.3	 -3032.3	  1224.1
     48.9992	  1655.0	  1591.2	 -2960.2	  1224.8
     49.0409	  1650.0	  1623.4	 -2997.4	  1225.5
     49.0826	  1656.0	  1663.7	 -3031.7	  1226.2
     49.1243	  1733.0	  1717.0	 -3008.0	  1226.9
     49.1660	  1711.0	  1788.0	 -3101.0	  1227.7
     49.2077	  1821.0	  1883.1	 -3086.1	  1228.4
     49.2494	  2004.0	  2008.6	 -3028.6	  1229.2
     49.2911	  2153.0	  2169.6	 -3040.6	  1230.0
     49.3328	  2331.0	  2371.4	 -3064.4	  1230.8
     49.3745	  2630.0	  2620.8	 -3014.8	  1231.7
     49.4162	  2948.0	  2925.3	 -3001.3	  1232.5
     49.4579	  3285.0	  3280.0	 -3019.0	  1233.4
     49.4996	  3557.0	  3645.3	 -3112.3	  1234.2
     49.5413	  3995.0	  3937.5	 -2966.5	  1235.1
     49.5830	  3966.0	  4069.5	 -3127.5	  1236.0
     49.6247	  4033.0	  4008.1	 -2999.1	  1237.0
     49.6664	  3631.0	  3772.7	 -3165.7	  1237.9
     49.7081	  3394.0	  3414.2	 -3044.2	  1238.8
     49.7498	  2735.0	  3005.2	 -3294.2	  1239.8
     49.7915	  2595.0	  2616.9	 -3045.9	  1240.7
     49.8332	  2070.0	  2296.0	 -3250.0	  1241.7
     49.8749	  1934.0	  2060.4	 -3150.4	  1242.7
     49.9166	  1938.0	  1906.7	 -2992.7	  1243.7
     49.9583	  1724.0	  1820.0	 -3120.0	  1244.7
     50.0000	  1725.0	  1780.6	 -3079.6	  1245.7
     50.0417	  1729.0	  1768.6	 -3063.6	  1246.7
     50.0834	  1711.0	  1765.8	 -3078.8	  1247.7
     50.1251	  1752.0	  1759.3	 -3031.3	  1248.8
     50.1668	  1819.0	  1743.5	 -2948.5	  1249.8
     50.2085	  1758.0	  1717.7	 -2983.7	  1250.8
     50.2502	  1717.0	  1684.3	 -2991.3	  1251.9
     50.2919	  1695.0	  1647.8	 -2976.8	  1252.9
     50.3336	  1597.0	  1612.8	 -3039.8	  1254.0
     50.3753	  1660.0	  1582.4	 -2946.4	  1255.0
     50.4170	  1596.0	  1557.9	 -2985.9	  1256.1
     50.4587	  1491.0	  1539.4	 -3072.4	  1257.1
     50.5004	  1570.0	  1526.0	 -2980.0	  1258.1
     50.5421	  1557.0	  1516.7	 -2983.7	  1259.2
     50.5838	  1533.0	  1510.5	 -3001.5	  1260.2
     50.6255	  1487.0	  1506.4	 -3043.4	  1261.3
     50.6672	  1509.0	  1503.8	 -3018.8	  1262.3
     50.7089	  1612.0	  1502.3	 -2914.3	  1263.3
     50.7506	  1557.0	  1501.8	 -2968.8	  1264.3
     50.7923	  1499.0	  1502.0	 -3027.0	  1265.3
     50.8340	  1604.0	  1503.1	 -2923.1	  1266.3
     50.8757	  1547.0	  1505.1	 -2982.1	  1267.3
     50.9174	  1390.0	  1508.0	 -3142.0	  1268.3
     50.9591	  1485.0	  1511.9	 -3050.9	  1269.2
     51.0008	  1402.0	  1517.0	 -3139.0	  1270.2
     51.0425	  1457.0	  1523.3	 -3090.3	  1271.1
     51.0842	  1539.0	  1530.7	 -3015.7	  1272.0
     51.1259	  1467.0	  1538.6	 -3095.6	  1272.9
     51.1676	  1587.0	  1545.2	 -2982.2	  1273.8
     51.2093	  1601.0	  1548.9	 -2971.9	  1274.7
     51.2509	  1504.0	  1548.6	 -3068.6	  1275.5
     51.2926	  1502.0	  1544.4	 -3066.4	  1276.4
     51.3343	  1613.0	  1537.3	 -2948.3	  1277.2
     51.3760	  1611.0	  1528.4	 -2941.4	  1278.0
     51.4177	  1495.0	  1519.3	 -3048.3	  1278.7
     51.4594	  1573.0	  1511.2	 -2962.2	  1279.4
     51.5010	  1558.0	  1504.7	 -2970.7	  1280.2
     51.5427	  1546.0	  1499.9	 -2977.9	  1280.8
     51.5844	  1556.0	  1496.9	 -2964.9	  1281.5
     51.6261	  1469.0	  1495.2	 -3050.2	  1282.1
     51.6677	  1563.0	  1494.6	 -2955.6	  1282.7
     51.7094	  1555.0	  1494.8	 -2963.8	  1283.2
     51.7511	  1497.0	  1495.6	 -3022.6	  1283.8
     51.7927	  1453.0	  1496.9	 -3067.9	  1284.2
     51.8344	  1502.0	  1498.7	 -3020.7	  1284.7
     51.8760	  1511.0	  1501.0	 -3014.0	  1285.1
     51.9177	  1516.0	  1504.1	 -3012.1	  1285.5
     51.9594	  1503.0	  1508.2	 -3029.2	  1285.8
     52.0010	  1525.0	  1513.7	 -3012.7	  1286.1
     52.0427	  1512.0	  1521.1	 -3033.1	  1286.4
     52.0843	  1558.0	  1530.6	 -2996.6	  1286.6
     52.1260	  1480.0	  1542.6	 -3086.6	  1286.7
     52.1676	  1544.0	  1557.4	 -3037.4	  1286.8
     52.2093	  1690.0	  1575.2	 -2909.2	  1286.9
     52.2509	  1532.0	  1596.2	 -3088.1	  1286.9
     52.2925	  1650.0	  1619.1	 -2993.1	  1286.9
     52.3342	  1707.0	  1640.9	 -2957.9	  1286.8
     52.3758	  1630.0	  1656.7	 -3050.7	  1286.7
     52.4174	  1545.0	  1662.4	 -3141.4	  1286.5
     52.4591	  1622.0	  1656.7	 -3058.7	  1286.3
     52.5007	  1718.0	  1640.8	 -2946.8	  1286.0
     52.5423	  1675.0	  1617.6	 -2966.6	  1285.7
     52.5840	  1577.0	  1590.9	 -3037.9	  1285.3
     52.6256	  1609.0	  1564.6	 -2979.6	  1284.8
     52.6672	  1484.0	  1541.5	 -3081.5	  1284.3
     52.7088	  1573.0	  1523.0	 -2974.0	  1283.7
     52.7504	  1467.0	  1509.1	 -3066.1	  1283.1
     52.7920	  1432.0	  1499.2	 -3091.2	  1282.4
     52.8336	  1457.0	  1492.5	 -3059.5	  1281.6
     52.8752	  1547.0	  1487.9	 -2964.9	  1280.8
     52.9168	  1487.0	  1484.8	 -3021.8	  1279.9
     52.9584	  1418.0	  1482.5	 -3088.5	  1279.0
     53.0000	  1481.0	  1480.7	 -3023.7	  1277.9
     53.0416	  1400.0	  1479.1	 -3103.1	  1276.9
     53.0832	  1469.0	  1477.7	 -3032.7	  1275.7
     53.1248	  1412.0	  1476.3	 -3088.3	  1274.5
     53.1663	  1544.0	  1474.9	 -2954.9	  1273.2
     53.2079	  1466.0	  1473.5	 -3031.5	  1271.8
     53.2495	  1414.0	  1472.1	 -3082.1	  1270.4
     53.2911	  1394.0	  1470.6	 -3100.6	  1268.8
     53.3326	  1455.0	  1469.1	 -3038.1	  1267.3
     53.3742	  1503.0	  1467.6	 -2988.6	  1265.6
     53.4157	  1578.0	  1466.2	 -2912.2	  1263.9
     53.4573	  1456.0	  1464.7	 -3032.7	  1262.0
     53.4989	  1503.0	  1463.2	 -2984.2	  1260.1
     53.5404	  1396.0	  1461.8	 -3089.8	  1258.2
     53.5819	  1419.0	  1460.5	 -3065.5	  1256.1
     53.6235	  1460.0	  1458.4	 -3022.4	  1254.0
     53.6650	  1486.0	  1457.3	 -2995.3	  1251.8
     53.7066	  1463.0	  1456.4	 -3017.4	  1249.5
     53.7481	  1448.0	  1455.3	 -3031.3	  1247.2
     53.7896	  1380.0	  1454.9	 -3098.9	  1244.8
     53.8311	  1385.0	  1454.8	 -3093.8	  1242.2
     53.8726	  1373.0	  1455.2	 -3106.2	  1239.6
     53.9142	  1473.0	  1456.0	 -3007.0	  1237.0
     53.9557	  1328.0	  1457.5	 -3153.5	  1234.2
     53.9972	  1423.0	  1459.8	 -3060.8	  1231.4
     54.0387	  1483.0	  1463.3	 -3004.3	  1228.5
     54.0802	  1535.0	  1468.4	 -2957.4	  1225.5
     54.1217	  1522.0	  1475.7	 -2977.7	  1222.4
     54.1631	  1501.0	  1485.9	 -3008.9	  1219.2
     54.2046	  1530.0	  1499.6	 -2993.6	  1216.0
     54.2461	  1574.0	  1517.6	 -2967.6	  1212.7
     54.2876	  1480.0	  1540.4	 -3084.4	  1209.3
     54.3291	  1540.0	  1568.6	 -3052.6	  1205.8
     54.3705	  1537.0	  1602.5	 -3089.5	  1202.2
     54.4120	  1688.0	  1642.2	 -2978.2	  1198.6
     54.4534	  1650.0	  1686.2	 -3060.2	  1194.8
     54.4949	  1683.0	  1730.2	 -3071.2	  1191.0
     54.5363	  1776.0	  1767.3	 -3015.3	  1187.2
     54.5778	  1844.0	  1789.2	 -2969.2	  1183.2
     54.6192	  1878.0	  1791.1	 -2937.1	  1179.2
     54.6606	  1780.0	  1773.1	 -3017.1	  1175.1
     54.7021	  1837.0	  1738.7	 -2925.7	  1170.9
     54.7435	  1775.0	  1693.4	 -2942.4	  1166.6
     54.7849	  1678.0	  1644.1	 -2990.1	  1162.2
     54.8263	  1604.0	  1597.7	 -3017.7	  1157.8
     54.8677	  1494.0	  1559.0	 -3089.0	  1153.3
     54.9091	  1553.0	  1530.6	 -3001.6	  1148.8
     54.9505	  1561.0	  1512.6	 -2975.6	  1144.1
     54.9919	  1459.0	  1502.7	 -3067.7	  1139.4
     55.0333	  1465.0	  1497.2	 -3056.2	  1134.6
     55.0747	  1524.0	  1493.3	 -2993.3	  1129.8
     55.1161	  1497.0	  1490.0	 -3017.0	  1124.9
     55.1574	  1479.0	  1486.7	 -3031.7	  1119.9
     55.1988	  1505.0	  1483.5	 -3002.5	  1114.8
     55.2402	  1438.0	  1480.6	 -3066.6	  1109.7
     55.2815	  1466.0	  1478.6	 -3036.6	  1104.5
     55.3229	  1507.0	  1478.6	 -2995.6	  1099.3
     55.3642	  1527.0	  1481.4	 -2978.4	  1094.0
     55.4055	  1499.0	  1488.0	 -3013.0	  1088.6
     55.4469	  1442.0	  1496.1	 -3078.1	  1083.2
     55.4882	  1499.0	  1503.6	 -3028.6	  1077.7
     55.5295	  1488.0	  1507.5	 -3043.5	  1072.2
     55.5708	  1488.0	  1505.0	 -3041.0	  1066.6
     55.6121	  1494.0	  1496.4	 -3026.4	  1061.0
     55.6534	  1503.0	  1483.0	 -3004.0	  1055.3
     55.6947	  1464.0	  1467.0	 -3027.0	  1049.6
     55.7360	  1474.0	  1450.7	 -3000.7	  1043.8
     55.7773	  1505.0	  1435.5	 -2954.5	  1038.0
     55.8186	  1452.0	  1420.6	 -2992.6	  1032.1
     55.8599	  1421.0	  1403.9	 -3006.9	  1026.2
     55.9011	  1352.0	  1383.6	 -3055.6	  1020.3
     55.9424	  1351.0	  1359.6	 -3032.6	  1014.3
     55.9837	  1295.0	  1332.5	 -3061.5	  1008.3
     56.0249	  1267.0	  1303.9	 -3060.9	  1002.3
     56.0661	  1272.0	  1275.6	 -3027.6	   996.2
     56.1074	  1251.0	  1249.6	 -3022.6	   990.1
     56.1486	  1237.0	  1227.0	 -3014.0	   984.0
     56.1898	  1166.0	  1208.2	 -3066.1	   977.9
     56.2310	  1156.0	  1192.9	 -3060.9	   971.7
     56.2723	  1153.0	  1180.6	 -3051.6	   965.6
     56.3135	  1184.0	  1170.4	 -3010.4	   959.4
     56.3547	  1165.0	  1161.8	 -3020.8	   953.2
     56.3959	  1133.0	  1154.2	 -3045.2	   947.0
     56.4370	  1116.0	  1147.3	 -3055.3	   940.8
     56.4782	  1242.0	  1140.9	 -2922.9	   934.5
     56.5194	  1180.0	  1135.0	 -2979.0	   928.3
     56.5605	  1121.0	  1128.9	 -3031.9	   922.1
     56.6017	  1167.0	  1124.0	 -2981.0	   915.9
     56.6429	  1164.0	  1119.4	 -2979.4	   909.7
     56.6840	  1073.0	  1115.4	 -3066.4	   903.5
     56.7251	  1132.0	  1111.4	 -3003.4	   897.3
     56.7663	  1091.0	  1108.0	 -3041.0	   891.1
     56.8074	  1103.0	  1104.5	 -3025.5	   885.0
     56.8485	  1151.0	  1100.4	 -2973.4	   878.9
     56.8896	  1090.0	  1095.2	 -3029.2	   872.8
     56.9307	  1020.0	  1088.7	 -3092.7	   866.7
     56.9718	  1142.0	  1081.1	 -2963.1	   860.6
     57.0129	  1018.0	  1072.7	 -3078.7	   854.6
     57.0540	  1062.0	  1063.8	 -3025.8	   848.7
     57.0950	   997.0	  1054.8	 -3081.8	   842.7
     57.1361	   989.0	  1046.1	 -3081.1	   836.8
     57.1772	  1058.0	  1038.0	 -3004.0	   831.0
     57.2182	   984.0	  1030.6	 -3070.6	   825.2
     57.2593	  1039.0	  1023.8	 -3008.8	   819.4
     57.3003	   978.0	  1017.6	 -3063.6	   813.7
     57.3413	   956.0	  1011.8	 -3079.8	   808.1
     57.3823	  1036.0	  1006.4	 -2994.4	   802.5
     57.4234	  1010.0	  1001.4	 -3015.4	   797.0
     57.4644	  1003.0	   996.6	 -3017.6	   791.5
     57.5054	  1044.0	   992.1	 -2972.1	   786.1
     57.5463	  1014.0	   987.8	 -2997.8	   780.8
     57.5873	  1023.0	   983.8	 -2984.8	   775.6
     57.6283	   971.0	   980.1	 -3033.1	   770.4
     57.6693	  1088.0	   976.7	 -2912.7	   765.4
     57.7102	   990.0	   973.8	 -3007.8	   760.4
     57.7512	  1053.0	   971.5	 -2942.5	   755.5
     57.7921	  1069.0	   969.9	 -2924.9	   750.7
     57.8331	  1081.0	   969.3	 -2912.3	   745.9
     57.8740	  1060.0	   970.0	 -2934.0	   741.3
     57.9149	  1069.0	   972.5	 -2927.5	   736.8
     57.9558	  1011.0	   976.9	 -2989.9	   732.4
     57.9967	  1010.0	   983.6	 -2997.6	   728.0
     58.0376	  1009.0	   993.0	 -3008.0	   723.8
     58.0785	   981.0	  1005.1	 -3048.1	   719.7
     58.1194	   979.0	  1019.9	 -3064.9	   715.7
     58.1602	   919.0	  1037.2	 -3142.2	   711.8
     58.2011	   978.0	  1056.0	 -3102.0	   708.1
     58.2419	  1010.0	  1074.6	 -3088.6	   704.4
     58.2828	  1064.0	  1091.7	 -3051.7	   700.9
     58.3236	  1082.0	  1106.6	 -3048.6	   697.5
     58.3645	  1111.0	  1120.3	 -3033.3	   694.2
     58.4053	  1133.0	  1134.3	 -3025.3	   691.1
     58.4461	  1162.0	  1150.9	 -3012.9	   688.0
     58.4869	  1121.0	  1171.9	 -3074.9	   685.2
     58.5277	  1168.0	  1199.0	 -3055.0	   682.4
     58.5685	  1247.0	  1232.3	 -3009.3	   679.8
     58.6092	  1261.0	  1270.1	 -3033.1	   677.3
     58.6500	  1324.0	  1310.3	 -3010.3	   675.0
     58.6908	  1315.0	  1351.9	 -3060.9	   672.8
     58.7315	  1359.0	  1395.0	 -3060.0	   670.7
     58.7722	  1416.0	  1440.1	 -3048.1	   668.8
     58.8130	  1543.0	  1486.8	 -2967.8	   667.0
     58.8537	  1468.0	  1532.6	 -3088.6	   665.4
     58.8944	  1547.0	  1572.5	 -3049.5	   663.9
     58.9351	  1583.0	  1599.4	 -3040.4	   662.6
     58.9758	  1659.0	  1608.1	 -2973.1	   661.4
     59.0165	  1643.0	  1597.5	 -2978.5	   660.4
     59.0572	  1570.0	  1569.8	 -3023.8	   659.5
     59.0978	  1492.0	  1528.6	 -3060.6	   658.8
     59.1385	  1403.0	  1477.5	 -3098.5	   658.2
     59.1791	  1383.0	  1420.2	 -3061.2	   657.8
     59.2198	  1363.0	  1360.1	 -3021.1	   657.6
     59.2604	  1227.0	  1299.3	 -3096.3	   657.4
     59.3010	  1234.0	  1240.0	 -3030.0	   657.5
     59.3416	  1152.0	  1183.7	 -3055.7	   657.7
     59.3822	  1167.0	  1131.3	 -2988.3	   658.0
     59.4228	  1168.0	  1083.6	 -2939.6	   658.5
     59.4634	  1107.0	   843.3	 -2760.3	   659.2
     59.5040	  1084.0	   844.1	 -3024.0	   660.0
     59.5445	  1136.0	   845.0	 -3024.0	   661.0
     59.5851	  1133.0	   846.1	 -3024.0	   662.1
     59.6256	  1131.0	   847.4	 -3024.0	   663.3
     59.6662	  1233.0	   848.8	 -3024.0	   664.7
     59.7067	  1161.0	   850.4	 -3024.0	   666.3
     59.7472	  1297.0	   852.1	 -3024.0	   668.0
     59.7877	  1317.0	   853.9	 -3024.0	   669.8
     59.8282	  1340.0	   855.9	 -3024.0	   671.8
     59.8687	  1324.0	   858.0	 -3024.0	   673.9
     59.9092	  1333.0	   860.3	 -3024.0	   676.2
     59.9496	  1287.0	   862.7	 -3024.0	   678.6
     59.9901	  1336.0	   865.2	 -3024.0	   681.1
     60.0305	  1473.0	   867.8	 -3024.0	   683.8
     60.0710	  1506.0	   870.6	 -3024.0	   686.6
     60.1114	  1535.0	   873.5	 -3024.0	   689.5
     60.1518	  1713.0	   876.6	 -3024.0	   692.5
     60.1922	  1669.0	   879.7	 -3024.0	   695.7
     60.2326	  1760.0	   883.0	 -3024.0	   698.9
     60.2730	  1942.0	   886.4	 -3024.0	   702.3
     60.3134	  1965.0	   889.9	 -3024.0	   705.8
     60.3537	  2033.0	   893.5	 -3024.0	   709.4
     60.3941	  2097.0	   897.2	 -3024.0	   713.1
     60.4344	  2225.0	   901.0	 -3024.0	   716.9
     60.4748	  2315.0	   904.8	 -3024.0	   720.8
     60.5151	  2350.0	   908.8	 -3024.0	   724.7
     60.5554	  2506.0	   912.9	 -3024.0	   728.8
     60.5957	  2593.0	   917.0	 -3024.0	   732.9
     60.6360	  2655.0	   921.2	 -3024.0	   737.1
     60.6763	  2709.0	   925.5	 -3024.0	   741.4
     60.7165	  2730.0	   929.8	 -3024.0	   745.8
     60.7568	  2934.0	   934.2	 -3024.0	   750.2
     60.7970	  2855.0	   938.7	 -3024.0	   754.6
     60.8373	  2847.0	   943.2	 -3024.0	   759.1
     60.8775	  2892.0	   947.7	 -3024.0	   763.6
     60.9177	  2923.0	   952.3	 -3024.0	   768.2
     60.9579	  2871.0	   956.9	 -3024.0	   772.8
     60.9981	  2871.0	   961.5	 -3024.0	   777.5
     61.0383	  2779.0	   966.2	 -3024.0	   782.1
     61.0785	  2865.0	   970.8	 -3024.0	   786.8
     61.1186	  2667.0	   975.5	 -3024.0	   791.4
     61.1588	  2587.0	   980.2	 -3024.0	   796.1
     61.1989	  2624.0	   984.8	 -3024.0	   800.7
     61.2390	  2582.0	   989.4	 -3024.0	   805.4
     61.2791	  2523.0	   994.0	 -3024.0	   810.0
     61.3192	  2508.0	   998.6	 -3024.0	   814.6
     61.3593	  2450.0	  1003.2	 -3024.0	   819.1
     61.3994	  2285.0	  1007.7	 -3024.0	   823.6
     61.4395	  2357.0	  1012.1	 -3024.0	   828.0
     61.4795	  2341.0	  1016.5	 -3024.0	   832.4
     61.5196	  2213.0	  1020.8	 -3024.0	   836.7
     61.5596	  2154.0	  1025.1	 -3024.0	   841.0
     61.5997	  2078.0	  1029.2	 -3024.0	   845.2
     61.6397	  2160.0	  1033.3	 -3024.0	   849.2
     61.6797	  2168.0	  1037.3	 -3024.0	   853.2
     61.7197	  2002.0	  1041.1	 -3024.0	   857.1
     61.7596	  1994.0	  1044.9	 -3024.0	   860.8
     61.7996	  1848.0	  1048.5	 -3024.0	   864.5
     61.8396	  2013.0	  1052.1	 -3024.0	   868.0
     61.8795	  1993.0	  1055.4	 -3024.0	   871.4
     61.9194	  1815.0	  1058.7	 -3024.0	   874.6
     61.9594	  1785.0	  1061.7	 -3024.0	   877.7
     61.9993	  1777.0	  1064.7	 -3024.0	   880.6
     62.0392	  1730.0	  1067.4	 -3024.0	   883.3
     62.0790	  1732.0	  1070.0	 -3024.0	   885.9
     62.1189	  1794.0	  1072.4	 -3024.0	   888.3
     62.1588	  1784.0	  1074.6	 -3024.0	   890.5
     62.1986	  1822.0	  1076.6	 -3024.0	   892.5
     62.2385	  1641.0	  1078.4	 -3024.0	   894.3
     62.2783	  1706.0	  1080.0	 -3024.0	   895.9
     62.3181	  1556.0	  1081.4	 -3024.0	   897.3
     62.3579	  1680.0	  1082.5	 -3024.0	   898.5
     62.3977	  1713.0	  1083.5	 -3024.0	   899.4
     62.4375	  1673.0	  1084.2	 -3024.0	   900.1
     62.4772	  1636.0	  1084.6	 -3024.0	   900.5
     62.5170	  1712.0	  1084.8	 -3024.0	   900.7
     62.5567	  1681.0	  1084.8	 -3024.0	   900.7
     62.5965	  1646.0	  1084.4	 -3024.0	   900.4
     62.6362	  1665.0	  1083.9	 -3024.0	   899.8
     62.6759	  1683.0	  1083.0	 -3024.0	   898.9
     62.7156	  1657.0	  1081.9	 -3024.0	   897.8
     62.7552	  1737.0	  1080.5	 -3024.0	   896.4
     62.7949	  1717.0	  1078.8	 -3024.0	   894.7
     62.8346	  1682.0	  1076.8	 -3024.0	   892.8
     62.8742	  1727.0	  1074.6	 -3024.0	   890.5
     62.9138	  1721.0	  1072.0	 -3024.0	   888.0
     62.9534	  1770.0	  1069.2	 -3024.0	   885.1
     62.9930	  1824.0	  1066.1	 -3024.0	   882.0
     63.0326	  1864.0	  1062.6	 -3024.0	   878.6
     63.0722	  1890.0	  1058.9	 -3024.0	   874.8
     63.1118	  1952.0	  1054.9	 -3024.0	   870.8
     63.1513	  2012.0	  1050.6	 -3024.0	   866.5
     63.1909	  2011.0	  1046.0	 -3024.0	   861.9
     63.2304	  1980.0	  1041.1	 -3024.0	   857.0
     63.2699	  1914.0	  1035.9	 -3024.0	   851.8
     63.3094	  1869.0	  1030.4	 -3024.0	   846.3
     63.3489	  1798.0	  1024.6	 -3024.0	   840.5
     63.3884	  1580.0	  1018.6	 -3024.0	   834.5
     63.4278	  1512.0	  1012.3	 -3024.0	   828.2
     63.4673	  1305.0	  1005.7	 -3024.0	   821.6
     63.5067	  1349.0	   998.9	 -3024.0	   814.8
     63.5461	  1260.0	   991.8	 -3024.0	   807.7
     63.5856	  1248.0	   984.4	 -3024.0	   800.4
     63.6250	  1234.0	   976.9	 -3024.0	   792.8
     63.6643	  1178.0	   969.1	 -3024.0	   785.0
     63.7037	  1247.0	  1146.9	 -2923.9	   777.0
     63.7431	  1229.0	  1167.3	 -2962.3	   768.8
     63.7824	  1271.0	  1191.6	 -2944.6	   760.5
     63.8217	  1246.0	  1219.7	 -2997.7	   751.9
     63.8611	  1252.0	  1251.0	 -3023.0	   743.2
     63.9004	  1212.0	  1284.5	 -3096.5	   734.4
     63.9397	  1267.0	  1318.7	 -3075.7	   725.5
     63.9789	  1306.0	  1352.0	 -3070.0	   716.4
     64.0182	  1389.0	  1383.2	 -3018.2	   707.3
     64.0574	  1374.0	  1412.7	 -3062.7	   698.2
     64.0967	  1430.0	  1443.1	 -3037.1	   689.0
     64.1359	  1399.0	  1479.3	 -3104.3	   679.8
     64.1751	  1461.0	  1527.5	 -3090.5	   670.7
     64.2143	  1586.0	  1594.8	 -3032.8	   661.6
     64.2535	  1810.0	  1688.7	 -2902.7	   652.6
     64.2927	  1840.0	  1815.8	 -2999.8	   643.7
     64.3318	  2094.0	  1981.2	 -2911.2	   635.0
     64.3710	  2250.0	  2186.7	 -2960.7	   626.5
     64.4101	  2376.0	  2430.7	 -3078.7	   618.2
     64.4492	  2622.0	  2706.1	 -3108.1	   610.2
     64.4883	  2853.0	  3000.2	 -3171.2	   602.5
     64.5274	  3307.0	  3291.7	 -3008.7	   595.1
     64.5665	  3465.0	  3551.8	 -3110.8	   588.1
     64.6055	  3922.0	  3747.2	 -2849.2	   581.6
     64.6446	  3741.0	  3850.4	 -3133.4	   575.6
     64.6836	  3726.0	  3849.6	 -3147.6	   570.2
     64.7226	  3850.0	  3750.2	 -2924.2	   565.3
     64.7616	  3603.0	  3568.4	 -2989.4	   561.1
     64.8006	  3449.0	  3324.3	 -2899.3	   557.6
     64.8396	  3117.0	  3041.2	 -2948.2	   555.0
     64.8786	  2785.0	  2745.2	 -2984.2	   553.1
     64.9175	  2395.0	  2460.9	 -3089.9	   552.2
     64.9565	  2262.0	  2207.3	 -2969.3	   552.3
     64.9954	  1893.0	  1995.5	 -3126.5	   553.4
     65.0343	  1746.0	  1829.6	 -3107.6	   555.7
     65.0732	  1706.0	  1708.3	 -3026.3	   559.2
     65.1120	  1597.0	  1625.5	 -3052.5	   564.0
     65.1509	  1549.0	  1572.7	 -3047.7	   570.1
     65.1898	  1440.0	  1539.8	 -3123.8	   577.8
     65.2286	  1462.0	  1516.7	 -3078.7	   586.9
     65.2674	  1598.0	  1495.8	 -2921.8	   597.8
     65.3062	  1471.0	  1472.3	 -3025.3	   610.4
     65.3450	  1468.0	  1444.3	 -3000.3	   624.8
     65.3838	  1467.0	  1411.9	 -2968.9	   641.3
     65.4225	  1422.0	  1376.3	 -2978.3	   659.7
     65.4613	  1385.0	  1339.6	 -2978.6	   680.4
     65.5000	  1321.0	  1304.8	 -3007.8	   703.3
     65.5387	  1306.0	  1274.6	 -2992.6	   728.7
     65.5775	  1162.0	  1251.1	 -3113.1	   756.6
     65.6161	  1246.0	  1235.8	 -3013.8	   787.2
     65.6548	  1284.0	  1229.5	 -2969.5	   820.6
     65.6935	  1231.0	  1232.3	 -3025.3	   856.9
     65.7321	  1196.0	  1243.8	 -3071.8	   896.3
