MSG Master    CELL:    5.90964   5.90964  23.23241   90.0000   90.0000  120.0000   SPGR: P 63/m m c             TEMP:    914.65
  1   1280     2.52000     0.00000    -0.12947     0.00000     0.00000    0
    98     0     2
       0.00000      10.00000
     125.00000     130.00000
 2Theta	Yobs	Ycal	Yobs-Ycal	Backg	Posr	(hkl)	K
      0.7700	    0.00	  460.74	-1734.00	  348.84
      0.8700	    0.00	  462.41	-1734.00	  350.51
      0.9700	   53.00	  464.06	-1734.00	  352.16
      1.0700	   46.00	  465.69	-1734.00	  353.79
      1.1700	   45.00	  467.30	-1734.00	  355.40
      1.2700	   51.00	  468.90	-1734.00	  357.00
      1.3700	   47.00	  470.48	-1734.00	  358.58
      1.4700	   92.00	  472.04	-1734.00	  360.14
      1.5700	  286.00	  473.58	-1734.00	  361.69
      1.6700	  453.00	  475.11	-1734.00	  363.21
      1.7700	  579.00	  476.62	-1734.00	  364.72
      1.8700	  632.00	  478.11	-1734.00	  366.21
      1.9700	  732.00	  479.59	-1734.00	  367.69
      2.0700	  771.00	  481.05	-1734.00	  369.15
      2.1700	  796.00	  482.49	-1734.00	  370.59
      2.2700	  723.00	  483.91	-1734.00	  372.01
      2.3700	  714.00	  485.32	-1734.00	  373.42
      2.4700	  690.00	  486.71	-1734.00	  374.81
      2.5700	  705.00	  488.09	-1734.00	  376.19
      2.6700	  681.00	  489.44	-1734.00	  377.54
      2.7700	  705.00	  490.79	-1734.00	  378.89
      2.8700	  640.00	  492.11	-1734.00	  380.21
      2.9700	  635.00	  493.42	-1734.00	  381.52
      3.0700	  604.00	  494.72	-1734.00	  382.82
      3.1700	  628.00	  496.00	-1734.00	  384.10
      3.2700	  640.00	  497.26	-1734.00	  385.36
      3.3700	  768.00	  498.50	-1734.00	  386.61
      3.4700	  776.00	  499.74	-1734.00	  387.84
      3.5700	  888.00	  500.95	-1734.00	  389.05
      3.6700	  990.00	  502.15	-1734.00	  390.25
      3.7700	 1116.00	  503.34	-1734.00	  391.44
      3.8700	 1169.00	  504.51	-1734.00	  392.61
      3.9700	 1162.00	  505.66	-1734.00	  393.76
      4.0700	 1132.00	  506.80	-1734.00	  394.90
      4.1700	 1199.00	  507.93	-1734.00	  396.03
      4.2700	 1266.00	  509.04	-1734.00	  397.14
      4.3700	 1240.00	  510.14	-1734.00	  398.24
      4.4700	 1180.00	  511.22	-1734.00	  399.32
      4.5700	 1111.00	  512.29	-1734.00	  400.39
      4.6700	 1106.00	  513.34	-1734.00	  401.44
      4.7700	 1049.00	  514.38	-1734.00	  402.48
      4.8700	 1059.00	  515.40	-1734.00	  403.50
      4.9700	 1076.00	  516.41	-1734.00	  404.51
      5.0700	  966.00	  517.41	-1734.00	  405.51
      5.1700	  946.00	  518.39	-1734.00	  406.49
      5.2700	  954.00	  519.36	-1734.00	  407.46
      5.3700	  928.00	  520.31	-1734.00	  408.41
      5.4700	  884.00	  521.25	-1734.00	  409.35
      5.5700	  897.00	  522.18	-1734.00	  410.28
      5.6700	  865.00	  523.10	-1734.00	  411.20
      5.7700	  847.00	  524.00	-1734.00	  412.10
      5.8700	  880.00	  524.88	-1734.00	  412.98
      5.9700	  856.00	  525.76	-1734.00	  413.86
      6.0700	  808.00	  526.62	-1734.00	  414.72
      6.1700	  795.00	  527.47	-1734.00	  415.57
      6.2700	  788.00	  528.30	-1734.00	  416.40
      6.3700	  821.00	  529.13	-1734.00	  417.23
      6.4700	  827.00	  529.94	-1734.00	  418.04
      6.5700	  719.00	  530.73	-1734.00	  418.83
      6.6700	  750.00	  531.52	-1734.00	  419.62
      6.7700	  778.00	  532.29	-1734.00	  420.39
      6.8700	  729.00	  533.05	-1734.00	  421.15
      6.9700	  720.00	  533.80	-1734.00	  421.90
      7.0700	  671.00	  534.54	-1734.00	  422.64
      7.1700	  712.00	  535.26	-1734.00	  423.36
      7.2700	  666.00	  535.97	-1734.00	  424.07
      7.3700	  679.00	  536.67	-1734.00	  424.77
      7.4700	  650.00	  537.36	-1734.00	  425.46
      7.5700	  677.00	  538.03	-1734.00	  426.13
      7.6700	  642.00	  538.70	-1734.00	  426.80
      7.7700	  630.00	  539.35	-1734.00	  427.45
      7.8700	  691.00	  539.99	-1734.00	  428.09
      7.9700	  677.00	  540.62	-1734.00	  428.72
      8.0700	  652.00	  541.24	-1734.00	  429.34
      8.1700	  651.00	  541.85	-1734.00	  429.95
      8.2700	  568.00	  542.44	-1734.00	  430.55
      8.3700	  659.00	  543.03	-1734.00	  431.13
      8.4700	  620.00	  543.60	-1734.00	  431.70
      8.5700	  592.00	  544.17	-1734.00	  432.27
      8.6700	  614.00	  544.72	-1734.00	  432.82
      8.7700	  608.00	  545.26	-1734.00	  433.36
      8.8700	  660.00	  545.79	-1734.00	  433.89
      8.9700	  611.00	  546.31	-1734.00	  434.41
      9.0700	  582.00	  546.82	-1734.00	  434.92
      9.1700	  584.00	  547.32	-1734.00	  435.42
      9.2700	  613.00	  547.81	-1734.00	  435.91
      9.3700	  566.00	  548.29	-1734.00	  436.39
      9.4700	  616.00	  548.76	-1734.00	  436.86
      9.5700	  607.00	  549.22	-1734.00	  437.32
      9.6700	  571.00	  549.67	-1734.00	  437.77
      9.7700	  572.00	  550.10	-1734.00	  438.21
      9.8700	  548.00	  550.53	-1734.00	  438.63
      9.9700	  602.00	  550.95	-1734.00	  439.05
     10.0700	  619.00	  552.91	-1667.91	  439.46
     10.1700	  599.00	  553.48	-1688.48	  439.86
     10.2700	  646.00	  554.07	-1642.07	  440.25
     10.3700	  594.00	  554.71	-1694.71	  440.63
     10.4700	  536.00	  555.43	-1753.43	  441.00
     10.5700	  601.00	  556.29	-1689.29	  441.37
     10.6700	  542.00	  557.36	-1749.36	  441.72
     10.7700	  611.00	  558.74	-1681.74	  442.06
     10.8700	  606.00	  560.49	-1688.49	  442.40
     10.9700	  557.00	  562.64	-1739.64	  442.72
     11.0700	  607.00	  565.19	-1692.19	  443.04
     11.1700	  576.00	  568.15	-1726.15	  443.34
     11.2700	  556.00	  571.54	-1749.54	  443.64
     11.3700	  557.00	  575.44	-1752.44	  443.93
     11.4700	  612.00	  580.00	-1702.00	  444.21
     11.5700	  574.00	  585.41	-1745.41	  444.49
     11.6700	  612.00	  592.00	-1714.00	  444.75
     11.7700	  593.00	  600.21	-1741.21	  445.01
     11.8700	  602.00	  610.40	-1742.40	  445.25
     11.9700	  611.00	  622.35	-1745.35	  445.49
     12.0700	  673.00	  634.41	-1695.41	  445.72
     12.1700	  722.00	  642.67	-1654.67	  445.95
     12.2700	  669.00	  641.31	-1706.31	  446.16
     12.3700	  641.00	  627.62	-1720.62	  446.37
     12.4700	  666.00	  608.05	-1676.05	  446.57
     12.5700	  627.00	  590.91	-1697.91	  446.76
     12.6700	  581.00	  579.10	-1732.10	  446.94
     12.7700	  578.00	  572.06	-1728.06	  447.11
     12.8700	  563.00	  568.19	-1739.19	  447.28
     12.9700	  604.00	  566.08	-1696.08	  447.44
     13.0700	  541.00	  564.84	-1757.84	  447.59
     13.1700	  546.00	  564.03	-1752.03	  447.74
     13.2700	  554.00	  563.47	-1743.47	  447.88
     13.3700	  533.00	  563.07	-1764.07	  448.01
     13.4700	  533.00	  562.78	-1763.78	  448.13
     13.5700	  542.00	  562.56	-1754.56	  448.24
     13.6700	  565.00	  562.40	-1731.40	  448.35
     13.7700	  559.00	  562.28	-1737.28	  448.45
     13.8700	  550.00	  562.19	-1746.19	  448.55
     13.9700	  550.00	  562.12	-1746.12	  448.64
     14.0700	  569.00	  562.07	-1727.07	  448.72
     14.1700	  552.00	  562.03	-1744.03	  448.79
     14.2700	  561.00	  562.03	-1735.03	  448.86
     14.3700	  544.00	  562.00	-1752.00	  448.92
     14.4700	  545.00	  561.98	-1750.98	  448.97
     14.5700	  528.00	  561.96	-1767.96	  449.02
     14.6700	  535.00	  561.95	-1760.95	  449.06
     14.7700	  552.00	  561.93	-1743.93	  449.09
     14.8700	  502.00	  561.91	-1793.91	  449.12
     14.9700	  515.00	  561.89	-1780.89	  449.14
     15.0700	  497.00	  561.87	-1798.87	  449.16
     15.1700	  521.00	  561.85	-1774.85	  449.17
     15.2700	  510.00	  561.82	-1785.82	  449.17
     15.3700	  541.00	  561.79	-1754.79	  449.17
     15.4700	  527.00	  561.76	-1768.76	  449.16
     15.5700	  534.00	  561.72	-1761.72	  449.15
     15.6700	  564.00	  561.68	-1731.68	  449.12
     15.7700	  487.00	  561.64	-1808.64	  449.10
     15.8700	  569.00	  561.59	-1726.59	  449.07
     15.9700	  588.00	  561.54	-1707.54	  449.03
     16.0700	  530.00	  561.48	-1765.48	  448.98
     16.1700	  592.00	  561.42	-1703.42	  448.94
     16.2700	  534.00	  561.35	-1761.35	  448.88
     16.3700	  541.00	  561.28	-1754.28	  448.82
     16.4700	  551.00	  561.20	-1744.20	  448.76
     16.5700	  541.00	  561.12	-1754.12	  448.68
     16.6700	  538.00	  561.04	-1757.04	  448.61
     16.7700	  553.00	  560.95	-1741.95	  448.53
     16.8700	  547.00	  560.86	-1747.86	  448.44
     16.9700	  546.00	  560.76	-1748.76	  448.35
     17.0700	  547.00	  560.66	-1747.66	  448.25
     17.1700	  556.00	  560.55	-1738.55	  448.15
     17.2700	  548.00	  560.44	-1746.44	  448.04
     17.3700	  521.00	  560.32	-1773.32	  447.93
     17.4700	  545.00	  560.20	-1749.20	  447.82
     17.5700	  541.00	  560.08	-1753.08	  447.70
     17.6700	  551.00	  560.05	-1743.05	  447.57
     17.7700	  536.00	  559.92	-1757.92	  447.44
     17.8700	  511.00	  559.78	-1782.78	  447.31
     17.9700	  538.00	  559.64	-1755.64	  447.17
     18.0700	  593.00	  559.50	-1700.50	  447.02
     18.1700	  600.00	  559.35	-1693.35	  446.87
     18.2700	  575.00	  559.29	-1718.29	  446.72
     18.3700	  587.00	  559.14	-1706.14	  446.56
     18.4700	  520.00	  558.98	-1772.98	  446.40
     18.5700	  558.00	  558.82	-1734.82	  446.24
     18.6700	  542.00	  558.65	-1750.65	  446.07
     18.7700	  576.00	  558.49	-1716.49	  445.89
     18.8700	  528.00	  558.31	-1764.31	  445.72
     18.9700	  557.00	  558.14	-1735.14	  445.53
     19.0700	  545.00	  557.96	-1746.96	  445.35
     19.1700	  564.00	  557.77	-1727.77	  445.16
     19.2700	  538.00	  557.59	-1753.59	  444.96
     19.3700	  576.00	  557.40	-1715.40	  444.77
     19.4700	  549.00	  557.20	-1742.20	  444.56
     19.5700	  551.00	  557.01	-1740.01	  444.36
     19.6700	  526.00	  556.81	-1764.81	  444.15
     19.7700	  560.00	  556.60	-1730.60	  443.94
     19.8700	  568.00	  556.43	-1722.43	  443.72
     19.9700	  558.00	  556.22	-1732.22	  443.50
     20.0700	  551.00	  556.01	-1739.01	  443.28
     20.1700	  501.00	  555.80	-1788.80	  443.05
     20.2700	  530.00	  555.58	-1759.58	  442.82
     20.3700	  548.00	  555.37	-1741.37	  442.59
     20.4700	  537.00	  555.14	-1752.14	  442.35
     20.5700	  520.00	  554.92	-1768.92	  442.12
     20.6700	  571.00	  554.70	-1717.70	  441.87
     20.7700	  537.00	  554.47	-1751.47	  441.63
     20.8700	  531.00	  554.24	-1757.24	  441.38
     20.9700	  543.00	  554.01	-1745.01	  441.13
     21.0700	  544.00	  553.78	-1743.78	  440.87
     21.1700	  561.00	  553.54	-1726.54	  440.61
     21.2700	  536.00	  553.31	-1751.31	  440.35
     21.3700	  577.00	  553.07	-1710.07	  440.09
     21.4700	  513.00	  552.83	-1773.83	  439.82
     21.5700	  495.00	  552.60	-1791.60	  439.55
     21.6700	  548.00	  552.36	-1738.36	  439.28
     21.7700	  579.00	  552.12	-1707.12	  439.01
     21.8700	  552.00	  551.88	-1733.88	  438.73
     21.9700	  548.00	  551.65	-1737.65	  438.45
     22.0700	  525.00	  551.41	-1760.41	  438.17
     22.1700	  551.00	  551.18	-1734.18	  437.88
     22.2700	  549.00	  550.95	-1735.95	  437.59
     22.3700	  533.00	  550.72	-1751.72	  437.30
     22.4700	  550.00	  550.50	-1734.50	  437.01
     22.5700	  539.00	  550.40	-1745.40	  436.72
     22.6700	  608.00	  550.19	-1676.19	  436.42
     22.7700	  548.00	  549.99	-1735.99	  436.12
     22.8700	  593.00	  549.80	-1690.80	  435.82
     22.9700	  551.00	  549.63	-1732.63	  435.52
     23.0700	  572.00	  549.47	-1711.47	  435.21
     23.1700	  590.00	  549.34	-1693.34	  434.90
     23.2700	  564.00	  549.23	-1719.23	  434.59
     23.3700	  546.00	  549.16	-1737.16	  434.28
     23.4700	  560.00	  549.14	-1723.14	  433.97
     23.5700	  558.00	  549.19	-1725.19	  433.65
     23.6700	  564.00	  549.33	-1719.33	  433.33
     23.7700	  549.00	  549.61	-1734.61	  433.01
     23.8700	  552.00	  550.15	-1732.15	  432.69
     23.9700	  536.00	  551.11	-1749.11	  432.37
     24.0700	  605.00	  552.79	-1681.79	  432.04
     24.1700	  571.00	  555.66	-1718.66	  431.72
     24.2700	  564.00	  560.30	-1730.30	  431.39
     24.3700	  599.00	  567.30	-1702.30	  431.06
     24.4700	  597.00	  577.04	-1714.04	  430.73
     24.5700	  609.00	  589.24	-1714.24	  430.40
     24.6700	  644.00	  602.29	-1692.29	  430.06
     24.7700	  633.00	  612.58	-1713.58	  429.72
     24.8700	  676.00	  614.68	-1672.68	  429.39
     24.9700	  649.00	  605.34	-1690.34	  429.05
     25.0700	  616.00	  589.17	-1707.17	  428.71
     25.1700	  579.00	  573.58	-1728.58	  428.37
     25.2700	  561.00	  562.02	-1735.02	  428.02
     25.3700	  542.00	  554.63	-1746.63	  427.68
     25.4700	  585.00	  550.33	-1699.33	  427.34
     25.5700	  564.00	  547.86	-1717.86	  426.99
     25.6700	  589.00	  546.35	-1691.35	  426.64
     25.7700	  563.00	  545.34	-1716.34	  426.29
     25.8700	  584.00	  544.61	-1694.61	  425.94
     25.9700	  591.00	  544.06	-1687.06	  425.59
     26.0700	  542.00	  543.64	-1735.64	  425.24
     26.1700	  565.00	  543.34	-1712.34	  424.89
     26.2700	  568.00	  543.13	-1709.13	  424.53
     26.3700	  540.00	  543.03	-1737.03	  424.18
     26.4700	  549.00	  543.02	-1728.02	  423.82
     26.5700	  564.00	  543.12	-1713.12	  423.47
     26.6700	  561.00	  543.34	-1716.34	  423.11
     26.7700	  535.00	  543.71	-1742.71	  422.75
     26.8700	  579.00	  544.25	-1699.25	  422.39
     26.9700	  590.00	  545.01	-1689.01	  422.03
     27.0700	  596.00	  546.05	-1684.05	  421.67
     27.1700	  585.00	  547.51	-1696.51	  421.31
     27.2700	  544.00	  549.56	-1739.56	  420.95
     27.3700	  559.00	  552.61	-1727.61	  420.59
     27.4700	  591.00	  557.41	-1700.41	  420.23
     27.5700	  567.00	  565.30	-1732.30	  419.86
     27.6700	  563.00	  578.49	-1749.49	  419.50
     27.7700	  569.00	  600.03	-1765.03	  419.14
     27.8700	  605.00	  632.99	-1761.99	  418.77
     27.9700	  610.00	  678.62	-1802.62	  418.41
     28.0700	  751.00	  733.77	-1716.77	  418.04
     28.1700	  790.00	  788.34	-1732.34	  417.68
     28.2700	  914.00	  824.38	-1644.38	  417.31
     28.3700	  952.00	  823.62	-1605.62	  416.94
     28.4700	  842.00	  790.97	-1682.97	  416.58
     28.5700	  742.00	  756.98	-1748.98	  416.21
     28.6700	  748.00	  744.49	-1730.49	  415.84
     28.7700	  689.00	  756.41	-1801.41	  415.48
     28.8700	  816.00	  780.60	-1698.60	  415.11
     28.9700	  794.00	  795.01	-1735.01	  414.74
     29.0700	  771.00	  777.69	-1740.69	  414.37
     29.1700	  696.00	  728.29	-1766.29	  414.01
     29.2700	  728.00	  669.95	-1675.95	  413.64
     29.3700	  603.00	  621.31	-1752.31	  413.27
     29.4700	  547.00	  587.77	-1774.77	  412.90
     29.5700	  606.00	  567.38	-1695.38	  412.54
     29.6700	  588.00	  555.77	-1701.77	  412.17
     29.7700	  504.00	  549.15	-1779.15	  411.80
     29.8700	  582.00	  545.14	-1697.14	  411.43
     29.9700	  573.00	  542.58	-1703.58	  411.07
     30.0700	  545.00	  541.01	-1730.01	  410.70
     30.1700	  558.00	  540.40	-1716.40	  410.33
     30.2700	  586.00	  540.99	-1688.99	  409.97
     30.3700	  582.00	  543.37	-1695.37	  409.60
     30.4700	  549.00	  548.46	-1733.46	  409.23
     30.5700	  556.00	  557.30	-1735.30	  408.87
     30.6700	  552.00	  570.34	-1752.34	  408.50
     30.7700	  585.00	  586.56	-1735.56	  408.14
     30.8700	  609.00	  602.62	-1727.62	  407.77
     30.9700	  619.00	  612.64	-1727.64	  407.41
     31.0700	  582.00	  610.21	-1762.21	  407.05
     31.1700	  586.00	  595.06	-1743.06	  406.68
     31.2700	  565.00	  575.04	-1744.04	  406.32
     31.3700	  595.00	  557.35	-1696.35	  405.96
     31.4700	  569.00	  544.61	-1709.61	  405.59
     31.5700	  556.00	  536.58	-1714.58	  405.23
     31.6700	  567.00	  531.91	-1698.91	  404.87
     31.7700	  498.00	  529.23	-1765.23	  404.51
     31.8700	  578.00	  527.63	-1683.63	  404.15
     31.9700	  512.00	  526.58	-1748.58	  403.79
     32.0700	  552.00	  525.88	-1707.88	  403.43
     32.1700	  528.00	  525.42	-1731.42	  403.07
     32.2700	  554.00	  525.17	-1705.17	  402.72
     32.3700	  583.00	  525.10	-1676.10	  402.36
     32.4700	  560.00	  525.24	-1699.24	  402.00
     32.5700	  567.00	  525.59	-1692.59	  401.65
     32.6700	  554.00	  526.18	-1706.18	  401.30
     32.7700	  546.00	  527.08	-1715.08	  400.94
     32.8700	  573.00	  528.36	-1689.36	  400.59
     32.9700	  533.00	  530.16	-1731.16	  400.24
     33.0700	  534.00	  532.70	-1732.70	  399.89
     33.1700	  503.00	  536.45	-1767.45	  399.53
     33.2700	  581.00	  542.33	-1695.33	  399.19
     33.3700	  592.00	  552.14	-1694.14	  398.84
     33.4700	  589.00	  569.05	-1714.05	  398.49
     33.5700	  615.00	  597.85	-1716.85	  398.14
     33.6700	  623.00	  644.15	-1755.15	  397.80
     33.7700	  719.00	  711.32	-1726.32	  397.45
     33.8700	  751.00	  795.77	-1778.77	  397.11
     33.9700	  937.00	  882.40	-1679.40	  396.76
     34.0700	 1061.00	  943.50	-1616.50	  396.42
     34.1700	  990.00	  947.14	-1691.14	  396.08
     34.2700	  936.00	  885.59	-1683.59	  395.74
     34.3700	  826.00	  791.08	-1699.08	  395.40
     34.4700	  713.00	  700.67	-1721.67	  395.07
     34.5700	  593.00	  631.62	-1772.62	  394.73
     34.6700	  568.00	  585.93	-1751.93	  394.39
     34.7700	  557.00	  558.58	-1735.58	  394.06
     34.8700	  547.00	  542.93	-1729.93	  393.73
     34.9700	  525.00	  533.75	-1742.75	  393.39
     35.0700	  502.00	  527.89	-1759.89	  393.06
     35.1700	  513.00	  523.74	-1744.74	  392.73
     35.2700	  518.00	  520.57	-1736.57	  392.40
     35.3700	  540.00	  518.05	-1712.05	  392.08
     35.4700	  532.00	  515.97	-1717.97	  391.75
     35.5700	  502.00	  514.24	-1746.24	  391.43
     35.6700	  545.00	  513.19	-1702.19	  391.10
     35.7700	  540.00	  511.92	-1705.92	  390.78
     35.8700	  525.00	  510.81	-1719.81	  390.46
     35.9700	  470.00	  509.83	-1773.83	  390.14
     36.0700	  497.00	  508.97	-1745.97	  389.82
     36.1700	  554.00	  508.18	-1688.18	  389.51
     36.2700	  550.00	  507.48	-1691.48	  389.19
     36.3700	  491.00	  506.83	-1749.83	  388.88
     36.4700	  519.00	  506.25	-1721.25	  388.56
     36.5700	  495.00	  505.73	-1744.73	  388.25
     36.6700	  529.00	  505.27	-1710.27	  387.94
     36.7700	  510.00	  504.88	-1728.88	  387.63
     36.8700	  515.00	  504.57	-1723.57	  387.33
     36.9700	  474.00	  504.41	-1764.41	  387.02
     37.0700	  492.00	  504.47	-1746.47	  386.72
     37.1700	  512.00	  504.92	-1726.92	  386.41
     37.2700	  461.00	  505.94	-1778.94	  386.11
     37.3700	  503.00	  507.72	-1738.72	  385.81
     37.4700	  475.00	  510.26	-1769.26	  385.51
     37.5700	  497.00	  513.26	-1750.26	  385.22
     37.6700	  504.00	  515.93	-1745.93	  384.92
     37.7700	  530.00	  517.11	-1721.11	  384.63
     37.8700	  518.00	  515.91	-1731.91	  384.34
     37.9700	  525.00	  512.89	-1721.89	  384.05
     38.0700	  497.00	  509.02	-1746.02	  383.76
     38.1700	  480.00	  505.52	-1759.52	  383.47
     38.2700	  523.00	  502.80	-1713.80	  383.18
     38.3700	  480.00	  500.89	-1754.89	  382.90
     38.4700	  493.00	  499.60	-1740.60	  382.62
     38.5700	  465.00	  498.72	-1767.72	  382.34
     38.6700	  497.00	  498.08	-1735.08	  382.06
     38.7700	  506.00	  497.58	-1725.58	  381.78
     38.8700	  477.00	  497.15	-1754.15	  381.50
     38.9700	  448.00	  496.76	-1782.76	  381.23
     39.0700	  503.00	  496.40	-1727.40	  380.96
     39.1700	  506.00	  495.98	-1723.98	  380.69
     39.2700	  488.00	  495.67	-1741.67	  380.42
     39.3700	  490.00	  495.37	-1739.37	  380.15
     39.4700	  526.00	  495.09	-1703.09	  379.88
     39.5700	  462.00	  494.83	-1766.83	  379.62
     39.6700	  495.00	  494.57	-1733.57	  379.36
     39.7700	  477.00	  494.33	-1751.33	  379.10
     39.8700	  482.00	  494.10	-1746.10	  378.84
     39.9700	  520.00	  493.79	-1707.79	  378.58
     40.0700	  526.00	  493.59	-1701.59	  378.32
     40.1700	  522.00	  493.40	-1705.40	  378.07
     40.2700	  474.00	  493.22	-1753.22	  377.82
     40.3700	  482.00	  493.05	-1745.05	  377.57
     40.4700	  504.00	  492.91	-1722.91	  377.32
     40.5700	  489.00	  493.28	-1738.28	  377.07
     40.6700	  475.00	  493.18	-1752.18	  376.83
     40.7700	  468.00	  493.10	-1759.10	  376.58
     40.8700	  481.00	  493.04	-1746.04	  376.34
     40.9700	  489.00	  493.02	-1738.02	  376.10
     41.0700	  492.00	  493.04	-1735.04	  375.87
     41.1700	  490.00	  493.11	-1737.11	  375.63
     41.2700	  499.00	  493.23	-1728.23	  375.40
     41.3700	  480.00	  493.42	-1747.42	  375.16
     41.4700	  486.00	  493.71	-1741.71	  374.93
     41.5700	  497.00	  494.13	-1731.13	  374.71
     41.6700	  492.00	  494.74	-1736.74	  374.48
     41.7700	  524.00	  495.64	-1705.64	  374.25
     41.8700	  519.00	  497.08	-1712.08	  374.03
     41.9700	  477.00	  499.49	-1756.49	  373.81
     42.0700	  558.00	  503.69	-1679.69	  373.59
     42.1700	  532.00	  510.71	-1712.71	  373.37
     42.2700	  539.00	  522.02	-1717.02	  373.16
     42.3700	  494.00	  538.45	-1778.45	  372.95
     42.4700	  564.00	  559.84	-1729.84	  372.73
     42.5700	  562.00	  583.67	-1755.67	  372.52
     42.6700	  617.00	  604.37	-1721.37	  372.32
     42.7700	  553.00	  614.25	-1795.25	  372.11
     42.8700	  577.00	  608.00	-1765.00	  371.91
     42.9700	  559.00	  588.40	-1763.40	  371.70
     43.0700	  528.00	  563.99	-1769.99	  371.50
     43.1700	  507.00	  541.16	-1768.16	  371.31
     43.2700	  496.00	  523.25	-1761.25	  371.11
     43.3700	  524.00	  510.84	-1720.84	  370.92
     43.4700	  509.00	  502.92	-1727.92	  370.72
     43.5700	  472.00	  498.15	-1760.15	  370.53
     43.6700	  518.00	  495.30	-1711.30	  370.34
     43.7700	  468.00	  493.52	-1759.52	  370.16
     43.8700	  472.00	  492.30	-1754.30	  369.97
     43.9700	  490.00	  491.41	-1735.41	  369.79
     44.0700	  507.00	  490.72	-1717.72	  369.61
     44.1700	  518.00	  490.16	-1706.16	  369.43
     44.2700	  500.00	  489.70	-1723.70	  369.25
     44.3700	  482.00	  489.53	-1741.53	  369.08
     44.4700	  484.00	  489.22	-1739.22	  368.91
     44.5700	  485.00	  488.97	-1737.97	  368.73
     44.6700	  488.00	  488.76	-1734.76	  368.56
     44.7700	  505.00	  488.60	-1717.60	  368.40
     44.8700	  485.00	  488.47	-1737.47	  368.23
     44.9700	  510.00	  488.37	-1712.37	  368.07
     45.0700	  496.00	  488.30	-1726.30	  367.91
     45.1700	  459.00	  488.26	-1763.26	  367.75
     45.2700	  484.00	  488.25	-1738.25	  367.59
     45.3700	  513.00	  488.27	-1709.27	  367.43
     45.4700	  479.00	  488.31	-1743.31	  367.28
     45.5700	  512.00	  488.39	-1710.39	  367.13
     45.6700	  463.00	  488.49	-1759.49	  366.98
     45.7700	  460.00	  488.63	-1762.62	  366.83
     45.8700	  476.00	  488.79	-1746.79	  366.69
     45.9700	  503.00	  488.91	-1719.91	  366.54
     46.0700	  480.00	  489.16	-1743.16	  366.40
     46.1700	  473.00	  489.49	-1750.49	  366.26
     46.2700	  536.00	  489.83	-1687.83	  366.12
     46.3700	  502.00	  490.25	-1722.25	  365.99
     46.4700	  498.00	  490.72	-1726.72	  365.85
     46.5700	  454.00	  491.27	-1771.27	  365.72
     46.6700	  467.00	  491.93	-1758.93	  365.59
     46.7700	  491.00	  492.71	-1735.71	  365.46
     46.8700	  512.00	  493.68	-1715.68	  365.34
     46.9700	  501.00	  494.94	-1727.94	  365.21
     47.0700	  488.00	  496.69	-1742.69	  365.09
     47.1700	  501.00	  499.27	-1732.27	  364.97
     47.2700	  503.00	  503.23	-1734.23	  364.85
     47.3700	  493.00	  509.25	-1750.25	  364.73
     47.4700	  492.00	  518.05	-1760.05	  364.62
     47.5700	  485.00	  530.01	-1779.01	  364.51
     47.6700	  481.00	  544.74	-1797.74	  364.40
     47.7700	  565.00	  560.61	-1729.61	  364.29
     47.8700	  556.00	  574.36	-1752.36	  364.18
     47.9700	  578.00	  581.74	-1737.74	  364.07
     48.0700	  550.00	  580.03	-1764.03	  363.97
     48.1700	  562.00	  570.69	-1742.69	  363.87
     48.2700	  514.00	  558.10	-1778.10	  363.77
     48.3700	  517.00	  546.17	-1763.17	  363.67
     48.4700	  539.00	  537.48	-1732.48	  363.58
     48.5700	  515.00	  531.97	-1750.97	  363.49
     48.6700	  504.00	  529.92	-1759.92	  363.39
     48.7700	  460.00	  530.83	-1804.83	  363.30
     48.8700	  491.00	  534.17	-1777.17	  363.22
     48.9700	  541.00	  539.66	-1732.66	  363.13
     49.0700	  546.00	  547.47	-1735.47	  363.05
     49.1700	  533.00	  558.41	-1759.41	  362.96
     49.2700	  587.00	  574.40	-1721.40	  362.88
     49.3700	  578.00	  599.31	-1755.31	  362.80
     49.4700	  594.00	  640.09	-1780.09	  362.73
     49.5700	  671.00	  707.61	-1770.61	  362.65
     49.6700	  795.00	  816.24	-1755.24	  362.58
     49.7700	  949.00	  980.79	-1765.79	  362.51
     49.8700	 1160.00	 1209.93	-1783.93	  362.44
     49.9700	 1464.00	 1497.38	-1767.38	  362.37
     50.0700	 1834.00	 1812.36	-1712.36	  362.31
     50.1700	 2081.00	 2092.52	-1745.52	  362.24
     50.2700	 2340.00	 2251.77	-1645.77	  362.18
     50.3700	 2272.00	 2223.25	-1685.25	  362.12
     50.4700	 2169.00	 2018.57	-1583.57	  362.07
     50.5700	 1750.00	 1719.23	-1703.23	  362.01
     50.6700	 1351.00	 1410.23	-1793.23	  361.95
     50.7700	 1028.00	 1144.36	-1850.36	  361.90
     50.8700	  852.00	  943.38	-1825.38	  361.85
     50.9700	  760.00	  806.94	-1780.94	  361.80
     51.0700	  699.00	  722.38	-1757.38	  361.76
     51.1700	  610.00	  671.80	-1795.80	  361.71
     51.2700	  596.00	  639.85	-1777.85	  361.67
     51.3700	  571.00	  616.18	-1779.18	  361.62
     51.4700	  624.00	  596.26	-1706.26	  361.58
     51.5700	  540.00	  579.13	-1773.13	  361.55
     51.6700	  554.00	  564.92	-1744.92	  361.51
     51.7700	  545.00	  553.76	-1742.76	  361.47
     51.8700	  517.00	  545.50	-1762.50	  361.44
     51.9700	  492.00	  539.82	-1781.82	  361.41
     52.0700	  556.00	  536.27	-1714.27	  361.38
     52.1700	  567.00	  534.44	-1701.44	  361.35
     52.2700	  537.00	  534.10	-1731.10	  361.33
     52.3700	  564.00	  535.19	-1705.19	  361.30
     52.4700	  571.00	  538.02	-1701.02	  361.28
     52.5700	  561.00	  543.32	-1716.32	  361.26
     52.6700	  586.00	  552.64	-1700.64	  361.24
     52.7700	  601.00	  568.50	-1701.50	  361.22
     52.8700	  629.00	  594.68	-1699.68	  361.21
     52.9700	  655.00	  635.86	-1714.86	  361.19
     53.0700	  686.00	  696.54	-1744.54	  361.18
     53.1700	  786.00	  779.20	-1727.20	  361.17
     53.2700	  924.00	  881.76	-1691.76	  361.16
     53.3700	  993.00	  995.01	-1736.01	  361.15
     53.4700	 1124.00	 1100.34	-1710.34	  361.14
     53.5700	 1129.00	 1170.65	-1775.65	  361.14
     53.6700	 1172.00	 1180.76	-1742.76	  361.14
     53.7700	 1073.00	 1126.14	-1787.14	  361.14
     53.8700	 1027.00	 1027.74	-1734.74	  361.14
     53.9700	  923.00	  914.38	-1725.38	  361.14
     54.0700	  797.00	  807.79	-1744.79	  361.14
     54.1700	  684.00	  719.54	-1769.54	  361.15
     54.2700	  705.00	  653.42	-1682.42	  361.15
     54.3700	  639.00	  607.90	-1702.90	  361.16
     54.4700	  605.00	  578.76	-1707.76	  361.17
     54.5700	  561.00	  561.20	-1734.20	  361.18
     54.6700	  568.00	  551.10	-1717.10	  361.20
     54.7700	  573.00	  545.57	-1706.57	  361.21
     54.8700	  557.00	  542.82	-1719.82	  361.23
     54.9700	  493.00	  541.86	-1782.86	  361.25
     55.0700	  601.00	  542.24	-1675.24	  361.27
     55.1700	  571.00	  543.73	-1706.73	  361.29
     55.2700	  583.00	  546.30	-1697.30	  361.31
     55.3700	  571.00	  550.02	-1713.02	  361.33
     55.4700	  557.00	  555.03	-1732.03	  361.36
     55.5700	  579.00	  561.65	-1716.65	  361.38
     55.6700	  546.00	  570.48	-1758.48	  361.41
     55.7700	  562.00	  582.66	-1754.66	  361.44
     55.8700	  553.00	  600.33	-1781.33	  361.47
     55.9700	  609.00	  627.37	-1752.37	  361.50
     56.0700	  662.00	  670.16	-1742.16	  361.54
     56.1700	  720.00	  738.08	-1752.08	  361.57
     56.2700	  774.00	  843.35	-1803.35	  361.61
     56.3700	  858.00	  998.60	-1874.60	  361.65
     56.4700	 1177.00	 1212.95	-1769.95	  361.69
     56.5700	 1463.00	 1486.27	-1757.27	  361.73
     56.6700	 1678.00	 1802.89	-1858.89	  361.77
     56.7700	 2098.00	 2126.13	-1762.13	  361.81
     56.8700	 2412.00	 2395.20	-1717.20	  361.86
     56.9700	 2478.00	 2535.99	-1791.99	  361.90
     57.0700	 2482.00	 2498.34	-1750.34	  361.95
     57.1700	 2292.00	 2296.37	-1738.37	  362.00
     57.2700	 1962.00	 1996.89	-1768.89	  362.05
     57.3700	 1724.00	 1672.40	-1682.40	  362.10
     57.4700	 1342.00	 1373.83	-1765.83	  362.15
     57.5700	 1120.00	 1128.30	-1742.30	  362.21
     57.6700	  910.00	  944.29	-1768.29	  362.26
     57.7700	  766.00	  817.57	-1785.57	  362.32
     57.8700	  695.00	  737.59	-1776.59	  362.37
     57.9700	  704.00	  692.65	-1722.65	  362.43
     58.0700	  701.00	  673.30	-1706.30	  362.49
     58.1700	  702.00	  673.53	-1705.53	  362.55
     58.2700	  724.00	  690.42	-1700.42	  362.62
     58.3700	  762.00	  722.93	-1694.93	  362.68
     58.4700	  816.00	  770.46	-1688.46	  362.75
     58.5700	  909.00	  831.39	-1656.39	  362.81
     58.6700	  975.00	  901.67	-1660.67	  362.88
     58.7700	 1043.00	  974.42	-1665.42	  362.95
     58.8700	 1102.00	 1041.66	-1673.66	  363.02
     58.9700	 1152.00	 1097.99	-1679.99	  363.09
     59.0700	 1256.00	 1140.46	-1618.46	  363.16
     59.1700	 1332.00	 1165.33	-1567.33	  363.23
     59.2700	 1267.00	 1169.27	-1636.27	  363.30
     59.3700	 1250.00	 1155.53	-1639.53	  363.38
     59.4700	 1236.00	 1134.60	-1632.60	  363.46
     59.5700	 1217.00	 1117.53	-1634.53	  363.53
     59.6700	 1230.00	 1111.69	-1615.69	  363.61
     59.7700	 1150.00	 1122.56	-1706.56	  363.69
     59.8700	 1238.00	 1155.93	-1651.93	  363.77
     59.9700	 1264.00	 1215.28	-1685.28	  363.85
     60.0700	 1413.00	 1296.66	-1617.66	  363.93
     60.1700	 1427.00	 1385.80	-1692.80	  364.02
     60.2700	 1513.00	 1458.20	-1679.20	  364.10
     60.3700	 1527.00	 1484.86	-1691.86	  364.19
     60.4700	 1493.00	 1447.17	-1688.17	  364.27
     60.5700	 1354.00	 1350.30	-1730.30	  364.36
     60.6700	 1244.00	 1218.17	-1708.17	  364.45
     60.7700	 1083.00	 1077.18	-1728.18	  364.54
     60.8700	  913.00	  946.86	-1767.86	  364.62
     60.9700	  860.00	  838.56	-1712.56	  364.72
     61.0700	  698.00	  757.11	-1793.11	  364.81
     61.1700	  682.00	  702.73	-1754.73	  364.90
     61.2700	  711.00	  673.42	-1696.42	  364.99
     61.3700	  628.00	  667.13	-1773.13	  365.09
     61.4700	  690.00	  683.01	-1727.01	  365.18
     61.5700	  687.00	  721.83	-1768.83	  365.28
     61.6700	  774.00	  785.05	-1745.05	  365.37
     61.7700	  892.00	  873.14	-1715.14	  365.47
     61.8700	  935.00	  983.51	-1782.51	  365.57
     61.9700	 1096.00	 1108.55	-1746.55	  365.67
     62.0700	 1169.00	 1233.96	-1798.96	  365.77
     62.1700	 1262.00	 1338.31	-1810.31	  365.87
     62.2700	 1342.00	 1396.26	-1788.26	  365.97
     62.3700	 1374.00	 1389.62	-1749.62	  366.07
     62.4700	 1270.00	 1319.93	-1783.93	  366.18
     62.5700	 1179.00	 1207.35	-1762.35	  366.28
     62.6700	  958.00	 1077.13	-1853.13	  366.38
     62.7700	  854.00	  949.60	-1829.60	  366.49
     62.8700	  797.00	  837.60	-1774.60	  366.59
     62.9700	  650.00	  747.29	-1831.29	  366.70
     63.0700	  664.00	  679.67	-1749.67	  366.81
     63.1700	  591.00	  632.31	-1775.31	  366.91
     63.2700	  601.00	  601.14	-1734.14	  367.02
     63.3700	  565.00	  581.86	-1750.86	  367.13
     63.4700	  581.00	  571.02	-1724.02	  367.24
     63.5700	  593.00	  566.30	-1707.30	  367.35
     63.6700	  553.00	  566.64	-1747.64	  367.46
     63.7700	  592.00	  572.09	-1714.09	  367.57
     63.8700	  654.00	  583.53	-1663.53	  367.68
     63.9700	  593.00	  602.35	-1743.35	  367.79
     64.0700	  678.00	  630.04	-1686.04	  367.91
     64.1700	  705.00	  667.60	-1696.60	  368.02
     64.2700	  801.00	  714.98	-1647.98	  368.13
     64.3700	  798.00	  770.16	-1706.16	  368.25
     64.4700	  857.00	  828.91	-1705.91	  368.36
     64.5700	  910.00	  884.25	-1708.25	  368.48
     64.6700	  961.00	  927.17	-1700.17	  368.59
     64.7700	 1019.00	  949.46	-1664.46	  368.71
     64.8700	  961.00	  947.39	-1720.39	  368.83
     64.9700	  988.00	  922.94	-1668.94	  368.94
     65.0700	  906.00	  881.89	-1709.89	  369.06
     65.1700	  850.00	  833.20	-1717.20	  369.18
     65.2700	  810.00	  783.85	-1707.85	  369.30
     65.3700	  690.00	  738.34	-1782.34	  369.41
     65.4700	  697.00	  698.86	-1735.86	  369.53
     65.5700	  644.00	  665.50	-1755.50	  369.65
     65.6700	  667.00	  637.71	-1704.71	  369.77
     65.7700	  561.00	  615.05	-1788.05	  369.89
     65.8700	  561.00	  597.11	-1770.11	  370.01
     65.9700	  538.00	  583.42	-1779.42	  370.13
     66.0700	  573.00	  573.43	-1734.43	  370.25
     66.1700	  580.00	  566.62	-1720.62	  370.37
     66.2700	  551.00	  562.58	-1745.58	  370.49
     66.3700	  590.00	  560.93	-1704.93	  370.61
     66.4700	  552.00	  561.41	-1743.41	  370.74
     66.5700	  533.00	  564.15	-1765.15	  370.86
     66.6700	  594.00	  568.74	-1708.74	  370.98
     66.7700	  563.00	  575.89	-1746.89	  371.10
     66.8700	  565.00	  586.57	-1755.57	  371.22
     66.9700	  593.00	  602.60	-1743.60	  371.35
     67.0700	  569.00	  626.90	-1791.90	  371.47
     67.1700	  689.00	  663.84	-1708.84	  371.59
     67.2700	  658.00	  719.21	-1795.21	  371.72
     67.3700	  747.00	  800.02	-1787.02	  371.84
     67.4700	  915.00	  913.17	-1732.17	  371.96
     67.5700	 1046.00	 1064.24	-1752.24	  372.08
     67.6700	 1226.00	 1254.98	-1762.98	  372.21
     67.7700	 1513.00	 1480.96	-1701.96	  372.33
     67.8700	 1761.00	 1729.50	-1702.50	  372.45
     67.9700	 1884.00	 1978.04	-1828.04	  372.58
     68.0700	 2242.00	 2193.72	-1685.72	  372.70
     68.1700	 2332.00	 2336.80	-1738.80	  372.83
     68.2700	 2377.00	 2373.23	-1730.23	  372.95
     68.3700	 2202.00	 2293.18	-1825.18	  373.07
     68.4700	 2167.00	 2117.67	-1684.67	  373.20
     68.5700	 1928.00	 1885.12	-1691.12	  373.32
     68.6700	 1676.00	 1633.57	-1691.57	  373.44
     68.7700	 1393.00	 1392.06	-1733.06	  373.57
     68.8700	 1165.00	 1179.21	-1748.21	  373.69
     68.9700	  995.00	 1004.16	-1743.16	  373.81
     69.0700	  878.00	  868.71	-1724.71	  373.93
     69.1700	  789.00	  769.37	-1714.37	  374.06
     69.2700	  669.00	  699.84	-1764.84	  374.18
     69.3700	  659.00	  652.88	-1727.88	  374.30
     69.4700	  649.00	  621.74	-1706.74	  374.43
     69.5700	  593.00	  601.51	-1742.51	  374.55
     69.6700	  623.00	  588.18	-1699.18	  374.67
     69.7700	  555.00	  579.22	-1758.22	  374.79
     69.8700	  558.00	  573.09	-1749.09	  374.91
     69.9700	  579.00	  568.86	-1723.86	  375.04
     70.0700	  570.00	  566.04	-1730.04	  375.16
     70.1700	  588.00	  564.37	-1710.37	  375.28
     70.2700	  576.00	  563.74	-1721.74	  375.40
     70.3700	  570.00	  564.15	-1728.15	  375.52
     70.4700	  511.00	  565.73	-1788.73	  375.64
     70.5700	  573.00	  568.76	-1729.76	  375.76
     70.6700	  536.00	  573.80	-1771.80	  375.88
     70.7700	  591.00	  581.73	-1724.73	  376.00
     70.8700	  607.00	  594.05	-1721.05	  376.12
     70.9700	  616.00	  613.87	-1731.87	  376.24
     71.0700	  635.00	  642.47	-1741.47	  376.36
     71.1700	  662.00	  684.65	-1756.65	  376.47
     71.2700	  796.00	  744.80	-1682.80	  376.59
     71.3700	  780.00	  827.27	-1781.27	  376.71
     71.4700	 1000.00	  935.21	-1669.21	  376.83
     71.5700	 1014.00	 1069.46	-1789.46	  376.94
     71.6700	 1202.00	 1227.15	-1759.15	  377.06
     71.7700	 1436.00	 1400.63	-1698.63	  377.17
     71.8700	 1567.00	 1576.70	-1743.70	  377.29
     71.9700	 1746.00	 1736.06	-1724.06	  377.40
     72.0700	 1860.00	 1854.85	-1728.85	  377.52
     72.1700	 1869.00	 1909.78	-1774.78	  377.63
     72.2700	 1823.00	 1888.15	-1799.15	  377.75
     72.3700	 1737.00	 1795.08	-1792.08	  377.86
     72.4700	 1636.00	 1650.48	-1748.48	  377.97
     72.5700	 1450.00	 1478.92	-1762.92	  378.08
     72.6700	 1300.00	 1302.05	-1736.05	  378.20
     72.7700	 1147.00	 1135.75	-1722.75	  378.31
     72.8700	  980.00	  989.95	-1743.95	  378.42
     72.9700	  876.00	  869.46	-1727.46	  378.53
     73.0700	  835.00	  774.90	-1673.90	  378.63
     73.1700	  742.00	  704.01	-1696.01	  378.74
     73.2700	  725.00	  652.90	-1661.90	  378.85
     73.3700	  661.00	  617.14	-1690.14	  378.96
     73.4700	  649.00	  592.61	-1677.61	  379.07
     73.5700	  623.00	  575.41	-1686.41	  379.17
     73.6700	  599.00	  563.97	-1698.97	  379.28
     73.7700	  628.00	  556.05	-1662.05	  379.38
     73.8700	  599.00	  550.49	-1685.49	  379.49
     73.9700	  599.00	  546.60	-1681.60	  379.59
     74.0700	  603.00	  543.94	-1674.94	  379.69
     74.1700	  602.00	  542.24	-1674.24	  379.79
     74.2700	  634.00	  541.29	-1641.29	  379.89
     74.3700	  589.00	  540.89	-1685.89	  379.99
     74.4700	  585.00	  540.83	-1689.83	  380.09
     74.5700	  625.00	  540.86	-1649.86	  380.19
     74.6700	  602.00	  540.73	-1672.73	  380.29
     74.7700	  594.00	  540.18	-1680.18	  380.39
     74.8700	  656.00	  539.09	-1617.09	  380.49
     74.9700	  639.00	  537.52	-1632.52	  380.58
     75.0700	  646.00	  535.69	-1623.69	  380.68
     75.1700	  585.00	  533.91	-1682.91	  380.77
     75.2700	  576.00	  532.52	-1690.52	  380.86
     75.3700	  607.00	  531.85	-1658.85	  380.96
     75.4700	  610.00	  532.29	-1656.29	  381.05
     75.5700	  550.00	  534.23	-1718.23	  381.14
     75.6700	  556.00	  538.10	-1716.10	  381.23
     75.7700	  578.00	  544.28	-1700.28	  381.32
     75.8700	  597.00	  553.25	-1690.25	  381.41
     75.9700	  581.00	  565.19	-1718.19	  381.49
     76.0700	  654.00	  580.11	-1660.11	  381.58
     76.1700	  610.00	  597.66	-1721.66	  381.67
     76.2700	  665.00	  616.99	-1685.99	  381.75
     76.3700	  631.00	  636.99	-1739.99	  381.84
     76.4700	  667.00	  655.78	-1722.78	  381.92
     76.5700	  718.00	  671.06	-1687.06	  382.00
     76.6700	  700.00	  680.43	-1714.43	  382.08
     76.7700	  708.00	  682.08	-1708.08	  382.16
     76.8700	  638.00	  675.61	-1771.61	  382.24
     76.9700	  679.00	  662.27	-1717.27	  382.32
     77.0700	  653.00	  644.31	-1725.31	  382.39
     77.1700	  633.00	  624.06	-1725.06	  382.47
     77.2700	  589.00	  603.65	-1748.65	  382.54
     77.3700	  587.00	  584.53	-1731.53	  382.62
     77.4700	  568.00	  567.66	-1733.66	  382.69
     77.5700	  475.00	  553.52	-1812.52	  382.76
     77.6700	  497.00	  542.21	-1779.21	  382.83
     77.7700	  534.00	  533.54	-1733.54	  382.90
     77.8700	  532.00	  526.93	-1728.93	  382.97
     77.9700	  502.00	  522.35	-1754.35	  383.04
     78.0700	  494.00	  519.15	-1759.15	  383.10
     78.1700	  482.00	  516.96	-1768.96	  383.17
     78.2700	  489.00	  515.48	-1760.48	  383.23
     78.3700	  500.00	  514.47	-1748.47	  383.30
     78.4700	  498.00	  513.79	-1749.79	  383.36
     78.5700	  459.00	  513.35	-1788.35	  383.42
     78.6700	  511.00	  513.08	-1736.08	  383.48
     78.7700	  514.00	  512.96	-1732.96	  383.54
     78.8700	  512.00	  512.97	-1734.97	  383.59
     78.9700	  479.00	  513.13	-1768.13	  383.65
     79.0700	  488.00	  513.46	-1759.46	  383.70
     79.1700	  485.00	  513.98	-1762.98	  383.76
     79.2700	  531.00	  514.72	-1717.72	  383.81
     79.3700	  506.00	  515.72	-1743.72	  383.86
     79.4700	  520.00	  517.04	-1731.04	  383.91
     79.5700	  506.00	  518.71	-1746.71	  383.96
     79.6700	  530.00	  520.79	-1724.79	  384.01
     79.7700	  474.00	  523.35	-1783.35	  384.05
     79.8700	  517.00	  526.49	-1743.49	  384.10
     79.9700	  527.00	  530.30	-1737.30	  384.14
     80.0700	  515.00	  534.90	-1753.90	  384.18
     80.1700	  530.00	  540.47	-1744.47	  384.22
     80.2700	  524.00	  547.21	-1757.21	  384.26
     80.3700	  517.00	  555.15	-1772.15	  384.30
     80.4700	  488.00	  564.99	-1810.99	  384.34
     80.5700	  529.00	  576.71	-1781.71	  384.38
     80.6700	  598.00	  590.39	-1726.39	  384.41
     80.7700	  589.00	  605.81	-1750.81	  384.44
     80.8700	  614.00	  622.52	-1742.52	  384.47
     80.9700	  587.00	  639.71	-1786.71	  384.51
     81.0700	  681.00	  656.34	-1709.34	  384.53
     81.1700	  666.00	  671.29	-1739.29	  384.56
     81.2700	  659.00	  683.58	-1758.58	  384.59
     81.3700	  765.00	  692.50	-1661.50	  384.61
     81.4700	  662.00	  697.58	-1769.58	  384.64
     81.5700	  752.00	  698.59	-1680.59	  384.66
     81.6700	  688.00	  695.59	-1741.59	  384.68
     81.7700	  746.00	  688.81	-1676.81	  384.70
     81.8700	  710.00	  678.63	-1702.63	  384.72
     81.9700	  720.00	  665.61	-1679.61	  384.74
     82.0700	  692.00	  650.58	-1692.58	  384.75
     82.1700	  630.00	  634.53	-1738.53	  384.76
     82.2700	  612.00	  618.43	-1740.43	  384.78
     82.3700	  621.00	  603.02	-1716.02	  384.79
     82.4700	  659.00	  588.78	-1663.78	  384.80
     82.5700	  568.00	  575.99	-1741.99	  384.81
     82.6700	  628.00	  564.82	-1670.82	  384.81
     82.7700	  594.00	  555.38	-1695.38	  384.82
     82.8700	  564.00	  547.74	-1717.74	  384.82
     82.9700	  532.00	  541.89	-1743.89	  384.82
     83.0700	  516.00	  537.81	-1755.81	  384.82
     83.1700	  500.00	  535.41	-1769.41	  384.82
     83.2700	  495.00	  534.59	-1773.59	  384.82
     83.3700	  520.00	  535.23	-1749.23	  384.82
     83.4700	  563.00	  537.14	-1708.14	  384.81
     83.5700	  536.00	  540.06	-1738.06	  384.81
     83.6700	  533.00	  543.83	-1744.83	  384.80
     83.7700	  525.00	  547.99	-1756.99	  384.79
     83.8700	  564.00	  552.18	-1722.18	  384.78
     83.9700	  499.00	  555.88	-1790.88	  384.77
     84.0700	  500.00	  558.57	-1792.57	  384.75
     84.1700	  536.00	  559.79	-1757.79	  384.74
     84.2700	  581.00	  559.26	-1712.26	  384.72
     84.3700	  547.00	  557.03	-1744.03	  384.70
     84.4700	  561.00	  553.38	-1726.38	  384.68
     84.5700	  527.00	  548.75	-1755.75	  384.66
     84.6700	  526.00	  543.62	-1751.62	  384.63
     84.7700	  560.00	  538.38	-1712.38	  384.61
     84.8700	  538.00	  533.38	-1729.38	  384.58
     84.9700	  491.00	  528.85	-1771.85	  384.56
     85.0700	  470.00	  524.91	-1788.91	  384.53
     85.1700	  511.00	  521.65	-1744.65	  384.50
     85.2700	  497.00	  519.06	-1756.06	  384.46
     85.3700	  495.00	  517.10	-1756.10	  384.43
     85.4700	  504.00	  515.69	-1745.69	  384.39
     85.5700	  504.00	  514.78	-1744.78	  384.36
     85.6700	  516.00	  514.28	-1732.28	  384.32
     85.7700	  501.00	  514.15	-1747.15	  384.28
     85.8700	  530.00	  514.39	-1718.39	  384.23
     85.9700	  518.00	  514.99	-1730.99	  384.19
     86.0700	  523.00	  516.03	-1727.03	  384.14
     86.1700	  503.00	  517.59	-1748.59	  384.10
     86.2700	  516.00	  519.80	-1737.80	  384.05
     86.3700	  479.00	  522.81	-1777.81	  384.00
     86.4700	  518.00	  526.79	-1742.79	  383.95
     86.5700	  494.00	  531.88	-1771.88	  383.89
     86.6700	  516.00	  538.23	-1756.23	  383.84
     86.7700	  558.00	  545.88	-1721.88	  383.78
     86.8700	  528.00	  554.81	-1760.81	  383.72
     86.9700	  581.00	  564.87	-1717.87	  383.67
     87.0700	  593.00	  575.76	-1716.76	  383.60
     87.1700	  601.00	  587.01	-1720.01	  383.54
     87.2700	  565.00	  598.02	-1767.02	  383.48
     87.3700	  630.00	  608.01	-1712.01	  383.41
     87.4700	  598.00	  616.09	-1752.09	  383.34
     87.5700	  618.00	  621.42	-1737.42	  383.27
     87.6700	  612.00	  623.38	-1745.38	  383.20
     87.7700	  646.00	  621.79	-1709.79	  383.13
     87.8700	  651.00	  616.98	-1699.98	  383.06
     87.9700	  593.00	  609.69	-1750.69	  382.98
     88.0700	  604.00	  600.84	-1730.84	  382.90
     88.1700	  621.00	  590.98	-1703.98	  382.82
     88.2700	  594.00	  581.74	-1721.74	  382.74
     88.3700	  543.00	  573.43	-1764.43	  382.66
     88.4700	  552.00	  566.59	-1748.59	  382.58
     88.5700	  561.00	  561.59	-1734.59	  382.49
     88.6700	  538.00	  558.63	-1754.63	  382.40
     88.7700	  520.00	  557.75	-1771.75	  382.32
     88.8700	  548.00	  558.80	-1744.80	  382.23
     88.9700	  587.00	  561.51	-1708.51	  382.13
     89.0700	  613.00	  565.48	-1686.48	  382.04
     89.1700	  528.00	  570.22	-1776.22	  381.95
     89.2700	  562.00	  575.13	-1747.13	  381.85
     89.3700	  595.00	  579.59	-1718.59	  381.75
     89.4700	  607.00	  582.93	-1709.93	  381.65
     89.5700	  623.00	  584.61	-1695.61	  381.55
     89.6700	  562.00	  584.27	-1756.27	  381.45
     89.7700	  574.00	  581.85	-1741.85	  381.34
     89.8700	  544.00	  577.61	-1767.61	  381.23
     89.9700	  588.00	  571.99	-1717.99	  381.13
     90.0700	  607.00	  565.51	-1692.51	  381.02
     90.1700	  546.00	  558.64	-1746.64	  380.91
     90.2700	  530.00	  551.83	-1755.83	  380.79
     90.3700	  527.00	  545.38	-1752.38	  380.68
     90.4700	  533.00	  539.55	-1740.55	  380.56
     90.5700	  558.00	  534.48	-1710.48	  380.45
     90.6700	  539.00	  530.25	-1725.25	  380.33
     90.7700	  511.00	  526.86	-1749.86	  380.21
     90.8700	  480.00	  524.26	-1778.26	  380.08
     90.9700	  528.00	  522.40	-1728.40	  379.96
     91.0700	  488.00	  521.18	-1767.18	  379.84
     91.1700	  505.00	  520.55	-1749.55	  379.71
     91.2700	  534.00	  520.43	-1720.43	  379.58
     91.3700	  466.00	  520.80	-1788.80	  379.45
     91.4700	  537.00	  521.67	-1718.67	  379.32
     91.5700	  503.00	  523.07	-1754.07	  379.19
     91.6700	  482.00	  525.09	-1777.09	  379.05
     91.7700	  549.00	  527.84	-1712.84	  378.91
     91.8700	  534.00	  531.48	-1731.48	  378.78
     91.9700	  465.00	  536.18	-1805.18	  378.64
     92.0700	  516.00	  542.11	-1760.11	  378.50
     92.1700	  503.00	  549.46	-1780.46	  378.36
     92.2700	  513.00	  558.38	-1779.38	  378.21
     92.3700	  547.00	  568.99	-1755.99	  378.07
     92.4700	  609.00	  581.32	-1706.32	  377.92
     92.5700	  567.00	  595.32	-1762.32	  377.77
     92.6700	  632.00	  610.84	-1712.84	  377.62
     92.7700	  601.00	  627.63	-1760.63	  377.47
     92.8700	  617.00	  645.27	-1762.27	  377.32
     92.9700	  662.00	  663.23	-1735.23	  377.16
     93.0700	  668.00	  680.89	-1746.89	  377.01
     93.1700	  696.00	  697.57	-1735.57	  376.85
     93.2700	  706.00	  712.70	-1740.70	  376.69
     93.3700	  746.00	  725.96	-1713.96	  376.53
     93.4700	  752.00	  737.09	-1719.09	  376.37
     93.5700	  784.00	  746.98	-1696.98	  376.21
     93.6700	  787.00	  755.81	-1702.81	  376.04
     93.7700	  830.00	  764.05	-1668.05	  375.88
     93.8700	  787.00	  772.07	-1719.07	  375.71
     93.9700	  861.00	  780.17	-1653.17	  375.54
     94.0700	  822.00	  788.64	-1700.64	  375.37
     94.1700	  835.00	  797.80	-1696.80	  375.20
     94.2700	  828.00	  808.02	-1714.02	  375.03
     94.3700	  842.00	  819.51	-1711.51	  374.86
     94.4700	  888.00	  832.24	-1678.24	  374.68
     94.5700	  863.00	  845.79	-1716.79	  374.50
     94.6700	  887.00	  859.29	-1706.29	  374.33
     94.7700	  879.00	  871.53	-1726.53	  374.15
     94.8700	  860.00	  880.97	-1754.97	  373.97
     94.9700	  894.00	  886.04	-1726.04	  373.78
     95.0700	  887.00	  885.39	-1732.39	  373.60
     95.1700	  896.00	  878.29	-1716.29	  373.42
     95.2700	  874.00	  864.84	-1724.84	  373.23
     95.3700	  827.00	  845.99	-1752.99	  373.04
     95.4700	  795.00	  823.28	-1762.28	  372.86
     95.5700	  771.00	  798.49	-1761.49	  372.67
     95.6700	  745.00	  773.47	-1762.47	  372.47
     95.7700	  832.00	  749.95	-1651.95	  372.28
     95.8700	  740.00	  729.53	-1723.53	  372.09
     95.9700	  732.00	  713.63	-1715.63	  371.89
     96.0700	  693.00	  703.54	-1744.54	  371.70
     96.1700	  724.00	  700.34	-1710.34	  371.50
     96.2700	  671.00	  704.99	-1767.99	  371.30
     96.3700	  684.00	  718.22	-1768.22	  371.10
     96.4700	  777.00	  740.57	-1697.57	  370.90
     96.5700	  819.00	  772.35	-1687.35	  370.70
     96.6700	  826.00	  813.56	-1721.56	  370.50
     96.7700	  842.00	  863.82	-1755.82	  370.30
     96.8700	  901.00	  922.32	-1755.32	  370.09
     96.9700	  997.00	  987.73	-1724.73	  369.89
     97.0700	 1056.00	 1058.22	-1736.22	  369.68
     97.1700	 1168.00	 1131.33	-1697.33	  369.47
     97.2700	 1216.00	 1204.03	-1722.03	  369.26
     97.3700	 1194.00	 1272.71	-1812.71	  369.05
     97.4700	 1326.00	 1333.35	-1741.35	  368.84
     97.5700	 1358.00	 1381.83	-1757.83	  368.63
     97.6700	 1409.00	 1414.46	-1739.46	  368.41
     97.7700	 1322.00	 1428.62	-1840.62	  368.20
     97.8700	 1403.00	 1423.43	-1754.43	  367.98
     97.9700	 1444.00	 1399.91	-1689.91	  367.77
     98.0700	 1283.00	 1360.64	-1811.64	  367.55
     98.1700	 1267.00	 1309.19	-1776.19	  367.33
     98.2700	 1216.00	 1249.48	-1767.48	  367.11
     98.3700	 1146.00	 1185.41	-1773.41	  366.89
     98.4700	 1086.00	 1120.57	-1768.57	  366.67
     98.5700	 1050.00	 1058.13	-1742.13	  366.45
     98.6700	 1000.00	 1000.79	-1734.79	  366.23
     98.7700	  929.00	  950.85	-1755.85	  366.01
     98.8700	  918.00	  910.13	-1726.13	  365.78
     98.9700	  805.00	  880.13	-1809.13	  365.56
     99.0700	  847.00	  861.93	-1748.93	  365.33
     99.1700	  853.00	  856.34	-1737.34	  365.10
     99.2700	  860.00	  863.89	-1737.89	  364.88
     99.3700	  865.00	  884.86	-1753.86	  364.65
     99.4700	  922.00	  919.27	-1731.27	  364.42
     99.5700	  916.00	  966.86	-1784.86	  364.19
     99.6700	 1022.00	 1027.06	-1739.06	  363.96
     99.7700	 1158.00	 1099.08	-1675.08	  363.73
     99.8700	 1146.00	 1181.56	-1769.56	  363.50
     99.9700	 1315.00	 1272.71	-1691.71	  363.26
    100.0700	 1381.00	 1370.16	-1723.16	  363.03
    100.1700	 1416.00	 1470.97	-1788.97	  362.80
    100.2700	 1579.00	 1571.65	-1726.65	  362.56
    100.3700	 1603.00	 1668.33	-1799.33	  362.33
    100.4700	 1781.00	 1757.06	-1710.06	  362.09
    100.5700	 1846.00	 1834.29	-1722.29	  361.86
    100.6700	 1925.00	 1897.17	-1706.17	  361.62
    100.7700	 1968.00	 1943.75	-1709.75	  361.39
    100.8700	 1965.00	 1972.81	-1741.81	  361.15
    100.9700	 2033.00	 1983.56	-1684.56	  360.91
    101.0700	 1980.00	 1975.65	-1729.65	  360.67
    101.1700	 1985.00	 1949.24	-1698.24	  360.43
    101.2700	 1887.00	 1905.39	-1752.39	  360.20
    101.3700	 1909.00	 1846.40	-1671.40	  359.96
    101.4700	 1836.00	 1775.70	-1673.70	  359.72
    101.5700	 1672.00	 1697.52	-1759.52	  359.48
    101.6700	 1620.00	 1616.27	-1730.27	  359.24
    101.7700	 1534.00	 1536.01	-1736.01	  359.00
    101.8700	 1496.00	 1460.14	-1698.14	  358.75
    101.9700	 1409.00	 1391.20	-1716.20	  358.51
    102.0700	 1341.00	 1330.80	-1723.80	  358.27
    102.1700	 1223.00	 1279.67	-1790.67	  358.03
    102.2700	 1270.00	 1237.69	-1701.69	  357.79
    102.3700	 1162.00	 1203.97	-1775.97	  357.55
    102.4700	 1202.00	 1177.00	-1709.00	  357.30
    102.5700	 1137.00	 1154.76	-1751.76	  357.06
    102.6700	 1184.00	 1134.93	-1684.93	  356.82
    102.7700	 1147.00	 1115.14	-1702.14	  356.58
    102.8700	 1042.00	 1093.33	-1785.33	  356.34
    102.9700	 1115.00	 1068.04	-1687.04	  356.09
    103.0700	 1020.00	 1038.57	-1752.57	  355.85
    103.1700	 1001.00	 1004.97	-1737.97	  355.61
    103.2700	  962.00	  967.90	-1739.90	  355.37
    103.3700	  911.00	  928.35	-1751.35	  355.12
    103.4700	  865.00	  887.46	-1756.46	  354.88
    103.5700	  851.00	  846.37	-1729.37	  354.64
    103.6700	  850.00	  806.12	-1690.12	  354.40
    103.7700	  779.00	  767.61	-1722.61	  354.16
    103.8700	  783.00	  731.57	-1682.57	  353.92
    103.9700	  658.00	  698.54	-1774.54	  353.67
    104.0700	  662.00	  668.87	-1740.87	  353.43
    104.1700	  645.00	  642.75	-1731.75	  353.19
    104.2700	  649.00	  620.20	-1705.20	  352.95
    104.3700	  592.00	  601.09	-1743.09	  352.71
    104.4700	  576.00	  585.20	-1743.20	  352.47
    104.5700	  604.00	  572.25	-1702.25	  352.23
    104.6700	  580.00	  561.90	-1715.90	  351.99
    104.7700	  523.00	  553.81	-1764.81	  351.76
    104.8700	  547.00	  547.65	-1734.65	  351.52
    104.9700	  524.00	  543.11	-1753.11	  351.28
    105.0700	  553.00	  539.92	-1720.92	  351.04
    105.1700	  572.00	  537.85	-1699.85	  350.81
    105.2700	  582.00	  536.72	-1688.72	  350.57
    105.3700	  589.00	  536.38	-1681.38	  350.33
    105.4700	  557.00	  536.75	-1713.75	  350.10
    105.5700	  568.00	  537.73	-1703.73	  349.87
    105.6700	  529.00	  539.33	-1744.33	  349.63
    105.7700	  533.00	  541.53	-1742.53	  349.40
    105.8700	  523.00	  544.36	-1755.36	  349.17
    105.9700	  542.00	  547.86	-1739.86	  348.94
    106.0700	  530.00	  552.09	-1756.09	  348.71
    106.1700	  540.00	  557.12	-1751.12	  348.48
    106.2700	  575.00	  562.99	-1721.99	  348.25
    106.3700	  578.00	  569.70	-1725.70	  348.02
    106.4700	  556.00	  577.24	-1755.24	  347.79
    106.5700	  583.00	  585.54	-1736.54	  347.57
    106.6700	  628.00	  594.49	-1700.49	  347.34
    106.7700	  562.00	  603.91	-1775.91	  347.12
    106.8700	  616.00	  613.58	-1731.58	  346.90
    106.9700	  616.00	  623.28	-1741.28	  346.68
    107.0700	  666.00	  632.70	-1700.70	  346.45
    107.1700	  586.00	  641.51	-1789.51	  346.24
    107.2700	  664.00	  649.41	-1719.41	  346.02
    107.3700	  681.00	  656.10	-1709.10	  345.80
    107.4700	  612.00	  661.40	-1783.41	  345.58
    107.5700	  702.00	  665.23	-1697.23	  345.37
    107.6700	  726.00	  667.67	-1675.67	  345.16
    107.7700	  659.00	  668.93	-1743.93	  344.94
    107.8700	  661.00	  669.33	-1742.33	  344.73
    107.9700	  665.00	  669.24	-1738.24	  344.53
    108.0700	  702.00	  669.02	-1701.02	  344.32
    108.1700	  673.00	  669.00	-1730.00	  344.11
    108.2700	  673.00	  669.41	-1730.41	  343.91
    108.3700	  664.00	  670.41	-1740.41	  343.70
    108.4700	  663.00	  672.05	-1743.05	  343.50
    108.5700	  704.00	  674.27	-1704.27	  343.30
    108.6700	  701.00	  676.91	-1709.91	  343.10
    108.7700	  639.00	  679.74	-1774.74	  342.91
    108.8700	  679.00	  682.41	-1737.41	  342.71
    108.9700	  645.00	  684.52	-1773.52	  342.52
    109.0700	  727.00	  685.67	-1692.67	  342.33
    109.1700	  679.00	  685.46	-1740.46	  342.14
    109.2700	  680.00	  683.59	-1737.59	  341.95
    109.3700	  696.00	  679.88	-1717.88	  341.77
    109.4700	  680.00	  674.33	-1728.33	  341.58
    109.5700	  704.00	  667.05	-1697.05	  341.40
    109.6700	  656.00	  658.31	-1736.31	  341.22
    109.7700	  648.00	  648.42	-1734.42	  341.05
    109.8700	  673.00	  637.76	-1698.76	  340.87
    109.9700	  652.00	  626.66	-1708.66	  340.70
    110.0700	  659.00	  615.48	-1690.48	  340.53
    110.1700	  628.00	  604.49	-1710.49	  340.36
    110.2700	  609.00	  593.96	-1718.96	  340.19
    110.3700	  562.00	  584.09	-1756.09	  340.03
    110.4700	  562.00	  575.05	-1747.05	  339.86
    110.5700	  564.00	  566.94	-1736.94	  339.70
    110.6700	  560.00	  559.84	-1733.84	  339.55
    110.7700	  511.00	  553.77	-1776.77	  339.39
    110.8700	  567.00	  548.74	-1715.74	  339.24
    110.9700	  554.00	  544.70	-1724.70	  339.09
    111.0700	  563.00	  541.60	-1712.60	  338.94
    111.1700	  535.00	  539.36	-1738.36	  338.80
    111.2700	  501.00	  537.90	-1770.90	  338.66
    111.3700	  537.00	  537.15	-1734.15	  338.52
    111.4700	  582.00	  537.00	-1689.00	  338.38
    111.5700	  544.00	  537.40	-1727.40	  338.25
    111.6700	  533.00	  538.25	-1739.25	  338.12
    111.7700	  516.00	  539.50	-1757.50	  337.99
    111.8700	  530.00	  541.09	-1745.09	  337.87
    111.9700	  522.00	  542.98	-1754.98	  337.75
    112.0700	  581.00	  545.14	-1698.14	  337.63
    112.1700	  508.00	  547.54	-1773.54	  337.51
    112.2700	  556.00	  550.18	-1728.18	  337.40
    112.3700	  580.00	  553.06	-1707.06	  337.29
    112.4700	  580.00	  556.19	-1710.19	  337.18
    112.5700	  551.00	  559.59	-1742.59	  337.08
    112.6700	  585.00	  563.30	-1712.30	  336.98
    112.7700	  558.00	  567.36	-1743.36	  336.89
    112.8700	  530.00	  571.84	-1775.84	  336.79
    112.9700	  580.00	  576.81	-1730.81	  336.70
    113.0700	  607.00	  582.37	-1709.37	  336.62
    113.1700	  591.00	  588.65	-1731.65	  336.53
    113.2700	  582.00	  595.82	-1747.82	  336.46
    113.3700	  604.00	  604.09	-1734.09	  336.38
    113.4700	  633.00	  613.73	-1714.73	  336.31
    113.5700	  682.00	  625.09	-1677.09	  336.24
    113.6700	  683.00	  638.60	-1689.60	  336.18
    113.7700	  607.00	  654.80	-1781.80	  336.12
    113.8700	  712.00	  674.38	-1696.38	  336.06
    113.9700	  730.00	  698.15	-1702.15	  336.01
    114.0700	  705.00	  727.12	-1756.12	  335.96
    114.1700	  805.00	  762.46	-1691.46	  335.91
    114.2700	  817.00	  805.54	-1722.54	  335.87
    114.3700	  916.00	  857.94	-1675.94	  335.84
    114.4700	  979.00	  921.44	-1676.44	  335.80
    114.5700	  984.00	  997.98	-1747.98	  335.78
    114.6700	 1213.00	 1089.66	-1610.66	  335.75
    114.7700	 1224.00	 1198.64	-1708.64	  335.73
    114.8700	 1412.00	 1327.14	-1649.14	  335.72
    114.9700	 1534.00	 1477.24	-1677.24	  335.71
    115.0700	 1689.00	 1650.93	-1695.93	  335.70
    115.1700	 1916.00	 1849.79	-1667.79	  335.70
    115.2700	 2111.00	 2075.00	-1698.00	  335.70
    115.3700	 2386.00	 2327.19	-1675.19	  335.71
    115.4700	 2613.00	 2606.14	-1727.14	  335.72
    115.5700	 2953.00	 2910.94	-1691.94	  335.74
    115.6700	 3279.00	 3239.58	-1694.58	  335.76
    115.7700	 3568.00	 3588.95	-1754.95	  335.78
    115.8700	 3909.00	 3955.03	-1780.03	  335.82
    115.9700	 4298.00	 4332.39	-1768.39	  335.85
    116.0700	 4691.00	 4714.70	-1757.70	  335.89
    116.1700	 4923.00	 5094.35	-1905.35	  335.94
    116.2700	 5457.00	 5462.69	-1739.69	  335.99
    116.3700	 5728.00	 5810.36	-1816.36	  336.05
    116.4700	 6006.00	 6127.12	-1855.12	  336.11
    116.5700	 6396.00	 6402.70	-1740.70	  336.18
    116.6700	 6586.00	 6626.97	-1774.97	  336.25
    116.7700	 6676.00	 6790.95	-1848.95	  336.33
    116.8700	 6722.00	 6887.65	-1899.65	  336.41
    116.9700	 6936.00	 6912.79	-1710.79	  336.50
    117.0700	 6863.00	 6865.43	-1736.43	  336.59
    117.1700	 6782.00	 6748.08	-1700.08	  336.69
    117.2700	 6704.00	 6566.38	-1596.38	  336.80
    117.3700	 6232.00	 6328.31	-1830.31	  336.91
    117.4700	 5911.00	 6043.43	-1866.43	  337.02
    117.5700	 5658.00	 5721.90	-1797.90	  337.15
    117.6700	 5337.00	 5373.96	-1770.96	  337.27
    117.7700	 5033.00	 5009.42	-1710.42	  337.41
    117.8700	 4615.00	 4637.11	-1756.11	  337.55
    117.9700	 4255.00	 4265.13	-1744.13	  337.70
    118.0700	 3980.00	 3900.25	-1654.25	  337.85
    118.1700	 3468.00	 3548.26	-1814.26	  338.01
    118.2700	 3329.00	 3213.81	-1618.81	  338.17
    118.3700	 3062.00	 2900.26	-1572.26	  338.35
    118.4700	 2751.00	 2610.13	-1593.13	  338.52
    118.5700	 2410.00	 2344.77	-1668.77	  338.71
    118.6700	 2207.00	 2104.83	-1631.83	  338.90
    118.7700	 1772.00	 1890.18	-1852.18	  339.10
    118.8700	 1764.00	 1700.01	-1670.01	  339.30
    118.9700	 1524.00	 1533.14	-1743.14	  339.51
    119.0700	 1335.00	 1387.93	-1786.93	  339.73
    119.1700	 1222.00	 1262.60	-1774.60	  339.95
    119.2700	 1162.00	 1155.18	-1727.18	  340.18
    119.3700	 1048.00	 1063.66	-1749.66	  340.42
    119.4700	  950.00	  986.10	-1770.10	  340.67
    119.5700	  930.00	  920.63	-1724.63	  340.92
    119.6700	  918.00	  865.53	-1681.53	  341.18
    119.7700	  797.00	  819.25	-1756.25	  341.45
    119.8700	  755.00	  780.41	-1759.41	  341.72
    119.9700	  755.00	  747.81	-1726.81	  342.00
    120.0700	  737.00	  720.42	-1717.42	  342.29
    120.1700	  658.00	  697.39	-1773.39	  342.58
    120.2700	  639.00	  677.98	-1772.98	  342.89
    120.3700	  635.00	  661.61	-1760.61	  343.20
    120.4700	  615.00	  647.79	-1766.79	  343.52
    120.5700	  609.00	  636.11	-1761.11	  343.84
    120.6700	  592.00	  626.27	-1768.27	  344.18
    120.7700	  601.00	  618.01	-1751.01	  344.52
    120.8700	  578.00	  611.12	-1767.12	  344.87
    120.9700	  608.00	  605.43	-1731.43	  345.23
    121.0700	  565.00	  600.81	-1769.81	  345.60
    121.1700	  565.00	  597.16	-1766.16	  345.97
    121.2700	  578.00	  594.38	-1750.38	  346.35
    121.3700	  569.00	  592.41	-1757.41	  346.74
    121.4700	  554.00	  591.18	-1771.18	  347.14
    121.5700	  526.00	  590.63	-1798.63	  347.55
    121.6700	  569.00	  590.71	-1755.71	  347.97
    121.7700	  600.00	  591.36	-1725.36	  348.39
    121.8700	  636.00	  592.54	-1690.54	  348.82
    121.9700	  569.00	  594.19	-1759.19	  349.27
    122.0700	  589.00	  596.24	-1741.24	  349.72
    122.1700	  605.00	  598.62	-1727.62	  350.18
    122.2700	  610.00	  601.28	-1725.28	  350.65
    122.3700	  621.00	  604.12	-1717.12	  351.12
    122.4700	  591.00	  607.07	-1750.07	  351.61
    122.5700	  661.00	  610.03	-1683.03	  352.11
    122.6700	  615.00	  612.92	-1731.92	  352.61
    122.7700	  587.00	  615.63	-1762.63	  353.12
    122.8700	  625.00	  618.07	-1727.07	  353.65
    122.9700	  645.00	  620.17	-1709.17	  354.18
    123.0700	  650.00	  621.83	-1705.83	  354.72
    123.1700	  617.00	  623.02	-1740.02	  355.28
    123.2700	  617.00	  623.67	-1740.67	  355.84
    123.3700	  621.00	  623.79	-1736.79	  356.41
    123.4700	  610.00	  623.36	-1747.36	  356.99
    123.5700	  643.00	  622.44	-1713.44	  357.58
    123.6700	  636.00	  621.05	-1719.05	  358.18
    123.7700	  649.00	  619.25	-1704.25	  358.79
    123.8700	  624.00	  617.10	-1727.10	  359.42
    123.9700	  651.00	  614.65	-1697.65	  360.05
    124.0700	  631.00	  611.98	-1714.98	  360.69
    124.1700	  601.00	  609.13	-1742.13	  361.34
    124.2700	  570.00	  606.19	-1770.19	  362.00
    124.3700	  609.00	  603.19	-1728.19	  362.68
    124.4700	  606.00	  600.21	-1728.21	  363.36
    124.5700	  560.00	  597.27	-1771.27	  364.06
    124.6700	  638.00	  594.41	-1690.41	  364.76
    124.7700	  608.00	  591.69	-1717.69	  365.48
    124.8700	  622.00	  589.13	-1701.13	  366.20
    124.9700	  607.00	  478.84	-1605.84	  366.94
    125.0700	  582.00	  479.59	-1734.00	  367.69
    125.1700	  630.00	  480.35	-1734.00	  368.45
    125.2700	  580.00	  481.12	-1734.00	  369.22
    125.3700	  549.00	  481.91	-1734.00	  370.01
    125.4700	  560.00	  482.70	-1734.00	  370.80
    125.5700	  564.00	  483.50	-1734.00	  371.61
    125.6700	  589.00	  484.32	-1734.00	  372.42
    125.7700	  514.00	  485.15	-1734.00	  373.25
    125.8700	  579.00	  485.99	-1734.00	  374.09
    125.9700	  557.00	  486.84	-1734.00	  374.94
    126.0700	  548.00	  487.71	-1734.00	  375.81
    126.1700	  548.00	  488.58	-1734.00	  376.69
    126.2700	  589.00	  489.47	-1734.00	  377.57
    126.3700	  563.00	  490.37	-1734.00	  378.47
    126.4700	  599.00	  491.29	-1734.00	  379.39
    126.5700	  569.00	  492.21	-1734.00	  380.31
    126.6700	  552.00	  493.15	-1734.00	  381.25
    126.7700	  550.00	  494.10	-1734.00	  382.20
    126.8700	  608.00	  495.06	-1734.00	  383.16
    126.9700	  627.00	  496.04	-1734.00	  384.14
    127.0700	  609.00	  497.03	-1734.00	  385.13
    127.1700	  539.00	  498.03	-1734.00	  386.13
    127.2700	  609.00	  499.04	-1734.00	  387.14
    127.3700	  603.00	  500.07	-1734.00	  388.17
    127.4700	  606.00	  501.11	-1734.00	  389.21
    127.5700	  645.00	  502.16	-1734.00	  390.26
    127.6700	  581.00	  503.23	-1734.00	  391.33
    127.7700	  642.00	  504.31	-1734.00	  392.41
    127.8700	  633.00	  505.40	-1734.00	  393.50
    127.9700	  628.00	  506.51	-1734.00	  394.61
    128.0700	  702.00	  507.63	-1734.00	  395.73
    128.1700	  706.00	  508.76	-1734.00	  396.86
    128.2700	  715.00	  509.91	-1734.00	  398.01
    128.3700	  733.00	  511.07	-1734.00	  399.18
    128.4700	  724.00	  512.25	-1734.00	  400.35
    128.5700	    0.00	  513.44	-1734.00	  401.54
    128.6700	    0.00	  514.65	-1734.00	  402.75
     12.3247	        	        	        	        	       0	(  0  0  2)	  0  1
     24.9291	        	        	        	        	       0	(  0  0  4)	  0  1
     28.3754	        	        	        	        	       0	(  1  0  0)	  0  1
     29.0739	        	        	        	        	       0	(  1  0  1)	  0  1
     31.0837	        	        	        	        	       0	(  1  0  2)	  0  1
     34.1977	        	        	        	        	       0	(  1  0  3)	  0  1
     37.8510	        	        	        	        	       0	(  0  0  6)	  0  1
     38.1820	        	        	        	        	       0	(  1  0  4)	  0  1
     42.8409	        	        	        	        	       0	(  1  0  5)	  0  1
     48.0349	        	        	        	        	       0	(  1  0  6)	  0  1
     50.3519	        	        	        	        	       0	(  1  1  0)	  0  1
     51.2982	        	        	        	        	       0	(  0  0  8)	  0  1
     52.0785	        	        	        	        	       0	(  1  1  2)	  0  1
     53.6766	        	        	        	        	       0	(  1  0  7)	  0  1
     57.0367	        	        	        	        	       0	(  1  1  4)	  0  1
     58.8661	        	        	        	        	       0	(  2  0  0)	  0  1
     59.2585	        	        	        	        	       0	(  2  0  1)	  0  1
     59.7197	        	        	        	        	       0	(  1  0  8)	  0  1
     60.4265	        	        	        	        	       0	(  2  0  2)	  0  1
     62.3440	        	        	        	        	       0	(  2  0  3)	  0  1
     64.7484	        	        	        	        	       0	(  1  1  6)	  0  1
     64.9740	        	        	        	        	       0	(  2  0  4)	  0  1
     65.5575	        	        	        	        	       0	(  0  0 10)	  0  1
     66.1503	        	        	        	        	       0	(  1  0  9)	  0  1
     68.2760	        	        	        	        	       0	(  2  0  5)	  0  1
     72.2131	        	        	        	        	       0	(  2  0  6)	  0  1
     72.9827	        	        	        	        	       0	(  1  0 10)	  0  1
     74.8105	        	        	        	        	       0	(  1  1  8)	  0  1
     76.7589	        	        	        	        	       0	(  2  0  7)	  0  1
     80.2594	        	        	        	        	       0	(  1  0 11)	  0  1
     81.0767	        	        	        	        	       0	(  0  0 12)	  0  1
     81.1605	        	        	        	        	       0	(  2  1  0)	  0  1
     81.5014	        	        	        	        	       0	(  2  1  1)	  0  1
     81.9033	        	        	        	        	       0	(  2  0  8)	  0  1
     82.5221	        	        	        	        	       0	(  2  1  2)	  0  1
     84.2184	        	        	        	        	       0	(  2  1  3)	  0  1
     86.5852	        	        	        	        	       0	(  2  1  4)	  0  1
     87.1163	        	        	        	        	       0	(  1  1 10)	  0  1
     87.6584	        	        	        	        	       0	(  2  0  9)	  0  1
     88.0564	        	        	        	        	       0	(  1  0 12)	  0  1
     89.6205	        	        	        	        	       0	(  2  1  5)	  0  1
     93.3302	        	        	        	        	       0	(  2  1  6)	  0  1
     94.0668	        	        	        	        	       0	(  2  0 10)	  0  1
     95.0925	        	        	        	        	       0	(  3  0  0)	  0  1
     95.4310	        	        	        	        	       0	(  3  0  1)	  0  1
     96.4479	        	        	        	        	       0	(  3  0  2)	  0  1
     96.4980	        	        	        	        	       0	(  1  0 13)	  0  1
     97.7346	        	        	        	        	       0	(  2  1  7)	  0  1
     98.1475	        	        	        	        	       0	(  3  0  3)	  0  1
     98.6727	        	        	        	        	       0	(  0  0 14)	  0  1
    100.5397	        	        	        	        	       0	(  3  0  4)	  0  1
    101.2152	        	        	        	        	       0	(  2  0 11)	  0  1
    102.0392	        	        	        	        	       0	(  1  1 12)	  0  1
    102.8772	        	        	        	        	       0	(  2  1  8)	  0  1
    103.6440	        	        	        	        	       0	(  3  0  5)	  0  1
    105.7877	        	        	        	        	       0	(  1  0 14)	  0  1
    107.4960	        	        	        	        	       0	(  3  0  6)	  0  1
    108.8404	        	        	        	        	       0	(  2  1  9)	  0  1
    109.2617	        	        	        	        	       0	(  2  0 12)	  0  1
    112.1590	        	        	        	        	       0	(  3  0  7)	  0  1
    115.7732	        	        	        	        	       0	(  2  1 10)	  0  1
    116.2842	        	        	        	        	       0	(  1  0 15)	  0  1
    116.9152	        	        	        	        	       0	(  2  2  0)	  0  1
    117.7434	        	        	        	        	       0	(  3  0  8)	  0  1
    118.4395	        	        	        	        	       0	(  2  2  2)	  0  1
    118.4961	        	        	        	        	       0	(  2  0 13)	  0  1
    120.2677	        	        	        	        	       0	(  0  0 16)	  0  1
    120.9814	        	        	        	        	       0	(  1  1 14)	  0  1
    123.1559	        	        	        	        	       0	(  2  2  4)	  0  1
    123.9528	        	        	        	        	       0	(  2  1 11)	  0  1
    124.4479	        	        	        	        	       0	(  3  0  9)	  0  1
    125.0339	        	        	        	        	       0	(  3  1  0)	  0  1
    125.4472	        	        	        	        	       0	(  3  1  1)	  0  1
    126.7004	        	        	        	        	       0	(  3  1  2)	  0  1
    128.7154	        	        	        	        	       0	(  1  0 16)	  0  1
    128.8362	        	        	        	        	       0	(  3  1  3)	  0  1
    129.5074	        	        	        	        	       0	(  2  0 14)	  0  1
    131.6654	        	        	        	        	       0	(  2  2  6)	  0  1
    131.9402	        	        	        	        	       0	(  3  1  4)	  0  1
    132.6588	        	        	        	        	       0	(  3  0 10)	  0  1
    133.9525	        	        	        	        	       0	(  2  1 12)	  0  1
    136.1715	        	        	        	        	       0	(  3  1  5)	  0  1
    141.8406	        	        	        	        	       0	(  3  1  6)	  0  1
    143.2717	        	        	        	        	       0	(  3  0 11)	  0  1
    143.8221	        	        	        	        	       0	(  2  0 15)	  0  1
    145.0903	        	        	        	        	       0	(  1  0 17)	  0  1
    146.0910	        	        	        	        	       0	(  2  2  8)	  0  1
    147.3028	        	        	        	        	       0	(  2  1 13)	  0  1
    149.6581	        	        	        	        	       0	(  3  1  7)	  0  1
    150.2899	        	        	        	        	       0	(  1  1 16)	  0  1
    154.8315	        	        	        	        	       0	(  0  0 18)	  0  1
    159.6110	        	        	        	        	       0	(  3  0 12)	  0  1
    159.8517	        	        	        	        	       0	(  4  0  0)	  0  1
    160.8608	        	        	        	        	       0	(  4  0  1)	  0  1
    162.1226	        	        	        	        	       0	(  3  1  8)	  0  1
    164.2596	        	        	        	        	       0	(  4  0  2)	  0  1
    172.1290	        	        	        	        	       0	(  2  0 16)	  0  1
    172.8608	        	        	        	        	       0	(  4  0  3)	  0  1
