MSG Master    CELL:    5.90528   5.90528  23.19456   90.0000   90.0000  120.0000   SPGR: P 63/m m c             TEMP:    850.65
  1   1280     2.52000     0.00000    -0.13087     0.00000     0.00000    0
    98     0     2
       0.00000      10.00000
     125.00000     130.00000
 2Theta	Yobs	Ycal	Yobs-Ycal	Backg	Posr	(hkl)	K
      0.7700	    0.00	  438.80	-1742.93	  331.39
      0.8700	    0.00	  440.82	-1742.93	  333.41
      0.9700	   35.00	  442.83	-1742.93	  335.41
      1.0700	   39.00	  444.81	-1742.93	  337.40
      1.1700	   41.00	  446.77	-1742.93	  339.36
      1.2700	   49.00	  448.71	-1742.93	  341.30
      1.3700	   59.00	  450.63	-1742.93	  343.22
      1.4700	   97.00	  452.53	-1742.93	  345.12
      1.5700	  288.00	  454.41	-1742.93	  346.99
      1.6700	  479.00	  456.26	-1742.93	  348.85
      1.7700	  556.00	  458.10	-1742.93	  350.69
      1.8700	  645.00	  459.92	-1742.93	  352.50
      1.9700	  703.00	  461.71	-1742.93	  354.30
      2.0700	  783.00	  463.49	-1742.93	  356.08
      2.1700	  778.00	  465.25	-1742.93	  357.83
      2.2700	  721.00	  466.98	-1742.93	  359.57
      2.3700	  742.00	  468.70	-1742.93	  361.29
      2.4700	  679.00	  470.40	-1742.93	  362.99
      2.5700	  717.00	  472.08	-1742.93	  364.67
      2.6700	  704.00	  473.74	-1742.93	  366.32
      2.7700	  625.00	  475.38	-1742.93	  367.96
      2.8700	  606.00	  477.00	-1742.93	  369.59
      2.9700	  642.00	  478.60	-1742.93	  371.19
      3.0700	  588.00	  480.18	-1742.93	  372.77
      3.1700	  571.00	  481.75	-1742.93	  374.34
      3.2700	  655.00	  483.29	-1742.93	  375.88
      3.3700	  728.00	  484.82	-1742.93	  377.41
      3.4700	  887.00	  486.33	-1742.93	  378.92
      3.5700	  973.00	  487.82	-1742.93	  380.41
      3.6700	 1089.00	  489.30	-1742.93	  381.88
      3.7700	 1115.00	  490.75	-1742.93	  383.34
      3.8700	 1164.00	  492.19	-1742.93	  384.78
      3.9700	 1307.00	  493.61	-1742.93	  386.20
      4.0700	 1342.00	  495.01	-1742.93	  387.60
      4.1700	 1270.00	  496.39	-1742.93	  388.98
      4.2700	 1336.00	  497.76	-1742.93	  390.35
      4.3700	 1288.00	  499.11	-1742.93	  391.70
      4.4700	 1293.00	  500.44	-1742.93	  393.03
      4.5700	 1194.00	  501.76	-1742.93	  394.35
      4.6700	 1182.00	  503.06	-1742.93	  395.64
      4.7700	 1059.00	  504.34	-1742.93	  396.93
      4.8700	 1122.00	  505.60	-1742.93	  398.19
      4.9700	 1088.00	  506.85	-1742.93	  399.44
      5.0700	 1102.00	  508.08	-1742.93	  400.67
      5.1700	 1085.00	  509.30	-1742.93	  401.89
      5.2700	 1005.00	  510.50	-1742.93	  403.09
      5.3700	 1025.00	  511.68	-1742.93	  404.27
      5.4700	  953.00	  512.85	-1742.93	  405.44
      5.5700	  963.00	  514.00	-1742.93	  406.59
      5.6700	  884.00	  515.14	-1742.93	  407.72
      5.7700	  901.00	  516.25	-1742.93	  408.84
      5.8700	  857.00	  517.36	-1742.93	  409.95
      5.9700	  860.00	  518.45	-1742.93	  411.03
      6.0700	  806.00	  519.52	-1742.93	  412.11
      6.1700	  836.00	  520.58	-1742.93	  413.16
      6.2700	  879.00	  521.62	-1742.93	  414.21
      6.3700	  779.00	  522.65	-1742.93	  415.23
      6.4700	  789.00	  523.66	-1742.93	  416.25
      6.5700	  786.00	  524.66	-1742.93	  417.24
      6.6700	  785.00	  525.64	-1742.93	  418.23
      6.7700	  806.00	  526.61	-1742.93	  419.19
      6.8700	  757.00	  527.56	-1742.93	  420.15
      6.9700	  756.00	  528.50	-1742.93	  421.09
      7.0700	  695.00	  529.42	-1742.93	  422.01
      7.1700	  642.00	  530.33	-1742.93	  422.92
      7.2700	  693.00	  531.23	-1742.93	  423.82
      7.3700	  694.00	  532.11	-1742.93	  424.70
      7.4700	  680.00	  532.98	-1742.93	  425.57
      7.5700	  677.00	  533.83	-1742.93	  426.42
      7.6700	  668.00	  534.67	-1742.93	  427.26
      7.7700	  639.00	  535.50	-1742.93	  428.09
      7.8700	  657.00	  536.31	-1742.93	  428.90
      7.9700	  717.00	  537.11	-1742.93	  429.70
      8.0700	  662.00	  537.90	-1742.93	  430.48
      8.1700	  690.00	  538.67	-1742.93	  431.26
      8.2700	  623.00	  539.43	-1742.93	  432.02
      8.3700	  663.00	  540.18	-1742.93	  432.76
      8.4700	  640.00	  540.91	-1742.93	  433.50
      8.5700	  603.00	  541.63	-1742.93	  434.22
      8.6700	  639.00	  542.34	-1742.93	  434.93
      8.7700	  612.00	  543.03	-1742.93	  435.62
      8.8700	  615.00	  543.72	-1742.93	  436.30
      8.9700	  622.00	  544.39	-1742.93	  436.97
      9.0700	  553.00	  545.04	-1742.93	  437.63
      9.1700	  592.00	  545.69	-1742.93	  438.28
      9.2700	  638.00	  546.32	-1742.93	  438.91
      9.3700	  596.00	  546.94	-1742.93	  439.53
      9.4700	  610.00	  547.55	-1742.93	  440.14
      9.5700	  578.00	  548.15	-1742.93	  440.74
      9.6700	  625.00	  548.73	-1742.93	  441.32
      9.7700	  627.00	  549.31	-1742.93	  441.89
      9.8700	  614.00	  549.87	-1742.93	  442.46
      9.9700	  634.00	  550.42	-1742.93	  443.01
     10.0700	  617.00	  552.84	-1678.77	  443.54
     10.1700	  634.00	  553.54	-1662.47	  444.07
     10.2700	  572.00	  554.27	-1725.20	  444.59
     10.3700	  563.00	  555.04	-1734.97	  445.09
     10.4700	  589.00	  555.90	-1709.82	  445.59
     10.5700	  583.00	  556.87	-1716.80	  446.07
     10.6700	  606.00	  558.04	-1694.97	  446.54
     10.7700	  545.00	  559.48	-1757.41	  447.00
     10.8700	  584.00	  561.27	-1720.20	  447.45
     10.9700	  579.00	  563.45	-1727.38	  447.89
     11.0700	  554.00	  566.02	-1754.95	  448.32
     11.1700	  593.00	  568.98	-1718.91	  448.74
     11.2700	  585.00	  572.36	-1730.29	  449.14
     11.3700	  612.00	  576.25	-1707.17	  449.54
     11.4700	  603.00	  580.74	-1720.67	  449.93
     11.5700	  556.00	  586.03	-1772.96	  450.31
     11.6700	  623.00	  592.39	-1712.31	  450.67
     11.7700	  641.00	  600.17	-1702.10	  451.03
     11.8700	  671.00	  609.64	-1681.57	  451.38
     11.9700	  663.00	  620.61	-1700.54	  451.71
     12.0700	  681.00	  631.76	-1693.69	  452.04
     12.1700	  680.00	  640.04	-1702.97	  452.36
     12.2700	  707.00	  640.61	-1676.54	  452.67
     12.3700	  665.00	  630.26	-1708.19	  452.96
     12.4700	  622.00	  613.12	-1734.05	  453.25
     12.5700	  602.00	  596.72	-1737.65	  453.53
     12.6700	  573.00	  584.64	-1754.57	  453.80
     12.7700	  540.00	  576.95	-1779.87	  454.07
     12.8700	  515.00	  572.48	-1800.41	  454.32
     12.9700	  595.00	  569.98	-1717.91	  454.56
     13.0700	  555.00	  568.53	-1756.46	  454.80
     13.1700	  543.00	  567.64	-1767.57	  455.02
     13.2700	  550.00	  567.05	-1759.98	  455.24
     13.3700	  518.00	  566.65	-1791.58	  455.45
     13.4700	  521.00	  566.37	-1788.30	  455.64
     13.5700	  560.00	  566.18	-1749.11	  455.84
     13.6700	  536.00	  566.06	-1772.99	  456.02
     13.7700	  572.00	  566.01	-1736.94	  456.19
     13.8700	  521.00	  565.96	-1787.89	  456.36
     13.9700	  562.00	  565.94	-1746.87	  456.51
     14.0700	  523.00	  565.94	-1785.87	  456.66
     14.1700	  507.00	  565.96	-1801.89	  456.81
     14.2700	  536.00	  565.98	-1772.91	  456.94
     14.3700	  512.00	  566.01	-1796.94	  457.06
     14.4700	  536.00	  566.05	-1772.97	  457.18
     14.5700	  578.00	  566.08	-1731.01	  457.29
     14.6700	  553.00	  566.12	-1756.05	  457.39
     14.7700	  574.00	  566.16	-1735.09	  457.49
     14.8700	  567.00	  566.19	-1742.12	  457.57
     14.9700	  573.00	  566.23	-1736.16	  457.65
     15.0700	  536.00	  566.26	-1773.19	  457.73
     15.1700	  531.00	  566.29	-1778.21	  457.79
     15.2700	  569.00	  566.31	-1740.24	  457.85
     15.3700	  549.00	  566.33	-1760.26	  457.90
     15.4700	  571.00	  566.35	-1738.27	  457.94
     15.5700	  533.00	  566.36	-1776.29	  457.98
     15.6700	  560.00	  566.36	-1749.29	  458.00
     15.7700	  542.00	  566.37	-1767.29	  458.03
     15.8700	  565.00	  566.36	-1744.29	  458.04
     15.9700	  528.00	  566.35	-1781.28	  458.05
     16.0700	  546.00	  566.34	-1763.27	  458.05
     16.1700	  571.00	  566.32	-1738.25	  458.05
     16.2700	  546.00	  566.30	-1763.22	  458.04
     16.3700	  533.00	  566.27	-1776.19	  458.02
     16.4700	  549.00	  566.23	-1760.16	  457.99
     16.5700	  507.00	  566.19	-1802.12	  457.96
     16.6700	  555.00	  566.14	-1754.07	  457.93
     16.7700	  546.00	  566.09	-1763.02	  457.88
     16.8700	  555.00	  566.03	-1753.96	  457.83
     16.9700	  532.00	  565.97	-1776.90	  457.78
     17.0700	  515.00	  565.90	-1793.83	  457.72
     17.1700	  550.00	  565.83	-1758.76	  457.65
     17.2700	  579.00	  565.75	-1729.68	  457.58
     17.3700	  585.00	  565.67	-1723.60	  457.50
     17.4700	  578.00	  565.69	-1730.62	  457.41
     17.5700	  560.00	  565.60	-1748.53	  457.32
     17.6700	  549.00	  565.50	-1759.43	  457.22
     17.7700	  574.00	  565.40	-1734.33	  457.12
     17.8700	  564.00	  565.29	-1744.22	  457.02
     17.9700	  611.00	  565.27	-1697.20	  456.90
     18.0700	  542.00	  565.16	-1766.09	  456.78
     18.1700	  554.00	  565.04	-1753.97	  456.66
     18.2700	  599.00	  564.91	-1708.84	  456.53
     18.3700	  545.00	  564.78	-1762.71	  456.40
     18.4700	  550.00	  564.65	-1757.58	  456.26
     18.5700	  583.00	  564.51	-1724.44	  456.12
     18.6700	  567.00	  564.36	-1740.29	  455.97
     18.7700	  563.00	  564.21	-1744.14	  455.81
     18.8700	  559.00	  564.06	-1747.99	  455.65
     18.9700	  521.00	  563.90	-1785.83	  455.49
     19.0700	  559.00	  563.74	-1747.67	  455.32
     19.1700	  581.00	  563.58	-1725.51	  455.15
     19.2700	  524.00	  563.41	-1782.34	  454.97
     19.3700	  550.00	  563.23	-1756.16	  454.79
     19.4700	  550.00	  563.05	-1755.98	  454.60
     19.5700	  535.00	  562.91	-1770.84	  454.41
     19.6700	  567.00	  562.73	-1738.66	  454.21
     19.7700	  530.00	  562.54	-1775.47	  454.01
     19.8700	  564.00	  562.35	-1741.28	  453.81
     19.9700	  516.00	  562.15	-1789.08	  453.60
     20.0700	  565.00	  561.95	-1739.88	  453.39
     20.1700	  520.00	  561.75	-1784.68	  453.17
     20.2700	  550.00	  561.54	-1754.47	  452.95
     20.3700	  585.00	  561.33	-1719.26	  452.73
     20.4700	  573.00	  561.12	-1731.05	  452.50
     20.5700	  500.00	  560.91	-1803.84	  452.26
     20.6700	  531.00	  560.69	-1772.62	  452.03
     20.7700	  572.00	  560.47	-1731.40	  451.79
     20.8700	  568.00	  560.25	-1735.18	  451.54
     20.9700	  564.00	  560.02	-1738.95	  451.30
     21.0700	  533.00	  559.80	-1769.72	  451.04
     21.1700	  605.00	  559.57	-1697.50	  450.79
     21.2700	  573.00	  559.34	-1729.26	  450.53
     21.3700	  545.00	  559.10	-1757.03	  450.27
     21.4700	  554.00	  558.87	-1747.80	  450.00
     21.5700	  570.00	  558.64	-1731.56	  449.73
     21.6700	  548.00	  558.40	-1753.33	  449.46
     21.7700	  538.00	  558.16	-1763.09	  449.19
     21.8700	  501.00	  557.93	-1799.86	  448.91
     21.9700	  515.00	  557.69	-1785.62	  448.63
     22.0700	  581.00	  557.46	-1719.39	  448.34
     22.1700	  530.00	  557.38	-1770.31	  448.05
     22.2700	  564.00	  557.16	-1736.08	  447.76
     22.3700	  545.00	  556.93	-1754.86	  447.47
     22.4700	  543.00	  556.71	-1756.64	  447.17
     22.5700	  581.00	  556.49	-1718.42	  446.87
     22.6700	  525.00	  556.28	-1774.21	  446.57
     22.7700	  538.00	  556.08	-1761.01	  446.26
     22.8700	  544.00	  555.89	-1754.82	  445.96
     22.9700	  537.00	  555.71	-1761.64	  445.65
     23.0700	  591.00	  555.54	-1707.47	  445.33
     23.1700	  538.00	  555.36	-1760.29	  445.02
     23.2700	  592.00	  555.24	-1706.17	  444.70
     23.3700	  566.00	  555.16	-1732.09	  444.38
     23.4700	  552.00	  555.13	-1746.05	  444.06
     23.5700	  550.00	  555.15	-1748.08	  443.73
     23.6700	  537.00	  555.26	-1761.19	  443.40
     23.7700	  572.00	  555.50	-1726.42	  443.07
     23.8700	  544.00	  555.94	-1754.87	  442.74
     23.9700	  569.00	  556.72	-1730.65	  442.41
     24.0700	  519.00	  558.07	-1782.00	  442.07
     24.1700	  584.00	  560.35	-1719.27	  441.73
     24.2700	  571.00	  564.02	-1735.95	  441.39
     24.3700	  630.00	  569.61	-1682.54	  441.05
     24.4700	  606.00	  577.47	-1714.40	  440.70
     24.5700	  613.00	  587.53	-1717.46	  440.35
     24.6700	  650.00	  598.84	-1691.77	  440.01
     24.7700	  637.00	  609.02	-1714.95	  439.66
     24.8700	  685.00	  614.03	-1671.96	  439.30
     24.9700	  637.00	  609.90	-1715.83	  438.95
     25.0700	  609.00	  597.67	-1731.60	  438.59
     25.1700	  617.00	  583.41	-1709.34	  438.24
     25.2700	  645.00	  571.56	-1669.48	  437.88
     25.3700	  577.00	  563.26	-1729.19	  437.52
     25.4700	  611.00	  558.03	-1689.96	  437.15
     25.5700	  586.00	  554.90	-1711.83	  436.79
     25.6700	  599.00	  553.00	-1696.93	  436.43
     25.7700	  546.00	  551.78	-1748.71	  436.06
     25.8700	  612.00	  550.93	-1681.86	  435.69
     25.9700	  555.00	  550.31	-1738.24	  435.32
     26.0700	  547.00	  549.85	-1745.78	  434.95
     26.1700	  606.00	  549.52	-1686.45	  434.58
     26.2700	  529.00	  549.31	-1763.23	  434.21
     26.3700	  582.00	  549.20	-1710.13	  433.83
     26.4700	  565.00	  549.20	-1727.13	  433.46
     26.5700	  580.00	  549.32	-1712.25	  433.08
     26.6700	  526.00	  549.57	-1766.50	  432.70
     26.7700	  549.00	  549.98	-1743.90	  432.32
     26.8700	  543.00	  550.57	-1750.50	  431.94
     26.9700	  589.00	  551.40	-1705.33	  431.56
     27.0700	  589.00	  552.53	-1706.46	  431.18
     27.1700	  582.00	  554.09	-1715.02	  430.80
     27.2700	  586.00	  556.28	-1713.21	  430.42
     27.3700	  565.00	  559.47	-1737.40	  430.03
     27.4700	  618.00	  564.39	-1689.32	  429.65
     27.5700	  575.00	  572.36	-1740.29	  429.26
     27.6700	  604.00	  585.52	-1724.45	  428.88
     27.7700	  564.00	  606.91	-1785.84	  428.49
     27.8700	  630.00	  639.75	-1752.68	  428.10
     27.9700	  627.00	  685.71	-1801.63	  427.71
     28.0700	  779.00	  742.38	-1706.31	  427.32
     28.1700	  829.00	  800.79	-1714.72	  426.93
     28.2700	  945.00	  843.88	-1641.81	  426.54
     28.3700	  890.00	  851.56	-1704.49	  426.15
     28.4700	  921.00	  822.24	-1644.17	  425.76
     28.5700	  759.00	  784.02	-1767.95	  425.37
     28.6700	  773.00	  763.78	-1733.71	  424.98
     28.7700	  760.00	  768.51	-1751.44	  424.59
     28.8700	  740.00	  789.11	-1792.04	  424.20
     28.9700	  817.00	  805.68	-1731.61	  423.81
     29.0700	  792.00	  795.43	-1746.36	  423.41
     29.1700	  799.00	  751.82	-1695.75	  423.02
     29.2700	  654.00	  693.82	-1782.75	  422.63
     29.3700	  673.00	  642.09	-1712.02	  422.23
     29.4700	  655.00	  604.50	-1692.43	  421.84
     29.5700	  600.00	  580.50	-1723.43	  421.45
     29.6700	  611.00	  566.38	-1698.31	  421.05
     29.7700	  587.00	  558.24	-1714.17	  420.66
     29.8700	  572.00	  553.39	-1724.31	  420.27
     29.9700	  615.00	  550.36	-1678.29	  419.87
     30.0700	  622.00	  548.56	-1669.49	  419.48
     30.1700	  608.00	  547.85	-1682.78	  419.09
     30.2700	  620.00	  548.47	-1671.40	  418.69
     30.3700	  590.00	  551.02	-1703.95	  418.30
     30.4700	  572.00	  556.45	-1727.38	  417.91
     30.5700	  564.00	  565.91	-1744.84	  417.52
     30.6700	  579.00	  580.07	-1744.00	  417.12
     30.7700	  598.00	  598.19	-1743.12	  416.73
     30.8700	  640.00	  617.18	-1720.10	  416.34
     30.9700	  609.00	  631.13	-1765.06	  415.95
     31.0700	  638.00	  632.61	-1737.54	  415.56
     31.1700	  606.00	  618.75	-1755.68	  415.17
     31.2700	  597.00	  596.49	-1742.42	  414.78
     31.3700	  602.00	  574.91	-1715.84	  414.39
     31.4700	  593.00	  558.32	-1708.25	  414.00
     31.5700	  569.00	  547.25	-1721.18	  413.61
     31.6700	  551.00	  540.51	-1732.44	  413.22
     31.7700	  519.00	  536.57	-1760.49	  412.83
     31.8700	  580.00	  534.21	-1697.14	  412.45
     31.9700	  586.00	  532.71	-1689.64	  412.06
     32.0700	  596.00	  531.70	-1678.63	  411.67
     32.1700	  515.00	  531.02	-1758.95	  411.29
     32.2700	  535.00	  530.59	-1738.52	  410.90
     32.3700	  577.00	  530.40	-1696.32	  410.52
     32.4700	  549.00	  530.42	-1724.35	  410.14
     32.5700	  554.00	  530.68	-1719.61	  409.75
     32.6700	  538.00	  531.20	-1736.13	  409.37
     32.7700	  563.00	  532.04	-1711.97	  408.99
     32.8700	  559.00	  533.26	-1717.19	  408.61
     32.9700	  514.00	  534.99	-1763.92	  408.23
     33.0700	  533.00	  537.45	-1747.38	  407.85
     33.1700	  521.00	  541.02	-1762.95	  407.47
     33.2700	  539.00	  546.52	-1750.45	  407.10
     33.3700	  557.00	  555.40	-1741.32	  406.72
     33.4700	  627.00	  570.30	-1686.23	  406.35
     33.5700	  613.00	  595.27	-1725.20	  405.97
     33.6700	  594.00	  635.28	-1784.21	  405.60
     33.7700	  677.00	  694.13	-1760.06	  405.23
     33.8700	  807.00	  770.63	-1706.56	  404.86
     33.9700	  907.00	  854.30	-1690.23	  404.49
     34.0700	  954.00	  923.20	-1712.13	  404.12
     34.1700	 1034.00	  947.44	-1656.37	  403.75
     34.2700	 1000.00	  909.03	-1651.96	  403.38
     34.3700	  852.00	  826.47	-1717.40	  403.02
     34.4700	  727.00	  736.45	-1752.38	  402.65
     34.5700	  638.00	  661.74	-1766.67	  402.29
     34.6700	  603.00	  608.70	-1748.63	  401.93
     34.7700	  562.00	  574.87	-1755.80	  401.56
     34.8700	  569.00	  554.65	-1728.58	  401.20
     34.9700	  520.00	  542.68	-1765.61	  400.85
     35.0700	  548.00	  535.20	-1730.13	  400.49
     35.1700	  532.00	  530.10	-1741.03	  400.13
     35.2700	  525.00	  526.32	-1744.24	  399.78
     35.3700	  521.00	  523.34	-1745.27	  399.42
     35.4700	  527.00	  521.40	-1737.32	  399.07
     35.5700	  525.00	  519.40	-1737.33	  398.72
     35.6700	  521.00	  517.70	-1739.63	  398.37
     35.7700	  532.00	  516.24	-1727.17	  398.02
     35.8700	  515.00	  514.96	-1742.89	  397.68
     35.9700	  511.00	  513.84	-1745.77	  397.33
     36.0700	  541.00	  512.84	-1714.77	  396.99
     36.1700	  491.00	  511.92	-1763.85	  396.64
     36.2700	  517.00	  511.11	-1737.04	  396.30
     36.3700	  536.00	  510.38	-1717.31	  395.96
     36.4700	  493.00	  509.72	-1759.65	  395.63
     36.5700	  535.00	  509.11	-1717.04	  395.29
     36.6700	  509.00	  508.57	-1742.50	  394.95
     36.7700	  555.00	  508.08	-1696.01	  394.62
     36.8700	  485.00	  507.67	-1765.60	  394.29
     36.9700	  509.00	  507.36	-1741.29	  393.96
     37.0700	  479.00	  507.21	-1771.14	  393.63
     37.1700	  459.00	  507.29	-1791.22	  393.30
     37.2700	  489.00	  507.75	-1761.68	  392.98
     37.3700	  466.00	  508.71	-1785.64	  392.65
     37.4700	  454.00	  510.45	-1799.38	  392.33
     37.5700	  462.00	  512.55	-1793.48	  392.01
     37.6700	  476.00	  514.83	-1781.76	  391.69
     37.7700	  541.00	  516.62	-1718.55	  391.37
     37.8700	  523.00	  517.08	-1737.00	  391.05
     37.9700	  533.00	  515.79	-1725.72	  390.74
     38.0700	  504.00	  513.28	-1752.21	  390.43
     38.1700	  529.00	  510.39	-1724.32	  390.12
     38.2700	  457.00	  507.66	-1793.58	  389.81
     38.3700	  487.00	  505.33	-1761.26	  389.50
     38.4700	  513.00	  503.53	-1733.46	  389.20
     38.5700	  488.00	  502.20	-1757.13	  388.89
     38.6700	  469.00	  501.23	-1775.16	  388.59
     38.7700	  503.00	  500.50	-1740.43	  388.29
     38.8700	  517.00	  499.93	-1725.86	  387.99
     38.9700	  477.00	  499.45	-1765.38	  387.69
     39.0700	  504.00	  499.03	-1737.96	  387.40
     39.1700	  492.00	  498.65	-1749.58	  387.11
     39.2700	  480.00	  498.30	-1761.23	  386.81
     39.3700	  490.00	  497.86	-1750.79	  386.53
     39.4700	  453.00	  497.55	-1787.48	  386.24
     39.5700	  499.00	  497.25	-1741.18	  385.95
     39.6700	  461.00	  496.97	-1778.90	  385.67
     39.7700	  462.00	  496.70	-1777.63	  385.39
     39.8700	  500.00	  496.45	-1739.37	  385.11
     39.9700	  506.00	  496.20	-1733.13	  384.83
     40.0700	  467.00	  495.97	-1771.90	  384.55
     40.1700	  498.00	  495.76	-1740.69	  384.28
     40.2700	  496.00	  495.99	-1742.92	  384.01
     40.3700	  480.00	  495.81	-1758.74	  383.74
     40.4700	  465.00	  495.65	-1773.58	  383.47
     40.5700	  491.00	  495.51	-1747.44	  383.20
     40.6700	  494.00	  495.38	-1744.31	  382.94
     40.7700	  447.00	  495.28	-1791.21	  382.67
     40.8700	  499.00	  495.21	-1739.14	  382.41
     40.9700	  489.00	  495.17	-1749.10	  382.15
     41.0700	  537.00	  495.17	-1701.10	  381.90
     41.1700	  484.00	  495.26	-1754.19	  381.64
     41.2700	  476.00	  495.36	-1762.29	  381.39
     41.3700	  461.00	  495.52	-1777.45	  381.14
     41.4700	  497.00	  495.78	-1741.71	  380.89
     41.5700	  530.00	  496.15	-1709.08	  380.64
     41.6700	  491.00	  496.69	-1748.62	  380.40
     41.7700	  517.00	  497.48	-1723.41	  380.16
     41.8700	  490.00	  498.80	-1751.73	  379.92
     41.9700	  513.00	  500.77	-1730.70	  379.68
     42.0700	  481.00	  504.15	-1766.08	  379.44
     42.1700	  544.00	  509.61	-1708.54	  379.21
     42.2700	  481.00	  518.36	-1780.29	  378.97
     42.3700	  543.00	  531.41	-1731.34	  378.74
     42.4700	  491.00	  549.14	-1801.07	  378.52
     42.5700	  510.00	  570.39	-1803.32	  378.29
     42.6700	  576.00	  591.58	-1758.51	  378.07
     42.7700	  552.00	  606.68	-1797.61	  377.84
     42.8700	  583.00	  609.33	-1769.26	  377.62
     42.9700	  539.00	  597.36	-1801.29	  377.41
     43.0700	  573.00	  576.45	-1746.38	  377.19
     43.1700	  562.00	  553.96	-1734.89	  376.98
     43.2700	  545.00	  534.50	-1732.42	  376.76
     43.3700	  525.00	  519.75	-1737.68	  376.56
     43.4700	  508.00	  509.62	-1744.55	  376.35
     43.5700	  489.00	  503.16	-1757.08	  376.14
     43.6700	  504.00	  499.17	-1738.10	  375.94
     43.7700	  528.00	  496.70	-1711.63	  375.74
     43.8700	  473.00	  495.08	-1765.01	  375.54
     43.9700	  528.00	  493.95	-1708.88	  375.34
     44.0700	  503.00	  493.09	-1733.02	  375.15
     44.1700	  512.00	  492.62	-1723.55	  374.96
     44.2700	  477.00	  492.08	-1758.01	  374.76
     44.3700	  452.00	  491.64	-1782.56	  374.58
     44.4700	  456.00	  491.27	-1778.20	  374.39
     44.5700	  480.00	  490.97	-1753.90	  374.21
     44.6700	  489.00	  490.72	-1744.65	  374.02
     44.7700	  471.00	  490.52	-1762.45	  373.84
     44.8700	  514.00	  490.36	-1719.29	  373.67
     44.9700	  505.00	  490.24	-1728.17	  373.49
     45.0700	  485.00	  490.15	-1748.08	  373.32
     45.1700	  503.00	  490.09	-1730.02	  373.15
     45.2700	  501.00	  490.07	-1732.00	  372.98
     45.3700	  543.00	  490.07	-1690.00	  372.81
     45.4700	  473.00	  490.11	-1760.04	  372.65
     45.5700	  452.00	  490.25	-1781.17	  372.48
     45.6700	  479.00	  490.34	-1754.27	  372.32
     45.7700	  500.00	  490.48	-1733.40	  372.16
     45.8700	  479.00	  490.68	-1754.61	  372.01
     45.9700	  478.00	  490.90	-1755.83	  371.85
     46.0700	  446.00	  491.14	-1788.07	  371.70
     46.1700	  543.00	  491.44	-1691.37	  371.55
     46.2700	  535.00	  491.79	-1699.71	  371.40
     46.3700	  511.00	  492.04	-1723.97	  371.26
     46.4700	  485.00	  492.52	-1750.45	  371.11
     46.5700	  513.00	  493.08	-1723.01	  370.97
     46.6700	  468.00	  493.74	-1768.66	  370.83
     46.7700	  469.00	  494.52	-1768.45	  370.70
     46.8700	  480.00	  495.48	-1758.40	  370.56
     46.9700	  488.00	  496.68	-1751.61	  370.43
     47.0700	  517.00	  498.29	-1724.22	  370.30
     47.1700	  468.00	  500.57	-1775.50	  370.17
     47.2700	  490.00	  503.94	-1756.86	  370.04
     47.3700	  563.00	  508.98	-1688.91	  369.92
     47.4700	  531.00	  516.36	-1728.29	  369.79
     47.5700	  556.00	  526.65	-1713.58	  369.67
     47.6700	  572.00	  539.92	-1710.85	  369.56
     47.7700	  579.00	  555.37	-1719.30	  369.44
     47.8700	  589.00	  570.86	-1724.79	  369.33
     47.9700	  569.00	  582.80	-1756.73	  369.21
     48.0700	  539.00	  587.68	-1791.61	  369.10
     48.1700	  575.00	  583.27	-1751.20	  369.00
     48.2700	  553.00	  572.70	-1762.63	  368.89
     48.3700	  555.00	  560.33	-1748.25	  368.79
     48.4700	  519.00	  549.39	-1773.32	  368.68
     48.5700	  520.00	  541.51	-1764.44	  368.59
     48.6700	  515.00	  537.17	-1765.10	  368.49
     48.7700	  563.00	  536.17	-1716.10	  368.39
     48.8700	  516.00	  538.08	-1765.01	  368.30
     48.9700	  507.00	  542.51	-1778.44	  368.21
     49.0700	  530.00	  549.43	-1762.36	  368.12
     49.1700	  556.00	  559.33	-1746.25	  368.03
     49.2700	  547.00	  573.67	-1769.60	  367.95
     49.3700	  552.00	  595.52	-1786.45	  367.86
     49.4700	  611.00	  630.54	-1762.47	  367.78
     49.5700	  666.00	  687.85	-1764.78	  367.70
     49.6700	  654.00	  780.12	-1869.05	  367.63
     49.7700	  829.00	  921.55	-1835.48	  367.55
     49.8700	 1015.00	 1122.85	-1850.77	  367.48
     49.9700	 1320.00	 1383.85	-1806.78	  367.41
     50.0700	 1745.00	 1684.61	-1682.54	  367.34
     50.1700	 2040.00	 1977.25	-1680.18	  367.27
     50.2700	 2265.00	 2185.60	-1663.53	  367.21
     50.3700	 2301.00	 2231.48	-1673.41	  367.15
     50.4700	 2156.00	 2093.00	-1679.93	  367.08
     50.5700	 1883.00	 1828.52	-1688.44	  367.03
     50.6700	 1515.00	 1524.96	-1752.89	  366.97
     50.7700	 1163.00	 1245.20	-1825.13	  366.91
     50.8700	  854.00	 1021.37	-1910.30	  366.86
     50.9700	  745.00	  861.08	-1859.01	  366.81
     51.0700	  675.00	  756.71	-1824.64	  366.76
     51.1700	  637.00	  693.52	-1799.45	  366.71
     51.2700	  615.00	  655.77	-1783.70	  366.67
     51.3700	  640.00	  630.81	-1733.74	  366.62
     51.4700	  607.00	  611.03	-1746.96	  366.58
     51.5700	  507.00	  593.60	-1829.53	  366.54
     51.6700	  532.00	  578.30	-1789.23	  366.51
     51.7700	  575.00	  565.49	-1733.42	  366.47
     51.8700	  563.00	  555.36	-1735.29	  366.44
     51.9700	  616.00	  547.86	-1674.79	  366.40
     52.0700	  565.00	  542.73	-1720.66	  366.37
     52.1700	  577.00	  539.60	-1705.53	  366.34
     52.2700	  547.00	  538.19	-1734.11	  366.32
     52.3700	  530.00	  538.29	-1751.22	  366.29
     52.4700	  600.00	  539.99	-1682.92	  366.27
     52.5700	  562.00	  543.67	-1724.60	  366.25
     52.6700	  557.00	  550.27	-1736.20	  366.23
     52.7700	  578.00	  561.45	-1726.38	  366.21
     52.8700	  602.00	  579.82	-1720.75	  366.20
     52.9700	  606.00	  608.91	-1745.84	  366.18
     53.0700	  658.00	  652.71	-1737.64	  366.17
     53.1700	  746.00	  714.51	-1711.44	  366.16
     53.2700	  813.00	  795.33	-1725.26	  366.15
     53.3700	  932.00	  891.76	-1702.69	  366.15
     53.4700	  991.00	  993.86	-1745.79	  366.14
     53.5700	 1129.00	 1083.44	-1697.37	  366.14
     53.6700	 1120.00	 1135.90	-1758.83	  366.14
     53.7700	 1144.00	 1132.01	-1730.94	  366.14
     53.8700	 1086.00	 1073.09	-1730.02	  366.14
     53.9700	  981.00	  980.36	-1742.29	  366.14
     54.0700	  916.00	  878.43	-1705.36	  366.15
     54.1700	  723.00	  784.45	-1804.38	  366.16
     54.2700	  651.00	  707.14	-1799.07	  366.17
     54.3700	  645.00	  649.05	-1746.98	  366.18
     54.4700	  601.00	  608.66	-1750.59	  366.19
     54.5700	  628.00	  582.42	-1697.35	  366.20
     54.6700	  581.00	  566.35	-1728.28	  366.22
     54.7700	  594.00	  557.02	-1705.95	  366.24
     54.8700	  559.00	  551.95	-1735.88	  366.25
     54.9700	  587.00	  549.60	-1705.52	  366.27
     55.0700	  583.00	  549.07	-1709.00	  366.30
     55.1700	  555.00	  549.95	-1737.88	  366.32
     55.2700	  573.00	  552.06	-1721.99	  366.34
     55.3700	  531.00	  555.38	-1767.31	  366.37
     55.4700	  625.00	  560.02	-1677.95	  366.40
     55.5700	  573.00	  566.22	-1736.15	  366.43
     55.6700	  591.00	  574.45	-1726.37	  366.46
     55.7700	  588.00	  585.59	-1740.52	  366.49
     55.8700	  567.00	  601.31	-1777.24	  366.53
     55.9700	  640.00	  624.59	-1727.52	  366.56
     56.0700	  718.00	  660.40	-1685.32	  366.60
     56.1700	  629.00	  716.33	-1830.26	  366.64
     56.2700	  753.00	  802.62	-1792.54	  366.68
     56.3700	  799.00	  930.92	-1874.85	  366.72
     56.4700	 1046.00	 1111.54	-1808.47	  366.77
     56.5700	 1320.00	 1348.91	-1771.84	  366.81
     56.6700	 1609.00	 1636.29	-1770.22	  366.86
     56.7700	 1939.00	 1950.37	-1754.30	  366.90
     56.8700	 2219.00	 2246.28	-1770.21	  366.95
     56.9700	 2429.00	 2458.52	-1772.45	  367.00
     57.0700	 2499.00	 2521.46	-1765.39	  367.06
     57.1700	 2388.00	 2411.75	-1766.68	  367.11
     57.2700	 2210.00	 2168.92	-1701.85	  367.16
     57.3700	 1824.00	 1863.38	-1782.31	  367.22
     57.4700	 1538.00	 1556.14	-1761.07	  367.28
     57.5700	 1201.00	 1285.47	-1827.39	  367.33
     57.6700	 1060.00	 1069.15	-1752.08	  367.39
     57.7700	  896.00	  910.35	-1757.28	  367.45
     57.8700	  786.00	  802.85	-1759.77	  367.52
     57.9700	  763.00	  736.47	-1716.40	  367.58
     58.0700	  695.00	  701.15	-1749.08	  367.65
     58.1700	  746.00	  689.24	-1686.16	  367.71
     58.2700	  678.00	  696.12	-1761.05	  367.78
     58.3700	  747.00	  719.55	-1715.48	  367.85
     58.4700	  750.00	  758.54	-1751.47	  367.92
     58.5700	  828.00	  811.85	-1726.78	  367.99
     58.6700	  896.00	  876.61	-1723.54	  368.06
     58.7700	  985.00	  947.24	-1705.17	  368.13
     58.8700	 1122.00	 1015.97	-1636.90	  368.21
     58.9700	 1143.00	 1075.98	-1675.91	  368.28
     59.0700	 1238.00	 1123.39	-1628.32	  368.36
     59.1700	 1282.00	 1155.04	-1615.97	  368.44
     59.2700	 1291.00	 1166.91	-1618.84	  368.52
     59.3700	 1291.00	 1158.97	-1610.90	  368.60
     59.4700	 1282.00	 1139.52	-1600.45	  368.68
     59.5700	 1235.00	 1121.22	-1629.15	  368.76
     59.6700	 1193.00	 1114.05	-1663.98	  368.85
     59.7700	 1182.00	 1123.39	-1684.31	  368.93
     59.8700	 1275.00	 1152.29	-1620.21	  369.02
     59.9700	 1222.00	 1203.37	-1724.30	  369.10
     60.0700	 1299.00	 1276.01	-1719.94	  369.19
     60.1700	 1427.00	 1361.94	-1677.87	  369.28
     60.2700	 1516.00	 1442.90	-1669.82	  369.37
     60.3700	 1590.00	 1492.47	-1645.40	  369.46
     60.4700	 1599.00	 1486.09	-1630.01	  369.55
     60.5700	 1458.00	 1416.75	-1701.68	  369.64
     60.6700	 1341.00	 1300.27	-1702.20	  369.74
     60.7700	 1198.00	 1162.72	-1707.65	  369.83
     60.8700	  985.00	 1026.82	-1784.75	  369.93
     60.9700	  913.00	  907.36	-1737.29	  370.02
     61.0700	  803.00	  812.11	-1752.04	  370.12
     61.1700	  749.00	  743.45	-1737.38	  370.22
     61.2700	  687.00	  700.58	-1756.51	  370.32
     61.3700	  691.00	  681.53	-1733.46	  370.41
     61.4700	  647.00	  684.76	-1780.69	  370.52
     61.5700	  703.00	  710.06	-1749.99	  370.62
     61.6700	  739.00	  758.26	-1762.19	  370.72
     61.7700	  829.00	  830.14	-1744.07	  370.82
     61.8700	  965.00	  924.70	-1702.63	  370.92
     61.9700	  990.00	 1037.39	-1790.32	  371.03
     62.0700	 1084.00	 1158.33	-1817.26	  371.13
     62.1700	 1265.00	 1271.11	-1749.03	  371.24
     62.2700	 1286.00	 1353.22	-1810.15	  371.35
     62.3700	 1268.00	 1382.25	-1857.18	  371.45
     62.4700	 1270.00	 1348.33	-1821.26	  371.56
     62.5700	 1137.00	 1261.59	-1867.51	  371.67
     62.6700	 1102.00	 1144.59	-1785.52	  371.78
     62.7700	  953.00	 1019.67	-1809.59	  371.89
     62.8700	  821.00	  902.87	-1824.80	  372.00
     62.9700	  804.00	  803.33	-1742.26	  372.11
     63.0700	  640.00	  724.87	-1827.80	  372.22
     63.1700	  608.00	  667.04	-1801.97	  372.33
     63.2700	  640.00	  627.00	-1729.93	  372.45
     63.3700	  568.00	  600.91	-1775.84	  372.56
     63.4700	  587.00	  585.06	-1740.99	  372.67
     63.5700	  601.00	  576.64	-1718.57	  372.79
     63.6700	  559.00	  573.92	-1757.85	  372.90
     63.7700	  584.00	  576.31	-1735.23	  373.02
     63.8700	  610.00	  584.14	-1717.07	  373.13
     63.9700	  653.00	  598.44	-1688.37	  373.25
     64.0700	  693.00	  620.64	-1670.57	  373.37
     64.1700	  728.00	  651.87	-1666.80	  373.49
     64.2700	  735.00	  692.81	-1700.74	  373.60
     64.3700	  769.00	  742.77	-1716.70	  373.72
     64.4700	  831.00	  799.21	-1711.14	  373.84
     64.5700	  902.00	  857.15	-1698.08	  373.96
     64.6700	  959.00	  909.03	-1692.96	  374.08
     64.7700	  982.00	  945.84	-1706.77	  374.20
     64.8700	 1026.00	  960.47	-1677.40	  374.32
     64.9700	  979.00	  950.48	-1714.41	  374.44
     65.0700	  959.00	  919.57	-1703.50	  374.56
     65.1700	  912.00	  874.97	-1705.90	  374.68
     65.2700	  841.00	  824.87	-1726.80	  374.80
     65.3700	  759.00	  775.51	-1759.44	  374.92
     65.4700	  726.00	  731.90	-1748.83	  375.04
     65.5700	  677.00	  695.00	-1760.93	  375.17
     65.6700	  656.00	  664.50	-1751.43	  375.29
     65.7700	  623.00	  639.45	-1759.38	  375.41
     65.8700	  616.00	  619.13	-1746.06	  375.53
     65.9700	  581.00	  603.01	-1764.94	  375.66
     66.0700	  583.00	  590.82	-1750.75	  375.78
     66.1700	  562.00	  581.89	-1762.82	  375.90
     66.2700	  559.00	  575.76	-1759.69	  376.03
     66.3700	  589.00	  572.23	-1726.15	  376.15
     66.4700	  548.00	  571.04	-1765.97	  376.27
     66.5700	  521.00	  572.05	-1793.98	  376.40
     66.6700	  583.00	  575.26	-1735.19	  376.52
     66.7700	  568.00	  580.92	-1755.85	  376.64
     66.8700	  605.00	  589.76	-1727.69	  376.77
     66.9700	  616.00	  602.87	-1729.80	  376.89
     67.0700	  610.00	  622.51	-1755.43	  377.02
     67.1700	  652.00	  651.97	-1742.90	  377.14
     67.2700	  652.00	  695.94	-1786.87	  377.26
     67.3700	  751.00	  760.30	-1752.23	  377.39
     67.4700	  788.00	  851.60	-1806.53	  377.51
     67.5700	  972.00	  975.94	-1746.86	  377.64
     67.6700	 1161.00	 1137.25	-1719.18	  377.76
     67.7700	 1431.00	 1335.29	-1647.22	  377.88
     67.8700	 1495.00	 1563.39	-1811.32	  378.01
     67.9700	 1824.00	 1806.91	-1725.84	  378.13
     68.0700	 2017.00	 2041.69	-1767.62	  378.25
     68.1700	 2233.00	 2234.02	-1743.95	  378.38
     68.2700	 2313.00	 2345.94	-1775.87	  378.50
     68.3700	 2307.00	 2349.86	-1785.79	  378.62
     68.4700	 2278.00	 2244.79	-1709.72	  378.75
     68.5700	 2042.00	 2056.95	-1757.88	  378.87
     68.6700	 1851.00	 1824.12	-1716.05	  378.99
     68.7700	 1608.00	 1580.68	-1715.61	  379.11
     68.8700	 1363.00	 1351.47	-1731.40	  379.24
     68.9700	 1128.00	 1151.76	-1766.69	  379.36
     69.0700	  963.00	  988.52	-1768.44	  379.48
     69.1700	  843.00	  862.36	-1762.28	  379.60
     69.2700	  721.00	  769.59	-1791.52	  379.72
     69.3700	  672.00	  704.19	-1775.12	  379.84
     69.4700	  666.00	  659.58	-1736.51	  379.96
     69.5700	  676.00	  629.77	-1696.70	  380.08
     69.6700	  569.00	  609.97	-1783.90	  380.20
     69.7700	  643.00	  596.73	-1696.66	  380.32
     69.8700	  572.00	  587.75	-1758.68	  380.44
     69.9700	  583.00	  581.54	-1741.47	  380.56
     70.0700	  574.00	  577.10	-1746.03	  380.68
     70.1700	  576.00	  574.29	-1741.22	  380.80
     70.2700	  538.00	  572.72	-1777.65	  380.91
     70.3700	  599.00	  572.26	-1716.19	  381.03
     70.4700	  600.00	  572.95	-1715.88	  381.15
     70.5700	  613.00	  574.98	-1704.90	  381.26
     70.6700	  578.00	  579.62	-1744.55	  381.38
     70.7700	  548.00	  585.64	-1780.57	  381.49
     70.8700	  638.00	  595.03	-1699.96	  381.61
     70.9700	  635.00	  609.42	-1717.34	  381.72
     71.0700	  675.00	  631.13	-1699.05	  381.83
     71.1700	  676.00	  663.27	-1730.20	  381.95
     71.2700	  698.00	  709.61	-1754.54	  382.06
     71.3700	  750.00	  774.21	-1767.14	  382.17
     71.4700	  842.00	  860.75	-1761.68	  382.28
     71.5700	  935.00	  971.61	-1779.54	  382.39
     71.6700	 1077.00	 1106.73	-1772.66	  382.50
     71.7700	 1275.00	 1262.48	-1730.41	  382.61
     71.8700	 1318.00	 1430.72	-1855.64	  382.72
     71.9700	 1579.00	 1597.98	-1761.91	  382.83
     72.0700	 1758.00	 1745.31	-1730.24	  382.93
     72.1700	 1789.00	 1849.78	-1803.71	  383.04
     72.2700	 1845.00	 1890.44	-1788.37	  383.15
     72.3700	 1739.00	 1857.84	-1861.77	  383.25
     72.4700	 1769.00	 1759.59	-1733.52	  383.36
     72.5700	 1651.00	 1615.78	-1707.70	  383.46
     72.6700	 1414.00	 1449.48	-1778.41	  383.56
     72.7700	 1379.00	 1280.29	-1644.22	  383.66
     72.8700	 1196.00	 1122.22	-1669.15	  383.77
     72.9700	  974.00	  983.91	-1752.84	  383.87
     73.0700	  863.00	  869.37	-1749.30	  383.97
     73.1700	  871.00	  778.95	-1650.88	  384.06
     73.2700	  788.00	  710.55	-1665.48	  384.16
     73.3700	  667.00	  660.62	-1736.55	  384.26
     73.4700	  693.00	  625.18	-1675.10	  384.36
     73.5700	  639.00	  600.44	-1704.37	  384.45
     73.6700	  580.00	  583.28	-1746.21	  384.55
     73.7700	  639.00	  571.30	-1675.23	  384.64
     73.8700	  639.00	  562.82	-1666.75	  384.73
     73.9700	  540.00	  556.73	-1759.66	  384.82
     74.0700	  570.00	  551.80	-1724.73	  384.92
     74.1700	  556.00	  548.64	-1735.57	  385.01
     74.2700	  557.00	  546.43	-1732.36	  385.09
     74.3700	  575.00	  544.96	-1712.89	  385.18
     74.4700	  603.00	  544.06	-1683.99	  385.27
     74.5700	  606.00	  543.52	-1680.45	  385.35
     74.6700	  588.00	  543.14	-1698.07	  385.44
     74.7700	  609.00	  542.70	-1676.63	  385.52
     74.8700	  584.00	  542.00	-1700.93	  385.61
     74.9700	  662.00	  540.93	-1621.86	  385.69
     75.0700	  614.00	  539.54	-1668.47	  385.77
     75.1700	  618.00	  538.03	-1662.96	  385.85
     75.2700	  588.00	  536.67	-1691.60	  385.93
     75.3700	  581.00	  535.75	-1697.68	  386.01
     75.4700	  633.00	  535.62	-1645.55	  386.08
     75.5700	  596.00	  536.63	-1683.56	  386.16
     75.6700	  608.00	  539.19	-1674.12	  386.23
     75.7700	  578.00	  543.70	-1708.63	  386.30
     75.8700	  557.00	  550.60	-1736.52	  386.38
     75.9700	  541.00	  560.22	-1762.14	  386.45
     76.0700	  623.00	  572.71	-1692.64	  386.52
     76.1700	  600.00	  588.14	-1731.07	  386.59
     76.2700	  581.00	  606.09	-1768.02	  386.65
     76.3700	  623.00	  625.75	-1745.68	  386.72
     76.4700	  683.00	  645.84	-1705.77	  386.78
     76.5700	  655.00	  664.55	-1752.48	  386.85
     76.6700	  728.00	  679.51	-1694.44	  386.91
     76.7700	  694.00	  688.53	-1737.46	  386.97
     76.8700	  710.00	  689.78	-1722.70	  387.03
     76.9700	  695.00	  682.93	-1730.86	  387.09
     77.0700	  678.00	  669.28	-1734.21	  387.15
     77.1700	  665.00	  651.08	-1729.01	  387.20
     77.2700	  644.00	  630.68	-1729.60	  387.26
     77.3700	  542.00	  610.05	-1810.98	  387.31
     77.4700	  558.00	  590.67	-1775.60	  387.36
     77.5700	  589.00	  573.47	-1727.40	  387.41
     77.6700	  529.00	  558.93	-1772.86	  387.46
     77.7700	  520.00	  547.12	-1770.05	  387.51
     77.8700	  541.00	  537.99	-1739.92	  387.56
     77.9700	  505.00	  531.13	-1769.06	  387.60
     78.0700	  524.00	  526.14	-1745.07	  387.64
     78.1700	  447.00	  522.37	-1818.30	  387.69
     78.2700	  519.00	  519.88	-1743.81	  387.73
     78.3700	  502.00	  518.15	-1759.08	  387.77
     78.4700	  501.00	  516.95	-1758.88	  387.80
     78.5700	  518.00	  516.11	-1741.04	  387.84
     78.6700	  499.00	  515.53	-1759.46	  387.88
     78.7700	  466.00	  515.15	-1792.08	  387.91
     78.8700	  475.00	  514.92	-1782.85	  387.94
     78.9700	  525.00	  514.84	-1732.77	  387.97
     79.0700	  475.00	  514.91	-1782.84	  388.00
     79.1700	  528.00	  515.13	-1730.06	  388.03
     79.2700	  477.00	  515.54	-1781.47	  388.06
     79.3700	  503.00	  516.17	-1756.10	  388.08
     79.4700	  498.00	  517.05	-1761.98	  388.10
     79.5700	  520.00	  518.23	-1741.15	  388.13
     79.6700	  541.00	  519.76	-1721.69	  388.15
     79.7700	  509.00	  521.70	-1755.63	  388.16
     79.8700	  505.00	  524.14	-1762.07	  388.18
     79.9700	  526.00	  527.17	-1744.09	  388.20
     80.0700	  550.00	  530.88	-1723.81	  388.21
     80.1700	  547.00	  535.40	-1731.33	  388.22
     80.2700	  525.00	  540.86	-1758.79	  388.23
     80.3700	  499.00	  547.40	-1791.32	  388.24
     80.4700	  522.00	  555.18	-1776.11	  388.25
     80.5700	  555.00	  564.38	-1752.31	  388.26
     80.6700	  585.00	  575.14	-1733.06	  388.26
     80.7700	  575.00	  587.23	-1755.16	  388.26
     80.8700	  593.00	  600.89	-1750.82	  388.26
     80.9700	  632.00	  615.43	-1726.36	  388.26
     81.0700	  641.00	  630.14	-1732.07	  388.26
     81.1700	  613.00	  644.13	-1774.06	  388.26
     81.2700	  681.00	  656.48	-1718.41	  388.25
     81.3700	  665.00	  666.46	-1744.39	  388.24
     81.4700	  788.00	  673.54	-1628.47	  388.24
     81.5700	  683.00	  677.42	-1737.34	  388.22
     81.6700	  746.00	  678.04	-1674.97	  388.21
     81.7700	  713.00	  675.58	-1705.51	  388.20
     81.8700	  741.00	  670.30	-1672.22	  388.18
     81.9700	  672.00	  662.47	-1733.40	  388.16
     82.0700	  710.00	  652.48	-1685.41	  388.15
     82.1700	  691.00	  640.87	-1692.80	  388.12
     82.2700	  676.00	  628.33	-1695.26	  388.10
     82.3700	  638.00	  615.52	-1720.45	  388.08
     82.4700	  618.00	  602.95	-1727.88	  388.05
     82.5700	  583.00	  590.94	-1750.87	  388.02
     82.6700	  579.00	  579.71	-1743.64	  387.99
     82.7700	  544.00	  569.48	-1768.41	  387.96
     82.8700	  570.00	  560.46	-1733.39	  387.93
     82.9700	  535.00	  552.84	-1760.77	  387.89
     83.0700	  524.00	  546.77	-1765.70	  387.86
     83.1700	  532.00	  542.30	-1753.23	  387.82
     83.2700	  509.00	  539.47	-1773.40	  387.78
     83.3700	  537.00	  538.21	-1744.14	  387.73
     83.4700	  543.00	  538.44	-1738.37	  387.69
     83.5700	  579.00	  540.00	-1703.93	  387.64
     83.6700	  545.00	  542.66	-1740.59	  387.60
     83.7700	  583.00	  546.11	-1706.04	  387.55
     83.8700	  509.00	  549.99	-1783.92	  387.50
     83.9700	  548.00	  553.85	-1748.78	  387.44
     84.0700	  500.00	  557.10	-1800.03	  387.39
     84.1700	  564.00	  559.37	-1738.30	  387.33
     84.2700	  553.00	  560.11	-1750.03	  387.27
     84.3700	  503.00	  559.17	-1799.10	  387.21
     84.4700	  557.00	  556.60	-1742.53	  387.15
     84.5700	  571.00	  552.71	-1724.64	  387.09
     84.6700	  527.00	  547.96	-1763.88	  387.02
     84.7700	  542.00	  542.78	-1743.71	  386.95
     84.8700	  526.00	  537.57	-1754.50	  386.88
     84.9700	  499.00	  532.62	-1776.55	  386.81
     85.0700	  511.00	  528.15	-1760.07	  386.74
     85.1700	  472.00	  524.27	-1795.20	  386.66
     85.2700	  473.00	  521.05	-1790.98	  386.58
     85.3700	  514.00	  518.49	-1747.42	  386.51
     85.4700	  566.00	  516.52	-1693.45	  386.42
     85.5700	  511.00	  515.11	-1747.04	  386.34
     85.6700	  526.00	  514.17	-1731.10	  386.26
     85.7700	  453.00	  513.64	-1803.57	  386.17
     85.8700	  562.00	  513.48	-1694.40	  386.08
     85.9700	  504.00	  513.66	-1752.59	  385.99
     86.0700	  534.00	  514.21	-1723.14	  385.90
     86.1700	  544.00	  515.18	-1714.11	  385.80
     86.2700	  498.00	  516.65	-1761.58	  385.71
     86.3700	  548.00	  518.74	-1713.67	  385.61
     86.4700	  524.00	  521.59	-1740.52	  385.51
     86.5700	  552.00	  525.34	-1716.27	  385.41
     86.6700	  528.00	  530.16	-1745.09	  385.30
     86.7700	  524.00	  536.15	-1755.07	  385.20
     86.8700	  528.00	  543.37	-1758.30	  385.09
     86.9700	  527.00	  551.82	-1767.75	  384.98
     87.0700	  546.00	  561.36	-1758.29	  384.87
     87.1700	  533.00	  571.75	-1781.68	  384.76
     87.2700	  577.00	  582.59	-1748.52	  384.64
     87.3700	  591.00	  593.34	-1745.27	  384.53
     87.4700	  601.00	  603.29	-1745.21	  384.41
     87.5700	  649.00	  611.62	-1705.55	  384.29
     87.6700	  615.00	  617.51	-1745.43	  384.16
     87.7700	  654.00	  620.27	-1709.20	  384.04
     87.8700	  627.00	  619.62	-1735.55	  383.91
     87.9700	  606.00	  615.75	-1752.68	  383.78
     88.0700	  580.00	  609.30	-1772.23	  383.65
     88.1700	  560.00	  601.13	-1784.06	  383.52
     88.2700	  565.00	  592.15	-1770.08	  383.39
     88.3700	  559.00	  583.20	-1767.13	  383.25
     88.4700	  549.00	  574.97	-1768.90	  383.11
     88.5700	  575.00	  568.02	-1735.95	  382.97
     88.6700	  556.00	  562.30	-1749.23	  382.83
     88.7700	  527.00	  558.88	-1774.81	  382.69
     88.8700	  551.00	  557.39	-1749.32	  382.54
     88.9700	  572.00	  557.73	-1728.66	  382.39
     89.0700	  582.00	  559.67	-1720.60	  382.25
     89.1700	  595.00	  562.84	-1710.77	  382.09
     89.2700	  557.00	  566.78	-1752.71	  381.94
     89.3700	  610.00	  570.96	-1703.89	  381.79
     89.4700	  596.00	  574.76	-1721.69	  381.63
     89.5700	  581.00	  577.59	-1739.52	  381.47
     89.6700	  598.00	  578.92	-1723.85	  381.31
     89.7700	  579.00	  578.41	-1742.34	  381.15
     89.8700	  602.00	  576.03	-1716.95	  380.98
     89.9700	  530.00	  571.97	-1784.90	  380.82
     90.0700	  564.00	  566.67	-1745.60	  380.65
     90.1700	  575.00	  560.57	-1728.50	  380.48
     90.2700	  541.00	  554.13	-1756.06	  380.31
     90.3700	  518.00	  547.74	-1772.67	  380.13
     90.4700	  545.00	  541.68	-1739.61	  379.96
     90.5700	  513.00	  536.19	-1766.11	  379.78
     90.6700	  511.00	  531.39	-1763.32	  379.60
     90.7700	  501.00	  527.35	-1769.28	  379.42
     90.8700	  516.00	  524.10	-1751.03	  379.24
     90.9700	  549.00	  521.60	-1715.53	  379.06
     91.0700	  508.00	  519.79	-1754.72	  378.87
     91.1700	  496.00	  518.61	-1765.53	  378.68
     91.2700	  510.00	  517.99	-1750.91	  378.49
     91.3700	  512.00	  517.88	-1748.81	  378.30
     91.4700	  497.00	  518.27	-1764.20	  378.11
     91.5700	  491.00	  519.17	-1771.10	  377.91
     91.6700	  471.00	  520.61	-1792.54	  377.71
     91.7700	  488.00	  522.68	-1777.61	  377.52
     91.8700	  519.00	  525.48	-1749.41	  377.32
     91.9700	  506.00	  529.16	-1766.09	  377.11
     92.0700	  520.00	  533.88	-1756.81	  376.91
     92.1700	  499.00	  539.79	-1783.72	  376.70
     92.2700	  464.00	  547.07	-1826.00	  376.50
     92.3700	  563.00	  555.83	-1735.76	  376.29
     92.4700	  555.00	  566.17	-1754.10	  376.08
     92.5700	  569.00	  578.10	-1752.02	  375.86
     92.6700	  571.00	  591.56	-1763.49	  375.65
     92.7700	  593.00	  606.41	-1756.34	  375.43
     92.8700	  645.00	  622.39	-1720.32	  375.22
     92.9700	  627.00	  639.12	-1755.05	  375.00
     93.0700	  620.00	  656.12	-1779.05	  374.78
     93.1700	  653.00	  672.81	-1762.74	  374.55
     93.2700	  672.00	  688.60	-1759.53	  374.33
     93.3700	  703.00	  703.00	-1742.93	  374.10
     93.4700	  708.00	  715.75	-1750.68	  373.88
     93.5700	  709.00	  726.98	-1760.91	  373.65
     93.6700	  782.00	  737.11	-1698.04	  373.42
     93.7700	  735.00	  746.72	-1754.65	  373.18
     93.8700	  775.00	  756.37	-1724.30	  372.95
     93.9700	  816.00	  766.20	-1693.12	  372.71
     94.0700	  778.00	  777.04	-1741.96	  372.48
     94.1700	  826.00	  788.66	-1705.59	  372.24
     94.2700	  851.00	  801.08	-1693.00	  372.00
     94.3700	  832.00	  814.26	-1725.19	  371.76
     94.4700	  835.00	  828.16	-1736.09	  371.51
     94.5700	  808.00	  842.57	-1777.50	  371.27
     94.6700	  841.00	  857.06	-1758.99	  371.02
     94.7700	  892.00	  870.81	-1721.74	  370.78
     94.8700	  877.00	  882.71	-1748.64	  370.53
     94.9700	  914.00	  891.35	-1720.28	  370.28
     95.0700	  916.00	  895.30	-1722.23	  370.02
     95.1700	  935.00	  893.35	-1701.28	  369.77
     95.2700	  851.00	  884.94	-1776.87	  369.52
     95.3700	  893.00	  870.32	-1720.25	  369.26
     95.4700	  897.00	  850.51	-1696.44	  369.00
     95.5700	  804.00	  827.08	-1766.01	  368.74
     95.6700	  777.00	  801.82	-1767.75	  368.48
     95.7700	  821.00	  776.55	-1698.48	  368.22
     95.8700	  733.00	  752.94	-1762.87	  367.96
     95.9700	  766.00	  732.56	-1709.49	  367.69
     96.0700	  712.00	  716.78	-1747.71	  367.43
     96.1700	  717.00	  706.81	-1732.74	  367.16
     96.2700	  687.00	  703.72	-1759.65	  366.89
     96.3700	  690.00	  708.40	-1761.33	  366.62
     96.4700	  671.00	  721.58	-1793.51	  366.35
     96.5700	  753.00	  743.76	-1733.69	  366.08
     96.6700	  785.00	  775.25	-1733.18	  365.81
     96.7700	  780.00	  816.06	-1778.99	  365.53
     96.8700	  874.00	  865.88	-1734.80	  365.26
     96.9700	  904.00	  923.96	-1762.89	  364.98
     97.0700	 1009.00	  989.11	-1723.04	  364.70
     97.1700	 1021.00	 1059.60	-1781.53	  364.42
     97.2700	 1125.00	 1133.16	-1751.09	  364.14
     97.3700	 1187.00	 1206.93	-1762.85	  363.86
     97.4700	 1251.00	 1277.46	-1769.38	  363.58
     97.5700	 1300.00	 1340.84	-1783.77	  363.29
     97.6700	 1378.00	 1392.94	-1757.87	  363.01
     97.7700	 1382.00	 1429.91	-1790.84	  362.72
     97.8700	 1438.00	 1448.82	-1753.75	  362.44
     97.9700	 1403.00	 1448.31	-1788.24	  362.15
     98.0700	 1376.00	 1428.95	-1795.87	  361.86
     98.1700	 1405.00	 1393.00	-1730.93	  361.57
     98.2700	 1357.00	 1343.89	-1729.82	  361.28
     98.3700	 1291.00	 1285.56	-1737.49	  360.99
     98.4700	 1176.00	 1221.99	-1788.92	  360.70
     98.5700	 1173.00	 1156.90	-1726.82	  360.40
     98.6700	 1108.00	 1093.58	-1728.51	  360.11
     98.7700	 1025.00	 1034.83	-1752.76	  359.82
     98.8700	  963.00	  982.99	-1762.92	  359.52
     98.9700	  884.00	  939.95	-1798.88	  359.22
     99.0700	  931.00	  907.20	-1719.13	  358.93
     99.1700	  854.00	  885.89	-1774.82	  358.63
     99.2700	  895.00	  876.84	-1724.76	  358.33
     99.3700	  884.00	  880.58	-1739.51	  358.03
     99.4700	  880.00	  897.38	-1760.31	  357.73
     99.5700	  930.00	  927.25	-1740.18	  357.43
     99.6700	  964.00	  969.93	-1748.86	  357.13
     99.7700	 1047.00	 1024.84	-1720.77	  356.82
     99.8700	 1106.00	 1091.12	-1728.05	  356.52
     99.9700	 1178.00	 1167.51	-1732.44	  356.22
    100.0700	 1265.00	 1252.34	-1730.27	  355.91
    100.1700	 1381.00	 1343.45	-1705.38	  355.61
    100.2700	 1408.00	 1438.10	-1773.03	  355.30
    100.3700	 1530.00	 1533.20	-1746.13	  355.00
    100.4700	 1650.00	 1625.16	-1718.09	  354.69
    100.5700	 1749.00	 1710.44	-1704.37	  354.39
    100.6700	 1763.00	 1785.84	-1765.77	  354.08
    100.7700	 1865.00	 1848.86	-1726.79	  353.77
    100.8700	 1907.00	 1897.85	-1733.78	  353.46
    100.9700	 1979.00	 1931.86	-1695.79	  353.16
    101.0700	 1922.00	 1950.30	-1771.23	  352.85
    101.1700	 1950.00	 1952.74	-1745.67	  352.54
    101.2700	 1993.00	 1938.88	-1688.81	  352.23
    101.3700	 1947.00	 1908.91	-1704.84	  351.92
    101.4700	 1878.00	 1863.90	-1728.83	  351.61
    101.5700	 1889.00	 1806.03	-1659.96	  351.30
    101.6700	 1705.00	 1738.54	-1776.47	  350.99
    101.7700	 1633.00	 1665.29	-1775.22	  350.68
    101.8700	 1536.00	 1590.20	-1797.13	  350.37
    101.9700	 1525.00	 1516.81	-1734.74	  350.06
    102.0700	 1474.00	 1447.96	-1716.89	  349.75
    102.1700	 1377.00	 1385.65	-1751.58	  349.44
    102.2700	 1320.00	 1331.09	-1754.02	  349.13
    102.3700	 1274.00	 1284.67	-1753.60	  348.82
    102.4700	 1257.00	 1246.03	-1731.96	  348.51
    102.5700	 1206.00	 1214.13	-1751.06	  348.20
    102.6700	 1098.00	 1187.39	-1832.32	  347.89
    102.7700	 1185.00	 1163.83	-1721.76	  347.58
    102.8700	 1113.00	 1141.30	-1771.22	  347.27
    102.9700	 1084.00	 1117.75	-1776.67	  346.96
    103.0700	 1136.00	 1091.55	-1698.48	  346.65
    103.1700	 1051.00	 1061.73	-1753.66	  346.34
    103.2700	 1073.00	 1028.08	-1698.01	  346.03
    103.3700	  959.00	  990.98	-1774.90	  345.73
    103.4700	  918.00	  951.26	-1776.18	  345.42
    103.5700	  910.00	  909.96	-1742.89	  345.11
    103.6700	  887.00	  868.17	-1724.10	  344.80
    103.7700	  850.00	  826.91	-1719.83	  344.49
    103.8700	  814.00	  787.05	-1715.98	  344.19
    103.9700	  788.00	  749.36	-1704.29	  343.88
    104.0700	  723.00	  714.43	-1734.36	  343.58
    104.1700	  678.00	  682.66	-1747.59	  343.27
    104.2700	  674.00	  654.30	-1723.23	  342.97
    104.3700	  595.00	  629.45	-1777.38	  342.66
    104.4700	  612.00	  608.07	-1739.00	  342.36
    104.5700	  587.00	  590.01	-1745.94	  342.06
    104.6700	  651.00	  575.02	-1666.95	  341.76
    104.7700	  544.00	  562.82	-1761.75	  341.46
    104.8700	  591.00	  553.10	-1705.03	  341.16
    104.9700	  534.00	  545.53	-1754.46	  340.86
    105.0700	  535.00	  539.81	-1747.74	  340.56
    105.1700	  547.00	  535.66	-1731.59	  340.26
    105.2700	  550.00	  532.84	-1725.77	  339.97
    105.3700	  546.00	  531.15	-1728.08	  339.67
    105.4700	  550.00	  530.44	-1723.36	  339.38
    105.5700	  542.00	  530.58	-1731.51	  339.08
    105.6700	  520.00	  531.49	-1754.41	  338.79
    105.7700	  559.00	  533.11	-1717.04	  338.50
    105.8700	  513.00	  535.42	-1765.35	  338.21
    105.9700	  554.00	  538.41	-1727.33	  337.92
    106.0700	  546.00	  542.10	-1739.03	  337.63
    106.1700	  536.00	  546.54	-1753.47	  337.35
    106.2700	  528.00	  551.75	-1766.67	  337.06
    106.3700	  540.00	  557.76	-1760.69	  336.78
    106.4700	  543.00	  564.60	-1764.53	  336.49
    106.5700	  577.00	  572.26	-1738.18	  336.21
    106.6700	  589.00	  580.67	-1734.60	  335.93
    106.7700	  599.00	  589.75	-1733.68	  335.66
    106.8700	  584.00	  599.33	-1758.26	  335.38
    106.9700	  607.00	  609.22	-1745.15	  335.11
    107.0700	  579.00	  619.17	-1783.10	  334.83
    107.1700	  603.00	  628.87	-1768.80	  334.56
    107.2700	  658.00	  638.02	-1722.95	  334.29
    107.3700	  624.00	  646.26	-1765.19	  334.02
    107.4700	  668.00	  653.27	-1728.20	  333.76
    107.5700	  654.00	  658.83	-1747.76	  333.49
    107.6700	  650.00	  662.78	-1755.71	  333.23
    107.7700	  660.00	  665.15	-1748.08	  332.97
    107.8700	  680.00	  666.10	-1729.03	  332.71
    107.9700	  674.00	  665.94	-1734.87	  332.45
    108.0700	  683.00	  665.05	-1724.98	  332.20
    108.1700	  661.00	  663.84	-1745.77	  331.94
    108.2700	  649.00	  662.68	-1756.61	  331.69
    108.3700	  726.00	  661.89	-1678.81	  331.45
    108.4700	  655.00	  661.69	-1749.62	  331.20
    108.5700	  667.00	  662.24	-1738.17	  330.95
    108.6700	  662.00	  663.56	-1744.49	  330.71
    108.7700	  686.00	  665.59	-1722.51	  330.47
    108.8700	  627.00	  668.15	-1784.08	  330.24
    108.9700	  681.00	  670.99	-1732.92	  330.00
    109.0700	  680.00	  673.77	-1736.70	  329.77
    109.1700	  710.00	  676.08	-1709.00	  329.54
    109.2700	  704.00	  677.49	-1716.41	  329.31
    109.3700	  669.00	  677.60	-1751.53	  329.09
    109.4700	  678.00	  676.10	-1741.03	  328.87
    109.5700	  660.00	  672.79	-1755.71	  328.65
    109.6700	  684.00	  667.62	-1726.55	  328.43
    109.7700	  638.00	  660.73	-1765.66	  328.22
    109.8700	  646.00	  652.34	-1749.27	  328.01
    109.9700	  670.00	  642.77	-1715.69	  327.80
    110.0700	  639.00	  632.37	-1736.30	  327.59
    110.1700	  634.00	  621.50	-1730.43	  327.39
    110.2700	  693.00	  610.49	-1660.42	  327.19
    110.3700	  610.00	  599.63	-1732.56	  327.00
    110.4700	  603.00	  589.18	-1729.10	  326.81
    110.5700	  604.00	  579.36	-1718.29	  326.62
    110.6700	  566.00	  570.33	-1747.26	  326.43
    110.7700	  579.00	  562.22	-1726.15	  326.25
    110.8700	  549.00	  555.11	-1749.04	  326.07
    110.9700	  547.00	  549.03	-1744.96	  325.89
    111.0700	  514.00	  543.99	-1772.92	  325.72
    111.1700	  583.00	  539.97	-1699.90	  325.55
    111.2700	  567.00	  536.91	-1712.84	  325.38
    111.3700	  552.00	  534.76	-1725.69	  325.22
    111.4700	  534.00	  533.42	-1742.35	  325.06
    111.5700	  510.00	  532.83	-1765.75	  324.91
    111.6700	  549.00	  532.88	-1726.81	  324.76
    111.7700	  536.00	  533.49	-1740.42	  324.61
    111.8700	  573.00	  534.59	-1704.52	  324.47
    111.9700	  551.00	  536.10	-1728.03	  324.33
    112.0700	  568.00	  537.96	-1712.89	  324.19
    112.1700	  525.00	  540.11	-1758.04	  324.06
    112.2700	  518.00	  542.52	-1767.45	  323.93
    112.3700	  566.00	  545.16	-1722.09	  323.81
    112.4700	  541.00	  548.03	-1749.96	  323.69
    112.5700	  554.00	  551.13	-1740.06	  323.58
    112.6700	  559.00	  554.48	-1738.41	  323.46
    112.7700	  556.00	  558.12	-1745.05	  323.36
    112.8700	  575.00	  562.10	-1730.02	  323.26
    112.9700	  584.00	  566.48	-1725.41	  323.16
    113.0700	  572.00	  571.36	-1742.29	  323.07
    113.1700	  547.00	  576.83	-1772.76	  322.98
    113.2700	  598.00	  583.03	-1727.96	  322.89
    113.3700	  584.00	  590.12	-1749.05	  322.82
    113.4700	  589.00	  598.32	-1752.25	  322.74
    113.5700	  644.00	  607.90	-1706.83	  322.67
    113.6700	  610.00	  619.19	-1752.12	  322.61
    113.7700	  607.00	  632.61	-1768.54	  322.55
    113.8700	  669.00	  648.70	-1722.63	  322.49
    113.9700	  654.00	  668.10	-1757.03	  322.44
    114.0700	  675.00	  691.62	-1759.55	  322.40
    114.1700	  761.00	  720.20	-1702.13	  322.36
    114.2700	  759.00	  754.98	-1738.91	  322.33
    114.3700	  796.00	  797.28	-1744.21	  322.30
    114.4700	  861.00	  848.61	-1730.54	  322.28
    114.5700	  910.00	  910.69	-1743.62	  322.26
    114.6700	 1012.00	  985.39	-1716.32	  322.25
    114.7700	 1076.00	 1074.72	-1741.65	  322.24
    114.8700	 1205.00	 1180.84	-1718.76	  322.24
    114.9700	 1415.00	 1305.84	-1633.77	  322.24
    115.0700	 1579.00	 1451.87	-1615.80	  322.25
    115.1700	 1678.00	 1620.84	-1685.77	  322.27
    115.2700	 1921.00	 1814.38	-1636.31	  322.29
    115.3700	 2168.00	 2033.81	-1608.74	  322.32
    115.4700	 2384.00	 2279.78	-1638.71	  322.35
    115.5700	 2656.00	 2552.42	-1639.35	  322.39
    115.6700	 2915.00	 2850.92	-1678.85	  322.44
    115.7700	 3177.00	 3173.55	-1739.48	  322.49
    115.8700	 3524.00	 3517.77	-1736.69	  322.55
    115.9700	 3934.00	 3879.70	-1688.63	  322.61
    116.0700	 4178.00	 4254.60	-1819.53	  322.68
    116.1700	 4555.00	 4636.42	-1824.35	  322.76
    116.2700	 4906.00	 5018.02	-1854.95	  322.84
    116.3700	 5360.00	 5391.39	-1774.31	  322.94
    116.4700	 5682.00	 5747.32	-1808.25	  323.03
    116.5700	 6063.00	 6076.10	-1756.03	  323.14
    116.6700	 6326.00	 6367.45	-1784.38	  323.25
    116.7700	 6426.00	 6611.16	-1928.09	  323.37
    116.8700	 6681.00	 6797.91	-1859.84	  323.49
    116.9700	 6896.00	 6919.85	-1766.78	  323.62
    117.0700	 6875.00	 6971.72	-1839.64	  323.76
    117.1700	 6866.00	 6951.28	-1828.21	  323.91
    117.2700	 6805.00	 6859.81	-1797.74	  324.06
    117.3700	 6829.00	 6701.78	-1615.71	  324.22
    117.4700	 6320.00	 6484.40	-1907.32	  324.39
    117.5700	 6174.00	 6216.59	-1785.52	  324.56
    117.6700	 5930.00	 5908.37	-1721.30	  324.74
    117.7700	 5398.00	 5569.99	-1914.92	  324.93
    117.8700	 5160.00	 5211.25	-1794.17	  325.13
    117.9700	 4784.00	 4841.43	-1800.36	  325.34
    118.0700	 4427.00	 4468.72	-1784.65	  325.55
    118.1700	 4187.00	 4100.41	-1656.34	  325.77
    118.2700	 3920.00	 3742.67	-1565.59	  326.00
    118.3700	 3446.00	 3400.38	-1697.31	  326.24
    118.4700	 3176.00	 3077.51	-1644.44	  326.48
    118.5700	 2890.00	 2776.79	-1629.72	  326.74
    118.6700	 2615.00	 2500.08	-1628.01	  327.00
    118.7700	 2259.00	 2248.33	-1732.26	  327.27
    118.8700	 1982.00	 2021.61	-1782.54	  327.55
    118.9700	 1883.00	 1819.50	-1679.43	  327.83
    119.0700	 1600.00	 1640.93	-1783.86	  328.13
    119.1700	 1533.00	 1484.52	-1694.45	  328.43
    119.2700	 1352.00	 1348.62	-1739.55	  328.75
    119.3700	 1214.00	 1231.32	-1760.25	  329.07
    119.4700	 1124.00	 1130.74	-1749.67	  329.40
    119.5700	 1028.00	 1044.92	-1759.85	  329.74
    119.6700	 1025.00	  972.01	-1689.94	  330.09
    119.7700	  871.00	  910.27	-1782.20	  330.44
    119.8700	  876.00	  858.08	-1725.01	  330.81
    119.9700	  815.00	  814.03	-1741.96	  331.18
    120.0700	  738.00	  776.83	-1781.76	  331.57
    120.1700	  761.00	  745.40	-1727.33	  331.96
    120.2700	  694.00	  718.82	-1767.75	  332.37
    120.3700	  722.00	  696.30	-1717.23	  332.78
    120.4700	  638.00	  677.20	-1782.13	  333.20
    120.5700	  664.00	  660.97	-1739.90	  333.64
    120.6700	  606.00	  647.18	-1784.11	  334.08
    120.7700	  603.00	  635.47	-1775.40	  334.53
    120.8700	  561.00	  625.56	-1807.49	  335.00
    120.9700	  572.00	  617.22	-1788.15	  335.47
    121.0700	  597.00	  610.24	-1756.17	  335.95
    121.1700	  547.00	  604.49	-1800.42	  336.44
    121.2700	  597.00	  599.82	-1745.75	  336.95
    121.3700	  556.00	  596.15	-1783.08	  337.46
    121.4700	  584.00	  593.37	-1752.30	  337.99
    121.5700	  583.00	  591.42	-1751.35	  338.52
    121.6700	  535.00	  590.22	-1798.15	  339.07
    121.7700	  573.00	  589.72	-1759.65	  339.62
    121.8700	  589.00	  589.86	-1743.79	  340.19
    121.9700	  573.00	  590.58	-1760.51	  340.77
    122.0700	  600.00	  591.81	-1734.74	  341.36
    122.1700	  587.00	  593.51	-1749.44	  341.96
    122.2700	  619.00	  595.61	-1719.54	  342.57
    122.3700	  596.00	  598.03	-1744.96	  343.19
    122.4700	  624.00	  600.70	-1719.62	  343.83
    122.5700	  572.00	  603.53	-1774.46	  344.47
    122.6700	  619.00	  606.45	-1730.38	  345.13
    122.7700	  594.00	  609.37	-1758.30	  345.80
    122.8700	  619.00	  612.18	-1736.11	  346.48
    122.9700	  626.00	  614.80	-1731.73	  347.17
    123.0700	  628.00	  617.14	-1732.06	  347.87
    123.1700	  619.00	  619.11	-1743.03	  348.59
    123.2700	  625.00	  620.64	-1738.57	  349.32
    123.3700	  681.00	  621.70	-1683.63	  350.06
    123.4700	  601.00	  622.24	-1764.17	  350.81
    123.5700	  626.00	  622.27	-1739.20	  351.58
    123.6700	  575.00	  621.80	-1789.73	  352.35
    123.7700	  667.00	  620.86	-1696.79	  353.14
    123.8700	  632.00	  619.50	-1730.42	  353.95
    123.9700	  615.00	  617.77	-1745.70	  354.76
    124.0700	  652.00	  615.71	-1706.64	  355.59
    124.1700	  603.00	  613.43	-1753.36	  356.43
    124.2700	  611.00	  610.97	-1742.90	  357.28
    124.3700	  648.00	  608.38	-1703.31	  358.15
    124.4700	  672.00	  605.71	-1676.64	  359.03
    124.5700	  614.00	  603.02	-1731.95	  359.93
    124.6700	  589.00	  600.36	-1754.28	  360.83
    124.7700	  579.00	  597.75	-1761.68	  361.75
    124.8700	  574.00	  595.25	-1764.18	  362.69
    124.9700	  604.00	  471.05	-1609.98	  363.64
    125.0700	  561.00	  472.01	-1742.93	  364.60
    125.1700	  594.00	  472.99	-1742.93	  365.58
    125.2700	  554.00	  473.98	-1742.93	  366.57
    125.3700	  633.00	  474.98	-1742.93	  367.57
    125.4700	  609.00	  476.00	-1742.93	  368.59
    125.5700	  558.00	  477.03	-1742.93	  369.62
    125.6700	  573.00	  478.08	-1742.93	  370.67
    125.7700	  562.00	  479.14	-1742.93	  371.73
    125.8700	  559.00	  480.22	-1742.93	  372.80
    125.9700	  567.00	  481.31	-1742.93	  373.90
    126.0700	  518.00	  482.41	-1742.93	  375.00
    126.1700	  535.00	  483.53	-1742.93	  376.12
    126.2700	  571.00	  484.67	-1742.93	  377.26
    126.3700	  533.00	  485.82	-1742.93	  378.41
    126.4700	  502.00	  486.99	-1742.93	  379.57
    126.5700	  552.00	  488.17	-1742.93	  380.76
    126.6700	  580.00	  489.36	-1742.93	  381.95
    126.7700	  590.00	  490.58	-1742.93	  383.16
    126.8700	  600.00	  491.81	-1742.93	  384.39
    126.9700	  542.00	  493.05	-1742.93	  385.64
    127.0700	  543.00	  494.31	-1742.93	  386.90
    127.1700	  601.00	  495.58	-1742.93	  388.17
    127.2700	  608.00	  496.88	-1742.93	  389.46
    127.3700	  593.00	  498.18	-1742.93	  390.77
    127.4700	  595.00	  499.51	-1742.93	  392.10
    127.5700	  559.00	  500.85	-1742.93	  393.44
    127.6700	  546.00	  502.21	-1742.93	  394.79
    127.7700	  545.00	  503.58	-1742.93	  396.17
    127.8700	  616.00	  504.97	-1742.93	  397.56
    127.9700	  605.00	  506.38	-1742.93	  398.96
    128.0700	  627.00	  507.80	-1742.93	  400.39
    128.1700	  653.00	  509.24	-1742.93	  401.83
    128.2700	  673.00	  510.70	-1742.93	  403.29
    128.3700	  686.00	  512.18	-1742.93	  404.76
    128.4700	  719.00	  513.67	-1742.93	  406.26
    128.5700	    0.00	  515.18	-1742.93	  407.77
    128.6700	    0.00	  516.71	-1742.93	  409.30
     12.3437	        	        	        	        	       0	(  0  0  2)	  0  1
     24.9693	        	        	        	        	       0	(  0  0  4)	  0  1
     28.3956	        	        	        	        	       0	(  1  0  0)	  0  1
     29.0958	        	        	        	        	       0	(  1  0  1)	  0  1
     31.1107	        	        	        	        	       0	(  1  0  2)	  0  1
     34.2321	        	        	        	        	       0	(  1  0  3)	  0  1
     37.9142	        	        	        	        	       0	(  0  0  6)	  0  1
     38.2257	        	        	        	        	       0	(  1  0  4)	  0  1
     42.8950	        	        	        	        	       0	(  1  0  5)	  0  1
     48.1006	        	        	        	        	       0	(  1  0  6)	  0  1
     50.3905	        	        	        	        	       0	(  1  1  0)	  0  1
     51.3871	        	        	        	        	       0	(  0  0  8)	  0  1
     52.1217	        	        	        	        	       0	(  1  1  2)	  0  1
     53.7549	        	        	        	        	       0	(  1  0  7)	  0  1
     57.0931	        	        	        	        	       0	(  1  1  4)	  0  1
     58.9127	        	        	        	        	       0	(  2  0  0)	  0  1
     59.3062	        	        	        	        	       0	(  2  0  1)	  0  1
     59.8118	        	        	        	        	       0	(  1  0  8)	  0  1
     60.4774	        	        	        	        	       0	(  2  0  2)	  0  1
     62.4002	        	        	        	        	       0	(  2  0  3)	  0  1
     64.8250	        	        	        	        	       0	(  1  1  6)	  0  1
     65.0375	        	        	        	        	       0	(  2  0  4)	  0  1
     65.6771	        	        	        	        	       0	(  0  0 10)	  0  1
     66.2578	        	        	        	        	       0	(  1  0  9)	  0  1
     68.3485	        	        	        	        	       0	(  2  0  5)	  0  1
     72.2966	        	        	        	        	       0	(  2  0  6)	  0  1
     73.1074	        	        	        	        	       0	(  1  0 10)	  0  1
     74.9142	        	        	        	        	       0	(  1  1  8)	  0  1
     76.8553	        	        	        	        	       0	(  2  0  7)	  0  1
     80.4039	        	        	        	        	       0	(  1  0 11)	  0  1
     81.2320	        	        	        	        	       0	(  2  1  0)	  0  1
     81.2361	        	        	        	        	       0	(  0  0 12)	  0  1
     81.5739	        	        	        	        	       0	(  2  1  1)	  0  1
     82.0148	        	        	        	        	       0	(  2  0  8)	  0  1
     82.5978	        	        	        	        	       0	(  2  1  2)	  0  1
     84.2993	        	        	        	        	       0	(  2  1  3)	  0  1
     86.6736	        	        	        	        	       0	(  2  1  4)	  0  1
     87.2564	        	        	        	        	       0	(  1  1 10)	  0  1
     87.7876	        	        	        	        	       0	(  2  0  9)	  0  1
     88.2244	        	        	        	        	       0	(  1  0 12)	  0  1
     89.7187	        	        	        	        	       0	(  2  1  5)	  0  1
     93.4408	        	        	        	        	       0	(  2  1  6)	  0  1
     94.2174	        	        	        	        	       0	(  2  0 10)	  0  1
     95.1841	        	        	        	        	       0	(  3  0  0)	  0  1
     95.5238	        	        	        	        	       0	(  3  0  1)	  0  1
     96.5442	        	        	        	        	       0	(  3  0  2)	  0  1
     96.6948	        	        	        	        	       0	(  1  0 13)	  0  1
     97.8605	        	        	        	        	       0	(  2  1  7)	  0  1
     98.2498	        	        	        	        	       0	(  3  0  3)	  0  1
     98.8904	        	        	        	        	       0	(  0  0 14)	  0  1
    100.6506	        	        	        	        	       0	(  3  0  4)	  0  1
    101.3921	        	        	        	        	       0	(  2  0 11)	  0  1
    102.2321	        	        	        	        	       0	(  1  1 12)	  0  1
    103.0223	        	        	        	        	       0	(  2  1  8)	  0  1
    103.7664	        	        	        	        	       0	(  3  0  5)	  0  1
    106.0222	        	        	        	        	       0	(  1  0 14)	  0  1
    107.6336	        	        	        	        	       0	(  3  0  6)	  0  1
    109.0098	        	        	        	        	       0	(  2  1  9)	  0  1
    109.4726	        	        	        	        	       0	(  2  0 12)	  0  1
    112.3163	        	        	        	        	       0	(  3  0  7)	  0  1
    115.9748	        	        	        	        	       0	(  2  1 10)	  0  1
    116.5720	        	        	        	        	       0	(  1  0 15)	  0  1
    117.0526	        	        	        	        	       0	(  2  2  0)	  0  1
    117.9269	        	        	        	        	       0	(  3  0  8)	  0  1
    118.5839	        	        	        	        	       0	(  2  2  2)	  0  1
    118.7545	        	        	        	        	       0	(  2  0 13)	  0  1
    120.5945	        	        	        	        	       0	(  0  0 16)	  0  1
    121.2692	        	        	        	        	       0	(  1  1 14)	  0  1
    123.3236	        	        	        	        	       0	(  2  2  4)	  0  1
    124.2000	        	        	        	        	       0	(  2  1 11)	  0  1
    124.6679	        	        	        	        	       0	(  3  0  9)	  0  1
    125.1963	        	        	        	        	       0	(  3  1  0)	  0  1
    125.6118	        	        	        	        	       0	(  3  1  1)	  0  1
    126.8718	        	        	        	        	       0	(  3  1  2)	  0  1
    129.0199	        	        	        	        	       0	(  3  1  3)	  0  1
    129.0911	        	        	        	        	       0	(  1  0 16)	  0  1
    129.8412	        	        	        	        	       0	(  2  0 14)	  0  1
    131.8833	        	        	        	        	       0	(  2  2  6)	  0  1
    132.1431	        	        	        	        	       0	(  3  1  4)	  0  1
    132.9347	        	        	        	        	       0	(  3  0 10)	  0  1
    134.2735	        	        	        	        	       0	(  2  1 12)	  0  1
    136.4042	        	        	        	        	       0	(  3  1  5)	  0  1
    142.1217	        	        	        	        	       0	(  3  1  6)	  0  1
    143.6514	        	        	        	        	       0	(  3  0 11)	  0  1
    144.3157	        	        	        	        	       0	(  2  0 15)	  0  1
    145.6705	        	        	        	        	       0	(  1  0 17)	  0  1
    146.4404	        	        	        	        	       0	(  2  2  8)	  0  1
    147.7850	        	        	        	        	       0	(  2  1 13)	  0  1
    150.0321	        	        	        	        	       0	(  3  1  7)	  0  1
    150.9299	        	        	        	        	       0	(  1  1 16)	  0  1
    155.6890	        	        	        	        	       0	(  0  0 18)	  0  1
    160.3370	        	        	        	        	       0	(  4  0  0)	  0  1
    160.3491	        	        	        	        	       0	(  3  0 12)	  0  1
    161.3750	        	        	        	        	       0	(  4  0  1)	  0  1
    162.8046	        	        	        	        	       0	(  3  1  8)	  0  1
    164.8994	        	        	        	        	       0	(  4  0  2)	  0  1
    174.4757	        	        	        	        	       0	(  4  0  3)	  0  1
    175.0993	        	        	        	        	       0	(  2  0 16)	  0  1
