MSG Master    CELL:    5.91390   5.91390  23.23467   90.0000   90.0000  120.0000   SPGR: P 63/m m c             TEMP:    978.25
  1   1280     2.52000     0.00000    -0.13161     0.00000     0.00000    0
    99     0     2
       0.00000      10.00000
     125.00000     130.00000
 2Theta	Yobs	Ycal	Yobs-Ycal	Backg	Posr	(hkl)	K
      0.7700	    0.00	  491.69	-1823.00	  381.28
      0.8700	    0.00	  493.10	-1823.00	  382.68
      0.9700	   54.00	  494.48	-1823.00	  384.07
      1.0700	   37.00	  495.86	-1823.00	  385.44
      1.1700	   41.00	  497.21	-1823.00	  386.80
      1.2700	   56.00	  498.55	-1823.00	  388.14
      1.3700	   52.00	  499.87	-1823.00	  389.46
      1.4700	   94.00	  501.18	-1823.00	  390.76
      1.5700	  283.00	  502.47	-1823.00	  392.05
      1.6700	  469.00	  503.74	-1823.00	  393.33
      1.7700	  567.00	  505.00	-1823.00	  394.59
      1.8700	  671.00	  506.24	-1823.00	  395.83
      1.9700	  722.00	  507.47	-1823.00	  397.06
      2.0700	  797.00	  508.68	-1823.00	  398.27
      2.1700	  767.00	  509.88	-1823.00	  399.46
      2.2700	  778.00	  511.06	-1823.00	  400.65
      2.3700	  773.00	  512.23	-1823.00	  401.81
      2.4700	  697.00	  513.38	-1823.00	  402.96
      2.5700	  708.00	  514.51	-1823.00	  404.10
      2.6700	  647.00	  515.63	-1823.00	  405.22
      2.7700	  650.00	  516.74	-1823.00	  406.32
      2.8700	  616.00	  517.83	-1823.00	  407.41
      2.9700	  610.00	  518.90	-1823.00	  408.49
      3.0700	  588.00	  519.96	-1823.00	  409.55
      3.1700	  551.00	  521.01	-1823.00	  410.60
      3.2700	  610.00	  522.04	-1823.00	  411.63
      3.3700	  701.00	  523.06	-1823.00	  412.65
      3.4700	  767.00	  524.06	-1823.00	  413.65
      3.5700	  779.00	  525.05	-1823.00	  414.64
      3.6700	  900.00	  526.03	-1823.00	  415.62
      3.7700	  880.00	  526.99	-1823.00	  416.58
      3.8700	  938.00	  527.94	-1823.00	  417.53
      3.9700	  976.00	  528.88	-1823.00	  418.46
      4.0700	 1052.00	  529.80	-1823.00	  419.38
      4.1700	 1098.00	  530.70	-1823.00	  420.29
      4.2700	 1061.00	  531.60	-1823.00	  421.18
      4.3700	 1038.00	  532.48	-1823.00	  422.06
      4.4700	 1040.00	  533.34	-1823.00	  422.93
      4.5700	 1085.00	  534.20	-1823.00	  423.78
      4.6700	  943.00	  535.04	-1823.00	  424.63
      4.7700	  961.00	  535.87	-1823.00	  425.45
      4.8700	  925.00	  536.68	-1823.00	  426.27
      4.9700	  882.00	  537.49	-1823.00	  427.07
      5.0700	  940.00	  538.28	-1823.00	  427.86
      5.1700	  906.00	  539.05	-1823.00	  428.64
      5.2700	  870.00	  539.82	-1823.00	  429.40
      5.3700	  884.00	  540.57	-1823.00	  430.15
      5.4700	  831.00	  541.31	-1823.00	  430.89
      5.5700	  868.00	  542.04	-1823.00	  431.62
      5.6700	  857.00	  542.75	-1823.00	  432.34
      5.7700	  842.00	  543.46	-1823.00	  433.04
      5.8700	  808.00	  544.15	-1823.00	  433.73
      5.9700	  798.00	  544.83	-1823.00	  434.41
      6.0700	  783.00	  545.49	-1823.00	  435.08
      6.1700	  773.00	  546.15	-1823.00	  435.73
      6.2700	  788.00	  546.79	-1823.00	  436.38
      6.3700	  772.00	  547.43	-1823.00	  437.01
      6.4700	  721.00	  548.05	-1823.00	  437.63
      6.5700	  763.00	  548.66	-1823.00	  438.24
      6.6700	  751.00	  549.26	-1823.00	  438.84
      6.7700	  701.00	  549.84	-1823.00	  439.43
      6.8700	  714.00	  550.42	-1823.00	  440.01
      6.9700	  688.00	  550.98	-1823.00	  440.57
      7.0700	  699.00	  551.54	-1823.00	  441.12
      7.1700	  701.00	  552.08	-1823.00	  441.67
      7.2700	  696.00	  552.61	-1823.00	  442.20
      7.3700	  695.00	  553.14	-1823.00	  442.72
      7.4700	  658.00	  553.65	-1823.00	  443.23
      7.5700	  651.00	  554.15	-1823.00	  443.73
      7.6700	  634.00	  554.64	-1823.00	  444.22
      7.7700	  621.00	  555.12	-1823.00	  444.70
      7.8700	  622.00	  555.59	-1823.00	  445.17
      7.9700	  650.00	  556.05	-1823.00	  445.63
      8.0700	  597.00	  556.50	-1823.00	  446.08
      8.1700	  589.00	  556.94	-1823.00	  446.52
      8.2700	  580.00	  557.36	-1823.00	  446.95
      8.3700	  604.00	  557.78	-1823.00	  447.37
      8.4700	  662.00	  558.19	-1823.00	  447.78
      8.5700	  578.00	  558.59	-1823.00	  448.18
      8.6700	  569.00	  558.98	-1823.00	  448.57
      8.7700	  622.00	  559.36	-1823.00	  448.95
      8.8700	  566.00	  559.73	-1823.00	  449.32
      8.9700	  635.00	  560.10	-1823.00	  449.68
      9.0700	  591.00	  560.45	-1823.00	  450.03
      9.1700	  601.00	  560.79	-1823.00	  450.38
      9.2700	  656.00	  561.13	-1823.00	  450.71
      9.3700	  583.00	  561.45	-1823.00	  451.04
      9.4700	  589.00	  561.77	-1823.00	  451.35
      9.5700	  631.00	  562.07	-1823.00	  451.66
      9.6700	  565.00	  562.37	-1823.00	  451.95
      9.7700	  620.00	  562.66	-1823.00	  452.24
      9.8700	  632.00	  562.94	-1823.00	  452.52
      9.9700	  619.00	  563.21	-1823.00	  452.80
     10.0700	  602.00	  565.14	-1786.14	  453.06
     10.1700	  654.00	  565.46	-1734.46	  453.31
     10.2700	  544.00	  565.79	-1844.79	  453.56
     10.3700	  583.00	  566.14	-1806.14	  453.80
     10.4700	  590.00	  566.53	-1799.53	  454.03
     10.5700	  632.00	  566.99	-1757.99	  454.25
     10.6700	  582.00	  567.63	-1808.63	  454.46
     10.7700	  552.00	  568.53	-1839.53	  454.66
     10.8700	  575.00	  569.77	-1817.77	  454.86
     10.9700	  584.00	  571.36	-1810.36	  455.05
     11.0700	  556.00	  573.26	-1840.26	  455.23
     11.1700	  577.00	  575.46	-1821.46	  455.40
     11.2700	  595.00	  577.99	-1805.99	  455.57
     11.3700	  604.00	  580.90	-1799.90	  455.73
     11.4700	  573.00	  584.32	-1834.32	  455.88
     11.5700	  605.00	  588.40	-1806.40	  456.02
     11.6700	  608.00	  593.45	-1808.45	  456.15
     11.7700	  618.00	  599.96	-1804.96	  456.28
     11.8700	  640.00	  608.77	-1791.77	  456.40
     11.9700	  610.00	  620.71	-1833.71	  456.52
     12.0700	  684.00	  634.89	-1773.89	  456.62
     12.1700	  704.00	  646.32	-1765.32	  456.72
     12.2700	  628.00	  645.91	-1840.91	  456.81
     12.3700	  661.00	  628.94	-1790.94	  456.90
     12.4700	  615.00	  605.70	-1813.70	  456.98
     12.5700	  586.00	  587.99	-1824.99	  457.05
     12.6700	  591.00	  578.33	-1810.33	  457.11
     12.7700	  577.00	  574.10	-1820.10	  457.17
     12.8700	  534.00	  572.36	-1861.36	  457.22
     12.9700	  553.00	  571.51	-1841.51	  457.26
     13.0700	  558.00	  570.99	-1835.99	  457.30
     13.1700	  539.00	  570.63	-1854.63	  457.33
     13.2700	  565.00	  570.36	-1828.36	  457.36
     13.3700	  574.00	  570.16	-1819.16	  457.38
     13.4700	  524.00	  570.00	-1869.00	  457.39
     13.5700	  570.00	  569.87	-1822.87	  457.40
     13.6700	  554.00	  569.76	-1838.76	  457.40
     13.7700	  499.00	  569.66	-1893.66	  457.39
     13.8700	  537.00	  569.58	-1855.58	  457.38
     13.9700	  557.00	  569.50	-1835.50	  457.36
     14.0700	  604.00	  569.42	-1788.42	  457.34
     14.1700	  547.00	  569.34	-1845.34	  457.31
     14.2700	  552.00	  569.27	-1840.27	  457.27
     14.3700	  541.00	  569.20	-1851.20	  457.23
     14.4700	  538.00	  569.12	-1854.12	  457.19
     14.5700	  525.00	  569.04	-1867.04	  457.13
     14.6700	  531.00	  568.96	-1860.96	  457.08
     14.7700	  541.00	  568.88	-1850.88	  457.01
     14.8700	  576.00	  568.79	-1815.79	  456.94
     14.9700	  555.00	  568.70	-1836.70	  456.87
     15.0700	  577.00	  568.61	-1814.61	  456.79
     15.1700	  561.00	  568.51	-1830.51	  456.71
     15.2700	  574.00	  568.41	-1817.41	  456.62
     15.3700	  535.00	  568.31	-1856.31	  456.52
     15.4700	  595.00	  568.20	-1796.20	  456.42
     15.5700	  548.00	  568.09	-1843.09	  456.32
     15.6700	  551.00	  567.97	-1839.97	  456.21
     15.7700	  541.00	  567.85	-1849.85	  456.09
     15.8700	  539.00	  567.72	-1851.72	  455.97
     15.9700	  567.00	  567.60	-1823.60	  455.85
     16.0700	  552.00	  567.46	-1838.46	  455.72
     16.1700	  552.00	  567.32	-1838.32	  455.59
     16.2700	  511.00	  567.18	-1879.18	  455.45
     16.3700	  546.00	  567.06	-1844.06	  455.31
     16.4700	  583.00	  566.91	-1806.91	  455.16
     16.5700	  609.00	  566.76	-1780.76	  455.01
     16.6700	  526.00	  566.60	-1863.60	  454.85
     16.7700	  558.00	  566.44	-1831.44	  454.69
     16.8700	  540.00	  566.27	-1849.27	  454.53
     16.9700	  592.00	  566.11	-1797.11	  454.36
     17.0700	  549.00	  565.93	-1839.93	  454.19
     17.1700	  587.00	  565.75	-1801.75	  454.01
     17.2700	  573.00	  565.57	-1815.57	  453.83
     17.3700	  554.00	  565.39	-1834.39	  453.65
     17.4700	  530.00	  565.20	-1858.20	  453.46
     17.5700	  570.00	  565.01	-1818.01	  453.26
     17.6700	  569.00	  564.81	-1818.81	  453.07
     17.7700	  553.00	  564.61	-1834.61	  452.87
     17.8700	  578.00	  564.41	-1809.41	  452.66
     17.9700	  532.00	  564.31	-1855.31	  452.45
     18.0700	  575.00	  564.10	-1812.10	  452.24
     18.1700	  547.00	  563.89	-1839.89	  452.03
     18.2700	  559.00	  563.67	-1827.67	  451.81
     18.3700	  543.00	  563.45	-1843.45	  451.59
     18.4700	  527.00	  563.23	-1859.23	  451.36
     18.5700	  560.00	  563.01	-1826.01	  451.13
     18.6700	  582.00	  562.78	-1803.78	  450.90
     18.7700	  557.00	  562.55	-1828.55	  450.67
     18.8700	  585.00	  562.41	-1800.41	  450.43
     18.9700	  597.00	  562.17	-1788.17	  450.19
     19.0700	  540.00	  561.93	-1844.93	  449.94
     19.1700	  543.00	  561.69	-1841.69	  449.69
     19.2700	  572.00	  561.45	-1812.45	  449.44
     19.3700	  546.00	  561.20	-1838.20	  449.19
     19.4700	  563.00	  560.95	-1820.95	  448.93
     19.5700	  555.00	  560.70	-1828.70	  448.67
     19.6700	  565.00	  560.45	-1818.45	  448.41
     19.7700	  557.00	  560.19	-1826.19	  448.14
     19.8700	  619.00	  559.94	-1763.94	  447.87
     19.9700	  515.00	  559.67	-1867.67	  447.60
     20.0700	  528.00	  559.41	-1854.41	  447.33
     20.1700	  566.00	  559.15	-1816.15	  447.05
     20.2700	  567.00	  558.88	-1814.88	  446.77
     20.3700	  542.00	  558.58	-1839.58	  446.49
     20.4700	  515.00	  558.31	-1866.31	  446.21
     20.5700	  593.00	  558.04	-1788.04	  445.92
     20.6700	  558.00	  557.77	-1822.77	  445.63
     20.7700	  558.00	  557.49	-1822.49	  445.34
     20.8700	  505.00	  557.21	-1875.21	  445.05
     20.9700	  580.00	  556.97	-1799.97	  444.75
     21.0700	  527.00	  556.69	-1852.69	  444.45
     21.1700	  536.00	  556.41	-1843.41	  444.15
     21.2700	  543.00	  556.13	-1836.13	  443.85
     21.3700	  535.00	  555.85	-1843.85	  443.54
     21.4700	  555.00	  555.57	-1823.57	  443.24
     21.5700	  594.00	  555.29	-1784.29	  442.93
     21.6700	  573.00	  555.00	-1805.00	  442.62
     21.7700	  553.00	  554.72	-1824.72	  442.30
     21.8700	  561.00	  554.43	-1816.43	  441.99
     21.9700	  565.00	  554.15	-1812.15	  441.67
     22.0700	  525.00	  553.87	-1851.87	  441.36
     22.1700	  575.00	  553.59	-1801.59	  441.04
     22.2700	  567.00	  553.31	-1809.31	  440.71
     22.3700	  567.00	  553.03	-1809.03	  440.39
     22.4700	  574.00	  552.75	-1801.75	  440.06
     22.5700	  555.00	  552.48	-1820.48	  439.74
     22.6700	  572.00	  552.21	-1803.21	  439.41
     22.7700	  510.00	  551.95	-1864.95	  439.08
     22.8700	  534.00	  551.69	-1840.69	  438.75
     22.9700	  554.00	  551.45	-1820.45	  438.42
     23.0700	  564.00	  551.21	-1810.21	  438.08
     23.1700	  514.00	  550.99	-1859.99	  437.75
     23.2700	  566.00	  550.78	-1807.78	  437.41
     23.3700	  566.00	  550.60	-1807.60	  437.07
     23.4700	  589.00	  550.44	-1784.44	  436.73
     23.5700	  581.00	  550.33	-1792.33	  436.39
     23.6700	  550.00	  550.27	-1823.27	  436.05
     23.7700	  540.00	  550.43	-1833.43	  435.70
     23.8700	  591.00	  550.63	-1782.63	  435.36
     23.9700	  588.00	  551.17	-1786.17	  435.01
     24.0700	  541.00	  552.41	-1834.41	  434.67
     24.1700	  594.00	  554.97	-1783.97	  434.32
     24.2700	  541.00	  559.70	-1841.70	  433.97
     24.3700	  608.00	  567.57	-1782.57	  433.62
     24.4700	  569.00	  579.73	-1833.73	  433.27
     24.5700	  642.00	  597.06	-1778.06	  432.92
     24.6700	  626.00	  618.22	-1815.22	  432.57
     24.7700	  642.00	  636.73	-1817.73	  432.21
     24.8700	  642.00	  641.13	-1822.13	  431.86
     24.9700	  597.00	  624.24	-1850.24	  431.51
     25.0700	  656.00	  596.48	-1763.48	  431.15
     25.1700	  579.00	  572.87	-1816.87	  430.79
     25.2700	  578.00	  558.56	-1803.56	  430.44
     25.3700	  613.00	  551.65	-1761.65	  430.08
     25.4700	  553.00	  548.61	-1818.61	  429.72
     25.5700	  581.00	  547.12	-1789.12	  429.36
     25.6700	  627.00	  546.21	-1742.21	  429.00
     25.7700	  547.00	  545.56	-1821.56	  428.65
     25.8700	  569.00	  545.07	-1799.07	  428.29
     25.9700	  536.00	  544.69	-1831.69	  427.92
     26.0700	  568.00	  544.40	-1799.40	  427.56
     26.1700	  571.00	  544.20	-1796.20	  427.20
     26.2700	  541.00	  544.08	-1826.08	  426.84
     26.3700	  540.00	  544.03	-1827.03	  426.48
     26.4700	  548.00	  544.08	-1819.08	  426.12
     26.5700	  562.00	  544.22	-1805.22	  425.76
     26.6700	  559.00	  544.47	-1808.47	  425.39
     26.7700	  553.00	  544.86	-1814.86	  425.03
     26.8700	  567.00	  545.43	-1801.43	  424.67
     26.9700	  543.00	  546.21	-1826.21	  424.30
     27.0700	  554.00	  547.29	-1816.29	  423.94
     27.1700	  565.00	  548.80	-1806.80	  423.58
     27.2700	  577.00	  550.95	-1796.95	  423.21
     27.3700	  601.00	  554.20	-1776.20	  422.85
     27.4700	  561.00	  559.45	-1821.45	  422.49
     27.5700	  524.00	  568.28	-1867.28	  422.12
     27.6700	  584.00	  583.31	-1822.31	  421.76
     27.7700	  597.00	  608.01	-1834.01	  421.40
     27.8700	  626.00	  645.70	-1842.70	  421.03
     27.9700	  684.00	  697.26	-1836.26	  420.67
     28.0700	  738.00	  757.98	-1842.98	  420.31
     28.1700	  872.00	  814.63	-1765.62	  419.95
     28.2700	  945.00	  845.47	-1723.47	  419.58
     28.3700	  967.00	  833.06	-1689.06	  419.22
     28.4700	  833.00	  791.86	-1781.86	  418.86
     28.5700	  705.00	  758.30	-1876.30	  418.50
     28.6700	  696.00	  753.51	-1880.51	  418.14
     28.7700	  692.00	  776.41	-1907.41	  417.78
     28.8700	  844.00	  809.00	-1788.00	  417.42
     28.9700	  846.00	  822.50	-1799.50	  417.06
     29.0700	  813.00	  792.97	-1802.97	  416.70
     29.1700	  721.00	  729.12	-1831.12	  416.34
     29.2700	  661.00	  662.38	-1824.38	  415.98
     29.3700	  621.00	  611.62	-1813.62	  415.62
     29.4700	  618.00	  579.75	-1784.75	  415.26
     29.5700	  565.00	  562.11	-1820.11	  414.91
     29.6700	  650.00	  552.79	-1725.79	  414.55
     29.7700	  636.00	  547.59	-1734.59	  414.19
     29.8700	  585.00	  544.40	-1782.40	  413.84
     29.9700	  568.00	  542.33	-1797.33	  413.48
     30.0700	  585.00	  541.12	-1779.12	  413.13
     30.1700	  522.00	  540.85	-1841.85	  412.78
     30.2700	  569.00	  541.96	-1795.96	  412.42
     30.3700	  498.00	  545.39	-1870.39	  412.07
     30.4700	  561.00	  552.66	-1814.66	  411.72
     30.5700	  555.00	  565.62	-1833.62	  411.37
     30.6700	  590.00	  585.28	-1818.28	  411.02
     30.7700	  588.00	  610.02	-1845.02	  410.67
     30.8700	  573.00	  633.91	-1883.92	  410.32
     30.9700	  639.00	  646.65	-1830.65	  409.98
     31.0700	  617.00	  638.50	-1844.50	  409.63
     31.1700	  580.00	  612.45	-1855.45	  409.29
     31.2700	  576.00	  582.74	-1829.74	  408.94
     31.3700	  578.00	  559.26	-1804.26	  408.60
     31.4700	  582.00	  544.29	-1785.29	  408.25
     31.5700	  568.00	  536.03	-1791.03	  407.91
     31.6700	  545.00	  531.76	-1809.76	  407.57
     31.7700	  560.00	  529.43	-1792.43	  407.23
     31.8700	  525.00	  527.99	-1825.99	  406.89
     31.9700	  518.00	  526.99	-1831.99	  406.56
     32.0700	  533.00	  526.25	-1816.25	  406.22
     32.1700	  499.00	  525.71	-1849.71	  405.88
     32.2700	  563.00	  525.34	-1785.34	  405.55
     32.3700	  542.00	  525.12	-1806.12	  405.22
     32.4700	  560.00	  525.05	-1788.05	  404.89
     32.5700	  556.00	  525.15	-1792.15	  404.55
     32.6700	  543.00	  525.43	-1805.43	  404.22
     32.7700	  550.00	  525.93	-1798.93	  403.90
     32.8700	  583.00	  526.72	-1766.72	  403.57
     32.9700	  576.00	  527.88	-1774.88	  403.24
     33.0700	  506.00	  529.58	-1846.58	  402.92
     33.1700	  525.00	  532.16	-1830.16	  402.59
     33.2700	  496.00	  536.39	-1863.39	  402.27
     33.3700	  556.00	  544.06	-1811.06	  401.95
     33.4700	  566.00	  558.71	-1815.71	  401.63
     33.5700	  557.00	  586.48	-1852.48	  401.31
     33.6700	  616.00	  635.49	-1842.49	  401.00
     33.7700	  674.00	  711.91	-1860.91	  400.68
     33.8700	  830.00	  811.90	-1804.90	  400.37
     33.9700	  993.00	  914.16	-1744.16	  400.05
     34.0700	 1082.00	  979.38	-1720.38	  399.74
     34.1700	 1058.00	  966.77	-1731.77	  399.43
     34.2700	  952.00	  877.34	-1748.34	  399.12
     34.3700	  859.00	  761.66	-1725.66	  398.81
     34.4700	  683.00	  663.50	-1803.50	  398.51
     34.5700	  589.00	  597.80	-1831.80	  398.20
     34.6700	  581.00	  560.71	-1802.71	  397.90
     34.7700	  532.00	  541.86	-1832.86	  397.60
     34.8700	  556.00	  532.30	-1799.30	  397.30
     34.9700	  501.00	  526.88	-1848.88	  397.00
     35.0700	  527.00	  523.28	-1819.28	  396.70
     35.1700	  496.00	  520.61	-1847.61	  396.41
     35.2700	  541.00	  518.52	-1800.52	  396.11
     35.3700	  531.00	  516.83	-1808.83	  395.82
     35.4700	  525.00	  515.42	-1813.42	  395.53
     35.5700	  539.00	  514.22	-1798.22	  395.24
     35.6700	  526.00	  513.19	-1810.19	  394.96
     35.7700	  507.00	  512.28	-1828.28	  394.67
     35.8700	  561.00	  511.48	-1773.48	  394.39
     35.9700	  543.00	  511.27	-1791.27	  394.10
     36.0700	  516.00	  510.63	-1817.63	  393.82
     36.1700	  485.00	  510.05	-1848.05	  393.54
     36.2700	  529.00	  509.52	-1803.52	  393.27
     36.3700	  517.00	  509.04	-1815.04	  392.99
     36.4700	  509.00	  508.59	-1822.59	  392.72
     36.5700	  495.00	  508.19	-1836.19	  392.44
     36.6700	  454.00	  507.82	-1876.82	  392.17
     36.7700	  516.00	  507.49	-1814.49	  391.90
     36.8700	  501.00	  507.22	-1829.22	  391.64
     36.9700	  503.00	  507.03	-1827.03	  391.37
     37.0700	  527.00	  507.01	-1803.01	  391.11
     37.1700	  517.00	  507.33	-1813.33	  390.84
     37.2700	  456.00	  508.30	-1875.30	  390.58
     37.3700	  507.00	  510.36	-1826.36	  390.33
     37.4700	  532.00	  513.83	-1804.83	  390.07
     37.5700	  513.00	  518.52	-1828.52	  389.81
     37.6700	  505.00	  523.44	-1841.44	  389.56
     37.7700	  494.00	  526.84	-1855.84	  389.31
     37.8700	  535.00	  527.23	-1815.23	  389.06
     37.9700	  495.00	  524.86	-1852.86	  388.81
     38.0700	  514.00	  521.08	-1830.08	  388.57
     38.1700	  503.00	  516.71	-1836.71	  388.32
     38.2700	  526.00	  512.30	-1809.30	  388.08
     38.3700	  477.00	  508.53	-1854.53	  387.84
     38.4700	  567.00	  505.73	-1761.73	  387.60
     38.5700	  479.00	  503.87	-1847.87	  387.37
     38.6700	  484.00	  502.71	-1841.71	  387.13
     38.7700	  466.00	  501.98	-1858.98	  386.90
     38.8700	  514.00	  501.39	-1810.39	  386.67
     38.9700	  493.00	  501.01	-1831.01	  386.44
     39.0700	  481.00	  500.68	-1842.68	  386.21
     39.1700	  461.00	  500.39	-1862.39	  385.99
     39.2700	  475.00	  500.04	-1848.04	  385.76
     39.3700	  495.00	  499.79	-1827.79	  385.54
     39.4700	  501.00	  499.55	-1821.55	  385.32
     39.5700	  501.00	  499.33	-1821.33	  385.11
     39.6700	  488.00	  499.12	-1834.12	  384.89
     39.7700	  547.00	  499.05	-1775.05	  384.68
     39.8700	  477.00	  498.86	-1844.86	  384.47
     39.9700	  501.00	  498.68	-1820.68	  384.26
     40.0700	  493.00	  498.52	-1828.52	  384.05
     40.1700	  477.00	  498.36	-1844.36	  383.85
     40.2700	  532.00	  498.22	-1789.22	  383.64
     40.3700	  504.00	  498.08	-1817.08	  383.44
     40.4700	  509.00	  497.96	-1811.96	  383.24
     40.5700	  514.00	  497.86	-1806.86	  383.04
     40.6700	  482.00	  497.77	-1838.77	  382.85
     40.7700	  478.00	  497.70	-1842.70	  382.65
     40.8700	  460.00	  497.65	-1860.65	  382.46
     40.9700	  534.00	  497.62	-1786.62	  382.27
     41.0700	  483.00	  497.63	-1837.63	  382.09
     41.1700	  444.00	  497.64	-1876.64	  381.90
     41.2700	  489.00	  497.72	-1831.72	  381.72
     41.3700	  508.00	  497.87	-1812.87	  381.54
     41.4700	  483.00	  498.09	-1838.09	  381.36
     41.5700	  460.00	  498.40	-1861.40	  381.18
     41.6700	  485.00	  499.29	-1837.29	  381.00
     41.7700	  494.00	  499.98	-1828.98	  380.83
     41.8700	  526.00	  501.08	-1798.08	  380.66
     41.9700	  508.00	  503.08	-1818.08	  380.49
     42.0700	  510.00	  506.96	-1819.96	  380.32
     42.1700	  518.00	  514.56	-1819.56	  380.16
     42.2700	  552.00	  528.52	-1799.52	  380.00
     42.3700	  529.00	  551.16	-1845.16	  379.84
     42.4700	  545.00	  582.81	-1860.81	  379.68
     42.5700	  604.00	  618.99	-1837.99	  379.52
     42.6700	  566.00	  649.42	-1906.42	  379.36
     42.7700	  637.00	  660.95	-1846.95	  379.21
     42.8700	  603.00	  646.25	-1866.25	  379.06
     42.9700	  583.00	  613.01	-1853.01	  378.91
     43.0700	  513.00	  575.87	-1885.87	  378.77
     43.1700	  484.00	  544.91	-1883.91	  378.62
     43.2700	  485.00	  523.64	-1861.64	  378.48
     43.3700	  478.00	  511.09	-1856.09	  378.34
     43.4700	  504.00	  504.44	-1823.44	  378.20
     43.5700	  510.00	  501.06	-1814.06	  378.06
     43.6700	  479.00	  499.25	-1843.25	  377.93
     43.7700	  515.00	  498.33	-1806.33	  377.80
     43.8700	  507.00	  497.56	-1813.56	  377.67
     43.9700	  519.00	  496.98	-1800.98	  377.54
     44.0700	  461.00	  496.52	-1858.52	  377.41
     44.1700	  485.00	  496.16	-1834.16	  377.29
     44.2700	  470.00	  495.91	-1848.91	  377.17
     44.3700	  461.00	  495.68	-1857.68	  377.05
     44.4700	  473.00	  495.37	-1845.37	  376.93
     44.5700	  500.00	  495.23	-1818.23	  376.82
     44.6700	  520.00	  495.13	-1798.13	  376.70
     44.7700	  482.00	  495.05	-1836.05	  376.59
     44.8700	  509.00	  495.01	-1809.01	  376.48
     44.9700	  520.00	  494.99	-1797.99	  376.37
     45.0700	  505.00	  494.99	-1812.99	  376.27
     45.1700	  531.00	  495.02	-1787.02	  376.16
     45.2700	  469.00	  495.25	-1849.25	  376.06
     45.3700	  500.00	  495.32	-1818.32	  375.96
     45.4700	  449.00	  495.41	-1869.41	  375.87
     45.5700	  498.00	  495.53	-1820.53	  375.77
     45.6700	  521.00	  495.68	-1797.68	  375.68
     45.7700	  531.00	  495.84	-1787.84	  375.59
     45.8700	  520.00	  496.04	-1799.04	  375.50
     45.9700	  477.00	  496.27	-1842.27	  375.41
     46.0700	  487.00	  496.52	-1832.52	  375.33
     46.1700	  494.00	  496.82	-1825.82	  375.24
     46.2700	  471.00	  497.15	-1849.15	  375.16
     46.3700	  503.00	  497.53	-1817.53	  375.08
     46.4700	  494.00	  497.96	-1826.96	  375.01
     46.5700	  523.00	  498.46	-1798.46	  374.93
     46.6700	  473.00	  499.02	-1849.02	  374.86
     46.7700	  511.00	  499.68	-1811.68	  374.79
     46.8700	  490.00	  500.45	-1833.45	  374.72
     46.9700	  485.00	  501.41	-1839.41	  374.65
     47.0700	  505.00	  502.70	-1820.70	  374.59
     47.1700	  448.00	  504.67	-1879.67	  374.53
     47.2700	  523.00	  507.87	-1807.87	  374.46
     47.3700	  466.00	  513.28	-1870.28	  374.41
     47.4700	  529.00	  522.00	-1816.00	  374.35
     47.5700	  560.00	  534.94	-1797.94	  374.29
     47.6700	  539.00	  551.80	-1835.80	  374.24
     47.7700	  600.00	  570.24	-1793.24	  374.19
     47.8700	  564.00	  585.68	-1844.68	  374.14
     47.9700	  550.00	  592.57	-1865.57	  374.09
     48.0700	  543.00	  588.13	-1868.13	  374.05
     48.1700	  583.00	  575.35	-1815.35	  374.01
     48.2700	  542.00	  560.17	-1841.17	  373.96
     48.3700	  506.00	  547.24	-1864.24	  373.93
     48.4700	  551.00	  538.75	-1810.75	  373.89
     48.5700	  509.00	  534.95	-1848.95	  373.85
     48.6700	  533.00	  535.00	-1825.00	  373.82
     48.7700	  515.00	  537.88	-1845.88	  373.79
     48.8700	  514.00	  542.92	-1851.92	  373.76
     48.9700	  607.00	  549.94	-1765.94	  373.73
     49.0700	  561.00	  559.37	-1821.37	  373.70
     49.1700	  576.00	  572.47	-1819.47	  373.68
     49.2700	  594.00	  591.96	-1820.96	  373.66
     49.3700	  650.00	  623.21	-1796.21	  373.64
     49.4700	  690.00	  675.64	-1808.64	  373.62
     49.5700	  778.00	  763.61	-1808.61	  373.60
     49.6700	  888.00	  905.42	-1840.42	  373.59
     49.7700	 1037.00	 1116.94	-1902.94	  373.58
     49.8700	 1285.00	 1404.21	-1942.21	  373.57
     49.9700	 1714.00	 1750.49	-1859.49	  373.56
     50.0700	 2080.00	 2105.77	-1848.77	  373.55
     50.1700	 2410.00	 2383.18	-1796.18	  373.54
     50.2700	 2552.00	 2482.53	-1753.53	  373.54
     50.3700	 2381.00	 2357.20	-1799.20	  373.54
     50.4700	 2180.00	 2061.88	-1704.88	  373.54
     50.5700	 1695.00	 1702.30	-1830.30	  373.54
     50.6700	 1222.00	 1363.60	-1964.60	  373.54
     50.7700	  900.00	 1091.07	-2014.07	  373.55
     50.8700	  742.00	  897.39	-1978.39	  373.56
     50.9700	  601.00	  773.87	-1995.87	  373.57
     51.0700	  615.00	  701.54	-1909.54	  373.58
     51.1700	  605.00	  660.10	-1878.10	  373.59
     51.2700	  525.00	  633.38	-1931.38	  373.60
     51.3700	  584.00	  611.90	-1850.90	  373.62
     51.4700	  555.00	  592.57	-1860.57	  373.64
     51.5700	  567.00	  575.56	-1831.56	  373.66
     51.6700	  542.00	  561.66	-1842.66	  373.68
     51.7700	  538.00	  551.17	-1836.17	  373.70
     51.8700	  544.00	  543.77	-1822.77	  373.73
     51.9700	  573.00	  538.77	-1788.77	  373.75
     52.0700	  588.00	  535.46	-1770.46	  373.78
     52.1700	  528.00	  533.35	-1828.35	  373.81
     52.2700	  529.00	  532.16	-1826.16	  373.84
     52.3700	  550.00	  532.08	-1805.08	  373.87
     52.4700	  567.00	  532.81	-1788.81	  373.91
     52.5700	  557.00	  535.05	-1801.05	  373.94
     52.6700	  586.00	  540.00	-1777.00	  373.98
     52.7700	  591.00	  550.08	-1782.08	  374.02
     52.8700	  593.00	  569.69	-1799.69	  374.06
     52.9700	  598.00	  605.38	-1830.38	  374.11
     53.0700	  767.00	  664.84	-1720.84	  374.15
     53.1700	  798.00	  753.72	-1778.72	  374.20
     53.2700	  977.00	  870.88	-1716.88	  374.24
     53.3700	 1084.00	 1003.55	-1742.55	  374.29
     53.4700	 1099.00	 1125.12	-1849.12	  374.34
     53.5700	 1094.00	 1199.16	-1928.16	  374.40
     53.6700	 1123.00	 1196.02	-1896.02	  374.45
     53.7700	 1050.00	 1116.56	-1889.56	  374.50
     53.8700	  963.00	  992.19	-1852.19	  374.56
     53.9700	  787.00	  859.75	-1895.75	  374.62
     54.0700	  717.00	  744.82	-1850.82	  374.68
     54.1700	  646.00	  658.99	-1835.99	  374.74
     54.2700	  608.00	  602.47	-1817.47	  374.80
     54.3700	  589.00	  569.10	-1803.10	  374.87
     54.4700	  575.00	  551.16	-1799.16	  374.93
     54.5700	  572.00	  542.17	-1793.17	  375.00
     54.6700	  565.00	  537.92	-1795.92	  375.07
     54.7700	  536.00	  536.13	-1823.13	  375.14
     54.8700	  548.00	  535.71	-1810.71	  375.21
     54.9700	  543.00	  536.22	-1816.22	  375.28
     55.0700	  569.00	  537.49	-1791.49	  375.36
     55.1700	  589.00	  539.48	-1773.48	  375.43
     55.2700	  547.00	  542.23	-1818.23	  375.51
     55.3700	  531.00	  545.85	-1837.85	  375.59
     55.4700	  565.00	  550.44	-1808.44	  375.67
     55.5700	  556.00	  556.31	-1823.31	  375.75
     55.6700	  584.00	  563.99	-1802.99	  375.83
     55.7700	  571.00	  574.55	-1826.55	  375.92
     55.8700	  575.00	  590.21	-1838.21	  376.00
     55.9700	  606.00	  615.37	-1832.37	  376.09
     56.0700	  628.00	  657.89	-1852.89	  376.18
     56.1700	  714.00	  730.31	-1839.31	  376.26
     56.2700	  793.00	  849.61	-1879.61	  376.35
     56.3700	  950.00	 1034.13	-1907.13	  376.45
     56.4700	 1228.00	 1296.61	-1891.61	  376.54
     56.5700	 1510.00	 1634.60	-1947.60	  376.63
     56.6700	 1928.00	 2020.73	-1915.73	  376.73
     56.7700	 2293.00	 2396.46	-1926.46	  376.82
     56.8700	 2635.00	 2674.50	-1862.50	  376.92
     56.9700	 2720.00	 2765.04	-1868.04	  377.02
     57.0700	 2541.00	 2632.58	-1914.58	  377.12
     57.1700	 2319.00	 2327.62	-1831.62	  377.22
     57.2700	 1902.00	 1944.79	-1865.79	  377.32
     57.3700	 1507.00	 1567.32	-1883.32	  377.43
     57.4700	 1157.00	 1247.14	-1913.14	  377.53
     57.5700	  938.00	 1005.72	-1890.72	  377.64
     57.6700	  846.00	  841.74	-1818.74	  377.74
     57.7700	  741.00	  741.03	-1823.03	  377.85
     57.8700	  707.00	  686.09	-1802.09	  377.96
     57.9700	  695.00	  662.36	-1790.36	  378.07
     58.0700	  685.00	  660.62	-1798.62	  378.18
     58.1700	  647.00	  676.62	-1852.62	  378.29
     58.2700	  712.00	  709.36	-1820.36	  378.41
     58.3700	  800.00	  759.12	-1782.12	  378.52
     58.4700	  898.00	  825.57	-1750.57	  378.64
     58.5700	 1045.00	  906.02	-1684.02	  378.75
     58.6700	 1201.00	  994.12	-1616.12	  378.87
     58.7700	 1265.00	 1080.21	-1638.21	  378.99
     58.8700	 1515.00	 1155.21	-1463.21	  379.11
     58.9700	 1558.00	 1213.70	-1478.70	  379.23
     59.0700	 1616.00	 1251.21	-1458.21	  379.35
     59.1700	 1614.00	 1261.95	-1470.95	  379.47
     59.2700	 1542.00	 1244.90	-1525.90	  379.59
     59.3700	 1384.00	 1209.85	-1648.85	  379.72
     59.4700	 1244.00	 1172.34	-1751.34	  379.84
     59.5700	 1205.00	 1144.78	-1762.78	  379.97
     59.6700	 1181.00	 1134.25	-1776.25	  380.09
     59.7700	 1196.00	 1146.13	-1773.13	  380.22
     59.8700	 1163.00	 1185.92	-1845.92	  380.35
     59.9700	 1308.00	 1254.85	-1769.85	  380.48
     60.0700	 1396.00	 1344.34	-1771.34	  380.61
     60.1700	 1517.00	 1433.60	-1739.60	  380.74
     60.2700	 1609.00	 1491.97	-1705.97	  380.87
     60.3700	 1596.00	 1489.99	-1716.99	  381.00
     60.4700	 1502.00	 1418.09	-1739.09	  381.13
     60.5700	 1325.00	 1293.44	-1791.44	  381.27
     60.6700	 1172.00	 1145.42	-1796.42	  381.40
     60.7700	 1031.00	 1000.03	-1792.03	  381.54
     60.8700	  907.00	  874.31	-1790.31	  381.67
     60.9700	  737.00	  776.62	-1862.62	  381.81
     61.0700	  676.00	  708.54	-1855.54	  381.95
     61.1700	  696.00	  667.71	-1794.71	  382.08
     61.2700	  672.00	  650.83	-1801.83	  382.22
     61.3700	  639.00	  655.99	-1839.99	  382.36
     61.4700	  651.00	  683.80	-1855.80	  382.50
     61.5700	  708.00	  736.95	-1851.95	  382.64
     61.6700	  720.00	  818.51	-1921.51	  382.78
     61.7700	  862.00	  929.15	-1890.15	  382.92
     61.8700	  951.00	 1064.26	-1936.26	  383.07
     61.9700	 1130.00	 1211.50	-1904.50	  383.21
     62.0700	 1297.00	 1349.54	-1875.54	  383.35
     62.1700	 1391.00	 1449.49	-1881.49	  383.50
     62.2700	 1374.00	 1482.98	-1931.98	  383.64
     62.3700	 1302.00	 1438.38	-1959.38	  383.78
     62.4700	 1285.00	 1329.74	-1867.74	  383.93
     62.5700	 1205.00	 1186.30	-1804.30	  384.08
     62.6700	  957.00	 1036.34	-1902.34	  384.22
     62.7700	  847.00	  899.97	-1875.97	  384.37
     62.8700	  700.00	  788.23	-1911.23	  384.52
     62.9700	  655.00	  704.37	-1872.37	  384.66
     63.0700	  623.00	  646.15	-1846.15	  384.81
     63.1700	  631.00	  608.37	-1800.37	  384.96
     63.2700	  585.00	  585.28	-1823.28	  385.11
     63.3700	  517.00	  571.95	-1877.95	  385.26
     63.4700	  526.00	  564.98	-1861.98	  385.41
     63.5700	  551.00	  562.56	-1834.56	  385.56
     63.6700	  560.00	  564.23	-1827.23	  385.71
     63.7700	  586.00	  570.76	-1807.76	  385.86
     63.8700	  586.00	  583.81	-1820.81	  386.01
     63.9700	  646.00	  605.63	-1782.63	  386.16
     64.0700	  717.00	  638.44	-1744.44	  386.31
     64.1700	  698.00	  683.52	-1808.52	  386.46
     64.2700	  768.00	  740.18	-1795.18	  386.61
     64.3700	  884.00	  804.79	-1743.79	  386.77
     64.4700	  924.00	  870.25	-1769.25	  386.92
     64.5700	  993.00	  926.33	-1756.33	  387.07
     64.6700	 1001.00	  961.48	-1783.48	  387.22
     64.7700	 1062.00	  967.48	-1728.48	  387.38
     64.8700	  994.00	  945.10	-1774.10	  387.53
     64.9700	  979.00	  900.57	-1744.57	  387.68
     65.0700	  927.00	  844.00	-1740.00	  387.84
     65.1700	  850.00	  785.40	-1758.40	  387.99
     65.2700	  764.00	  732.15	-1791.15	  388.14
     65.3700	  698.00	  687.93	-1812.93	  388.30
     65.4700	  656.00	  653.17	-1820.17	  388.45
     65.5700	  668.00	  626.36	-1781.36	  388.60
     65.6700	  618.00	  605.61	-1810.61	  388.76
     65.7700	  589.00	  589.49	-1823.49	  388.91
     65.8700	  595.00	  577.09	-1805.09	  389.07
     65.9700	  558.00	  567.83	-1832.83	  389.22
     66.0700	  551.00	  561.31	-1833.31	  389.37
     66.1700	  518.00	  557.20	-1862.20	  389.53
     66.2700	  545.00	  555.16	-1833.16	  389.68
     66.3700	  557.00	  554.89	-1820.89	  389.84
     66.4700	  558.00	  556.12	-1821.12	  389.99
     66.5700	  568.00	  558.73	-1813.73	  390.14
     66.6700	  525.00	  562.80	-1860.80	  390.30
     66.7700	  539.00	  568.89	-1852.89	  390.45
     66.8700	  586.00	  577.80	-1814.80	  390.61
     66.9700	  494.00	  591.58	-1920.58	  390.76
     67.0700	  577.00	  613.54	-1859.54	  390.91
     67.1700	  643.00	  648.84	-1828.84	  391.07
     67.2700	  672.00	  704.67	-1855.67	  391.22
     67.3700	  760.00	  789.93	-1852.93	  391.37
     67.4700	  907.00	  913.63	-1829.63	  391.52
     67.5700	 1092.00	 1082.99	-1813.99	  391.68
     67.6700	 1331.00	 1298.96	-1790.96	  391.83
     67.7700	 1494.00	 1553.89	-1882.89	  391.98
     67.8700	 1775.00	 1828.35	-1876.35	  392.13
     67.9700	 2216.00	 2090.36	-1697.36	  392.28
     68.0700	 2306.00	 2297.17	-1814.17	  392.43
     68.1700	 2520.00	 2404.00	-1707.00	  392.59
     68.2700	 2472.00	 2382.64	-1733.64	  392.74
     68.3700	 2296.00	 2239.03	-1766.03	  392.89
     68.4700	 1983.00	 2009.29	-1849.29	  393.04
     68.5700	 1720.00	 1739.31	-1842.31	  393.19
     68.6700	 1484.00	 1468.78	-1807.78	  393.34
     68.7700	 1186.00	 1225.62	-1862.62	  393.48
     68.8700	  944.00	 1025.07	-1904.07	  393.63
     68.9700	  797.00	  871.76	-1897.76	  393.78
     69.0700	  724.00	  762.08	-1861.08	  393.93
     69.1700	  689.00	  688.07	-1822.07	  394.08
     69.2700	  654.00	  640.44	-1809.44	  394.22
     69.3700	  614.00	  610.77	-1819.77	  394.37
     69.4700	  621.00	  592.51	-1794.51	  394.52
     69.5700	  619.00	  581.13	-1785.13	  394.66
     69.6700	  593.00	  573.82	-1803.82	  394.81
     69.7700	  572.00	  568.93	-1819.93	  394.95
     69.8700	  577.00	  565.57	-1811.57	  395.10
     69.9700	  565.00	  563.27	-1821.27	  395.24
     70.0700	  607.00	  561.81	-1777.81	  395.38
     70.1700	  531.00	  561.07	-1853.07	  395.52
     70.2700	  571.00	  561.04	-1813.04	  395.67
     70.3700	  551.00	  561.71	-1833.71	  395.81
     70.4700	  553.00	  563.23	-1833.23	  395.95
     70.5700	  576.00	  565.84	-1812.84	  396.09
     70.6700	  548.00	  570.08	-1845.08	  396.23
     70.7700	  604.00	  576.91	-1795.91	  396.37
     70.8700	  578.00	  587.94	-1832.94	  396.51
     70.9700	  585.00	  605.82	-1843.82	  396.64
     71.0700	  620.00	  634.36	-1837.36	  396.78
     71.1700	  649.00	  678.70	-1852.70	  396.92
     71.2700	  718.00	  744.88	-1849.88	  397.05
     71.3700	  842.00	  839.75	-1820.75	  397.19
     71.4700	  983.00	  965.95	-1805.95	  397.32
     71.5700	 1156.00	 1125.00	-1792.00	  397.45
     71.6700	 1264.00	 1311.96	-1870.96	  397.59
     71.7700	 1475.00	 1514.73	-1862.73	  397.72
     71.8700	 1652.00	 1713.47	-1884.47	  397.85
     71.9700	 1778.00	 1881.57	-1926.57	  397.98
     72.0700	 1916.00	 1989.33	-1896.33	  398.11
     72.1700	 1988.00	 2013.24	-1848.24	  398.24
     72.2700	 1938.00	 1947.67	-1832.67	  398.37
     72.3700	 1752.00	 1807.90	-1878.90	  398.49
     72.4700	 1667.00	 1622.81	-1778.81	  398.62
     72.5700	 1506.00	 1420.93	-1737.93	  398.74
     72.6700	 1377.00	 1225.58	-1671.58	  398.87
     72.7700	 1167.00	 1052.51	-1708.51	  398.99
     72.8700	 1076.00	  909.96	-1656.96	  399.11
     72.9700	  971.00	  799.67	-1651.67	  399.24
     73.0700	  846.00	  718.83	-1695.83	  399.36
     73.1700	  774.00	  662.18	-1711.18	  399.48
     73.2700	  731.00	  623.81	-1715.81	  399.60
     73.3700	  700.00	  598.35	-1721.35	  399.71
     73.4700	  717.00	  581.56	-1687.56	  399.83
     73.5700	  597.00	  570.38	-1796.38	  399.95
     73.6700	  614.00	  562.82	-1771.82	  400.06
     73.7700	  569.00	  557.70	-1811.70	  400.18
     73.8700	  613.00	  554.29	-1764.29	  400.29
     73.9700	  561.00	  552.20	-1814.20	  400.40
     74.0700	  560.00	  551.19	-1814.19	  400.51
     74.1700	  559.00	  551.07	-1815.07	  400.62
     74.2700	  542.00	  551.65	-1832.65	  400.73
     74.3700	  594.00	  552.69	-1781.69	  400.84
     74.4700	  613.00	  553.90	-1763.90	  400.95
     74.5700	  610.00	  554.93	-1767.93	  401.05
     74.6700	  629.00	  555.43	-1749.43	  401.16
     74.7700	  598.00	  555.09	-1780.09	  401.26
     74.8700	  585.00	  553.85	-1791.85	  401.36
     74.9700	  644.00	  551.85	-1730.85	  401.46
     75.0700	  584.00	  549.43	-1788.43	  401.56
     75.1700	  579.00	  547.00	-1791.00	  401.66
     75.2700	  567.00	  544.93	-1800.93	  401.76
     75.3700	  536.00	  543.67	-1830.67	  401.85
     75.4700	  587.00	  543.53	-1779.53	  401.95
     75.5700	  540.00	  545.08	-1828.08	  402.04
     75.6700	  560.00	  548.71	-1811.71	  402.14
     75.7700	  556.00	  554.83	-1821.83	  402.23
     75.8700	  571.00	  564.08	-1816.08	  402.32
     75.9700	  602.00	  576.65	-1797.66	  402.41
     76.0700	  537.00	  592.52	-1878.52	  402.50
     76.1700	  603.00	  611.18	-1831.18	  402.58
     76.2700	  656.00	  631.59	-1798.59	  402.67
     76.3700	  627.00	  652.06	-1848.06	  402.75
     76.4700	  650.00	  670.33	-1843.33	  402.83
     76.5700	  710.00	  683.81	-1796.81	  402.91
     76.6700	  688.00	  690.11	-1825.11	  402.99
     76.7700	  630.00	  687.93	-1880.93	  403.07
     76.8700	  645.00	  677.68	-1855.68	  403.15
     76.9700	  698.00	  661.32	-1786.32	  403.23
     77.0700	  623.00	  641.25	-1841.25	  403.30
     77.1700	  621.00	  620.29	-1822.29	  403.37
     77.2700	  572.00	  600.23	-1851.23	  403.44
     77.3700	  583.00	  582.42	-1822.42	  403.52
     77.4700	  521.00	  567.61	-1869.61	  403.58
     77.5700	  527.00	  555.99	-1851.99	  403.65
     77.6700	  566.00	  547.33	-1804.33	  403.72
     77.7700	  510.00	  541.19	-1854.19	  403.78
     77.8700	  543.00	  537.02	-1817.02	  403.85
     77.9700	  504.00	  534.28	-1853.28	  403.91
     78.0700	  504.00	  532.52	-1851.52	  403.97
     78.1700	  534.00	  531.42	-1820.42	  404.03
     78.2700	  494.00	  530.73	-1859.73	  404.08
     78.3700	  542.00	  530.30	-1811.30	  404.14
     78.4700	  533.00	  530.04	-1820.04	  404.19
     78.5700	  476.00	  529.90	-1876.90	  404.25
     78.6700	  515.00	  529.86	-1837.86	  404.30
     78.7700	  539.00	  529.91	-1813.91	  404.35
     78.8700	  577.00	  530.04	-1776.04	  404.39
     78.9700	  508.00	  530.29	-1845.29	  404.44
     79.0700	  486.00	  530.67	-1867.67	  404.49
     79.1700	  512.00	  531.22	-1842.22	  404.53
     79.2700	  493.00	  532.00	-1862.00	  404.57
     79.3700	  511.00	  532.88	-1844.88	  404.61
     79.4700	  547.00	  534.30	-1810.30	  404.65
     79.5700	  514.00	  536.16	-1845.16	  404.69
     79.6700	  550.00	  538.56	-1811.56	  404.72
     79.7700	  477.00	  541.61	-1887.61	  404.76
     79.8700	  516.00	  545.45	-1852.45	  404.79
     79.9700	  508.00	  550.26	-1865.26	  404.82
     80.0700	  560.00	  556.23	-1819.23	  404.85
     80.1700	  537.00	  563.59	-1849.59	  404.87
     80.2700	  520.00	  572.59	-1875.59	  404.90
     80.3700	  578.00	  583.51	-1828.51	  404.92
     80.4700	  529.00	  596.54	-1890.54	  404.95
     80.5700	  583.00	  611.72	-1851.72	  404.97
     80.6700	  572.00	  628.84	-1879.84	  404.99
     80.7700	  577.00	  647.30	-1893.30	  405.00
     80.8700	  663.00	  666.18	-1826.18	  405.02
     80.9700	  604.00	  684.17	-1903.17	  405.03
     81.0700	  699.00	  699.88	-1823.88	  405.04
     81.1700	  703.00	  712.02	-1832.02	  405.05
     81.2700	  718.00	  719.70	-1824.70	  405.06
     81.3700	  738.00	  722.41	-1807.41	  405.07
     81.4700	  725.00	  720.06	-1818.06	  405.07
     81.5700	  768.00	  713.04	-1768.04	  405.08
     81.6700	  763.00	  702.12	-1762.12	  405.08
     81.7700	  829.00	  688.21	-1682.21	  405.08
     81.8700	  747.00	  672.22	-1748.22	  405.08
     81.9700	  742.00	  655.03	-1736.03	  405.07
     82.0700	  695.00	  637.68	-1765.68	  405.07
     82.1700	  678.00	  620.98	-1765.98	  405.06
     82.2700	  675.00	  605.57	-1753.57	  405.05
     82.3700	  610.00	  591.84	-1804.84	  405.04
     82.4700	  584.00	  579.99	-1818.99	  405.03
     82.5700	  554.00	  570.01	-1839.01	  405.01
     82.6700	  614.00	  561.95	-1770.95	  405.00
     82.7700	  578.00	  555.70	-1800.70	  404.98
     82.8700	  552.00	  551.16	-1822.16	  404.96
     82.9700	  530.00	  548.23	-1841.23	  404.94
     83.0700	  495.00	  546.81	-1874.81	  404.91
     83.1700	  517.00	  546.80	-1852.80	  404.89
     83.2700	  595.00	  548.10	-1776.10	  404.86
     83.3700	  579.00	  550.61	-1794.61	  404.83
     83.4700	  538.00	  554.14	-1839.14	  404.80
     83.5700	  544.00	  558.46	-1837.46	  404.76
     83.6700	  567.00	  563.24	-1819.24	  404.73
     83.7700	  568.00	  568.08	-1823.08	  404.69
     83.8700	  543.00	  572.47	-1852.47	  404.65
     83.9700	  512.00	  575.88	-1886.88	  404.61
     84.0700	  553.00	  577.78	-1847.78	  404.57
     84.1700	  547.00	  577.83	-1853.83	  404.53
     84.2700	  554.00	  575.98	-1844.98	  404.48
     84.3700	  552.00	  572.48	-1843.48	  404.43
     84.4700	  570.00	  567.78	-1820.78	  404.38
     84.5700	  507.00	  562.40	-1878.40	  404.33
     84.6700	  494.00	  556.81	-1885.81	  404.27
     84.7700	  530.00	  551.41	-1844.41	  404.22
     84.8700	  521.00	  546.47	-1848.47	  404.16
     84.9700	  538.00	  542.18	-1827.18	  404.10
     85.0700	  514.00	  538.63	-1847.63	  404.04
     85.1700	  502.00	  535.82	-1856.82	  403.98
     85.2700	  566.00	  533.71	-1790.71	  403.91
     85.3700	  483.00	  532.21	-1872.21	  403.84
     85.4700	  516.00	  531.23	-1838.23	  403.77
     85.5700	  516.00	  530.68	-1837.68	  403.70
     85.6700	  542.00	  530.48	-1811.48	  403.63
     85.7700	  499.00	  530.59	-1854.59	  403.55
     85.8700	  503.00	  530.97	-1850.97	  403.48
     85.9700	  508.00	  531.62	-1846.62	  403.40
     86.0700	  539.00	  532.56	-1816.56	  403.32
     86.1700	  535.00	  533.86	-1821.86	  403.23
     86.2700	  538.00	  535.59	-1820.59	  403.15
     86.3700	  556.00	  537.86	-1804.86	  403.06
     86.4700	  500.00	  540.80	-1863.80	  402.97
     86.5700	  577.00	  544.54	-1790.54	  402.88
     86.6700	  566.00	  549.20	-1806.20	  402.79
     86.7700	  567.00	  554.55	-1810.55	  402.69
     86.8700	  550.00	  561.19	-1834.19	  402.59
     86.9700	  567.00	  568.68	-1824.68	  402.50
     87.0700	  579.00	  576.72	-1820.72	  402.39
     87.1700	  573.00	  584.90	-1834.90	  402.29
     87.2700	  646.00	  592.63	-1769.63	  402.19
     87.3700	  617.00	  599.25	-1805.25	  402.08
     87.4700	  622.00	  604.06	-1805.06	  401.97
     87.5700	  642.00	  606.47	-1787.47	  401.86
     87.6700	  648.00	  606.15	-1781.15	  401.75
     87.7700	  582.00	  603.20	-1844.20	  401.63
     87.8700	  678.00	  598.07	-1743.07	  401.52
     87.9700	  637.00	  591.48	-1777.48	  401.40
     88.0700	  591.00	  584.23	-1816.23	  401.28
     88.1700	  620.00	  577.10	-1780.10	  401.15
     88.2700	  601.00	  570.77	-1792.77	  401.03
     88.3700	  566.00	  565.77	-1822.77	  400.90
     88.4700	  601.00	  562.50	-1784.50	  400.77
     88.5700	  565.00	  561.17	-1819.17	  400.64
     88.6700	  595.00	  561.84	-1789.84	  400.51
     88.7700	  569.00	  564.39	-1818.39	  400.38
     88.8700	  578.00	  568.56	-1813.56	  400.24
     88.9700	  572.00	  573.96	-1824.96	  400.10
     89.0700	  598.00	  580.08	-1805.08	  399.96
     89.1700	  599.00	  586.33	-1810.33	  399.82
     89.2700	  566.00	  592.04	-1849.04	  399.67
     89.3700	  660.00	  596.54	-1759.54	  399.53
     89.4700	  614.00	  599.22	-1808.22	  399.38
     89.5700	  617.00	  599.66	-1805.66	  399.23
     89.6700	  596.00	  597.74	-1824.74	  399.08
     89.7700	  588.00	  593.68	-1828.68	  398.92
     89.8700	  520.00	  587.95	-1890.95	  398.77
     89.9700	  536.00	  581.10	-1868.10	  398.61
     90.0700	  556.00	  573.72	-1840.72	  398.45
     90.1700	  587.00	  566.31	-1802.31	  398.29
     90.2700	  539.00	  559.26	-1843.26	  398.12
     90.3700	  523.00	  552.87	-1852.87	  397.96
     90.4700	  480.00	  547.32	-1890.32	  397.79
     90.5700	  494.00	  542.70	-1871.70	  397.62
     90.6700	  540.00	  539.00	-1822.00	  397.45
     90.7700	  520.00	  536.16	-1839.16	  397.27
     90.8700	  545.00	  534.09	-1812.09	  397.10
     90.9700	  507.00	  532.68	-1848.68	  396.92
     91.0700	  478.00	  531.81	-1876.81	  396.74
     91.1700	  522.00	  531.42	-1832.42	  396.56
     91.2700	  527.00	  531.44	-1827.44	  396.38
     91.3700	  527.00	  531.85	-1827.85	  396.19
     91.4700	  495.00	  532.67	-1860.67	  396.00
     91.5700	  532.00	  533.97	-1824.97	  395.81
     91.6700	  520.00	  535.84	-1838.84	  395.62
     91.7700	  534.00	  538.43	-1827.43	  395.43
     91.8700	  494.00	  541.67	-1870.67	  395.24
     91.9700	  522.00	  546.22	-1847.22	  395.04
     92.0700	  559.00	  552.02	-1816.02	  394.84
     92.1700	  546.00	  559.26	-1836.26	  394.64
     92.2700	  589.00	  568.05	-1802.05	  394.44
     92.3700	  544.00	  578.47	-1857.47	  394.24
     92.4700	  541.00	  590.46	-1872.46	  394.03
     92.5700	  547.00	  603.91	-1879.91	  393.82
     92.6700	  674.00	  618.54	-1767.54	  393.61
     92.7700	  684.00	  633.97	-1772.97	  393.40
     92.8700	  661.00	  649.73	-1811.73	  393.19
     92.9700	  658.00	  665.21	-1830.21	  392.98
     93.0700	  694.00	  679.81	-1808.81	  392.76
     93.1700	  756.00	  693.02	-1760.02	  392.54
     93.2700	  779.00	  704.54	-1748.54	  392.32
     93.3700	  763.00	  714.44	-1774.44	  392.10
     93.4700	  836.00	  723.14	-1710.14	  391.88
     93.5700	  779.00	  731.26	-1775.26	  391.65
     93.6700	  845.00	  739.52	-1717.52	  391.42
     93.7700	  839.00	  748.52	-1732.52	  391.19
     93.8700	  889.00	  758.79	-1692.79	  390.96
     93.9700	  790.00	  770.69	-1803.69	  390.73
     94.0700	  812.00	  784.51	-1795.51	  390.50
     94.1700	  881.00	  800.43	-1742.43	  390.26
     94.2700	  887.00	  818.43	-1754.43	  390.02
     94.3700	  890.00	  838.19	-1771.19	  389.78
     94.4700	  894.00	  858.98	-1787.98	  389.54
     94.5700	  889.00	  879.65	-1813.65	  389.30
     94.6700	  939.00	  898.64	-1782.64	  389.06
     94.7700	  915.00	  914.08	-1822.08	  388.81
     94.8700	  925.00	  924.03	-1822.03	  388.56
     94.9700	  821.00	  926.81	-1928.81	  388.31
     95.0700	  907.00	  921.47	-1837.47	  388.06
     95.1700	  869.00	  908.01	-1862.01	  387.81
     95.2700	  870.00	  887.44	-1840.44	  387.56
     95.3700	  910.00	  861.49	-1774.49	  387.30
     95.4700	  766.00	  832.21	-1889.21	  387.05
     95.5700	  772.00	  801.73	-1852.73	  386.79
     95.6700	  717.00	  772.05	-1878.05	  386.53
     95.7700	  769.00	  745.04	-1799.04	  386.26
     95.8700	  637.00	  722.35	-1908.35	  386.00
     95.9700	  664.00	  705.44	-1864.44	  385.74
     96.0700	  664.00	  695.59	-1854.59	  385.47
     96.1700	  648.00	  693.94	-1868.94	  385.20
     96.2700	  663.00	  701.44	-1861.44	  384.93
     96.3700	  703.00	  718.87	-1838.87	  384.66
     96.4700	  748.00	  746.77	-1821.77	  384.39
     96.5700	  697.00	  785.38	-1911.38	  384.12
     96.6700	  853.00	  834.55	-1804.55	  383.84
     96.7700	  852.00	  893.64	-1864.64	  383.57
     96.8700	  936.00	  961.38	-1848.38	  383.29
     96.9700	 1024.00	 1035.84	-1834.84	  383.01
     97.0700	 1127.00	 1114.33	-1810.33	  382.73
     97.1700	 1214.00	 1193.49	-1802.49	  382.45
     97.2700	 1263.00	 1269.33	-1829.33	  382.16
     97.3700	 1279.00	 1337.32	-1881.32	  381.88
     97.4700	 1381.00	 1392.81	-1834.81	  381.59
     97.5700	 1466.00	 1431.50	-1788.50	  381.30
     97.6700	 1504.00	 1450.17	-1769.17	  381.02
     97.7700	 1403.00	 1447.40	-1867.40	  380.73
     97.8700	 1423.00	 1423.86	-1823.86	  380.43
     97.9700	 1371.00	 1382.11	-1834.11	  380.14
     98.0700	 1278.00	 1326.06	-1871.06	  379.85
     98.1700	 1228.00	 1260.10	-1855.10	  379.55
     98.2700	 1227.00	 1188.75	-1784.75	  379.26
     98.3700	 1087.00	 1116.27	-1852.27	  378.96
     98.4700	 1023.00	 1046.42	-1846.42	  378.66
     98.5700	  952.00	  982.41	-1853.41	  378.36
     98.6700	  905.00	  926.83	-1844.83	  378.06
     98.7700	  855.00	  881.66	-1849.66	  377.76
     98.8700	  825.00	  848.43	-1846.43	  377.46
     98.9700	  789.00	  828.18	-1862.18	  377.15
     99.0700	  739.00	  821.66	-1905.66	  376.85
     99.1700	  783.00	  829.30	-1869.30	  376.54
     99.2700	  786.00	  851.32	-1888.32	  376.23
     99.3700	  828.00	  887.76	-1882.76	  375.93
     99.4700	  897.00	  938.38	-1864.38	  375.62
     99.5700	 1001.00	 1002.71	-1824.71	  375.31
     99.6700	 1062.00	 1079.93	-1840.93	  375.00
     99.7700	 1162.00	 1168.81	-1829.81	  374.68
     99.8700	 1217.00	 1267.60	-1873.60	  374.37
     99.9700	 1341.00	 1373.92	-1855.92	  374.06
    100.0700	 1421.00	 1484.75	-1886.75	  373.74
    100.1700	 1588.00	 1596.39	-1831.39	  373.43
    100.2700	 1722.00	 1704.67	-1805.67	  373.11
    100.3700	 1726.00	 1805.22	-1902.22	  372.79
    100.4700	 1849.00	 1893.97	-1867.97	  372.48
    100.5700	 1980.00	 1967.62	-1810.62	  372.16
    100.6700	 2072.00	 2023.80	-1774.80	  371.84
    100.7700	 2171.00	 2060.99	-1712.99	  371.52
    100.8700	 2184.00	 2078.23	-1717.23	  371.20
    100.9700	 2141.00	 2074.85	-1756.85	  370.87
    101.0700	 2135.00	 2050.71	-1738.71	  370.55
    101.1700	 2111.00	 2006.43	-1718.43	  370.23
    101.2700	 2003.00	 1943.88	-1763.88	  369.91
    101.3700	 2039.00	 1866.34	-1650.34	  369.58
    101.4700	 1795.00	 1778.20	-1806.20	  369.26
    101.5700	 1709.00	 1684.43	-1798.43	  368.93
    101.6700	 1589.00	 1589.94	-1823.94	  368.61
    101.7700	 1509.00	 1499.06	-1813.06	  368.28
    101.8700	 1378.00	 1415.25	-1860.25	  367.95
    101.9700	 1397.00	 1340.99	-1766.99	  367.62
    102.0700	 1342.00	 1277.66	-1758.66	  367.30
    102.1700	 1298.00	 1225.58	-1750.58	  366.97
    102.2700	 1190.00	 1184.10	-1817.10	  366.64
    102.3700	 1154.00	 1151.69	-1820.69	  366.31
    102.4700	 1102.00	 1126.18	-1847.18	  365.98
    102.5700	 1063.00	 1104.95	-1864.95	  365.65
    102.6700	 1065.00	 1085.26	-1843.26	  365.32
    102.7700	 1056.00	 1064.61	-1831.61	  364.99
    102.8700	 1015.00	 1041.06	-1849.06	  364.66
    102.9700	 1043.00	 1013.48	-1793.48	  364.33
    103.0700	  978.00	  981.62	-1826.62	  364.00
    103.1700	  916.00	  945.90	-1852.90	  363.67
    103.2700	  892.00	  907.26	-1838.26	  363.34
    103.3700	  810.00	  866.85	-1879.85	  363.00
    103.4700	  845.00	  825.92	-1803.92	  362.67
    103.5700	  793.00	  785.67	-1815.67	  362.34
    103.6700	  769.00	  747.16	-1801.16	  362.01
    103.7700	  708.00	  711.24	-1826.24	  361.68
    103.8700	  697.00	  678.58	-1804.58	  361.34
    103.9700	  616.00	  649.60	-1856.60	  361.01
    104.0700	  612.00	  624.50	-1835.50	  360.68
    104.1700	  641.00	  603.29	-1785.29	  360.35
    104.2700	  618.00	  585.82	-1790.82	  360.02
    104.3700	  559.00	  571.81	-1835.81	  359.69
    104.4700	  516.00	  560.91	-1867.91	  359.36
    104.5700	  563.00	  552.75	-1812.75	  359.02
    104.6700	  512.00	  546.93	-1857.93	  358.69
    104.7700	  546.00	  543.06	-1820.06	  358.36
    104.8700	  564.00	  540.82	-1799.82	  358.03
    104.9700	  545.00	  539.90	-1817.90	  357.70
    105.0700	  546.00	  540.03	-1817.03	  357.37
    105.1700	  524.00	  540.98	-1839.98	  357.04
    105.2700	  512.00	  542.62	-1853.62	  356.72
    105.3700	  524.00	  544.80	-1843.80	  356.39
    105.4700	  534.00	  547.41	-1836.41	  356.06
    105.5700	  494.00	  550.39	-1879.39	  355.73
    105.6700	  510.00	  553.73	-1866.73	  355.41
    105.7700	  518.00	  557.45	-1862.45	  355.08
    105.8700	  497.00	  561.60	-1887.60	  354.75
    105.9700	  513.00	  566.28	-1876.28	  354.43
    106.0700	  564.00	  571.60	-1830.60	  354.10
    106.1700	  584.00	  577.66	-1816.66	  353.78
    106.2700	  544.00	  584.54	-1863.54	  353.46
    106.3700	  559.00	  592.28	-1856.28	  353.13
    106.4700	  627.00	  600.85	-1796.85	  352.81
    106.5700	  655.00	  610.14	-1778.14	  352.49
    106.6700	  593.00	  619.97	-1849.97	  352.17
    106.7700	  626.00	  630.08	-1827.08	  351.85
    106.8700	  587.00	  640.16	-1876.16	  351.54
    106.9700	  669.00	  649.81	-1803.81	  351.22
    107.0700	  645.00	  658.63	-1836.63	  350.90
    107.1700	  650.00	  666.20	-1839.20	  350.59
    107.2700	  665.00	  672.13	-1830.13	  350.27
    107.3700	  593.00	  676.16	-1906.16	  349.96
    107.4700	  721.00	  678.18	-1780.18	  349.65
    107.5700	  687.00	  678.25	-1814.25	  349.34
    107.6700	  658.00	  676.65	-1841.65	  349.03
    107.7700	  664.00	  673.77	-1832.77	  348.72
    107.8700	  648.00	  670.08	-1845.08	  348.41
    107.9700	  677.00	  666.09	-1812.09	  348.11
    108.0700	  669.00	  662.23	-1816.23	  347.80
    108.1700	  612.00	  658.89	-1869.89	  347.50
    108.2700	  646.00	  656.34	-1833.34	  347.20
    108.3700	  717.00	  654.71	-1760.71	  346.90
    108.4700	  650.00	  654.06	-1827.06	  346.60
    108.5700	  677.00	  654.26	-1800.26	  346.30
    108.6700	  697.00	  655.13	-1781.13	  346.01
    108.7700	  666.00	  656.36	-1813.36	  345.72
    108.8700	  646.00	  657.54	-1834.54	  345.42
    108.9700	  683.00	  658.28	-1798.28	  345.13
    109.0700	  638.00	  658.14	-1843.14	  344.84
    109.1700	  689.00	  656.77	-1790.77	  344.56
    109.2700	  667.00	  653.90	-1809.90	  344.27
    109.3700	  659.00	  649.43	-1813.43	  343.99
    109.4700	  613.00	  643.37	-1853.37	  343.71
    109.5700	  581.00	  635.90	-1877.90	  343.43
    109.6700	  621.00	  627.26	-1829.26	  343.15
    109.7700	  605.00	  617.77	-1835.77	  342.87
    109.8700	  644.00	  607.77	-1786.77	  342.60
    109.9700	  596.00	  597.58	-1824.58	  342.33
    110.0700	  562.00	  587.53	-1848.53	  342.06
    110.1700	  584.00	  577.87	-1816.87	  341.79
    110.2700	  571.00	  568.84	-1820.84	  341.53
    110.3700	  574.00	  560.61	-1809.61	  341.27
    110.4700	  565.00	  553.30	-1811.30	  341.00
    110.5700	  554.00	  546.99	-1815.99	  340.75
    110.6700	  586.00	  541.70	-1778.70	  340.49
    110.7700	  524.00	  537.42	-1836.42	  340.24
    110.8700	  512.00	  534.10	-1845.10	  339.99
    110.9700	  520.00	  531.67	-1834.67	  339.74
    111.0700	  577.00	  530.05	-1776.05	  339.49
    111.1700	  525.00	  529.14	-1827.14	  339.25
    111.2700	  505.00	  528.87	-1846.87	  339.01
    111.3700	  520.00	  529.13	-1832.13	  338.77
    111.4700	  526.00	  529.86	-1826.86	  338.54
    111.5700	  538.00	  530.98	-1815.98	  338.30
    111.6700	  523.00	  532.45	-1832.45	  338.07
    111.7700	  552.00	  534.20	-1805.20	  337.85
    111.8700	  527.00	  536.21	-1832.21	  337.62
    111.9700	  521.00	  538.46	-1840.46	  337.40
    112.0700	  496.00	  540.94	-1867.94	  337.19
    112.1700	  549.00	  543.63	-1817.63	  336.97
    112.2700	  554.00	  546.54	-1815.54	  336.76
    112.3700	  555.00	  549.71	-1817.71	  336.55
    112.4700	  603.00	  553.13	-1773.13	  336.35
    112.5700	  530.00	  556.87	-1849.87	  336.14
    112.6700	  608.00	  560.95	-1775.95	  335.95
    112.7700	  567.00	  565.45	-1821.45	  335.75
    112.8700	  607.00	  570.45	-1786.45	  335.56
    112.9700	  636.00	  576.05	-1763.05	  335.37
    113.0700	  613.00	  582.37	-1792.37	  335.18
    113.1700	  641.00	  589.62	-1771.62	  335.00
    113.2700	  674.00	  598.01	-1747.01	  334.83
    113.3700	  699.00	  607.84	-1731.84	  334.65
    113.4700	  751.00	  619.47	-1691.47	  334.48
    113.5700	  767.00	  633.39	-1689.39	  334.31
    113.6700	  773.00	  650.20	-1700.20	  334.15
    113.7700	  816.00	  670.64	-1677.64	  333.99
    113.8700	  887.00	  695.61	-1631.61	  333.84
    113.9700	  910.00	  726.21	-1639.21	  333.68
    114.0700	  991.00	  763.73	-1595.73	  333.54
    114.1700	 1018.00	  809.71	-1614.71	  333.39
    114.2700	 1093.00	  865.87	-1595.87	  333.25
    114.3700	 1198.00	  934.17	-1559.17	  333.12
    114.4700	 1208.00	 1016.73	-1631.73	  332.99
    114.5700	 1258.00	 1115.85	-1680.85	  332.86
    114.6700	 1423.00	 1233.93	-1633.93	  332.74
    114.7700	 1589.00	 1373.32	-1607.32	  332.62
    114.8700	 1679.00	 1536.32	-1680.32	  332.51
    114.9700	 1822.00	 1724.93	-1725.93	  332.40
    115.0700	 2010.00	 1940.85	-1753.85	  332.30
    115.1700	 2262.00	 2185.27	-1746.27	  332.20
    115.2700	 2625.00	 2458.62	-1656.62	  332.10
    115.3700	 2715.00	 2760.51	-1868.51	  332.01
    115.4700	 2978.00	 3089.54	-1934.54	  331.92
    115.5700	 3246.00	 3443.28	-2020.28	  331.84
    115.6700	 3682.00	 3818.15	-1959.15	  331.77
    115.7700	 4013.00	 4209.21	-2019.21	  331.70
    115.8700	 4299.00	 4610.32	-2134.32	  331.63
    115.9700	 4727.00	 5014.06	-2110.06	  331.57
    116.0700	 5198.00	 5411.95	-2036.95	  331.51
    116.1700	 5542.00	 5794.44	-2075.44	  331.46
    116.2700	 6004.00	 6151.06	-1970.06	  331.41
    116.3700	 6375.00	 6470.79	-1918.79	  331.37
    116.4700	 6667.00	 6742.59	-1898.59	  331.34
    116.5700	 6813.00	 6956.08	-1966.08	  331.31
    116.6700	 7127.00	 7102.41	-1798.41	  331.29
    116.7700	 7206.00	 7175.08	-1792.08	  331.27
    116.8700	 7292.00	 7170.84	-1701.84	  331.25
    116.9700	 7106.00	 7090.13	-1807.13	  331.25
    117.0700	 7111.00	 6936.97	-1648.97	  331.24
    117.1700	 6865.00	 6718.42	-1676.42	  331.25
    117.2700	 6467.00	 6443.78	-1799.78	  331.26
    117.3700	 6194.00	 6123.66	-1752.66	  331.27
    117.4700	 5713.00	 5769.13	-1879.13	  331.29
    117.5700	 5262.00	 5390.99	-1951.99	  331.32
    117.6700	 5011.00	 4999.35	-1811.35	  331.35
    117.7700	 4657.00	 4603.53	-1769.53	  331.39
    117.8700	 4405.00	 4211.69	-1629.69	  331.44
    117.9700	 4129.00	 3830.83	-1524.83	  331.49
    118.0700	 3635.00	 3466.55	-1654.55	  331.55
    118.1700	 3282.00	 3123.24	-1664.24	  331.61
    118.2700	 2923.00	 2804.17	-1704.17	  331.69
    118.3700	 2632.00	 2511.39	-1702.39	  331.76
    118.4700	 2240.00	 2245.99	-1828.99	  331.85
    118.5700	 1948.00	 2008.07	-1883.07	  331.94
    118.6700	 1678.00	 1797.01	-1942.01	  332.04
    118.7700	 1600.00	 1611.64	-1834.64	  332.14
    118.8700	 1332.00	 1450.34	-1941.34	  332.25
    118.9700	 1139.00	 1311.19	-1995.19	  332.37
    119.0700	 1061.00	 1192.03	-1954.03	  332.49
    119.1700	 1057.00	 1090.68	-1856.68	  332.63
    119.2700	  843.00	 1004.98	-1984.98	  332.76
    119.3700	  847.00	  932.85	-1908.85	  332.91
    119.4700	  756.00	  872.39	-1939.39	  333.06
    119.5700	  756.00	  821.82	-1888.82	  333.22
    119.6700	  698.00	  779.60	-1904.60	  333.39
    119.7700	  676.00	  744.38	-1891.38	  333.57
    119.8700	  633.00	  714.99	-1904.99	  333.75
    119.9700	  625.00	  690.45	-1888.45	  333.94
    120.0700	  607.00	  669.95	-1885.95	  334.14
    120.1700	  607.00	  652.79	-1868.79	  334.34
    120.2700	  589.00	  638.43	-1872.43	  334.56
    120.3700	  565.00	  626.41	-1884.41	  334.78
    120.4700	  556.00	  616.38	-1883.38	  335.01
    120.5700	  564.00	  608.03	-1867.03	  335.25
    120.6700	  555.00	  601.13	-1869.13	  335.49
    120.7700	  606.00	  595.51	-1812.51	  335.74
    120.8700	  564.00	  591.00	-1850.00	  336.01
    120.9700	  601.00	  587.49	-1809.49	  336.28
    121.0700	  541.00	  584.90	-1866.90	  336.55
    121.1700	  556.00	  583.14	-1850.14	  336.84
    121.2700	  544.00	  582.15	-1861.15	  337.14
    121.3700	  558.00	  581.89	-1846.89	  337.44
    121.4700	  555.00	  582.29	-1850.29	  337.75
    121.5700	  543.00	  583.32	-1863.32	  338.07
    121.6700	  530.00	  584.92	-1877.92	  338.40
    121.7700	  546.00	  587.04	-1864.04	  338.74
    121.8700	  589.00	  589.61	-1823.61	  339.09
    121.9700	  592.00	  592.57	-1823.57	  339.45
    122.0700	  630.00	  595.84	-1788.84	  339.81
    122.1700	  608.00	  599.33	-1814.33	  340.19
    122.2700	  612.00	  602.95	-1813.95	  340.57
    122.3700	  591.00	  606.58	-1838.58	  340.96
    122.4700	  580.00	  610.13	-1853.13	  341.37
    122.5700	  616.00	  613.47	-1820.47	  341.78
    122.6700	  642.00	  616.51	-1797.51	  342.20
    122.7700	  651.00	  619.11	-1791.11	  342.63
    122.8700	  648.00	  621.19	-1796.19	  343.07
    122.9700	  654.00	  622.67	-1791.67	  343.52
    123.0700	  638.00	  623.50	-1808.50	  343.98
    123.1700	  638.00	  623.64	-1808.64	  344.46
    123.2700	  640.00	  623.10	-1806.10	  344.94
    123.3700	  621.00	  621.90	-1823.90	  345.43
    123.4700	  634.00	  620.10	-1809.10	  345.93
    123.5700	  634.00	  617.77	-1806.77	  346.44
    123.6700	  653.00	  614.98	-1784.98	  346.96
    123.7700	  606.00	  611.82	-1828.82	  347.49
    123.8700	  648.00	  608.36	-1783.36	  348.03
    123.9700	  582.00	  604.70	-1845.70	  348.59
    124.0700	  644.00	  600.90	-1779.90	  349.15
    124.1700	  656.00	  597.05	-1764.05	  349.73
    124.2700	  610.00	  593.20	-1806.20	  350.31
    124.3700	  625.00	  589.42	-1787.42	  350.91
    124.4700	  592.00	  585.75	-1816.75	  351.51
    124.5700	  572.00	  582.24	-1833.24	  352.13
    124.6700	  603.00	  578.91	-1798.91	  352.76
    124.7700	  609.00	  575.79	-1789.79	  353.40
    124.8700	  580.00	  572.90	-1815.90	  354.05
    124.9700	  606.00	  465.13	-1682.13	  354.72
    125.0700	  583.00	  465.81	-1823.00	  355.39
    125.1700	  538.00	  466.49	-1823.00	  356.08
    125.2700	  546.00	  467.19	-1823.00	  356.78
    125.3700	  577.00	  467.90	-1823.00	  357.49
    125.4700	  644.00	  468.62	-1823.00	  358.21
    125.5700	  574.00	  469.36	-1823.00	  358.94
    125.6700	  606.00	  470.10	-1823.00	  359.69
    125.7700	  559.00	  470.86	-1823.00	  360.45
    125.8700	  526.00	  471.63	-1823.00	  361.22
    125.9700	  538.00	  472.41	-1823.00	  362.00
    126.0700	  547.00	  473.21	-1823.00	  362.79
    126.1700	  559.00	  474.01	-1823.00	  363.60
    126.2700	  528.00	  474.83	-1823.00	  364.42
    126.3700	  570.00	  475.67	-1823.00	  365.25
    126.4700	  555.00	  476.51	-1823.00	  366.10
    126.5700	  556.00	  477.37	-1823.00	  366.95
    126.6700	  608.00	  478.24	-1823.00	  367.83
    126.7700	  545.00	  479.12	-1823.00	  368.71
    126.8700	  560.00	  480.02	-1823.00	  369.61
    126.9700	  618.00	  480.93	-1823.00	  370.52
    127.0700	  611.00	  481.85	-1823.00	  371.44
    127.1700	  625.00	  482.79	-1823.00	  372.38
    127.2700	  613.00	  483.74	-1823.00	  373.33
    127.3700	  633.00	  484.70	-1823.00	  374.29
    127.4700	  651.00	  485.68	-1823.00	  375.27
    127.5700	  662.00	  486.67	-1823.00	  376.26
    127.6700	  631.00	  487.68	-1823.00	  377.26
    127.7700	  675.00	  488.70	-1823.00	  378.28
    127.8700	  663.00	  489.73	-1823.00	  379.31
    127.9700	  651.00	  490.78	-1823.00	  380.36
    128.0700	  708.00	  491.84	-1823.00	  381.42
    128.1700	  715.00	  492.91	-1823.00	  382.50
    128.2700	  734.00	  494.00	-1823.00	  383.59
    128.3700	  761.00	  495.11	-1823.00	  384.69
    128.4700	  766.00	  496.23	-1823.00	  385.81
    128.5700	    0.00	  497.36	-1823.00	  386.94
    128.6700	    0.00	  498.51	-1823.00	  388.09
     12.3213	        	        	        	        	       0	(  0  0  2)	  0  1
     24.9244	        	        	        	        	       0	(  0  0  4)	  0  1
     28.3523	        	        	        	        	       0	(  1  0  0)	  0  1
     29.0511	        	        	        	        	       0	(  1  0  1)	  0  1
     31.0617	        	        	        	        	       0	(  1  0  2)	  0  1
     34.1767	        	        	        	        	       0	(  1  0  3)	  0  1
     37.8450	        	        	        	        	       0	(  0  0  6)	  0  1
     38.1620	        	        	        	        	       0	(  1  0  4)	  0  1
     42.8216	        	        	        	        	       0	(  1  0  5)	  0  1
     48.0161	        	        	        	        	       0	(  1  0  6)	  0  1
     50.3108	        	        	        	        	       0	(  1  1  0)	  0  1
     51.2906	        	        	        	        	       0	(  0  0  8)	  0  1
     52.0380	        	        	        	        	       0	(  1  1  2)	  0  1
     53.6580	        	        	        	        	       0	(  1  0  7)	  0  1
     56.9975	        	        	        	        	       0	(  1  1  4)	  0  1
     58.8172	        	        	        	        	       0	(  2  0  0)	  0  1
     59.2097	        	        	        	        	       0	(  2  0  1)	  0  1
     59.7010	        	        	        	        	       0	(  1  0  8)	  0  1
     60.3780	        	        	        	        	       0	(  2  0  2)	  0  1
     62.2960	        	        	        	        	       0	(  2  0  3)	  0  1
     64.7104	        	        	        	        	       0	(  1  1  6)	  0  1
     64.9265	        	        	        	        	       0	(  2  0  4)	  0  1
     65.5480	        	        	        	        	       0	(  0  0 10)	  0  1
     66.1313	        	        	        	        	       0	(  1  0  9)	  0  1
     68.2290	        	        	        	        	       0	(  2  0  5)	  0  1
     72.1664	        	        	        	        	       0	(  2  0  6)	  0  1
     72.9632	        	        	        	        	       0	(  1  0 10)	  0  1
     74.7728	        	        	        	        	       0	(  1  1  8)	  0  1
     76.7123	        	        	        	        	       0	(  2  0  7)	  0  1
     80.2389	        	        	        	        	       0	(  1  0 11)	  0  1
     81.0648	        	        	        	        	       0	(  0  0 12)	  0  1
     81.0875	        	        	        	        	       0	(  2  1  0)	  0  1
     81.4283	        	        	        	        	       0	(  2  1  1)	  0  1
     81.8564	        	        	        	        	       0	(  2  0  8)	  0  1
     82.4491	        	        	        	        	       0	(  2  1  2)	  0  1
     84.1452	        	        	        	        	       0	(  2  1  3)	  0  1
     86.5117	        	        	        	        	       0	(  2  1  4)	  0  1
     87.0775	        	        	        	        	       0	(  1  1 10)	  0  1
     87.6107	        	        	        	        	       0	(  2  0  9)	  0  1
     88.0347	        	        	        	        	       0	(  1  0 12)	  0  1
     89.5466	        	        	        	        	       0	(  2  1  5)	  0  1
     93.2555	        	        	        	        	       0	(  2  1  6)	  0  1
     94.0178	        	        	        	        	       0	(  2  0 10)	  0  1
     94.9998	        	        	        	        	       0	(  3  0  0)	  0  1
     95.3383	        	        	        	        	       0	(  3  0  1)	  0  1
     96.3548	        	        	        	        	       0	(  3  0  2)	  0  1
     96.4744	        	        	        	        	       0	(  1  0 13)	  0  1
     97.6584	        	        	        	        	       0	(  2  1  7)	  0  1
     98.0537	        	        	        	        	       0	(  3  0  3)	  0  1
     98.6574	        	        	        	        	       0	(  0  0 14)	  0  1
    100.4448	        	        	        	        	       0	(  3  0  4)	  0  1
    101.1640	        	        	        	        	       0	(  2  0 11)	  0  1
    101.9966	        	        	        	        	       0	(  1  1 12)	  0  1
    102.7987	        	        	        	        	       0	(  2  1  8)	  0  1
    103.5474	        	        	        	        	       0	(  3  0  5)	  0  1
    105.7616	        	        	        	        	       0	(  1  0 14)	  0  1
    107.3968	        	        	        	        	       0	(  3  0  6)	  0  1
    108.7585	        	        	        	        	       0	(  2  1  9)	  0  1
    109.2069	        	        	        	        	       0	(  2  0 12)	  0  1
    112.0560	        	        	        	        	       0	(  3  0  7)	  0  1
    115.6858	        	        	        	        	       0	(  2  1 10)	  0  1
    116.2541	        	        	        	        	       0	(  1  0 15)	  0  1
    116.7783	        	        	        	        	       0	(  2  2  0)	  0  1
    117.6346	        	        	        	        	       0	(  3  0  8)	  0  1
    118.3003	        	        	        	        	       0	(  2  2  2)	  0  1
    118.4356	        	        	        	        	       0	(  2  0 13)	  0  1
    120.2457	        	        	        	        	       0	(  0  0 16)	  0  1
    120.9289	        	        	        	        	       0	(  1  1 14)	  0  1
    123.0089	        	        	        	        	       0	(  2  2  4)	  0  1
    123.8563	        	        	        	        	       0	(  2  1 11)	  0  1
    124.3298	        	        	        	        	       0	(  3  0  9)	  0  1
    124.8726	        	        	        	        	       0	(  3  1  0)	  0  1
    125.2851	        	        	        	        	       0	(  3  1  1)	  0  1
    126.5354	        	        	        	        	       0	(  3  1  2)	  0  1
    128.6785	        	        	        	        	       0	(  1  0 16)	  0  1
    128.6661	        	        	        	        	       0	(  3  1  3)	  0  1
    129.4363	        	        	        	        	       0	(  2  0 14)	  0  1
    131.4991	        	        	        	        	       0	(  2  2  6)	  0  1
    131.7615	        	        	        	        	       0	(  3  1  4)	  0  1
    132.5250	        	        	        	        	       0	(  3  0 10)	  0  1
    133.8395	        	        	        	        	       0	(  2  1 12)	  0  1
    135.9789	        	        	        	        	       0	(  3  1  5)	  0  1
    141.6238	        	        	        	        	       0	(  3  1  6)	  0  1
    143.1052	        	        	        	        	       0	(  3  0 11)	  0  1
    143.7265	        	        	        	        	       0	(  2  0 15)	  0  1
    145.0368	        	        	        	        	       0	(  1  0 17)	  0  1
    145.8657	        	        	        	        	       0	(  2  2  8)	  0  1
    147.1499	        	        	        	        	       0	(  2  1 13)	  0  1
    149.3918	        	        	        	        	       0	(  3  1  7)	  0  1
    150.1925	        	        	        	        	       0	(  1  1 16)	  0  1
    154.7784	        	        	        	        	       0	(  0  0 18)	  0  1
    159.3228	        	        	        	        	       0	(  3  0 12)	  0  1
    159.3868	        	        	        	        	       0	(  4  0  0)	  0  1
    160.3726	        	        	        	        	       0	(  4  0  1)	  0  1
    161.6847	        	        	        	        	       0	(  3  1  8)	  0  1
    163.6720	        	        	        	        	       0	(  4  0  2)	  0  1
    171.7138	        	        	        	        	       0	(  2  0 16)	  0  1
    171.6455	        	        	        	        	       0	(  4  0  3)	  0  1
    179.6706	        	        	        	        	       0	(  2  1 14)	  0  1
