MSG Master    CELL:    5.91892   5.91892  23.27182   90.0000   90.0000  120.0000   SPGR: P 63/m m c             TEMP:   1074.85
  1   1280     2.52000     0.00000    -0.13351     0.00000     0.00000    0
    99     0     2
       0.00000      10.00000
     125.00000     130.00000
 2Theta	Yobs	Ycal	Yobs-Ycal	Backg	Posr	(hkl)	K
      0.7700	    0.00	  557.07	-1766.50	  438.76
      0.8700	    0.00	  557.64	-1766.50	  439.33
      0.9700	   35.00	  558.20	-1766.50	  439.88
      1.0700	   42.00	  558.74	-1766.50	  440.43
      1.1700	   38.00	  559.28	-1766.50	  440.97
      1.2700	   53.00	  559.81	-1766.50	  441.50
      1.3700	   46.00	  560.33	-1766.50	  442.01
      1.4700	   90.00	  560.83	-1766.50	  442.52
      1.5700	  285.00	  561.33	-1766.50	  443.02
      1.6700	  456.00	  561.82	-1766.50	  443.51
      1.7700	  581.00	  562.31	-1766.50	  443.99
      1.8700	  670.00	  562.78	-1766.50	  444.47
      1.9700	  762.00	  563.24	-1766.50	  444.93
      2.0700	  816.00	  563.70	-1766.50	  445.38
      2.1700	  797.00	  564.14	-1766.50	  445.83
      2.2700	  702.00	  564.58	-1766.50	  446.27
      2.3700	  738.00	  565.00	-1766.50	  446.69
      2.4700	  745.00	  565.42	-1766.50	  447.11
      2.5700	  721.00	  565.83	-1766.50	  447.52
      2.6700	  683.00	  566.24	-1766.50	  447.92
      2.7700	  652.00	  566.63	-1766.50	  448.32
      2.8700	  621.00	  567.01	-1766.50	  448.70
      2.9700	  628.00	  567.39	-1766.50	  449.08
      3.0700	  632.00	  567.76	-1766.50	  449.45
      3.1700	  611.00	  568.12	-1766.50	  449.81
      3.2700	  594.00	  568.47	-1766.50	  450.16
      3.3700	  644.00	  568.82	-1766.50	  450.50
      3.4700	  756.00	  569.15	-1766.50	  450.84
      3.5700	  780.00	  569.48	-1766.50	  451.17
      3.6700	  849.00	  569.80	-1766.50	  451.49
      3.7700	  946.00	  570.11	-1766.50	  451.80
      3.8700	  971.00	  570.41	-1766.50	  452.10
      3.9700	 1032.00	  570.71	-1766.50	  452.40
      4.0700	 1085.00	  571.00	-1766.50	  452.69
      4.1700	 1056.00	  571.28	-1766.50	  452.97
      4.2700	 1073.00	  571.55	-1766.50	  453.24
      4.3700	 1076.00	  571.82	-1766.50	  453.51
      4.4700	 1046.00	  572.08	-1766.50	  453.77
      4.5700	 1050.00	  572.33	-1766.50	  454.02
      4.6700	 1044.00	  572.57	-1766.50	  454.26
      4.7700	 1012.00	  572.81	-1766.50	  454.50
      4.8700	  952.00	  573.04	-1766.50	  454.73
      4.9700	 1006.00	  573.26	-1766.50	  454.95
      5.0700	  950.00	  573.48	-1766.50	  455.17
      5.1700	  884.00	  573.69	-1766.50	  455.37
      5.2700	  899.00	  573.89	-1766.50	  455.58
      5.3700	  893.00	  574.08	-1766.50	  455.77
      5.4700	  820.00	  574.27	-1766.50	  455.96
      5.5700	  838.00	  574.45	-1766.50	  456.14
      5.6700	  845.00	  574.62	-1766.50	  456.31
      5.7700	  884.00	  574.79	-1766.50	  456.48
      5.8700	  826.00	  574.95	-1766.50	  456.64
      5.9700	  780.00	  575.10	-1766.50	  456.79
      6.0700	  813.00	  575.25	-1766.50	  456.94
      6.1700	  777.00	  575.39	-1766.50	  457.08
      6.2700	  798.00	  575.53	-1766.50	  457.22
      6.3700	  704.00	  575.66	-1766.50	  457.34
      6.4700	  779.00	  575.78	-1766.50	  457.47
      6.5700	  724.00	  575.89	-1766.50	  457.58
      6.6700	  757.00	  576.00	-1766.50	  457.69
      6.7700	  731.00	  576.11	-1766.50	  457.79
      6.8700	  737.00	  576.20	-1766.50	  457.89
      6.9700	  700.00	  576.29	-1766.50	  457.98
      7.0700	  727.00	  576.38	-1766.50	  458.07
      7.1700	  705.00	  576.46	-1766.50	  458.15
      7.2700	  704.00	  576.53	-1766.50	  458.22
      7.3700	  690.00	  576.60	-1766.50	  458.29
      7.4700	  658.00	  576.66	-1766.50	  458.35
      7.5700	  633.00	  576.72	-1766.50	  458.40
      7.6700	  646.00	  576.77	-1766.50	  458.45
      7.7700	  623.00	  576.81	-1766.50	  458.50
      7.8700	  635.00	  576.85	-1766.50	  458.54
      7.9700	  573.00	  576.88	-1766.50	  458.57
      8.0700	  668.00	  576.91	-1766.50	  458.60
      8.1700	  618.00	  576.93	-1766.50	  458.62
      8.2700	  649.00	  576.95	-1766.50	  458.64
      8.3700	  601.00	  576.96	-1766.50	  458.65
      8.4700	  596.00	  576.97	-1766.50	  458.66
      8.5700	  635.00	  576.97	-1766.50	  458.66
      8.6700	  666.00	  576.97	-1766.50	  458.66
      8.7700	  618.00	  576.96	-1766.50	  458.65
      8.8700	  635.00	  576.95	-1766.50	  458.64
      8.9700	  583.00	  576.93	-1766.50	  458.62
      9.0700	  630.00	  576.90	-1766.50	  458.59
      9.1700	  604.00	  576.88	-1766.50	  458.56
      9.2700	  597.00	  576.84	-1766.50	  458.53
      9.3700	  603.00	  576.80	-1766.50	  458.49
      9.4700	  607.00	  576.76	-1766.50	  458.45
      9.5700	  609.00	  576.71	-1766.50	  458.40
      9.6700	  607.00	  576.66	-1766.50	  458.35
      9.7700	  571.00	  576.60	-1766.50	  458.29
      9.8700	  588.00	  576.54	-1766.50	  458.23
      9.9700	  605.00	  576.48	-1766.50	  458.16
     10.0700	  637.00	  577.25	-1706.75	  458.09
     10.1700	  590.00	  577.27	-1753.77	  458.02
     10.2700	  607.00	  577.30	-1736.80	  457.94
     10.3700	  585.00	  577.37	-1758.87	  457.86
     10.4700	  627.00	  577.49	-1716.99	  457.77
     10.5700	  556.00	  577.74	-1788.24	  457.68
     10.6700	  568.00	  578.20	-1776.70	  457.58
     10.7700	  591.00	  578.99	-1754.49	  457.48
     10.8700	  617.00	  580.17	-1729.67	  457.37
     10.9700	  568.00	  581.73	-1780.23	  457.27
     11.0700	  621.00	  583.63	-1729.13	  457.15
     11.1700	  599.00	  585.89	-1753.39	  457.04
     11.2700	  541.00	  588.52	-1814.02	  456.91
     11.3700	  593.00	  591.63	-1765.13	  456.79
     11.4700	  566.00	  595.33	-1795.83	  456.66
     11.5700	  653.00	  599.86	-1713.36	  456.53
     11.6700	  579.00	  605.56	-1793.06	  456.39
     11.7700	  618.00	  613.08	-1761.58	  456.25
     11.8700	  647.00	  623.30	-1742.80	  456.11
     11.9700	  740.00	  636.71	-1663.21	  455.96
     12.0700	  696.00	  651.41	-1721.91	  455.81
     12.1700	  647.00	  661.05	-1780.55	  455.66
     12.2700	  665.00	  656.26	-1757.76	  455.50
     12.3700	  636.00	  635.28	-1765.78	  455.34
     12.4700	  591.00	  610.86	-1786.36	  455.17
     12.5700	  592.00	  593.26	-1767.76	  455.01
     12.6700	  584.00	  583.67	-1766.17	  454.83
     12.7700	  609.00	  579.22	-1736.72	  454.66
     12.8700	  601.00	  577.14	-1742.64	  454.48
     12.9700	  561.00	  575.95	-1781.45	  454.30
     13.0700	  595.00	  575.12	-1746.62	  454.12
     13.1700	  590.00	  574.47	-1750.97	  453.93
     13.2700	  559.00	  573.93	-1781.43	  453.74
     13.3700	  577.00	  573.47	-1762.97	  453.55
     13.4700	  571.00	  573.07	-1768.57	  453.35
     13.5700	  532.00	  572.70	-1807.20	  453.15
     13.6700	  556.00	  572.36	-1782.86	  452.95
     13.7700	  572.00	  572.05	-1766.55	  452.74
     13.8700	  523.00	  571.75	-1815.25	  452.53
     13.9700	  580.00	  571.46	-1757.96	  452.32
     14.0700	  548.00	  571.18	-1789.68	  452.11
     14.1700	  573.00	  570.90	-1764.40	  451.89
     14.2700	  591.00	  570.64	-1746.14	  451.67
     14.3700	  541.00	  570.37	-1795.87	  451.45
     14.4700	  526.00	  570.11	-1810.61	  451.23
     14.5700	  582.00	  569.85	-1754.35	  451.00
     14.6700	  558.00	  569.59	-1778.09	  450.77
     14.7700	  550.00	  569.33	-1785.83	  450.54
     14.8700	  547.00	  569.07	-1788.57	  450.30
     14.9700	  587.00	  568.82	-1748.32	  450.07
     15.0700	  599.00	  568.56	-1736.06	  449.83
     15.1700	  551.00	  568.30	-1783.80	  449.58
     15.2700	  584.00	  568.04	-1750.54	  449.34
     15.3700	  540.00	  567.78	-1794.28	  449.09
     15.4700	  554.00	  567.52	-1780.02	  448.85
     15.5700	  559.00	  567.26	-1774.76	  448.59
     15.6700	  525.00	  566.99	-1808.49	  448.34
     15.7700	  518.00	  566.73	-1815.23	  448.09
     15.8700	  534.00	  566.46	-1798.96	  447.83
     15.9700	  547.00	  566.19	-1785.69	  447.57
     16.0700	  527.00	  565.95	-1805.45	  447.31
     16.1700	  528.00	  565.68	-1804.18	  447.04
     16.2700	  563.00	  565.41	-1768.91	  446.78
     16.3700	  532.00	  565.14	-1799.64	  446.51
     16.4700	  553.00	  564.86	-1778.36	  446.24
     16.5700	  564.00	  564.59	-1767.09	  445.97
     16.6700	  528.00	  564.31	-1802.81	  445.70
     16.7700	  537.00	  564.03	-1793.53	  445.42
     16.8700	  562.00	  563.75	-1768.25	  445.15
     16.9700	  564.00	  563.47	-1765.97	  444.87
     17.0700	  552.00	  563.19	-1777.69	  444.59
     17.1700	  575.00	  562.90	-1754.40	  444.31
     17.2700	  570.00	  562.62	-1759.12	  444.02
     17.3700	  542.00	  562.33	-1786.83	  443.74
     17.4700	  572.00	  562.04	-1756.54	  443.45
     17.5700	  554.00	  561.75	-1774.25	  443.16
     17.6700	  555.00	  561.46	-1772.96	  442.87
     17.7700	  559.00	  561.17	-1768.67	  442.58
     17.8700	  562.00	  560.87	-1765.37	  442.29
     17.9700	  614.00	  560.58	-1713.08	  442.00
     18.0700	  531.00	  560.38	-1795.88	  441.70
     18.1700	  552.00	  560.09	-1774.59	  441.40
     18.2700	  573.00	  559.79	-1753.29	  441.11
     18.3700	  536.00	  559.49	-1789.99	  440.81
     18.4700	  551.00	  559.19	-1774.69	  440.51
     18.5700	  591.00	  558.89	-1734.39	  440.20
     18.6700	  556.00	  558.59	-1769.09	  439.90
     18.7700	  569.00	  558.29	-1755.79	  439.60
     18.8700	  542.00	  558.07	-1782.57	  439.29
     18.9700	  549.00	  557.77	-1775.27	  438.98
     19.0700	  554.00	  557.47	-1769.97	  438.68
     19.1700	  573.00	  557.17	-1750.67	  438.37
     19.2700	  513.00	  556.86	-1810.36	  438.06
     19.3700	  581.00	  556.56	-1742.06	  437.75
     19.4700	  511.00	  556.25	-1811.75	  437.44
     19.5700	  540.00	  555.95	-1782.45	  437.12
     19.6700	  516.00	  555.64	-1806.14	  436.81
     19.7700	  575.00	  555.34	-1746.84	  436.50
     19.8700	  526.00	  555.03	-1795.53	  436.18
     19.9700	  568.00	  554.72	-1753.22	  435.86
     20.0700	  579.00	  554.41	-1741.91	  435.55
     20.1700	  560.00	  554.11	-1760.61	  435.23
     20.2700	  572.00	  553.80	-1748.30	  434.91
     20.3700	  528.00	  553.49	-1791.99	  434.59
     20.4700	  575.00	  553.18	-1744.68	  434.27
     20.5700	  548.00	  552.87	-1771.37	  433.95
     20.6700	  516.00	  552.56	-1803.06	  433.63
     20.7700	  552.00	  552.22	-1766.72	  433.31
     20.8700	  572.00	  551.95	-1746.45	  432.99
     20.9700	  540.00	  551.65	-1778.15	  432.66
     21.0700	  537.00	  551.34	-1780.84	  432.34
     21.1700	  584.00	  551.04	-1733.54	  432.02
     21.2700	  560.00	  550.73	-1757.23	  431.69
     21.3700	  533.00	  550.43	-1783.93	  431.37
     21.4700	  581.00	  550.12	-1735.62	  431.04
     21.5700	  559.00	  549.82	-1757.32	  430.72
     21.6700	  553.00	  549.52	-1763.02	  430.39
     21.7700	  520.00	  549.22	-1795.72	  430.06
     21.8700	  541.00	  548.93	-1774.43	  429.74
     21.9700	  552.00	  548.63	-1763.13	  429.41
     22.0700	  569.00	  548.34	-1745.84	  429.08
     22.1700	  564.00	  548.05	-1750.55	  428.76
     22.2700	  552.00	  547.76	-1762.26	  428.43
     22.3700	  535.00	  547.48	-1778.98	  428.10
     22.4700	  579.00	  547.20	-1734.70	  427.77
     22.5700	  520.00	  546.93	-1793.43	  427.44
     22.6700	  572.00	  546.66	-1741.16	  427.11
     22.7700	  575.00	  546.40	-1737.90	  426.78
     22.8700	  537.00	  546.15	-1775.65	  426.46
     22.9700	  522.00	  545.91	-1790.41	  426.13
     23.0700	  528.00	  545.68	-1784.18	  425.80
     23.1700	  575.00	  545.47	-1736.97	  425.47
     23.2700	  510.00	  545.28	-1801.78	  425.14
     23.3700	  565.00	  545.12	-1746.62	  424.81
     23.4700	  537.00	  544.99	-1774.49	  424.48
     23.5700	  570.00	  544.92	-1741.42	  424.15
     23.6700	  563.00	  545.05	-1748.55	  423.82
     23.7700	  559.00	  545.16	-1752.66	  423.49
     23.8700	  518.00	  545.51	-1794.01	  423.17
     23.9700	  570.00	  546.31	-1742.81	  422.84
     24.0700	  577.00	  547.99	-1737.49	  422.51
     24.1700	  537.00	  551.20	-1780.70	  422.18
     24.2700	  582.00	  556.77	-1741.27	  421.85
     24.3700	  572.00	  565.60	-1760.10	  421.53
     24.4700	  603.00	  578.60	-1742.10	  421.20
     24.5700	  580.00	  595.79	-1782.29	  420.87
     24.6700	  649.00	  614.15	-1731.65	  420.54
     24.7700	  657.00	  626.02	-1735.52	  420.22
     24.8700	  645.00	  621.77	-1743.27	  419.89
     24.9700	  570.00	  601.28	-1797.78	  419.56
     25.0700	  548.00	  577.45	-1795.95	  419.24
     25.1700	  566.00	  559.84	-1760.34	  418.91
     25.2700	  530.00	  549.87	-1786.37	  418.59
     25.3700	  523.00	  545.10	-1788.60	  418.26
     25.4700	  583.00	  542.88	-1726.38	  417.94
     25.5700	  519.00	  541.68	-1789.18	  417.62
     25.6700	  545.00	  540.89	-1762.39	  417.29
     25.7700	  551.00	  540.31	-1755.81	  416.97
     25.8700	  573.00	  539.87	-1733.37	  416.65
     25.9700	  505.00	  539.54	-1801.04	  416.33
     26.0700	  526.00	  539.29	-1779.79	  416.01
     26.1700	  568.00	  539.12	-1737.62	  415.69
     26.2700	  566.00	  539.03	-1739.53	  415.37
     26.3700	  553.00	  539.01	-1752.51	  415.05
     26.4700	  574.00	  539.08	-1731.58	  414.73
     26.5700	  563.00	  539.23	-1742.73	  414.41
     26.6700	  551.00	  539.51	-1755.01	  414.09
     26.7700	  556.00	  539.91	-1750.41	  413.78
     26.8700	  518.00	  540.49	-1788.99	  413.46
     26.9700	  524.00	  541.28	-1783.78	  413.14
     27.0700	  518.00	  542.37	-1790.87	  412.83
     27.1700	  579.00	  543.90	-1731.40	  412.52
     27.2700	  580.00	  546.10	-1732.60	  412.20
     27.3700	  546.00	  549.48	-1769.98	  411.89
     27.4700	  606.00	  555.03	-1715.53	  411.58
     27.5700	  597.00	  564.51	-1734.01	  411.27
     27.6700	  547.00	  580.68	-1800.18	  410.96
     27.7700	  551.00	  607.05	-1822.55	  410.65
     27.8700	  605.00	  646.60	-1808.10	  410.34
     27.9700	  679.00	  699.25	-1786.75	  410.03
     28.0700	  810.00	  758.61	-1715.11	  409.73
     28.1700	  914.00	  809.27	-1661.77	  409.42
     28.2700	  965.00	  828.79	-1630.29	  409.12
     28.3700	  880.00	  805.67	-1692.17	  408.81
     28.4700	  730.00	  763.22	-1799.72	  408.51
     28.5700	  709.00	  735.79	-1793.29	  408.21
     28.6700	  689.00	  737.80	-1815.30	  407.90
     28.7700	  739.00	  763.32	-1790.82	  407.60
     28.8700	  803.00	  791.60	-1755.10	  407.31
     28.9700	  806.00	  794.42	-1754.92	  407.01
     29.0700	  780.00	  755.54	-1742.04	  406.71
     29.1700	  692.00	  692.52	-1767.02	  406.41
     29.2700	  643.00	  633.71	-1757.21	  406.12
     29.3700	  593.00	  591.84	-1765.34	  405.83
     29.4700	  610.00	  566.80	-1723.30	  405.53
     29.5700	  550.00	  553.35	-1769.85	  405.24
     29.6700	  535.00	  546.27	-1777.77	  404.95
     29.7700	  591.00	  542.26	-1717.76	  404.66
     29.8700	  547.00	  539.76	-1759.26	  404.37
     29.9700	  589.00	  538.20	-1715.70	  404.08
     30.0700	  550.00	  537.45	-1753.95	  403.80
     30.1700	  580.00	  537.70	-1724.20	  403.51
     30.2700	  571.00	  539.51	-1735.01	  403.23
     30.3700	  561.00	  543.99	-1749.49	  402.95
     30.4700	  600.00	  552.76	-1719.26	  402.66
     30.5700	  569.00	  567.47	-1764.97	  402.38
     30.6700	  576.00	  588.45	-1778.95	  402.10
     30.7700	  605.00	  612.92	-1774.42	  401.83
     30.8700	  607.00	  633.67	-1793.17	  401.55
     30.9700	  607.00	  640.11	-1799.61	  401.27
     31.0700	  632.00	  625.55	-1760.05	  401.00
     31.1700	  550.00	  597.87	-1814.37	  400.73
     31.2700	  560.00	  570.69	-1777.19	  400.45
     31.3700	  548.00	  550.84	-1769.34	  400.18
     31.4700	  517.00	  538.86	-1788.36	  399.91
     31.5700	  531.00	  532.47	-1767.97	  399.65
     31.6700	  561.00	  529.18	-1734.68	  399.38
     31.7700	  572.00	  527.36	-1721.86	  399.12
     31.8700	  564.00	  526.21	-1728.71	  398.85
     31.9700	  535.00	  525.42	-1756.92	  398.59
     32.0700	  528.00	  524.87	-1763.37	  398.33
     32.1700	  584.00	  524.50	-1707.00	  398.07
     32.2700	  555.00	  524.30	-1735.80	  397.81
     32.3700	  582.00	  524.25	-1708.75	  397.55
     32.4700	  498.00	  524.36	-1792.86	  397.30
     32.5700	  507.00	  524.64	-1784.14	  397.04
     32.6700	  531.00	  525.14	-1760.64	  396.79
     32.7700	  514.00	  525.88	-1778.38	  396.54
     32.8700	  549.00	  526.95	-1744.45	  396.29
     32.9700	  502.00	  528.48	-1792.98	  396.04
     33.0700	  532.00	  530.68	-1765.18	  395.79
     33.1700	  533.00	  534.06	-1767.56	  395.55
     33.2700	  552.00	  539.76	-1754.26	  395.30
     33.3700	  575.00	  550.18	-1741.68	  395.06
     33.4700	  556.00	  569.93	-1780.43	  394.82
     33.5700	  610.00	  606.12	-1762.62	  394.58
     33.6700	  654.00	  666.70	-1779.20	  394.34
     33.7700	  694.00	  754.59	-1827.09	  394.10
     33.8700	  873.00	  859.48	-1752.98	  393.87
     33.9700	 1089.00	  952.40	-1629.90	  393.63
     34.0700	 1094.00	  990.21	-1662.71	  393.40
     34.1700	 1039.00	  943.30	-1670.80	  393.17
     34.2700	  886.00	  836.62	-1717.12	  392.94
     34.3700	  764.00	  724.14	-1726.64	  392.71
     34.4700	  673.00	  637.82	-1731.32	  392.49
     34.5700	  580.00	  583.70	-1770.20	  392.26
     34.6700	  561.00	  554.37	-1759.87	  392.04
     34.7700	  567.00	  539.55	-1739.05	  391.82
     34.8700	  564.00	  531.77	-1734.27	  391.60
     34.9700	  538.00	  527.09	-1755.59	  391.38
     35.0700	  555.00	  523.86	-1735.36	  391.16
     35.1700	  519.00	  521.44	-1768.94	  390.95
     35.2700	  490.00	  519.52	-1796.02	  390.73
     35.3700	  526.00	  517.95	-1758.45	  390.52
     35.4700	  533.00	  516.66	-1750.16	  390.31
     35.5700	  524.00	  515.57	-1758.07	  390.10
     35.6700	  498.00	  514.63	-1783.13	  389.90
     35.7700	  537.00	  513.82	-1743.32	  389.69
     35.8700	  526.00	  513.12	-1753.62	  389.49
     35.9700	  538.00	  512.49	-1740.99	  389.28
     36.0700	  533.00	  512.40	-1745.90	  389.08
     36.1700	  521.00	  511.91	-1757.41	  388.89
     36.2700	  514.00	  511.46	-1763.96	  388.69
     36.3700	  474.00	  511.06	-1803.56	  388.49
     36.4700	  517.00	  510.70	-1760.20	  388.30
     36.5700	  522.00	  510.38	-1754.88	  388.11
     36.6700	  512.00	  510.10	-1764.60	  387.91
     36.7700	  481.00	  509.86	-1795.36	  387.73
     36.8700	  519.00	  509.71	-1757.21	  387.54
     36.9700	  511.00	  509.68	-1765.18	  387.35
     37.0700	  493.00	  509.91	-1783.41	  387.17
     37.1700	  521.00	  510.64	-1756.14	  386.99
     37.2700	  481.00	  512.20	-1797.70	  386.81
     37.3700	  502.00	  514.92	-1779.42	  386.63
     37.4700	  526.00	  518.75	-1759.25	  386.45
     37.5700	  528.00	  523.01	-1761.51	  386.27
     37.6700	  509.00	  526.30	-1783.80	  386.10
     37.7700	  524.00	  527.10	-1769.60	  385.93
     37.8700	  529.00	  525.14	-1762.64	  385.76
     37.9700	  488.00	  521.72	-1800.22	  385.59
     38.0700	  537.00	  518.00	-1747.50	  385.42
     38.1700	  511.00	  514.46	-1769.96	  385.26
     38.2700	  536.00	  511.44	-1741.94	  385.09
     38.3700	  458.00	  509.16	-1817.66	  384.93
     38.4700	  502.00	  507.59	-1772.09	  384.77
     38.5700	  515.00	  506.58	-1758.08	  384.61
     38.6700	  514.00	  505.85	-1758.35	  384.45
     38.7700	  470.00	  505.43	-1801.93	  384.30
     38.8700	  544.00	  505.12	-1727.62	  384.15
     38.9700	  502.00	  504.87	-1769.37	  383.99
     39.0700	  498.00	  504.66	-1773.16	  383.85
     39.1700	  527.00	  504.47	-1743.97	  383.70
     39.2700	  497.00	  504.21	-1773.71	  383.55
     39.3700	  534.00	  504.05	-1736.55	  383.41
     39.4700	  509.00	  504.03	-1761.53	  383.26
     39.5700	  509.00	  503.90	-1761.40	  383.12
     39.6700	  506.00	  503.77	-1764.27	  382.98
     39.7700	  487.00	  503.65	-1783.15	  382.84
     39.8700	  494.00	  503.55	-1776.05	  382.71
     39.9700	  495.00	  503.45	-1774.95	  382.57
     40.0700	  482.00	  503.36	-1787.86	  382.44
     40.1700	  523.00	  503.29	-1746.79	  382.31
     40.2700	  505.00	  503.22	-1764.72	  382.18
     40.3700	  486.00	  503.17	-1783.67	  382.05
     40.4700	  495.00	  503.13	-1774.63	  381.93
     40.5700	  492.00	  503.10	-1777.60	  381.81
     40.6700	  497.00	  503.10	-1772.60	  381.68
     40.7700	  547.00	  503.11	-1722.61	  381.56
     40.8700	  551.00	  503.15	-1718.65	  381.44
     40.9700	  492.00	  503.21	-1777.71	  381.33
     41.0700	  516.00	  503.31	-1753.81	  381.21
     41.1700	  483.00	  503.45	-1786.95	  381.10
     41.2700	  479.00	  503.61	-1791.11	  380.99
     41.3700	  489.00	  503.87	-1781.37	  380.88
     41.4700	  499.00	  504.21	-1771.71	  380.77
     41.5700	  527.00	  505.11	-1744.61	  380.66
     41.6700	  491.00	  505.77	-1781.27	  380.56
     41.7700	  476.00	  506.76	-1797.26	  380.46
     41.8700	  474.00	  508.40	-1800.90	  380.36
     41.9700	  497.00	  511.43	-1780.93	  380.26
     42.0700	  471.00	  517.22	-1812.72	  380.16
     42.1700	  523.00	  527.93	-1771.43	  380.06
     42.2700	  548.00	  545.97	-1764.47	  379.97
     42.3700	  620.00	  572.63	-1719.13	  379.88
     42.4700	  588.00	  605.61	-1784.11	  379.78
     42.5700	  604.00	  637.64	-1800.14	  379.70
     42.6700	  587.00	  656.98	-1836.48	  379.61
     42.7700	  596.00	  653.48	-1823.98	  379.52
     42.8700	  590.00	  628.20	-1804.70	  379.44
     42.9700	  539.00	  593.67	-1821.17	  379.36
     43.0700	  554.00	  561.60	-1774.10	  379.28
     43.1700	  523.00	  537.64	-1781.14	  379.20
     43.2700	  476.00	  522.44	-1812.94	  379.12
     43.3700	  511.00	  513.93	-1769.43	  379.05
     43.4700	  495.00	  509.51	-1781.01	  378.97
     43.5700	  505.00	  507.20	-1768.70	  378.90
     43.6700	  488.00	  505.89	-1784.39	  378.83
     43.7700	  447.00	  505.22	-1824.72	  378.76
     43.8700	  484.00	  504.62	-1787.12	  378.70
     43.9700	  505.00	  504.20	-1765.70	  378.63
     44.0700	  493.00	  503.85	-1777.35	  378.57
     44.1700	  528.00	  503.58	-1742.08	  378.51
     44.2700	  536.00	  503.38	-1733.88	  378.45
     44.3700	  535.00	  503.23	-1734.73	  378.39
     44.4700	  502.00	  503.12	-1767.62	  378.33
     44.5700	  538.00	  503.05	-1731.55	  378.28
     44.6700	  504.00	  502.88	-1765.38	  378.22
     44.7700	  523.00	  502.88	-1746.38	  378.17
     44.8700	  469.00	  502.89	-1800.39	  378.12
     44.9700	  527.00	  502.94	-1742.44	  378.07
     45.0700	  480.00	  503.00	-1789.50	  378.03
     45.1700	  526.00	  503.27	-1743.77	  377.98
     45.2700	  507.00	  503.38	-1762.88	  377.94
     45.3700	  464.00	  503.51	-1806.01	  377.90
     45.4700	  513.00	  503.67	-1757.17	  377.86
     45.5700	  504.00	  503.85	-1766.35	  377.82
     45.6700	  498.00	  504.05	-1772.55	  377.78
     45.7700	  505.00	  504.28	-1765.78	  377.75
     45.8700	  516.00	  504.54	-1755.04	  377.71
     45.9700	  525.00	  504.83	-1746.33	  377.68
     46.0700	  536.00	  505.16	-1735.66	  377.65
     46.1700	  507.00	  505.53	-1765.03	  377.62
     46.2700	  473.00	  505.94	-1799.44	  377.60
     46.3700	  476.00	  506.40	-1796.90	  377.57
     46.4700	  503.00	  506.92	-1770.42	  377.55
     46.5700	  517.00	  507.51	-1757.01	  377.53
     46.6700	  487.00	  508.20	-1787.70	  377.51
     46.7700	  519.00	  509.00	-1756.50	  377.49
     46.8700	  497.00	  509.98	-1779.48	  377.47
     46.9700	  544.00	  511.27	-1733.77	  377.45
     47.0700	  540.00	  513.16	-1739.66	  377.44
     47.1700	  549.00	  516.27	-1733.77	  377.43
     47.2700	  503.00	  521.38	-1784.88	  377.42
     47.3700	  504.00	  529.76	-1792.26	  377.41
     47.4700	  578.00	  542.45	-1730.95	  377.40
     47.5700	  566.00	  559.56	-1760.06	  377.39
     47.6700	  567.00	  579.27	-1778.77	  377.39
     47.7700	  574.00	  597.37	-1789.87	  377.38
     47.8700	  603.00	  607.93	-1771.43	  377.38
     47.9700	  591.00	  606.56	-1782.06	  377.38
     48.0700	  586.00	  594.63	-1775.13	  377.38
     48.1700	  573.00	  578.04	-1771.54	  377.39
     48.2700	  532.00	  562.47	-1796.97	  377.39
     48.3700	  522.00	  551.05	-1795.55	  377.40
     48.4700	  552.00	  544.62	-1759.12	  377.41
     48.5700	  533.00	  542.57	-1776.07	  377.41
     48.6700	  570.00	  543.80	-1740.30	  377.42
     48.7700	  508.00	  547.40	-1805.90	  377.44
     48.8700	  553.00	  552.91	-1766.41	  377.45
     48.9700	  545.00	  560.39	-1781.89	  377.46
     49.0700	  544.00	  570.56	-1793.06	  377.48
     49.1700	  547.00	  585.10	-1804.60	  377.50
     49.2700	  580.00	  607.61	-1794.11	  377.52
     49.3700	  660.00	  644.92	-1751.42	  377.54
     49.4700	  693.00	  708.83	-1782.33	  377.56
     49.5700	  770.00	  815.09	-1811.59	  377.58
     49.6700	  920.00	  982.49	-1828.99	  377.61
     49.7700	 1177.00	 1224.40	-1813.90	  377.64
     49.8700	 1455.00	 1538.12	-1849.62	  377.66
     49.9700	 1871.00	 1892.74	-1788.24	  377.69
     50.0700	 2201.00	 2220.49	-1785.99	  377.72
     50.1700	 2558.00	 2422.77	-1631.27	  377.76
     50.2700	 2478.00	 2415.14	-1703.64	  377.79
     50.3700	 2199.00	 2199.02	-1766.52	  377.82
     50.4700	 1852.00	 1864.21	-1778.71	  377.86
     50.5700	 1476.00	 1512.22	-1802.72	  377.90
     50.6700	 1026.00	 1208.74	-1949.24	  377.94
     50.7700	  770.00	  981.48	-1977.98	  377.98
     50.8700	  725.00	  830.38	-1871.88	  378.02
     50.9700	  661.00	  739.38	-1844.88	  378.06
     51.0700	  635.00	  687.19	-1818.69	  378.11
     51.1700	  614.00	  654.99	-1807.49	  378.15
     51.2700	  590.00	  630.70	-1807.20	  378.20
     51.3700	  600.00	  609.55	-1776.05	  378.25
     51.4700	  565.00	  591.09	-1792.59	  378.30
     51.5700	  569.00	  575.91	-1773.41	  378.35
     51.6700	  595.00	  564.35	-1735.85	  378.40
     51.7700	  568.00	  556.15	-1754.65	  378.45
     51.8700	  526.00	  550.65	-1791.15	  378.51
     51.9700	  566.00	  547.12	-1747.62	  378.56
     52.0700	  553.00	  544.97	-1758.47	  378.62
     52.1700	  570.00	  544.09	-1740.59	  378.68
     52.2700	  592.00	  543.94	-1718.44	  378.74
     52.3700	  545.00	  544.85	-1766.35	  378.80
     52.4700	  526.00	  547.28	-1787.78	  378.86
     52.5700	  549.00	  552.34	-1769.84	  378.92
     52.6700	  576.00	  562.33	-1752.83	  378.99
     52.7700	  599.00	  581.34	-1748.84	  379.05
     52.8700	  658.00	  615.59	-1724.09	  379.12
     52.9700	  711.00	  672.53	-1728.03	  379.19
     53.0700	  740.00	  758.12	-1784.62	  379.26
     53.1700	  957.00	  872.43	-1681.93	  379.33
     53.2700	  949.00	 1004.95	-1822.45	  379.40
     53.3700	 1107.00	 1131.69	-1791.19	  379.47
     53.4700	 1200.00	 1217.43	-1783.93	  379.55
     53.5700	 1204.00	 1229.45	-1791.95	  379.62
     53.6700	 1096.00	 1161.95	-1832.45	  379.70
     53.7700	 1056.00	 1042.34	-1752.84	  379.77
     53.8700	  837.00	  908.15	-1837.65	  379.85
     53.9700	  789.00	  787.26	-1764.76	  379.93
     54.0700	  697.00	  693.74	-1763.24	  380.01
     54.1700	  636.00	  629.90	-1760.40	  380.09
     54.2700	  621.00	  590.80	-1736.30	  380.18
     54.3700	  599.00	  568.93	-1736.43	  380.26
     54.4700	  571.00	  557.51	-1753.01	  380.35
     54.5700	  584.00	  551.80	-1734.30	  380.43
     54.6700	  573.00	  549.13	-1742.63	  380.52
     54.7700	  569.00	  548.13	-1745.63	  380.61
     54.8700	  568.00	  548.18	-1746.68	  380.70
     54.9700	  587.00	  549.04	-1728.54	  380.78
     55.0700	  562.00	  550.66	-1755.16	  380.88
     55.1700	  571.00	  553.05	-1748.55	  380.97
     55.2700	  595.00	  556.23	-1727.73	  381.06
     55.3700	  579.00	  560.35	-1747.85	  381.15
     55.4700	  546.00	  565.63	-1786.13	  381.25
     55.5700	  556.00	  572.48	-1782.98	  381.34
     55.6700	  550.00	  581.74	-1798.24	  381.44
     55.7700	  599.00	  595.10	-1762.60	  381.54
     55.8700	  606.00	  615.96	-1776.46	  381.64
     55.9700	  663.00	  650.67	-1754.17	  381.74
     56.0700	  682.00	  709.73	-1794.23	  381.84
     56.1700	  724.00	  808.24	-1850.74	  381.94
     56.2700	  864.00	  963.97	-1866.47	  382.04
     56.3700	 1128.00	 1192.08	-1830.58	  382.14
     56.4700	 1363.00	 1496.39	-1899.89	  382.25
     56.5700	 1768.00	 1859.85	-1858.35	  382.35
     56.6700	 2158.00	 2236.89	-1845.39	  382.46
     56.7700	 2503.00	 2551.54	-1815.04	  382.56
     56.8700	 2650.00	 2712.40	-1828.90	  382.67
     56.9700	 2501.00	 2659.47	-1924.97	  382.78
     57.0700	 2386.00	 2413.26	-1793.76	  382.89
     57.1700	 2019.00	 2057.78	-1805.28	  383.00
     57.2700	 1665.00	 1681.70	-1783.20	  383.11
     57.3700	 1346.00	 1346.54	-1767.04	  383.22
     57.4700	 1091.00	 1083.11	-1758.61	  383.33
     57.5700	  859.00	  897.00	-1804.50	  383.45
     57.6700	  779.00	  777.93	-1765.43	  383.56
     57.7700	  726.00	  709.28	-1749.78	  383.67
     57.8700	  674.00	  675.44	-1767.94	  383.79
     57.9700	  721.00	  665.54	-1711.04	  383.90
     58.0700	  715.00	  673.82	-1725.32	  384.02
     58.1700	  703.00	  698.46	-1761.96	  384.14
     58.2700	  761.00	  739.59	-1745.09	  384.26
     58.3700	  860.00	  797.47	-1703.97	  384.37
     58.4700	  955.00	  870.76	-1682.26	  384.49
     58.5700	 1090.00	  954.96	-1631.46	  384.61
     58.6700	 1212.00	 1041.95	-1596.45	  384.73
     58.7700	 1361.00	 1122.24	-1527.74	  384.86
     58.8700	 1456.00	 1189.22	-1499.72	  384.98
     58.9700	 1519.00	 1238.95	-1486.45	  385.10
     59.0700	 1641.00	 1266.03	-1391.53	  385.22
     59.1700	 1567.00	 1265.87	-1465.37	  385.35
     59.2700	 1474.00	 1242.45	-1534.95	  385.47
     59.3700	 1269.00	 1208.35	-1705.85	  385.60
     59.4700	 1302.00	 1176.34	-1640.84	  385.72
     59.5700	 1191.00	 1155.03	-1730.53	  385.85
     59.6700	 1167.00	 1151.80	-1751.30	  385.97
     59.7700	 1228.00	 1175.13	-1713.63	  386.10
     59.8700	 1213.00	 1230.28	-1783.78	  386.23
     59.9700	 1224.00	 1312.97	-1855.47	  386.36
     60.0700	 1482.00	 1406.41	-1690.91	  386.48
     60.1700	 1574.00	 1482.17	-1674.67	  386.61
     60.2700	 1550.00	 1507.46	-1723.96	  386.74
     60.3700	 1529.00	 1462.64	-1700.14	  386.87
     60.4700	 1470.00	 1355.27	-1651.77	  387.00
     60.5700	 1247.00	 1212.63	-1732.13	  387.14
     60.6700	 1050.00	 1063.46	-1779.96	  387.27
     60.7700	  898.00	  928.66	-1797.16	  387.40
     60.8700	  826.00	  819.80	-1760.30	  387.53
     60.9700	  692.00	  740.81	-1815.31	  387.66
     61.0700	  673.00	  690.40	-1783.90	  387.80
     61.1700	  636.00	  665.23	-1795.73	  387.93
     61.2700	  636.00	  662.64	-1793.15	  388.06
     61.3700	  633.00	  682.26	-1815.76	  388.20
     61.4700	  688.00	  726.15	-1804.65	  388.33
     61.5700	  733.00	  797.52	-1831.02	  388.47
     61.6700	  820.00	  898.22	-1844.72	  388.60
     61.7700	  946.00	 1025.81	-1846.31	  388.74
     61.8700	 1153.00	 1170.76	-1784.26	  388.88
     61.9700	 1301.00	 1314.91	-1780.41	  389.01
     62.0700	 1387.00	 1431.44	-1810.94	  389.15
     62.1700	 1425.00	 1490.21	-1831.71	  389.29
     62.2700	 1343.00	 1471.97	-1895.47	  389.42
     62.3700	 1341.00	 1382.28	-1807.78	  389.56
     62.4700	 1120.00	 1247.24	-1893.74	  389.70
     62.5700	 1003.00	 1096.83	-1860.33	  389.84
     62.6700	  884.00	  954.29	-1836.79	  389.97
     62.7700	  784.00	  833.64	-1816.14	  390.11
     62.8700	  665.00	  740.56	-1842.06	  390.25
     62.9700	  590.00	  674.33	-1850.83	  390.39
     63.0700	  580.00	  630.48	-1816.98	  390.53
     63.1700	  567.00	  603.20	-1802.70	  390.67
     63.2700	  606.00	  587.20	-1747.70	  390.81
     63.3700	  635.00	  578.55	-1710.05	  390.95
     63.4700	  583.00	  574.96	-1758.46	  391.09
     63.5700	  597.00	  575.57	-1745.07	  391.23
     63.6700	  593.00	  580.79	-1754.29	  391.37
     63.7700	  587.00	  592.00	-1771.50	  391.51
     63.8700	  579.00	  611.21	-1798.71	  391.65
     63.9700	  684.00	  640.54	-1723.04	  391.79
     64.0700	  796.00	  681.41	-1651.91	  391.93
     64.1700	  743.00	  733.60	-1757.10	  392.07
     64.2700	  855.00	  794.32	-1705.82	  392.21
     64.3700	  836.00	  857.61	-1788.11	  392.35
     64.4700	 1001.00	  914.31	-1679.81	  392.49
     64.5700	 1052.00	  953.11	-1667.61	  392.63
     64.6700	 1031.00	  966.62	-1702.12	  392.77
     64.7700	 1062.00	  952.47	-1656.97	  392.91
     64.8700	  947.00	  915.60	-1735.10	  393.05
     64.9700	  926.00	  864.73	-1705.23	  393.20
     65.0700	  813.00	  809.33	-1762.83	  393.34
     65.1700	  774.00	  756.97	-1749.47	  393.48
     65.2700	  786.00	  711.82	-1692.32	  393.62
     65.3700	  656.00	  674.99	-1785.49	  393.76
     65.4700	  651.00	  645.64	-1761.14	  393.90
     65.5700	  643.00	  622.47	-1745.97	  394.04
     65.6700	  625.00	  604.41	-1745.91	  394.18
     65.7700	  561.00	  590.64	-1796.14	  394.32
     65.8700	  560.00	  580.48	-1786.98	  394.46
     65.9700	  626.00	  573.43	-1713.93	  394.60
     66.0700	  563.00	  569.01	-1772.51	  394.74
     66.1700	  557.00	  566.80	-1776.30	  394.88
     66.2700	  538.00	  566.41	-1794.91	  395.02
     66.3700	  554.00	  567.55	-1780.05	  395.16
     66.4700	  560.00	  570.05	-1776.55	  395.30
     66.5700	  532.00	  574.08	-1808.58	  395.44
     66.6700	  551.00	  579.81	-1795.31	  395.58
     66.7700	  572.00	  588.24	-1782.74	  395.72
     66.8700	  592.00	  601.15	-1775.65	  395.86
     66.9700	  637.00	  621.55	-1751.05	  395.99
     67.0700	  649.00	  654.23	-1771.73	  396.13
     67.1700	  673.00	  706.00	-1799.50	  396.27
     67.2700	  789.00	  785.46	-1762.96	  396.41
     67.3700	  884.00	  901.78	-1784.28	  396.55
     67.4700	 1154.00	 1062.51	-1675.01	  396.68
     67.5700	 1243.00	 1269.97	-1793.47	  396.82
     67.6700	 1572.00	 1518.43	-1712.93	  396.96
     67.7700	 1823.00	 1790.83	-1734.33	  397.09
     67.8700	 2079.00	 2057.96	-1745.46	  397.23
     67.9700	 2322.00	 2278.79	-1723.29	  397.36
     68.0700	 2472.00	 2407.72	-1702.22	  397.50
     68.1700	 2470.00	 2411.68	-1708.18	  397.63
     68.2700	 2243.00	 2289.51	-1813.01	  397.77
     68.3700	 2063.00	 2072.95	-1776.45	  397.90
     68.4700	 1792.00	 1807.64	-1782.14	  398.04
     68.5700	 1559.00	 1534.88	-1742.38	  398.17
     68.6700	 1238.00	 1284.89	-1813.39	  398.30
     68.7700	 1080.00	 1075.32	-1761.82	  398.44
     68.8700	  900.00	  912.52	-1779.02	  398.57
     68.9700	  777.00	  794.36	-1783.86	  398.70
     69.0700	  685.00	  713.58	-1795.08	  398.83
     69.1700	  634.00	  661.00	-1793.50	  398.96
     69.2700	  657.00	  627.94	-1737.44	  399.09
     69.3700	  636.00	  607.49	-1737.99	  399.22
     69.4700	  583.00	  594.75	-1778.25	  399.35
     69.5700	  547.00	  586.58	-1806.08	  399.48
     69.6700	  575.00	  581.12	-1772.62	  399.61
     69.7700	  603.00	  577.36	-1740.86	  399.74
     69.8700	  649.00	  574.76	-1692.26	  399.87
     69.9700	  578.00	  573.05	-1761.55	  400.00
     70.0700	  580.00	  572.09	-1758.59	  400.12
     70.1700	  531.00	  571.85	-1807.35	  400.25
     70.2700	  553.00	  572.32	-1785.82	  400.37
     70.3700	  567.00	  573.62	-1773.12	  400.50
     70.4700	  557.00	  576.00	-1785.50	  400.62
     70.5700	  515.00	  579.92	-1831.42	  400.75
     70.6700	  527.00	  586.28	-1825.78	  400.87
     70.7700	  582.00	  596.59	-1781.09	  400.99
     70.8700	  610.00	  613.27	-1769.77	  401.11
     70.9700	  628.00	  639.86	-1778.36	  401.24
     71.0700	  655.00	  681.12	-1792.62	  401.36
     71.1700	  694.00	  742.70	-1815.20	  401.48
     71.2700	  812.00	  830.27	-1784.77	  401.60
     71.3700	  905.00	  948.06	-1809.56	  401.72
     71.4700	 1111.00	 1097.01	-1752.51	  401.83
     71.5700	 1237.00	 1273.64	-1803.14	  401.95
     71.6700	 1419.00	 1465.47	-1812.97	  402.07
     71.7700	 1597.00	 1655.24	-1824.74	  402.18
     71.8700	 1845.00	 1818.16	-1739.66	  402.30
     71.9700	 1901.00	 1926.03	-1791.53	  402.41
     72.0700	 1877.00	 1955.60	-1845.10	  402.53
     72.1700	 1875.00	 1899.73	-1791.23	  402.64
     72.2700	 1803.00	 1771.92	-1735.42	  402.75
     72.3700	 1645.00	 1597.89	-1719.39	  402.87
     72.4700	 1510.00	 1406.16	-1662.66	  402.98
     72.5700	 1355.00	 1218.94	-1630.44	  403.09
     72.6700	 1209.00	 1051.75	-1609.25	  403.20
     72.7700	 1032.00	  912.96	-1647.46	  403.30
     72.8700	  922.00	  804.83	-1649.33	  403.41
     72.9700	  793.00	  725.11	-1698.61	  403.52
     73.0700	  820.00	  669.07	-1615.57	  403.63
     73.1700	  731.00	  631.08	-1666.58	  403.73
     73.2700	  676.00	  605.95	-1696.45	  403.84
     73.3700	  666.00	  589.46	-1689.96	  403.94
     73.4700	  603.00	  578.56	-1742.06	  404.04
     73.5700	  641.00	  571.24	-1696.74	  404.14
     73.6700	  565.00	  566.23	-1767.73	  404.25
     73.7700	  640.00	  562.82	-1689.32	  404.35
     73.8700	  604.00	  560.57	-1723.07	  404.45
     73.9700	  609.00	  559.25	-1716.75	  404.54
     74.0700	  578.00	  558.67	-1747.17	  404.64
     74.1700	  568.00	  558.67	-1757.17	  404.74
     74.2700	  620.00	  559.05	-1705.55	  404.83
     74.3700	  570.00	  559.60	-1756.10	  404.93
     74.4700	  674.00	  560.05	-1652.55	  405.02
     74.5700	  669.00	  560.13	-1657.63	  405.12
     74.6700	  606.00	  559.63	-1720.13	  405.21
     74.7700	  641.00	  558.52	-1684.02	  405.30
     74.8700	  645.00	  556.93	-1678.43	  405.39
     74.9700	  629.00	  555.12	-1692.62	  405.48
     75.0700	  559.00	  553.41	-1760.91	  405.57
     75.1700	  554.00	  552.13	-1764.63	  405.65
     75.2700	  562.00	  551.57	-1756.07	  405.74
     75.3700	  568.00	  552.18	-1750.68	  405.82
     75.4700	  585.00	  554.42	-1735.92	  405.91
     75.5700	  558.00	  558.75	-1767.25	  405.99
     75.6700	  551.00	  565.60	-1781.10	  406.07
     75.7700	  567.00	  575.63	-1775.13	  406.15
     75.8700	  619.00	  589.05	-1736.55	  406.23
     75.9700	  624.00	  605.82	-1748.32	  406.31
     76.0700	  602.00	  625.41	-1789.91	  406.39
     76.1700	  667.00	  646.73	-1746.23	  406.47
     76.2700	  660.00	  667.99	-1774.49	  406.54
     76.3700	  672.00	  686.86	-1781.36	  406.62
     76.4700	  714.00	  700.62	-1753.12	  406.69
     76.5700	  697.00	  706.82	-1776.32	  406.76
     76.6700	  695.00	  704.16	-1775.66	  406.83
     76.7700	  662.00	  693.17	-1797.67	  406.90
     76.8700	  631.00	  675.92	-1811.42	  406.97
     76.9700	  637.00	  654.93	-1784.43	  407.04
     77.0700	  596.00	  633.11	-1803.61	  407.11
     77.1700	  570.00	  612.27	-1808.77	  407.17
     77.2700	  564.00	  593.80	-1796.30	  407.24
     77.3700	  567.00	  578.44	-1777.94	  407.30
     77.4700	  554.00	  566.38	-1778.88	  407.36
     77.5700	  561.00	  557.38	-1762.88	  407.42
     77.6700	  529.00	  550.97	-1788.47	  407.48
     77.7700	  517.00	  546.59	-1796.09	  407.54
     77.8700	  521.00	  543.70	-1789.20	  407.60
     77.9700	  513.00	  541.83	-1795.33	  407.65
     78.0700	  538.00	  540.64	-1769.14	  407.71
     78.1700	  538.00	  539.89	-1768.39	  407.76
     78.2700	  531.00	  539.41	-1774.91	  407.82
     78.3700	  515.00	  539.11	-1790.61	  407.87
     78.4700	  533.00	  538.94	-1772.44	  407.92
     78.5700	  526.00	  538.88	-1779.38	  407.97
     78.6700	  531.00	  538.91	-1774.41	  408.01
     78.7700	  526.00	  539.05	-1779.55	  408.06
     78.8700	  535.00	  539.33	-1770.83	  408.10
     78.9700	  500.00	  539.76	-1806.26	  408.15
     79.0700	  506.00	  540.39	-1800.89	  408.19
     79.1700	  574.00	  541.27	-1733.77	  408.23
     79.2700	  594.00	  542.47	-1714.97	  408.27
     79.3700	  529.00	  543.85	-1781.35	  408.31
     79.4700	  531.00	  545.84	-1781.34	  408.35
     79.5700	  511.00	  548.33	-1803.83	  408.38
     79.6700	  511.00	  551.41	-1806.91	  408.42
     79.7700	  543.00	  555.16	-1778.66	  408.45
     79.8700	  565.00	  559.72	-1761.22	  408.48
     79.9700	  576.00	  565.26	-1755.76	  408.51
     80.0700	  520.00	  572.00	-1818.50	  408.54
     80.1700	  548.00	  580.23	-1798.73	  408.57
     80.2700	  529.00	  590.26	-1827.76	  408.60
     80.3700	  604.00	  602.36	-1764.86	  408.62
     80.4700	  569.00	  616.65	-1814.15	  408.65
     80.5700	  656.00	  632.98	-1743.48	  408.67
     80.6700	  641.00	  650.86	-1776.36	  408.69
     80.7700	  618.00	  669.41	-1817.91	  408.71
     80.8700	  693.00	  687.42	-1760.92	  408.73
     80.9700	  679.00	  703.52	-1791.02	  408.75
     81.0700	  690.00	  716.42	-1792.92	  408.76
     81.1700	  701.00	  725.15	-1790.66	  408.78
     81.2700	  758.00	  729.15	-1737.65	  408.79
     81.3700	  752.00	  728.18	-1742.68	  408.80
     81.4700	  773.00	  722.45	-1715.95	  408.81
     81.5700	  768.00	  712.53	-1711.03	  408.82
     81.6700	  697.00	  699.23	-1768.73	  408.83
     81.7700	  701.00	  683.42	-1748.92	  408.83
     81.8700	  716.00	  666.09	-1716.59	  408.84
     81.9700	  750.00	  648.31	-1664.81	  408.84
     82.0700	  684.00	  631.02	-1713.52	  408.84
     82.1700	  659.00	  615.05	-1722.55	  408.84
     82.2700	  618.00	  600.84	-1749.34	  408.84
     82.3700	  631.00	  588.61	-1724.11	  408.84
     82.4700	  584.00	  578.40	-1760.90	  408.83
     82.5700	  587.00	  570.20	-1749.70	  408.83
     82.6700	  605.00	  563.88	-1725.38	  408.82
     82.7700	  595.00	  559.36	-1730.86	  408.81
     82.8700	  569.00	  556.51	-1754.01	  408.80
     82.9700	  579.00	  555.20	-1742.70	  408.79
     83.0700	  528.00	  555.32	-1793.82	  408.78
     83.1700	  560.00	  556.78	-1763.28	  408.76
     83.2700	  522.00	  559.45	-1803.95	  408.75
     83.3700	  578.00	  563.17	-1751.67	  408.73
     83.4700	  574.00	  567.71	-1760.21	  408.71
     83.5700	  509.00	  572.73	-1830.23	  408.69
     83.6700	  546.00	  577.82	-1798.32	  408.67
     83.7700	  556.00	  582.47	-1792.97	  408.65
     83.8700	  592.00	  586.12	-1760.62	  408.62
     83.9700	  630.00	  588.23	-1724.73	  408.60
     84.0700	  554.00	  588.43	-1800.93	  408.57
     84.1700	  612.00	  586.65	-1741.15	  408.54
     84.2700	  514.00	  583.13	-1835.63	  408.51
     84.3700	  536.00	  578.34	-1808.84	  408.48
     84.4700	  536.00	  572.82	-1803.32	  408.44
     84.5700	  557.00	  567.05	-1776.55	  408.41
     84.6700	  536.00	  561.47	-1791.97	  408.37
     84.7700	  548.00	  556.35	-1774.85	  408.33
     84.8700	  516.00	  551.89	-1802.40	  408.29
     84.9700	  523.00	  548.20	-1791.70	  408.25
     85.0700	  533.00	  545.27	-1778.77	  408.21
     85.1700	  500.00	  543.05	-1809.55	  408.17
     85.2700	  504.00	  541.46	-1803.96	  408.12
     85.3700	  503.00	  540.40	-1803.90	  408.07
     85.4700	  517.00	  539.78	-1789.28	  408.02
     85.5700	  499.00	  539.52	-1807.02	  407.97
     85.6700	  515.00	  539.56	-1791.06	  407.92
     85.7700	  561.00	  539.91	-1745.41	  407.87
     85.8700	  503.00	  540.57	-1804.07	  407.81
     85.9700	  525.00	  541.60	-1783.10	  407.76
     86.0700	  527.00	  543.08	-1782.58	  407.70
     86.1700	  531.00	  545.15	-1780.65	  407.64
     86.2700	  536.00	  547.96	-1778.46	  407.58
     86.3700	  536.00	  551.66	-1782.16	  407.51
     86.4700	  566.00	  556.40	-1756.90	  407.45
     86.5700	  531.00	  562.32	-1797.82	  407.38
     86.6700	  592.00	  569.43	-1743.93	  407.32
     86.7700	  553.00	  577.66	-1791.16	  407.25
     86.8700	  609.00	  586.47	-1743.97	  407.18
     86.9700	  628.00	  596.09	-1734.59	  407.11
     87.0700	  625.00	  605.65	-1747.15	  407.03
     87.1700	  639.00	  614.42	-1741.92	  406.96
     87.2700	  669.00	  621.60	-1719.10	  406.88
     87.3700	  634.00	  626.39	-1758.89	  406.80
     87.4700	  644.00	  628.19	-1750.69	  406.72
     87.5700	  676.00	  626.76	-1717.26	  406.64
     87.6700	  631.00	  622.35	-1757.85	  406.56
     87.7700	  611.00	  615.62	-1771.12	  406.48
     87.8700	  628.00	  607.42	-1745.92	  406.39
     87.9700	  637.00	  598.66	-1728.16	  406.30
     88.0700	  580.00	  590.13	-1776.63	  406.21
     88.1700	  601.00	  582.55	-1748.05	  406.12
     88.2700	  571.00	  576.43	-1771.93	  406.03
     88.3700	  604.00	  572.12	-1734.62	  405.94
     88.4700	  649.00	  569.80	-1687.30	  405.84
     88.5700	  630.00	  569.47	-1705.97	  405.75
     88.6700	  561.00	  570.99	-1776.49	  405.65
     88.7700	  579.00	  574.07	-1761.57	  405.55
     88.8700	  581.00	  578.33	-1763.83	  405.45
     88.9700	  585.00	  583.27	-1764.77	  405.35
     89.0700	  607.00	  588.37	-1747.87	  405.24
     89.1700	  637.00	  593.01	-1722.51	  405.14
     89.2700	  601.00	  596.61	-1762.11	  405.03
     89.3700	  614.00	  598.65	-1751.15	  404.92
     89.4700	  613.00	  598.78	-1752.28	  404.81
     89.5700	  573.00	  596.93	-1790.43	  404.70
     89.6700	  517.00	  593.32	-1842.82	  404.59
     89.7700	  582.00	  588.34	-1772.84	  404.47
     89.8700	  585.00	  582.49	-1763.99	  404.36
     89.9700	  542.00	  576.25	-1800.75	  404.24
     90.0700	  507.00	  570.03	-1829.53	  404.12
     90.1700	  564.00	  564.16	-1766.66	  404.00
     90.2700	  534.00	  558.88	-1791.38	  403.88
     90.3700	  508.00	  554.33	-1812.83	  403.75
     90.4700	  523.00	  550.58	-1794.08	  403.63
     90.5700	  588.00	  547.61	-1726.11	  403.50
     90.6700	  496.00	  545.38	-1815.88	  403.38
     90.7700	  533.00	  543.80	-1777.30	  403.25
     90.8700	  496.00	  542.79	-1813.29	  403.12
     90.9700	  542.00	  542.25	-1766.75	  402.98
     91.0700	  537.00	  542.13	-1771.63	  402.85
     91.1700	  554.00	  542.41	-1754.91	  402.71
     91.2700	  576.00	  543.08	-1733.58	  402.58
     91.3700	  544.00	  544.18	-1766.68	  402.44
     91.4700	  528.00	  545.82	-1784.32	  402.30
     91.5700	  540.00	  548.11	-1774.61	  402.16
     91.6700	  550.00	  551.21	-1767.71	  402.02
     91.7700	  512.00	  555.34	-1809.84	  401.87
     91.8700	  523.00	  560.69	-1804.19	  401.73
     91.9700	  550.00	  567.49	-1783.99	  401.58
     92.0700	  525.00	  575.69	-1817.19	  401.43
     92.1700	  546.00	  585.86	-1806.36	  401.28
     92.2700	  588.00	  597.84	-1776.34	  401.13
     92.3700	  572.00	  611.56	-1806.06	  400.98
     92.4700	  650.00	  626.83	-1743.33	  400.83
     92.5700	  626.00	  643.33	-1783.83	  400.67
     92.6700	  681.00	  660.59	-1746.09	  400.51
     92.7700	  710.00	  678.00	-1734.50	  400.36
     92.8700	  725.00	  694.86	-1736.36	  400.20
     92.9700	  763.00	  710.45	-1713.95	  400.04
     93.0700	  742.00	  724.15	-1748.65	  399.87
     93.1700	  778.00	  735.64	-1724.14	  399.71
     93.2700	  821.00	  745.02	-1690.52	  399.55
     93.3700	  827.00	  752.73	-1692.23	  399.38
     93.4700	  808.00	  759.43	-1717.93	  399.21
     93.5700	  849.00	  765.84	-1683.34	  399.04
     93.6700	  828.00	  772.60	-1711.10	  398.87
     93.7700	  835.00	  780.27	-1711.77	  398.70
     93.8700	  852.00	  789.36	-1703.86	  398.53
     93.9700	  862.00	  800.29	-1704.79	  398.36
     94.0700	  877.00	  813.41	-1702.91	  398.18
     94.1700	  846.00	  828.82	-1749.32	  398.00
     94.2700	  902.00	  846.25	-1710.75	  397.83
     94.3700	  912.00	  864.99	-1719.49	  397.65
     94.4700	  856.00	  883.87	-1794.37	  397.47
     94.5700	  947.00	  901.32	-1720.82	  397.28
     94.6700	  913.00	  915.46	-1768.96	  397.10
     94.7700	  966.00	  924.35	-1724.85	  396.92
     94.8700	  922.00	  926.37	-1770.87	  396.73
     94.9700	  947.00	  920.60	-1740.10	  396.55
     95.0700	  919.00	  907.10	-1754.60	  396.36
     95.1700	  871.00	  886.89	-1782.39	  396.17
     95.2700	  794.00	  861.70	-1834.20	  395.98
     95.3700	  866.00	  833.53	-1734.03	  395.79
     95.4700	  782.00	  804.50	-1789.00	  395.60
     95.5700	  760.00	  776.59	-1783.09	  395.40
     95.6700	  767.00	  751.64	-1751.14	  395.21
     95.7700	  696.00	  731.32	-1801.82	  395.01
     95.8700	  680.00	  717.08	-1803.58	  394.81
     95.9700	  676.00	  710.23	-1800.73	  394.62
     96.0700	  680.00	  711.89	-1798.39	  394.42
     96.1700	  666.00	  722.98	-1823.48	  394.22
     96.2700	  713.00	  744.24	-1797.74	  394.01
     96.3700	  758.00	  776.13	-1784.63	  393.81
     96.4700	  831.00	  818.76	-1754.26	  393.61
     96.5700	  881.00	  871.80	-1757.30	  393.40
     96.6700	  898.00	  934.38	-1802.88	  393.20
     96.7700	  951.00	 1005.01	-1820.51	  392.99
     96.8700	 1047.00	 1081.46	-1800.96	  392.78
     96.9700	 1138.00	 1160.80	-1789.30	  392.57
     97.0700	 1206.00	 1239.39	-1799.89	  392.36
     97.1700	 1328.00	 1313.00	-1751.50	  392.15
     97.2700	 1403.00	 1377.03	-1740.53	  391.94
     97.3700	 1434.00	 1426.83	-1759.33	  391.73
     97.4700	 1491.00	 1458.40	-1733.90	  391.51
     97.5700	 1498.00	 1469.12	-1737.62	  391.30
     97.6700	 1430.00	 1458.37	-1794.87	  391.08
     97.7700	 1467.00	 1427.59	-1727.09	  390.87
     97.8700	 1314.00	 1379.96	-1832.46	  390.65
     97.9700	 1283.00	 1319.61	-1803.11	  390.43
     98.0700	 1179.00	 1251.03	-1838.53	  390.21
     98.1700	 1169.00	 1178.64	-1776.14	  389.99
     98.2700	 1084.00	 1106.43	-1788.93	  389.77
     98.3700	  955.00	 1037.92	-1849.42	  389.55
     98.4700	  992.00	  976.05	-1750.55	  389.32
     98.5700	  892.00	  923.19	-1797.69	  389.10
     98.6700	  856.00	  881.14	-1791.64	  388.87
     98.7700	  826.00	  851.27	-1791.77	  388.65
     98.8700	  808.00	  834.54	-1793.04	  388.42
     98.9700	  803.00	  831.62	-1795.12	  388.20
     99.0700	  805.00	  842.90	-1804.40	  387.97
     99.1700	  850.00	  868.60	-1785.10	  387.74
     99.2700	  960.00	  908.69	-1715.19	  387.51
     99.3700	  918.00	  962.95	-1811.45	  387.28
     99.4700	 1001.00	 1030.83	-1796.33	  387.05
     99.5700	 1090.00	 1111.42	-1787.92	  386.82
     99.6700	 1211.00	 1203.32	-1758.82	  386.59
     99.7700	 1286.00	 1304.55	-1785.05	  386.35
     99.8700	 1381.00	 1412.47	-1797.97	  386.12
     99.9700	 1486.00	 1523.71	-1804.21	  385.89
    100.0700	 1653.00	 1634.27	-1747.77	  385.65
    100.1700	 1781.00	 1739.69	-1725.19	  385.42
    100.2700	 1956.00	 1835.44	-1645.94	  385.18
    100.3700	 2064.00	 1917.47	-1619.97	  384.94
    100.4700	 2025.00	 1982.54	-1724.04	  384.71
    100.5700	 2031.00	 2028.40	-1763.90	  384.47
    100.6700	 2071.00	 2053.62	-1749.12	  384.23
    100.7700	 2056.00	 2057.44	-1767.94	  383.99
    100.8700	 2051.00	 2039.64	-1755.14	  383.75
    100.9700	 1920.00	 2000.85	-1847.35	  383.51
    101.0700	 1966.00	 1942.90	-1743.40	  383.27
    101.1700	 1867.00	 1869.00	-1768.50	  383.03
    101.2700	 1826.00	 1783.54	-1724.04	  382.79
    101.3700	 1726.00	 1691.58	-1732.08	  382.55
    101.4700	 1615.00	 1598.17	-1749.67	  382.31
    101.5700	 1490.00	 1507.84	-1784.34	  382.07
    101.6700	 1446.00	 1424.29	-1744.79	  381.83
    101.7700	 1312.00	 1350.17	-1804.67	  381.58
    101.8700	 1303.00	 1287.06	-1750.56	  381.34
    101.9700	 1252.00	 1235.46	-1749.96	  381.10
    102.0700	 1197.00	 1194.89	-1764.39	  380.85
    102.1700	 1167.00	 1163.95	-1763.45	  380.61
    102.2700	 1096.00	 1140.55	-1811.05	  380.36
    102.3700	 1109.00	 1122.09	-1779.59	  380.12
    102.4700	 1117.00	 1105.74	-1755.24	  379.87
    102.5700	 1096.00	 1088.82	-1759.32	  379.63
    102.6700	 1068.00	 1069.11	-1767.61	  379.38
    102.7700	 1106.00	 1045.15	-1705.65	  379.14
    102.8700	 1016.00	 1016.38	-1766.88	  378.89
    102.9700	 1024.00	  983.04	-1725.54	  378.65
    103.0700	  906.00	  945.98	-1806.48	  378.40
    103.1700	  896.00	  906.37	-1776.87	  378.16
    103.2700	  841.00	  865.52	-1791.02	  377.91
    103.3700	  820.00	  824.71	-1771.21	  377.67
    103.4700	  802.00	  785.12	-1749.62	  377.42
    103.5700	  700.00	  747.73	-1814.23	  377.17
    103.6700	  741.00	  713.33	-1738.83	  376.93
    103.7700	  702.00	  682.46	-1746.96	  376.68
    103.8700	  651.00	  655.40	-1770.90	  376.44
    103.9700	  637.00	  632.26	-1761.76	  376.19
    104.0700	  601.00	  612.94	-1778.44	  375.95
    104.1700	  574.00	  597.22	-1789.72	  375.70
    104.2700	  591.00	  584.76	-1760.26	  375.46
    104.3700	  570.00	  575.17	-1771.67	  375.21
    104.4700	  540.00	  568.06	-1794.56	  374.97
    104.5700	  548.00	  563.03	-1781.53	  374.72
    104.6700	  582.00	  559.71	-1744.21	  374.48
    104.7700	  562.00	  557.77	-1762.27	  374.23
    104.8700	  571.00	  556.92	-1752.42	  373.99
    104.9700	  575.00	  556.93	-1748.43	  373.75
    105.0700	  561.00	  557.63	-1763.13	  373.50
    105.1700	  537.00	  558.86	-1788.36	  373.26
    105.2700	  557.00	  560.52	-1770.02	  373.02
    105.3700	  537.00	  562.56	-1792.06	  372.77
    105.4700	  597.00	  564.97	-1734.47	  372.53
    105.5700	  535.00	  567.77	-1799.27	  372.29
    105.6700	  569.00	  571.02	-1768.52	  372.05
    105.7700	  566.00	  574.83	-1775.33	  371.81
    105.8700	  540.00	  579.30	-1805.80	  371.57
    105.9700	  572.00	  584.54	-1779.04	  371.33
    106.0700	  547.00	  590.65	-1810.15	  371.09
    106.1700	  580.00	  597.65	-1784.15	  370.85
    106.2700	  599.00	  605.55	-1773.05	  370.62
    106.3700	  549.00	  614.25	-1831.75	  370.38
    106.4700	  618.00	  623.61	-1772.11	  370.14
    106.5700	  577.00	  633.41	-1822.91	  369.91
    106.6700	  630.00	  643.38	-1779.88	  369.67
    106.7700	  660.00	  653.17	-1759.67	  369.44
    106.8700	  638.00	  662.42	-1790.92	  369.21
    106.9700	  670.00	  670.73	-1767.23	  368.97
    107.0700	  623.00	  677.75	-1821.25	  368.74
    107.1700	  672.00	  683.17	-1777.67	  368.51
    107.2700	  692.00	  686.83	-1761.33	  368.28
    107.3700	  650.00	  688.72	-1805.22	  368.05
    107.4700	  676.00	  689.02	-1779.52	  367.82
    107.5700	  727.00	  688.04	-1727.54	  367.60
    107.6700	  714.00	  686.19	-1738.69	  367.37
    107.7700	  681.00	  683.93	-1769.43	  367.15
    107.8700	  610.00	  681.65	-1838.15	  366.92
    107.9700	  674.00	  679.73	-1772.23	  366.70
    108.0700	  725.00	  678.40	-1719.90	  366.48
    108.1700	  691.00	  677.81	-1753.31	  366.26
    108.2700	  674.00	  678.00	-1770.50	  366.04
    108.3700	  694.00	  678.86	-1751.36	  365.82
    108.4700	  681.00	  680.20	-1765.70	  365.60
    108.5700	  686.00	  681.72	-1762.22	  365.38
    108.6700	  719.00	  683.03	-1730.53	  365.17
    108.7700	  691.00	  683.74	-1759.24	  364.95
    108.8700	  725.00	  683.44	-1724.94	  364.74
    108.9700	  663.00	  681.77	-1785.27	  364.53
    109.0700	  683.00	  678.52	-1762.02	  364.32
    109.1700	  672.00	  673.59	-1768.09	  364.11
    109.2700	  682.00	  667.06	-1751.56	  363.91
    109.3700	  626.00	  659.10	-1799.60	  363.70
    109.4700	  619.00	  649.99	-1797.49	  363.50
    109.5700	  652.00	  640.08	-1754.58	  363.30
    109.6700	  655.00	  629.69	-1741.19	  363.09
    109.7700	  633.00	  619.18	-1752.68	  362.90
    109.8700	  623.00	  608.83	-1752.33	  362.70
    109.9700	  597.00	  598.93	-1768.43	  362.50
    110.0700	  614.00	  589.68	-1742.18	  362.31
    110.1700	  577.00	  581.27	-1770.77	  362.11
    110.2700	  591.00	  573.81	-1749.31	  361.92
    110.3700	  586.00	  567.35	-1747.85	  361.74
    110.4700	  609.00	  561.93	-1719.43	  361.55
    110.5700	  561.00	  557.51	-1763.01	  361.36
    110.6700	  532.00	  554.06	-1788.56	  361.18
    110.7700	  517.00	  551.49	-1800.99	  361.00
    110.8700	  579.00	  549.72	-1737.22	  360.82
    110.9700	  510.00	  548.67	-1805.17	  360.64
    111.0700	  600.00	  548.23	-1714.73	  360.46
    111.1700	  499.00	  548.32	-1815.82	  360.29
    111.2700	  527.00	  548.86	-1788.36	  360.12
    111.3700	  528.00	  549.78	-1788.28	  359.95
    111.4700	  542.00	  551.03	-1775.53	  359.78
    111.5700	  546.00	  552.56	-1773.06	  359.62
    111.6700	  518.00	  554.34	-1802.84	  359.45
    111.7700	  524.00	  556.33	-1798.83	  359.29
    111.8700	  571.00	  558.53	-1754.03	  359.14
    111.9700	  552.00	  560.92	-1775.42	  358.98
    112.0700	  572.00	  563.51	-1758.01	  358.83
    112.1700	  546.00	  566.32	-1786.82	  358.67
    112.2700	  539.00	  569.36	-1796.86	  358.53
    112.3700	  579.00	  572.66	-1760.16	  358.38
    112.4700	  621.00	  576.26	-1721.76	  358.23
    112.5700	  591.00	  580.21	-1755.71	  358.09
    112.6700	  604.00	  584.58	-1747.08	  357.95
    112.7700	  646.00	  589.45	-1709.95	  357.82
    112.8700	  641.00	  594.93	-1720.43	  357.68
    112.9700	  588.00	  601.16	-1779.66	  357.55
    113.0700	  656.00	  608.34	-1718.84	  357.42
    113.1700	  632.00	  616.69	-1751.19	  357.30
    113.2700	  711.00	  626.53	-1682.03	  357.18
    113.3700	  746.00	  638.28	-1658.78	  357.06
    113.4700	  775.00	  652.41	-1643.91	  356.94
    113.5700	  797.00	  669.58	-1639.08	  356.82
    113.6700	  841.00	  690.55	-1616.05	  356.71
    113.7700	  823.00	  716.30	-1659.80	  356.61
    113.8700	  931.00	  747.95	-1583.45	  356.50
    113.9700	  944.00	  786.88	-1609.38	  356.40
    114.0700	  997.00	  834.65	-1604.15	  356.30
    114.1700	 1021.00	  893.05	-1638.55	  356.20
    114.2700	 1121.00	  964.10	-1609.60	  356.11
    114.3700	 1308.00	 1049.96	-1508.46	  356.02
    114.4700	 1329.00	 1152.93	-1590.43	  355.93
    114.5700	 1402.00	 1275.34	-1639.84	  355.85
    114.6700	 1575.00	 1419.52	-1611.02	  355.77
    114.7700	 1784.00	 1587.66	-1570.16	  355.69
    114.8700	 1889.00	 1781.60	-1659.10	  355.62
    114.9700	 2093.00	 2002.77	-1676.27	  355.55
    115.0700	 2399.00	 2251.98	-1619.48	  355.49
    115.1700	 2513.00	 2529.33	-1782.83	  355.42
    115.2700	 2829.00	 2834.04	-1771.54	  355.36
    115.3700	 3132.00	 3164.21	-1798.71	  355.31
    115.4700	 3406.00	 3516.85	-1877.35	  355.26
    115.5700	 3658.00	 3887.69	-1996.19	  355.21
    115.6700	 3985.00	 4271.34	-2052.84	  355.16
    115.7700	 4456.00	 4661.20	-1971.70	  355.12
    115.8700	 4753.00	 5049.34	-2062.84	  355.09
    115.9700	 5309.00	 5426.82	-1884.32	  355.05
    116.0700	 5440.00	 5783.69	-2110.19	  355.03
    116.1700	 5835.00	 6109.48	-2040.98	  355.00
    116.2700	 6230.00	 6393.42	-1929.92	  354.98
    116.3700	 6675.00	 6624.98	-1716.48	  354.96
    116.4700	 6890.00	 6794.79	-1671.29	  354.95
    116.5700	 6880.00	 6895.44	-1781.94	  354.94
    116.6700	 6936.00	 6922.50	-1753.00	  354.94
    116.7700	 7066.00	 6874.85	-1575.35	  354.94
    116.8700	 6848.00	 6755.04	-1673.54	  354.94
    116.9700	 6686.00	 6568.81	-1649.31	  354.95
    117.0700	 6404.00	 6324.50	-1687.00	  354.96
    117.1700	 6081.00	 6031.97	-1717.47	  354.98
    117.2700	 5658.00	 5701.78	-1810.28	  355.00
    117.3700	 5239.00	 5344.66	-1872.16	  355.02
    117.4700	 4974.00	 4970.79	-1763.29	  355.06
    117.5700	 4731.00	 4589.64	-1625.14	  355.09
    117.6700	 4293.00	 4209.52	-1683.02	  355.13
    117.7700	 3906.00	 3837.57	-1698.07	  355.17
    117.8700	 3688.00	 3479.86	-1558.36	  355.22
    117.9700	 3356.00	 3141.13	-1551.63	  355.28
    118.0700	 2883.00	 2824.99	-1708.49	  355.34
    118.1700	 2583.00	 2533.78	-1717.28	  355.40
    118.2700	 2274.00	 2268.81	-1761.31	  355.47
    118.3700	 1956.00	 2030.58	-1841.08	  355.54
    118.4700	 1747.00	 1818.73	-1838.23	  355.62
    118.5700	 1577.00	 1632.33	-1821.83	  355.70
    118.6700	 1400.00	 1469.86	-1836.36	  355.79
    118.7700	 1252.00	 1329.49	-1843.99	  355.89
    118.8700	 1151.00	 1209.23	-1824.73	  355.98
    118.9700	 1055.00	 1106.93	-1818.43	  356.09
    119.0700	  949.00	 1020.47	-1837.97	  356.20
    119.1700	  868.00	  947.78	-1846.28	  356.31
    119.2700	  817.00	  886.89	-1836.39	  356.43
    119.3700	  769.00	  836.07	-1833.57	  356.56
    119.4700	  778.00	  793.74	-1782.24	  356.69
    119.5700	  734.00	  758.51	-1791.01	  356.83
    119.6700	  679.00	  729.20	-1816.70	  356.97
    119.7700	  685.00	  704.79	-1786.29	  357.12
    119.8700	  675.00	  684.43	-1775.93	  357.27
    119.9700	  623.00	  667.45	-1810.95	  357.43
    120.0700	  581.00	  653.25	-1838.75	  357.59
    120.1700	  603.00	  641.38	-1804.88	  357.77
    120.2700	  577.00	  631.45	-1820.95	  357.94
    120.3700	  598.00	  623.17	-1791.67	  358.13
    120.4700	  566.00	  616.31	-1816.81	  358.31
    120.5700	  517.00	  610.66	-1860.16	  358.51
    120.6700	  520.00	  606.08	-1852.58	  358.71
    120.7700	  558.00	  602.46	-1810.96	  358.92
    120.8700	  579.00	  599.70	-1787.20	  359.13
    120.9700	  588.00	  597.72	-1776.22	  359.35
    121.0700	  578.00	  596.48	-1784.98	  359.58
    121.1700	  561.00	  595.91	-1801.41	  359.81
    121.2700	  569.00	  595.98	-1793.48	  360.05
    121.3700	  601.00	  596.64	-1762.14	  360.29
    121.4700	  550.00	  597.84	-1814.34	  360.55
    121.5700	  582.00	  599.54	-1784.04	  360.81
    121.6700	  598.00	  601.67	-1770.17	  361.07
    121.7700	  615.00	  604.19	-1755.69	  361.34
    121.8700	  604.00	  607.01	-1769.51	  361.62
    121.9700	  620.00	  610.04	-1756.54	  361.91
    122.0700	  591.00	  613.23	-1788.73	  362.20
    122.1700	  618.00	  616.47	-1764.97	  362.50
    122.2700	  626.00	  619.66	-1760.16	  362.81
    122.3700	  618.00	  622.70	-1771.20	  363.12
    122.4700	  637.00	  625.47	-1754.97	  363.44
    122.5700	  610.00	  627.88	-1784.38	  363.77
    122.6700	  645.00	  629.85	-1751.35	  364.10
    122.7700	  679.00	  631.30	-1718.80	  364.44
    122.8700	  622.00	  632.17	-1776.67	  364.79
    122.9700	  645.00	  632.42	-1753.92	  365.15
    123.0700	  635.00	  632.06	-1763.56	  365.52
    123.1700	  632.00	  631.10	-1765.60	  365.89
    123.2700	  665.00	  629.59	-1731.09	  366.27
    123.3700	  653.00	  627.57	-1741.07	  366.65
    123.4700	  669.00	  625.12	-1722.62	  367.05
    123.5700	  621.00	  622.31	-1767.81	  367.45
    123.6700	  663.00	  619.20	-1722.70	  367.86
    123.7700	  634.00	  615.88	-1748.38	  368.28
    123.8700	  598.00	  612.42	-1780.92	  368.71
    123.9700	  626.00	  608.88	-1749.38	  369.14
    124.0700	  674.00	  605.33	-1697.83	  369.58
    124.1700	  617.00	  601.82	-1751.32	  370.03
    124.2700	  624.00	  598.40	-1740.90	  370.49
    124.3700	  588.00	  595.11	-1773.61	  370.96
    124.4700	  623.00	  591.99	-1735.49	  371.43
    124.5700	  566.00	  589.06	-1789.56	  371.92
    124.6700	  596.00	  586.34	-1756.84	  372.41
    124.7700	  597.00	  583.85	-1753.35	  372.91
    124.8700	  611.00	  581.59	-1737.09	  373.42
    124.9700	  567.00	  492.25	-1691.75	  373.94
    125.0700	  599.00	  492.78	-1766.50	  374.46
    125.1700	  642.00	  493.31	-1766.50	  375.00
    125.2700	  497.00	  493.85	-1766.50	  375.54
    125.3700	  559.00	  494.41	-1766.50	  376.10
    125.4700	  554.00	  494.97	-1766.50	  376.66
    125.5700	  560.00	  495.54	-1766.50	  377.23
    125.6700	  576.00	  496.12	-1766.50	  377.81
    125.7700	  580.00	  496.71	-1766.50	  378.40
    125.8700	  547.00	  497.31	-1766.50	  378.99
    125.9700	  615.00	  497.91	-1766.50	  379.60
    126.0700	  554.00	  498.53	-1766.50	  380.22
    126.1700	  593.00	  499.16	-1766.50	  380.84
    126.2700	  595.00	  499.79	-1766.50	  381.48
    126.3700	  584.00	  500.44	-1766.50	  382.12
    126.4700	  597.00	  501.09	-1766.50	  382.78
    126.5700	  618.00	  501.75	-1766.50	  383.44
    126.6700	  643.00	  502.43	-1766.50	  384.12
    126.7700	  657.00	  503.11	-1766.50	  384.80
    126.8700	  595.00	  503.81	-1766.50	  385.49
    126.9700	  561.00	  504.51	-1766.50	  386.20
    127.0700	  638.00	  505.22	-1766.50	  386.91
    127.1700	  601.00	  505.95	-1766.50	  387.63
    127.2700	  673.00	  506.68	-1766.50	  388.37
    127.3700	  674.00	  507.42	-1766.50	  389.11
    127.4700	  664.00	  508.18	-1766.50	  389.87
    127.5700	  669.00	  508.94	-1766.50	  390.63
    127.6700	  697.00	  509.72	-1766.50	  391.41
    127.7700	  743.00	  510.50	-1766.50	  392.19
    127.8700	  734.00	  511.30	-1766.50	  392.99
    127.9700	  755.00	  512.10	-1766.50	  393.79
    128.0700	  790.00	  512.92	-1766.50	  394.61
    128.1700	  820.00	  513.75	-1766.50	  395.44
    128.2700	  752.00	  514.59	-1766.50	  396.28
    128.3700	  798.00	  515.44	-1766.50	  397.13
    128.4700	  818.00	  516.30	-1766.50	  397.99
    128.5700	    0.00	  517.17	-1766.50	  398.86
    128.6700	    0.00	  518.05	-1766.50	  399.74
     12.2995	        	        	        	        	       0	(  0  0  2)	  0  1
     24.8819	        	        	        	        	       0	(  0  0  4)	  0  1
     28.3258	        	        	        	        	       0	(  1  0  0)	  0  1
     29.0229	        	        	        	        	       0	(  1  0  1)	  0  1
     31.0288	        	        	        	        	       0	(  1  0  2)	  0  1
     34.1368	        	        	        	        	       0	(  1  0  3)	  0  1
     37.7802	        	        	        	        	       0	(  0  0  6)	  0  1
     38.1134	        	        	        	        	       0	(  1  0  4)	  0  1
     42.7630	        	        	        	        	       0	(  1  0  5)	  0  1
     47.9465	        	        	        	        	       0	(  1  0  6)	  0  1
     50.2632	        	        	        	        	       0	(  1  1  0)	  0  1
     51.2007	        	        	        	        	       0	(  0  0  8)	  0  1
     51.9860	        	        	        	        	       0	(  1  1  2)	  0  1
     53.5763	        	        	        	        	       0	(  1  0  7)	  0  1
     56.9332	        	        	        	        	       0	(  1  1  4)	  0  1
     58.7605	        	        	        	        	       0	(  2  0  0)	  0  1
     59.1520	        	        	        	        	       0	(  2  0  1)	  0  1
     59.6060	        	        	        	        	       0	(  1  0  8)	  0  1
     60.3172	        	        	        	        	       0	(  2  0  2)	  0  1
     62.2302	        	        	        	        	       0	(  2  0  3)	  0  1
     64.6269	        	        	        	        	       0	(  1  1  6)	  0  1
     64.8539	        	        	        	        	       0	(  2  0  4)	  0  1
     65.4282	        	        	        	        	       0	(  0  0 10)	  0  1
     66.0215	        	        	        	        	       0	(  1  0  9)	  0  1
     68.1477	        	        	        	        	       0	(  2  0  5)	  0  1
     72.0746	        	        	        	        	       0	(  2  0  6)	  0  1
     72.8367	        	        	        	        	       0	(  1  0 10)	  0  1
     74.6632	        	        	        	        	       0	(  1  1  8)	  0  1
     76.6081	        	        	        	        	       0	(  2  0  7)	  0  1
     80.0932	        	        	        	        	       0	(  1  0 11)	  0  1
     80.9063	        	        	        	        	       0	(  0  0 12)	  0  1
     81.0024	        	        	        	        	       0	(  2  1  0)	  0  1
     81.3422	        	        	        	        	       0	(  2  1  1)	  0  1
     81.7376	        	        	        	        	       0	(  2  0  8)	  0  1
     82.3599	        	        	        	        	       0	(  2  1  2)	  0  1
     84.0510	        	        	        	        	       0	(  2  1  3)	  0  1
     86.4103	        	        	        	        	       0	(  2  1  4)	  0  1
     86.9327	        	        	        	        	       0	(  1  1 10)	  0  1
     87.4747	        	        	        	        	       0	(  2  0  9)	  0  1
     87.8663	        	        	        	        	       0	(  1  0 12)	  0  1
     89.4356	        	        	        	        	       0	(  2  1  5)	  0  1
     93.1325	        	        	        	        	       0	(  2  1  6)	  0  1
     93.8611	        	        	        	        	       0	(  2  0 10)	  0  1
     94.8919	        	        	        	        	       0	(  3  0  0)	  0  1
     95.2292	        	        	        	        	       0	(  3  0  1)	  0  1
     96.2423	        	        	        	        	       0	(  3  0  2)	  0  1
     96.2780	        	        	        	        	       0	(  1  0 13)	  0  1
     97.5204	        	        	        	        	       0	(  2  1  7)	  0  1
     97.9353	        	        	        	        	       0	(  3  0  3)	  0  1
     98.4425	        	        	        	        	       0	(  0  0 14)	  0  1
    100.3180	        	        	        	        	       0	(  3  0  4)	  0  1
    100.9817	        	        	        	        	       0	(  2  0 11)	  0  1
    101.8005	        	        	        	        	       0	(  1  1 12)	  0  1
    102.6420	        	        	        	        	       0	(  2  1  8)	  0  1
    103.4091	        	        	        	        	       0	(  3  0  5)	  0  1
    105.5287	        	        	        	        	       0	(  1  0 14)	  0  1
    107.2436	        	        	        	        	       0	(  3  0  6)	  0  1
    108.5779	        	        	        	        	       0	(  2  1  9)	  0  1
    108.9914	        	        	        	        	       0	(  2  0 12)	  0  1
    111.8832	        	        	        	        	       0	(  3  0  7)	  0  1
    115.4734	        	        	        	        	       0	(  2  1 10)	  0  1
    115.9696	        	        	        	        	       0	(  1  0 15)	  0  1
    116.6185	        	        	        	        	       0	(  2  2  0)	  0  1
    117.4357	        	        	        	        	       0	(  3  0  8)	  0  1
    118.1335	        	        	        	        	       0	(  2  2  2)	  0  1
    118.1738	        	        	        	        	       0	(  2  0 13)	  0  1
    119.9256	        	        	        	        	       0	(  0  0 16)	  0  1
    120.6405	        	        	        	        	       0	(  1  1 14)	  0  1
    122.8184	        	        	        	        	       0	(  2  2  4)	  0  1
    123.5989	        	        	        	        	       0	(  2  1 11)	  0  1
    124.0946	        	        	        	        	       0	(  3  0  9)	  0  1
    124.6847	        	        	        	        	       0	(  3  1  0)	  0  1
    125.0948	        	        	        	        	       0	(  3  1  1)	  0  1
    126.3382	        	        	        	        	       0	(  3  1  2)	  0  1
    128.3096	        	        	        	        	       0	(  1  0 16)	  0  1
    128.4562	        	        	        	        	       0	(  3  1  3)	  0  1
    129.1011	        	        	        	        	       0	(  2  0 14)	  0  1
    131.2574	        	        	        	        	       0	(  2  2  6)	  0  1
    131.5319	        	        	        	        	       0	(  3  1  4)	  0  1
    132.2340	        	        	        	        	       0	(  3  0 10)	  0  1
    133.5094	        	        	        	        	       0	(  2  1 12)	  0  1
    135.7187	        	        	        	        	       0	(  3  1  5)	  0  1
    141.3139	        	        	        	        	       0	(  3  1  6)	  0  1
    142.7114	        	        	        	        	       0	(  3  0 11)	  0  1
    143.2380	        	        	        	        	       0	(  2  0 15)	  0  1
    144.4748	        	        	        	        	       0	(  1  0 17)	  0  1
    145.4908	        	        	        	        	       0	(  2  2  8)	  0  1
    146.6632	        	        	        	        	       0	(  2  1 13)	  0  1
    148.9876	        	        	        	        	       0	(  3  1  7)	  0  1
    149.5699	        	        	        	        	       0	(  1  1 16)	  0  1
    153.9678	        	        	        	        	       0	(  0  0 18)	  0  1
    158.5915	        	        	        	        	       0	(  3  0 12)	  0  1
    158.8546	        	        	        	        	       0	(  4  0  0)	  0  1
    159.8123	        	        	        	        	       0	(  4  0  1)	  0  1
    160.9862	        	        	        	        	       0	(  3  1  8)	  0  1
    162.9949	        	        	        	        	       0	(  4  0  2)	  0  1
    169.6904	        	        	        	        	       0	(  2  0 16)	  0  1
    170.3618	        	        	        	        	       0	(  4  0  3)	  0  1
    174.1519	        	        	        	        	       0	(  2  1 14)	  0  1
