MSG Master    CELL:    5.91956   5.91956  23.28032   90.0000   90.0000  120.0000   SPGR: P 63/m m c             TEMP:   1074.85
  1   1280     2.52000     0.00000    -0.13159     0.00000     0.00000    0
    99     0     2
       0.00000      10.00000
     125.00000     130.00000
 2Theta	Yobs	Ycal	Yobs-Ycal	Backg	Posr	(hkl)	K
      0.7700	    0.00	  530.22	-1720.75	  413.53
      0.8700	    0.00	  531.13	-1720.75	  414.44
      0.9700	   39.00	  532.03	-1720.75	  415.34
      1.0700	   50.00	  532.91	-1720.75	  416.22
      1.1700	   43.00	  533.78	-1720.75	  417.09
      1.2700	   40.00	  534.64	-1720.75	  417.96
      1.3700	   51.00	  535.49	-1720.75	  418.80
      1.4700	   79.00	  536.33	-1720.75	  419.64
      1.5700	  314.00	  537.15	-1720.75	  420.46
      1.6700	  466.00	  537.97	-1720.75	  421.28
      1.7700	  575.00	  538.77	-1720.75	  422.08
      1.8700	  653.00	  539.55	-1720.75	  422.87
      1.9700	  756.00	  540.33	-1720.75	  423.64
      2.0700	  744.00	  541.10	-1720.75	  424.41
      2.1700	  842.00	  541.85	-1720.75	  425.16
      2.2700	  771.00	  542.59	-1720.75	  425.91
      2.3700	  709.00	  543.33	-1720.75	  426.64
      2.4700	  722.00	  544.05	-1720.75	  427.36
      2.5700	  695.00	  544.76	-1720.75	  428.07
      2.6700	  633.00	  545.45	-1720.75	  428.76
      2.7700	  681.00	  546.14	-1720.75	  429.45
      2.8700	  642.00	  546.82	-1720.75	  430.13
      2.9700	  602.00	  547.48	-1720.75	  430.79
      3.0700	  629.00	  548.14	-1720.75	  431.45
      3.1700	  561.00	  548.78	-1720.75	  432.09
      3.2700	  595.00	  549.41	-1720.75	  432.72
      3.3700	  711.00	  550.03	-1720.75	  433.35
      3.4700	  808.00	  550.65	-1720.75	  433.96
      3.5700	  855.00	  551.25	-1720.75	  434.56
      3.6700	  879.00	  551.84	-1720.75	  435.15
      3.7700	  939.00	  552.42	-1720.75	  435.73
      3.8700	  950.00	  552.99	-1720.75	  436.30
      3.9700	 1005.00	  553.55	-1720.75	  436.86
      4.0700	 1115.00	  554.10	-1720.75	  437.41
      4.1700	 1096.00	  554.64	-1720.75	  437.95
      4.2700	 1079.00	  555.17	-1720.75	  438.48
      4.3700	 1072.00	  555.69	-1720.75	  439.01
      4.4700	 1055.00	  556.21	-1720.75	  439.52
      4.5700	 1044.00	  556.71	-1720.75	  440.02
      4.6700	  985.00	  557.20	-1720.75	  440.51
      4.7700	 1034.00	  557.68	-1720.75	  440.99
      4.8700	  951.00	  558.15	-1720.75	  441.47
      4.9700	  997.00	  558.62	-1720.75	  441.93
      5.0700	  887.00	  559.07	-1720.75	  442.38
      5.1700	  922.00	  559.52	-1720.75	  442.83
      5.2700	  869.00	  559.95	-1720.75	  443.26
      5.3700	  837.00	  560.38	-1720.75	  443.69
      5.4700	  909.00	  560.80	-1720.75	  444.11
      5.5700	  900.00	  561.21	-1720.75	  444.52
      5.6700	  845.00	  561.61	-1720.75	  444.92
      5.7700	  832.00	  562.00	-1720.75	  445.31
      5.8700	  835.00	  562.38	-1720.75	  445.69
      5.9700	  856.00	  562.75	-1720.75	  446.06
      6.0700	  779.00	  563.12	-1720.75	  446.43
      6.1700	  758.00	  563.47	-1720.75	  446.78
      6.2700	  758.00	  563.82	-1720.75	  447.13
      6.3700	  778.00	  564.16	-1720.75	  447.47
      6.4700	  739.00	  564.49	-1720.75	  447.80
      6.5700	  725.00	  564.82	-1720.75	  448.13
      6.6700	  719.00	  565.13	-1720.75	  448.44
      6.7700	  743.00	  565.44	-1720.75	  448.75
      6.8700	  699.00	  565.73	-1720.75	  449.05
      6.9700	  729.00	  566.03	-1720.75	  449.34
      7.0700	  716.00	  566.31	-1720.75	  449.62
      7.1700	  663.00	  566.58	-1720.75	  449.89
      7.2700	  738.00	  566.85	-1720.75	  450.16
      7.3700	  684.00	  567.11	-1720.75	  450.42
      7.4700	  675.00	  567.36	-1720.75	  450.67
      7.5700	  634.00	  567.60	-1720.75	  450.91
      7.6700	  654.00	  567.84	-1720.75	  451.15
      7.7700	  661.00	  568.07	-1720.75	  451.38
      7.8700	  612.00	  568.29	-1720.75	  451.60
      7.9700	  627.00	  568.50	-1720.75	  451.81
      8.0700	  604.00	  568.71	-1720.75	  452.02
      8.1700	  628.00	  568.91	-1720.75	  452.22
      8.2700	  647.00	  569.10	-1720.75	  452.41
      8.3700	  678.00	  569.28	-1720.75	  452.59
      8.4700	  640.00	  569.46	-1720.75	  452.77
      8.5700	  595.00	  569.63	-1720.75	  452.94
      8.6700	  594.00	  569.80	-1720.75	  453.11
      8.7700	  664.00	  569.95	-1720.75	  453.26
      8.8700	  598.00	  570.10	-1720.75	  453.41
      8.9700	  580.00	  570.25	-1720.75	  453.56
      9.0700	  624.00	  570.38	-1720.75	  453.69
      9.1700	  617.00	  570.51	-1720.75	  453.82
      9.2700	  565.00	  570.63	-1720.75	  453.95
      9.3700	  608.00	  570.75	-1720.75	  454.06
      9.4700	  583.00	  570.86	-1720.75	  454.17
      9.5700	  604.00	  570.97	-1720.75	  454.28
      9.6700	  609.00	  571.06	-1720.75	  454.37
      9.7700	  629.00	  571.15	-1720.75	  454.47
      9.8700	  584.00	  571.24	-1720.75	  454.55
      9.9700	  640.00	  571.32	-1720.75	  454.63
     10.0700	  605.00	  572.33	-1688.08	  454.70
     10.1700	  550.00	  572.50	-1743.25	  454.77
     10.2700	  611.00	  572.69	-1682.44	  454.83
     10.3700	  566.00	  572.92	-1727.67	  454.88
     10.4700	  556.00	  573.21	-1737.96	  454.93
     10.5700	  568.00	  573.63	-1726.38	  454.98
     10.6700	  586.00	  574.27	-1709.02	  455.01
     10.7700	  586.00	  575.24	-1709.99	  455.04
     10.8700	  546.00	  576.60	-1751.35	  455.07
     10.9700	  618.00	  578.34	-1681.09	  455.09
     11.0700	  569.00	  580.43	-1732.18	  455.10
     11.1700	  580.00	  582.88	-1723.63	  455.11
     11.2700	  561.00	  585.73	-1745.48	  455.12
     11.3700	  580.00	  589.05	-1729.80	  455.12
     11.4700	  589.00	  593.00	-1724.75	  455.11
     11.5700	  587.00	  597.79	-1731.54	  455.10
     11.6700	  619.00	  603.80	-1705.55	  455.08
     11.7700	  609.00	  611.64	-1723.39	  455.06
     11.8700	  684.00	  622.11	-1658.86	  455.03
     11.9700	  632.00	  635.43	-1724.18	  455.00
     12.0700	  680.00	  649.51	-1690.26	  454.96
     12.1700	  696.00	  658.23	-1682.98	  454.91
     12.2700	  655.00	  653.05	-1718.80	  454.87
     12.3700	  595.00	  632.84	-1758.59	  454.81
     12.4700	  635.00	  609.54	-1695.29	  454.76
     12.5700	  609.00	  592.49	-1704.24	  454.69
     12.6700	  633.00	  582.88	-1670.63	  454.63
     12.7700	  563.00	  578.25	-1736.00	  454.55
     12.8700	  578.00	  576.05	-1718.80	  454.48
     12.9700	  565.00	  574.83	-1730.58	  454.40
     13.0700	  557.00	  574.01	-1737.76	  454.31
     13.1700	  571.00	  573.40	-1723.15	  454.22
     13.2700	  564.00	  572.92	-1729.67	  454.13
     13.3700	  563.00	  572.52	-1730.27	  454.03
     13.4700	  544.00	  572.18	-1748.93	  453.93
     13.5700	  582.00	  571.89	-1710.64	  453.82
     13.6700	  601.00	  571.62	-1691.37	  453.71
     13.7700	  575.00	  571.38	-1717.13	  453.59
     13.8700	  527.00	  571.15	-1764.90	  453.47
     13.9700	  529.00	  570.94	-1762.69	  453.35
     14.0700	  558.00	  570.74	-1733.49	  453.22
     14.1700	  539.00	  570.54	-1752.29	  453.09
     14.2700	  569.00	  570.35	-1722.10	  452.95
     14.3700	  574.00	  570.16	-1716.91	  452.81
     14.4700	  632.00	  569.98	-1658.73	  452.67
     14.5700	  584.00	  569.79	-1706.54	  452.52
     14.6700	  544.00	  569.61	-1746.36	  452.37
     14.7700	  512.00	  569.42	-1778.17	  452.22
     14.8700	  588.00	  569.24	-1701.99	  452.06
     14.9700	  558.00	  569.05	-1731.80	  451.90
     15.0700	  560.00	  568.87	-1729.62	  451.73
     15.1700	  538.00	  568.68	-1751.43	  451.56
     15.2700	  575.00	  568.49	-1714.24	  451.39
     15.3700	  556.00	  568.30	-1733.05	  451.22
     15.4700	  568.00	  568.10	-1720.85	  451.04
     15.5700	  561.00	  567.91	-1727.66	  450.85
     15.6700	  547.00	  567.71	-1741.46	  450.67
     15.7700	  550.00	  567.54	-1738.29	  450.48
     15.8700	  579.00	  567.34	-1709.09	  450.29
     15.9700	  550.00	  567.13	-1737.88	  450.09
     16.0700	  557.00	  566.92	-1730.67	  449.89
     16.1700	  583.00	  566.72	-1704.47	  449.69
     16.2700	  586.00	  566.50	-1701.25	  449.49
     16.3700	  562.00	  566.29	-1725.04	  449.28
     16.4700	  554.00	  566.07	-1732.82	  449.07
     16.5700	  560.00	  565.86	-1726.61	  448.85
     16.6700	  591.00	  565.63	-1695.38	  448.64
     16.7700	  568.00	  565.41	-1718.16	  448.42
     16.8700	  611.00	  565.18	-1674.93	  448.20
     16.9700	  570.00	  564.96	-1715.71	  447.97
     17.0700	  555.00	  564.73	-1730.48	  447.75
     17.1700	  560.00	  564.49	-1725.24	  447.52
     17.2700	  569.00	  564.26	-1716.01	  447.28
     17.3700	  564.00	  564.02	-1720.77	  447.05
     17.4700	  559.00	  563.78	-1725.53	  446.81
     17.5700	  577.00	  563.54	-1707.29	  446.57
     17.6700	  559.00	  563.29	-1725.04	  446.33
     17.7700	  580.00	  563.05	-1703.80	  446.08
     17.8700	  538.00	  562.80	-1745.55	  445.83
     17.9700	  537.00	  562.65	-1746.40	  445.58
     18.0700	  506.00	  562.40	-1777.15	  445.33
     18.1700	  543.00	  562.15	-1739.90	  445.08
     18.2700	  560.00	  561.89	-1722.64	  444.82
     18.3700	  588.00	  561.64	-1694.39	  444.56
     18.4700	  520.00	  561.38	-1762.13	  444.30
     18.5700	  584.00	  561.12	-1697.87	  444.04
     18.6700	  572.00	  560.85	-1709.60	  443.77
     18.7700	  533.00	  560.68	-1748.43	  443.51
     18.8700	  553.00	  560.41	-1728.16	  443.24
     18.9700	  548.00	  560.15	-1732.90	  442.97
     19.0700	  550.00	  559.88	-1730.63	  442.69
     19.1700	  581.00	  559.61	-1699.36	  442.42
     19.2700	  566.00	  559.34	-1714.09	  442.14
     19.3700	  601.00	  559.07	-1678.82	  441.86
     19.4700	  541.00	  558.80	-1738.55	  441.58
     19.5700	  613.00	  558.52	-1666.27	  441.30
     19.6700	  612.00	  558.25	-1667.00	  441.02
     19.7700	  523.00	  557.97	-1755.72	  440.73
     19.8700	  532.00	  557.69	-1746.44	  440.44
     19.9700	  577.00	  557.41	-1701.16	  440.16
     20.0700	  553.00	  557.13	-1724.88	  439.87
     20.1700	  599.00	  556.85	-1678.60	  439.57
     20.2700	  533.00	  556.57	-1744.32	  439.28
     20.3700	  563.00	  556.29	-1714.04	  438.99
     20.4700	  601.00	  556.00	-1675.75	  438.69
     20.5700	  548.00	  555.72	-1728.47	  438.39
     20.6700	  578.00	  555.47	-1698.22	  438.09
     20.7700	  593.00	  555.18	-1682.93	  437.79
     20.8700	  547.00	  554.90	-1728.65	  437.49
     20.9700	  583.00	  554.61	-1692.36	  437.19
     21.0700	  509.00	  554.29	-1766.04	  436.88
     21.1700	  575.00	  554.01	-1699.76	  436.58
     21.2700	  533.00	  553.72	-1741.47	  436.27
     21.3700	  551.00	  553.44	-1723.19	  435.96
     21.4700	  587.00	  553.15	-1686.90	  435.66
     21.5700	  511.00	  552.87	-1762.62	  435.35
     21.6700	  556.00	  552.59	-1717.34	  435.04
     21.7700	  519.00	  552.31	-1754.06	  434.72
     21.8700	  573.00	  552.03	-1699.78	  434.41
     21.9700	  592.00	  551.75	-1680.50	  434.10
     22.0700	  519.00	  551.47	-1753.22	  433.78
     22.1700	  535.00	  551.20	-1736.95	  433.47
     22.2700	  552.00	  550.93	-1719.68	  433.15
     22.3700	  545.00	  550.66	-1726.41	  432.83
     22.4700	  546.00	  550.40	-1725.15	  432.51
     22.5700	  517.00	  550.14	-1753.89	  432.20
     22.6700	  559.00	  549.89	-1711.64	  431.88
     22.7700	  548.00	  549.64	-1722.39	  431.56
     22.8700	  496.00	  549.41	-1774.16	  431.23
     22.9700	  532.00	  549.19	-1737.94	  430.91
     23.0700	  572.00	  548.98	-1697.73	  430.59
     23.1700	  587.00	  548.79	-1682.54	  430.27
     23.2700	  511.00	  548.62	-1758.37	  429.94
     23.3700	  549.00	  548.49	-1720.24	  429.62
     23.4700	  564.00	  548.53	-1705.28	  429.30
     23.5700	  528.00	  548.49	-1741.24	  428.97
     23.6700	  507.00	  548.53	-1762.28	  428.65
     23.7700	  543.00	  548.72	-1726.47	  428.32
     23.8700	  562.00	  549.16	-1707.91	  427.99
     23.9700	  580.00	  550.10	-1690.85	  427.67
     24.0700	  560.00	  551.97	-1712.72	  427.34
     24.1700	  520.00	  555.42	-1756.17	  427.01
     24.2700	  557.00	  561.24	-1724.99	  426.69
     24.3700	  568.00	  570.31	-1723.06	  426.36
     24.4700	  578.00	  583.34	-1726.09	  426.03
     24.5700	  602.00	  600.01	-1718.76	  425.70
     24.6700	  627.00	  617.06	-1710.81	  425.37
     24.7700	  650.00	  627.19	-1697.94	  425.04
     24.8700	  692.00	  621.88	-1650.62	  424.71
     24.9700	  636.00	  602.07	-1686.82	  424.39
     25.0700	  619.00	  579.80	-1681.55	  424.06
     25.1700	  531.00	  563.30	-1753.05	  423.73
     25.2700	  527.00	  553.71	-1747.46	  423.40
     25.3700	  562.00	  548.92	-1707.67	  423.07
     25.4700	  570.00	  546.59	-1697.34	  422.74
     25.5700	  526.00	  545.31	-1740.06	  422.41
     25.6700	  574.00	  544.47	-1691.22	  422.08
     25.7700	  581.00	  543.86	-1683.61	  421.75
     25.8700	  575.00	  543.40	-1689.15	  421.42
     25.9700	  570.00	  543.06	-1693.81	  421.09
     26.0700	  529.00	  542.80	-1734.55	  420.77
     26.1700	  589.00	  542.63	-1674.38	  420.44
     26.2700	  536.00	  542.54	-1727.29	  420.11
     26.3700	  540.00	  542.53	-1723.28	  419.78
     26.4700	  551.00	  542.62	-1712.36	  419.45
     26.5700	  544.00	  542.80	-1719.55	  419.13
     26.6700	  620.00	  543.10	-1643.85	  418.80
     26.7700	  529.00	  543.55	-1735.30	  418.47
     26.8700	  536.00	  544.18	-1728.93	  418.14
     26.9700	  549.00	  545.05	-1716.80	  417.82
     27.0700	  542.00	  546.23	-1724.98	  417.49
     27.1700	  544.00	  547.87	-1724.62	  417.17
     27.2700	  611.00	  550.25	-1660.00	  416.84
     27.3700	  606.00	  553.90	-1668.65	  416.52
     27.4700	  541.00	  559.87	-1739.62	  416.19
     27.5700	  567.00	  570.03	-1723.78	  415.87
     27.6700	  583.00	  587.27	-1725.02	  415.54
     27.7700	  545.00	  615.27	-1791.02	  415.22
     27.8700	  624.00	  657.05	-1753.80	  414.90
     27.9700	  676.00	  712.38	-1757.13	  414.58
     28.0700	  808.00	  774.46	-1687.21	  414.26
     28.1700	  941.00	  827.12	-1606.87	  413.93
     28.2700	  980.00	  847.05	-1587.80	  413.61
     28.3700	  910.00	  822.75	-1633.50	  413.29
     28.4700	  808.00	  778.76	-1691.51	  412.98
     28.5700	  762.00	  750.45	-1709.20	  412.66
     28.6700	  704.00	  752.39	-1769.14	  412.34
     28.7700	  709.00	  778.17	-1789.92	  412.02
     28.8700	  835.00	  806.35	-1692.10	  411.71
     28.9700	  803.00	  808.10	-1725.85	  411.39
     29.0700	  777.00	  767.32	-1711.07	  411.08
     29.1700	  719.00	  702.31	-1704.06	  410.76
     29.2700	  645.00	  641.77	-1717.52	  410.45
     29.3700	  565.00	  598.45	-1754.20	  410.14
     29.4700	  530.00	  572.29	-1763.04	  409.83
     29.5700	  598.00	  558.06	-1680.81	  409.52
     29.6700	  571.00	  550.47	-1700.22	  409.21
     29.7700	  621.00	  546.14	-1645.89	  408.90
     29.8700	  562.00	  543.43	-1702.18	  408.59
     29.9700	  567.00	  541.71	-1695.46	  408.28
     30.0700	  545.00	  540.86	-1716.61	  407.98
     30.1700	  581.00	  541.03	-1680.78	  407.67
     30.2700	  566.00	  542.79	-1697.54	  407.37
     30.3700	  551.00	  547.18	-1716.93	  407.06
     30.4700	  543.00	  555.74	-1733.49	  406.76
     30.5700	  533.00	  569.92	-1757.67	  406.46
     30.6700	  606.00	  589.86	-1704.61	  406.16
     30.7700	  608.00	  612.79	-1725.54	  405.86
     30.8700	  631.00	  631.82	-1721.57	  405.56
     30.9700	  623.00	  637.13	-1734.88	  405.26
     31.0700	  629.00	  622.94	-1714.69	  404.97
     31.1700	  572.00	  596.85	-1745.60	  404.67
     31.2700	  541.00	  571.37	-1751.12	  404.38
     31.3700	  544.00	  552.66	-1729.41	  404.09
     31.4700	  521.00	  541.21	-1740.96	  403.79
     31.5700	  606.00	  534.99	-1649.74	  403.50
     31.6700	  522.00	  531.72	-1730.47	  403.21
     31.7700	  554.00	  529.88	-1696.63	  402.93
     31.8700	  510.00	  528.71	-1739.46	  402.64
     31.9700	  509.00	  527.91	-1739.66	  402.35
     32.0700	  566.00	  527.35	-1682.10	  402.07
     32.1700	  537.00	  526.97	-1710.72	  401.78
     32.2700	  553.00	  526.77	-1694.52	  401.50
     32.3700	  540.00	  526.72	-1707.47	  401.22
     32.4700	  546.00	  526.85	-1701.60	  400.94
     32.5700	  515.00	  527.15	-1732.90	  400.66
     32.6700	  554.00	  527.68	-1694.43	  400.39
     32.7700	  543.00	  528.48	-1706.23	  400.11
     32.8700	  599.00	  529.62	-1651.37	  399.84
     32.9700	  490.00	  531.25	-1762.00	  399.56
     33.0700	  571.00	  533.62	-1683.37	  399.29
     33.1700	  533.00	  537.27	-1725.02	  399.02
     33.2700	  538.00	  543.42	-1726.17	  398.75
     33.3700	  555.00	  554.59	-1720.34	  398.48
     33.4700	  555.00	  575.39	-1741.14	  398.22
     33.5700	  608.00	  612.72	-1725.47	  397.95
     33.6700	  675.00	  673.77	-1719.52	  397.69
     33.7700	  783.00	  760.41	-1698.16	  397.42
     33.8700	  910.00	  861.52	-1672.27	  397.16
     33.9700	  974.00	  948.74	-1695.49	  396.90
     34.0700	 1088.00	  981.09	-1613.84	  396.65
     34.1700	  995.00	  932.55	-1658.30	  396.39
     34.2700	  930.00	  829.09	-1619.84	  396.13
     34.3700	  704.00	  721.46	-1738.21	  395.88
     34.4700	  624.00	  638.72	-1735.47	  395.63
     34.5700	  573.00	  586.24	-1733.99	  395.38
     34.6700	  526.00	  557.22	-1751.97	  395.13
     34.7700	  555.00	  542.21	-1707.96	  394.88
     34.8700	  515.00	  534.18	-1739.93	  394.63
     34.9700	  555.00	  529.30	-1695.05	  394.39
     35.0700	  533.00	  525.92	-1713.67	  394.15
     35.1700	  490.00	  523.36	-1754.11	  393.91
     35.2700	  489.00	  521.33	-1753.08	  393.67
     35.3700	  523.00	  519.68	-1717.43	  393.43
     35.4700	  553.00	  518.31	-1686.06	  393.19
     35.5700	  475.00	  517.15	-1762.90	  392.95
     35.6700	  511.00	  516.15	-1725.90	  392.72
     35.7700	  532.00	  515.29	-1704.04	  392.49
     35.8700	  495.00	  514.53	-1740.28	  392.26
     35.9700	  489.00	  514.32	-1746.07	  392.03
     36.0700	  552.00	  513.72	-1682.47	  391.80
     36.1700	  466.00	  513.19	-1767.94	  391.58
     36.2700	  532.00	  512.70	-1701.45	  391.35
     36.3700	  539.00	  512.27	-1694.02	  391.13
     36.4700	  516.00	  511.87	-1716.62	  390.91
     36.5700	  486.00	  511.52	-1746.27	  390.69
     36.6700	  541.00	  511.22	-1690.97	  390.47
     36.7700	  486.00	  510.98	-1745.73	  390.26
     36.8700	  481.00	  510.82	-1750.57	  390.04
     36.9700	  488.00	  510.82	-1743.57	  389.83
     37.0700	  493.00	  511.14	-1738.89	  389.62
     37.1700	  506.00	  512.02	-1726.77	  389.41
     37.2700	  489.00	  513.81	-1745.56	  389.20
     37.3700	  548.00	  516.75	-1689.50	  389.00
     37.4700	  536.00	  520.66	-1705.41	  388.79
     37.5700	  514.00	  524.72	-1731.47	  388.59
     37.6700	  521.00	  527.40	-1727.15	  388.39
     37.7700	  507.00	  527.26	-1741.01	  388.19
     37.8700	  518.00	  524.37	-1727.12	  387.99
     37.9700	  495.00	  520.30	-1746.05	  387.80
     38.0700	  547.00	  516.37	-1690.12	  387.60
     38.1700	  541.00	  513.06	-1692.81	  387.41
     38.2700	  530.00	  510.54	-1701.29	  387.22
     38.3700	  472.00	  508.77	-1757.52	  387.03
     38.4700	  505.00	  507.59	-1723.34	  386.84
     38.5700	  489.00	  506.80	-1738.55	  386.66
     38.6700	  493.00	  506.17	-1733.92	  386.48
     38.7700	  489.00	  505.78	-1737.53	  386.29
     38.8700	  471.00	  505.48	-1755.22	  386.11
     38.9700	  485.00	  505.21	-1740.96	  385.94
     39.0700	  490.00	  504.98	-1735.73	  385.76
     39.1700	  488.00	  504.90	-1737.65	  385.59
     39.2700	  537.00	  504.70	-1688.45	  385.41
     39.3700	  557.00	  504.43	-1668.18	  385.24
     39.4700	  520.00	  504.26	-1705.01	  385.07
     39.5700	  500.00	  504.10	-1724.85	  384.91
     39.6700	  469.00	  503.95	-1755.70	  384.74
     39.7700	  480.00	  503.81	-1744.56	  384.58
     39.8700	  502.00	  503.67	-1722.42	  384.41
     39.9700	  488.00	  503.55	-1736.30	  384.25
     40.0700	  473.00	  503.44	-1751.19	  384.10
     40.1700	  521.00	  503.34	-1703.09	  383.94
     40.2700	  500.00	  503.25	-1724.00	  383.78
     40.3700	  512.00	  503.18	-1711.93	  383.63
     40.4700	  496.00	  503.11	-1727.86	  383.48
     40.5700	  523.00	  503.07	-1700.82	  383.33
     40.6700	  497.00	  503.04	-1726.79	  383.18
     40.7700	  473.00	  503.03	-1750.78	  383.04
     40.8700	  523.00	  503.05	-1700.80	  382.89
     40.9700	  465.00	  503.09	-1758.84	  382.75
     41.0700	  500.00	  503.17	-1723.92	  382.61
     41.1700	  469.00	  503.30	-1755.05	  382.47
     41.2700	  500.00	  503.47	-1724.22	  382.34
     41.3700	  508.00	  504.17	-1716.92	  382.20
     41.4700	  476.00	  504.48	-1749.23	  382.07
     41.5700	  519.00	  504.96	-1706.71	  381.94
     41.6700	  455.00	  505.63	-1771.38	  381.81
     41.7700	  524.00	  506.67	-1703.42	  381.68
     41.8700	  498.00	  508.42	-1731.17	  381.55
     41.9700	  524.00	  511.63	-1708.38	  381.43
     42.0700	  527.00	  517.65	-1711.40	  381.31
     42.1700	  534.00	  528.44	-1715.19	  381.19
     42.2700	  539.00	  546.08	-1727.83	  381.07
     42.3700	  561.00	  571.20	-1730.95	  380.95
     42.4700	  526.00	  601.40	-1796.15	  380.84
     42.5700	  641.00	  629.67	-1709.42	  380.73
     42.6700	  617.00	  645.48	-1749.23	  380.62
     42.7700	  627.00	  640.12	-1733.87	  380.51
     42.8700	  621.00	  616.02	-1715.77	  380.40
     42.9700	  569.00	  584.60	-1736.35	  380.29
     43.0700	  572.00	  555.87	-1704.62	  380.19
     43.1700	  494.00	  534.44	-1761.19	  380.09
     43.2700	  540.00	  520.70	-1701.45	  379.99
     43.3700	  480.00	  512.87	-1753.62	  379.89
     43.4700	  534.00	  508.69	-1695.44	  379.79
     43.5700	  504.00	  506.44	-1723.19	  379.70
     43.6700	  524.00	  505.35	-1702.10	  379.60
     43.7700	  512.00	  504.49	-1713.24	  379.51
     43.8700	  499.00	  503.86	-1725.61	  379.42
     43.9700	  478.00	  503.39	-1746.14	  379.34
     44.0700	  563.00	  503.02	-1660.77	  379.25
     44.1700	  542.00	  502.73	-1681.48	  379.17
     44.2700	  545.00	  502.51	-1678.26	  379.09
     44.3700	  517.00	  502.34	-1706.09	  379.01
     44.4700	  538.00	  502.21	-1684.96	  378.93
     44.5700	  544.00	  502.12	-1678.87	  378.85
     44.6700	  501.00	  502.06	-1721.81	  378.78
     44.7700	  473.00	  502.03	-1749.78	  378.70
     44.8700	  487.00	  501.90	-1735.65	  378.63
     44.9700	  537.00	  501.92	-1685.67	  378.56
     45.0700	  482.00	  502.15	-1740.90	  378.49
     45.1700	  553.00	  502.22	-1669.97	  378.43
     45.2700	  502.00	  502.32	-1721.07	  378.36
     45.3700	  483.00	  502.44	-1740.19	  378.30
     45.4700	  498.00	  502.58	-1725.33	  378.24
     45.5700	  447.00	  502.74	-1776.49	  378.18
     45.6700	  551.00	  502.94	-1672.69	  378.13
     45.7700	  493.00	  503.16	-1730.91	  378.07
     45.8700	  503.00	  503.41	-1721.16	  378.02
     45.9700	  512.00	  503.69	-1712.44	  377.96
     46.0700	  509.00	  504.01	-1715.76	  377.91
     46.1700	  489.00	  504.38	-1736.13	  377.87
     46.2700	  512.00	  504.79	-1713.54	  377.82
     46.3700	  489.00	  505.26	-1737.01	  377.78
     46.4700	  511.00	  505.79	-1715.54	  377.73
     46.5700	  518.00	  506.40	-1709.15	  377.69
     46.6700	  514.00	  507.11	-1713.86	  377.65
     46.7700	  524.00	  507.96	-1704.71	  377.61
     46.8700	  518.00	  509.01	-1711.76	  377.58
     46.9700	  451.00	  510.52	-1780.27	  377.54
     47.0700	  495.00	  512.66	-1738.41	  377.51
     47.1700	  568.00	  516.11	-1668.86	  377.48
     47.2700	  497.00	  521.84	-1745.59	  377.45
     47.3700	  530.00	  530.99	-1721.74	  377.42
     47.4700	  578.00	  544.46	-1687.21	  377.40
     47.5700	  528.00	  562.09	-1754.84	  377.37
     47.6700	  564.00	  581.77	-1738.52	  377.35
     47.7700	  600.00	  599.16	-1719.91	  377.33
     47.8700	  569.00	  608.32	-1760.07	  377.31
     47.9700	  573.00	  605.48	-1753.23	  377.29
     48.0700	  576.00	  592.70	-1737.45	  377.28
     48.1700	  562.00	  576.04	-1734.79	  377.26
     48.2700	  530.00	  560.77	-1751.52	  377.25
     48.3700	  553.00	  549.68	-1717.43	  377.24
     48.4700	  539.00	  543.43	-1725.18	  377.23
     48.5700	  533.00	  541.43	-1729.18	  377.22
     48.6700	  549.00	  542.62	-1714.37	  377.22
     48.7700	  526.00	  546.16	-1740.91	  377.21
     48.8700	  535.00	  551.62	-1737.37	  377.21
     48.9700	  581.00	  559.09	-1698.84	  377.21
     49.0700	  557.00	  569.29	-1733.04	  377.21
     49.1700	  537.00	  583.97	-1767.72	  377.21
     49.2700	  591.00	  607.09	-1736.84	  377.22
     49.3700	  605.00	  644.86	-1760.61	  377.22
     49.4700	  711.00	  709.00	-1718.75	  377.23
     49.5700	  797.00	  815.54	-1739.29	  377.24
     49.6700	  898.00	  982.20	-1804.95	  377.25
     49.7700	 1154.00	 1221.29	-1788.04	  377.26
     49.8700	 1519.00	 1529.08	-1730.83	  377.27
     49.9700	 1845.00	 1874.22	-1749.97	  377.29
     50.0700	 2232.00	 2189.58	-1678.33	  377.30
     50.1700	 2519.00	 2379.08	-1580.83	  377.32
     50.2700	 2390.00	 2363.05	-1693.80	  377.34
     50.3700	 2226.00	 2147.03	-1641.78	  377.36
     50.4700	 1772.00	 1820.04	-1768.79	  377.38
     50.5700	 1444.00	 1479.55	-1756.30	  377.41
     50.6700	 1024.00	 1187.61	-1884.36	  377.43
     50.7700	  822.00	  969.79	-1868.54	  377.46
     50.8700	  772.00	  825.24	-1773.99	  377.49
     50.9700	  649.00	  738.02	-1809.77	  377.52
     51.0700	  611.00	  687.34	-1797.09	  377.55
     51.1700	  621.00	  655.11	-1754.86	  377.58
     51.2700	  601.00	  630.17	-1749.92	  377.62
     51.3700	  578.00	  608.48	-1751.23	  377.65
     51.4700	  588.00	  589.74	-1722.49	  377.69
     51.5700	  615.00	  574.49	-1680.24	  377.73
     51.6700	  559.00	  562.94	-1724.69	  377.77
     51.7700	  591.00	  554.76	-1684.51	  377.81
     51.8700	  574.00	  549.31	-1696.06	  377.85
     51.9700	  551.00	  546.10	-1715.85	  377.90
     52.0700	  565.00	  544.11	-1699.86	  377.94
     52.1700	  591.00	  543.24	-1672.99	  377.99
     52.2700	  556.00	  543.40	-1708.15	  378.04
     52.3700	  589.00	  544.75	-1676.50	  378.09
     52.4700	  545.00	  547.85	-1723.60	  378.14
     52.5700	  557.00	  553.98	-1717.73	  378.19
     52.6700	  590.00	  565.67	-1696.42	  378.25
     52.7700	  637.00	  587.20	-1670.95	  378.30
     52.8700	  702.00	  624.60	-1643.35	  378.36
     52.9700	  765.00	  684.58	-1640.33	  378.42
     53.0700	  852.00	  771.69	-1640.44	  378.47
     53.1700	  940.00	  884.32	-1665.07	  378.53
     53.2700	 1036.00	 1010.69	-1695.44	  378.60
     53.3700	 1081.00	 1126.65	-1766.40	  378.66
     53.4700	 1197.00	 1198.57	-1722.32	  378.72
     53.5700	 1157.00	 1198.21	-1761.96	  378.79
     53.6700	 1116.00	 1125.24	-1729.99	  378.86
     53.7700	 1002.00	 1008.35	-1727.10	  378.92
     53.8700	  876.00	  881.87	-1726.62	  378.99
     53.9700	  713.00	  769.88	-1777.63	  379.06
     54.0700	  653.00	  683.82	-1751.57	  379.14
     54.1700	  619.00	  625.01	-1726.76	  379.21
     54.2700	  588.00	  588.71	-1721.46	  379.28
     54.3700	  602.00	  568.12	-1686.87	  379.36
     54.4700	  600.00	  557.17	-1677.92	  379.44
     54.5700	  588.00	  551.62	-1684.37	  379.51
     54.6700	  547.00	  548.97	-1722.72	  379.59
     54.7700	  600.00	  547.99	-1668.74	  379.67
     54.8700	  577.00	  548.05	-1691.80	  379.75
     54.9700	  526.00	  549.02	-1743.77	  379.84
     55.0700	  562.00	  550.75	-1709.50	  379.92
     55.1700	  545.00	  553.28	-1729.03	  380.01
     55.2700	  565.00	  556.68	-1712.43	  380.09
     55.3700	  567.00	  561.09	-1714.84	  380.18
     55.4700	  579.00	  566.76	-1708.51	  380.27
     55.5700	  594.00	  574.15	-1700.90	  380.36
     55.6700	  565.00	  584.19	-1739.94	  380.45
     55.7700	  588.00	  598.78	-1731.53	  380.54
     55.8700	  603.00	  621.64	-1739.39	  380.63
     55.9700	  620.00	  659.45	-1760.20	  380.72
     56.0700	  677.00	  723.00	-1766.75	  380.82
     56.1700	  800.00	  827.29	-1748.04	  380.91
     56.2700	  904.00	  989.26	-1806.01	  381.01
     56.3700	 1141.00	 1222.38	-1802.13	  381.11
     56.4700	 1420.00	 1528.37	-1829.12	  381.20
     56.5700	 1886.00	 1888.11	-1722.86	  381.30
     56.6700	 2180.00	 2254.97	-1795.72	  381.40
     56.7700	 2465.00	 2553.14	-1808.89	  381.51
     56.8700	 2592.00	 2694.28	-1823.03	  381.61
     56.9700	 2616.00	 2625.25	-1730.00	  381.71
     57.0700	 2341.00	 2372.75	-1752.50	  381.82
     57.1700	 2024.00	 2020.69	-1717.44	  381.92
     57.2700	 1613.00	 1653.67	-1761.42	  382.03
     57.3700	 1285.00	 1328.79	-1764.54	  382.13
     57.4700	 1026.00	 1073.85	-1768.60	  382.24
     57.5700	  858.00	  893.44	-1756.19	  382.35
     57.6700	  787.00	  777.37	-1711.12	  382.46
     57.7700	  705.00	  709.84	-1725.59	  382.57
     57.8700	  705.00	  676.05	-1691.80	  382.68
     57.9700	  702.00	  665.60	-1684.35	  382.79
     58.0700	  647.00	  672.94	-1746.69	  382.91
     58.1700	  708.00	  696.20	-1708.95	  383.02
     58.2700	  789.00	  735.31	-1667.06	  383.13
     58.3700	  840.00	  790.35	-1671.10	  383.25
     58.4700	  927.00	  859.88	-1653.63	  383.37
     58.5700	  994.00	  939.46	-1666.21	  383.48
     58.6700	 1101.00	 1021.33	-1641.08	  383.60
     58.7700	 1343.00	 1096.72	-1474.47	  383.72
     58.8700	 1369.00	 1159.75	-1511.50	  383.84
     58.9700	 1360.00	 1206.79	-1567.54	  383.96
     59.0700	 1495.00	 1232.72	-1458.47	  384.08
     59.1700	 1484.00	 1233.34	-1470.09	  384.20
     59.2700	 1404.00	 1212.67	-1529.42	  384.32
     59.3700	 1350.00	 1182.46	-1553.21	  384.45
     59.4700	 1244.00	 1154.29	-1631.04	  384.57
     59.5700	 1227.00	 1136.39	-1630.14	  384.69
     59.6700	 1174.00	 1136.62	-1683.37	  384.82
     59.7700	 1171.00	 1163.81	-1713.56	  384.94
     59.8700	 1285.00	 1222.60	-1658.35	  385.07
     59.9700	 1292.00	 1307.67	-1736.42	  385.20
     60.0700	 1419.00	 1401.54	-1703.29	  385.32
     60.1700	 1511.00	 1475.53	-1685.28	  385.45
     60.2700	 1574.00	 1497.72	-1644.47	  385.58
     60.3700	 1486.00	 1450.17	-1684.92	  385.71
     60.4700	 1365.00	 1341.96	-1697.71	  385.84
     60.5700	 1225.00	 1200.45	-1696.20	  385.97
     60.6700	 1084.00	 1053.72	-1690.47	  386.10
     60.7700	  937.00	  921.67	-1705.42	  386.23
     60.8700	  838.00	  815.35	-1698.10	  386.36
     60.9700	  679.00	  738.32	-1780.07	  386.49
     61.0700	  658.00	  689.29	-1752.04	  386.63
     61.1700	  614.00	  665.15	-1771.90	  386.76
     61.2700	  637.00	  663.36	-1747.11	  386.89
     61.3700	  674.00	  683.54	-1730.29	  387.03
     61.4700	  695.00	  727.56	-1753.31	  387.16
     61.5700	  767.00	  798.12	-1751.87	  387.30
     61.6700	  844.00	  896.50	-1773.25	  387.43
     61.7700	  985.00	 1019.75	-1755.50	  387.57
     61.8700	 1049.00	 1158.24	-1829.99	  387.71
     61.9700	 1232.00	 1294.12	-1782.87	  387.84
     62.0700	 1321.00	 1401.55	-1801.30	  387.98
     62.1700	 1363.00	 1452.20	-1809.95	  388.12
     62.2700	 1371.00	 1429.29	-1779.04	  388.25
     62.3700	 1288.00	 1339.88	-1772.63	  388.39
     62.4700	 1198.00	 1209.52	-1732.27	  388.53
     62.5700	  945.00	 1066.30	-1842.05	  388.67
     62.6700	  884.00	  931.56	-1768.31	  388.81
     62.7700	  783.00	  817.90	-1755.65	  388.95
     62.8700	  701.00	  730.30	-1750.05	  389.09
     62.9700	  616.00	  667.93	-1772.68	  389.23
     63.0700	  645.00	  626.53	-1702.28	  389.37
     63.1700	  605.00	  600.72	-1716.47	  389.51
     63.2700	  570.00	  585.59	-1736.34	  389.65
     63.3700	  568.00	  577.54	-1730.29	  389.79
     63.4700	  530.00	  574.49	-1765.24	  389.93
     63.5700	  559.00	  575.75	-1737.50	  390.07
     63.6700	  547.00	  581.78	-1755.53	  390.22
     63.7700	  609.00	  593.99	-1705.74	  390.36
     63.8700	  593.00	  614.30	-1742.05	  390.50
     63.9700	  683.00	  644.64	-1682.39	  390.64
     64.0700	  761.00	  686.20	-1645.95	  390.78
     64.1700	  746.00	  738.48	-1713.23	  390.93
     64.2700	  875.00	  798.58	-1644.33	  391.07
     64.3700	  920.00	  860.44	-1661.19	  391.21
     64.4700	  947.00	  915.07	-1688.82	  391.35
     64.5700	 1063.00	  951.71	-1609.46	  391.50
     64.6700	 1007.00	  963.78	-1677.53	  391.64
     64.7700	  978.00	  949.55	-1692.30	  391.78
     64.8700	  947.00	  913.96	-1687.71	  391.93
     64.9700	  895.00	  865.24	-1690.99	  392.07
     65.0700	  881.00	  812.32	-1652.07	  392.21
     65.1700	  833.00	  762.11	-1649.86	  392.36
     65.2700	  681.00	  718.32	-1758.07	  392.50
     65.3700	  679.00	  681.81	-1723.56	  392.64
     65.4700	  620.00	  651.89	-1752.64	  392.79
     65.5700	  639.00	  627.67	-1709.42	  392.93
     65.6700	  607.00	  608.46	-1722.21	  393.07
     65.7700	  585.00	  593.66	-1729.41	  393.22
     65.8700	  553.00	  582.72	-1750.47	  393.36
     65.9700	  588.00	  575.11	-1707.86	  393.50
     66.0700	  509.00	  570.35	-1782.10	  393.64
     66.1700	  553.00	  567.98	-1735.73	  393.79
     66.2700	  505.00	  567.59	-1783.34	  393.93
     66.3700	  588.00	  568.94	-1701.69	  394.07
     66.4700	  546.00	  571.68	-1746.43	  394.22
     66.5700	  529.00	  575.99	-1767.74	  394.36
     66.6700	  545.00	  582.33	-1758.08	  394.50
     66.7700	  537.00	  591.72	-1775.47	  394.64
     66.8700	  614.00	  606.11	-1712.86	  394.78
     66.9700	  632.00	  628.74	-1717.49	  394.93
     67.0700	  636.00	  664.64	-1749.39	  395.07
     67.1700	  697.00	  720.78	-1744.53	  395.21
     67.2700	  784.00	  805.65	-1742.40	  395.35
     67.3700	  928.00	  928.08	-1720.83	  395.49
     67.4700	 1155.00	 1094.47	-1660.22	  395.63
     67.5700	 1283.00	 1306.30	-1744.05	  395.77
     67.6700	 1560.00	 1556.53	-1717.28	  395.91
     67.7700	 1815.00	 1827.09	-1732.84	  396.05
     67.8700	 2141.00	 2087.84	-1667.59	  396.19
     67.9700	 2200.00	 2297.66	-1818.41	  396.33
     68.0700	 2439.00	 2412.04	-1693.79	  396.47
     68.1700	 2395.00	 2401.49	-1727.24	  396.61
     68.2700	 2299.00	 2268.59	-1690.34	  396.75
     68.3700	 2116.00	 2047.31	-1652.06	  396.88
     68.4700	 1878.00	 1782.63	-1625.38	  397.02
     68.5700	 1488.00	 1514.14	-1746.89	  397.16
     68.6700	 1247.00	 1269.81	-1743.56	  397.29
     68.7700	 1018.00	 1065.77	-1768.52	  397.43
     68.8700	  899.00	  907.51	-1729.26	  397.57
     68.9700	  747.00	  792.53	-1766.28	  397.70
     69.0700	  713.00	  713.62	-1721.37	  397.84
     69.1700	  642.00	  661.94	-1740.69	  397.97
     69.2700	  630.00	  629.19	-1719.94	  398.11
     69.3700	  631.00	  608.73	-1698.48	  398.24
     69.4700	  599.00	  595.84	-1717.59	  398.37
     69.5700	  560.00	  587.48	-1748.23	  398.51
     69.6700	  611.00	  581.86	-1691.61	  398.64
     69.7700	  586.00	  577.98	-1712.73	  398.77
     69.8700	  554.00	  575.29	-1742.04	  398.90
     69.9700	  615.00	  573.54	-1679.29	  399.03
     70.0700	  611.00	  572.58	-1682.33	  399.16
     70.1700	  587.00	  572.36	-1706.11	  399.29
     70.2700	  562.00	  572.92	-1731.67	  399.42
     70.3700	  581.00	  574.39	-1714.14	  399.55
     70.4700	  599.00	  577.05	-1698.80	  399.68
     70.5700	  570.00	  581.43	-1732.18	  399.81
     70.6700	  561.00	  588.52	-1748.27	  399.93
     70.7700	  598.00	  599.93	-1722.68	  400.06
     70.8700	  582.00	  618.20	-1756.95	  400.18
     70.9700	  639.00	  646.97	-1728.72	  400.31
     71.0700	  709.00	  690.93	-1702.68	  400.43
     71.1700	  711.00	  755.47	-1765.22	  400.56
     71.2700	  829.00	  845.77	-1737.52	  400.68
     71.3700	  956.00	  965.35	-1730.10	  400.80
     71.4700	 1102.00	 1115.12	-1733.87	  400.92
     71.5700	 1286.00	 1288.43	-1723.18	  401.04
     71.6700	 1401.00	 1474.63	-1794.38	  401.16
     71.7700	 1683.00	 1655.53	-1693.28	  401.28
     71.8700	 1809.00	 1806.74	-1718.49	  401.40
     71.9700	 1874.00	 1901.22	-1747.97	  401.52
     72.0700	 1893.00	 1918.04	-1745.79	  401.64
     72.1700	 1878.00	 1853.16	-1695.91	  401.75
     72.2700	 1651.00	 1721.87	-1791.62	  401.87
     72.3700	 1550.00	 1550.05	-1720.80	  401.99
     72.4700	 1440.00	 1363.82	-1644.57	  402.10
     72.5700	 1209.00	 1183.54	-1695.29	  402.21
     72.6700	 1069.00	 1024.11	-1675.86	  402.33
     72.7700	  925.00	  892.35	-1688.10	  402.44
     72.8700	  858.00	  789.94	-1652.69	  402.55
     72.9700	  812.00	  714.57	-1623.32	  402.66
     73.0700	  776.00	  661.63	-1606.38	  402.77
     73.1700	  736.00	  625.78	-1610.53	  402.88
     73.2700	  712.00	  602.08	-1610.83	  402.98
     73.3700	  642.00	  586.54	-1665.29	  403.09
     73.4700	  647.00	  576.27	-1650.02	  403.19
     73.5700	  618.00	  569.36	-1672.11	  403.30
     73.6700	  600.00	  564.62	-1685.37	  403.40
     73.7700	  654.00	  561.35	-1628.10	  403.51
     73.8700	  567.00	  559.17	-1712.92	  403.61
     73.9700	  579.00	  557.83	-1699.58	  403.71
     74.0700	  563.00	  557.17	-1714.92	  403.81
     74.1700	  593.00	  557.03	-1684.78	  403.91
     74.2700	  643.00	  557.23	-1634.98	  404.01
     74.3700	  620.00	  557.56	-1658.31	  404.10
     74.4700	  650.00	  557.77	-1628.52	  404.20
     74.5700	  624.00	  557.64	-1654.39	  404.30
     74.6700	  662.00	  556.98	-1615.73	  404.39
     74.7700	  627.00	  555.80	-1649.55	  404.48
     74.8700	  702.00	  554.26	-1573.01	  404.57
     74.9700	  591.00	  552.60	-1682.35	  404.67
     75.0700	  604.00	  551.12	-1667.87	  404.76
     75.1700	  571.00	  550.14	-1699.89	  404.84
     75.2700	  567.00	  549.94	-1703.69	  404.93
     75.3700	  609.00	  550.99	-1662.74	  405.02
     75.4700	  546.00	  553.69	-1728.44	  405.11
     75.5700	  609.00	  558.52	-1670.27	  405.19
     75.6700	  555.00	  565.84	-1731.59	  405.27
     75.7700	  605.00	  576.34	-1692.09	  405.36
     75.8700	  608.00	  590.12	-1702.87	  405.44
     75.9700	  633.00	  607.06	-1694.81	  405.52
     76.0700	  652.00	  626.54	-1695.29	  405.60
     76.1700	  604.00	  647.39	-1764.14	  405.68
     76.2700	  677.00	  667.82	-1711.57	  405.75
     76.3700	  702.00	  685.49	-1704.24	  405.83
     76.4700	  707.00	  697.76	-1711.51	  405.90
     76.5700	  706.00	  702.37	-1717.12	  405.98
     76.6700	  687.00	  698.34	-1732.09	  406.05
     76.7700	  700.00	  686.47	-1707.22	  406.12
     76.8700	  653.00	  668.95	-1736.70	  406.19
     76.9700	  594.00	  648.39	-1775.14	  406.26
     77.0700	  632.00	  627.00	-1715.75	  406.32
     77.1700	  572.00	  606.96	-1755.71	  406.39
     77.2700	  596.00	  589.33	-1714.08	  406.45
     77.3700	  539.00	  574.73	-1756.48	  406.52
     77.4700	  518.00	  563.28	-1766.03	  406.58
     77.5700	  508.00	  554.73	-1767.48	  406.64
     77.6700	  502.00	  548.64	-1767.39	  406.70
     77.7700	  516.00	  544.45	-1749.20	  406.76
     77.8700	  504.00	  541.66	-1758.41	  406.82
     77.9700	  559.00	  539.84	-1701.59	  406.87
     78.0700	  503.00	  538.67	-1756.42	  406.93
     78.1700	  523.00	  537.91	-1735.66	  406.98
     78.2700	  509.00	  537.42	-1749.17	  407.03
     78.3700	  540.00	  537.11	-1717.86	  407.08
     78.4700	  535.00	  536.93	-1722.68	  407.13
     78.5700	  551.00	  536.86	-1706.61	  407.18
     78.6700	  536.00	  536.89	-1721.64	  407.23
     78.7700	  544.00	  537.03	-1713.78	  407.27
     78.8700	  527.00	  537.30	-1731.05	  407.32
     78.9700	  502.00	  537.74	-1756.49	  407.36
     79.0700	  498.00	  538.38	-1761.13	  407.40
     79.1700	  485.00	  539.26	-1775.01	  407.44
     79.2700	  526.00	  540.43	-1735.18	  407.48
     79.3700	  548.00	  541.94	-1714.69	  407.52
     79.4700	  489.00	  543.66	-1775.41	  407.55
     79.5700	  547.00	  546.00	-1719.75	  407.59
     79.6700	  532.00	  548.83	-1737.58	  407.62
     79.7700	  514.00	  552.25	-1759.00	  407.65
     79.8700	  572.00	  556.36	-1705.11	  407.68
     79.9700	  546.00	  561.32	-1736.07	  407.71
     80.0700	  538.00	  567.32	-1750.07	  407.74
     80.1700	  523.00	  574.65	-1772.40	  407.76
     80.2700	  521.00	  583.64	-1783.39	  407.79
     80.3700	  571.00	  594.55	-1744.30	  407.81
     80.4700	  562.00	  607.53	-1766.28	  407.83
     80.5700	  636.00	  622.49	-1707.24	  407.85
     80.6700	  629.00	  639.04	-1730.79	  407.87
     80.7700	  591.00	  656.45	-1786.20	  407.89
     80.8700	  680.00	  673.70	-1714.45	  407.90
     80.9700	  708.00	  689.60	-1702.35	  407.92
     81.0700	  692.00	  703.05	-1731.80	  407.93
     81.1700	  730.00	  713.15	-1703.90	  407.94
     81.2700	  704.00	  719.28	-1736.03	  407.95
     81.3700	  719.00	  721.09	-1722.84	  407.96
     81.4700	  750.00	  718.53	-1689.28	  407.97
     81.5700	  735.00	  711.88	-1697.63	  407.97
     81.6700	  716.00	  701.57	-1706.32	  407.98
     81.7700	  727.00	  688.27	-1682.02	  407.98
     81.8700	  726.00	  672.88	-1667.63	  407.98
     81.9700	  732.00	  656.47	-1645.22	  407.98
     82.0700	  645.00	  640.06	-1715.81	  407.97
     82.1700	  659.00	  624.43	-1686.18	  407.97
     82.2700	  664.00	  610.09	-1666.84	  407.96
     82.3700	  630.00	  597.26	-1688.01	  407.96
     82.4700	  613.00	  586.18	-1693.93	  407.95
     82.5700	  574.00	  576.87	-1723.62	  407.94
     82.6700	  605.00	  569.33	-1685.08	  407.93
     82.7700	  597.00	  563.52	-1687.27	  407.91
     82.8700	  526.00	  559.43	-1754.18	  407.90
     82.9700	  508.00	  556.97	-1769.72	  407.88
     83.0700	  533.00	  556.04	-1743.79	  407.86
     83.1700	  542.00	  556.55	-1735.30	  407.84
     83.2700	  520.00	  558.35	-1759.10	  407.82
     83.3700	  558.00	  561.27	-1724.02	  407.80
     83.4700	  578.00	  565.05	-1707.80	  407.77
     83.5700	  542.00	  569.35	-1748.10	  407.75
     83.6700	  582.00	  573.76	-1712.51	  407.72
     83.7700	  555.00	  577.77	-1743.52	  407.69
     83.8700	  573.00	  580.86	-1728.61	  407.66
     83.9700	  517.00	  582.52	-1786.27	  407.63
     84.0700	  564.00	  582.43	-1739.18	  407.59
     84.1700	  554.00	  580.55	-1747.30	  407.56
     84.2700	  573.00	  577.11	-1724.86	  407.52
     84.3700	  536.00	  572.58	-1757.33	  407.48
     84.4700	  535.00	  567.42	-1753.17	  407.44
     84.5700	  530.00	  562.10	-1752.85	  407.40
     84.6700	  543.00	  556.96	-1734.71	  407.35
     84.7700	  527.00	  552.28	-1746.03	  407.31
     84.8700	  539.00	  548.21	-1729.96	  407.26
     84.9700	  564.00	  544.84	-1701.59	  407.21
     85.0700	  577.00	  542.15	-1685.90	  407.16
     85.1700	  530.00	  540.11	-1730.86	  407.11
     85.2700	  536.00	  538.62	-1723.37	  407.05
     85.3700	  511.00	  537.60	-1747.35	  407.00
     85.4700	  564.00	  536.96	-1693.71	  406.94
     85.5700	  571.00	  536.64	-1686.39	  406.88
     85.6700	  567.00	  536.60	-1690.35	  406.82
     85.7700	  495.00	  536.85	-1762.60	  406.76
     85.8700	  545.00	  537.42	-1713.17	  406.69
     85.9700	  530.00	  538.39	-1729.14	  406.63
     86.0700	  520.00	  539.87	-1740.62	  406.56
     86.1700	  543.00	  542.00	-1719.75	  406.49
     86.2700	  486.00	  544.95	-1779.70	  406.42
     86.3700	  560.00	  548.91	-1709.66	  406.35
     86.4700	  555.00	  554.00	-1719.75	  406.28
     86.5700	  597.00	  560.34	-1684.09	  406.20
     86.6700	  598.00	  567.92	-1690.67	  406.12
     86.7700	  560.00	  576.61	-1737.36	  406.05
     86.8700	  585.00	  586.15	-1721.90	  405.96
     86.9700	  558.00	  596.09	-1758.84	  405.88
     87.0700	  589.00	  605.50	-1737.25	  405.80
     87.1700	  632.00	  614.30	-1703.05	  405.71
     87.2700	  683.00	  621.33	-1659.08	  405.63
     87.3700	  667.00	  625.82	-1679.57	  405.54
     87.4700	  653.00	  627.20	-1694.95	  405.45
     87.5700	  655.00	  625.34	-1691.09	  405.35
     87.6700	  662.00	  620.57	-1679.32	  405.26
     87.7700	  593.00	  613.61	-1741.36	  405.17
     87.8700	  611.00	  605.31	-1715.06	  405.07
     87.9700	  634.00	  596.55	-1683.30	  404.97
     88.0700	  609.00	  588.13	-1699.88	  404.87
     88.1700	  576.00	  580.70	-1725.45	  404.77
     88.2700	  576.00	  574.76	-1719.51	  404.66
     88.3700	  575.00	  570.64	-1716.40	  404.56
     88.4700	  571.00	  568.50	-1718.25	  404.45
     88.5700	  557.00	  568.31	-1732.06	  404.34
     88.6700	  563.00	  569.92	-1727.67	  404.23
     88.7700	  589.00	  573.04	-1704.79	  404.12
     88.8700	  600.00	  577.27	-1698.02	  404.01
     88.9700	  571.00	  582.13	-1731.88	  403.89
     89.0700	  604.00	  587.07	-1703.82	  403.77
     89.1700	  562.00	  591.50	-1750.25	  403.66
     89.2700	  608.00	  594.82	-1707.57	  403.54
     89.3700	  639.00	  596.53	-1678.28	  403.41
     89.4700	  616.00	  596.33	-1701.08	  403.29
     89.5700	  599.00	  594.19	-1715.94	  403.16
     89.6700	  605.00	  590.34	-1706.09	  403.04
     89.7700	  556.00	  585.22	-1749.97	  402.91
     89.8700	  518.00	  579.30	-1782.05	  402.78
     89.9700	  525.00	  573.05	-1768.80	  402.65
     90.0700	  556.00	  566.88	-1731.63	  402.51
     90.1700	  542.00	  561.09	-1739.84	  402.38
     90.2700	  504.00	  555.91	-1772.66	  402.24
     90.3700	  523.00	  551.47	-1749.22	  402.10
     90.4700	  533.00	  547.81	-1735.56	  401.97
     90.5700	  525.00	  544.94	-1740.69	  401.82
     90.6700	  501.00	  542.79	-1762.54	  401.68
     90.7700	  514.00	  541.28	-1748.03	  401.54
     90.8700	  513.00	  540.32	-1748.07	  401.39
     90.9700	  529.00	  539.85	-1731.60	  401.24
     91.0700	  513.00	  539.80	-1747.55	  401.09
     91.1700	  538.00	  540.15	-1722.90	  400.94
     91.2700	  526.00	  540.92	-1735.67	  400.79
     91.3700	  543.00	  542.15	-1719.90	  400.64
     91.4700	  565.00	  543.95	-1699.70	  400.48
     91.5700	  542.00	  546.44	-1725.19	  400.32
     91.6700	  525.00	  549.80	-1745.55	  400.17
     91.7700	  543.00	  554.24	-1731.99	  400.00
     91.8700	  536.00	  559.95	-1744.70	  399.84
     91.9700	  546.00	  567.17	-1741.92	  399.68
     92.0700	  598.00	  576.06	-1698.81	  399.52
     92.1700	  597.00	  586.76	-1710.51	  399.35
     92.2700	  568.00	  599.09	-1751.84	  399.18
     92.3700	  607.00	  613.43	-1727.18	  399.01
     92.4700	  599.00	  629.38	-1751.13	  398.84
     92.5700	  631.00	  646.59	-1736.34	  398.67
     92.6700	  638.00	  664.60	-1747.35	  398.49
     92.7700	  698.00	  682.80	-1705.55	  398.32
     92.8700	  692.00	  700.45	-1729.20	  398.14
     92.9700	  746.00	  716.84	-1691.59	  397.96
     93.0700	  773.00	  731.34	-1679.09	  397.78
     93.1700	  789.00	  743.64	-1675.39	  397.60
     93.2700	  797.00	  753.81	-1677.56	  397.42
     93.3700	  838.00	  762.25	-1645.00	  397.24
     93.4700	  851.00	  769.52	-1639.27	  397.05
     93.5700	  804.00	  776.22	-1692.97	  396.86
     93.6700	  826.00	  782.87	-1677.62	  396.68
     93.7700	  895.00	  789.94	-1615.69	  396.49
     93.8700	  837.00	  797.90	-1681.65	  396.30
     93.9700	  860.00	  807.25	-1668.00	  396.10
     94.0700	  837.00	  818.38	-1702.13	  395.91
     94.1700	  888.00	  831.50	-1664.25	  395.71
     94.2700	  858.00	  846.44	-1709.19	  395.52
     94.3700	  854.00	  862.55	-1729.30	  395.32
     94.4700	  888.00	  878.76	-1711.51	  395.12
     94.5700	  887.00	  893.57	-1727.32	  394.92
     94.6700	  883.00	  905.23	-1742.98	  394.72
     94.7700	  918.00	  911.91	-1714.66	  394.51
     94.8700	  927.00	  912.12	-1705.87	  394.31
     94.9700	  871.00	  905.08	-1754.83	  394.10
     95.0700	  832.00	  890.94	-1779.69	  393.89
     95.1700	  934.00	  870.76	-1657.51	  393.69
     95.2700	  819.00	  846.18	-1747.93	  393.48
     95.3700	  801.00	  819.17	-1738.92	  393.27
     95.4700	  785.00	  791.71	-1727.46	  393.05
     95.5700	  753.00	  765.69	-1733.44	  392.84
     95.6700	  761.00	  742.87	-1702.62	  392.62
     95.7700	  681.00	  724.83	-1764.58	  392.41
     95.8700	  761.00	  712.98	-1672.73	  392.19
     95.9700	  670.00	  708.56	-1759.31	  391.97
     96.0700	  706.00	  712.64	-1727.39	  391.75
     96.1700	  702.00	  726.10	-1744.85	  391.53
     96.2700	  715.00	  749.61	-1755.36	  391.31
     96.3700	  769.00	  783.53	-1735.28	  391.09
     96.4700	  807.00	  827.90	-1741.65	  390.86
     96.5700	  867.00	  882.27	-1736.02	  390.64
     96.6700	  952.00	  945.68	-1714.43	  390.41
     96.7700	  998.00	 1016.51	-1739.26	  390.18
     96.8700	 1074.00	 1092.48	-1739.23	  389.95
     96.9700	 1046.00	 1170.58	-1845.33	  389.72
     97.0700	 1252.00	 1247.15	-1715.90	  389.49
     97.1700	 1348.00	 1317.98	-1690.73	  389.26
     97.2700	 1360.00	 1378.51	-1739.26	  389.03
     97.3700	 1369.00	 1424.28	-1776.03	  388.79
     97.4700	 1421.00	 1451.55	-1751.30	  388.56
     97.5700	 1385.00	 1458.12	-1793.87	  388.32
     97.6700	 1386.00	 1443.76	-1778.51	  388.08
     97.7700	 1375.00	 1410.29	-1756.04	  387.85
     97.8700	 1307.00	 1361.03	-1774.78	  387.61
     97.9700	 1286.00	 1300.12	-1734.87	  387.37
     98.0700	 1238.00	 1231.94	-1714.69	  387.12
     98.1700	 1135.00	 1160.71	-1746.46	  386.88
     98.2700	 1130.00	 1090.19	-1680.94	  386.64
     98.3700	 1021.00	 1023.80	-1723.55	  386.40
     98.4700	 1004.00	  964.27	-1681.02	  386.15
     98.5700	  858.00	  913.85	-1776.60	  385.91
     98.6700	  875.00	  874.28	-1720.03	  385.66
     98.7700	  789.00	  846.85	-1778.60	  385.41
     98.8700	  871.00	  832.49	-1682.24	  385.16
     98.9700	  823.00	  831.83	-1729.58	  384.92
     99.0700	  856.00	  845.26	-1710.01	  384.67
     99.1700	  874.00	  872.94	-1719.69	  384.41
     99.2700	  837.00	  914.85	-1798.60	  384.16
     99.3700	  991.00	  970.70	-1700.45	  383.91
     99.4700	 1077.00	 1039.89	-1683.64	  383.66
     99.5700	 1130.00	 1121.40	-1712.15	  383.41
     99.6700	 1203.00	 1213.74	-1731.49	  383.15
     99.7700	 1296.00	 1314.84	-1739.59	  382.90
     99.8700	 1420.00	 1421.92	-1722.67	  382.64
     99.9700	 1531.00	 1531.50	-1721.25	  382.39
    100.0700	 1601.00	 1639.49	-1759.24	  382.13
    100.1700	 1770.00	 1741.43	-1692.18	  381.87
    100.2700	 1822.00	 1832.89	-1731.64	  381.61
    100.3700	 1877.00	 1909.94	-1753.69	  381.36
    100.4700	 1951.00	 1969.53	-1739.28	  381.10
    100.5700	 1995.00	 2009.61	-1735.36	  380.84
    100.6700	 2065.00	 2028.93	-1684.68	  380.58
    100.7700	 2023.00	 2026.84	-1724.59	  380.32
    100.8700	 1983.00	 2003.38	-1741.13	  380.05
    100.9700	 1996.00	 1959.58	-1684.33	  379.79
    101.0700	 1989.00	 1897.73	-1629.48	  379.53
    101.1700	 1839.00	 1821.46	-1703.21	  379.27
    101.2700	 1710.00	 1735.41	-1746.16	  379.01
    101.3700	 1708.00	 1644.65	-1657.40	  378.74
    101.4700	 1581.00	 1554.04	-1693.79	  378.48
    101.5700	 1524.00	 1467.80	-1664.55	  378.22
    101.6700	 1406.00	 1389.22	-1703.97	  377.95
    101.7700	 1337.00	 1320.50	-1704.25	  377.69
    101.8700	 1279.00	 1262.88	-1704.63	  377.42
    101.9700	 1227.00	 1216.48	-1710.23	  377.16
    102.0700	 1207.00	 1180.55	-1694.30	  376.89
    102.1700	 1151.00	 1153.47	-1723.22	  376.63
    102.2700	 1157.00	 1132.96	-1696.71	  376.36
    102.3700	 1100.00	 1116.40	-1737.15	  376.09
    102.4700	 1108.00	 1100.98	-1713.73	  375.83
    102.5700	 1066.00	 1084.15	-1738.90	  375.56
    102.6700	 1097.00	 1063.87	-1687.62	  375.30
    102.7700	  990.00	 1038.98	-1769.73	  375.03
    102.8700	 1000.00	 1009.15	-1729.90	  374.76
    102.9700	 1000.00	  974.84	-1695.59	  374.50
    103.0700	  894.00	  937.02	-1763.77	  374.23
    103.1700	  874.00	  896.93	-1743.68	  373.96
    103.2700	  845.00	  855.89	-1731.64	  373.70
    103.3700	  764.00	  815.14	-1771.89	  373.43
    103.4700	  759.00	  775.83	-1737.58	  373.16
    103.5700	  738.00	  738.87	-1721.62	  372.90
    103.6700	  708.00	  704.98	-1717.73	  372.63
    103.7700	  736.00	  674.64	-1659.39	  372.36
    103.8700	  619.00	  648.10	-1749.85	  372.10
    103.9700	  634.00	  625.40	-1712.15	  371.83
    104.0700	  632.00	  606.43	-1695.18	  371.57
    104.1700	  605.00	  590.93	-1706.68	  371.30
    104.2700	  579.00	  578.57	-1720.32	  371.04
    104.3700	  544.00	  568.95	-1745.70	  370.77
    104.4700	  612.00	  561.69	-1670.44	  370.51
    104.5700	  569.00	  556.39	-1708.14	  370.24
    104.6700	  521.00	  552.70	-1752.45	  369.98
    104.7700	  554.00	  550.33	-1717.08	  369.72
    104.8700	  574.00	  548.98	-1695.73	  369.45
    104.9700	  511.00	  548.49	-1758.24	  369.19
    105.0700	  529.00	  548.66	-1740.41	  368.93
    105.1700	  534.00	  549.40	-1736.15	  368.67
    105.2700	  511.00	  550.63	-1760.38	  368.40
    105.3700	  525.00	  552.28	-1748.03	  368.14
    105.4700	  537.00	  554.43	-1738.18	  367.88
    105.5700	  518.00	  557.08	-1759.83	  367.62
    105.6700	  564.00	  560.31	-1717.06	  367.37
    105.7700	  577.00	  564.22	-1707.97	  367.11
    105.8700	  544.00	  568.89	-1745.64	  366.85
    105.9700	  605.00	  574.43	-1690.18	  366.59
    106.0700	  539.00	  580.87	-1762.62	  366.34
    106.1700	  561.00	  588.23	-1747.98	  366.08
    106.2700	  633.00	  596.46	-1684.21	  365.83
    106.3700	  582.00	  605.45	-1744.20	  365.57
    106.4700	  643.00	  615.05	-1692.80	  365.32
    106.5700	  651.00	  625.02	-1694.77	  365.07
    106.6700	  640.00	  635.07	-1715.82	  364.82
    106.7700	  633.00	  644.90	-1732.65	  364.57
    106.8700	  640.00	  654.12	-1734.87	  364.32
    106.9700	  647.00	  662.39	-1736.14	  364.07
    107.0700	  625.00	  669.37	-1765.12	  363.82
    107.1700	  689.00	  674.80	-1706.55	  363.57
    107.2700	  699.00	  678.58	-1700.33	  363.33
    107.3700	  682.00	  680.74	-1719.49	  363.09
    107.4700	  719.00	  681.48	-1683.23	  362.84
    107.5700	  681.00	  681.13	-1720.88	  362.60
    107.6700	  669.00	  680.10	-1731.85	  362.36
    107.7700	  697.00	  678.81	-1702.56	  362.12
    107.8700	  671.00	  677.62	-1727.37	  361.88
    107.9700	  649.00	  676.84	-1748.59	  361.65
    108.0700	  716.00	  676.66	-1681.41	  361.41
    108.1700	  714.00	  677.17	-1683.92	  361.18
    108.2700	  668.00	  678.34	-1731.09	  360.94
    108.3700	  704.00	  680.04	-1696.79	  360.71
    108.4700	  730.00	  681.99	-1672.74	  360.48
    108.5700	  733.00	  683.88	-1671.63	  360.25
    108.6700	  661.00	  685.30	-1745.05	  360.03
    108.7700	  685.00	  685.82	-1721.57	  359.80
    108.8700	  723.00	  685.07	-1682.82	  359.58
    108.9700	  703.00	  682.74	-1700.49	  359.36
    109.0700	  649.00	  678.65	-1750.40	  359.14
    109.1700	  660.00	  672.80	-1733.55	  358.92
    109.2700	  659.00	  665.33	-1727.08	  358.70
    109.3700	  649.00	  656.48	-1728.23	  358.48
    109.4700	  659.00	  646.57	-1708.32	  358.27
    109.5700	  634.00	  635.97	-1722.72	  358.06
    109.6700	  582.00	  625.03	-1763.78	  357.85
    109.7700	  633.00	  614.08	-1701.83	  357.64
    109.8700	  607.00	  603.43	-1717.18	  357.44
    109.9700	  599.00	  593.34	-1715.09	  357.23
    110.0700	  588.00	  584.01	-1716.76	  357.03
    110.1700	  546.00	  575.60	-1750.35	  356.83
    110.2700	  578.00	  568.20	-1710.95	  356.63
    110.3700	  579.00	  561.86	-1703.61	  356.44
    110.4700	  516.00	  556.59	-1761.34	  356.24
    110.5700	  567.00	  552.37	-1706.12	  356.05
    110.6700	  550.00	  549.12	-1719.87	  355.86
    110.7700	  535.00	  546.77	-1732.52	  355.68
    110.8700	  528.00	  545.22	-1737.97	  355.49
    110.9700	  590.00	  544.39	-1675.14	  355.31
    111.0700	  581.00	  544.16	-1683.91	  355.13
    111.1700	  555.00	  544.47	-1710.22	  354.95
    111.2700	  530.00	  545.21	-1735.96	  354.78
    111.3700	  562.00	  546.32	-1705.07	  354.60
    111.4700	  553.00	  547.73	-1715.48	  354.43
    111.5700	  570.00	  549.40	-1700.15	  354.27
    111.6700	  597.00	  551.28	-1675.03	  354.10
    111.7700	  516.00	  553.36	-1758.11	  353.94
    111.8700	  558.00	  555.60	-1718.35	  353.78
    111.9700	  570.00	  558.01	-1708.76	  353.62
    112.0700	  545.00	  560.58	-1736.33	  353.47
    112.1700	  597.00	  563.34	-1687.09	  353.32
    112.2700	  524.00	  566.31	-1763.06	  353.17
    112.3700	  546.00	  569.53	-1744.28	  353.02
    112.4700	  641.00	  573.04	-1652.79	  352.88
    112.5700	  597.00	  576.91	-1700.66	  352.74
    112.6700	  538.00	  581.20	-1763.95	  352.61
    112.7700	  604.00	  586.00	-1702.75	  352.47
    112.8700	  610.00	  591.44	-1702.19	  352.34
    112.9700	  623.00	  597.67	-1695.42	  352.21
    113.0700	  600.00	  604.88	-1725.63	  352.09
    113.1700	  597.00	  613.33	-1737.08	  351.97
    113.2700	  664.00	  623.34	-1680.09	  351.85
    113.3700	  732.00	  635.32	-1624.07	  351.74
    113.4700	  733.00	  649.79	-1637.54	  351.63
    113.5700	  730.00	  667.41	-1658.16	  351.52
    113.6700	  758.00	  688.98	-1651.73	  351.42
    113.7700	  827.00	  715.47	-1609.22	  351.32
    113.8700	  833.00	  748.06	-1635.81	  351.22
    113.9700	  811.00	  788.12	-1697.87	  351.12
    114.0700	  898.00	  837.26	-1660.01	  351.03
    114.1700	  976.00	  897.30	-1642.05	  350.95
    114.2700	 1052.00	  970.22	-1638.97	  350.87
    114.3700	 1193.00	 1058.22	-1585.97	  350.79
    114.4700	 1228.00	 1163.57	-1656.32	  350.71
    114.5700	 1335.00	 1288.62	-1674.37	  350.64
    114.6700	 1499.00	 1435.62	-1657.37	  350.57
    114.7700	 1707.00	 1606.65	-1620.40	  350.51
    114.8700	 1873.00	 1803.52	-1651.27	  350.45
    114.9700	 2175.00	 2027.52	-1573.27	  350.40
    115.0700	 2372.00	 2279.39	-1628.14	  350.35
    115.1700	 2564.00	 2559.03	-1715.78	  350.30
    115.2700	 2981.00	 2865.42	-1605.17	  350.26
    115.3700	 3173.00	 3196.61	-1744.36	  350.22
    115.4700	 3602.00	 3549.33	-1668.08	  350.18
    115.5700	 3810.00	 3919.33	-1830.08	  350.15
    115.6700	 4173.00	 4300.95	-1848.70	  350.13
    115.7700	 4564.00	 4687.32	-1844.07	  350.11
    115.8700	 4779.00	 5070.59	-2012.34	  350.09
    115.9700	 5375.00	 5441.61	-1787.36	  350.08
    116.0700	 5671.00	 5790.56	-1840.31	  350.07
    116.1700	 5979.00	 6106.86	-1848.61	  350.07
    116.2700	 6305.00	 6379.76	-1795.51	  350.07
    116.3700	 6502.00	 6599.11	-1817.86	  350.08
    116.4700	 6752.00	 6755.81	-1724.56	  350.09
    116.5700	 6753.00	 6843.06	-1810.81	  350.10
    116.6700	 6775.00	 6856.94	-1802.69	  350.12
    116.7700	 6883.00	 6797.05	-1634.80	  350.15
    116.8700	 6873.00	 6666.51	-1514.26	  350.18
    116.9700	 6453.00	 6471.57	-1739.32	  350.22
    117.0700	 6123.00	 6220.73	-1818.48	  350.26
    117.1700	 5822.00	 5924.00	-1822.75	  350.30
    117.2700	 5611.00	 5592.00	-1701.75	  350.35
    117.3700	 5107.00	 5235.14	-1848.89	  350.41
    117.4700	 4866.00	 4863.46	-1718.21	  350.47
    117.5700	 4504.00	 4485.97	-1702.72	  350.54
    117.6700	 4155.00	 4110.77	-1676.52	  350.61
    117.7700	 3891.00	 3744.84	-1574.59	  350.69
    117.8700	 3618.00	 3393.75	-1496.50	  350.77
    117.9700	 3138.00	 3062.09	-1644.84	  350.86
    118.0700	 2945.00	 2753.07	-1528.82	  350.96
    118.1700	 2451.00	 2468.92	-1738.67	  351.06
    118.2700	 2320.00	 2210.88	-1611.63	  351.16
    118.3700	 2018.00	 1979.17	-1681.92	  351.27
    118.4700	 1735.00	 1773.43	-1759.18	  351.39
    118.5700	 1509.00	 1592.56	-1804.31	  351.51
    118.6700	 1352.00	 1435.10	-1803.85	  351.64
    118.7700	 1337.00	 1299.24	-1682.99	  351.78
    118.8700	 1116.00	 1182.91	-1787.66	  351.92
    118.9700	  997.00	 1084.04	-1807.79	  352.07
    119.0700	  944.00	 1000.50	-1777.25	  352.22
    119.1700	  897.00	  930.28	-1754.03	  352.38
    119.2700	  818.00	  871.50	-1774.25	  352.55
    119.3700	  825.00	  822.42	-1718.17	  352.72
    119.4700	  790.00	  781.54	-1712.29	  352.90
    119.5700	  705.00	  747.49	-1763.24	  353.08
    119.6700	  694.00	  719.14	-1745.89	  353.27
    119.7700	  626.00	  695.51	-1790.26	  353.47
    119.8700	  645.00	  675.80	-1751.55	  353.68
    119.9700	  626.00	  659.33	-1754.08	  353.89
    120.0700	  595.00	  645.56	-1771.31	  354.11
    120.1700	  580.00	  634.04	-1774.79	  354.33
    120.2700	  617.00	  624.42	-1728.17	  354.56
    120.3700	  611.00	  616.41	-1726.16	  354.80
    120.4700	  551.00	  609.79	-1779.54	  355.05
    120.5700	  568.00	  604.38	-1757.13	  355.30
    120.6700	  638.00	  600.04	-1682.79	  355.56
    120.7700	  556.00	  596.66	-1761.41	  355.83
    120.8700	  547.00	  594.15	-1767.90	  356.10
    120.9700	  517.00	  592.45	-1796.20	  356.38
    121.0700	  545.00	  591.49	-1767.24	  356.67
    121.1700	  592.00	  591.22	-1719.97	  356.97
    121.2700	  576.00	  591.59	-1736.34	  357.27
    121.3700	  589.00	  592.56	-1724.31	  357.58
    121.4700	  560.00	  594.07	-1754.82	  357.90
    121.5700	  541.00	  596.06	-1775.81	  358.23
    121.6700	  535.00	  598.49	-1784.24	  358.56
    121.7700	  627.00	  601.28	-1695.03	  358.91
    121.8700	  627.00	  604.35	-1698.10	  359.26
    121.9700	  621.00	  607.63	-1707.38	  359.61
    122.0700	  671.00	  610.99	-1660.74	  359.98
    122.1700	  624.00	  614.39	-1711.14	  360.35
    122.2700	  595.00	  617.70	-1743.45	  360.74
    122.3700	  620.00	  620.82	-1721.57	  361.13
    122.4700	  613.00	  623.63	-1731.38	  361.52
    122.5700	  658.00	  626.04	-1688.79	  361.93
    122.6700	  669.00	  627.97	-1679.72	  362.35
    122.7700	  630.00	  629.34	-1720.09	  362.77
    122.8700	  637.00	  630.09	-1713.84	  363.20
    122.9700	  678.00	  630.22	-1672.97	  363.64
    123.0700	  650.00	  629.73	-1700.48	  364.09
    123.1700	  614.00	  628.63	-1735.38	  364.55
    123.2700	  656.00	  626.98	-1691.73	  365.02
    123.3700	  658.00	  624.85	-1687.60	  365.49
    123.4700	  613.00	  622.29	-1730.04	  365.98
    123.5700	  675.00	  619.38	-1665.13	  366.47
    123.6700	  589.00	  616.21	-1747.96	  366.97
    123.7700	  580.00	  612.85	-1753.60	  367.48
    123.8700	  684.00	  609.37	-1646.12	  368.01
    123.9700	  643.00	  605.84	-1683.59	  368.54
    124.0700	  620.00	  602.33	-1703.08	  369.07
    124.1700	  664.00	  598.88	-1655.63	  369.62
    124.2700	  626.00	  595.54	-1690.29	  370.18
    124.3700	  600.00	  592.36	-1713.11	  370.75
    124.4700	  630.00	  589.36	-1680.11	  371.33
    124.5700	  549.00	  586.57	-1758.32	  371.91
    124.6700	  539.00	  584.01	-1765.76	  372.51
    124.7700	  569.00	  581.70	-1733.45	  373.12
    124.8700	  585.00	  579.65	-1715.40	  373.73
    124.9700	  558.00	  491.05	-1653.80	  374.36
    125.0700	  586.00	  491.69	-1720.75	  375.00
    125.1700	  553.00	  492.33	-1720.75	  375.64
    125.2700	  563.00	  492.99	-1720.75	  376.30
    125.3700	  570.00	  493.66	-1720.75	  376.97
    125.4700	  553.00	  494.34	-1720.75	  377.65
    125.5700	  579.00	  495.02	-1720.75	  378.33
    125.6700	  532.00	  495.72	-1720.75	  379.03
    125.7700	  554.00	  496.43	-1720.75	  379.74
    125.8700	  604.00	  497.15	-1720.75	  380.46
    125.9700	  542.00	  497.88	-1720.75	  381.19
    126.0700	  562.00	  498.62	-1720.75	  381.93
    126.1700	  604.00	  499.37	-1720.75	  382.68
    126.2700	  642.00	  500.14	-1720.75	  383.45
    126.3700	  576.00	  500.91	-1720.75	  384.22
    126.4700	  579.00	  501.70	-1720.75	  385.01
    126.5700	  597.00	  502.49	-1720.75	  385.80
    126.6700	  618.00	  503.30	-1720.75	  386.61
    126.7700	  660.00	  504.12	-1720.75	  387.43
    126.8700	  586.00	  504.95	-1720.75	  388.26
    126.9700	  647.00	  505.79	-1720.75	  389.10
    127.0700	  636.00	  506.64	-1720.75	  389.95
    127.1700	  680.00	  507.51	-1720.75	  390.82
    127.2700	  693.00	  508.38	-1720.75	  391.69
    127.3700	  654.00	  509.27	-1720.75	  392.58
    127.4700	  695.00	  510.17	-1720.75	  393.48
    127.5700	  677.00	  511.08	-1720.75	  394.39
    127.6700	  691.00	  512.01	-1720.75	  395.32
    127.7700	  729.00	  512.94	-1720.75	  396.25
    127.8700	  736.00	  513.89	-1720.75	  397.20
    127.9700	  756.00	  514.85	-1720.75	  398.16
    128.0700	  753.00	  515.83	-1720.75	  399.14
    128.1700	  834.00	  516.81	-1720.75	  400.12
    128.2700	  808.00	  517.81	-1720.75	  401.12
    128.3700	  809.00	  518.82	-1720.75	  402.13
    128.4700	  784.00	  519.84	-1720.75	  403.15
    128.5700	    0.00	  520.88	-1720.75	  404.19
    128.6700	    1.00	  521.93	-1720.75	  405.24
     12.2968	        	        	        	        	       0	(  0  0  2)	  0  1
     24.8745	        	        	        	        	       0	(  0  0  4)	  0  1
     28.3245	        	        	        	        	       0	(  1  0  0)	  0  1
     29.0212	        	        	        	        	       0	(  1  0  1)	  0  1
     31.0260	        	        	        	        	       0	(  1  0  2)	  0  1
     34.1321	        	        	        	        	       0	(  1  0  3)	  0  1
     37.7678	        	        	        	        	       0	(  0  0  6)	  0  1
     38.1066	        	        	        	        	       0	(  1  0  4)	  0  1
     42.7537	        	        	        	        	       0	(  1  0  5)	  0  1
     47.9345	        	        	        	        	       0	(  1  0  6)	  0  1
     50.2593	        	        	        	        	       0	(  1  1  0)	  0  1
     51.1825	        	        	        	        	       0	(  0  0  8)	  0  1
     51.9810	        	        	        	        	       0	(  1  1  2)	  0  1
     53.5614	        	        	        	        	       0	(  1  0  7)	  0  1
     56.9251	        	        	        	        	       0	(  1  1  4)	  0  1
     58.7553	        	        	        	        	       0	(  2  0  0)	  0  1
     59.1466	        	        	        	        	       0	(  2  0  1)	  0  1
     59.5880	        	        	        	        	       0	(  1  0  8)	  0  1
     60.3111	        	        	        	        	       0	(  2  0  2)	  0  1
     62.2228	        	        	        	        	       0	(  2  0  3)	  0  1
     64.6141	        	        	        	        	       0	(  1  1  6)	  0  1
     64.8448	        	        	        	        	       0	(  2  0  4)	  0  1
     65.4031	        	        	        	        	       0	(  0  0 10)	  0  1
     66.0000	        	        	        	        	       0	(  1  0  9)	  0  1
     68.1365	        	        	        	        	       0	(  2  0  5)	  0  1
     72.0609	        	        	        	        	       0	(  2  0  6)	  0  1
     72.8114	        	        	        	        	       0	(  1  0 10)	  0  1
     74.6442	        	        	        	        	       0	(  1  1  8)	  0  1
     76.5915	        	        	        	        	       0	(  2  0  7)	  0  1
     80.0635	        	        	        	        	       0	(  1  0 11)	  0  1
     80.8725	        	        	        	        	       0	(  0  0 12)	  0  1
     80.9937	        	        	        	        	       0	(  2  1  0)	  0  1
     81.3333	        	        	        	        	       0	(  2  1  1)	  0  1
     81.7176	        	        	        	        	       0	(  2  0  8)	  0  1
     82.3502	        	        	        	        	       0	(  2  1  2)	  0  1
     84.0401	        	        	        	        	       0	(  2  1  3)	  0  1
     86.3977	        	        	        	        	       0	(  2  1  4)	  0  1
     86.9056	        	        	        	        	       0	(  1  1 10)	  0  1
     87.4508	        	        	        	        	       0	(  2  0  9)	  0  1
     87.8314	        	        	        	        	       0	(  1  0 12)	  0  1
     89.4209	        	        	        	        	       0	(  2  1  5)	  0  1
     93.1150	        	        	        	        	       0	(  2  1  6)	  0  1
     93.8324	        	        	        	        	       0	(  2  0 10)	  0  1
     94.8802	        	        	        	        	       0	(  3  0  0)	  0  1
     95.2172	        	        	        	        	       0	(  3  0  1)	  0  1
     96.2296	        	        	        	        	       0	(  3  0  2)	  0  1
     96.2367	        	        	        	        	       0	(  1  0 13)	  0  1
     97.4996	        	        	        	        	       0	(  2  1  7)	  0  1
     97.9214	        	        	        	        	       0	(  3  0  3)	  0  1
     98.3958	        	        	        	        	       0	(  0  0 14)	  0  1
    100.3021	        	        	        	        	       0	(  3  0  4)	  0  1
    100.9473	        	        	        	        	       0	(  2  0 11)	  0  1
    101.7617	        	        	        	        	       0	(  1  1 12)	  0  1
    102.6171	        	        	        	        	       0	(  2  1  8)	  0  1
    103.3908	        	        	        	        	       0	(  3  0  5)	  0  1
    105.4792	        	        	        	        	       0	(  1  0 14)	  0  1
    107.2221	        	        	        	        	       0	(  3  0  6)	  0  1
    108.5477	        	        	        	        	       0	(  2  1  9)	  0  1
    108.9496	        	        	        	        	       0	(  2  0 12)	  0  1
    111.8576	        	        	        	        	       0	(  3  0  7)	  0  1
    115.4365	        	        	        	        	       0	(  2  1 10)	  0  1
    115.9085	        	        	        	        	       0	(  1  0 15)	  0  1
    116.6002	        	        	        	        	       0	(  2  2  0)	  0  1
    117.4047	        	        	        	        	       0	(  3  0  8)	  0  1
    118.1138	        	        	        	        	       0	(  2  2  2)	  0  1
    118.1218	        	        	        	        	       0	(  2  0 13)	  0  1
    119.8550	        	        	        	        	       0	(  0  0 16)	  0  1
    120.5813	        	        	        	        	       0	(  1  1 14)	  0  1
    122.7942	        	        	        	        	       0	(  2  2  4)	  0  1
    123.5525	        	        	        	        	       0	(  2  1 11)	  0  1
    124.0561	        	        	        	        	       0	(  3  0  9)	  0  1
    124.6628	        	        	        	        	       0	(  3  1  0)	  0  1
    125.0725	        	        	        	        	       0	(  3  1  1)	  0  1
    126.3145	        	        	        	        	       0	(  3  1  2)	  0  1
    128.2295	        	        	        	        	       0	(  1  0 16)	  0  1
    128.4303	        	        	        	        	       0	(  3  1  3)	  0  1
    129.0333	        	        	        	        	       0	(  2  0 14)	  0  1
    131.2235	        	        	        	        	       0	(  2  2  6)	  0  1
    131.5024	        	        	        	        	       0	(  3  1  4)	  0  1
    132.1844	        	        	        	        	       0	(  3  0 10)	  0  1
    133.4480	        	        	        	        	       0	(  2  1 12)	  0  1
    135.6837	        	        	        	        	       0	(  3  1  5)	  0  1
    141.2703	        	        	        	        	       0	(  3  1  6)	  0  1
    142.6418	        	        	        	        	       0	(  3  0 11)	  0  1
    143.1375	        	        	        	        	       0	(  2  0 15)	  0  1
    144.3520	        	        	        	        	       0	(  1  0 17)	  0  1
    145.4330	        	        	        	        	       0	(  2  2  8)	  0  1
    146.5703	        	        	        	        	       0	(  2  1 13)	  0  1
    148.9281	        	        	        	        	       0	(  3  1  7)	  0  1
    149.4387	        	        	        	        	       0	(  1  1 16)	  0  1
    153.7885	        	        	        	        	       0	(  0  0 18)	  0  1
    158.4592	        	        	        	        	       0	(  3  0 12)	  0  1
    158.7895	        	        	        	        	       0	(  4  0  0)	  0  1
    159.7435	        	        	        	        	       0	(  4  0  1)	  0  1
    160.8796	        	        	        	        	       0	(  3  1  8)	  0  1
    162.9107	        	        	        	        	       0	(  4  0  2)	  0  1
    169.3102	        	        	        	        	       0	(  2  0 16)	  0  1
    170.2058	        	        	        	        	       0	(  4  0  3)	  0  1
    173.5929	        	        	        	        	       0	(  2  1 14)	  0  1
