MSG Master    CELL:    5.91923   5.91923  23.28094   90.0000   90.0000  120.0000   SPGR: P 63/m m c             TEMP:   1066.85
  1   1280     2.52000     0.00000    -0.12379     0.00000     0.00000    0
    99     0     2
       0.00000      10.00000
     125.00000     130.00000
 2Theta	Yobs	Ycal	Yobs-Ycal	Backg	Posr	(hkl)	K
      0.7700	    0.00	  527.29	-1709.75	  408.66
      0.8700	    0.00	  528.21	-1709.75	  409.58
      0.9700	   48.00	  529.11	-1709.75	  410.48
      1.0700	   35.00	  530.00	-1709.75	  411.37
      1.1700	   50.00	  530.88	-1709.75	  412.24
      1.2700	   35.00	  531.74	-1709.75	  413.11
      1.3700	   57.00	  532.60	-1709.75	  413.96
      1.4700	   91.00	  533.44	-1709.75	  414.80
      1.5700	  304.00	  534.27	-1709.75	  415.63
      1.6700	  487.00	  535.08	-1709.75	  416.45
      1.7700	  552.00	  535.89	-1709.75	  417.26
      1.8700	  643.00	  536.68	-1709.75	  418.05
      1.9700	  699.00	  537.47	-1709.75	  418.83
      2.0700	  753.00	  538.24	-1709.75	  419.60
      2.1700	  803.00	  539.00	-1709.75	  420.36
      2.2700	  760.00	  539.74	-1709.75	  421.11
      2.3700	  758.00	  540.48	-1709.75	  421.85
      2.4700	  715.00	  541.21	-1709.75	  422.57
      2.5700	  683.00	  541.92	-1709.75	  423.29
      2.6700	  687.00	  542.62	-1709.75	  423.99
      2.7700	  672.00	  543.32	-1709.75	  424.68
      2.8700	  648.00	  544.00	-1709.75	  425.36
      2.9700	  657.00	  544.67	-1709.75	  426.04
      3.0700	  620.00	  545.33	-1709.75	  426.70
      3.1700	  599.00	  545.98	-1709.75	  427.35
      3.2700	  590.00	  546.62	-1709.75	  427.98
      3.3700	  697.00	  547.25	-1709.75	  428.61
      3.4700	  778.00	  547.86	-1709.75	  429.23
      3.5700	  851.00	  548.47	-1709.75	  429.84
      3.6700	  857.00	  549.07	-1709.75	  430.43
      3.7700	  913.00	  549.66	-1709.75	  431.02
      3.8700	  967.00	  550.23	-1709.75	  431.60
      3.9700	 1058.00	  550.80	-1709.75	  432.16
      4.0700	 1067.00	  551.36	-1709.75	  432.72
      4.1700	 1130.00	  551.90	-1709.75	  433.27
      4.2700	 1141.00	  552.44	-1709.75	  433.81
      4.3700	 1154.00	  552.97	-1709.75	  434.33
      4.4700	 1075.00	  553.48	-1709.75	  434.85
      4.5700	 1061.00	  553.99	-1709.75	  435.36
      4.6700	  967.00	  554.49	-1709.75	  435.86
      4.7700	 1042.00	  554.98	-1709.75	  436.34
      4.8700	  970.00	  555.46	-1709.75	  436.82
      4.9700	  970.00	  555.93	-1709.75	  437.29
      5.0700	  908.00	  556.39	-1709.75	  437.75
      5.1700	  966.00	  556.84	-1709.75	  438.21
      5.2700	  936.00	  557.28	-1709.75	  438.65
      5.3700	  928.00	  557.72	-1709.75	  439.08
      5.4700	  867.00	  558.14	-1709.75	  439.51
      5.5700	  846.00	  558.55	-1709.75	  439.92
      5.6700	  846.00	  558.96	-1709.75	  440.33
      5.7700	  870.00	  559.36	-1709.75	  440.72
      5.8700	  872.00	  559.75	-1709.75	  441.11
      5.9700	  828.00	  560.13	-1709.75	  441.49
      6.0700	  812.00	  560.50	-1709.75	  441.87
      6.1700	  774.00	  560.86	-1709.75	  442.23
      6.2700	  746.00	  561.22	-1709.75	  442.58
      6.3700	  800.00	  561.56	-1709.75	  442.93
      6.4700	  768.00	  561.90	-1709.75	  443.27
      6.5700	  762.00	  562.23	-1709.75	  443.60
      6.6700	  678.00	  562.55	-1709.75	  443.92
      6.7700	  758.00	  562.86	-1709.75	  444.23
      6.8700	  742.00	  563.17	-1709.75	  444.54
      6.9700	  717.00	  563.47	-1709.75	  444.83
      7.0700	  716.00	  563.76	-1709.75	  445.12
      7.1700	  712.00	  564.04	-1709.75	  445.40
      7.2700	  720.00	  564.31	-1709.75	  445.68
      7.3700	  691.00	  564.58	-1709.75	  445.94
      7.4700	  700.00	  564.84	-1709.75	  446.20
      7.5700	  657.00	  565.09	-1709.75	  446.45
      7.6700	  702.00	  565.33	-1709.75	  446.70
      7.7700	  665.00	  565.56	-1709.75	  446.93
      7.8700	  673.00	  565.79	-1709.75	  447.16
      7.9700	  620.00	  566.01	-1709.75	  447.38
      8.0700	  619.00	  566.23	-1709.75	  447.59
      8.1700	  649.00	  566.43	-1709.75	  447.80
      8.2700	  638.00	  566.63	-1709.75	  448.00
      8.3700	  612.00	  566.82	-1709.75	  448.19
      8.4700	  584.00	  567.01	-1709.75	  448.37
      8.5700	  639.00	  567.19	-1709.75	  448.55
      8.6700	  606.00	  567.36	-1709.75	  448.72
      8.7700	  619.00	  567.52	-1709.75	  448.89
      8.8700	  586.00	  567.68	-1709.75	  449.04
      8.9700	  599.00	  567.83	-1709.75	  449.19
      9.0700	  576.00	  567.97	-1709.75	  449.34
      9.1700	  641.00	  568.11	-1709.75	  449.47
      9.2700	  630.00	  568.24	-1709.75	  449.60
      9.3700	  612.00	  568.36	-1709.75	  449.73
      9.4700	  574.00	  568.48	-1709.75	  449.85
      9.5700	  603.00	  568.59	-1709.75	  449.96
      9.6700	  611.00	  568.70	-1709.75	  450.06
      9.7700	  644.00	  568.79	-1709.75	  450.16
      9.8700	  567.00	  568.89	-1709.75	  450.25
      9.9700	  564.00	  568.97	-1709.75	  450.34
     10.0700	  556.00	  570.04	-1723.79	  450.42
     10.1700	  588.00	  570.23	-1691.98	  450.49
     10.2700	  598.00	  570.43	-1682.18	  450.56
     10.3700	  634.00	  570.67	-1646.42	  450.62
     10.4700	  547.00	  570.98	-1733.73	  450.68
     10.5700	  615.00	  571.42	-1666.17	  450.73
     10.6700	  544.00	  572.08	-1737.83	  450.77
     10.7700	  560.00	  573.08	-1722.83	  450.81
     10.8700	  577.00	  574.48	-1707.23	  450.84
     10.9700	  602.00	  576.28	-1684.03	  450.87
     11.0700	  548.00	  578.46	-1740.21	  450.89
     11.1700	  568.00	  581.01	-1722.76	  450.91
     11.2700	  552.00	  583.97	-1741.72	  450.92
     11.3700	  579.00	  587.44	-1718.19	  450.92
     11.4700	  573.00	  591.54	-1728.29	  450.92
     11.5700	  603.00	  596.51	-1703.26	  450.92
     11.6700	  620.00	  602.71	-1692.46	  450.91
     11.7700	  578.00	  610.78	-1742.53	  450.89
     11.8700	  675.00	  621.52	-1656.27	  450.87
     11.9700	  627.00	  635.23	-1717.98	  450.85
     12.0700	  698.00	  649.95	-1661.70	  450.81
     12.1700	  685.00	  659.70	-1684.45	  450.78
     12.2700	  693.00	  655.64	-1672.39	  450.74
     12.3700	  677.00	  635.55	-1668.30	  450.69
     12.4700	  612.00	  611.13	-1708.88	  450.64
     12.5700	  623.00	  592.71	-1679.46	  450.59
     12.6700	  564.00	  582.08	-1727.83	  450.53
     12.7700	  595.00	  576.87	-1691.62	  450.46
     12.8700	  580.00	  574.39	-1704.14	  450.39
     12.9700	  590.00	  573.03	-1692.78	  450.32
     13.0700	  549.00	  572.15	-1732.90	  450.24
     13.1700	  537.00	  571.49	-1744.24	  450.16
     13.2700	  563.00	  570.98	-1717.73	  450.07
     13.3700	  560.00	  570.56	-1720.31	  449.98
     13.4700	  595.00	  570.21	-1684.96	  449.88
     13.5700	  551.00	  569.90	-1728.65	  449.78
     13.6700	  547.00	  569.63	-1732.38	  449.68
     13.7700	  583.00	  569.38	-1696.13	  449.57
     13.8700	  568.00	  569.16	-1710.91	  449.46
     13.9700	  553.00	  568.94	-1725.69	  449.34
     14.0700	  551.00	  568.74	-1727.49	  449.22
     14.1700	  542.00	  568.54	-1736.29	  449.09
     14.2700	  553.00	  568.36	-1725.11	  448.96
     14.3700	  546.00	  568.17	-1731.92	  448.83
     14.4700	  565.00	  567.99	-1712.74	  448.69
     14.5700	  574.00	  567.81	-1703.56	  448.55
     14.6700	  570.00	  567.63	-1707.38	  448.41
     14.7700	  554.00	  567.45	-1723.20	  448.26
     14.8700	  541.00	  567.27	-1736.02	  448.11
     14.9700	  547.00	  567.08	-1729.83	  447.96
     15.0700	  603.00	  566.90	-1673.65	  447.80
     15.1700	  567.00	  566.72	-1709.47	  447.63
     15.2700	  529.00	  566.54	-1747.29	  447.47
     15.3700	  556.00	  566.35	-1720.10	  447.30
     15.4700	  545.00	  566.16	-1730.91	  447.13
     15.5700	  552.00	  565.97	-1723.72	  446.95
     15.6700	  552.00	  565.81	-1723.56	  446.77
     15.7700	  583.00	  565.61	-1692.36	  446.59
     15.8700	  550.00	  565.42	-1725.17	  446.40
     15.9700	  576.00	  565.22	-1698.97	  446.21
     16.0700	  570.00	  565.02	-1704.77	  446.02
     16.1700	  562.00	  564.81	-1712.56	  445.83
     16.2700	  581.00	  564.61	-1693.36	  445.63
     16.3700	  581.00	  564.40	-1693.15	  445.43
     16.4700	  566.00	  564.19	-1707.94	  445.22
     16.5700	  559.00	  563.98	-1714.73	  445.02
     16.6700	  586.00	  563.76	-1687.51	  444.81
     16.7700	  559.00	  563.54	-1714.29	  444.59
     16.8700	  565.00	  563.32	-1708.07	  444.38
     16.9700	  587.00	  563.10	-1685.85	  444.16
     17.0700	  553.00	  562.88	-1719.63	  443.94
     17.1700	  581.00	  562.65	-1691.40	  443.71
     17.2700	  596.00	  562.42	-1676.17	  443.49
     17.3700	  569.00	  562.19	-1702.94	  443.26
     17.4700	  558.00	  561.95	-1713.70	  443.03
     17.5700	  528.00	  561.72	-1743.47	  442.79
     17.6700	  559.00	  561.48	-1712.23	  442.56
     17.7700	  563.00	  561.24	-1707.99	  442.32
     17.8700	  531.00	  560.99	-1739.74	  442.08
     17.9700	  576.00	  560.75	-1694.50	  441.83
     18.0700	  593.00	  560.61	-1677.36	  441.59
     18.1700	  559.00	  560.37	-1711.12	  441.34
     18.2700	  584.00	  560.12	-1685.87	  441.09
     18.3700	  574.00	  559.87	-1695.62	  440.83
     18.4700	  590.00	  559.61	-1679.36	  440.58
     18.5700	  521.00	  559.36	-1748.11	  440.32
     18.6700	  553.00	  559.10	-1715.85	  440.06
     18.7700	  557.00	  558.92	-1711.67	  439.80
     18.8700	  534.00	  558.67	-1734.42	  439.54
     18.9700	  542.00	  558.40	-1726.15	  439.27
     19.0700	  537.00	  558.14	-1730.89	  439.01
     19.1700	  544.00	  557.88	-1723.63	  438.74
     19.2700	  540.00	  557.61	-1727.36	  438.47
     19.3700	  550.00	  557.35	-1717.10	  438.19
     19.4700	  589.00	  557.08	-1677.83	  437.92
     19.5700	  572.00	  556.81	-1694.56	  437.64
     19.6700	  586.00	  556.54	-1680.29	  437.36
     19.7700	  574.00	  556.27	-1692.02	  437.08
     19.8700	  518.00	  556.00	-1747.75	  436.80
     19.9700	  558.00	  555.72	-1707.47	  436.52
     20.0700	  527.00	  555.45	-1738.20	  436.23
     20.1700	  559.00	  555.17	-1705.92	  435.95
     20.2700	  564.00	  554.89	-1700.65	  435.66
     20.3700	  553.00	  554.62	-1711.37	  435.37
     20.4700	  533.00	  554.34	-1731.09	  435.08
     20.5700	  536.00	  554.06	-1727.81	  434.79
     20.6700	  508.00	  553.81	-1755.56	  434.49
     20.7700	  540.00	  553.53	-1723.28	  434.20
     20.8700	  519.00	  553.25	-1744.00	  433.90
     20.9700	  538.00	  552.97	-1724.72	  433.60
     21.0700	  581.00	  552.69	-1681.44	  433.31
     21.1700	  542.00	  552.37	-1720.12	  433.01
     21.2700	  585.00	  552.09	-1676.84	  432.70
     21.3700	  538.00	  551.81	-1723.56	  432.40
     21.4700	  525.00	  551.54	-1736.29	  432.10
     21.5700	  550.00	  551.26	-1711.01	  431.79
     21.6700	  562.00	  550.98	-1698.73	  431.49
     21.7700	  525.00	  550.70	-1735.45	  431.18
     21.8700	  567.00	  550.43	-1693.18	  430.87
     21.9700	  559.00	  550.15	-1700.90	  430.56
     22.0700	  553.00	  549.88	-1706.63	  430.25
     22.1700	  517.00	  549.61	-1742.36	  429.94
     22.2700	  560.00	  549.34	-1699.09	  429.63
     22.3700	  526.00	  549.08	-1732.83	  429.32
     22.4700	  549.00	  548.82	-1709.57	  429.01
     22.5700	  514.00	  548.57	-1744.32	  428.69
     22.6700	  550.00	  548.32	-1708.07	  428.38
     22.7700	  554.00	  548.08	-1703.83	  428.06
     22.8700	  553.00	  547.85	-1704.60	  427.74
     22.9700	  581.00	  547.63	-1676.38	  427.43
     23.0700	  565.00	  547.43	-1692.18	  427.11
     23.1700	  538.00	  547.24	-1718.99	  426.79
     23.2700	  548.00	  547.08	-1708.83	  426.47
     23.3700	  509.00	  546.94	-1747.69	  426.15
     23.4700	  525.00	  546.99	-1731.74	  425.83
     23.5700	  538.00	  546.95	-1718.70	  425.51
     23.6700	  542.00	  546.99	-1714.74	  425.19
     23.7700	  552.00	  547.17	-1704.92	  424.87
     23.8700	  535.00	  547.58	-1722.33	  424.55
     23.9700	  619.00	  548.48	-1639.23	  424.23
     24.0700	  546.00	  550.25	-1714.00	  423.90
     24.1700	  576.00	  553.52	-1687.27	  423.58
     24.2700	  543.00	  559.05	-1725.80	  423.26
     24.3700	  564.00	  567.70	-1713.45	  422.93
     24.4700	  601.00	  580.16	-1688.91	  422.61
     24.5700	  570.00	  596.19	-1735.94	  422.28
     24.6700	  650.00	  612.87	-1672.62	  421.96
     24.7700	  628.00	  623.42	-1705.17	  421.63
     24.8700	  604.00	  619.48	-1725.23	  421.31
     24.9700	  640.00	  600.98	-1670.73	  420.98
     25.0700	  591.00	  579.18	-1697.93	  420.66
     25.1700	  579.00	  562.58	-1693.33	  420.33
     25.2700	  569.00	  552.71	-1693.46	  420.01
     25.3700	  546.00	  547.70	-1711.45	  419.68
     25.4700	  541.00	  545.26	-1714.01	  419.36
     25.5700	  565.00	  543.93	-1688.68	  419.03
     25.6700	  571.00	  543.07	-1681.82	  418.71
     25.7700	  600.00	  542.45	-1652.20	  418.38
     25.8700	  564.00	  541.99	-1687.74	  418.06
     25.9700	  556.00	  541.64	-1695.39	  417.73
     26.0700	  531.00	  541.38	-1720.13	  417.40
     26.1700	  583.00	  541.21	-1667.96	  417.08
     26.2700	  564.00	  541.12	-1686.87	  416.75
     26.3700	  549.00	  541.12	-1701.87	  416.43
     26.4700	  556.00	  541.20	-1694.95	  416.11
     26.5700	  524.00	  541.39	-1727.14	  415.78
     26.6700	  552.00	  541.69	-1699.44	  415.46
     26.7700	  541.00	  542.15	-1710.90	  415.13
     26.8700	  525.00	  542.79	-1727.54	  414.81
     26.9700	  517.00	  543.66	-1736.41	  414.49
     27.0700	  547.00	  544.86	-1707.61	  414.16
     27.1700	  570.00	  546.52	-1686.27	  413.84
     27.2700	  546.00	  548.90	-1712.65	  413.52
     27.3700	  524.00	  552.55	-1738.30	  413.20
     27.4700	  549.00	  558.52	-1719.27	  412.88
     27.5700	  610.00	  568.70	-1668.45	  412.55
     27.6700	  574.00	  586.09	-1721.84	  412.23
     27.7700	  600.00	  614.59	-1724.34	  411.91
     27.8700	  594.00	  657.62	-1773.37	  411.59
     27.9700	  647.00	  715.43	-1778.18	  411.28
     28.0700	  809.00	  781.48	-1682.23	  410.96
     28.1700	  852.00	  839.22	-1696.97	  410.64
     28.2700	  983.00	  863.49	-1590.24	  410.32
     28.3700	  913.00	  838.68	-1635.43	  410.00
     28.4700	  845.00	  787.11	-1651.86	  409.69
     28.5700	  701.00	  747.26	-1756.01	  409.37
     28.6700	  701.00	  737.20	-1745.95	  409.06
     28.7700	  748.00	  753.00	-1714.75	  408.74
     28.8700	  741.00	  775.74	-1744.49	  408.43
     28.9700	  790.00	  778.91	-1698.66	  408.12
     29.0700	  782.00	  745.33	-1673.08	  407.81
     29.1700	  688.00	  688.16	-1709.91	  407.49
     29.2700	  636.00	  633.22	-1706.97	  407.18
     29.3700	  600.00	  593.15	-1702.90	  406.87
     29.4700	  597.00	  568.59	-1681.34	  406.56
     29.5700	  597.00	  555.09	-1667.84	  406.26
     29.6700	  585.00	  547.86	-1672.61	  405.95
     29.7700	  579.00	  543.73	-1674.48	  405.64
     29.8700	  551.00	  541.14	-1699.89	  405.34
     29.9700	  549.00	  539.49	-1700.24	  405.03
     30.0700	  517.00	  538.61	-1731.36	  404.73
     30.1700	  550.00	  538.66	-1698.41	  404.42
     30.2700	  562.00	  540.11	-1687.86	  404.12
     30.3700	  589.00	  543.89	-1664.64	  403.82
     30.4700	  603.00	  551.38	-1658.13	  403.52
     30.5700	  580.00	  563.97	-1693.72	  403.22
     30.6700	  598.00	  582.01	-1693.76	  402.92
     30.7700	  575.00	  603.13	-1737.88	  402.62
     30.8700	  616.00	  621.42	-1715.17	  402.33
     30.9700	  605.00	  627.86	-1732.61	  402.03
     31.0700	  560.00	  616.30	-1766.05	  401.74
     31.1700	  560.00	  592.65	-1742.40	  401.44
     31.2700	  582.00	  568.66	-1696.41	  401.15
     31.3700	  534.00	  550.67	-1726.42	  400.86
     31.4700	  554.00	  539.49	-1695.24	  400.57
     31.5700	  553.00	  533.35	-1690.10	  400.28
     31.6700	  572.00	  530.13	-1667.88	  399.99
     31.7700	  527.00	  528.33	-1711.08	  399.71
     31.8700	  557.00	  527.21	-1679.96	  399.42
     31.9700	  525.00	  526.45	-1711.20	  399.14
     32.0700	  562.00	  525.92	-1673.67	  398.85
     32.1700	  530.00	  525.57	-1705.32	  398.57
     32.2700	  560.00	  525.39	-1675.14	  398.29
     32.3700	  539.00	  525.37	-1696.12	  398.01
     32.4700	  538.00	  525.51	-1697.26	  397.73
     32.5700	  509.00	  525.83	-1726.58	  397.46
     32.6700	  533.00	  526.38	-1703.13	  397.18
     32.7700	  506.00	  527.18	-1730.93	  396.91
     32.8700	  544.00	  528.34	-1694.09	  396.63
     32.9700	  523.00	  529.96	-1716.71	  396.36
     33.0700	  521.00	  532.31	-1721.06	  396.09
     33.1700	  567.00	  535.90	-1678.65	  395.82
     33.2700	  522.00	  541.88	-1729.63	  395.55
     33.3700	  548.00	  552.64	-1714.39	  395.29
     33.4700	  587.00	  572.65	-1695.40	  395.02
     33.5700	  598.00	  608.69	-1720.44	  394.76
     33.6700	  652.00	  668.15	-1725.90	  394.49
     33.7700	  789.00	  753.64	-1674.39	  394.23
     33.8700	  896.00	  855.38	-1669.13	  393.97
     33.9700	  979.00	  946.32	-1677.07	  393.71
     34.0700	 1029.00	  985.69	-1666.44	  393.46
     34.1700	 1029.00	  943.91	-1624.66	  393.20
     34.2700	  897.00	  842.34	-1655.09	  392.95
     34.3700	  741.00	  732.36	-1701.11	  392.69
     34.4700	  668.00	  645.87	-1687.62	  392.44
     34.5700	  588.00	  590.07	-1711.82	  392.19
     34.6700	  572.00	  558.81	-1696.56	  391.94
     34.7700	  511.00	  542.56	-1741.31	  391.70
     34.8700	  532.00	  533.93	-1711.68	  391.45
     34.9700	  537.00	  528.75	-1701.50	  391.21
     35.0700	  495.00	  525.20	-1739.95	  390.96
     35.1700	  553.00	  522.53	-1679.28	  390.72
     35.2700	  520.00	  520.43	-1710.18	  390.48
     35.3700	  570.00	  518.72	-1658.47	  390.25
     35.4700	  529.00	  517.31	-1698.06	  390.01
     35.5700	  505.00	  516.12	-1720.87	  389.78
     35.6700	  481.00	  515.09	-1743.84	  389.54
     35.7700	  486.00	  514.21	-1737.96	  389.31
     35.8700	  506.00	  513.43	-1717.18	  389.08
     35.9700	  515.00	  512.74	-1707.49	  388.85
     36.0700	  541.00	  512.59	-1681.34	  388.62
     36.1700	  532.00	  512.04	-1689.79	  388.40
     36.2700	  498.00	  511.55	-1723.30	  388.17
     36.3700	  529.00	  511.11	-1691.86	  387.95
     36.4700	  541.00	  510.71	-1679.46	  387.73
     36.5700	  475.00	  510.36	-1745.11	  387.51
     36.6700	  536.00	  510.05	-1683.80	  387.30
     36.7700	  510.00	  509.80	-1709.55	  387.08
     36.8700	  532.00	  509.65	-1687.40	  386.87
     36.9700	  507.00	  509.65	-1712.40	  386.65
     37.0700	  477.00	  509.97	-1742.72	  386.44
     37.1700	  548.00	  510.87	-1672.62	  386.23
     37.2700	  515.00	  512.68	-1707.43	  386.03
     37.3700	  543.00	  515.66	-1682.41	  385.82
     37.4700	  483.00	  519.68	-1746.43	  385.62
     37.5700	  479.00	  523.86	-1754.61	  385.41
     37.6700	  527.00	  526.67	-1709.42	  385.21
     37.7700	  511.00	  526.53	-1725.28	  385.01
     37.8700	  521.00	  523.40	-1712.15	  384.82
     37.9700	  532.00	  518.96	-1696.71	  384.62
     38.0700	  524.00	  514.73	-1700.48	  384.43
     38.1700	  517.00	  511.34	-1704.09	  384.23
     38.2700	  500.00	  508.90	-1718.65	  384.04
     38.3700	  484.00	  507.27	-1733.02	  383.85
     38.4700	  498.00	  506.21	-1717.96	  383.67
     38.5700	  506.00	  505.50	-1709.25	  383.48
     38.6700	  513.00	  505.01	-1701.76	  383.30
     38.7700	  488.00	  504.54	-1726.29	  383.12
     38.8700	  524.00	  504.24	-1689.99	  382.94
     38.9700	  493.00	  503.98	-1720.73	  382.76
     39.0700	  488.00	  503.74	-1725.49	  382.58
     39.1700	  473.00	  503.67	-1740.42	  382.41
     39.2700	  490.00	  503.47	-1723.22	  382.23
     39.3700	  528.00	  503.22	-1684.97	  382.06
     39.4700	  458.00	  503.04	-1754.79	  381.89
     39.5700	  475.00	  502.88	-1737.63	  381.73
     39.6700	  475.00	  502.73	-1737.48	  381.56
     39.7700	  482.00	  502.59	-1730.34	  381.39
     39.8700	  546.00	  502.46	-1666.21	  381.23
     39.9700	  495.00	  502.34	-1717.09	  381.07
     40.0700	  481.00	  502.23	-1730.98	  380.91
     40.1700	  543.00	  502.13	-1668.88	  380.76
     40.2700	  491.00	  502.05	-1720.80	  380.60
     40.3700	  491.00	  501.97	-1720.72	  380.45
     40.4700	  464.00	  501.91	-1747.66	  380.29
     40.5700	  484.00	  501.87	-1727.62	  380.14
     40.6700	  494.00	  501.84	-1717.59	  380.00
     40.7700	  495.00	  501.83	-1716.58	  379.85
     40.8700	  489.00	  501.85	-1722.60	  379.71
     40.9700	  511.00	  501.90	-1700.65	  379.56
     41.0700	  518.00	  501.99	-1693.74	  379.42
     41.1700	  511.00	  502.12	-1700.87	  379.28
     41.2700	  498.00	  502.31	-1714.06	  379.14
     41.3700	  498.00	  503.01	-1714.76	  379.01
     41.4700	  485.00	  503.34	-1728.09	  378.88
     41.5700	  522.00	  503.83	-1691.58	  378.74
     41.6700	  466.00	  504.52	-1748.27	  378.61
     41.7700	  517.00	  505.56	-1698.31	  378.49
     41.8700	  483.00	  507.31	-1734.06	  378.36
     41.9700	  510.00	  510.49	-1710.24	  378.23
     42.0700	  534.00	  516.44	-1692.19	  378.11
     42.1700	  472.00	  527.12	-1764.87	  377.99
     42.2700	  522.00	  544.64	-1732.39	  377.87
     42.3700	  551.00	  569.97	-1728.72	  377.75
     42.4700	  604.00	  600.84	-1706.59	  377.64
     42.5700	  577.00	  630.49	-1763.24	  377.52
     42.6700	  592.00	  648.32	-1766.07	  377.41
     42.7700	  572.00	  644.83	-1782.58	  377.30
     42.8700	  618.00	  621.33	-1713.08	  377.19
     42.9700	  591.00	  589.18	-1707.93	  377.09
     43.0700	  548.00	  559.07	-1720.82	  376.98
     43.1700	  506.00	  536.20	-1739.95	  376.88
     43.2700	  553.00	  521.32	-1678.07	  376.78
     43.3700	  502.00	  512.72	-1720.47	  376.68
     43.4700	  486.00	  508.09	-1731.84	  376.58
     43.5700	  529.00	  505.65	-1686.40	  376.48
     43.6700	  512.00	  504.39	-1702.14	  376.39
     43.7700	  472.00	  503.45	-1741.20	  376.30
     43.8700	  519.00	  502.78	-1693.53	  376.21
     43.9700	  526.00	  502.26	-1686.01	  376.12
     44.0700	  486.00	  501.87	-1725.62	  376.03
     44.1700	  510.00	  501.55	-1701.30	  375.95
     44.2700	  515.00	  501.31	-1696.06	  375.86
     44.3700	  470.00	  501.12	-1740.87	  375.78
     44.4700	  539.00	  500.98	-1671.73	  375.70
     44.5700	  515.00	  500.87	-1695.62	  375.63
     44.6700	  472.00	  500.80	-1738.55	  375.55
     44.7700	  514.00	  500.76	-1696.51	  375.48
     44.8700	  492.00	  500.62	-1718.37	  375.40
     44.9700	  514.00	  500.63	-1696.38	  375.33
     45.0700	  496.00	  500.85	-1714.60	  375.26
     45.1700	  535.00	  500.92	-1675.67	  375.20
     45.2700	  531.00	  501.01	-1679.76	  375.13
     45.3700	  542.00	  501.12	-1668.87	  375.07
     45.4700	  500.00	  501.25	-1711.00	  375.01
     45.5700	  532.00	  501.41	-1679.16	  374.95
     45.6700	  532.00	  501.60	-1679.35	  374.89
     45.7700	  476.00	  501.81	-1735.56	  374.83
     45.8700	  481.00	  502.06	-1730.81	  374.78
     45.9700	  509.00	  502.33	-1703.08	  374.72
     46.0700	  529.00	  502.65	-1683.40	  374.67
     46.1700	  492.00	  503.00	-1720.75	  374.62
     46.2700	  455.00	  503.41	-1758.16	  374.58
     46.3700	  531.00	  503.87	-1682.62	  374.53
     46.4700	  505.00	  504.39	-1709.14	  374.49
     46.5700	  488.00	  505.00	-1726.75	  374.44
     46.6700	  495.00	  505.70	-1720.45	  374.40
     46.7700	  506.00	  506.54	-1710.29	  374.36
     46.8700	  471.00	  507.58	-1746.33	  374.33
     46.9700	  523.00	  509.07	-1695.82	  374.29
     47.0700	  509.00	  511.17	-1711.92	  374.26
     47.1700	  516.00	  514.56	-1708.31	  374.22
     47.2700	  537.00	  520.18	-1692.93	  374.19
     47.3700	  560.00	  529.19	-1678.94	  374.17
     47.4700	  582.00	  542.55	-1670.30	  374.14
     47.5700	  556.00	  560.22	-1713.97	  374.11
     47.6700	  566.00	  580.20	-1723.95	  374.09
     47.7700	  614.00	  598.25	-1694.00	  374.07
     47.8700	  560.00	  608.46	-1758.21	  374.05
     47.9700	  603.00	  606.58	-1713.33	  374.03
     48.0700	  610.00	  594.15	-1693.90	  374.01
     48.1700	  566.00	  577.18	-1720.93	  374.00
     48.2700	  588.00	  561.23	-1682.98	  373.98
     48.3700	  553.00	  549.34	-1706.09	  373.97
     48.4700	  557.00	  542.36	-1695.11	  373.96
     48.5700	  562.00	  539.76	-1687.51	  373.95
     48.6700	  536.00	  540.49	-1714.24	  373.94
     48.7700	  520.00	  543.64	-1733.39	  373.94
     48.8700	  559.00	  548.74	-1699.49	  373.93
     48.9700	  561.00	  555.78	-1704.53	  373.93
     49.0700	  542.00	  565.38	-1733.13	  373.93
     49.1700	  554.00	  579.11	-1734.86	  373.93
     49.2700	  615.00	  600.60	-1695.35	  373.93
     49.3700	  631.00	  635.53	-1714.28	  373.94
     49.4700	  638.00	  694.95	-1766.70	  373.94
     49.5700	  742.00	  794.29	-1762.04	  373.95
     49.6700	  837.00	  951.25	-1824.00	  373.96
     49.7700	 1227.00	 1179.16	-1661.91	  373.97
     49.8700	 1457.00	 1476.74	-1729.49	  373.98
     49.9700	 1834.00	 1816.44	-1692.19	  374.00
     50.0700	 2244.00	 2135.81	-1601.56	  374.01
     50.1700	 2368.00	 2341.47	-1683.22	  374.03
     50.2700	 2395.00	 2349.31	-1664.06	  374.05
     50.3700	 2182.00	 2153.78	-1681.53	  374.07
     50.4700	 1808.00	 1837.35	-1739.10	  374.09
     50.5700	 1452.00	 1498.80	-1756.55	  374.11
     50.6700	 1134.00	 1203.80	-1779.55	  374.14
     50.7700	  850.00	  981.08	-1840.83	  374.16
     50.8700	  759.00	  831.92	-1782.67	  374.19
     50.9700	  690.00	  741.43	-1761.18	  374.22
     51.0700	  693.00	  688.97	-1705.72	  374.25
     51.1700	  634.00	  656.02	-1731.77	  374.28
     51.2700	  637.00	  630.82	-1703.57	  374.31
     51.3700	  585.00	  608.90	-1733.65	  374.35
     51.4700	  579.00	  589.85	-1720.60	  374.38
     51.5700	  539.00	  574.24	-1744.99	  374.42
     51.6700	  574.00	  562.34	-1698.09	  374.46
     51.7700	  577.00	  553.90	-1686.65	  374.50
     51.8700	  509.00	  548.26	-1749.01	  374.54
     51.9700	  519.00	  544.95	-1735.70	  374.59
     52.0700	  529.00	  542.93	-1723.68	  374.63
     52.1700	  564.00	  542.08	-1687.83	  374.68
     52.2700	  563.00	  542.28	-1689.03	  374.72
     52.3700	  580.00	  543.66	-1673.41	  374.77
     52.4700	  563.00	  546.79	-1693.54	  374.82
     52.5700	  530.00	  552.89	-1732.64	  374.87
     52.6700	  540.00	  564.44	-1734.19	  374.93
     52.7700	  608.00	  585.63	-1687.38	  374.98
     52.8700	  654.00	  622.47	-1678.22	  375.04
     52.9700	  701.00	  681.72	-1690.47	  375.09
     53.0700	  871.00	  768.27	-1607.02	  375.15
     53.1700	  945.00	  881.08	-1645.83	  375.21
     53.2700	 1056.00	 1009.19	-1662.94	  375.27
     53.3700	 1126.00	 1129.18	-1712.93	  375.34
     53.4700	 1207.00	 1207.41	-1710.16	  375.40
     53.5700	 1153.00	 1213.84	-1770.59	  375.46
     53.6700	 1092.00	 1145.19	-1762.94	  375.53
     53.7700	 1043.00	 1028.81	-1695.56	  375.60
     53.8700	  902.00	  899.89	-1707.64	  375.67
     53.9700	  712.00	  783.97	-1781.72	  375.74
     54.0700	  658.00	  693.68	-1745.43	  375.81
     54.1700	  661.00	  631.19	-1679.94	  375.88
     54.2700	  582.00	  592.14	-1719.89	  375.95
     54.3700	  559.00	  569.73	-1720.48	  376.03
     54.4700	  544.00	  557.67	-1723.42	  376.11
     54.5700	  616.00	  551.47	-1645.22	  376.18
     54.6700	  587.00	  548.45	-1671.20	  376.26
     54.7700	  590.00	  547.22	-1666.97	  376.34
     54.8700	  524.00	  547.10	-1732.85	  376.42
     54.9700	  618.00	  547.93	-1639.68	  376.50
     55.0700	  550.00	  549.53	-1709.28	  376.59
     55.1700	  569.00	  551.93	-1692.68	  376.67
     55.2700	  558.00	  555.21	-1706.96	  376.76
     55.3700	  550.00	  559.48	-1719.23	  376.84
     55.4700	  617.00	  564.97	-1657.72	  376.93
     55.5700	  566.00	  572.13	-1715.88	  377.02
     55.6700	  573.00	  581.83	-1718.58	  377.11
     55.7700	  579.00	  595.81	-1726.56	  377.20
     55.8700	  631.00	  617.56	-1696.31	  377.29
     55.9700	  627.00	  653.39	-1736.14	  377.39
     56.0700	  685.00	  713.59	-1738.34	  377.48
     56.1700	  722.00	  812.66	-1800.41	  377.58
     56.2700	  911.00	  967.46	-1766.21	  377.67
     56.3700	 1121.00	 1192.02	-1780.77	  377.77
     56.4700	 1398.00	 1489.61	-1801.36	  377.87
     56.5700	 1772.00	 1843.82	-1781.57	  377.97
     56.6700	 2215.00	 2211.18	-1705.93	  378.07
     56.7700	 2505.00	 2519.24	-1723.99	  378.17
     56.8700	 2662.00	 2679.64	-1727.39	  378.27
     56.9700	 2482.00	 2633.15	-1860.90	  378.37
     57.0700	 2406.00	 2397.61	-1701.36	  378.48
     57.1700	 2095.00	 2053.45	-1668.20	  378.58
     57.2700	 1663.00	 1686.47	-1733.22	  378.69
     57.3700	 1293.00	 1356.78	-1773.53	  378.80
     57.4700	 1075.00	 1094.90	-1729.65	  378.90
     57.5700	  920.00	  907.44	-1697.19	  379.01
     57.6700	  773.00	  785.52	-1722.27	  379.12
     57.7700	  671.00	  713.62	-1752.37	  379.23
     57.8700	  711.00	  676.76	-1675.51	  379.35
     57.9700	  653.00	  664.04	-1720.79	  379.46
     58.0700	  673.00	  669.48	-1706.23	  379.57
     58.1700	  728.00	  690.88	-1672.64	  379.69
     58.2700	  742.00	  728.07	-1695.82	  379.80
     58.3700	  770.00	  781.14	-1720.89	  379.92
     58.4700	  880.00	  848.84	-1678.59	  380.03
     58.5700	 1020.00	  927.08	-1616.83	  380.15
     58.6700	 1079.00	 1008.38	-1639.13	  380.27
     58.7700	 1246.00	 1083.94	-1547.69	  380.39
     58.8700	 1356.00	 1147.64	-1501.39	  380.51
     58.9700	 1335.00	 1196.11	-1570.86	  380.63
     59.0700	 1443.00	 1224.80	-1491.55	  380.75
     59.1700	 1464.00	 1229.25	-1475.00	  380.87
     59.2700	 1431.00	 1212.18	-1490.93	  381.00
     59.3700	 1266.00	 1184.30	-1628.05	  381.12
     59.4700	 1242.00	 1156.89	-1624.64	  381.24
     59.5700	 1221.00	 1137.95	-1626.70	  381.37
     59.6700	 1213.00	 1135.12	-1631.87	  381.49
     59.7700	 1119.00	 1157.48	-1748.23	  381.62
     59.8700	 1261.00	 1210.78	-1659.53	  381.75
     59.9700	 1322.00	 1291.35	-1679.10	  381.87
     60.0700	 1461.00	 1383.34	-1632.09	  382.00
     60.1700	 1495.00	 1459.58	-1674.33	  382.13
     60.2700	 1572.00	 1488.04	-1625.79	  382.26
     60.3700	 1516.00	 1448.46	-1642.21	  382.39
     60.4700	 1350.00	 1346.76	-1706.51	  382.52
     60.5700	 1168.00	 1208.90	-1750.65	  382.65
     60.6700	 1107.00	 1063.09	-1665.84	  382.79
     60.7700	  863.00	  930.14	-1776.89	  382.92
     60.8700	  798.00	  821.86	-1733.61	  383.05
     60.9700	  724.00	  742.50	-1728.25	  383.18
     61.0700	  654.00	  691.26	-1747.01	  383.32
     61.1700	  639.00	  665.05	-1735.80	  383.45
     61.2700	  635.00	  661.35	-1736.10	  383.59
     61.3700	  641.00	  679.57	-1748.32	  383.72
     61.4700	  675.00	  721.49	-1756.24	  383.86
     61.5700	  786.00	  789.88	-1713.63	  384.00
     61.6700	  860.00	  886.36	-1736.11	  384.13
     61.7700	  952.00	 1008.59	-1766.34	  384.27
     61.8700	 1099.00	 1147.67	-1758.42	  384.41
     61.9700	 1181.00	 1286.58	-1815.33	  384.55
     62.0700	 1302.00	 1399.94	-1807.69	  384.69
     62.1700	 1329.00	 1458.86	-1839.61	  384.83
     62.2700	 1321.00	 1444.23	-1832.98	  384.97
     62.3700	 1321.00	 1360.37	-1749.12	  385.11
     62.4700	 1235.00	 1231.77	-1706.52	  385.25
     62.5700	  994.00	 1087.24	-1802.99	  385.39
     62.6700	  911.00	  949.25	-1748.00	  385.53
     62.7700	  802.00	  831.56	-1739.31	  385.67
     62.8700	  689.00	  739.99	-1760.74	  385.81
     62.9700	  684.00	  674.22	-1699.97	  385.96
     63.0700	  564.00	  630.24	-1775.99	  386.10
     63.1700	  599.00	  602.63	-1713.38	  386.24
     63.2700	  602.00	  586.33	-1694.08	  386.38
     63.3700	  597.00	  577.53	-1690.28	  386.53
     63.4700	  578.00	  573.94	-1705.69	  386.67
     63.5700	  593.00	  574.72	-1691.47	  386.82
     63.6700	  630.00	  580.20	-1659.95	  386.96
     63.7700	  578.00	  591.69	-1723.44	  387.10
     63.8700	  616.00	  611.07	-1704.82	  387.25
     63.9700	  680.00	  640.29	-1670.04	  387.39
     64.0700	  672.00	  680.67	-1718.42	  387.54
     64.1700	  787.00	  731.98	-1654.73	  387.68
     64.2700	  820.00	  791.58	-1681.33	  387.83
     64.3700	  927.00	  853.88	-1636.63	  387.97
     64.4700	 1014.00	  910.21	-1605.96	  388.12
     64.5700	 1007.00	  949.82	-1652.57	  388.27
     64.6700	  989.00	  965.53	-1686.28	  388.41
     64.7700	  966.00	  954.73	-1698.48	  388.56
     64.8700	  997.00	  921.60	-1634.35	  388.70
     64.9700	  920.00	  873.98	-1663.73	  388.85
     65.0700	  849.00	  820.87	-1681.62	  389.00
     65.1700	  777.00	  769.59	-1702.34	  389.14
     65.2700	  740.00	  724.33	-1694.08	  389.29
     65.3700	  675.00	  686.31	-1721.06	  389.44
     65.4700	  648.00	  655.07	-1716.82	  389.58
     65.5700	  612.00	  629.78	-1727.53	  389.73
     65.6700	  604.00	  609.74	-1715.49	  389.88
     65.7700	  545.00	  594.33	-1759.08	  390.02
     65.8700	  575.00	  582.93	-1717.68	  390.17
     65.9700	  572.00	  574.97	-1712.72	  390.32
     66.0700	  589.00	  569.94	-1690.69	  390.46
     66.1700	  533.00	  567.34	-1744.09	  390.61
     66.2700	  534.00	  566.75	-1742.50	  390.76
     66.3700	  556.00	  567.94	-1721.69	  390.90
     66.4700	  551.00	  570.52	-1729.27	  391.05
     66.5700	  518.00	  574.66	-1766.41	  391.20
     66.6700	  581.00	  580.75	-1709.50	  391.34
     66.7700	  545.00	  589.77	-1754.52	  391.49
     66.8700	  617.00	  603.53	-1696.28	  391.63
     66.9700	  590.00	  625.12	-1744.87	  391.78
     67.0700	  633.00	  659.35	-1736.10	  391.93
     67.1700	  751.00	  712.94	-1671.69	  392.07
     67.2700	  782.00	  794.24	-1721.99	  392.22
     67.3700	  911.00	  912.09	-1710.84	  392.36
     67.4700	 1116.00	 1073.24	-1666.99	  392.51
     67.5700	 1307.00	 1279.82	-1682.57	  392.65
     67.6700	 1544.00	 1525.81	-1691.56	  392.80
     67.7700	 1780.00	 1794.58	-1724.33	  392.94
     67.8700	 2144.00	 2057.39	-1623.14	  393.09
     67.9700	 2289.00	 2274.33	-1695.08	  393.23
     68.0700	 2408.00	 2400.78	-1702.53	  393.37
     68.1700	 2437.00	 2404.42	-1677.17	  393.52
     68.2700	 2237.00	 2284.16	-1756.91	  393.66
     68.3700	 1999.00	 2071.17	-1781.92	  393.80
     68.4700	 1829.00	 1809.98	-1690.73	  393.94
     68.5700	 1543.00	 1541.15	-1707.90	  394.09
     68.6700	 1260.00	 1293.86	-1743.61	  394.23
     68.7700	 1006.00	 1085.41	-1789.16	  394.37
     68.8700	  903.00	  922.36	-1729.11	  394.51
     68.9700	  785.00	  802.98	-1727.73	  394.65
     69.0700	  696.00	  720.51	-1734.26	  394.79
     69.1700	  701.00	  666.21	-1674.96	  394.93
     69.2700	  647.00	  631.67	-1694.42	  395.07
     69.3700	  581.00	  610.06	-1738.81	  395.21
     69.4700	  619.00	  596.47	-1687.22	  395.35
     69.5700	  584.00	  587.70	-1713.45	  395.49
     69.6700	  562.00	  581.83	-1729.58	  395.63
     69.7700	  541.00	  577.79	-1746.54	  395.77
     69.8700	  583.00	  575.00	-1701.75	  395.90
     69.9700	  563.00	  573.18	-1719.93	  396.04
     70.0700	  561.00	  572.15	-1720.90	  396.18
     70.1700	  580.00	  571.89	-1701.64	  396.31
     70.2700	  574.00	  572.40	-1708.15	  396.45
     70.3700	  572.00	  573.81	-1711.56	  396.58
     70.4700	  570.00	  576.39	-1716.14	  396.72
     70.5700	  599.00	  580.65	-1691.40	  396.85
     70.6700	  582.00	  587.51	-1715.26	  396.98
     70.7700	  562.00	  598.55	-1746.30	  397.11
     70.8700	  563.00	  616.21	-1762.96	  397.25
     70.9700	  608.00	  644.00	-1745.75	  397.38
     71.0700	  663.00	  686.57	-1733.32	  397.51
     71.1700	  759.00	  749.29	-1700.04	  397.64
     71.2700	  826.00	  837.43	-1721.18	  397.77
     71.3700	  978.00	  954.78	-1686.53	  397.90
     71.4700	 1099.00	 1101.85	-1712.60	  398.03
     71.5700	 1245.00	 1274.96	-1739.71	  398.15
     71.6700	 1427.00	 1461.76	-1744.51	  398.28
     71.7700	 1587.00	 1645.49	-1768.24	  398.41
     71.8700	 1749.00	 1802.21	-1762.96	  398.53
     71.9700	 1917.00	 1904.69	-1697.44	  398.66
     72.0700	 1874.00	 1930.65	-1766.40	  398.78
     72.1700	 1911.00	 1873.83	-1672.58	  398.91
     72.2700	 1762.00	 1747.77	-1695.52	  399.03
     72.3700	 1561.00	 1577.90	-1726.65	  399.15
     72.4700	 1426.00	 1390.84	-1674.59	  399.27
     72.5700	 1290.00	 1207.76	-1627.51	  399.40
     72.6700	 1115.00	 1044.39	-1639.14	  399.52
     72.7700	 1000.00	  908.32	-1618.07	  399.64
     72.8700	  862.00	  801.83	-1649.58	  399.75
     72.9700	  834.00	  722.97	-1598.72	  399.87
     73.0700	  757.00	  667.28	-1620.03	  399.99
     73.1700	  683.00	  629.44	-1656.19	  400.11
     73.2700	  657.00	  604.38	-1657.13	  400.22
     73.3700	  622.00	  587.96	-1675.71	  400.34
     73.4700	  639.00	  577.14	-1647.89	  400.45
     73.5700	  616.00	  569.89	-1663.64	  400.56
     73.6700	  594.00	  564.94	-1680.69	  400.67
     73.7700	  592.00	  561.54	-1679.29	  400.79
     73.8700	  602.00	  559.28	-1667.03	  400.90
     73.9700	  610.00	  557.90	-1657.65	  401.01
     74.0700	  555.00	  557.22	-1711.97	  401.11
     74.1700	  597.00	  557.09	-1669.84	  401.22
     74.2700	  615.00	  557.33	-1652.08	  401.33
     74.3700	  614.00	  557.72	-1653.47	  401.43
     74.4700	  612.00	  558.02	-1655.77	  401.54
     74.5700	  648.00	  557.96	-1619.71	  401.64
     74.6700	  606.00	  557.36	-1661.11	  401.75
     74.7700	  613.00	  556.21	-1652.96	  401.85
     74.8700	  618.00	  554.65	-1646.40	  401.95
     74.9700	  617.00	  552.94	-1645.69	  402.05
     75.0700	  622.00	  551.38	-1639.13	  402.15
     75.1700	  619.00	  550.30	-1641.05	  402.25
     75.2700	  573.00	  549.99	-1686.74	  402.35
     75.3700	  563.00	  550.93	-1697.68	  402.44
     75.4700	  569.00	  553.51	-1694.26	  402.54
     75.5700	  566.00	  558.22	-1701.97	  402.63
     75.6700	  586.00	  565.44	-1689.19	  402.73
     75.7700	  574.00	  575.89	-1711.64	  402.82
     75.8700	  565.00	  589.68	-1734.43	  402.91
     75.9700	  628.00	  606.73	-1688.48	  403.00
     76.0700	  649.00	  626.47	-1687.22	  403.09
     76.1700	  685.00	  647.77	-1672.52	  403.18
     76.2700	  655.00	  668.85	-1723.60	  403.26
     76.3700	  689.00	  687.38	-1708.13	  403.35
     76.4700	  661.00	  700.67	-1749.43	  403.43
     76.5700	  723.00	  706.33	-1693.08	  403.52
     76.6700	  665.00	  703.16	-1747.91	  403.60
     76.7700	  674.00	  691.79	-1727.54	  403.68
     76.8700	  695.00	  674.36	-1689.11	  403.76
     76.9700	  678.00	  653.53	-1685.28	  403.84
     77.0700	  634.00	  631.59	-1707.34	  403.92
     77.1700	  589.00	  610.88	-1731.63	  404.00
     77.2700	  598.00	  592.50	-1704.25	  404.07
     77.3700	  556.00	  577.18	-1730.93	  404.15
     77.4700	  572.00	  565.08	-1702.83	  404.22
     77.5700	  531.00	  556.00	-1734.75	  404.29
     77.6700	  567.00	  549.49	-1692.24	  404.36
     77.7700	  507.00	  545.00	-1747.75	  404.43
     77.8700	  468.00	  542.00	-1783.75	  404.50
     77.9700	  532.00	  540.04	-1717.79	  404.57
     78.0700	  534.00	  538.77	-1714.52	  404.63
     78.1700	  496.00	  537.96	-1751.71	  404.70
     78.2700	  533.00	  537.44	-1714.19	  404.76
     78.3700	  544.00	  537.12	-1702.87	  404.82
     78.4700	  515.00	  536.93	-1731.68	  404.89
     78.5700	  509.00	  536.87	-1737.62	  404.95
     78.6700	  470.00	  536.92	-1776.67	  405.00
     78.7700	  544.00	  537.09	-1702.84	  405.06
     78.8700	  524.00	  537.41	-1723.16	  405.12
     78.9700	  506.00	  537.92	-1741.67	  405.17
     79.0700	  549.00	  538.66	-1699.41	  405.23
     79.1700	  527.00	  539.68	-1722.43	  405.28
     79.2700	  526.00	  541.03	-1724.78	  405.33
     79.3700	  512.00	  542.74	-1740.49	  405.38
     79.4700	  561.00	  544.69	-1693.44	  405.43
     79.5700	  568.00	  547.26	-1689.01	  405.47
     79.6700	  489.00	  550.30	-1771.05	  405.52
     79.7700	  536.00	  553.86	-1727.61	  405.56
     79.8700	  515.00	  558.00	-1752.75	  405.61
     79.9700	  520.00	  562.84	-1752.59	  405.65
     80.0700	  559.00	  568.54	-1719.29	  405.69
     80.1700	  599.00	  575.40	-1686.15	  405.73
     80.2700	  534.00	  583.77	-1759.52	  405.76
     80.3700	  542.00	  594.03	-1761.78	  405.80
     80.4700	  587.00	  606.42	-1729.17	  405.83
     80.5700	  595.00	  620.97	-1735.72	  405.87
     80.6700	  596.00	  637.42	-1751.17	  405.90
     80.7700	  655.00	  655.15	-1709.90	  405.93
     80.8700	  656.00	  673.21	-1726.96	  405.96
     80.9700	  688.00	  690.42	-1712.17	  405.99
     81.0700	  713.00	  705.55	-1702.30	  406.01
     81.1700	  718.00	  717.50	-1709.25	  406.04
     81.2700	  742.00	  725.38	-1693.13	  406.06
     81.3700	  708.00	  728.58	-1730.33	  406.08
     81.4700	  778.00	  726.88	-1658.63	  406.10
     81.5700	  780.00	  720.47	-1650.22	  406.12
     81.6700	  727.00	  709.85	-1692.60	  406.14
     81.7700	  740.00	  695.75	-1665.50	  406.16
     81.8700	  728.00	  679.17	-1660.92	  406.17
     81.9700	  746.00	  661.32	-1625.07	  406.18
     82.0700	  637.00	  643.39	-1716.14	  406.20
     82.1700	  629.00	  626.34	-1707.09	  406.21
     82.2700	  652.00	  610.78	-1668.53	  406.21
     82.3700	  663.00	  597.04	-1643.79	  406.22
     82.4700	  629.00	  585.37	-1666.12	  406.23
     82.5700	  575.00	  575.78	-1710.53	  406.23
     82.6700	  553.00	  568.23	-1724.98	  406.23
     82.7700	  565.00	  562.65	-1707.40	  406.24
     82.8700	  528.00	  558.91	-1740.66	  406.24
     82.9700	  575.00	  556.93	-1691.68	  406.23
     83.0700	  502.00	  556.57	-1764.32	  406.23
     83.1700	  550.00	  557.74	-1717.49	  406.23
     83.2700	  549.00	  560.28	-1721.03	  406.22
     83.3700	  542.00	  564.00	-1731.75	  406.21
     83.4700	  592.00	  568.64	-1686.39	  406.20
     83.5700	  568.00	  573.84	-1715.59	  406.19
     83.6700	  539.00	  579.16	-1749.91	  406.18
     83.7700	  551.00	  584.05	-1742.80	  406.17
     83.8700	  575.00	  587.91	-1722.66	  406.15
     83.9700	  584.00	  590.17	-1715.92	  406.13
     84.0700	  576.00	  590.42	-1724.17	  406.12
     84.1700	  570.00	  588.57	-1728.32	  406.10
     84.2700	  564.00	  584.88	-1730.63	  406.07
     84.3700	  569.00	  579.83	-1720.58	  406.05
     84.4700	  550.00	  573.99	-1733.74	  406.03
     84.5700	  533.00	  567.88	-1744.63	  406.00
     84.6700	  562.00	  561.95	-1709.70	  405.97
     84.7700	  593.00	  556.50	-1673.25	  405.94
     84.8700	  530.00	  551.74	-1731.49	  405.91
     84.9700	  559.00	  547.77	-1698.52	  405.88
     85.0700	  518.00	  544.60	-1736.35	  405.84
     85.1700	  575.00	  542.18	-1676.93	  405.81
     85.2700	  581.00	  540.41	-1669.16	  405.77
     85.3700	  557.00	  539.20	-1691.95	  405.73
     85.4700	  537.00	  538.44	-1711.19	  405.69
     85.5700	  574.00	  538.05	-1673.80	  405.65
     85.6700	  511.00	  537.99	-1736.74	  405.61
     85.7700	  532.00	  538.26	-1716.01	  405.56
     85.8700	  520.00	  538.87	-1728.62	  405.52
     85.9700	  496.00	  539.91	-1753.66	  405.47
     86.0700	  518.00	  541.49	-1733.24	  405.42
     86.1700	  517.00	  543.76	-1736.51	  405.37
     86.2700	  595.00	  546.91	-1661.66	  405.31
     86.3700	  565.00	  551.10	-1695.85	  405.26
     86.4700	  547.00	  556.52	-1719.27	  405.20
     86.5700	  552.00	  563.26	-1721.01	  405.14
     86.6700	  556.00	  571.34	-1725.09	  405.08
     86.7700	  564.00	  580.65	-1726.40	  405.02
     86.8700	  594.00	  590.89	-1706.64	  404.96
     86.9700	  644.00	  601.62	-1667.37	  404.90
     87.0700	  590.00	  611.89	-1731.64	  404.83
     87.1700	  632.00	  621.55	-1699.30	  404.76
     87.2700	  599.00	  629.40	-1740.15	  404.69
     87.3700	  621.00	  634.58	-1723.33	  404.62
     87.4700	  631.00	  636.44	-1715.19	  404.55
     87.5700	  682.00	  634.77	-1662.52	  404.48
     87.6700	  633.00	  629.91	-1706.66	  404.40
     87.7700	  653.00	  622.55	-1679.30	  404.33
     87.8700	  637.00	  613.63	-1686.38	  404.25
     87.9700	  660.00	  604.09	-1653.84	  404.17
     88.0700	  592.00	  594.80	-1712.55	  404.08
     88.1700	  600.00	  586.47	-1696.22	  404.00
     88.2700	  604.00	  579.65	-1685.40	  403.92
     88.3700	  583.00	  574.72	-1701.47	  403.83
     88.4700	  614.00	  571.85	-1667.60	  403.74
     88.5700	  611.00	  571.05	-1669.80	  403.65
     88.6700	  596.00	  572.17	-1685.92	  403.56
     88.7700	  577.00	  574.93	-1707.68	  403.47
     88.8700	  550.00	  578.92	-1738.67	  403.37
     88.9700	  581.00	  583.66	-1712.41	  403.28
     89.0700	  587.00	  588.58	-1711.33	  403.18
     89.1700	  605.00	  593.09	-1697.84	  403.08
     89.2700	  614.00	  596.58	-1692.33	  402.98
     89.3700	  609.00	  598.52	-1699.27	  402.88
     89.4700	  577.00	  598.57	-1731.32	  402.77
     89.5700	  603.00	  596.65	-1703.40	  402.67
     89.6700	  572.00	  592.98	-1730.73	  402.56
     89.7700	  569.00	  587.95	-1728.70	  402.45
     89.8700	  583.00	  582.07	-1708.82	  402.34
     89.9700	  573.00	  575.80	-1712.55	  402.23
     90.0700	  576.00	  569.56	-1703.31	  402.12
     90.1700	  559.00	  563.67	-1714.42	  402.00
     90.2700	  501.00	  558.36	-1767.11	  401.89
     90.3700	  559.00	  553.78	-1704.53	  401.77
     90.4700	  514.00	  550.00	-1745.75	  401.65
     90.5700	  533.00	  547.00	-1723.75	  401.53
     90.6700	  564.00	  544.74	-1690.49	  401.41
     90.7700	  513.00	  543.13	-1739.88	  401.28
     90.8700	  574.00	  542.09	-1677.84	  401.16
     90.9700	  503.00	  541.54	-1748.29	  401.03
     91.0700	  527.00	  541.42	-1724.17	  400.90
     91.1700	  504.00	  541.69	-1747.44	  400.77
     91.2700	  525.00	  542.36	-1727.11	  400.64
     91.3700	  528.00	  543.47	-1725.22	  400.51
     91.4700	  560.00	  545.10	-1694.85	  400.37
     91.5700	  531.00	  547.37	-1726.12	  400.24
     91.6700	  537.00	  550.44	-1723.19	  400.10
     91.7700	  579.00	  554.49	-1685.24	  399.96
     91.8700	  515.00	  559.72	-1754.47	  399.82
     91.9700	  541.00	  566.34	-1735.09	  399.68
     92.0700	  537.00	  574.52	-1747.27	  399.53
     92.1700	  561.00	  584.40	-1733.15	  399.39
     92.2700	  537.00	  595.83	-1768.58	  399.24
     92.3700	  617.00	  609.22	-1701.97	  399.09
     92.4700	  626.00	  624.20	-1707.95	  398.94
     92.5700	  652.00	  640.51	-1698.26	  398.79
     92.6700	  648.00	  657.72	-1719.47	  398.64
     92.7700	  663.00	  675.30	-1722.05	  398.49
     92.8700	  698.00	  692.61	-1704.36	  398.33
     92.9700	  747.00	  708.95	-1671.70	  398.18
     93.0700	  744.00	  723.72	-1689.47	  398.02
     93.1700	  781.00	  736.60	-1665.35	  397.86
     93.2700	  733.00	  747.56	-1724.31	  397.70
     93.3700	  753.00	  756.93	-1713.68	  397.54
     93.4700	  772.00	  765.18	-1702.93	  397.37
     93.5700	  776.00	  772.83	-1706.58	  397.21
     93.6700	  840.00	  780.33	-1650.08	  397.04
     93.7700	  859.00	  788.11	-1638.86	  396.88
     93.8700	  804.00	  796.59	-1702.34	  396.71
     93.9700	  865.00	  806.24	-1650.99	  396.54
     94.0700	  861.00	  817.51	-1666.26	  396.37
     94.1700	  847.00	  830.63	-1693.38	  396.19
     94.2700	  862.00	  845.50	-1693.25	  396.02
     94.3700	  856.00	  861.58	-1715.33	  395.84
     94.4700	  871.00	  877.87	-1716.62	  395.67
     94.5700	  880.00	  892.95	-1722.70	  395.49
     94.6700	  906.00	  905.13	-1708.88	  395.31
     94.7700	  904.00	  912.57	-1718.32	  395.13
     94.8700	  928.00	  913.74	-1695.49	  394.95
     94.9700	  876.00	  907.73	-1741.48	  394.76
     95.0700	  885.00	  894.58	-1719.33	  394.58
     95.1700	  901.00	  875.21	-1683.96	  394.39
     95.2700	  851.00	  851.22	-1709.97	  394.21
     95.3700	  833.00	  824.54	-1701.29	  394.02
     95.4700	  830.00	  797.16	-1676.91	  393.83
     95.5700	  789.00	  770.99	-1691.74	  393.64
     95.6700	  790.00	  747.81	-1667.56	  393.45
     95.7700	  676.00	  729.22	-1762.97	  393.26
     95.8700	  698.00	  716.67	-1728.42	  393.06
     95.9700	  681.00	  711.43	-1740.18	  392.87
     96.0700	  688.00	  714.59	-1736.34	  392.67
     96.1700	  657.00	  727.05	-1779.80	  392.47
     96.2700	  750.00	  749.50	-1709.25	  392.27
     96.3700	  830.00	  782.37	-1662.12	  392.07
     96.4700	  875.00	  825.69	-1660.44	  391.87
     96.5700	  867.00	  879.11	-1721.86	  391.67
     96.6700	  933.00	  941.69	-1718.44	  391.47
     96.7700	 1038.00	 1011.88	-1683.63	  391.27
     96.8700	 1049.00	 1087.47	-1748.22	  391.06
     96.9700	 1136.00	 1165.51	-1739.26	  390.85
     97.0700	 1216.00	 1242.43	-1736.18	  390.65
     97.1700	 1347.00	 1314.05	-1676.80	  390.44
     97.2700	 1378.00	 1375.81	-1707.56	  390.23
     97.3700	 1372.00	 1423.23	-1760.98	  390.02
     97.4700	 1478.00	 1452.44	-1684.19	  389.81
     97.5700	 1451.00	 1461.01	-1719.76	  389.60
     97.6700	 1394.00	 1448.53	-1764.28	  389.38
     97.7700	 1416.00	 1416.61	-1710.36	  389.17
     97.8700	 1343.00	 1368.50	-1735.25	  388.96
     97.9700	 1290.00	 1308.35	-1728.10	  388.74
     98.0700	 1277.00	 1240.52	-1673.27	  388.52
     98.1700	 1091.00	 1169.30	-1788.05	  388.31
     98.2700	 1048.00	 1098.57	-1760.32	  388.09
     98.3700	 1066.00	 1031.64	-1675.39	  387.87
     98.4700	  935.00	  971.41	-1746.16	  387.65
     98.5700	  926.00	  920.10	-1703.85	  387.43
     98.6700	  919.00	  879.51	-1670.26	  387.20
     98.7700	  849.00	  850.96	-1711.71	  386.98
     98.8700	  790.00	  835.40	-1755.15	  386.76
     98.9700	  790.00	  833.51	-1753.26	  386.53
     99.0700	  783.00	  845.67	-1772.42	  386.31
     99.1700	  875.00	  872.10	-1706.85	  386.08
     99.2700	  873.00	  912.80	-1749.55	  385.86
     99.3700	 1009.00	  967.55	-1668.30	  385.63
     99.4700	  989.00	 1035.80	-1756.55	  385.40
     99.5700	 1127.00	 1116.61	-1699.36	  385.18
     99.6700	 1234.00	 1208.56	-1684.31	  384.95
     99.7700	 1348.00	 1309.64	-1671.39	  384.72
     99.8700	 1335.00	 1417.19	-1791.94	  384.49
     99.9700	 1604.00	 1527.82	-1633.57	  384.26
    100.0700	 1638.00	 1637.46	-1709.21	  384.02
    100.1700	 1667.00	 1741.65	-1784.40	  383.79
    100.2700	 1832.00	 1835.87	-1713.62	  383.56
    100.3700	 1913.00	 1916.06	-1712.81	  383.33
    100.4700	 2020.00	 1978.98	-1668.73	  383.09
    100.5700	 1985.00	 2022.38	-1747.13	  382.86
    100.6700	 2088.00	 2044.85	-1666.60	  382.62
    100.7700	 2084.00	 2045.65	-1671.40	  382.39
    100.8700	 2004.00	 2024.70	-1730.45	  382.15
    100.9700	 1972.00	 1982.86	-1720.61	  381.92
    101.0700	 1960.00	 1922.28	-1672.03	  381.68
    101.1700	 1898.00	 1846.52	-1658.27	  381.44
    101.2700	 1788.00	 1760.16	-1681.91	  381.20
    101.3700	 1646.00	 1668.29	-1732.04	  380.97
    101.4700	 1563.00	 1575.87	-1722.62	  380.73
    101.5700	 1512.00	 1487.26	-1685.01	  380.49
    101.6700	 1457.00	 1405.92	-1658.67	  380.25
    101.7700	 1350.00	 1334.24	-1693.99	  380.01
    101.8700	 1274.00	 1273.56	-1709.31	  379.77
    101.9700	 1263.00	 1224.21	-1670.96	  379.53
    102.0700	 1133.00	 1185.56	-1762.31	  379.30
    102.1700	 1146.00	 1156.14	-1719.89	  379.06
    102.2700	 1174.00	 1133.80	-1669.55	  378.82
    102.3700	 1142.00	 1115.97	-1683.72	  378.57
    102.4700	 1107.00	 1099.88	-1702.63	  378.33
    102.5700	 1039.00	 1082.96	-1753.71	  378.09
    102.6700	 1070.00	 1063.12	-1702.87	  377.85
    102.7700	 1046.00	 1039.05	-1702.80	  377.61
    102.8700	 1016.00	 1010.29	-1704.04	  377.37
    102.9700	  954.00	  977.17	-1732.92	  377.13
    103.0700	  926.00	  940.54	-1724.29	  376.89
    103.1700	  878.00	  901.57	-1733.32	  376.65
    103.2700	  879.00	  861.52	-1692.27	  376.41
    103.3700	  789.00	  821.58	-1742.33	  376.17
    103.4700	  803.00	  782.88	-1689.63	  375.93
    103.5700	  755.00	  746.33	-1701.08	  375.69
    103.6700	  707.00	  712.66	-1715.41	  375.45
    103.7700	  652.00	  682.37	-1740.12	  375.21
    103.8700	  682.00	  655.72	-1683.47	  374.97
    103.9700	  654.00	  632.81	-1688.56	  374.73
    104.0700	  612.00	  613.53	-1711.28	  374.49
    104.1700	  652.00	  597.67	-1655.42	  374.25
    104.2700	  560.00	  584.92	-1734.67	  374.01
    104.3700	  571.00	  574.90	-1713.65	  373.77
    104.4700	  545.00	  567.23	-1731.98	  373.53
    104.5700	  571.00	  561.54	-1700.29	  373.29
    104.6700	  572.00	  557.48	-1695.23	  373.05
    104.7700	  558.00	  554.75	-1706.50	  372.82
    104.8700	  583.00	  553.09	-1679.84	  372.58
    104.9700	  539.00	  552.28	-1723.03	  372.34
    105.0700	  535.00	  552.18	-1726.93	  372.11
    105.1700	  557.00	  552.66	-1705.41	  371.87
    105.2700	  533.00	  553.65	-1730.40	  371.64
    105.3700	  556.00	  555.10	-1708.85	  371.40
    105.4700	  522.00	  557.02	-1744.77	  371.17
    105.5700	  533.00	  559.47	-1736.22	  370.93
    105.6700	  568.00	  562.51	-1704.26	  370.70
    105.7700	  551.00	  566.21	-1724.96	  370.47
    105.8700	  569.00	  570.67	-1711.42	  370.24
    105.9700	  549.00	  575.97	-1736.72	  370.01
    106.0700	  613.00	  582.16	-1678.91	  369.78
    106.1700	  567.00	  589.25	-1732.00	  369.55
    106.2700	  585.00	  597.21	-1721.96	  369.32
    106.3700	  604.00	  605.93	-1711.68	  369.09
    106.4700	  573.00	  615.26	-1752.01	  368.86
    106.5700	  601.00	  624.99	-1733.74	  368.64
    106.6700	  609.00	  634.86	-1735.61	  368.41
    106.7700	  631.00	  644.55	-1723.30	  368.19
    106.8700	  706.00	  653.73	-1657.48	  367.96
    106.9700	  655.00	  662.04	-1716.79	  367.74
    107.0700	  667.00	  669.17	-1711.92	  367.52
    107.1700	  697.00	  674.86	-1687.61	  367.30
    107.2700	  652.00	  678.98	-1736.73	  367.08
    107.3700	  714.00	  681.55	-1677.30	  366.86
    107.4700	  675.00	  682.73	-1717.48	  366.64
    107.5700	  682.00	  682.85	-1710.60	  366.43
    107.6700	  706.00	  682.28	-1686.03	  366.21
    107.7700	  638.00	  681.42	-1753.17	  366.00
    107.8700	  710.00	  680.64	-1680.39	  365.79
    107.9700	  724.00	  680.22	-1665.97	  365.58
    108.0700	  661.00	  680.38	-1729.13	  365.37
    108.1700	  735.00	  681.20	-1655.95	  365.16
    108.2700	  679.00	  682.66	-1713.41	  364.95
    108.3700	  725.00	  684.62	-1669.37	  364.74
    108.4700	  691.00	  686.83	-1705.58	  364.54
    108.5700	  684.00	  688.98	-1714.73	  364.34
    108.6700	  697.00	  690.67	-1703.42	  364.14
    108.7700	  679.00	  691.47	-1722.22	  363.94
    108.8700	  682.00	  691.01	-1718.76	  363.74
    108.9700	  715.00	  688.96	-1683.71	  363.54
    109.0700	  707.00	  685.14	-1687.89	  363.35
    109.1700	  650.00	  679.54	-1739.29	  363.15
    109.2700	  728.00	  672.27	-1654.02	  362.96
    109.3700	  668.00	  663.58	-1705.33	  362.77
    109.4700	  638.00	  653.79	-1725.54	  362.58
    109.5700	  606.00	  643.25	-1747.00	  362.40
    109.6700	  653.00	  632.33	-1689.08	  362.21
    109.7700	  664.00	  621.36	-1667.11	  362.03
    109.8700	  617.00	  610.64	-1703.39	  361.85
    109.9700	  584.00	  600.45	-1726.20	  361.67
    110.0700	  596.00	  590.99	-1704.74	  361.49
    110.1700	  604.00	  582.42	-1688.17	  361.32
    110.2700	  569.00	  574.85	-1715.60	  361.14
    110.3700	  558.00	  568.33	-1720.08	  360.97
    110.4700	  600.00	  562.87	-1672.62	  360.81
    110.5700	  540.00	  558.45	-1728.20	  360.64
    110.6700	  533.00	  555.00	-1731.75	  360.47
    110.7700	  568.00	  552.45	-1694.20	  360.31
    110.8700	  562.00	  550.72	-1698.47	  360.15
    110.9700	  588.00	  549.71	-1671.46	  359.99
    111.0700	  552.00	  549.31	-1707.06	  359.84
    111.1700	  538.00	  549.45	-1721.20	  359.69
    111.2700	  574.00	  550.04	-1685.79	  359.54
    111.3700	  541.00	  551.01	-1719.76	  359.39
    111.4700	  532.00	  552.30	-1730.05	  359.24
    111.5700	  513.00	  553.86	-1750.61	  359.10
    111.6700	  581.00	  555.66	-1684.41	  358.96
    111.7700	  571.00	  557.65	-1696.40	  358.82
    111.8700	  570.00	  559.84	-1699.59	  358.69
    111.9700	  570.00	  562.20	-1701.95	  358.55
    112.0700	  537.00	  564.75	-1737.50	  358.42
    112.1700	  573.00	  567.49	-1704.24	  358.30
    112.2700	  594.00	  570.45	-1686.20	  358.17
    112.3700	  578.00	  573.66	-1705.41	  358.05
    112.4700	  602.00	  577.16	-1684.91	  357.93
    112.5700	  591.00	  581.00	-1699.75	  357.82
    112.6700	  580.00	  585.25	-1715.00	  357.70
    112.7700	  545.00	  590.00	-1754.75	  357.59
    112.8700	  597.00	  595.35	-1708.10	  357.49
    112.9700	  633.00	  601.45	-1678.20	  357.38
    113.0700	  644.00	  608.48	-1674.23	  357.28
    113.1700	  645.00	  616.68	-1681.43	  357.18
    113.2700	  653.00	  626.35	-1683.10	  357.09
    113.3700	  672.00	  637.89	-1675.64	  357.00
    113.4700	  684.00	  651.80	-1677.55	  356.91
    113.5700	  712.00	  668.67	-1666.42	  356.83
    113.6700	  749.00	  689.31	-1650.06	  356.75
    113.7700	  771.00	  714.65	-1653.40	  356.67
    113.8700	  765.00	  745.80	-1690.55	  356.59
    113.9700	  861.00	  784.11	-1632.86	  356.52
    114.0700	  957.00	  831.12	-1583.87	  356.46
    114.1700	  896.00	  888.59	-1702.34	  356.39
    114.2700	  994.00	  958.50	-1674.25	  356.33
    114.3700	 1142.00	 1042.99	-1610.74	  356.28
    114.4700	 1221.00	 1144.32	-1633.07	  356.22
    114.5700	 1309.00	 1264.77	-1665.52	  356.18
    114.6700	 1512.00	 1406.65	-1604.40	  356.13
    114.7700	 1702.00	 1572.10	-1579.85	  356.09
    114.8700	 1877.00	 1762.94	-1595.69	  356.05
    114.9700	 2083.00	 1980.59	-1607.34	  356.02
    115.0700	 2315.00	 2225.83	-1620.58	  355.99
    115.1700	 2539.00	 2498.77	-1669.52	  355.96
    115.2700	 2911.00	 2798.65	-1597.40	  355.94
    115.3700	 3052.00	 3123.62	-1781.37	  355.93
    115.4700	 3404.00	 3470.72	-1776.47	  355.91
    115.5700	 3873.00	 3835.77	-1672.52	  355.91
    115.6700	 4179.00	 4213.48	-1744.23	  355.90
    115.7700	 4416.00	 4597.35	-1891.10	  355.90
    115.8700	 4812.00	 4979.58	-1877.33	  355.91
    115.9700	 5110.00	 5351.37	-1951.12	  355.91
    116.0700	 5554.00	 5702.93	-1858.68	  355.93
    116.1700	 5954.00	 6023.96	-1779.71	  355.94
    116.2700	 6209.00	 6303.83	-1804.58	  355.97
    116.3700	 6395.00	 6532.18	-1846.93	  355.99
    116.4700	 6750.00	 6699.76	-1659.51	  356.03
    116.5700	 6780.00	 6799.30	-1729.05	  356.06
    116.6700	 6839.00	 6826.39	-1697.14	  356.10
    116.7700	 6700.00	 6779.96	-1789.71	  356.15
    116.8700	 6569.00	 6662.51	-1803.26	  356.20
    116.9700	 6486.00	 6479.69	-1703.44	  356.26
    117.0700	 6264.00	 6239.69	-1685.44	  356.32
    117.1700	 5943.00	 5952.22	-1718.97	  356.38
    117.2700	 5662.00	 5627.67	-1675.42	  356.45
    117.3700	 5248.00	 5276.57	-1738.32	  356.53
    117.4700	 4852.00	 4908.95	-1766.70	  356.61
    117.5700	 4710.00	 4534.09	-1533.84	  356.70
    117.6700	 4241.00	 4160.15	-1628.90	  356.79
    117.7700	 3847.00	 3794.16	-1656.91	  356.88
    117.8700	 3568.00	 3442.07	-1583.82	  356.99
    117.9700	 3266.00	 3108.55	-1552.30	  357.09
    118.0700	 2947.00	 2797.15	-1559.90	  357.21
    118.1700	 2542.00	 2510.20	-1677.95	  357.32
    118.2700	 2307.00	 2249.00	-1651.75	  357.45
    118.3700	 1950.00	 2014.06	-1773.81	  357.58
    118.4700	 1845.00	 1805.07	-1669.82	  357.71
    118.5700	 1559.00	 1621.12	-1771.87	  357.85
    118.6700	 1361.00	 1460.75	-1809.50	  358.00
    118.7700	 1215.00	 1322.17	-1816.92	  358.15
    118.8700	 1189.00	 1203.42	-1724.17	  358.31
    118.9700	 1063.00	 1102.40	-1749.15	  358.48
    119.0700	 1036.00	 1017.02	-1690.77	  358.65
    119.1700	  904.00	  945.23	-1750.98	  358.83
    119.2700	  860.00	  885.12	-1734.87	  359.01
    119.3700	  818.00	  834.94	-1726.69	  359.20
    119.4700	  721.00	  793.15	-1781.90	  359.39
    119.5700	  703.00	  758.38	-1765.13	  359.59
    119.6700	  679.00	  729.45	-1760.20	  359.80
    119.7700	  644.00	  705.35	-1771.10	  360.02
    119.8700	  669.00	  685.26	-1726.01	  360.24
    119.9700	  600.00	  668.49	-1778.24	  360.47
    120.0700	  633.00	  654.47	-1731.22	  360.70
    120.1700	  601.00	  642.73	-1751.48	  360.94
    120.2700	  598.00	  632.92	-1744.67	  361.19
    120.3700	  686.00	  624.72	-1648.47	  361.44
    120.4700	  534.00	  617.92	-1793.67	  361.70
    120.5700	  563.00	  612.32	-1759.07	  361.97
    120.6700	  577.00	  607.78	-1740.53	  362.25
    120.7700	  623.00	  604.17	-1690.92	  362.53
    120.8700	  570.00	  601.42	-1741.17	  362.82
    120.9700	  586.00	  599.45	-1723.20	  363.11
    121.0700	  596.00	  598.19	-1711.94	  363.41
    121.1700	  562.00	  597.60	-1745.35	  363.73
    121.2700	  594.00	  597.63	-1713.38	  364.04
    121.3700	  566.00	  598.23	-1741.98	  364.37
    121.4700	  649.00	  599.36	-1660.11	  364.70
    121.5700	  604.00	  600.97	-1706.72	  365.04
    121.6700	  602.00	  603.01	-1710.76	  365.39
    121.7700	  602.00	  605.41	-1713.16	  365.74
    121.8700	  599.00	  608.11	-1718.86	  366.11
    121.9700	  606.00	  611.02	-1714.77	  366.48
    122.0700	  610.00	  614.08	-1713.83	  366.85
    122.1700	  599.00	  617.17	-1727.92	  367.24
    122.2700	  606.00	  620.24	-1723.99	  367.63
    122.3700	  652.00	  623.17	-1680.92	  368.04
    122.4700	  623.00	  625.86	-1712.61	  368.45
    122.5700	  656.00	  628.22	-1681.97	  368.87
    122.6700	  627.00	  630.16	-1712.91	  369.29
    122.7700	  650.00	  631.63	-1691.38	  369.73
    122.8700	  678.00	  632.56	-1664.31	  370.17
    122.9700	  617.00	  632.91	-1725.66	  370.62
    123.0700	  642.00	  632.71	-1700.46	  371.08
    123.1700	  619.00	  631.97	-1722.72	  371.55
    123.2700	  625.00	  630.72	-1715.47	  372.03
    123.3700	  674.00	  629.01	-1664.76	  372.51
    123.4700	  644.00	  626.90	-1692.65	  373.01
    123.5700	  605.00	  624.47	-1729.22	  373.51
    123.6700	  631.00	  621.77	-1700.52	  374.02
    123.7700	  640.00	  618.88	-1688.63	  374.54
    123.8700	  610.00	  615.87	-1715.62	  375.07
    123.9700	  612.00	  612.78	-1710.53	  375.61
    124.0700	  621.00	  609.69	-1698.44	  376.16
    124.1700	  652.00	  606.64	-1664.39	  376.72
    124.2700	  634.00	  603.67	-1679.42	  377.28
    124.3700	  610.00	  600.81	-1700.56	  377.86
    124.4700	  612.00	  598.11	-1695.86	  378.44
    124.5700	  619.00	  595.57	-1686.32	  379.04
    124.6700	  608.00	  593.22	-1694.97	  379.64
    124.7700	  549.00	  591.08	-1751.83	  380.25
    124.8700	  613.00	  589.15	-1685.90	  380.88
    124.9700	  576.00	  500.14	-1633.89	  381.51
    125.0700	  577.00	  500.79	-1709.75	  382.15
    125.1700	  614.00	  501.44	-1709.75	  382.81
    125.2700	  587.00	  502.10	-1709.75	  383.47
    125.3700	  597.00	  502.78	-1709.75	  384.14
    125.4700	  580.00	  503.46	-1709.75	  384.83
    125.5700	  572.00	  504.15	-1709.75	  385.52
    125.6700	  577.00	  504.85	-1709.75	  386.22
    125.7700	  577.00	  505.57	-1709.75	  386.93
    125.8700	  566.00	  506.29	-1709.75	  387.66
    125.9700	  622.00	  507.03	-1709.75	  388.39
    126.0700	  556.00	  507.77	-1709.75	  389.14
    126.1700	  595.00	  508.53	-1709.75	  389.89
    126.2700	  606.00	  509.29	-1709.75	  390.66
    126.3700	  573.00	  510.07	-1709.75	  391.44
    126.4700	  608.00	  510.86	-1709.75	  392.23
    126.5700	  623.00	  511.66	-1709.75	  393.02
    126.6700	  579.00	  512.47	-1709.75	  393.83
    126.7700	  617.00	  513.29	-1709.75	  394.65
    126.8700	  628.00	  514.12	-1709.75	  395.49
    126.9700	  586.00	  514.96	-1709.75	  396.33
    127.0700	  678.00	  515.82	-1709.75	  397.18
    127.1700	  636.00	  516.68	-1709.75	  398.05
    127.2700	  649.00	  517.56	-1709.75	  398.93
    127.3700	  629.00	  518.45	-1709.75	  399.82
    127.4700	  673.00	  519.35	-1709.75	  400.72
    127.5700	  690.00	  520.26	-1709.75	  401.63
    127.6700	  699.00	  521.19	-1709.75	  402.55
    127.7700	  721.00	  522.12	-1709.75	  403.49
    127.8700	  707.00	  523.07	-1709.75	  404.44
    127.9700	  755.00	  524.03	-1709.75	  405.40
    128.0700	  783.00	  525.00	-1709.75	  406.37
    128.1700	  792.00	  525.98	-1709.75	  407.35
    128.2700	  757.00	  526.98	-1709.75	  408.35
    128.3700	  812.00	  527.99	-1709.75	  409.36
    128.4700	  759.00	  529.01	-1709.75	  410.38
    128.5700	    0.00	  530.04	-1709.75	  411.41
    128.6700	    0.00	  531.09	-1709.75	  412.46
     12.3045	        	        	        	        	       0	(  0  0  2)	  0  1
     24.8822	        	        	        	        	       0	(  0  0  4)	  0  1
     28.3339	        	        	        	        	       0	(  1  0  0)	  0  1
     29.0306	        	        	        	        	       0	(  1  0  1)	  0  1
     31.0352	        	        	        	        	       0	(  1  0  2)	  0  1
     34.1412	        	        	        	        	       0	(  1  0  3)	  0  1
     37.7753	        	        	        	        	       0	(  0  0  6)	  0  1
     38.1155	        	        	        	        	       0	(  1  0  4)	  0  1
     42.7625	        	        	        	        	       0	(  1  0  5)	  0  1
     47.9431	        	        	        	        	       0	(  1  0  6)	  0  1
     50.2701	        	        	        	        	       0	(  1  1  0)	  0  1
     51.1899	        	        	        	        	       0	(  0  0  8)	  0  1
     51.9916	        	        	        	        	       0	(  1  1  2)	  0  1
     53.5699	        	        	        	        	       0	(  1  0  7)	  0  1
     56.9355	        	        	        	        	       0	(  1  1  4)	  0  1
     58.7667	        	        	        	        	       0	(  2  0  0)	  0  1
     59.1579	        	        	        	        	       0	(  2  0  1)	  0  1
     59.5963	        	        	        	        	       0	(  1  0  8)	  0  1
     60.3223	        	        	        	        	       0	(  2  0  2)	  0  1
     62.2340	        	        	        	        	       0	(  2  0  3)	  0  1
     64.6242	        	        	        	        	       0	(  1  1  6)	  0  1
     64.8559	        	        	        	        	       0	(  2  0  4)	  0  1
     65.4105	        	        	        	        	       0	(  0  0 10)	  0  1
     66.0083	        	        	        	        	       0	(  1  0  9)	  0  1
     68.1474	        	        	        	        	       0	(  2  0  5)	  0  1
     72.0717	        	        	        	        	       0	(  2  0  6)	  0  1
     72.8195	        	        	        	        	       0	(  1  0 10)	  0  1
     74.6540	        	        	        	        	       0	(  1  1  8)	  0  1
     76.6022	        	        	        	        	       0	(  2  0  7)	  0  1
     80.0716	        	        	        	        	       0	(  1  0 11)	  0  1
     80.8797	        	        	        	        	       0	(  0  0 12)	  0  1
     81.0068	        	        	        	        	       0	(  2  1  0)	  0  1
     81.3464	        	        	        	        	       0	(  2  1  1)	  0  1
     81.7282	        	        	        	        	       0	(  2  0  8)	  0  1
     82.3634	        	        	        	        	       0	(  2  1  2)	  0  1
     84.0532	        	        	        	        	       0	(  2  1  3)	  0  1
     86.4108	        	        	        	        	       0	(  2  1  4)	  0  1
     86.9152	        	        	        	        	       0	(  1  1 10)	  0  1
     87.4612	        	        	        	        	       0	(  2  0  9)	  0  1
     87.8393	        	        	        	        	       0	(  1  0 12)	  0  1
     89.4339	        	        	        	        	       0	(  2  1  5)	  0  1
     93.1280	        	        	        	        	       0	(  2  1  6)	  0  1
     93.8428	        	        	        	        	       0	(  2  0 10)	  0  1
     94.8948	        	        	        	        	       0	(  3  0  0)	  0  1
     95.2319	        	        	        	        	       0	(  3  0  1)	  0  1
     96.2442	        	        	        	        	       0	(  3  0  2)	  0  1
     96.2445	        	        	        	        	       0	(  1  0 13)	  0  1
     97.5125	        	        	        	        	       0	(  2  1  7)	  0  1
     97.9360	        	        	        	        	       0	(  3  0  3)	  0  1
     98.4027	        	        	        	        	       0	(  0  0 14)	  0  1
    100.3168	        	        	        	        	       0	(  3  0  4)	  0  1
    100.9576	        	        	        	        	       0	(  2  0 11)	  0  1
    101.7712	        	        	        	        	       0	(  1  1 12)	  0  1
    102.6300	        	        	        	        	       0	(  2  1  8)	  0  1
    103.4055	        	        	        	        	       0	(  3  0  5)	  0  1
    105.4868	        	        	        	        	       0	(  1  0 14)	  0  1
    107.2369	        	        	        	        	       0	(  3  0  6)	  0  1
    108.5607	        	        	        	        	       0	(  2  1  9)	  0  1
    108.9599	        	        	        	        	       0	(  2  0 12)	  0  1
    111.8725	        	        	        	        	       0	(  3  0  7)	  0  1
    115.4497	        	        	        	        	       0	(  2  1 10)	  0  1
    115.9160	        	        	        	        	       0	(  1  0 15)	  0  1
    116.6181	        	        	        	        	       0	(  2  2  0)	  0  1
    117.4198	        	        	        	        	       0	(  3  0  8)	  0  1
    118.1319	        	        	        	        	       0	(  2  2  2)	  0  1
    118.1322	        	        	        	        	       0	(  2  0 13)	  0  1
    119.8615	        	        	        	        	       0	(  0  0 16)	  0  1
    120.5907	        	        	        	        	       0	(  1  1 14)	  0  1
    122.8127	        	        	        	        	       0	(  2  2  4)	  0  1
    123.5661	        	        	        	        	       0	(  2  1 11)	  0  1
    124.0717	        	        	        	        	       0	(  3  0  9)	  0  1
    124.6825	        	        	        	        	       0	(  3  1  0)	  0  1
    125.0923	        	        	        	        	       0	(  3  1  1)	  0  1
    126.3345	        	        	        	        	       0	(  3  1  2)	  0  1
    128.2368	        	        	        	        	       0	(  1  0 16)	  0  1
    128.4506	        	        	        	        	       0	(  3  1  3)	  0  1
    129.0439	        	        	        	        	       0	(  2  0 14)	  0  1
    131.2432	        	        	        	        	       0	(  2  2  6)	  0  1
    131.5233	        	        	        	        	       0	(  3  1  4)	  0  1
    132.2009	        	        	        	        	       0	(  3  0 10)	  0  1
    133.4622	        	        	        	        	       0	(  2  1 12)	  0  1
    135.7055	        	        	        	        	       0	(  3  1  5)	  0  1
    141.2936	        	        	        	        	       0	(  3  1  6)	  0  1
    142.6600	        	        	        	        	       0	(  3  0 11)	  0  1
    143.1487	        	        	        	        	       0	(  2  0 15)	  0  1
    144.3589	        	        	        	        	       0	(  1  0 17)	  0  1
    145.4563	        	        	        	        	       0	(  2  2  8)	  0  1
    146.5864	        	        	        	        	       0	(  2  1 13)	  0  1
    148.9546	        	        	        	        	       0	(  3  1  7)	  0  1
    149.4488	        	        	        	        	       0	(  1  1 16)	  0  1
    153.7930	        	        	        	        	       0	(  0  0 18)	  0  1
    158.4839	        	        	        	        	       0	(  3  0 12)	  0  1
    158.8310	        	        	        	        	       0	(  4  0  0)	  0  1
    159.7865	        	        	        	        	       0	(  4  0  1)	  0  1
    160.9167	        	        	        	        	       0	(  3  1  8)	  0  1
    162.9600	        	        	        	        	       0	(  4  0  2)	  0  1
    169.3284	        	        	        	        	       0	(  2  0 16)	  0  1
    170.2858	        	        	        	        	       0	(  4  0  3)	  0  1
    173.6415	        	        	        	        	       0	(  2  1 14)	  0  1
