MSG Master    CELL:    5.90765   5.90765  23.21975   90.0000   90.0000  120.0000   SPGR: P 63/m m c             TEMP:    879.85
  1   1280     2.52000     0.00000    -0.12026     0.00000     0.00000    0
    98     0     2
       0.00000      10.00000
     125.00000     130.00000
 2Theta	Yobs	Ycal	Yobs-Ycal	Backg	Posr	(hkl)	K
      0.7700	    0.00	  450.36	-1744.25	  339.78
      0.8700	    0.00	  452.19	-1744.25	  341.61
      0.9700	   37.00	  453.99	-1744.25	  343.41
      1.0700	   45.00	  455.78	-1744.25	  345.20
      1.1700	   35.00	  457.54	-1744.25	  346.96
      1.2700	   42.00	  459.29	-1744.25	  348.71
      1.3700	   59.00	  461.02	-1744.25	  350.43
      1.4700	   77.00	  462.72	-1744.25	  352.14
      1.5700	  290.00	  464.41	-1744.25	  353.83
      1.6700	  458.00	  466.08	-1744.25	  355.50
      1.7700	  589.00	  467.73	-1744.25	  357.15
      1.8700	  652.00	  469.37	-1744.25	  358.79
      1.9700	  718.00	  470.98	-1744.25	  360.40
      2.0700	  772.00	  472.58	-1744.25	  362.00
      2.1700	  836.00	  474.15	-1744.25	  363.57
      2.2700	  758.00	  475.71	-1744.25	  365.13
      2.3700	  734.00	  477.25	-1744.25	  366.67
      2.4700	  709.00	  478.78	-1744.25	  368.20
      2.5700	  712.00	  480.28	-1744.25	  369.70
      2.6700	  651.00	  481.77	-1744.25	  371.19
      2.7700	  679.00	  483.24	-1744.25	  372.66
      2.8700	  611.00	  484.69	-1744.25	  374.11
      2.9700	  594.00	  486.13	-1744.25	  375.55
      3.0700	  561.00	  487.54	-1744.25	  376.96
      3.1700	  585.00	  488.95	-1744.25	  378.36
      3.2700	  623.00	  490.33	-1744.25	  379.75
      3.3700	  764.00	  491.69	-1744.25	  381.11
      3.4700	  864.00	  493.04	-1744.25	  382.46
      3.5700	  952.00	  494.38	-1744.25	  383.80
      3.6700	 1053.00	  495.69	-1744.25	  385.11
      3.7700	 1104.00	  496.99	-1744.25	  386.41
      3.8700	 1117.00	  498.28	-1744.25	  387.69
      3.9700	 1166.00	  499.54	-1744.25	  388.96
      4.0700	 1243.00	  500.79	-1744.25	  390.21
      4.1700	 1251.00	  502.03	-1744.25	  391.45
      4.2700	 1283.00	  503.24	-1744.25	  392.66
      4.3700	 1316.00	  504.45	-1744.25	  393.87
      4.4700	 1201.00	  505.63	-1744.25	  395.05
      4.5700	 1197.00	  506.80	-1744.25	  396.22
      4.6700	 1077.00	  507.96	-1744.25	  397.38
      4.7700	 1123.00	  509.10	-1744.25	  398.52
      4.8700	 1038.00	  510.22	-1744.25	  399.64
      4.9700	 1055.00	  511.33	-1744.25	  400.75
      5.0700	 1000.00	  512.43	-1744.25	  401.85
      5.1700	 1064.00	  513.51	-1744.25	  402.92
      5.2700	  980.00	  514.57	-1744.25	  403.99
      5.3700	  974.00	  515.62	-1744.25	  405.04
      5.4700	 1005.00	  516.65	-1744.25	  406.07
      5.5700	  939.00	  517.67	-1744.25	  407.09
      5.6700	  928.00	  518.68	-1744.25	  408.09
      5.7700	  931.00	  519.67	-1744.25	  409.09
      5.8700	  958.00	  520.64	-1744.25	  410.06
      5.9700	  874.00	  521.60	-1744.25	  411.02
      6.0700	  835.00	  522.55	-1744.25	  411.97
      6.1700	  826.00	  523.48	-1744.25	  412.90
      6.2700	  790.00	  524.40	-1744.25	  413.82
      6.3700	  760.00	  525.31	-1744.25	  414.73
      6.4700	  784.00	  526.20	-1744.25	  415.62
      6.5700	  725.00	  527.08	-1744.25	  416.50
      6.6700	  772.00	  527.94	-1744.25	  417.36
      6.7700	  726.00	  528.79	-1744.25	  418.21
      6.8700	  736.00	  529.63	-1744.25	  419.05
      6.9700	  738.00	  530.46	-1744.25	  419.88
      7.0700	  753.00	  531.27	-1744.25	  420.69
      7.1700	  738.00	  532.06	-1744.25	  421.48
      7.2700	  683.00	  532.85	-1744.25	  422.27
      7.3700	  718.00	  533.62	-1744.25	  423.04
      7.4700	  678.00	  534.38	-1744.25	  423.80
      7.5700	  689.00	  535.13	-1744.25	  424.55
      7.6700	  647.00	  535.86	-1744.25	  425.28
      7.7700	  691.00	  536.58	-1744.25	  426.00
      7.8700	  625.00	  537.29	-1744.25	  426.71
      7.9700	  589.00	  537.99	-1744.25	  427.40
      8.0700	  661.00	  538.67	-1744.25	  428.09
      8.1700	  641.00	  539.34	-1744.25	  428.76
      8.2700	  627.00	  540.00	-1744.25	  429.42
      8.3700	  700.00	  540.65	-1744.25	  430.07
      8.4700	  607.00	  541.28	-1744.25	  430.70
      8.5700	  613.00	  541.91	-1744.25	  431.33
      8.6700	  652.00	  542.52	-1744.25	  431.94
      8.7700	  623.00	  543.12	-1744.25	  432.54
      8.8700	  611.00	  543.71	-1744.25	  433.13
      8.9700	  603.00	  544.29	-1744.25	  433.71
      9.0700	  615.00	  544.85	-1744.25	  434.27
      9.1700	  631.00	  545.41	-1744.25	  434.83
      9.2700	  605.00	  545.95	-1744.25	  435.37
      9.3700	  584.00	  546.48	-1744.25	  435.90
      9.4700	  603.00	  547.00	-1744.25	  436.42
      9.5700	  612.00	  547.51	-1744.25	  436.93
      9.6700	  629.00	  548.01	-1744.25	  437.43
      9.7700	  604.00	  548.50	-1744.25	  437.92
      9.8700	  595.00	  548.98	-1744.25	  438.40
      9.9700	  635.00	  549.45	-1744.25	  438.87
     10.0700	  654.00	  551.64	-1641.89	  439.32
     10.1700	  570.00	  552.26	-1726.51	  439.77
     10.2700	  561.00	  552.91	-1736.16	  440.21
     10.3700	  592.00	  553.61	-1705.86	  440.63
     10.4700	  603.00	  554.39	-1695.64	  441.05
     10.5700	  595.00	  555.30	-1704.55	  441.45
     10.6700	  579.00	  556.42	-1721.67	  441.85
     10.7700	  575.00	  557.84	-1727.09	  442.23
     10.8700	  577.00	  559.63	-1726.88	  442.61
     10.9700	  574.00	  561.83	-1732.08	  442.97
     11.0700	  581.00	  564.45	-1727.70	  443.33
     11.1700	  564.00	  567.48	-1747.73	  443.68
     11.2700	  576.00	  570.96	-1739.21	  444.01
     11.3700	  532.00	  574.97	-1787.22	  444.34
     11.4700	  585.00	  579.63	-1738.88	  444.66
     11.5700	  626.00	  585.13	-1703.38	  444.97
     11.6700	  576.00	  591.79	-1760.04	  445.27
     11.7700	  585.00	  600.00	-1759.25	  445.56
     11.8700	  615.00	  610.11	-1739.36	  445.84
     11.9700	  669.00	  621.94	-1697.19	  446.11
     12.0700	  648.00	  634.07	-1730.32	  446.37
     12.1700	  673.00	  643.05	-1714.30	  446.63
     12.2700	  687.00	  643.44	-1700.69	  446.87
     12.3700	  636.00	  631.67	-1739.92	  447.11
     12.4700	  605.00	  612.66	-1751.91	  447.34
     12.5700	  616.00	  594.83	-1723.08	  447.56
     12.6700	  588.00	  581.93	-1738.18	  447.77
     12.7700	  554.00	  573.88	-1764.13	  447.97
     12.8700	  565.00	  569.30	-1748.55	  448.17
     12.9700	  532.00	  566.75	-1779.00	  448.35
     13.0700	  555.00	  565.27	-1754.52	  448.53
     13.1700	  536.00	  564.33	-1772.58	  448.70
     13.2700	  562.00	  563.69	-1745.94	  448.86
     13.3700	  520.00	  563.23	-1787.48	  449.02
     13.4700	  526.00	  562.90	-1781.15	  449.16
     13.5700	  598.00	  562.66	-1708.91	  449.30
     13.6700	  524.00	  562.48	-1782.73	  449.43
     13.7700	  561.00	  562.35	-1745.60	  449.56
     13.8700	  554.00	  562.25	-1752.50	  449.67
     13.9700	  580.00	  562.22	-1726.47	  449.78
     14.0700	  582.00	  562.17	-1724.42	  449.88
     14.1700	  587.00	  562.13	-1719.38	  449.97
     14.2700	  538.00	  562.11	-1768.36	  450.06
     14.3700	  512.00	  562.09	-1794.34	  450.14
     14.4700	  563.00	  562.08	-1743.33	  450.21
     14.5700	  535.00	  562.07	-1771.32	  450.27
     14.6700	  576.00	  562.06	-1730.31	  450.33
     14.7700	  545.00	  562.05	-1761.30	  450.38
     14.8700	  512.00	  562.05	-1794.30	  450.43
     14.9700	  542.00	  562.04	-1764.29	  450.46
     15.0700	  535.00	  562.03	-1771.28	  450.49
     15.1700	  573.00	  562.01	-1733.26	  450.52
     15.2700	  547.00	  562.00	-1759.25	  450.53
     15.3700	  509.00	  561.98	-1797.23	  450.54
     15.4700	  517.00	  561.95	-1789.20	  450.55
     15.5700	  519.00	  561.93	-1787.18	  450.54
     15.6700	  567.00	  561.90	-1739.15	  450.54
     15.7700	  554.00	  561.86	-1752.11	  450.52
     15.8700	  543.00	  561.82	-1763.07	  450.50
     15.9700	  553.00	  561.77	-1753.02	  450.47
     16.0700	  543.00	  561.73	-1762.98	  450.44
     16.1700	  551.00	  561.67	-1754.92	  450.40
     16.2700	  542.00	  561.61	-1763.86	  450.35
     16.3700	  584.00	  561.55	-1721.80	  450.30
     16.4700	  563.00	  561.48	-1742.73	  450.24
     16.5700	  585.00	  561.41	-1720.66	  450.18
     16.6700	  558.00	  561.33	-1747.58	  450.11
     16.7700	  573.00	  561.24	-1732.49	  450.04
     16.8700	  582.00	  561.16	-1723.41	  449.96
     16.9700	  609.00	  561.06	-1696.31	  449.87
     17.0700	  574.00	  560.97	-1731.22	  449.78
     17.1700	  541.00	  560.86	-1764.11	  449.68
     17.2700	  600.00	  560.76	-1705.01	  449.58
     17.3700	  533.00	  560.64	-1771.89	  449.47
     17.4700	  548.00	  560.53	-1756.78	  449.36
     17.5700	  519.00	  560.52	-1785.77	  449.24
     17.6700	  588.00	  560.40	-1716.65	  449.12
     17.7700	  556.00	  560.27	-1748.52	  448.99
     17.8700	  511.00	  560.14	-1793.39	  448.86
     17.9700	  568.00	  560.00	-1736.25	  448.72
     18.0700	  562.00	  559.95	-1742.20	  448.58
     18.1700	  483.00	  559.80	-1821.05	  448.43
     18.2700	  565.00	  559.65	-1738.90	  448.28
     18.3700	  545.00	  559.50	-1758.75	  448.13
     18.4700	  548.00	  559.34	-1755.59	  447.97
     18.5700	  509.00	  559.18	-1794.43	  447.80
     18.6700	  553.00	  559.02	-1750.27	  447.63
     18.7700	  493.00	  558.85	-1810.10	  447.45
     18.8700	  519.00	  558.67	-1783.92	  447.28
     18.9700	  558.00	  558.50	-1744.75	  447.09
     19.0700	  542.00	  558.31	-1760.56	  446.90
     19.1700	  577.00	  558.13	-1725.38	  446.71
     19.2700	  549.00	  557.94	-1753.19	  446.52
     19.3700	  511.00	  557.75	-1791.00	  446.32
     19.4700	  591.00	  557.55	-1710.80	  446.11
     19.5700	  574.00	  557.36	-1727.61	  445.90
     19.6700	  540.00	  557.15	-1761.40	  445.69
     19.7700	  530.00	  556.98	-1771.23	  445.47
     19.8700	  521.00	  556.78	-1780.03	  445.25
     19.9700	  521.00	  556.56	-1779.81	  445.03
     20.0700	  525.00	  556.35	-1775.60	  444.80
     20.1700	  545.00	  556.13	-1755.38	  444.57
     20.2700	  522.00	  555.91	-1778.16	  444.34
     20.3700	  558.00	  555.69	-1741.94	  444.10
     20.4700	  542.00	  555.47	-1757.72	  443.86
     20.5700	  558.00	  555.24	-1741.49	  443.61
     20.6700	  530.00	  555.01	-1769.26	  443.36
     20.7700	  534.00	  554.78	-1765.03	  443.11
     20.8700	  553.00	  554.54	-1745.79	  442.85
     20.9700	  521.00	  554.31	-1777.56	  442.60
     21.0700	  570.00	  554.07	-1728.32	  442.33
     21.1700	  512.00	  553.83	-1786.08	  442.07
     21.2700	  559.00	  553.59	-1738.84	  441.80
     21.3700	  555.00	  553.35	-1742.60	  441.53
     21.4700	  512.00	  553.11	-1785.36	  441.25
     21.5700	  543.00	  552.86	-1754.11	  440.98
     21.6700	  575.00	  552.62	-1721.87	  440.70
     21.7700	  546.00	  552.38	-1750.63	  440.41
     21.8700	  563.00	  552.13	-1733.38	  440.13
     21.9700	  519.00	  551.89	-1777.14	  439.84
     22.0700	  539.00	  551.65	-1756.90	  439.54
     22.1700	  556.00	  551.41	-1739.66	  439.25
     22.2700	  584.00	  551.17	-1711.42	  438.95
     22.3700	  507.00	  551.09	-1788.34	  438.65
     22.4700	  594.00	  550.87	-1701.12	  438.35
     22.5700	  586.00	  550.65	-1708.90	  438.05
     22.6700	  525.00	  550.44	-1769.69	  437.74
     22.7700	  559.00	  550.23	-1735.48	  437.43
     22.8700	  566.00	  550.04	-1728.29	  437.12
     22.9700	  560.00	  549.82	-1734.07	  436.80
     23.0700	  531.00	  549.66	-1762.91	  436.49
     23.1700	  574.00	  549.52	-1719.77	  436.17
     23.2700	  560.00	  549.42	-1733.67	  435.84
     23.3700	  586.00	  549.34	-1707.59	  435.52
     23.4700	  535.00	  549.32	-1758.57	  435.20
     23.5700	  528.00	  549.37	-1765.62	  434.87
     23.6700	  557.00	  549.51	-1736.76	  434.54
     23.7700	  568.00	  549.79	-1726.04	  434.21
     23.8700	  567.00	  550.31	-1727.56	  433.87
     23.9700	  550.00	  551.22	-1745.47	  433.54
     24.0700	  557.00	  552.80	-1740.05	  433.20
     24.1700	  569.00	  555.46	-1730.71	  432.86
     24.2700	  580.00	  559.76	-1724.01	  432.52
     24.3700	  592.00	  566.28	-1718.53	  432.18
     24.4700	  587.00	  575.41	-1732.66	  431.83
     24.5700	  589.00	  587.00	-1742.25	  431.49
     24.6700	  628.00	  599.78	-1716.03	  431.14
     24.7700	  659.00	  610.74	-1695.99	  430.79
     24.8700	  614.00	  614.97	-1745.22	  430.44
     24.9700	  634.00	  608.40	-1718.65	  430.09
     25.0700	  634.00	  593.61	-1703.86	  429.73
     25.1700	  578.00	  577.82	-1744.07	  429.38
     25.2700	  599.00	  565.32	-1710.57	  429.02
     25.3700	  587.00	  556.92	-1714.17	  428.66
     25.4700	  588.00	  551.80	-1708.05	  428.31
     25.5700	  584.00	  548.81	-1709.06	  427.95
     25.6700	  596.00	  547.01	-1695.26	  427.58
     25.7700	  590.00	  545.83	-1700.08	  427.22
     25.8700	  590.00	  545.00	-1699.25	  426.86
     25.9700	  548.00	  544.39	-1740.64	  426.49
     26.0700	  617.00	  543.93	-1671.18	  426.13
     26.1700	  577.00	  543.61	-1710.86	  425.76
     26.2700	  554.00	  543.40	-1733.65	  425.39
     26.3700	  569.00	  543.29	-1718.54	  425.02
     26.4700	  548.00	  543.30	-1739.55	  424.65
     26.5700	  525.00	  543.42	-1762.67	  424.28
     26.6700	  543.00	  543.68	-1744.93	  423.91
     26.7700	  593.00	  544.09	-1695.34	  423.53
     26.8700	  545.00	  544.69	-1743.94	  423.16
     26.9700	  563.00	  545.54	-1726.79	  422.79
     27.0700	  577.00	  546.69	-1713.94	  422.41
     27.1700	  593.00	  548.28	-1699.53	  422.04
     27.2700	  579.00	  550.50	-1715.75	  421.66
     27.3700	  573.00	  553.76	-1725.01	  421.28
     27.4700	  596.00	  558.82	-1707.07	  420.91
     27.5700	  571.00	  567.06	-1740.31	  420.53
     27.6700	  584.00	  580.79	-1741.04	  420.15
     27.7700	  606.00	  603.30	-1741.55	  419.77
     27.8700	  615.00	  638.15	-1767.40	  419.39
     27.9700	  635.00	  687.21	-1796.46	  419.01
     28.0700	  717.00	  747.99	-1775.24	  418.63
     28.1700	  834.00	  810.62	-1720.87	  418.25
     28.2700	  896.00	  856.30	-1704.55	  417.87
     28.3700	  958.00	  862.76	-1649.01	  417.49
     28.4700	  903.00	  828.31	-1669.56	  417.10
     28.5700	  789.00	  783.78	-1739.03	  416.72
     28.6700	  750.00	  758.36	-1752.61	  416.34
     28.7700	  734.00	  759.65	-1769.90	  415.96
     28.8700	  784.00	  778.16	-1738.41	  415.58
     28.9700	  815.00	  793.39	-1722.64	  415.19
     29.0700	  809.00	  782.18	-1717.43	  414.81
     29.1700	  742.00	  738.24	-1740.49	  414.43
     29.2700	  709.00	  680.93	-1716.18	  414.04
     29.3700	  611.00	  630.54	-1763.79	  413.66
     29.4700	  583.00	  594.37	-1755.62	  413.28
     29.5700	  600.00	  571.62	-1715.88	  412.90
     29.6700	  577.00	  558.40	-1725.65	  412.51
     29.7700	  567.00	  550.83	-1728.08	  412.13
     29.8700	  569.00	  546.29	-1721.54	  411.75
     29.9700	  600.00	  543.43	-1687.68	  411.37
     30.0700	  551.00	  541.68	-1734.93	  410.98
     30.1700	  555.00	  540.95	-1730.20	  410.60
     30.2700	  607.00	  541.46	-1678.71	  410.22
     30.3700	  554.00	  543.78	-1734.03	  409.84
     30.4700	  583.00	  548.85	-1710.10	  409.46
     30.5700	  601.00	  557.77	-1701.02	  409.08
     30.6700	  637.00	  571.20	-1678.45	  408.70
     30.7700	  567.00	  588.39	-1765.64	  408.32
     30.8700	  585.00	  606.28	-1765.53	  407.94
     30.9700	  580.00	  619.08	-1783.33	  407.56
     31.0700	  625.00	  619.64	-1738.89	  407.18
     31.1700	  657.00	  605.70	-1692.95	  406.80
     31.2700	  554.00	  584.38	-1774.63	  406.42
     31.3700	  596.00	  564.21	-1712.46	  406.05
     31.4700	  528.00	  549.02	-1765.27	  405.67
     31.5700	  570.00	  539.07	-1713.32	  405.29
     31.6700	  592.00	  533.12	-1685.37	  404.92
     31.7700	  548.00	  529.68	-1725.93	  404.54
     31.8700	  545.00	  527.63	-1726.88	  404.17
     31.9700	  587.00	  526.31	-1683.56	  403.80
     32.0700	  569.00	  525.41	-1700.66	  403.42
     32.1700	  536.00	  524.80	-1733.05	  403.05
     32.2700	  507.00	  524.42	-1761.67	  402.68
     32.3700	  575.00	  524.25	-1693.50	  402.31
     32.4700	  532.00	  524.28	-1736.53	  401.94
     32.5700	  543.00	  524.53	-1725.78	  401.57
     32.6700	  541.00	  525.03	-1728.28	  401.20
     32.7700	  548.00	  525.82	-1722.07	  400.83
     32.8700	  604.00	  526.97	-1667.22	  400.47
     32.9700	  528.00	  528.61	-1744.86	  400.10
     33.0700	  555.00	  530.94	-1720.19	  399.74
     33.1700	  552.00	  534.35	-1726.60	  399.37
     33.2700	  508.00	  539.63	-1775.88	  399.01
     33.3700	  571.00	  548.28	-1721.53	  398.65
     33.4700	  551.00	  563.03	-1756.28	  398.29
     33.5700	  596.00	  587.96	-1736.21	  397.93
     33.6700	  596.00	  628.16	-1776.41	  397.57
     33.7700	  665.00	  687.36	-1766.61	  397.21
     33.8700	  769.00	  763.86	-1739.11	  396.86
     33.9700	  884.00	  846.21	-1706.46	  396.50
     34.0700	 1025.00	  911.31	-1630.56	  396.14
     34.1700	  995.00	  929.10	-1678.35	  395.79
     34.2700	  950.00	  884.55	-1678.80	  395.44
     34.3700	  821.00	  800.17	-1723.42	  395.09
     34.4700	  705.00	  712.37	-1751.62	  394.74
     34.5700	  617.00	  641.67	-1768.92	  394.39
     34.6700	  601.00	  592.80	-1736.05	  394.04
     34.7700	  594.00	  562.43	-1712.68	  393.70
     34.8700	  549.00	  544.65	-1739.90	  393.35
     34.9700	  535.00	  534.21	-1743.46	  393.01
     35.0700	  506.00	  527.67	-1765.92	  392.66
     35.1700	  538.00	  523.15	-1729.40	  392.32
     35.2700	  468.00	  519.75	-1796.00	  391.98
     35.3700	  530.00	  517.07	-1731.32	  391.64
     35.4700	  483.00	  514.88	-1776.13	  391.31
     35.5700	  492.00	  513.05	-1765.30	  390.97
     35.6700	  476.00	  511.97	-1780.22	  390.64
     35.7700	  490.00	  510.64	-1764.89	  390.30
     35.8700	  511.00	  509.49	-1742.74	  389.97
     35.9700	  476.00	  508.43	-1776.68	  389.64
     36.0700	  524.00	  507.52	-1727.77	  389.31
     36.1700	  501.00	  506.70	-1749.95	  388.99
     36.2700	  528.00	  505.97	-1722.22	  388.66
     36.3700	  477.00	  505.30	-1772.55	  388.34
     36.4700	  504.00	  504.70	-1744.95	  388.01
     36.5700	  481.00	  504.16	-1767.41	  387.69
     36.6700	  505.00	  503.68	-1742.93	  387.37
     36.7700	  488.00	  503.26	-1759.51	  387.05
     36.8700	  522.00	  502.93	-1725.18	  386.74
     36.9700	  470.00	  502.73	-1776.98	  386.42
     37.0700	  528.00	  502.73	-1718.98	  386.11
     37.1700	  494.00	  503.06	-1753.31	  385.80
     37.2700	  481.00	  503.90	-1767.15	  385.49
     37.3700	  471.00	  505.41	-1778.66	  385.18
     37.4700	  526.00	  507.69	-1725.94	  384.87
     37.5700	  517.00	  510.53	-1737.78	  384.56
     37.6700	  491.00	  513.54	-1766.79	  384.26
     37.7700	  502.00	  515.37	-1757.62	  383.96
     37.8700	  547.00	  515.20	-1712.45	  383.66
     37.9700	  508.00	  512.89	-1749.14	  383.36
     38.0700	  531.00	  509.47	-1722.72	  383.06
     38.1700	  494.00	  505.97	-1756.22	  382.77
     38.2700	  482.00	  502.93	-1765.18	  382.47
     38.3700	  482.00	  500.54	-1762.79	  382.18
     38.4700	  461.00	  498.79	-1782.04	  381.89
     38.5700	  515.00	  497.55	-1726.80	  381.60
     38.6700	  477.00	  496.67	-1763.92	  381.32
     38.7700	  492.00	  496.01	-1748.26	  381.03
     38.8700	  481.00	  495.48	-1758.73	  380.75
     38.9700	  511.00	  495.03	-1728.28	  380.47
     39.0700	  478.00	  494.63	-1760.88	  380.19
     39.1700	  454.00	  494.27	-1784.52	  379.91
     39.2700	  490.00	  493.82	-1748.07	  379.63
     39.3700	  550.00	  493.51	-1687.76	  379.36
     39.4700	  478.00	  493.21	-1759.46	  379.09
     39.5700	  494.00	  492.93	-1743.18	  378.82
     39.6700	  523.00	  492.66	-1713.91	  378.55
     39.7700	  493.00	  492.41	-1743.66	  378.28
     39.8700	  473.00	  492.17	-1763.42	  378.02
     39.9700	  490.00	  491.94	-1746.19	  377.75
     40.0700	  485.00	  491.72	-1750.97	  377.49
     40.1700	  462.00	  491.43	-1773.68	  377.23
     40.2700	  500.00	  491.25	-1735.50	  376.98
     40.3700	  494.00	  491.58	-1741.83	  376.72
     40.4700	  436.00	  491.43	-1799.68	  376.47
     40.5700	  472.00	  491.30	-1763.55	  376.22
     40.6700	  498.00	  491.18	-1737.43	  375.97
     40.7700	  495.00	  491.09	-1740.34	  375.72
     40.8700	  481.00	  491.03	-1754.28	  375.47
     40.9700	  454.00	  491.00	-1781.25	  375.23
     41.0700	  502.00	  491.00	-1733.25	  374.99
     41.1700	  486.00	  491.05	-1749.30	  374.75
     41.2700	  513.00	  491.15	-1722.40	  374.51
     41.3700	  480.00	  491.33	-1755.58	  374.27
     41.4700	  469.00	  491.59	-1766.84	  374.04
     41.5700	  491.00	  491.97	-1745.22	  373.81
     41.6700	  482.00	  492.51	-1754.76	  373.58
     41.7700	  490.00	  493.32	-1747.57	  373.35
     41.8700	  437.00	  494.59	-1801.84	  373.12
     41.9700	  476.00	  496.72	-1764.97	  372.90
     42.0700	  467.00	  500.29	-1777.54	  372.68
     42.1700	  427.00	  506.28	-1823.53	  372.46
     42.2700	  489.00	  515.78	-1771.03	  372.24
     42.3700	  496.00	  529.79	-1778.04	  372.03
     42.4700	  528.00	  548.47	-1764.72	  371.81
     42.5700	  529.00	  570.26	-1785.51	  371.60
     42.6700	  560.00	  590.86	-1775.10	  371.39
     42.7700	  602.00	  603.59	-1745.84	  371.18
     42.8700	  567.00	  602.38	-1779.63	  370.98
     42.9700	  566.00	  587.56	-1765.81	  370.77
     43.0700	  566.00	  565.46	-1743.71	  370.57
     43.1700	  512.00	  543.35	-1775.60	  370.37
     43.2700	  502.00	  525.06	-1767.31	  370.18
     43.3700	  471.00	  511.73	-1784.98	  369.98
     43.4700	  501.00	  502.90	-1746.15	  369.79
     43.5700	  496.00	  497.42	-1745.67	  369.60
     43.6700	  496.00	  494.11	-1742.36	  369.41
     43.7700	  491.00	  492.05	-1745.30	  369.22
     43.8700	  492.00	  490.69	-1742.94	  369.03
     43.9700	  495.00	  489.72	-1738.97	  368.85
     44.0700	  525.00	  488.97	-1708.22	  368.67
     44.1700	  512.00	  488.38	-1720.63	  368.49
     44.2700	  501.00	  488.11	-1731.36	  368.32
     44.3700	  477.00	  487.73	-1754.98	  368.14
     44.4700	  496.00	  487.41	-1735.66	  367.97
     44.5700	  476.00	  487.15	-1755.40	  367.80
     44.6700	  474.00	  486.94	-1757.19	  367.63
     44.7700	  472.00	  486.77	-1759.02	  367.46
     44.8700	  500.00	  486.65	-1730.90	  367.30
     44.9700	  503.00	  486.55	-1727.80	  367.14
     45.0700	  491.00	  486.49	-1739.74	  366.98
     45.1700	  496.00	  486.46	-1734.71	  366.82
     45.2700	  506.00	  486.46	-1724.71	  366.66
     45.3700	  462.00	  486.49	-1768.74	  366.51
     45.4700	  503.00	  486.55	-1727.80	  366.36
     45.5700	  455.00	  486.64	-1775.89	  366.21
     45.6700	  479.00	  486.76	-1752.01	  366.06
     45.7700	  496.00	  486.99	-1735.24	  365.92
     45.8700	  489.00	  487.18	-1742.43	  365.77
     45.9700	  495.00	  487.41	-1736.66	  365.63
     46.0700	  505.00	  487.72	-1726.97	  365.49
     46.1700	  488.00	  487.92	-1744.17	  365.36
     46.2700	  519.00	  488.30	-1713.55	  365.22
     46.3700	  467.00	  488.75	-1766.00	  365.09
     46.4700	  492.00	  489.27	-1741.52	  364.96
     46.5700	  485.00	  489.88	-1749.13	  364.83
     46.6700	  488.00	  490.60	-1746.85	  364.70
     46.7700	  492.00	  491.47	-1743.72	  364.58
     46.8700	  509.00	  492.53	-1727.78	  364.46
     46.9700	  512.00	  493.91	-1726.16	  364.34
     47.0700	  503.00	  495.79	-1737.04	  364.22
     47.1700	  510.00	  498.52	-1732.77	  364.10
     47.2700	  504.00	  502.67	-1742.92	  363.99
     47.3700	  479.00	  508.98	-1774.23	  363.88
     47.4700	  522.00	  518.26	-1740.51	  363.77
     47.5700	  565.00	  531.07	-1710.32	  363.66
     47.6700	  572.00	  547.28	-1719.53	  363.55
     47.7700	  554.00	  565.51	-1755.76	  363.45
     47.8700	  570.00	  582.64	-1756.89	  363.35
     47.9700	  578.00	  594.01	-1760.26	  363.25
     48.0700	  600.00	  595.46	-1739.71	  363.15
     48.1700	  565.00	  586.95	-1766.20	  363.05
     48.2700	  615.00	  573.22	-1702.47	  362.96
     48.3700	  513.00	  558.40	-1789.65	  362.87
     48.4700	  537.00	  546.06	-1753.31	  362.78
     48.5700	  532.00	  537.58	-1749.83	  362.69
     48.6700	  560.00	  533.14	-1717.39	  362.61
     48.7700	  539.00	  532.27	-1737.52	  362.52
     48.8700	  514.00	  534.36	-1764.61	  362.44
     48.9700	  539.00	  538.95	-1744.20	  362.36
     49.0700	  504.00	  545.97	-1786.22	  362.29
     49.1700	  579.00	  556.00	-1721.25	  362.21
     49.2700	  563.00	  570.57	-1751.82	  362.14
     49.3700	  548.00	  592.96	-1789.21	  362.07
     49.4700	  568.00	  629.20	-1805.45	  362.00
     49.5700	  661.00	  689.02	-1772.27	  361.93
     49.6700	  715.00	  785.88	-1815.13	  361.86
     49.7700	  853.00	  934.65	-1825.90	  361.80
     49.8700	 1065.00	 1146.07	-1825.32	  361.74
     49.9700	 1335.00	 1418.69	-1827.94	  361.68
     50.0700	 1815.00	 1729.33	-1658.58	  361.62
     50.1700	 2084.00	 2025.09	-1685.34	  361.57
     50.2700	 2280.00	 2224.73	-1688.98	  361.51
     50.3700	 2323.00	 2250.49	-1671.74	  361.46
     50.4700	 2157.00	 2089.25	-1676.50	  361.41
     50.5700	 1844.00	 1808.50	-1708.75	  361.36
     50.6700	 1449.00	 1497.02	-1792.27	  361.32
     50.7700	 1123.00	 1216.69	-1837.94	  361.27
     50.8700	  904.00	  997.16	-1837.41	  361.23
     50.9700	  723.00	  842.81	-1864.06	  361.19
     51.0700	  661.00	  744.16	-1827.41	  361.15
     51.1700	  611.00	  684.88	-1818.13	  361.12
     51.2700	  630.00	  648.68	-1762.93	  361.08
     51.3700	  644.00	  623.48	-1723.73	  361.05
     51.4700	  570.00	  602.96	-1777.21	  361.02
     51.5700	  555.00	  585.23	-1774.48	  360.99
     51.6700	  599.00	  570.21	-1715.46	  360.96
     51.7700	  534.00	  558.10	-1768.35	  360.94
     51.8700	  570.00	  548.87	-1723.12	  360.92
     51.9700	  577.00	  542.29	-1709.54	  360.89
     52.0700	  558.00	  537.98	-1724.23	  360.87
     52.1700	  547.00	  535.53	-1732.78	  360.86
     52.2700	  558.00	  534.66	-1720.91	  360.84
     52.3700	  531.00	  535.28	-1748.53	  360.83
     52.4700	  492.00	  537.55	-1789.80	  360.81
     52.5700	  523.00	  542.07	-1763.32	  360.80
     52.6700	  528.00	  550.06	-1766.31	  360.80
     52.7700	  563.00	  563.61	-1744.86	  360.79
     52.8700	  608.00	  585.92	-1722.17	  360.78
     52.9700	  641.00	  621.11	-1724.36	  360.78
     53.0700	  708.00	  673.50	-1709.75	  360.78
     53.1700	  778.00	  746.11	-1712.36	  360.78
     53.2700	  904.00	  838.62	-1678.87	  360.78
     53.3700	  940.00	  944.96	-1749.21	  360.78
     53.4700	 1117.00	 1051.03	-1678.28	  360.79
     53.5700	 1208.00	 1133.78	-1670.03	  360.80
     53.6700	 1162.00	 1166.96	-1749.21	  360.81
     53.7700	 1125.00	 1137.16	-1756.41	  360.82
     53.8700	 1023.00	 1056.13	-1777.38	  360.83
     53.9700	  893.00	  950.49	-1801.74	  360.84
     54.0700	  796.00	  844.08	-1792.33	  360.86
     54.1700	  738.00	  751.40	-1757.65	  360.87
     54.2700	  661.00	  678.65	-1761.90	  360.89
     54.3700	  608.00	  626.30	-1762.55	  360.91
     54.4700	  651.00	  591.35	-1684.60	  360.94
     54.5700	  556.00	  569.47	-1757.72	  360.96
     54.6700	  568.00	  556.47	-1732.72	  360.98
     54.7700	  563.00	  549.10	-1730.35	  361.01
     54.8700	  545.00	  545.21	-1744.46	  361.04
     54.9700	  557.00	  543.54	-1730.79	  361.07
     55.0700	  531.00	  543.41	-1756.66	  361.10
     55.1700	  562.00	  544.52	-1726.77	  361.14
     55.2700	  520.00	  546.76	-1771.01	  361.17
     55.3700	  566.00	  550.16	-1728.41	  361.21
     55.4700	  570.00	  554.84	-1729.09	  361.24
     55.5700	  594.00	  561.07	-1711.32	  361.28
     55.6700	  565.00	  569.34	-1748.59	  361.32
     55.7700	  607.00	  580.62	-1717.87	  361.37
     55.8700	  605.00	  596.71	-1735.96	  361.41
     55.9700	  637.00	  620.86	-1728.11	  361.46
     56.0700	  659.00	  658.51	-1743.76	  361.50
     56.1700	  683.00	  717.86	-1779.11	  361.55
     56.2700	  793.00	  809.82	-1761.07	  361.60
     56.3700	  876.00	  946.46	-1814.71	  361.65
     56.4700	 1084.00	 1137.76	-1798.01	  361.71
     56.5700	 1368.00	 1386.69	-1762.94	  361.76
     56.6700	 1611.00	 1683.37	-1816.62	  361.82
     56.7700	 1878.00	 1999.66	-1865.91	  361.87
     56.8700	 2314.00	 2284.64	-1714.89	  361.93
     56.9700	 2452.00	 2468.93	-1761.18	  361.99
     57.0700	 2424.00	 2491.66	-1811.91	  362.05
     57.1700	 2418.00	 2344.10	-1670.35	  362.11
     57.2700	 2146.00	 2078.05	-1676.30	  362.18
     57.3700	 1725.00	 1765.68	-1784.93	  362.24
     57.4700	 1364.00	 1463.67	-1843.92	  362.31
     57.5700	 1128.00	 1205.40	-1821.65	  362.38
     57.6700	  953.00	 1004.66	-1795.91	  362.45
     57.7700	  869.00	  861.31	-1736.56	  362.52
     57.8700	  796.00	  767.20	-1715.45	  362.59
     57.9700	  734.00	  711.35	-1721.60	  362.66
     58.0700	  722.00	  683.90	-1706.15	  362.74
     58.1700	  706.00	  677.94	-1716.19	  362.81
     58.2700	  710.00	  689.67	-1723.92	  362.89
     58.3700	  736.00	  717.53	-1725.78	  362.97
     58.4700	  771.00	  760.78	-1734.03	  363.05
     58.5700	  788.00	  818.14	-1774.39	  363.13
     58.6700	  906.00	  886.33	-1724.58	  363.21
     58.7700	  975.00	  959.18	-1728.43	  363.29
     58.8700	 1089.00	 1028.67	-1683.92	  363.37
     58.9700	 1203.00	 1088.42	-1629.67	  363.46
     59.0700	 1252.00	 1135.26	-1627.51	  363.54
     59.1700	 1396.00	 1166.24	-1514.49	  363.63
     59.2700	 1343.00	 1177.64	-1578.89	  363.72
     59.3700	 1309.00	 1170.31	-1605.56	  363.81
     59.4700	 1262.00	 1152.89	-1635.14	  363.90
     59.5700	 1257.00	 1136.71	-1623.96	  363.99
     59.6700	 1175.00	 1129.80	-1699.05	  364.09
     59.7700	 1156.00	 1136.94	-1725.19	  364.18
     59.8700	 1146.00	 1162.92	-1761.17	  364.27
     59.9700	 1236.00	 1212.20	-1720.45	  364.37
     60.0700	 1386.00	 1284.06	-1642.31	  364.47
     60.1700	 1404.00	 1368.47	-1708.72	  364.56
     60.2700	 1528.00	 1444.96	-1661.21	  364.66
     60.3700	 1573.00	 1485.73	-1656.98	  364.76
     60.4700	 1483.00	 1467.59	-1728.84	  364.86
     60.5700	 1479.00	 1387.62	-1652.87	  364.97
     60.6700	 1317.00	 1264.85	-1692.10	  365.07
     60.7700	 1117.00	 1125.72	-1752.97	  365.17
     60.8700	  950.00	  991.81	-1786.06	  365.28
     60.9700	  881.00	  876.67	-1739.92	  365.38
     61.0700	  795.00	  786.92	-1736.17	  365.49
     61.1700	  772.00	  724.12	-1696.37	  365.60
     61.2700	  697.00	  686.97	-1734.22	  365.70
     61.3700	  680.00	  673.39	-1737.64	  365.81
     61.4700	  680.00	  682.16	-1746.41	  365.92
     61.5700	  693.00	  713.52	-1764.77	  366.03
     61.6700	  784.00	  768.74	-1728.99	  366.15
     61.7700	  800.00	  848.67	-1792.92	  366.26
     61.8700	  910.00	  951.81	-1786.06	  366.37
     61.9700	 1054.00	 1072.48	-1762.73	  366.49
     62.0700	 1133.00	 1198.89	-1810.14	  366.60
     62.1700	 1261.00	 1312.22	-1795.47	  366.72
     62.2700	 1302.00	 1387.98	-1830.23	  366.83
     62.3700	 1317.00	 1404.22	-1831.47	  366.95
     62.4700	 1281.00	 1355.01	-1818.26	  367.07
     62.5700	 1180.00	 1255.10	-1819.35	  367.18
     62.6700	 1049.00	 1129.22	-1824.47	  367.30
     62.7700	  949.00	  999.63	-1794.88	  367.42
     62.8700	  874.00	  881.60	-1751.85	  367.54
     62.9700	  736.00	  783.33	-1791.58	  367.66
     63.0700	  661.00	  707.52	-1790.77	  367.79
     63.1700	  646.00	  652.85	-1751.10	  367.91
     63.2700	  594.00	  615.82	-1766.07	  368.03
     63.3700	  587.00	  592.21	-1749.46	  368.15
     63.4700	  604.00	  578.28	-1718.53	  368.28
     63.5700	  562.00	  571.32	-1753.57	  368.40
     63.6700	  612.00	  569.82	-1702.07	  368.53
     63.7700	  565.00	  573.42	-1752.67	  368.65
     63.8700	  611.00	  582.67	-1715.92	  368.78
     63.9700	  653.00	  598.77	-1690.02	  368.91
     64.0700	  663.00	  623.13	-1704.38	  369.03
     64.1700	  677.00	  656.97	-1724.22	  369.16
     64.2700	  755.00	  700.49	-1689.74	  369.29
     64.3700	  804.00	  752.58	-1692.83	  369.42
     64.4700	  857.00	  809.97	-1697.22	  369.55
     64.5700	  966.00	  866.81	-1645.06	  369.68
     64.6700	  909.00	  914.83	-1750.08	  369.81
     64.7700	  975.00	  945.20	-1714.45	  369.94
     64.8700	  949.00	  952.21	-1747.46	  370.07
     64.9700	  967.00	  935.64	-1712.89	  370.20
     65.0700	  908.00	  900.42	-1736.67	  370.33
     65.1700	  835.00	  853.39	-1762.64	  370.46
     65.2700	  812.00	  803.41	-1735.66	  370.59
     65.3700	  765.00	  755.90	-1735.15	  370.72
     65.4700	  731.00	  713.98	-1727.23	  370.86
     65.5700	  664.00	  678.47	-1758.72	  370.99
     65.6700	  651.00	  648.96	-1742.21	  371.12
     65.7700	  594.00	  624.86	-1775.11	  371.26
     65.8700	  593.00	  605.67	-1756.92	  371.39
     65.9700	  567.00	  590.90	-1768.15	  371.52
     66.0700	  631.00	  579.97	-1693.22	  371.66
     66.1700	  535.00	  572.34	-1781.59	  371.79
     66.2700	  562.00	  567.72	-1749.97	  371.93
     66.3700	  544.00	  565.53	-1765.78	  372.06
     66.4700	  578.00	  565.43	-1731.68	  372.20
     66.5700	  549.00	  567.40	-1762.65	  372.33
     66.6700	  558.00	  571.46	-1757.71	  372.47
     66.7700	  627.00	  577.96	-1695.21	  372.60
     66.8700	  581.00	  587.69	-1750.94	  372.74
     66.9700	  630.00	  602.20	-1716.45	  372.87
     67.0700	  641.00	  624.06	-1727.31	  373.01
     67.1700	  700.00	  656.92	-1701.17	  373.15
     67.2700	  683.00	  706.09	-1767.34	  373.28
     67.3700	  728.00	  778.04	-1794.29	  373.42
     67.4700	  851.00	  879.69	-1772.94	  373.55
     67.5700	 1072.00	 1017.08	-1689.33	  373.69
     67.6700	 1187.00	 1193.33	-1750.58	  373.83
     67.7700	 1423.00	 1406.50	-1727.75	  373.96
     67.8700	 1645.00	 1647.41	-1746.66	  374.10
     67.9700	 1901.00	 1897.79	-1741.04	  374.23
     68.0700	 2132.00	 2129.15	-1741.40	  374.37
     68.1700	 2302.00	 2304.05	-1746.30	  374.50
     68.2700	 2397.00	 2384.74	-1731.99	  374.64
     68.3700	 2329.00	 2350.20	-1765.45	  374.78
     68.4700	 2244.00	 2209.73	-1709.98	  374.91
     68.5700	 2049.00	 1996.68	-1691.93	  375.05
     68.6700	 1672.00	 1750.41	-1822.66	  375.18
     68.7700	 1438.00	 1503.37	-1809.62	  375.32
     68.8700	 1238.00	 1277.89	-1784.14	  375.45
     68.9700	 1163.00	 1086.60	-1667.85	  375.59
     69.0700	  911.00	  934.17	-1767.42	  375.72
     69.1700	  824.00	  819.25	-1739.50	  375.86
     69.2700	  775.00	  736.70	-1705.95	  375.99
     69.3700	  661.00	  679.69	-1762.94	  376.12
     69.4700	  635.00	  641.46	-1750.71	  376.26
     69.5700	  625.00	  616.22	-1735.47	  376.39
     69.6700	  589.00	  599.55	-1754.80	  376.52
     69.7700	  594.00	  588.22	-1738.47	  376.66
     69.8700	  537.00	  580.61	-1787.86	  376.79
     69.9700	  606.00	  575.36	-1713.61	  376.92
     70.0700	  565.00	  571.77	-1751.02	  377.05
     70.1700	  534.00	  569.51	-1779.76	  377.18
     70.2700	  589.00	  568.35	-1723.60	  377.32
     70.3700	  543.00	  568.27	-1769.52	  377.45
     70.4700	  551.00	  569.35	-1762.60	  377.58
     70.5700	  535.00	  571.80	-1781.05	  377.71
     70.6700	  577.00	  576.05	-1743.30	  377.84
     70.7700	  585.00	  582.86	-1742.11	  377.97
     70.8700	  595.00	  594.39	-1743.64	  378.10
     70.9700	  595.00	  610.66	-1759.91	  378.22
     71.0700	  673.00	  635.26	-1706.51	  378.35
     71.1700	  652.00	  671.64	-1763.89	  378.48
     71.2700	  723.00	  723.88	-1745.13	  378.61
     71.3700	  717.00	  796.18	-1823.43	  378.73
     71.4700	  870.00	  892.04	-1766.29	  378.86
     71.5700	  974.00	 1013.19	-1783.44	  378.98
     71.6700	 1158.00	 1158.42	-1744.67	  379.11
     71.7700	 1248.00	 1322.35	-1818.60	  379.23
     71.8700	 1475.00	 1494.57	-1763.82	  379.36
     71.9700	 1649.00	 1659.00	-1754.25	  379.48
     72.0700	 1742.00	 1794.20	-1796.45	  379.60
     72.1700	 1873.00	 1876.53	-1747.78	  379.73
     72.2700	 1858.00	 1888.10	-1774.35	  379.85
     72.3700	 1825.00	 1826.15	-1745.40	  379.97
     72.4700	 1656.00	 1704.73	-1792.98	  380.09
     72.5700	 1571.00	 1546.77	-1720.02	  380.21
     72.6700	 1411.00	 1374.90	-1708.15	  380.33
     72.7700	 1232.00	 1206.92	-1719.17	  380.45
     72.8700	 1077.00	 1054.83	-1722.08	  380.56
     72.9700	  894.00	  925.38	-1775.63	  380.68
     73.0700	  881.00	  820.86	-1684.11	  380.80
     73.1700	  763.00	  740.33	-1721.58	  380.91
     73.2700	  730.00	  680.75	-1695.00	  381.03
     73.3700	  708.00	  638.10	-1674.35	  381.14
     73.4700	  657.00	  608.30	-1695.55	  381.25
     73.5700	  621.00	  587.72	-1710.97	  381.37
     73.6700	  577.00	  573.49	-1740.74	  381.48
     73.7700	  620.00	  563.03	-1687.28	  381.59
     73.8700	  555.00	  555.95	-1745.20	  381.70
     73.9700	  576.00	  550.82	-1719.07	  381.81
     74.0700	  577.00	  547.09	-1714.34	  381.92
     74.1700	  568.00	  544.40	-1720.65	  382.02
     74.2700	  603.00	  542.51	-1683.76	  382.13
     74.3700	  581.00	  541.24	-1704.49	  382.24
     74.4700	  570.00	  540.42	-1714.67	  382.34
     74.5700	  573.00	  539.85	-1711.10	  382.44
     74.6700	  619.00	  539.35	-1664.60	  382.55
     74.7700	  670.00	  538.72	-1612.97	  382.65
     74.8700	  626.00	  537.82	-1656.07	  382.75
     74.9700	  549.00	  536.62	-1731.87	  382.85
     75.0700	  590.00	  535.24	-1689.49	  382.95
     75.1700	  586.00	  533.90	-1692.15	  383.05
     75.2700	  577.00	  532.84	-1700.09	  383.15
     75.3700	  565.00	  532.36	-1711.61	  383.24
     75.4700	  577.00	  532.78	-1700.03	  383.34
     75.5700	  575.00	  534.44	-1703.69	  383.43
     75.6700	  536.00	  537.75	-1746.00	  383.53
     75.7700	  562.00	  543.12	-1725.37	  383.62
     75.8700	  593.00	  550.88	-1702.13	  383.71
     75.9700	  602.00	  561.45	-1703.70	  383.80
     76.0700	  617.00	  574.89	-1702.14	  383.89
     76.1700	  637.00	  591.01	-1698.26	  383.98
     76.2700	  621.00	  609.29	-1732.54	  384.07
     76.3700	  691.00	  628.72	-1681.97	  384.15
     76.4700	  661.00	  647.71	-1730.96	  384.24
     76.5700	  666.00	  664.44	-1742.69	  384.32
     76.6700	  715.00	  676.48	-1705.73	  384.40
     76.7700	  705.00	  681.70	-1720.95	  384.49
     76.8700	  688.00	  679.03	-1735.28	  384.57
     76.9700	  666.00	  668.94	-1747.19	  384.65
     77.0700	  645.00	  653.28	-1752.53	  384.72
     77.1700	  606.00	  634.37	-1772.62	  384.80
     77.2700	  589.00	  614.36	-1769.61	  384.88
     77.3700	  568.00	  594.94	-1771.19	  384.95
     77.4700	  544.00	  577.22	-1777.47	  385.02
     77.5700	  536.00	  561.99	-1770.24	  385.10
     77.6700	  548.00	  549.49	-1745.74	  385.17
     77.7700	  509.00	  539.64	-1774.89	  385.24
     77.8700	  535.00	  532.18	-1741.43	  385.30
     77.9700	  495.00	  526.72	-1775.97	  385.37
     78.0700	  498.00	  522.62	-1768.87	  385.44
     78.1700	  513.00	  519.91	-1751.16	  385.50
     78.2700	  523.00	  518.05	-1739.30	  385.57
     78.3700	  491.00	  516.77	-1770.02	  385.63
     78.4700	  515.00	  515.90	-1745.15	  385.69
     78.5700	  499.00	  515.31	-1760.56	  385.75
     78.6700	  483.00	  514.92	-1776.17	  385.81
     78.7700	  526.00	  514.70	-1732.95	  385.86
     78.8700	  505.00	  514.62	-1753.87	  385.92
     78.9700	  482.00	  514.69	-1776.94	  385.97
     79.0700	  474.00	  514.91	-1785.16	  386.02
     79.1700	  506.00	  515.30	-1753.55	  386.08
     79.2700	  490.00	  515.90	-1770.15	  386.13
     79.3700	  509.00	  516.73	-1751.98	  386.17
     79.4700	  489.00	  517.84	-1773.09	  386.22
     79.5700	  495.00	  519.27	-1768.52	  386.27
     79.6700	  482.00	  521.06	-1783.31	  386.31
     79.7700	  528.00	  523.27	-1739.52	  386.35
     79.8700	  493.00	  525.97	-1777.22	  386.40
     79.9700	  572.00	  529.22	-1701.47	  386.44
     80.0700	  511.00	  533.13	-1766.38	  386.47
     80.1700	  544.00	  537.82	-1738.07	  386.51
     80.2700	  576.00	  543.43	-1711.68	  386.55
     80.3700	  496.00	  550.16	-1798.41	  386.58
     80.4700	  552.00	  558.26	-1750.51	  386.61
     80.5700	  533.00	  567.77	-1779.02	  386.64
     80.6700	  549.00	  579.26	-1774.51	  386.67
     80.7700	  600.00	  592.51	-1736.76	  386.70
     80.8700	  595.00	  607.26	-1756.51	  386.73
     80.9700	  635.00	  622.98	-1732.23	  386.75
     81.0700	  632.00	  638.85	-1751.10	  386.78
     81.1700	  688.00	  653.90	-1710.15	  386.80
     81.2700	  659.00	  667.13	-1752.38	  386.82
     81.3700	  732.00	  677.70	-1689.95	  386.84
     81.4700	  719.00	  684.97	-1710.22	  386.86
     81.5700	  733.00	  688.49	-1699.74	  386.87
     81.6700	  733.00	  688.12	-1699.37	  386.89
     81.7700	  694.00	  683.95	-1734.20	  386.90
     81.8700	  738.00	  676.25	-1682.50	  386.91
     81.9700	  684.00	  665.43	-1725.68	  386.92
     82.0700	  689.00	  652.12	-1707.37	  386.93
     82.1700	  660.00	  637.24	-1721.49	  386.93
     82.2700	  671.00	  621.77	-1695.02	  386.94
     82.3700	  670.00	  606.58	-1680.83	  386.94
     82.4700	  628.00	  592.31	-1708.56	  386.94
     82.5700	  586.00	  579.35	-1737.60	  386.94
     82.6700	  589.00	  567.96	-1723.21	  386.94
     82.7700	  528.00	  558.28	-1774.53	  386.94
     82.8700	  521.00	  550.40	-1773.65	  386.93
     82.9700	  518.00	  544.37	-1770.62	  386.93
     83.0700	  550.00	  540.15	-1734.40	  386.92
     83.1700	  507.00	  537.70	-1774.95	  386.91
     83.2700	  537.00	  536.93	-1744.18	  386.90
     83.3700	  565.00	  537.72	-1716.97	  386.88
     83.4700	  526.00	  539.93	-1758.18	  386.87
     83.5700	  524.00	  543.34	-1763.59	  386.85
     83.6700	  586.00	  547.70	-1705.95	  386.83
     83.7700	  529.00	  552.66	-1767.91	  386.81
     83.8700	  549.00	  557.71	-1752.96	  386.79
     83.9700	  521.00	  562.47	-1785.72	  386.77
     84.0700	  539.00	  566.26	-1771.51	  386.74
     84.1700	  551.00	  568.57	-1761.82	  386.72
     84.2700	  529.00	  568.96	-1784.21	  386.69
     84.3700	  555.00	  567.30	-1756.55	  386.66
     84.4700	  587.00	  563.80	-1721.05	  386.63
     84.5700	  557.00	  558.92	-1746.17	  386.59
     84.6700	  528.00	  553.21	-1769.46	  386.56
     84.7700	  541.00	  547.17	-1750.42	  386.52
     84.8700	  517.00	  541.22	-1768.47	  386.48
     84.9700	  525.00	  535.68	-1754.93	  386.44
     85.0700	  532.00	  530.76	-1743.01	  386.40
     85.1700	  476.00	  526.56	-1794.81	  386.35
     85.2700	  512.00	  523.15	-1755.40	  386.31
     85.3700	  525.00	  520.49	-1739.74	  386.26
     85.4700	  522.00	  518.50	-1740.75	  386.21
     85.5700	  505.00	  517.11	-1756.36	  386.16
     85.6700	  564.00	  516.22	-1696.47	  386.11
     85.7700	  536.00	  515.78	-1724.03	  386.05
     85.8700	  493.00	  515.73	-1766.98	  386.00
     85.9700	  481.00	  516.07	-1779.32	  385.94
     86.0700	  538.00	  516.81	-1723.06	  385.88
     86.1700	  510.00	  518.04	-1752.29	  385.82
     86.2700	  514.00	  519.84	-1750.09	  385.75
     86.3700	  522.00	  522.35	-1744.60	  385.69
     86.4700	  518.00	  525.72	-1751.97	  385.62
     86.5700	  526.00	  530.10	-1748.35	  385.55
     86.6700	  505.00	  535.62	-1774.87	  385.48
     86.7700	  506.00	  542.37	-1780.62	  385.41
     86.8700	  552.00	  550.36	-1742.61	  385.33
     86.9700	  577.00	  559.51	-1726.76	  385.26
     87.0700	  569.00	  569.61	-1744.86	  385.18
     87.1700	  568.00	  580.30	-1756.55	  385.10
     87.2700	  571.00	  591.08	-1764.33	  385.02
     87.3700	  571.00	  601.29	-1774.54	  384.94
     87.4700	  611.00	  610.12	-1743.37	  384.85
     87.5700	  648.00	  616.73	-1712.98	  384.77
     87.6700	  601.00	  620.37	-1763.62	  384.68
     87.7700	  667.00	  620.62	-1697.87	  384.59
     87.8700	  609.00	  617.52	-1752.77	  384.50
     87.9700	  610.00	  611.62	-1745.87	  384.40
     88.0700	  645.00	  603.73	-1702.98	  384.31
     88.1700	  618.00	  594.78	-1721.03	  384.21
     88.2700	  589.00	  585.65	-1740.90	  384.11
     88.3700	  552.00	  577.08	-1769.33	  384.01
     88.4700	  588.00	  569.25	-1725.50	  383.91
     88.5700	  563.00	  563.44	-1744.69	  383.80
     88.6700	  548.00	  559.49	-1755.74	  383.70
     88.7700	  575.00	  557.52	-1726.77	  383.59
     88.8700	  554.00	  557.46	-1747.71	  383.48
     88.9700	  520.00	  559.14	-1783.39	  383.37
     89.0700	  567.00	  562.23	-1739.48	  383.25
     89.1700	  599.00	  566.30	-1711.55	  383.14
     89.2700	  608.00	  570.85	-1707.10	  383.02
     89.3700	  576.00	  575.30	-1743.55	  382.90
     89.4700	  573.00	  579.01	-1750.26	  382.78
     89.5700	  565.00	  581.42	-1760.67	  382.66
     89.6700	  594.00	  582.07	-1732.32	  382.54
     89.7700	  583.00	  580.75	-1742.00	  382.41
     89.8700	  562.00	  577.57	-1759.82	  382.28
     89.9700	  518.00	  572.86	-1799.11	  382.15
     90.0700	  609.00	  567.07	-1702.32	  382.02
     90.1700	  588.00	  560.70	-1716.95	  381.89
     90.2700	  561.00	  554.17	-1737.42	  381.76
     90.3700	  564.00	  547.84	-1728.09	  381.62
     90.4700	  513.00	  541.98	-1773.23	  381.48
     90.5700	  488.00	  536.77	-1793.02	  381.34
     90.6700	  558.00	  532.31	-1718.56	  381.20
     90.7700	  503.00	  528.66	-1769.91	  381.06
     90.8700	  516.00	  525.78	-1754.03	  380.91
     90.9700	  514.00	  523.65	-1753.90	  380.77
     91.0700	  526.00	  522.17	-1740.42	  380.62
     91.1700	  475.00	  521.30	-1790.55	  380.47
     91.2700	  529.00	  520.95	-1736.20	  380.32
     91.3700	  509.00	  521.11	-1756.36	  380.16
     91.4700	  518.00	  521.76	-1748.01	  380.01
     91.5700	  482.00	  522.93	-1785.18	  379.85
     91.6700	  533.00	  524.67	-1735.92	  379.69
     91.7700	  521.00	  527.09	-1750.34	  379.53
     91.8700	  500.00	  530.33	-1774.58	  379.37
     91.9700	  511.00	  534.54	-1767.79	  379.21
     92.0700	  530.00	  539.89	-1754.14	  379.04
     92.1700	  572.00	  546.57	-1718.82	  378.88
     92.2700	  507.00	  554.73	-1791.98	  378.71
     92.3700	  518.00	  564.50	-1790.75	  378.54
     92.4700	  502.00	  575.94	-1818.19	  378.37
     92.5700	  571.00	  589.04	-1762.29	  378.19
     92.6700	  583.00	  603.70	-1764.95	  378.02
     92.7700	  602.00	  619.70	-1761.95	  377.84
     92.8700	  641.00	  636.71	-1739.96	  377.67
     92.9700	  669.00	  654.25	-1729.50	  377.49
     93.0700	  627.00	  671.74	-1788.99	  377.30
     93.1700	  650.00	  688.53	-1782.78	  377.12
     93.2700	  703.00	  703.98	-1745.23	  376.94
     93.3700	  710.00	  717.64	-1751.89	  376.75
     93.4700	  740.00	  729.38	-1733.63	  376.56
     93.5700	  784.00	  739.43	-1699.68	  376.38
     93.6700	  738.00	  748.24	-1754.49	  376.18
     93.7700	  748.00	  756.09	-1752.34	  375.99
     93.8700	  831.00	  764.04	-1677.29	  375.80
     93.9700	  813.00	  772.17	-1703.42	  375.60
     94.0700	  814.00	  780.79	-1711.04	  375.41
     94.1700	  772.00	  790.17	-1762.42	  375.21
     94.2700	  791.00	  800.63	-1753.88	  375.01
     94.3700	  814.00	  812.39	-1742.64	  374.81
     94.4700	  830.00	  825.52	-1739.77	  374.61
     94.5700	  824.00	  839.73	-1759.98	  374.40
     94.6700	  854.00	  854.37	-1744.62	  374.20
     94.7700	  875.00	  868.36	-1737.61	  373.99
     94.8700	  902.00	  880.27	-1722.52	  373.78
     94.9700	  949.00	  888.51	-1683.76	  373.57
     95.0700	  905.00	  891.54	-1730.79	  373.36
     95.1700	  861.00	  888.27	-1771.52	  373.15
     95.2700	  923.00	  878.36	-1699.61	  372.94
     95.3700	  886.00	  862.34	-1720.59	  372.72
     95.4700	  872.00	  841.51	-1713.76	  372.50
     95.5700	  860.00	  817.57	-1701.82	  372.29
     95.6700	  726.00	  792.39	-1810.64	  372.07
     95.7700	  750.00	  767.77	-1762.02	  371.85
     95.8700	  735.00	  745.41	-1754.66	  371.62
     95.9700	  724.00	  726.85	-1747.10	  371.40
     96.0700	  689.00	  713.43	-1768.68	  371.18
     96.1700	  719.00	  706.36	-1731.61	  370.95
     96.2700	  690.00	  706.63	-1760.88	  370.73
     96.3700	  737.00	  715.09	-1722.34	  370.50
     96.4700	  741.00	  732.37	-1735.62	  370.27
     96.5700	  793.00	  758.89	-1710.14	  370.04
     96.6700	  772.00	  794.78	-1767.03	  369.81
     96.7700	  807.00	  839.85	-1777.10	  369.57
     96.8700	  868.00	  893.53	-1769.78	  369.34
     96.9700	  982.00	  954.79	-1717.04	  369.10
     97.0700	 1013.00	 1022.10	-1753.35	  368.87
     97.1700	 1100.00	 1093.37	-1737.62	  368.63
     97.2700	 1114.00	 1165.91	-1796.16	  368.39
     97.3700	 1184.00	 1236.50	-1796.75	  368.15
     97.4700	 1270.00	 1301.39	-1775.64	  367.91
     97.5700	 1354.00	 1356.51	-1746.76	  367.67
     97.6700	 1401.00	 1397.88	-1741.13	  367.43
     97.7700	 1416.00	 1422.20	-1750.45	  367.18
     97.8700	 1374.00	 1427.57	-1797.82	  366.94
     97.9700	 1451.00	 1413.93	-1707.18	  366.69
     98.0700	 1423.00	 1383.03	-1704.28	  366.44
     98.1700	 1336.00	 1338.00	-1746.25	  366.20
     98.2700	 1196.00	 1282.67	-1830.92	  365.95
     98.3700	 1197.00	 1220.98	-1768.23	  365.70
     98.4700	 1140.00	 1156.71	-1760.96	  365.45
     98.5700	 1084.00	 1093.21	-1753.46	  365.20
     98.6700	 1051.00	 1033.42	-1726.67	  364.94
     98.7700	  992.00	  979.79	-1732.04	  364.69
     98.8700	  867.00	  934.33	-1811.58	  364.44
     98.9700	  829.00	  898.66	-1813.91	  364.18
     99.0700	  898.00	  874.04	-1720.29	  363.93
     99.1700	  851.00	  861.42	-1754.67	  363.67
     99.2700	  815.00	  861.45	-1790.70	  363.41
     99.3700	  861.00	  874.51	-1757.76	  363.15
     99.4700	  927.00	  900.76	-1718.01	  362.90
     99.5700	  967.00	  940.06	-1717.31	  362.64
     99.6700	  972.00	  992.07	-1764.32	  362.38
     99.7700	 1053.00	 1056.08	-1747.33	  362.12
     99.8700	 1141.00	 1131.06	-1734.31	  361.85
     99.9700	 1149.00	 1215.49	-1810.74	  361.59
    100.0700	 1303.00	 1307.46	-1748.71	  361.33
    100.1700	 1443.00	 1404.43	-1705.68	  361.07
    100.2700	 1497.00	 1503.30	-1750.55	  360.80
    100.3700	 1629.00	 1600.53	-1715.78	  360.54
    100.4700	 1673.00	 1692.31	-1763.56	  360.27
    100.5700	 1804.00	 1774.99	-1715.24	  360.01
    100.6700	 1839.00	 1845.42	-1750.67	  359.74
    100.7700	 1853.00	 1901.29	-1792.54	  359.48
    100.8700	 1972.00	 1941.09	-1713.34	  359.21
    100.9700	 1934.00	 1963.89	-1774.14	  358.94
    101.0700	 1959.00	 1969.09	-1754.34	  358.67
    101.1700	 2045.00	 1956.41	-1655.66	  358.41
    101.2700	 1933.00	 1926.17	-1737.42	  358.14
    101.3700	 1890.00	 1879.65	-1733.90	  357.87
    101.4700	 1908.00	 1819.29	-1655.54	  357.60
    101.5700	 1773.00	 1748.61	-1719.86	  357.33
    101.6700	 1631.00	 1671.73	-1784.98	  357.06
    101.7700	 1564.00	 1592.86	-1773.11	  356.79
    101.8700	 1530.00	 1515.75	-1730.00	  356.52
    101.9700	 1498.00	 1443.46	-1689.71	  356.25
    102.0700	 1411.00	 1378.18	-1711.43	  355.98
    102.1700	 1374.00	 1321.25	-1691.50	  355.71
    102.2700	 1285.00	 1273.13	-1732.38	  355.44
    102.3700	 1248.00	 1233.50	-1729.75	  355.17
    102.4700	 1140.00	 1201.37	-1805.62	  354.90
    102.5700	 1183.00	 1175.15	-1736.40	  354.63
    102.6700	 1133.00	 1152.80	-1764.05	  354.36
    102.7700	 1196.00	 1132.07	-1680.32	  354.09
    102.8700	 1118.00	 1110.77	-1737.02	  353.82
    102.9700	 1101.00	 1087.07	-1730.32	  353.55
    103.0700	  962.00	 1059.80	-1842.05	  353.28
    103.1700	  973.00	 1028.53	-1799.78	  353.01
    103.2700	  930.00	  993.52	-1807.77	  352.74
    103.3700	  955.00	  955.52	-1744.77	  352.47
    103.4700	  873.00	  915.56	-1786.81	  352.20
    103.5700	  940.00	  874.74	-1678.99	  351.93
    103.6700	  851.00	  834.11	-1727.36	  351.66
    103.7700	  812.00	  794.62	-1726.87	  351.39
    103.8700	  736.00	  757.09	-1765.34	  351.12
    103.9700	  739.00	  722.15	-1727.40	  350.85
    104.0700	  699.00	  690.28	-1735.53	  350.59
    104.1700	  698.00	  661.75	-1708.00	  350.32
    104.2700	  678.00	  636.71	-1702.96	  350.05
    104.3700	  647.00	  615.13	-1712.38	  349.79
    104.4700	  618.00	  596.89	-1723.14	  349.52
    104.5700	  604.00	  581.75	-1722.00	  349.26
    104.6700	  613.00	  569.43	-1700.68	  348.99
    104.7700	  549.00	  559.60	-1754.85	  348.73
    104.8700	  564.00	  551.94	-1732.19	  348.46
    104.9700	  526.00	  546.14	-1764.39	  348.20
    105.0700	  570.00	  541.89	-1716.14	  347.94
    105.1700	  533.00	  538.95	-1750.20	  347.68
    105.2700	  511.00	  537.11	-1770.36	  347.42
    105.3700	  575.00	  536.19	-1705.44	  347.16
    105.4700	  516.00	  536.05	-1764.30	  346.90
    105.5700	  497.00	  536.62	-1783.87	  346.64
    105.6700	  553.00	  537.81	-1729.06	  346.38
    105.7700	  525.00	  539.60	-1758.85	  346.13
    105.8700	  499.00	  542.00	-1787.25	  345.87
    105.9700	  543.00	  545.02	-1746.27	  345.62
    106.0700	  551.00	  548.71	-1741.96	  345.36
    106.1700	  526.00	  553.12	-1771.37	  345.11
    106.2700	  575.00	  558.29	-1727.54	  344.86
    106.3700	  591.00	  564.27	-1717.52	  344.61
    106.4700	  592.00	  571.06	-1723.31	  344.36
    106.5700	  543.00	  578.62	-1779.87	  344.11
    106.6700	  579.00	  586.88	-1752.13	  343.87
    106.7700	  598.00	  595.70	-1741.95	  343.62
    106.8700	  572.00	  604.91	-1777.16	  343.38
    106.9700	  620.00	  614.29	-1738.54	  343.13
    107.0700	  634.00	  623.57	-1733.82	  342.89
    107.1700	  647.00	  632.43	-1729.68	  342.65
    107.2700	  660.00	  640.59	-1724.84	  342.41
    107.3700	  655.00	  647.71	-1736.96	  342.18
    107.4700	  648.00	  653.55	-1749.80	  341.94
    107.5700	  654.00	  657.93	-1748.18	  341.71
    107.6700	  702.00	  660.81	-1703.06	  341.48
    107.7700	  635.00	  662.32	-1771.57	  341.25
    107.8700	  688.00	  662.69	-1718.94	  341.02
    107.9700	  654.00	  662.26	-1752.51	  340.79
    108.0700	  697.00	  661.40	-1708.65	  340.56
    108.1700	  672.00	  660.46	-1732.71	  340.34
    108.2700	  680.00	  659.73	-1723.98	  340.12
    108.3700	  674.00	  659.44	-1729.69	  339.90
    108.4700	  661.00	  659.74	-1742.99	  339.68
    108.5700	  618.00	  660.66	-1786.91	  339.47
    108.6700	  672.00	  662.15	-1734.40	  339.25
    108.7700	  626.00	  664.06	-1782.31	  339.04
    108.8700	  644.00	  666.15	-1766.40	  338.83
    108.9700	  674.00	  668.11	-1738.36	  338.62
    109.0700	  721.00	  669.57	-1692.82	  338.42
    109.1700	  713.00	  670.17	-1701.42	  338.21
    109.2700	  638.00	  669.53	-1775.78	  338.01
    109.3700	  715.00	  667.41	-1696.66	  337.81
    109.4700	  657.00	  663.65	-1750.90	  337.62
    109.5700	  648.00	  658.26	-1754.51	  337.42
    109.6700	  664.00	  651.36	-1731.61	  337.23
    109.7700	  640.00	  643.20	-1747.45	  337.04
    109.8700	  611.00	  634.07	-1767.32	  336.85
    109.9700	  638.00	  624.29	-1730.54	  336.67
    110.0700	  646.00	  614.18	-1712.43	  336.49
    110.1700	  616.00	  604.03	-1732.28	  336.31
    110.2700	  592.00	  594.10	-1746.35	  336.13
    110.3700	  602.00	  584.62	-1726.87	  335.96
    110.4700	  571.00	  575.77	-1749.02	  335.79
    110.5700	  577.00	  567.69	-1734.94	  335.62
    110.6700	  578.00	  560.48	-1726.73	  335.45
    110.7700	  558.00	  554.19	-1740.44	  335.29
    110.8700	  515.00	  548.86	-1778.11	  335.13
    110.9700	  539.00	  544.48	-1749.73	  334.98
    111.0700	  560.00	  541.02	-1725.27	  334.82
    111.1700	  561.00	  538.42	-1721.67	  334.67
    111.2700	  540.00	  536.63	-1740.88	  334.53
    111.3700	  539.00	  535.56	-1740.81	  334.38
    111.4700	  562.00	  535.14	-1717.39	  334.24
    111.5700	  561.00	  535.29	-1718.54	  334.10
    111.6700	  559.00	  535.95	-1721.20	  333.97
    111.7700	  539.00	  537.04	-1742.29	  333.84
    111.8700	  543.00	  538.51	-1739.76	  333.71
    111.9700	  533.00	  540.30	-1751.55	  333.59
    112.0700	  536.00	  542.37	-1750.62	  333.47
    112.1700	  559.00	  544.70	-1729.95	  333.35
    112.2700	  558.00	  547.26	-1733.51	  333.24
    112.3700	  519.00	  550.05	-1775.30	  333.13
    112.4700	  578.00	  553.08	-1719.33	  333.02
    112.5700	  595.00	  556.36	-1705.61	  332.92
    112.6700	  563.00	  559.93	-1741.18	  332.82
    112.7700	  553.00	  563.81	-1755.06	  332.73
    112.8700	  554.00	  568.08	-1758.33	  332.64
    112.9700	  570.00	  572.79	-1747.04	  332.55
    113.0700	  578.00	  578.04	-1744.29	  332.47
    113.1700	  585.00	  583.93	-1743.18	  332.39
    113.2700	  584.00	  590.62	-1750.87	  332.32
    113.3700	  613.00	  598.29	-1729.54	  332.25
    113.4700	  588.00	  607.16	-1763.41	  332.18
    113.5700	  613.00	  617.55	-1748.80	  332.12
    113.6700	  649.00	  629.84	-1725.09	  332.07
    113.7700	  638.00	  644.48	-1750.73	  332.01
    113.8700	  674.00	  662.09	-1732.34	  331.96
    113.9700	  694.00	  683.38	-1733.63	  331.92
    114.0700	  703.00	  709.25	-1750.50	  331.88
    114.1700	  793.00	  740.75	-1692.00	  331.85
    114.2700	  822.00	  779.11	-1701.36	  331.82
    114.3700	  843.00	  825.80	-1727.05	  331.79
    114.4700	  851.00	  882.43	-1775.68	  331.77
    114.5700	  952.00	  950.86	-1743.11	  331.76
    114.6700	 1058.00	 1033.07	-1719.32	  331.75
    114.7700	 1109.00	 1131.16	-1766.41	  331.74
    114.8700	 1277.00	 1247.33	-1714.58	  331.74
    114.9700	 1417.00	 1383.72	-1710.97	  331.75
    115.0700	 1674.00	 1542.43	-1612.68	  331.76
    115.1700	 1844.00	 1725.26	-1625.51	  331.77
    115.2700	 1984.00	 1933.66	-1693.91	  331.79
    115.3700	 2159.00	 2168.67	-1753.92	  331.82
    115.4700	 2535.00	 2430.57	-1639.82	  331.85
    115.5700	 2828.00	 2719.06	-1635.31	  331.89
    115.6700	 3149.00	 3032.80	-1628.05	  331.93
    115.7700	 3459.00	 3369.42	-1654.67	  331.98
    115.8700	 3651.00	 3725.68	-1818.93	  332.03
    115.9700	 4178.00	 4096.99	-1663.24	  332.09
    116.0700	 4520.00	 4477.83	-1702.08	  332.15
    116.1700	 4724.00	 4861.40	-1881.65	  332.23
    116.2700	 5155.00	 5239.79	-1829.04	  332.30
    116.3700	 5587.00	 5604.28	-1761.53	  332.38
    116.4700	 5860.00	 5945.08	-1829.33	  332.47
    116.5700	 6183.00	 6252.09	-1813.34	  332.57
    116.6700	 6383.00	 6514.90	-1876.15	  332.67
    116.7700	 6559.00	 6723.65	-1908.90	  332.77
    116.8700	 6751.00	 6869.89	-1863.14	  332.89
    116.9700	 6977.00	 6947.24	-1714.49	  333.01
    117.0700	 6883.00	 6952.35	-1813.60	  333.13
    117.1700	 6901.00	 6885.23	-1728.48	  333.26
    117.2700	 6721.00	 6749.32	-1772.57	  333.40
    117.3700	 6461.00	 6550.94	-1834.19	  333.55
    117.4700	 6236.00	 6298.64	-1806.89	  333.70
    117.5700	 5992.00	 6002.15	-1754.40	  333.86
    117.6700	 5555.00	 5671.77	-1861.02	  334.02
    117.7700	 5213.00	 5317.67	-1848.92	  334.20
    117.8700	 4927.00	 4949.30	-1766.55	  334.37
    117.9700	 4636.00	 4575.45	-1683.70	  334.56
    118.0700	 4362.00	 4203.68	-1585.93	  334.75
    118.1700	 3941.00	 3840.61	-1643.86	  334.95
    118.2700	 3551.00	 3491.74	-1684.99	  335.16
    118.3700	 3239.00	 3161.23	-1666.48	  335.38
    118.4700	 2984.00	 2852.37	-1612.62	  335.60
    118.5700	 2552.00	 2567.23	-1759.48	  335.83
    118.6700	 2296.00	 2307.06	-1755.31	  336.06
    118.7700	 2072.00	 2072.30	-1744.55	  336.31
    118.8700	 1838.00	 1862.58	-1768.83	  336.56
    118.9700	 1630.00	 1677.09	-1791.34	  336.82
    119.0700	 1528.00	 1514.46	-1730.71	  337.09
    119.1700	 1331.00	 1373.08	-1786.33	  337.36
    119.2700	 1257.00	 1251.11	-1738.36	  337.64
    119.3700	 1128.00	 1146.58	-1762.83	  337.93
    119.4700	 1080.00	 1057.53	-1721.78	  338.23
    119.5700	 1003.00	  982.01	-1723.26	  338.54
    119.6700	  913.00	  918.21	-1749.46	  338.85
    119.7700	  864.00	  864.46	-1744.71	  339.18
    119.8700	  846.00	  819.24	-1717.49	  339.51
    119.9700	  791.00	  781.22	-1734.47	  339.85
    120.0700	  786.00	  749.23	-1707.48	  340.20
    120.1700	  727.00	  722.31	-1739.56	  340.55
    120.2700	  671.00	  699.61	-1772.86	  340.92
    120.3700	  675.00	  680.43	-1749.68	  341.29
    120.4700	  666.00	  664.22	-1742.47	  341.68
    120.5700	  612.00	  650.49	-1782.74	  342.07
    120.6700	  621.00	  638.87	-1762.12	  342.47
    120.7700	  603.00	  629.06	-1770.31	  342.88
    120.8700	  617.00	  620.81	-1748.06	  343.30
    120.9700	  592.00	  613.92	-1766.17	  343.73
    121.0700	  559.00	  608.22	-1793.47	  344.16
    121.1700	  612.00	  603.59	-1735.84	  344.61
    121.2700	  608.00	  599.92	-1736.17	  345.06
    121.3700	  550.00	  597.13	-1791.38	  345.53
    121.4700	  558.00	  595.14	-1781.39	  346.00
    121.5700	  570.00	  593.89	-1768.14	  346.49
    121.6700	  607.00	  593.31	-1730.56	  346.98
    121.7700	  550.00	  593.36	-1787.60	  347.49
    121.8700	  593.00	  593.97	-1745.22	  348.00
    121.9700	  572.00	  595.10	-1767.35	  348.52
    122.0700	  610.00	  596.68	-1730.93	  349.06
    122.1700	  586.00	  598.66	-1756.91	  349.60
    122.2700	  570.00	  600.96	-1775.21	  350.15
    122.3700	  601.00	  603.52	-1746.77	  350.72
    122.4700	  621.00	  606.26	-1729.51	  351.29
    122.5700	  611.00	  609.08	-1742.33	  351.88
    122.6700	  630.00	  611.91	-1726.16	  352.47
    122.7700	  590.00	  614.66	-1768.91	  353.08
    122.8700	  680.00	  617.23	-1681.48	  353.69
    122.9700	  612.00	  619.52	-1751.77	  354.32
    123.0700	  616.00	  621.47	-1749.72	  354.96
    123.1700	  627.00	  623.00	-1740.25	  355.61
    123.2700	  650.00	  624.06	-1718.31	  356.27
    123.3700	  676.00	  624.62	-1692.87	  356.94
    123.4700	  614.00	  624.67	-1754.92	  357.62
    123.5700	  623.00	  624.23	-1745.48	  358.31
    123.6700	  658.00	  623.31	-1709.56	  359.02
    123.7700	  615.00	  621.96	-1751.21	  359.73
    123.8700	  603.00	  620.26	-1761.51	  360.46
    123.9700	  651.00	  618.26	-1711.51	  361.20
    124.0700	  619.00	  616.02	-1741.27	  361.95
    124.1700	  595.00	  613.59	-1762.84	  362.71
    124.2700	  639.00	  611.04	-1716.29	  363.49
    124.3700	  594.00	  608.42	-1758.67	  364.27
    124.4700	  611.00	  605.78	-1739.03	  365.07
    124.5700	  607.00	  603.18	-1740.43	  365.88
    124.6700	  615.00	  600.64	-1729.89	  366.70
    124.7700	  584.00	  598.20	-1758.45	  367.54
    124.8700	  549.00	  595.89	-1791.14	  368.39
    124.9700	  566.00	  479.83	-1658.08	  369.25
    125.0700	  575.00	  480.70	-1744.25	  370.12
    125.1700	  560.00	  481.59	-1744.25	  371.00
    125.2700	  610.00	  482.48	-1744.25	  371.90
    125.3700	  547.00	  483.39	-1744.25	  372.81
    125.4700	  538.00	  484.32	-1744.25	  373.74
    125.5700	  571.00	  485.25	-1744.25	  374.67
    125.6700	  599.00	  486.20	-1744.25	  375.62
    125.7700	  536.00	  487.17	-1744.25	  376.59
    125.8700	  573.00	  488.14	-1744.25	  377.56
    125.9700	  576.00	  489.13	-1744.25	  378.55
    126.0700	  511.00	  490.14	-1744.25	  379.56
    126.1700	  553.00	  491.15	-1744.25	  380.57
    126.2700	  559.00	  492.18	-1744.25	  381.60
    126.3700	  583.00	  493.23	-1744.25	  382.65
    126.4700	  579.00	  494.29	-1744.25	  383.71
    126.5700	  568.00	  495.36	-1744.25	  384.78
    126.6700	  565.00	  496.44	-1744.25	  385.86
    126.7700	  578.00	  497.55	-1744.25	  386.96
    126.8700	  536.00	  498.66	-1744.25	  388.08
    126.9700	  559.00	  499.79	-1744.25	  389.21
    127.0700	  519.00	  500.93	-1744.25	  390.35
    127.1700	  556.00	  502.09	-1744.25	  391.51
    127.2700	  585.00	  503.26	-1744.25	  392.68
    127.3700	  567.00	  504.45	-1744.25	  393.87
    127.4700	  584.00	  505.65	-1744.25	  395.07
    127.5700	  609.00	  506.87	-1744.25	  396.29
    127.6700	  598.00	  508.10	-1744.25	  397.52
    127.7700	  570.00	  509.35	-1744.25	  398.77
    127.8700	  676.00	  510.61	-1744.25	  400.03
    127.9700	  668.00	  511.89	-1744.25	  401.31
    128.0700	  636.00	  513.19	-1744.25	  402.61
    128.1700	  685.00	  514.50	-1744.25	  403.91
    128.2700	  707.00	  515.82	-1744.25	  405.24
    128.3700	  699.00	  517.16	-1744.25	  406.58
    128.4700	  717.00	  518.52	-1744.25	  407.94
    128.5700	    0.00	  519.89	-1744.25	  409.31
    128.6700	    0.00	  521.28	-1744.25	  410.70
     12.3408	        	        	        	        	       0	(  0  0  2)	  0  1
     24.9524	        	        	        	        	       0	(  0  0  4)	  0  1
     28.3945	        	        	        	        	       0	(  1  0  0)	  0  1
     29.0935	        	        	        	        	       0	(  1  0  1)	  0  1
     31.1049	        	        	        	        	       0	(  1  0  2)	  0  1
     34.2212	        	        	        	        	       0	(  1  0  3)	  0  1
     37.8822	        	        	        	        	       0	(  0  0  6)	  0  1
     38.2085	        	        	        	        	       0	(  1  0  4)	  0  1
     42.8707	        	        	        	        	       0	(  1  0  5)	  0  1
     48.0685	        	        	        	        	       0	(  1  0  6)	  0  1
     50.3794	        	        	        	        	       0	(  1  1  0)	  0  1
     51.3381	        	        	        	        	       0	(  0  0  8)	  0  1
     52.1074	        	        	        	        	       0	(  1  1  2)	  0  1
     53.7144	        	        	        	        	       0	(  1  0  7)	  0  1
     57.0698	        	        	        	        	       0	(  1  1  4)	  0  1
     58.8972	        	        	        	        	       0	(  2  0  0)	  0  1
     59.2900	        	        	        	        	       0	(  2  0  1)	  0  1
     59.7621	        	        	        	        	       0	(  1  0  8)	  0  1
     60.4590	        	        	        	        	       0	(  2  0  2)	  0  1
     62.3782	        	        	        	        	       0	(  2  0  3)	  0  1
     64.7881	        	        	        	        	       0	(  1  1  6)	  0  1
     65.0106	        	        	        	        	       0	(  2  0  4)	  0  1
     65.6079	        	        	        	        	       0	(  0  0 10)	  0  1
     66.1978	        	        	        	        	       0	(  1  0  9)	  0  1
     68.3155	        	        	        	        	       0	(  2  0  5)	  0  1
     72.2562	        	        	        	        	       0	(  2  0  6)	  0  1
     73.0361	        	        	        	        	       0	(  1  0 10)	  0  1
     74.8592	        	        	        	        	       0	(  1  1  8)	  0  1
     76.8063	        	        	        	        	       0	(  2  0  7)	  0  1
     80.3195	        	        	        	        	       0	(  1  0 11)	  0  1
     81.1406	        	        	        	        	       0	(  0  0 12)	  0  1
     81.2030	        	        	        	        	       0	(  2  1  0)	  0  1
     81.5442	        	        	        	        	       0	(  2  1  1)	  0  1
     81.9557	        	        	        	        	       0	(  2  0  8)	  0  1
     82.5660	        	        	        	        	       0	(  2  1  2)	  0  1
     84.2641	        	        	        	        	       0	(  2  1  3)	  0  1
     86.6334	        	        	        	        	       0	(  2  1  4)	  0  1
     87.1773	        	        	        	        	       0	(  1  1 10)	  0  1
     87.7168	        	        	        	        	       0	(  2  0  9)	  0  1
     88.1245	        	        	        	        	       0	(  1  0 12)	  0  1
     89.6720	        	        	        	        	       0	(  2  1  5)	  0  1
     93.3859	        	        	        	        	       0	(  2  1  6)	  0  1
     94.1325	        	        	        	        	       0	(  2  0 10)	  0  1
     95.1442	        	        	        	        	       0	(  3  0  0)	  0  1
     95.4831	        	        	        	        	       0	(  3  0  1)	  0  1
     96.5012	        	        	        	        	       0	(  3  0  2)	  0  1
     96.5758	        	        	        	        	       0	(  1  0 13)	  0  1
     97.7956	        	        	        	        	       0	(  2  1  7)	  0  1
     98.2029	        	        	        	        	       0	(  3  0  3)	  0  1
     98.7564	        	        	        	        	       0	(  0  0 14)	  0  1
    100.5981	        	        	        	        	       0	(  3  0  4)	  0  1
    101.2900	        	        	        	        	       0	(  2  0 11)	  0  1
    102.1182	        	        	        	        	       0	(  1  1 12)	  0  1
    102.9448	        	        	        	        	       0	(  2  1  8)	  0  1
    103.7064	        	        	        	        	       0	(  3  0  5)	  0  1
    105.8784	        	        	        	        	       0	(  1  0 14)	  0  1
    107.5638	        	        	        	        	       0	(  3  0  6)	  0  1
    108.9166	        	        	        	        	       0	(  2  1  9)	  0  1
    109.3481	        	        	        	        	       0	(  2  0 12)	  0  1
    112.2338	        	        	        	        	       0	(  3  0  7)	  0  1
    115.8608	        	        	        	        	       0	(  2  1 10)	  0  1
    116.3930	        	        	        	        	       0	(  1  0 15)	  0  1
    116.9878	        	        	        	        	       0	(  2  2  0)	  0  1
    117.8277	        	        	        	        	       0	(  3  0  8)	  0  1
    118.5147	        	        	        	        	       0	(  2  2  2)	  0  1
    118.5991	        	        	        	        	       0	(  2  0 13)	  0  1
    120.3884	        	        	        	        	       0	(  0  0 16)	  0  1
    121.0931	        	        	        	        	       0	(  1  1 14)	  0  1
    123.2398	        	        	        	        	       0	(  2  2  4)	  0  1
    124.0566	        	        	        	        	       0	(  2  1 11)	  0  1
    124.5455	        	        	        	        	       0	(  3  0  9)	  0  1
    125.1179	        	        	        	        	       0	(  3  1  0)	  0  1
    125.5321	        	        	        	        	       0	(  3  1  1)	  0  1
    126.7878	        	        	        	        	       0	(  3  1  2)	  0  1
    128.8542	        	        	        	        	       0	(  1  0 16)	  0  1
    128.9284	        	        	        	        	       0	(  3  1  3)	  0  1
    129.6367	        	        	        	        	       0	(  2  0 14)	  0  1
    131.7684	        	        	        	        	       0	(  2  2  6)	  0  1
    132.0399	        	        	        	        	       0	(  3  1  4)	  0  1
    132.7770	        	        	        	        	       0	(  3  0 10)	  0  1
    134.0829	        	        	        	        	       0	(  2  1 12)	  0  1
    136.2828	        	        	        	        	       0	(  3  1  5)	  0  1
    141.9711	        	        	        	        	       0	(  3  1  6)	  0  1
    143.4284	        	        	        	        	       0	(  3  0 11)	  0  1
    144.0072	        	        	        	        	       0	(  2  0 15)	  0  1
    145.2985	        	        	        	        	       0	(  1  0 17)	  0  1
    146.2452	        	        	        	        	       0	(  2  2  8)	  0  1
    147.4915	        	        	        	        	       0	(  2  1 13)	  0  1
    149.8257	        	        	        	        	       0	(  3  1  7)	  0  1
    150.5232	        	        	        	        	       0	(  1  1 16)	  0  1
    155.1297	        	        	        	        	       0	(  0  0 18)	  0  1
    159.9005	        	        	        	        	       0	(  3  0 12)	  0  1
    160.0819	        	        	        	        	       0	(  4  0  0)	  0  1
    161.1035	        	        	        	        	       0	(  4  0  1)	  0  1
    162.4133	        	        	        	        	       0	(  3  1  8)	  0  1
    164.5566	        	        	        	        	       0	(  4  0  2)	  0  1
    173.0443	        	        	        	        	       0	(  2  0 16)	  0  1
    173.5467	        	        	        	        	       0	(  4  0  3)	  0  1
