MSG Master    CELL:    5.90786   5.90786  23.21806   90.0000   90.0000  120.0000   SPGR: P 63/m m c             TEMP:    884.95
  1   1280     2.52000     0.00000    -0.12501     0.00000     0.00000    0
    98     0     2
       0.00000      10.00000
     125.00000     130.00000
 2Theta	Yobs	Ycal	Yobs-Ycal	Backg	Posr	(hkl)	K
      0.7700	    0.00	  477.42	-1729.62	  368.69
      0.8700	    0.00	  478.87	-1729.62	  370.14
      0.9700	   35.00	  480.30	-1729.62	  371.57
      1.0700	   36.00	  481.71	-1729.62	  372.98
      1.1700	   46.00	  483.11	-1729.62	  374.38
      1.2700	   44.00	  484.49	-1729.62	  375.76
      1.3700	   51.00	  485.86	-1729.62	  377.13
      1.4700	   89.00	  487.21	-1729.62	  378.48
      1.5700	  272.00	  488.55	-1729.62	  379.81
      1.6700	  464.00	  489.87	-1729.62	  381.13
      1.7700	  591.00	  491.17	-1729.62	  382.44
      1.8700	  662.00	  492.46	-1729.62	  383.73
      1.9700	  710.00	  493.73	-1729.62	  385.00
      2.0700	  754.00	  494.99	-1729.62	  386.26
      2.1700	  797.00	  496.23	-1729.62	  387.50
      2.2700	  755.00	  497.46	-1729.62	  388.73
      2.3700	  675.00	  498.67	-1729.62	  389.94
      2.4700	  687.00	  499.87	-1729.62	  391.14
      2.5700	  668.00	  501.05	-1729.62	  392.32
      2.6700	  677.00	  502.22	-1729.62	  393.49
      2.7700	  616.00	  503.37	-1729.62	  394.64
      2.8700	  603.00	  504.51	-1729.62	  395.78
      2.9700	  595.00	  505.63	-1729.62	  396.90
      3.0700	  609.00	  506.74	-1729.62	  398.01
      3.1700	  592.00	  507.84	-1729.62	  399.11
      3.2700	  652.00	  508.92	-1729.62	  400.19
      3.3700	  813.00	  509.99	-1729.62	  401.26
      3.4700	  865.00	  511.04	-1729.62	  402.31
      3.5700	 1006.00	  512.08	-1729.62	  403.35
      3.6700	 1097.00	  513.11	-1729.62	  404.38
      3.7700	 1076.00	  514.12	-1729.62	  405.39
      3.8700	 1183.00	  515.12	-1729.62	  406.39
      3.9700	 1127.00	  516.11	-1729.62	  407.37
      4.0700	 1228.00	  517.08	-1729.62	  408.34
      4.1700	 1279.00	  518.04	-1729.62	  409.30
      4.2700	 1295.00	  518.98	-1729.62	  410.25
      4.3700	 1243.00	  519.91	-1729.62	  411.18
      4.4700	 1207.00	  520.83	-1729.62	  412.10
      4.5700	 1163.00	  521.74	-1729.62	  413.01
      4.6700	 1198.00	  522.63	-1729.62	  413.90
      4.7700	 1099.00	  523.51	-1729.62	  414.78
      4.8700	 1033.00	  524.38	-1729.62	  415.65
      4.9700	 1050.00	  525.23	-1729.62	  416.50
      5.0700	 1038.00	  526.08	-1729.62	  417.34
      5.1700	 1007.00	  526.91	-1729.62	  418.17
      5.2700	 1005.00	  527.72	-1729.62	  418.99
      5.3700	  961.00	  528.53	-1729.62	  419.80
      5.4700	  936.00	  529.32	-1729.62	  420.59
      5.5700	 1012.00	  530.10	-1729.62	  421.37
      5.6700	  861.00	  530.87	-1729.62	  422.14
      5.7700	  906.00	  531.63	-1729.62	  422.90
      5.8700	  824.00	  532.38	-1729.62	  423.64
      5.9700	  828.00	  533.11	-1729.62	  424.38
      6.0700	  833.00	  533.83	-1729.62	  425.10
      6.1700	  819.00	  534.54	-1729.62	  425.81
      6.2700	  799.00	  535.24	-1729.62	  426.51
      6.3700	  804.00	  535.93	-1729.62	  427.20
      6.4700	  762.00	  536.60	-1729.62	  427.87
      6.5700	  735.00	  537.27	-1729.62	  428.54
      6.6700	  775.00	  537.92	-1729.62	  429.19
      6.7700	  763.00	  538.57	-1729.62	  429.83
      6.8700	  731.00	  539.20	-1729.62	  430.46
      6.9700	  720.00	  539.82	-1729.62	  431.09
      7.0700	  713.00	  540.43	-1729.62	  431.69
      7.1700	  730.00	  541.03	-1729.62	  432.29
      7.2700	  722.00	  541.61	-1729.62	  432.88
      7.3700	  713.00	  542.19	-1729.62	  433.46
      7.4700	  694.00	  542.76	-1729.62	  434.03
      7.5700	  658.00	  543.32	-1729.62	  434.58
      7.6700	  590.00	  543.86	-1729.62	  435.13
      7.7700	  678.00	  544.40	-1729.62	  435.66
      7.8700	  669.00	  544.92	-1729.62	  436.19
      7.9700	  672.00	  545.44	-1729.62	  436.71
      8.0700	  643.00	  545.94	-1729.62	  437.21
      8.1700	  622.00	  546.44	-1729.62	  437.71
      8.2700	  671.00	  546.92	-1729.62	  438.19
      8.3700	  634.00	  547.40	-1729.62	  438.67
      8.4700	  652.00	  547.87	-1729.62	  439.13
      8.5700	  615.00	  548.32	-1729.62	  439.59
      8.6700	  626.00	  548.77	-1729.62	  440.04
      8.7700	  624.00	  549.21	-1729.62	  440.47
      8.8700	  623.00	  549.63	-1729.62	  440.90
      8.9700	  598.00	  550.05	-1729.62	  441.32
      9.0700	  634.00	  550.46	-1729.62	  441.73
      9.1700	  592.00	  550.86	-1729.62	  442.13
      9.2700	  560.00	  551.25	-1729.62	  442.52
      9.3700	  616.00	  551.63	-1729.62	  442.90
      9.4700	  603.00	  552.00	-1729.62	  443.27
      9.5700	  601.00	  552.37	-1729.62	  443.64
      9.6700	  567.00	  552.72	-1729.62	  443.99
      9.7700	  599.00	  553.07	-1729.62	  444.34
      9.8700	  562.00	  553.41	-1729.62	  444.67
      9.9700	  649.00	  553.73	-1729.62	  445.00
     10.0700	  647.00	  555.59	-1638.21	  445.32
     10.1700	  626.00	  556.06	-1659.68	  445.63
     10.2700	  558.00	  556.55	-1728.17	  445.93
     10.3700	  562.00	  557.09	-1724.71	  446.23
     10.4700	  577.00	  557.70	-1710.32	  446.52
     10.5700	  603.00	  558.44	-1685.06	  446.79
     10.6700	  604.00	  559.38	-1685.00	  447.06
     10.7700	  565.00	  560.61	-1725.23	  447.32
     10.8700	  590.00	  562.21	-1701.83	  447.58
     10.9700	  580.00	  564.22	-1713.84	  447.82
     11.0700	  606.00	  566.62	-1690.24	  448.06
     11.1700	  596.00	  569.42	-1703.04	  448.29
     11.2700	  560.00	  572.64	-1742.26	  448.51
     11.3700	  578.00	  576.37	-1727.99	  448.73
     11.4700	  555.00	  580.73	-1755.35	  448.93
     11.5700	  580.00	  585.90	-1735.52	  449.13
     11.6700	  577.00	  592.21	-1744.83	  449.32
     11.7700	  604.00	  600.08	-1725.70	  449.51
     11.8700	  633.00	  609.94	-1706.56	  449.69
     11.9700	  663.00	  621.72	-1688.34	  449.85
     12.0700	  675.00	  634.01	-1688.63	  450.02
     12.1700	  668.00	  643.15	-1704.77	  450.17
     12.2700	  684.00	  643.27	-1688.89	  450.32
     12.3700	  641.00	  630.69	-1719.31	  450.46
     12.4700	  596.00	  611.00	-1744.62	  450.60
     12.5700	  565.00	  593.10	-1757.72	  450.72
     12.6700	  605.00	  580.58	-1705.20	  450.84
     12.7700	  531.00	  573.07	-1771.69	  450.96
     12.8700	  562.00	  568.94	-1736.56	  451.06
     12.9700	  544.00	  566.68	-1752.30	  451.16
     13.0700	  570.00	  565.36	-1724.97	  451.26
     13.1700	  536.00	  564.49	-1758.10	  451.34
     13.2700	  617.00	  563.87	-1676.49	  451.42
     13.3700	  564.00	  563.41	-1729.03	  451.50
     13.4700	  595.00	  563.07	-1697.68	  451.57
     13.5700	  507.00	  562.80	-1785.42	  451.63
     13.6700	  524.00	  562.58	-1768.20	  451.68
     13.7700	  549.00	  562.41	-1743.03	  451.73
     13.8700	  534.00	  562.27	-1757.89	  451.78
     13.9700	  575.00	  562.15	-1716.77	  451.81
     14.0700	  542.00	  562.05	-1749.67	  451.84
     14.1700	  560.00	  561.97	-1731.59	  451.87
     14.2700	  578.00	  561.89	-1713.51	  451.89
     14.3700	  559.00	  561.85	-1732.47	  451.90
     14.4700	  514.00	  561.78	-1777.40	  451.91
     14.5700	  524.00	  561.72	-1767.34	  451.91
     14.6700	  553.00	  561.66	-1738.28	  451.91
     14.7700	  570.00	  561.60	-1721.22	  451.90
     14.8700	  524.00	  561.54	-1767.16	  451.88
     14.9700	  541.00	  561.48	-1750.10	  451.86
     15.0700	  562.00	  561.42	-1729.04	  451.84
     15.1700	  589.00	  561.36	-1701.98	  451.81
     15.2700	  536.00	  561.29	-1754.91	  451.77
     15.3700	  561.00	  561.23	-1729.85	  451.73
     15.4700	  544.00	  561.16	-1746.78	  451.68
     15.5700	  561.00	  561.08	-1729.70	  451.63
     15.6700	  519.00	  561.01	-1771.63	  451.57
     15.7700	  540.00	  560.93	-1750.55	  451.51
     15.8700	  543.00	  560.84	-1747.46	  451.44
     15.9700	  517.00	  560.76	-1773.38	  451.37
     16.0700	  539.00	  560.67	-1751.29	  451.30
     16.1700	  533.00	  560.57	-1757.19	  451.21
     16.2700	  572.00	  560.47	-1718.09	  451.13
     16.3700	  516.00	  560.37	-1773.99	  451.04
     16.4700	  592.00	  560.27	-1697.89	  450.94
     16.5700	  594.00	  560.16	-1695.78	  450.84
     16.6700	  564.00	  560.05	-1725.67	  450.74
     16.7700	  509.00	  559.93	-1780.55	  450.63
     16.8700	  554.00	  559.81	-1735.43	  450.52
     16.9700	  510.00	  559.68	-1779.30	  450.40
     17.0700	  579.00	  559.56	-1710.18	  450.28
     17.1700	  526.00	  559.42	-1763.04	  450.15
     17.2700	  500.00	  559.29	-1788.91	  450.02
     17.3700	  608.00	  559.15	-1680.77	  449.88
     17.4700	  519.00	  559.10	-1769.72	  449.74
     17.5700	  511.00	  558.96	-1777.58	  449.60
     17.6700	  548.00	  558.81	-1740.43	  449.45
     17.7700	  544.00	  558.66	-1744.28	  449.30
     17.8700	  537.00	  558.50	-1751.12	  449.15
     17.9700	  593.00	  558.34	-1694.96	  448.99
     18.0700	  556.00	  558.18	-1731.80	  448.83
     18.1700	  442.00	  558.12	-1845.74	  448.66
     18.2700	  533.00	  557.95	-1754.57	  448.49
     18.3700	  567.00	  557.78	-1720.40	  448.32
     18.4700	  590.00	  557.61	-1697.23	  448.14
     18.5700	  569.00	  557.43	-1718.05	  447.96
     18.6700	  552.00	  557.25	-1734.87	  447.77
     18.7700	  526.00	  557.07	-1760.69	  447.59
     18.8700	  578.00	  556.88	-1708.50	  447.39
     18.9700	  594.00	  556.69	-1692.31	  447.20
     19.0700	  540.00	  556.50	-1746.12	  447.00
     19.1700	  543.00	  556.30	-1742.92	  446.80
     19.2700	  556.00	  556.11	-1729.73	  446.60
     19.3700	  527.00	  555.91	-1758.53	  446.39
     19.4700	  540.00	  555.70	-1745.32	  446.18
     19.5700	  533.00	  555.50	-1752.12	  445.96
     19.6700	  536.00	  555.29	-1748.91	  445.74
     19.7700	  546.00	  555.08	-1738.70	  445.52
     19.8700	  532.00	  554.90	-1752.52	  445.30
     19.9700	  568.00	  554.69	-1716.31	  445.07
     20.0700	  568.00	  554.47	-1716.09	  444.85
     20.1700	  537.00	  554.25	-1746.87	  444.61
     20.2700	  558.00	  554.03	-1725.65	  444.38
     20.3700	  523.00	  553.81	-1760.43	  444.14
     20.4700	  566.00	  553.58	-1717.20	  443.90
     20.5700	  566.00	  553.36	-1716.98	  443.66
     20.6700	  515.00	  553.13	-1767.75	  443.41
     20.7700	  530.00	  552.90	-1752.52	  443.16
     20.8700	  533.00	  552.67	-1749.29	  442.91
     20.9700	  566.00	  552.44	-1716.06	  442.66
     21.0700	  561.00	  552.20	-1720.82	  442.40
     21.1700	  578.00	  551.97	-1703.59	  442.15
     21.2700	  549.00	  551.73	-1732.35	  441.89
     21.3700	  575.00	  551.50	-1706.12	  441.62
     21.4700	  539.00	  551.26	-1741.88	  441.36
     21.5700	  525.00	  551.02	-1755.64	  441.09
     21.6700	  589.00	  550.79	-1691.41	  440.82
     21.7700	  586.00	  550.55	-1694.17	  440.55
     21.8700	  562.00	  550.31	-1717.93	  440.27
     21.9700	  563.00	  550.08	-1716.70	  440.00
     22.0700	  596.00	  549.85	-1683.47	  439.72
     22.1700	  582.00	  549.62	-1697.24	  439.44
     22.2700	  535.00	  549.39	-1744.01	  439.16
     22.3700	  554.00	  549.16	-1724.78	  438.87
     22.4700	  522.00	  548.90	-1756.52	  438.59
     22.5700	  542.00	  548.84	-1736.46	  438.30
     22.6700	  550.00	  548.64	-1728.26	  438.01
     22.7700	  535.00	  548.44	-1743.06	  437.72
     22.8700	  545.00	  548.25	-1732.87	  437.42
     22.9700	  542.00	  548.08	-1735.70	  437.13
     23.0700	  580.00	  547.92	-1697.54	  436.83
     23.1700	  556.00	  547.78	-1721.40	  436.53
     23.2700	  550.00	  547.67	-1727.29	  436.23
     23.3700	  562.00	  547.59	-1715.21	  435.93
     23.4700	  535.00	  547.55	-1742.17	  435.63
     23.5700	  543.00	  547.57	-1734.19	  435.32
     23.6700	  543.00	  547.67	-1734.29	  435.02
     23.7700	  553.00	  547.89	-1724.51	  434.71
     23.8700	  545.00	  548.33	-1732.95	  434.40
     23.9700	  560.00	  549.11	-1718.73	  434.09
     24.0700	  536.00	  550.51	-1744.13	  433.78
     24.1700	  595.00	  552.94	-1687.55	  433.47
     24.2700	  572.00	  556.92	-1714.54	  433.15
     24.3700	  512.00	  563.08	-1780.70	  432.84
     24.4700	  608.00	  571.84	-1693.46	  432.52
     24.5700	  568.00	  583.14	-1744.76	  432.20
     24.6700	  606.00	  595.79	-1719.41	  431.88
     24.7700	  617.00	  606.71	-1719.33	  431.56
     24.8700	  661.00	  610.82	-1679.44	  431.24
     24.9700	  600.00	  603.93	-1733.55	  430.92
     25.0700	  585.00	  588.97	-1733.59	  430.60
     25.1700	  634.00	  573.42	-1669.04	  430.27
     25.2700	  578.00	  561.50	-1713.12	  429.95
     25.3700	  583.00	  553.77	-1700.39	  429.62
     25.4700	  540.00	  549.26	-1738.88	  429.29
     25.5700	  613.00	  546.72	-1663.34	  428.97
     25.6700	  538.00	  545.21	-1736.83	  428.64
     25.7700	  536.00	  544.22	-1737.84	  428.31
     25.8700	  527.00	  543.52	-1746.14	  427.98
     25.9700	  498.00	  543.00	-1774.62	  427.65
     26.0700	  531.00	  542.62	-1741.24	  427.32
     26.1700	  564.00	  542.35	-1707.97	  426.98
     26.2700	  561.00	  542.18	-1710.80	  426.65
     26.3700	  572.00	  542.10	-1699.72	  426.32
     26.4700	  555.00	  542.12	-1716.74	  425.98
     26.5700	  571.00	  542.25	-1700.87	  425.65
     26.6700	  583.00	  542.49	-1689.11	  425.31
     26.7700	  614.00	  542.88	-1658.50	  424.98
     26.8700	  617.00	  543.43	-1656.05	  424.64
     26.9700	  572.00	  544.19	-1701.81	  424.31
     27.0700	  601.00	  545.24	-1673.86	  423.97
     27.1700	  583.00	  546.66	-1693.28	  423.63
     27.2700	  557.00	  548.65	-1721.27	  423.30
     27.3700	  546.00	  551.55	-1735.17	  422.96
     27.4700	  546.00	  556.03	-1739.64	  422.62
     27.5700	  501.00	  563.25	-1791.87	  422.28
     27.6700	  579.00	  575.16	-1725.78	  421.94
     27.7700	  618.00	  594.46	-1706.08	  421.60
     27.8700	  592.00	  623.95	-1761.57	  421.26
     27.9700	  619.00	  664.98	-1775.60	  420.93
     28.0700	  678.00	  715.22	-1766.84	  420.59
     28.1700	  778.00	  766.51	-1718.12	  420.25
     28.2700	  914.00	  803.71	-1619.33	  419.91
     28.3700	  906.00	  809.96	-1633.58	  419.57
     28.4700	  841.00	  786.39	-1675.01	  419.23
     28.5700	  781.00	  759.28	-1707.90	  418.89
     28.6700	  662.00	  751.50	-1819.11	  418.55
     28.7700	  738.00	  767.45	-1759.07	  418.21
     28.8700	  787.00	  796.36	-1738.98	  417.87
     28.9700	  813.00	  816.57	-1733.19	  417.53
     29.0700	  843.00	  804.18	-1690.80	  417.19
     29.1700	  712.00	  754.91	-1772.53	  416.85
     29.2700	  674.00	  691.84	-1747.46	  416.51
     29.3700	  627.00	  637.08	-1739.70	  416.18
     29.4700	  627.00	  598.24	-1700.86	  415.84
     29.5700	  599.00	  574.07	-1704.69	  415.50
     29.6700	  573.00	  560.22	-1716.84	  415.16
     29.7700	  599.00	  552.35	-1682.97	  414.82
     29.8700	  569.00	  547.69	-1708.31	  414.49
     29.9700	  555.00	  544.78	-1719.40	  414.15
     30.0700	  560.00	  543.05	-1712.67	  413.81
     30.1700	  576.00	  542.39	-1696.01	  413.47
     30.2700	  566.00	  543.06	-1706.68	  413.14
     30.3700	  594.00	  545.68	-1681.30	  412.80
     30.4700	  557.00	  551.29	-1723.91	  412.47
     30.5700	  551.00	  561.10	-1739.72	  412.13
     30.6700	  587.00	  575.79	-1718.41	  411.80
     30.7700	  626.00	  594.50	-1698.12	  411.47
     30.8700	  614.00	  613.78	-1729.40	  411.13
     30.9700	  585.00	  627.22	-1771.84	  410.80
     31.0700	  654.00	  627.07	-1702.69	  410.47
     31.1700	  586.00	  611.39	-1755.01	  410.14
     31.2700	  581.00	  588.32	-1736.94	  409.81
     31.3700	  553.00	  566.95	-1743.57	  409.47
     31.4700	  567.00	  551.12	-1713.73	  409.15
     31.5700	  563.00	  540.92	-1707.54	  408.82
     31.6700	  571.00	  534.94	-1693.56	  408.49
     31.7700	  494.00	  531.53	-1767.15	  408.16
     31.8700	  564.00	  529.51	-1695.13	  407.83
     31.9700	  616.00	  528.23	-1641.85	  407.51
     32.0700	  517.00	  527.38	-1740.00	  407.18
     32.1700	  522.00	  526.81	-1734.43	  406.86
     32.2700	  520.00	  526.47	-1736.09	  406.53
     32.3700	  551.00	  526.35	-1704.97	  406.21
     32.4700	  553.00	  526.43	-1703.05	  405.89
     32.5700	  544.00	  526.73	-1712.35	  405.57
     32.6700	  539.00	  527.29	-1717.91	  405.25
     32.7700	  486.00	  528.14	-1771.76	  404.93
     32.8700	  620.00	  529.36	-1638.98	  404.61
     32.9700	  571.00	  531.08	-1689.70	  404.29
     33.0700	  585.00	  533.51	-1678.13	  403.97
     33.1700	  592.00	  537.05	-1674.67	  403.66
     33.2700	  562.00	  542.51	-1710.13	  403.34
     33.3700	  512.00	  551.51	-1769.13	  403.03
     33.4700	  593.00	  566.96	-1703.58	  402.71
     33.5700	  561.00	  593.39	-1762.01	  402.40
     33.6700	  606.00	  636.41	-1760.03	  402.09
     33.7700	  731.00	  700.17	-1698.79	  401.78
     33.8700	  795.00	  782.68	-1717.30	  401.47
     33.9700	  904.00	  871.14	-1696.76	  401.16
     34.0700	 1000.00	  939.86	-1669.48	  400.86
     34.1700	  999.00	  956.05	-1686.67	  400.55
     34.2700	  939.00	  904.88	-1695.50	  400.24
     34.3700	  890.00	  812.83	-1652.45	  399.94
     34.4700	  703.00	  719.27	-1745.89	  399.64
     34.5700	  654.00	  645.35	-1720.97	  399.34
     34.6700	  568.00	  595.26	-1756.87	  399.04
     34.7700	  560.00	  564.77	-1734.39	  398.74
     34.8700	  583.00	  547.27	-1693.89	  398.44
     34.9700	  571.00	  537.11	-1695.73	  398.14
     35.0700	  559.00	  530.75	-1701.37	  397.85
     35.1700	  539.00	  526.34	-1716.96	  397.55
     35.2700	  541.00	  523.02	-1711.64	  397.26
     35.3700	  579.00	  520.40	-1671.02	  396.97
     35.4700	  546.00	  518.26	-1701.88	  396.68
     35.5700	  527.00	  516.93	-1719.55	  396.39
     35.6700	  516.00	  515.43	-1729.05	  396.10
     35.7700	  492.00	  514.15	-1751.77	  395.82
     35.8700	  497.00	  513.03	-1745.65	  395.53
     35.9700	  511.00	  512.05	-1730.67	  395.25
     36.0700	  510.00	  511.18	-1730.80	  394.96
     36.1700	  527.00	  510.40	-1713.02	  394.68
     36.2700	  528.00	  509.72	-1711.34	  394.40
     36.3700	  524.00	  509.09	-1714.71	  394.12
     36.4700	  505.00	  508.52	-1733.14	  393.85
     36.5700	  497.00	  508.00	-1740.62	  393.57
     36.6700	  489.00	  507.54	-1748.16	  393.30
     36.7700	  499.00	  507.14	-1737.76	  393.02
     36.8700	  510.00	  506.82	-1726.44	  392.75
     36.9700	  497.00	  506.59	-1739.21	  392.48
     37.0700	  506.00	  506.54	-1730.16	  392.21
     37.1700	  469.00	  506.77	-1767.39	  391.95
     37.2700	  514.00	  507.44	-1723.06	  391.68
     37.3700	  547.00	  508.74	-1691.36	  391.42
     37.4700	  509.00	  510.73	-1731.35	  391.15
     37.5700	  484.00	  513.28	-1758.90	  390.89
     37.6700	  536.00	  515.85	-1709.47	  390.63
     37.7700	  533.00	  517.53	-1714.15	  390.38
     37.8700	  494.00	  517.39	-1753.01	  390.12
     37.9700	  476.00	  515.34	-1768.96	  389.86
     38.0700	  535.00	  512.47	-1707.09	  389.61
     38.1700	  476.00	  509.39	-1763.01	  389.36
     38.2700	  502.00	  506.71	-1734.33	  389.11
     38.3700	  502.00	  504.62	-1732.24	  388.86
     38.4700	  469.00	  503.10	-1763.72	  388.61
     38.5700	  516.00	  502.03	-1715.65	  388.37
     38.6700	  497.00	  501.27	-1733.89	  388.12
     38.7700	  474.00	  500.71	-1756.33	  387.88
     38.8700	  498.00	  500.26	-1731.88	  387.64
     38.9700	  481.00	  499.88	-1748.50	  387.40
     39.0700	  552.00	  499.55	-1677.17	  387.16
     39.1700	  469.00	  499.24	-1759.86	  386.92
     39.2700	  499.00	  498.87	-1729.49	  386.69
     39.3700	  518.00	  498.60	-1710.22	  386.46
     39.4700	  506.00	  498.36	-1721.98	  386.23
     39.5700	  512.00	  498.12	-1715.74	  386.00
     39.6700	  494.00	  497.90	-1733.52	  385.77
     39.7700	  484.00	  497.69	-1743.31	  385.54
     39.8700	  509.00	  497.49	-1718.11	  385.32
     39.9700	  496.00	  497.30	-1730.92	  385.09
     40.0700	  498.00	  497.13	-1728.75	  384.87
     40.1700	  483.00	  496.87	-1743.49	  384.65
     40.2700	  524.00	  496.72	-1702.34	  384.43
     40.3700	  490.00	  496.59	-1736.21	  384.22
     40.4700	  479.00	  496.47	-1747.09	  384.00
     40.5700	  526.00	  496.88	-1700.50	  383.79
     40.6700	  470.00	  496.80	-1756.42	  383.58
     40.7700	  495.00	  496.75	-1731.36	  383.37
     40.8700	  510.00	  496.72	-1716.34	  383.16
     40.9700	  483.00	  496.72	-1743.34	  382.96
     41.0700	  528.00	  496.75	-1698.37	  382.75
     41.1700	  444.00	  496.84	-1782.46	  382.55
     41.2700	  517.00	  496.97	-1709.59	  382.35
     41.3700	  490.00	  497.17	-1736.79	  382.15
     41.4700	  501.00	  497.46	-1726.08	  381.95
     41.5700	  462.00	  497.86	-1765.48	  381.76
     41.6700	  481.00	  498.43	-1747.05	  381.56
     41.7700	  520.00	  499.26	-1708.88	  381.37
     41.8700	  452.00	  500.59	-1778.21	  381.18
     41.9700	  472.00	  502.68	-1760.30	  380.99
     42.0700	  484.00	  506.26	-1751.88	  380.80
     42.1700	  506.00	  512.45	-1736.07	  380.62
     42.2700	  481.00	  522.38	-1771.00	  380.44
     42.3700	  513.00	  537.31	-1753.93	  380.25
     42.4700	  557.00	  557.46	-1730.08	  380.07
     42.5700	  560.00	  580.98	-1750.60	  379.90
     42.6700	  570.00	  603.19	-1762.81	  379.72
     42.7700	  564.00	  616.58	-1782.20	  379.54
     42.8700	  574.00	  614.66	-1770.28	  379.37
     42.9700	  593.00	  598.10	-1734.72	  379.20
     43.0700	  545.00	  574.12	-1758.74	  379.03
     43.1700	  495.00	  550.54	-1785.16	  378.86
     43.2700	  525.00	  531.38	-1736.00	  378.70
     43.3700	  508.00	  517.72	-1739.34	  378.53
     43.4700	  527.00	  508.88	-1711.50	  378.37
     43.5700	  491.00	  503.54	-1742.16	  378.21
     43.6700	  528.00	  500.38	-1702.00	  378.05
     43.7700	  539.00	  498.45	-1689.07	  377.90
     43.8700	  488.00	  497.17	-1738.79	  377.74
     43.9700	  459.00	  496.26	-1766.88	  377.59
     44.0700	  472.00	  495.57	-1753.19	  377.44
     44.1700	  512.00	  495.02	-1712.64	  377.29
     44.2700	  445.00	  494.58	-1779.20	  377.14
     44.3700	  466.00	  494.43	-1758.05	  376.99
     44.4700	  534.00	  494.14	-1689.76	  376.85
     44.5700	  472.00	  493.91	-1751.53	  376.71
     44.6700	  475.00	  493.73	-1748.35	  376.57
     44.7700	  495.00	  493.59	-1728.21	  376.43
     44.8700	  535.00	  493.48	-1688.10	  376.29
     44.9700	  480.00	  493.41	-1743.03	  376.16
     45.0700	  503.00	  493.37	-1719.99	  376.02
     45.1700	  468.00	  493.35	-1754.97	  375.89
     45.2700	  527.00	  493.37	-1695.99	  375.76
     45.3700	  508.00	  493.41	-1715.03	  375.63
     45.4700	  520.00	  493.48	-1703.10	  375.51
     45.5700	  528.00	  493.58	-1695.20	  375.38
     45.6700	  536.00	  493.70	-1687.32	  375.26
     45.7700	  491.00	  493.86	-1732.48	  375.14
     45.8700	  535.00	  494.05	-1688.67	  375.02
     45.9700	  486.00	  494.19	-1737.81	  374.90
     46.0700	  492.00	  494.46	-1732.08	  374.78
     46.1700	  472.00	  494.80	-1752.42	  374.67
     46.2700	  473.00	  495.16	-1751.78	  374.56
     46.3700	  512.00	  495.58	-1713.20	  374.45
     46.4700	  514.00	  496.05	-1711.67	  374.34
     46.5700	  491.00	  496.62	-1735.24	  374.23
     46.6700	  483.00	  497.27	-1743.89	  374.13
     46.7700	  474.00	  498.03	-1753.65	  374.02
     46.8700	  509.00	  498.95	-1719.57	  373.92
     46.9700	  489.00	  500.12	-1740.74	  373.82
     47.0700	  516.00	  501.69	-1715.31	  373.72
     47.1700	  484.00	  503.94	-1749.56	  373.63
     47.2700	  522.00	  507.35	-1714.97	  373.53
     47.3700	  481.00	  512.55	-1761.17	  373.44
     47.4700	  517.00	  520.26	-1732.88	  373.35
     47.5700	  510.00	  531.01	-1750.63	  373.26
     47.6700	  570.00	  544.70	-1704.32	  373.17
     47.7700	  567.00	  560.16	-1722.78	  373.09
     47.8700	  596.00	  574.70	-1708.32	  373.00
     47.9700	  541.00	  584.31	-1772.93	  372.92
     48.0700	  591.00	  585.50	-1724.12	  372.84
     48.1700	  538.00	  578.40	-1770.02	  372.76
     48.2700	  560.00	  566.79	-1736.41	  372.68
     48.3700	  523.00	  554.88	-1761.49	  372.61
     48.4700	  539.00	  545.70	-1736.32	  372.53
     48.5700	  576.00	  539.55	-1693.17	  372.46
     48.6700	  515.00	  536.92	-1751.54	  372.39
     48.7700	  516.00	  537.39	-1751.01	  372.32
     48.8700	  529.00	  540.42	-1741.03	  372.26
     48.9700	  541.00	  545.68	-1734.30	  372.19
     49.0700	  557.00	  553.26	-1725.88	  372.13
     49.1700	  504.00	  563.83	-1789.45	  372.06
     49.2700	  550.00	  579.09	-1758.71	  372.00
     49.3700	  615.00	  602.48	-1717.10	  371.94
     49.4700	  560.00	  640.16	-1809.78	  371.89
     49.5700	  676.00	  701.90	-1755.52	  371.83
     49.6700	  698.00	  800.90	-1832.52	  371.78
     49.7700	  839.00	  951.22	-1841.84	  371.73
     49.8700	 1055.00	 1162.42	-1837.04	  371.68
     49.9700	 1390.00	 1431.63	-1771.25	  371.63
     50.0700	 1772.00	 1734.48	-1692.10	  371.58
     50.1700	 2075.00	 2017.79	-1672.41	  371.53
     50.2700	 2317.00	 2201.82	-1614.44	  371.49
     50.3700	 2353.00	 2213.89	-1590.51	  371.45
     50.4700	 2154.00	 2047.10	-1622.72	  371.41
     50.5700	 1695.00	 1770.20	-1804.82	  371.37
     50.6700	 1449.00	 1468.09	-1748.71	  371.33
     50.7700	 1128.00	 1198.49	-1800.11	  371.29
     50.8700	  860.00	  988.07	-1857.69	  371.26
     50.9700	  766.00	  840.79	-1804.41	  371.23
     51.0700	  668.00	  747.10	-1808.72	  371.19
     51.1700	  630.00	  690.54	-1790.16	  371.16
     51.2700	  592.00	  655.68	-1793.30	  371.14
     51.3700	  665.00	  630.83	-1695.45	  371.11
     51.4700	  570.00	  610.10	-1769.72	  371.08
     51.5700	  596.00	  591.95	-1725.57	  371.06
     51.6700	  599.00	  576.51	-1707.13	  371.04
     51.7700	  566.00	  564.06	-1727.68	  371.02
     51.8700	  546.00	  554.63	-1738.25	  371.00
     51.9700	  571.00	  547.94	-1706.55	  370.98
     52.0700	  556.00	  543.55	-1717.17	  370.96
     52.1700	  543.00	  541.02	-1727.64	  370.95
     52.2700	  556.00	  540.03	-1713.65	  370.94
     52.3700	  529.00	  540.42	-1741.04	  370.92
     52.4700	  524.00	  542.34	-1747.96	  370.91
     52.5700	  549.00	  546.31	-1726.93	  370.91
     52.6700	  564.00	  553.51	-1719.12	  370.90
     52.7700	  568.00	  565.98	-1727.60	  370.89
     52.8700	  594.00	  586.98	-1722.60	  370.89
     52.9700	  623.00	  620.80	-1727.42	  370.89
     53.0700	  699.00	  672.12	-1702.74	  370.88
     53.1700	  816.00	  744.32	-1657.94	  370.88
     53.2700	  841.00	  837.31	-1725.93	  370.88
     53.3700	  981.00	  944.86	-1693.47	  370.89
     53.4700	 1073.00	 1052.25	-1708.87	  370.89
     53.5700	 1092.00	 1135.55	-1773.16	  370.90
     53.6700	 1210.00	 1167.66	-1687.28	  370.90
     53.7700	 1084.00	 1135.40	-1781.02	  370.91
     53.8700	 1047.00	 1051.62	-1734.24	  370.92
     53.9700	  917.00	  944.04	-1756.66	  370.93
     54.0700	  852.00	  836.88	-1714.50	  370.94
     54.1700	  699.00	  744.74	-1775.36	  370.96
     54.2700	  674.00	  673.58	-1729.20	  370.97
     54.3700	  631.00	  623.40	-1722.02	  370.99
     54.4700	  593.00	  590.68	-1727.30	  371.01
     54.5700	  610.00	  570.71	-1690.33	  371.03
     54.6700	  536.00	  559.17	-1752.79	  371.05
     54.7700	  588.00	  552.84	-1694.46	  371.07
     54.8700	  534.00	  549.65	-1745.27	  371.09
     54.9700	  533.00	  548.46	-1745.08	  371.11
     55.0700	  526.00	  548.67	-1752.29	  371.14
     55.1700	  616.00	  550.02	-1663.64	  371.16
     55.2700	  567.00	  552.45	-1715.07	  371.19
     55.3700	  556.00	  556.00	-1729.62	  371.22
     55.4700	  577.00	  560.79	-1713.41	  371.25
     55.5700	  604.00	  567.10	-1692.72	  371.28
     55.6700	  608.00	  575.44	-1697.06	  371.31
     55.7700	  610.00	  586.79	-1706.41	  371.35
     55.8700	  614.00	  602.98	-1718.60	  371.38
     55.9700	  651.00	  627.37	-1705.99	  371.42
     56.0700	  646.00	  665.62	-1749.24	  371.46
     56.1700	  708.00	  726.29	-1747.91	  371.49
     56.2700	  757.00	  820.92	-1793.54	  371.53
     56.3700	  889.00	  962.19	-1802.81	  371.57
     56.4700	 1082.00	 1160.60	-1808.22	  371.62
     56.5700	 1373.00	 1418.94	-1775.56	  371.66
     56.6700	 1728.00	 1726.37	-1727.99	  371.70
     56.7700	 2078.00	 2052.46	-1704.08	  371.75
     56.8700	 2259.00	 2343.02	-1813.64	  371.79
     56.9700	 2533.00	 2525.42	-1722.04	  371.84
     57.0700	 2564.00	 2538.29	-1703.91	  371.89
     57.1700	 2325.00	 2376.51	-1781.13	  371.94
     57.2700	 2085.00	 2096.61	-1741.23	  371.99
     57.3700	 1716.00	 1773.38	-1787.00	  372.04
     57.4700	 1453.00	 1464.25	-1740.87	  372.09
     57.5700	 1168.00	 1202.49	-1764.11	  372.14
     57.6700	  933.00	 1001.10	-1797.72	  372.20
     57.7700	  840.00	  858.90	-1748.52	  372.25
     57.8700	  778.00	  766.67	-1718.29	  372.31
     57.9700	  676.00	  712.68	-1766.30	  372.37
     58.0700	  734.00	  686.68	-1682.30	  372.43
     58.1700	  670.00	  681.62	-1741.24	  372.48
     58.2700	  791.00	  693.70	-1632.32	  372.54
     58.3700	  740.00	  721.39	-1711.01	  372.61
     58.4700	  807.00	  764.03	-1686.65	  372.67
     58.5700	  841.00	  820.41	-1709.03	  372.73
     58.6700	  923.00	  887.38	-1694.00	  372.79
     58.7700	 1081.00	  958.96	-1607.58	  372.86
     58.8700	 1096.00	 1027.45	-1661.07	  372.92
     58.9700	 1204.00	 1086.69	-1612.31	  372.99
     59.0700	 1222.00	 1133.14	-1640.76	  373.06
     59.1700	 1244.00	 1163.03	-1648.65	  373.12
     59.2700	 1326.00	 1172.16	-1575.78	  373.19
     59.3700	 1232.00	 1161.81	-1659.43	  373.26
     59.4700	 1317.00	 1141.52	-1554.14	  373.33
     59.5700	 1246.00	 1123.39	-1607.01	  373.40
     59.6700	 1234.00	 1116.06	-1611.68	  373.48
     59.7700	 1180.00	 1124.83	-1674.45	  373.55
     59.8700	 1179.00	 1154.47	-1705.09	  373.62
     59.9700	 1293.00	 1208.80	-1645.42	  373.70
     60.0700	 1305.00	 1286.03	-1710.65	  373.77
     60.1700	 1473.00	 1374.88	-1631.50	  373.85
     60.2700	 1501.00	 1453.70	-1682.32	  373.92
     60.3700	 1533.00	 1493.97	-1690.59	  374.00
     60.4700	 1539.00	 1473.15	-1663.77	  374.08
     60.5700	 1344.00	 1389.97	-1775.59	  374.16
     60.6700	 1304.00	 1264.82	-1690.44	  374.24
     60.7700	 1095.00	 1124.49	-1759.11	  374.32
     60.8700	 1041.00	  990.37	-1678.99	  374.40
     60.9700	  854.00	  875.66	-1751.28	  374.48
     61.0700	  797.00	  786.69	-1719.31	  374.56
     61.1700	  683.00	  724.71	-1771.33	  374.64
     61.2700	  709.00	  688.20	-1708.82	  374.73
     61.3700	  640.00	  674.96	-1764.58	  374.81
     61.4700	  718.00	  683.67	-1695.29	  374.89
     61.5700	  694.00	  714.55	-1750.17	  374.98
     61.6700	  743.00	  768.74	-1755.36	  375.06
     61.7700	  787.00	  847.00	-1789.62	  375.15
     61.8700	  962.00	  947.70	-1715.32	  375.23
     61.9700	 1032.00	 1064.94	-1762.56	  375.32
     62.0700	 1129.00	 1186.92	-1787.54	  375.41
     62.1700	 1236.00	 1294.87	-1788.49	  375.50
     62.2700	 1267.00	 1364.88	-1827.50	  375.58
     62.3700	 1292.00	 1376.26	-1813.88	  375.67
     62.4700	 1300.00	 1324.63	-1754.25	  375.76
     62.5700	 1172.00	 1225.40	-1783.02	  375.85
     62.6700	 1090.00	 1102.71	-1742.33	  375.94
     62.7700	  944.00	  977.76	-1763.38	  376.03
     62.8700	  792.00	  864.83	-1802.45	  376.12
     62.9700	  756.00	  771.49	-1745.11	  376.22
     63.0700	  673.00	  699.97	-1756.59	  376.31
     63.1700	  614.00	  648.77	-1764.39	  376.40
     63.2700	  621.00	  614.34	-1722.96	  376.49
     63.3700	  567.00	  592.56	-1755.18	  376.58
     63.4700	  555.00	  579.84	-1754.46	  376.68
     63.5700	  571.00	  573.68	-1732.30	  376.77
     63.6700	  596.00	  572.70	-1706.32	  376.86
     63.7700	  592.00	  576.73	-1714.35	  376.96
     63.8700	  620.00	  586.45	-1696.07	  377.05
     63.9700	  613.00	  603.20	-1719.82	  377.15
     64.0700	  606.00	  628.59	-1752.21	  377.24
     64.1700	  717.00	  663.77	-1676.39	  377.34
     64.2700	  710.00	  709.09	-1728.71	  377.43
     64.3700	  830.00	  763.25	-1662.87	  377.53
     64.4700	  862.00	  822.68	-1690.30	  377.62
     64.5700	  939.00	  881.10	-1671.72	  377.72
     64.6700	  921.00	  929.74	-1738.36	  377.82
     64.7700	 1010.00	  959.45	-1679.07	  377.91
     64.8700	  957.00	  964.60	-1737.22	  378.01
     64.9700	  975.00	  945.53	-1700.15	  378.11
     65.0700	  931.00	  907.70	-1706.32	  378.20
     65.1700	  842.00	  858.75	-1746.37	  378.30
     65.2700	  876.00	  807.79	-1661.41	  378.40
     65.3700	  782.00	  759.89	-1707.51	  378.50
     65.4700	  743.00	  718.09	-1704.71	  378.59
     65.5700	  677.00	  682.87	-1735.49	  378.69
     65.6700	  620.00	  653.58	-1763.20	  378.79
     65.7700	  582.00	  629.50	-1777.12	  378.89
     65.8700	  619.00	  610.12	-1720.74	  378.98
     65.9700	  522.00	  595.01	-1802.63	  379.08
     66.0700	  587.00	  583.68	-1726.30	  379.18
     66.1700	  563.00	  575.66	-1742.28	  379.28
     66.2700	  563.00	  570.53	-1737.15	  379.37
     66.3700	  531.00	  567.92	-1766.54	  379.47
     66.4700	  560.00	  567.67	-1737.29	  379.57
     66.5700	  577.00	  569.37	-1721.99	  379.67
     66.6700	  559.00	  573.32	-1743.94	  379.76
     66.7700	  547.00	  579.50	-1762.12	  379.86
     66.8700	  584.00	  588.85	-1734.47	  379.96
     66.9700	  565.00	  602.86	-1767.48	  380.06
     67.0700	  577.00	  624.06	-1776.68	  380.15
     67.1700	  655.00	  656.27	-1730.89	  380.25
     67.2700	  678.00	  704.79	-1756.41	  380.35
     67.3700	  798.00	  776.26	-1707.88	  380.45
     67.4700	  890.00	  877.59	-1717.21	  380.54
     67.5700	  942.00	 1015.01	-1802.63	  380.64
     67.6700	 1197.00	 1191.70	-1724.32	  380.74
     67.7700	 1423.00	 1405.50	-1712.12	  380.83
     67.8700	 1608.00	 1646.78	-1768.40	  380.93
     67.9700	 1933.00	 1896.59	-1693.21	  381.02
     68.0700	 2145.00	 2125.75	-1710.37	  381.12
     68.1700	 2380.00	 2296.32	-1645.94	  381.22
     68.2700	 2412.00	 2370.66	-1688.28	  381.31
     68.3700	 2284.00	 2329.25	-1774.87	  381.41
     68.4700	 2176.00	 2183.25	-1736.87	  381.50
     68.5700	 1924.00	 1967.08	-1772.70	  381.60
     68.6700	 1803.00	 1719.99	-1646.61	  381.69
     68.7700	 1487.00	 1474.20	-1716.82	  381.78
     68.8700	 1245.00	 1251.53	-1736.15	  381.88
     68.9700	 1029.00	 1064.13	-1764.75	  381.97
     69.0700	  863.00	  915.98	-1782.60	  382.06
     69.1700	  778.00	  805.23	-1756.85	  382.16
     69.2700	  727.00	  726.39	-1729.01	  382.25
     69.3700	  708.00	  672.47	-1694.09	  382.34
     69.4700	  668.00	  636.42	-1698.04	  382.43
     69.5700	  611.00	  612.88	-1731.50	  382.52
     69.6700	  603.00	  597.39	-1724.01	  382.61
     69.7700	  595.00	  587.04	-1721.66	  382.70
     69.8700	  562.00	  579.97	-1747.59	  382.79
     69.9700	  574.00	  575.07	-1730.69	  382.88
     70.0700	  613.00	  571.72	-1688.34	  382.97
     70.1700	  569.00	  569.59	-1730.21	  383.06
     70.2700	  603.00	  568.52	-1695.14	  383.15
     70.3700	  632.00	  568.48	-1666.09	  383.24
     70.4700	  586.00	  569.53	-1713.15	  383.32
     70.5700	  564.00	  571.91	-1737.53	  383.41
     70.6700	  531.00	  576.94	-1775.56	  383.50
     70.7700	  590.00	  583.57	-1723.18	  383.58
     70.8700	  570.00	  593.90	-1753.52	  383.67
     70.9700	  569.00	  609.85	-1770.47	  383.75
     71.0700	  613.00	  634.15	-1750.77	  383.83
     71.1700	  675.00	  670.33	-1724.95	  383.92
     71.2700	  670.00	  722.61	-1782.23	  384.00
     71.3700	  772.00	  795.37	-1752.99	  384.08
     71.4700	  917.00	  892.27	-1704.88	  384.16
     71.5700	  983.00	 1015.10	-1761.72	  384.24
     71.6700	 1157.00	 1162.59	-1735.21	  384.32
     71.7700	 1297.00	 1329.05	-1761.67	  384.40
     71.8700	 1444.00	 1503.60	-1789.22	  384.48
     71.9700	 1593.00	 1669.47	-1806.09	  384.56
     72.0700	 1853.00	 1804.53	-1681.15	  384.64
     72.1700	 1805.00	 1884.71	-1809.33	  384.72
     72.2700	 1885.00	 1892.34	-1736.96	  384.79
     72.3700	 1878.00	 1825.58	-1677.20	  384.87
     72.4700	 1575.00	 1699.51	-1854.13	  384.94
     72.5700	 1624.00	 1537.78	-1643.39	  385.02
     72.6700	 1450.00	 1363.28	-1642.90	  385.09
     72.7700	 1213.00	 1193.90	-1710.52	  385.16
     72.8700	 1102.00	 1041.60	-1669.22	  385.23
     72.9700	  958.00	  912.93	-1684.55	  385.31
     73.0700	  817.00	  809.91	-1722.53	  385.38
     73.1700	  744.00	  731.25	-1716.87	  385.45
     73.2700	  757.00	  673.61	-1646.23	  385.51
     73.3700	  715.00	  632.76	-1647.38	  385.58
     73.4700	  651.00	  604.48	-1683.10	  385.65
     73.5700	  638.00	  585.12	-1676.74	  385.72
     73.6700	  633.00	  571.33	-1667.95	  385.78
     73.7700	  605.00	  562.12	-1686.74	  385.84
     73.8700	  603.00	  555.64	-1682.26	  385.91
     73.9700	  604.00	  551.03	-1676.65	  385.97
     74.0700	  550.00	  547.78	-1727.40	  386.03
     74.1700	  569.00	  545.57	-1706.19	  386.09
     74.2700	  577.00	  544.18	-1696.80	  386.15
     74.3700	  568.00	  543.41	-1705.03	  386.21
     74.4700	  593.00	  543.08	-1679.70	  386.27
     74.5700	  574.00	  542.96	-1698.58	  386.33
     74.6700	  617.00	  542.83	-1655.44	  386.39
     74.7700	  673.00	  542.42	-1599.04	  386.44
     74.8700	  634.00	  541.57	-1637.19	  386.49
     74.9700	  658.00	  540.25	-1611.87	  386.55
     75.0700	  570.00	  538.62	-1698.24	  386.60
     75.1700	  609.00	  536.94	-1657.56	  386.65
     75.2700	  629.00	  535.53	-1636.15	  386.70
     75.3700	  530.00	  534.72	-1734.34	  386.75
     75.4700	  594.00	  534.87	-1670.49	  386.80
     75.5700	  622.00	  536.40	-1644.02	  386.85
     75.6700	  597.00	  539.72	-1672.34	  386.89
     75.7700	  546.00	  545.31	-1728.93	  386.94
     75.8700	  589.00	  553.58	-1694.20	  386.98
     75.9700	  588.00	  564.83	-1706.45	  387.03
     76.0700	  628.00	  579.28	-1680.90	  387.07
     76.1700	  613.00	  596.69	-1713.31	  387.11
     76.2700	  656.00	  616.44	-1690.06	  387.15
     76.3700	  597.00	  637.42	-1770.04	  387.19
     76.4700	  667.00	  657.88	-1720.50	  387.23
     76.5700	  702.00	  675.79	-1703.41	  387.26
     76.6700	  674.00	  688.52	-1744.14	  387.30
     76.7700	  707.00	  693.78	-1716.39	  387.33
     76.8700	  686.00	  690.45	-1734.07	  387.37
     76.9700	  698.00	  679.16	-1710.78	  387.40
     77.0700	  632.00	  661.95	-1759.57	  387.43
     77.1700	  632.00	  641.31	-1738.93	  387.46
     77.2700	  635.00	  619.67	-1714.29	  387.49
     77.3700	  553.00	  598.78	-1775.40	  387.51
     77.4700	  574.00	  579.89	-1735.51	  387.54
     77.5700	  547.00	  563.72	-1746.33	  387.56
     77.6700	  531.00	  550.52	-1749.14	  387.59
     77.7700	  536.00	  540.21	-1733.83	  387.61
     77.8700	  509.00	  532.46	-1753.08	  387.63
     77.9700	  494.00	  526.83	-1762.45	  387.65
     78.0700	  515.00	  522.64	-1737.26	  387.67
     78.1700	  508.00	  519.88	-1741.50	  387.69
     78.2700	  526.00	  517.98	-1721.60	  387.70
     78.3700	  500.00	  516.67	-1746.29	  387.72
     78.4700	  499.00	  515.76	-1746.38	  387.73
     78.5700	  466.00	  515.13	-1778.75	  387.74
     78.6700	  474.00	  514.71	-1770.33	  387.76
     78.7700	  487.00	  514.44	-1757.06	  387.77
     78.8700	  490.00	  514.30	-1753.92	  387.77
     78.9700	  472.00	  514.31	-1771.93	  387.78
     79.0700	  507.00	  514.46	-1737.08	  387.79
     79.1700	  484.00	  514.78	-1760.40	  387.79
     79.2700	  518.00	  515.30	-1726.92	  387.79
     79.3700	  507.00	  516.06	-1738.68	  387.80
     79.4700	  514.00	  517.09	-1732.71	  387.80
     79.5700	  510.00	  518.46	-1738.08	  387.79
     79.6700	  506.00	  520.22	-1743.84	  387.79
     79.7700	  470.00	  522.44	-1782.06	  387.79
     79.8700	  526.00	  525.21	-1728.83	  387.78
     79.9700	  532.00	  528.63	-1726.25	  387.78
     80.0700	  530.00	  532.83	-1732.45	  387.77
     80.1700	  529.00	  537.93	-1738.55	  387.76
     80.2700	  514.00	  544.10	-1759.72	  387.75
     80.3700	  550.00	  551.51	-1731.13	  387.74
     80.4700	  524.00	  560.18	-1765.80	  387.72
     80.5700	  612.00	  570.67	-1688.29	  387.71
     80.6700	  586.00	  582.85	-1726.47	  387.69
     80.7700	  572.00	  596.60	-1754.21	  387.67
     80.8700	  585.00	  611.52	-1756.14	  387.66
     80.9700	  570.00	  626.98	-1786.60	  387.63
     81.0700	  632.00	  642.07	-1739.69	  387.61
     81.1700	  677.00	  655.80	-1708.42	  387.59
     81.2700	  652.00	  667.32	-1744.94	  387.56
     81.3700	  673.00	  676.02	-1732.64	  387.54
     81.4700	  690.00	  681.60	-1721.22	  387.51
     81.5700	  701.00	  683.94	-1712.56	  387.48
     81.6700	  739.00	  683.10	-1673.72	  387.45
     81.7700	  736.00	  679.23	-1672.85	  387.42
     81.8700	  691.00	  672.54	-1711.16	  387.38
     81.9700	  695.00	  663.29	-1697.91	  387.35
     82.0700	  672.00	  651.96	-1709.58	  387.31
     82.1700	  695.00	  639.24	-1673.86	  387.27
     82.2700	  683.00	  625.89	-1672.51	  387.23
     82.3700	  634.00	  612.56	-1708.18	  387.19
     82.4700	  596.00	  599.66	-1733.28	  387.15
     82.5700	  599.00	  587.45	-1718.07	  387.10
     82.6700	  597.00	  576.13	-1708.75	  387.06
     82.7700	  597.00	  565.91	-1698.53	  387.01
     82.8700	  571.00	  557.01	-1715.63	  386.96
     82.9700	  537.00	  549.60	-1742.22	  386.91
     83.0700	  579.00	  543.79	-1694.41	  386.86
     83.1700	  523.00	  539.61	-1746.23	  386.80
     83.2700	  555.00	  537.04	-1711.65	  386.75
     83.3700	  514.00	  536.01	-1751.63	  386.69
     83.4700	  559.00	  536.39	-1707.01	  386.63
     83.5700	  501.00	  538.01	-1766.63	  386.57
     83.6700	  513.00	  540.55	-1757.17	  386.51
     83.7700	  530.00	  543.80	-1743.42	  386.45
     83.8700	  522.00	  547.33	-1754.95	  386.38
     83.9700	  570.00	  550.63	-1710.25	  386.31
     84.0700	  547.00	  553.28	-1735.90	  386.25
     84.1700	  532.00	  554.77	-1752.39	  386.18
     84.2700	  541.00	  554.77	-1743.39	  386.11
     84.3700	  516.00	  553.17	-1766.79	  386.03
     84.4700	  560.00	  550.17	-1719.79	  385.96
     84.5700	  534.00	  546.12	-1741.74	  385.88
     84.6700	  531.00	  541.45	-1740.07	  385.80
     84.7700	  527.00	  536.56	-1739.18	  385.73
     84.8700	  521.00	  531.78	-1740.40	  385.64
     84.9700	  519.00	  527.35	-1737.97	  385.56
     85.0700	  486.00	  523.44	-1767.06	  385.48
     85.1700	  496.00	  520.13	-1753.75	  385.39
     85.2700	  521.00	  517.43	-1726.05	  385.31
     85.3700	  497.00	  515.34	-1747.96	  385.22
     85.4700	  516.00	  513.79	-1727.41	  385.13
     85.5700	  499.00	  512.72	-1743.34	  385.03
     85.6700	  462.00	  512.07	-1779.69	  384.94
     85.7700	  495.00	  511.78	-1746.40	  384.85
     85.8700	  496.00	  511.83	-1745.45	  384.75
     85.9700	  496.00	  512.23	-1745.85	  384.65
     86.0700	  524.00	  513.01	-1718.63	  384.55
     86.1700	  470.00	  514.26	-1773.88	  384.45
     86.2700	  522.00	  516.08	-1723.69	  384.34
     86.3700	  509.00	  518.61	-1739.23	  384.24
     86.4700	  518.00	  522.01	-1733.63	  384.13
     86.5700	  489.00	  526.45	-1767.07	  384.02
     86.6700	  548.00	  532.08	-1713.70	  383.91
     86.7700	  565.00	  538.99	-1703.61	  383.80
     86.8700	  534.00	  547.22	-1742.84	  383.69
     86.9700	  549.00	  556.66	-1737.28	  383.58
     87.0700	  610.00	  567.12	-1686.74	  383.46
     87.1700	  604.00	  578.22	-1703.84	  383.34
     87.2700	  594.00	  589.41	-1725.03	  383.22
     87.3700	  605.00	  600.02	-1724.64	  383.10
     87.4700	  593.00	  609.19	-1745.81	  382.98
     87.5700	  609.00	  616.04	-1736.66	  382.85
     87.6700	  621.00	  619.79	-1728.40	  382.73
     87.7700	  634.00	  619.98	-1715.60	  382.60
     87.8700	  644.00	  616.69	-1702.31	  382.47
     87.9700	  650.00	  610.46	-1690.08	  382.34
     88.0700	  627.00	  602.15	-1704.77	  382.21
     88.1700	  570.00	  592.70	-1752.32	  382.07
     88.2700	  562.00	  582.62	-1750.24	  381.94
     88.3700	  513.00	  573.48	-1790.10	  381.80
     88.4700	  580.00	  565.50	-1715.12	  381.66
     88.5700	  575.00	  559.14	-1713.76	  381.52
     88.6700	  566.00	  554.66	-1718.28	  381.38
     88.7700	  520.00	  552.19	-1761.81	  381.23
     88.8700	  596.00	  551.65	-1685.27	  381.09
     88.9700	  554.00	  552.86	-1728.48	  380.94
     89.0700	  569.00	  555.49	-1716.11	  380.79
     89.1700	  560.00	  559.11	-1728.73	  380.64
     89.2700	  543.00	  563.22	-1749.84	  380.49
     89.3700	  583.00	  567.23	-1713.85	  380.34
     89.4700	  561.00	  570.56	-1739.18	  380.18
     89.5700	  651.00	  572.64	-1651.26	  380.03
     89.6700	  564.00	  573.06	-1738.68	  379.87
     89.7700	  552.00	  571.63	-1749.25	  379.71
     89.8700	  553.00	  568.47	-1745.09	  379.55
     89.9700	  567.00	  563.90	-1726.52	  379.38
     90.0700	  553.00	  558.36	-1734.98	  379.22
     90.1700	  532.00	  552.30	-1749.92	  379.05
     90.2700	  548.00	  546.13	-1727.75	  378.89
     90.3700	  501.00	  540.17	-1768.79	  378.72
     90.4700	  497.00	  534.68	-1767.30	  378.55
     90.5700	  510.00	  529.82	-1749.44	  378.37
     90.6700	  508.00	  525.69	-1747.31	  378.20
     90.7700	  513.00	  522.32	-1738.94	  378.03
     90.8700	  528.00	  519.70	-1721.32	  377.85
     90.9700	  515.00	  517.76	-1732.38	  377.67
     91.0700	  473.00	  516.46	-1773.08	  377.49
     91.1700	  511.00	  515.72	-1734.34	  377.31
     91.2700	  517.00	  515.49	-1728.11	  377.13
     91.3700	  497.00	  515.74	-1748.36	  376.94
     91.4700	  527.00	  516.48	-1719.10	  376.76
     91.5700	  526.00	  517.75	-1721.37	  376.57
     91.6700	  553.00	  519.61	-1696.23	  376.38
     91.7700	  490.00	  522.19	-1761.81	  376.19
     91.8700	  485.00	  525.62	-1770.24	  376.00
     91.9700	  507.00	  530.10	-1752.72	  375.81
     92.0700	  541.00	  535.80	-1724.42	  375.61
     92.1700	  535.00	  542.92	-1737.54	  375.42
     92.2700	  544.00	  551.64	-1737.26	  375.22
     92.3700	  551.00	  562.09	-1740.71	  375.02
     92.4700	  541.00	  574.34	-1762.96	  374.82
     92.5700	  596.00	  588.38	-1722.00	  374.62
     92.6700	  587.00	  604.09	-1746.71	  374.42
     92.7700	  585.00	  621.24	-1765.86	  374.21
     92.8700	  625.00	  639.45	-1744.07	  374.01
     92.9700	  615.00	  658.21	-1772.83	  373.80
     93.0700	  620.00	  676.89	-1786.51	  373.59
     93.1700	  733.00	  694.77	-1691.39	  373.38
     93.2700	  680.00	  711.16	-1760.78	  373.17
     93.3700	  777.00	  725.58	-1678.20	  372.96
     93.4700	  726.00	  737.89	-1741.51	  372.74
     93.5700	  792.00	  748.02	-1685.64	  372.53
     93.6700	  743.00	  757.00	-1743.62	  372.31
     93.7700	  771.00	  765.10	-1723.72	  372.09
     93.8700	  754.00	  772.78	-1748.40	  371.87
     93.9700	  819.00	  780.36	-1690.98	  371.65
     94.0700	  847.00	  788.13	-1670.75	  371.43
     94.1700	  838.00	  796.36	-1687.98	  371.21
     94.2700	  834.00	  805.36	-1700.98	  370.98
     94.3700	  864.00	  815.44	-1681.06	  370.76
     94.4700	  877.00	  826.69	-1679.31	  370.53
     94.5700	  863.00	  838.91	-1705.53	  370.30
     94.6700	  876.00	  851.51	-1705.13	  370.07
     94.7700	  876.00	  863.48	-1717.10	  369.84
     94.8700	  830.00	  873.46	-1773.08	  369.61
     94.9700	  846.00	  879.93	-1763.55	  369.38
     95.0700	  872.00	  881.43	-1739.05	  369.14
     95.1700	  888.00	  876.95	-1718.57	  368.91
     95.2700	  863.00	  866.22	-1732.84	  368.67
     95.3700	  861.00	  849.79	-1718.41	  368.43
     95.4700	  823.00	  828.93	-1735.55	  368.20
     95.5700	  814.00	  805.30	-1720.91	  367.96
     95.6700	  819.00	  780.66	-1691.28	  367.71
     95.7700	  741.00	  756.76	-1745.38	  367.47
     95.8700	  726.00	  735.24	-1738.86	  367.23
     95.9700	  678.00	  717.60	-1769.22	  366.99
     96.0700	  679.00	  705.16	-1755.78	  366.74
     96.1700	  691.00	  699.13	-1737.75	  366.49
     96.2700	  709.00	  700.55	-1721.17	  366.25
     96.3700	  670.00	  710.28	-1769.90	  366.00
     96.4700	  744.00	  729.02	-1714.64	  365.75
     96.5700	  730.00	  757.22	-1756.84	  365.50
     96.6700	  812.00	  795.10	-1712.72	  365.25
     96.7700	  847.00	  842.50	-1725.12	  364.99
     96.8700	  866.00	  898.86	-1762.48	  364.74
     96.9700	  987.00	  963.12	-1705.74	  364.49
     97.0700	 1071.00	 1033.71	-1692.33	  364.23
     97.1700	 1131.00	 1108.45	-1707.07	  363.98
     97.2700	 1200.00	 1184.53	-1714.15	  363.72
     97.3700	 1202.00	 1258.55	-1786.17	  363.46
     97.4700	 1321.00	 1326.56	-1735.18	  363.20
     97.5700	 1360.00	 1384.31	-1753.93	  362.94
     97.6700	 1397.00	 1427.64	-1760.26	  362.68
     97.7700	 1377.00	 1453.13	-1805.75	  362.42
     97.8700	 1405.00	 1458.84	-1783.46	  362.16
     97.9700	 1389.00	 1444.72	-1785.34	  361.90
     98.0700	 1347.00	 1412.60	-1795.22	  361.63
     98.1700	 1370.00	 1365.68	-1725.30	  361.37
     98.2700	 1243.00	 1307.89	-1794.51	  361.10
     98.3700	 1255.00	 1243.33	-1717.95	  360.84
     98.4700	 1204.00	 1175.91	-1701.53	  360.57
     98.5700	 1078.00	 1109.16	-1760.78	  360.31
     98.6700	  981.00	 1046.13	-1794.75	  360.04
     98.7700	 1007.00	  989.43	-1712.05	  359.77
     98.8700	  882.00	  941.15	-1788.77	  359.50
     98.9700	  895.00	  902.99	-1737.61	  359.23
     99.0700	  879.00	  876.23	-1726.85	  358.96
     99.1700	  840.00	  861.83	-1751.44	  358.69
     99.2700	  804.00	  860.43	-1786.05	  358.42
     99.3700	  890.00	  872.41	-1712.03	  358.15
     99.4700	  925.00	  897.88	-1702.50	  357.87
     99.5700	  950.00	  936.68	-1716.30	  357.60
     99.6700	 1016.00	  988.43	-1702.05	  357.33
     99.7700	 1036.00	 1052.36	-1745.98	  357.05
     99.8700	 1124.00	 1127.46	-1733.08	  356.78
     99.9700	 1227.00	 1212.17	-1714.79	  356.51
    100.0700	 1272.00	 1304.48	-1762.10	  356.23
    100.1700	 1427.00	 1401.83	-1704.45	  355.95
    100.2700	 1507.00	 1501.08	-1723.70	  355.68
    100.3700	 1623.00	 1598.63	-1705.25	  355.40
    100.4700	 1677.00	 1690.63	-1743.25	  355.13
    100.5700	 1810.00	 1773.39	-1693.01	  354.85
    100.6700	 1931.00	 1843.83	-1642.45	  354.57
    100.7700	 1905.00	 1899.64	-1724.26	  354.29
    100.8700	 1834.00	 1939.31	-1834.93	  354.02
    100.9700	 1969.00	 1961.89	-1722.51	  353.74
    101.0700	 1983.00	 1966.78	-1713.40	  353.46
    101.1700	 1954.00	 1953.67	-1729.29	  353.18
    101.2700	 1927.00	 1922.83	-1725.45	  352.90
    101.3700	 1882.00	 1875.56	-1723.18	  352.63
    101.4700	 1811.00	 1814.35	-1732.97	  352.35
    101.5700	 1766.00	 1742.80	-1706.41	  352.07
    101.6700	 1655.00	 1665.08	-1739.70	  351.79
    101.7700	 1616.00	 1585.49	-1699.11	  351.51
    101.8700	 1565.00	 1507.86	-1672.48	  351.23
    101.9700	 1447.00	 1435.32	-1717.93	  350.95
    102.0700	 1323.00	 1370.06	-1776.68	  350.67
    102.1700	 1326.00	 1313.41	-1717.03	  350.40
    102.2700	 1277.00	 1265.83	-1718.45	  350.12
    102.3700	 1221.00	 1226.97	-1735.59	  349.84
    102.4700	 1148.00	 1195.74	-1777.36	  349.56
    102.5700	 1196.00	 1170.44	-1704.06	  349.28
    102.6700	 1121.00	 1148.93	-1757.54	  349.00
    102.7700	 1156.00	 1128.84	-1702.46	  348.73
    102.8700	 1080.00	 1107.92	-1757.54	  348.45
    102.9700	 1096.00	 1084.30	-1717.92	  348.17
    103.0700	 1089.00	 1056.80	-1697.42	  347.89
    103.1700	 1038.00	 1025.01	-1716.63	  347.62
    103.2700	  980.00	  989.26	-1738.88	  347.34
    103.3700	  911.00	  950.36	-1768.98	  347.07
    103.4700	  951.00	  909.41	-1688.03	  346.79
    103.5700	  869.00	  867.58	-1728.20	  346.51
    103.6700	  830.00	  825.98	-1725.60	  346.24
    103.7700	  786.00	  785.63	-1729.25	  345.97
    103.8700	  760.00	  747.36	-1716.98	  345.69
    103.9700	  725.00	  711.84	-1716.46	  345.42
    104.0700	  675.00	  679.55	-1734.17	  345.15
    104.1700	  629.00	  650.78	-1751.40	  344.87
    104.2700	  638.00	  625.65	-1717.27	  344.60
    104.3700	  596.00	  604.10	-1737.72	  344.33
    104.4700	  574.00	  586.00	-1741.62	  344.06
    104.5700	  599.00	  571.07	-1701.69	  343.79
    104.6700	  586.00	  559.02	-1702.64	  343.52
    104.7700	  570.00	  549.49	-1709.11	  343.25
    104.8700	  508.00	  542.15	-1763.77	  342.99
    104.9700	  536.00	  536.67	-1730.29	  342.72
    105.0700	  537.00	  532.74	-1725.36	  342.45
    105.1700	  556.00	  530.12	-1703.74	  342.19
    105.2700	  535.00	  528.58	-1723.20	  341.92
    105.3700	  472.00	  527.97	-1785.59	  341.66
    105.4700	  510.00	  528.16	-1747.78	  341.40
    105.5700	  533.00	  529.06	-1725.68	  341.14
    105.6700	  541.00	  530.63	-1719.25	  340.88
    105.7700	  528.00	  532.83	-1734.45	  340.62
    105.8700	  581.00	  535.67	-1684.29	  340.36
    105.9700	  564.00	  539.22	-1704.84	  340.10
    106.0700	  559.00	  543.50	-1714.12	  339.85
    106.1700	  553.00	  548.58	-1725.19	  339.59
    106.2700	  564.00	  554.49	-1720.11	  339.34
    106.3700	  554.00	  561.30	-1736.92	  339.09
    106.4700	  546.00	  569.00	-1752.62	  338.84
    106.5700	  593.00	  577.53	-1714.15	  338.59
    106.6700	  584.00	  586.81	-1732.43	  338.34
    106.7700	  622.00	  596.68	-1704.30	  338.09
    106.8700	  608.00	  606.96	-1728.58	  337.85
    106.9700	  611.00	  617.36	-1735.98	  337.60
    107.0700	  656.00	  627.64	-1701.26	  337.36
    107.1700	  620.00	  637.42	-1747.04	  337.12
    107.2700	  686.00	  646.37	-1689.99	  336.88
    107.3700	  631.00	  654.14	-1752.76	  336.64
    107.4700	  673.00	  660.47	-1717.09	  336.41
    107.5700	  667.00	  665.18	-1727.80	  336.17
    107.6700	  697.00	  668.25	-1700.87	  335.94
    107.7700	  622.00	  669.84	-1777.46	  335.71
    107.8700	  712.00	  670.22	-1687.84	  335.48
    107.9700	  654.00	  669.79	-1745.41	  335.25
    108.0700	  669.00	  668.94	-1729.56	  335.03
    108.1700	  654.00	  668.09	-1743.71	  334.80
    108.2700	  653.00	  667.54	-1744.16	  334.58
    108.3700	  677.00	  667.56	-1720.18	  334.36
    108.4700	  682.00	  668.28	-1715.90	  334.14
    108.5700	  650.00	  669.73	-1749.35	  333.93
    108.6700	  690.00	  671.84	-1711.46	  333.71
    108.7700	  722.00	  674.43	-1682.05	  333.50
    108.8700	  676.00	  677.21	-1730.82	  333.29
    108.9700	  653.00	  679.81	-1756.43	  333.08
    109.0700	  649.00	  681.82	-1762.44	  332.88
    109.1700	  678.00	  682.80	-1734.42	  332.68
    109.2700	  676.00	  682.35	-1735.97	  332.47
    109.3700	  668.00	  680.16	-1741.78	  332.28
    109.4700	  675.00	  676.07	-1730.69	  332.08
    109.5700	  686.00	  670.08	-1713.70	  331.89
    109.6700	  682.00	  662.35	-1709.97	  331.69
    109.7700	  632.00	  653.15	-1750.77	  331.51
    109.8700	  628.00	  642.82	-1744.44	  331.32
    109.9700	  638.00	  631.74	-1723.36	  331.14
    110.0700	  656.00	  620.29	-1693.90	  330.96
    110.1700	  655.00	  608.78	-1683.39	  330.78
    110.2700	  632.00	  597.53	-1695.15	  330.60
    110.3700	  606.00	  586.81	-1710.43	  330.43
    110.4700	  585.00	  576.83	-1721.45	  330.26
    110.5700	  590.00	  567.74	-1707.36	  330.09
    110.6700	  549.00	  559.66	-1740.28	  329.93
    110.7700	  597.00	  552.66	-1685.28	  329.76
    110.8700	  560.00	  546.76	-1716.38	  329.61
    110.9700	  530.00	  541.96	-1741.58	  329.45
    111.0700	  550.00	  538.20	-1717.82	  329.30
    111.1700	  547.00	  535.43	-1718.05	  329.15
    111.2700	  532.00	  533.57	-1731.19	  329.00
    111.3700	  558.00	  532.52	-1704.14	  328.86
    111.4700	  542.00	  532.18	-1719.80	  328.72
    111.5700	  530.00	  532.47	-1732.09	  328.58
    111.6700	  539.00	  533.29	-1723.91	  328.45
    111.7700	  527.00	  534.57	-1737.19	  328.32
    111.8700	  499.00	  536.22	-1766.84	  328.19
    111.9700	  553.00	  538.18	-1714.80	  328.07
    112.0700	  567.00	  540.40	-1703.02	  327.95
    112.1700	  542.00	  542.85	-1730.47	  327.83
    112.2700	  513.00	  545.49	-1762.11	  327.72
    112.3700	  576.00	  548.32	-1701.94	  327.61
    112.4700	  537.00	  551.35	-1743.97	  327.50
    112.5700	  579.00	  554.60	-1705.22	  327.40
    112.6700	  546.00	  558.11	-1741.73	  327.30
    112.7700	  571.00	  561.92	-1720.54	  327.21
    112.8700	  541.00	  566.10	-1754.72	  327.12
    112.9700	  593.00	  570.73	-1707.35	  327.03
    113.0700	  588.00	  575.91	-1717.53	  326.95
    113.1700	  616.00	  581.76	-1695.38	  326.87
    113.2700	  604.00	  588.44	-1714.06	  326.80
    113.3700	  649.00	  596.15	-1676.77	  326.73
    113.4700	  609.00	  605.12	-1725.74	  326.66
    113.5700	  621.00	  615.68	-1724.30	  326.60
    113.6700	  628.00	  628.21	-1729.83	  326.54
    113.7700	  622.00	  643.21	-1750.83	  326.49
    113.8700	  677.00	  661.29	-1713.91	  326.44
    113.9700	  697.00	  683.19	-1715.81	  326.39
    114.0700	  714.00	  709.82	-1725.44	  326.35
    114.1700	  818.00	  742.24	-1653.86	  326.32
    114.2700	  750.00	  781.72	-1761.34	  326.29
    114.3700	  835.00	  829.72	-1724.34	  326.26
    114.4700	  881.00	  887.90	-1736.52	  326.24
    114.5700	  930.00	  958.07	-1757.69	  326.22
    114.6700	 1027.00	 1042.22	-1744.84	  326.21
    114.7700	 1183.00	 1142.44	-1689.06	  326.20
    114.8700	 1313.00	 1260.92	-1677.54	  326.20
    114.9700	 1502.00	 1399.75	-1627.37	  326.20
    115.0700	 1661.00	 1560.94	-1629.56	  326.21
    115.1700	 1823.00	 1746.20	-1652.82	  326.22
    115.2700	 2121.00	 1956.97	-1565.59	  326.24
    115.3700	 2312.00	 2194.17	-1611.79	  326.26
    115.4700	 2504.00	 2458.02	-1683.63	  326.29
    115.5700	 2866.00	 2747.99	-1611.61	  326.32
    115.6700	 3168.00	 3062.63	-1624.25	  326.36
    115.7700	 3467.00	 3399.59	-1662.21	  326.40
    115.8700	 3726.00	 3755.48	-1759.10	  326.45
    115.9700	 4088.00	 4125.68	-1767.30	  326.51
    116.0700	 4325.00	 4504.50	-1909.12	  326.57
    116.1700	 4816.00	 4885.09	-1798.71	  326.63
    116.2700	 5114.00	 5259.62	-1875.24	  326.70
    116.3700	 5634.00	 5619.31	-1714.93	  326.78
    116.4700	 5975.00	 5954.45	-1709.07	  326.86
    116.5700	 6139.00	 6254.88	-1845.49	  326.95
    116.6700	 6538.00	 6510.31	-1701.93	  327.04
    116.7700	 6564.00	 6711.18	-1876.80	  327.14
    116.8700	 6663.00	 6849.23	-1915.85	  327.25
    116.9700	 6795.00	 6918.48	-1853.10	  327.36
    117.0700	 6880.00	 6915.93	-1765.55	  327.48
    117.1700	 6716.00	 6842.02	-1855.64	  327.61
    117.2700	 6605.00	 6700.52	-1825.14	  327.74
    117.3700	 6502.00	 6497.96	-1725.58	  327.88
    117.4700	 6151.00	 6242.98	-1821.60	  328.02
    117.5700	 5971.00	 5945.37	-1703.99	  328.17
    117.6700	 5518.00	 5615.37	-1826.99	  328.33
    117.7700	 5203.00	 5262.87	-1789.49	  328.49
    117.8700	 4862.00	 4897.17	-1764.79	  328.66
    117.9700	 4676.00	 4526.77	-1580.39	  328.83
    118.0700	 4196.00	 4159.13	-1692.75	  329.02
    118.1700	 3929.00	 3800.64	-1601.26	  329.21
    118.2700	 3513.00	 3456.47	-1673.09	  329.40
    118.3700	 3219.00	 3130.66	-1641.28	  329.61
    118.4700	 2971.00	 2826.30	-1584.92	  329.82
    118.5700	 2635.00	 2545.41	-1640.03	  330.03
    118.6700	 2318.00	 2289.14	-1700.76	  330.26
    118.7700	 2116.00	 2057.79	-1671.41	  330.49
    118.8700	 1880.00	 1850.99	-1700.61	  330.73
    118.9700	 1714.00	 1667.91	-1683.53	  330.98
    119.0700	 1484.00	 1507.23	-1752.85	  331.23
    119.1700	 1365.00	 1367.37	-1731.99	  331.49
    119.2700	 1263.00	 1246.51	-1713.13	  331.76
    119.3700	 1186.00	 1142.72	-1686.34	  332.04
    119.4700	 1049.00	 1054.09	-1734.71	  332.32
    119.5700	  960.00	  978.76	-1748.38	  332.61
    119.6700	  875.00	  914.96	-1769.58	  332.91
    119.7700	  814.00	  861.06	-1776.68	  333.22
    119.8700	  784.00	  815.58	-1761.20	  333.53
    119.9700	  785.00	  777.24	-1721.86	  333.85
    120.0700	  733.00	  744.92	-1741.54	  334.18
    120.1700	  688.00	  717.64	-1759.26	  334.52
    120.2700	  673.00	  694.61	-1751.23	  334.87
    120.3700	  611.00	  675.13	-1793.75	  335.23
    120.4700	  621.00	  658.65	-1767.27	  335.59
    120.5700	  649.00	  644.71	-1725.33	  335.96
    120.6700	  573.00	  632.93	-1789.55	  336.34
    120.7700	  580.00	  623.02	-1772.64	  336.73
    120.8700	  559.00	  614.71	-1785.33	  337.13
    120.9700	  590.00	  607.82	-1747.44	  337.53
    121.0700	  526.00	  602.18	-1805.80	  337.95
    121.1700	  600.00	  597.66	-1727.28	  338.37
    121.2700	  549.00	  594.15	-1774.77	  338.81
    121.3700	  555.00	  591.56	-1766.18	  339.25
    121.4700	  591.00	  589.81	-1728.43	  339.70
    121.5700	  584.00	  588.84	-1734.46	  340.16
    121.6700	  558.00	  588.59	-1760.21	  340.62
    121.7700	  586.00	  589.00	-1732.62	  341.10
    121.8700	  560.00	  590.00	-1759.62	  341.59
    121.9700	  550.00	  591.54	-1771.16	  342.09
    122.0700	  582.00	  593.56	-1741.18	  342.59
    122.1700	  545.00	  595.98	-1780.60	  343.11
    122.2700	  596.00	  598.73	-1732.35	  343.63
    122.3700	  578.00	  601.74	-1753.36	  344.17
    122.4700	  594.00	  604.92	-1740.54	  344.71
    122.5700	  631.00	  608.17	-1706.79	  345.27
    122.6700	  642.00	  611.39	-1699.01	  345.83
    122.7700	  648.00	  614.49	-1696.11	  346.40
    122.8700	  642.00	  617.36	-1704.98	  346.99
    122.9700	  659.00	  619.91	-1690.53	  347.58
    123.0700	  586.00	  622.03	-1765.65	  348.19
    123.1700	  657.00	  623.67	-1696.29	  348.80
    123.2700	  649.00	  624.75	-1705.37	  349.43
    123.3700	  621.00	  625.25	-1733.87	  350.06
    123.4700	  657.00	  625.16	-1697.78	  350.71
    123.5700	  628.00	  624.50	-1726.12	  351.36
    123.6700	  655.00	  623.26	-1697.88	  352.03
    123.7700	  646.00	  621.56	-1705.18	  352.71
    123.8700	  632.00	  619.42	-1717.04	  353.40
    123.9700	  660.00	  616.92	-1686.54	  354.10
    124.0700	  673.00	  614.12	-1670.74	  354.81
    124.1700	  614.00	  611.09	-1726.71	  355.53
    124.2700	  610.00	  607.89	-1727.51	  356.26
    124.3700	  556.00	  604.60	-1778.22	  357.01
    124.4700	  601.00	  601.27	-1729.89	  357.76
    124.5700	  647.00	  597.97	-1680.59	  358.53
    124.6700	  578.00	  594.73	-1746.35	  359.31
    124.7700	  612.00	  591.59	-1709.21	  360.09
    124.8700	  624.00	  588.63	-1694.25	  360.90
    124.9700	  568.00	  470.44	-1632.06	  361.71
    125.0700	  638.00	  471.27	-1729.62	  362.53
    125.1700	  601.00	  472.10	-1729.62	  363.37
    125.2700	  547.00	  472.95	-1729.62	  364.22
    125.3700	  605.00	  473.81	-1729.62	  365.08
    125.4700	  545.00	  474.69	-1729.62	  365.95
    125.5700	  580.00	  475.57	-1729.62	  366.84
    125.6700	  528.00	  476.47	-1729.62	  367.73
    125.7700	  543.00	  477.38	-1729.62	  368.64
    125.8700	  566.00	  478.30	-1729.62	  369.57
    125.9700	  545.00	  479.23	-1729.62	  370.50
    126.0700	  565.00	  480.18	-1729.62	  371.45
    126.1700	  562.00	  481.14	-1729.62	  372.41
    126.2700	  546.00	  482.11	-1729.62	  373.38
    126.3700	  521.00	  483.10	-1729.62	  374.37
    126.4700	  539.00	  484.10	-1729.62	  375.37
    126.5700	  555.00	  485.11	-1729.62	  376.38
    126.6700	  571.00	  486.14	-1729.62	  377.40
    126.7700	  594.00	  487.17	-1729.62	  378.44
    126.8700	  590.00	  488.23	-1729.62	  379.49
    126.9700	  594.00	  489.29	-1729.62	  380.56
    127.0700	  564.00	  490.37	-1729.62	  381.64
    127.1700	  575.00	  491.46	-1729.62	  382.73
    127.2700	  563.00	  492.57	-1729.62	  383.83
    127.3700	  612.00	  493.69	-1729.62	  384.95
    127.4700	  602.00	  494.82	-1729.62	  386.09
    127.5700	  576.00	  495.97	-1729.62	  387.23
    127.6700	  596.00	  497.13	-1729.62	  388.40
    127.7700	  647.00	  498.30	-1729.62	  389.57
    127.8700	  633.00	  499.49	-1729.62	  390.76
    127.9700	  650.00	  500.70	-1729.62	  391.97
    128.0700	  652.00	  501.92	-1729.62	  393.19
    128.1700	  673.00	  503.15	-1729.62	  394.42
    128.2700	  683.00	  504.40	-1729.62	  395.67
    128.3700	  719.00	  505.66	-1729.62	  396.93
    128.4700	  734.00	  506.94	-1729.62	  398.21
    128.5700	    0.00	  508.23	-1729.62	  399.50
    128.6700	    0.00	  509.54	-1729.62	  400.81
     12.3369	        	        	        	        	       0	(  0  0  2)	  0  1
     24.9493	        	        	        	        	       0	(  0  0  4)	  0  1
     28.3887	        	        	        	        	       0	(  1  0  0)	  0  1
     29.0878	        	        	        	        	       0	(  1  0  1)	  0  1
     31.0995	        	        	        	        	       0	(  1  0  2)	  0  1
     34.2162	        	        	        	        	       0	(  1  0  3)	  0  1
     37.8799	        	        	        	        	       0	(  0  0  6)	  0  1
     38.2040	        	        	        	        	       0	(  1  0  4)	  0  1
     42.8667	        	        	        	        	       0	(  1  0  5)	  0  1
     48.0651	        	        	        	        	       0	(  1  0  6)	  0  1
     50.3727	        	        	        	        	       0	(  1  1  0)	  0  1
     51.3368	        	        	        	        	       0	(  0  0  8)	  0  1
     52.1010	        	        	        	        	       0	(  1  1  2)	  0  1
     53.7116	        	        	        	        	       0	(  1  0  7)	  0  1
     57.0641	        	        	        	        	       0	(  1  1  4)	  0  1
     58.8901	        	        	        	        	       0	(  2  0  0)	  0  1
     59.2829	        	        	        	        	       0	(  2  0  1)	  0  1
     59.7598	        	        	        	        	       0	(  1  0  8)	  0  1
     60.4521	        	        	        	        	       0	(  2  0  2)	  0  1
     62.3716	        	        	        	        	       0	(  2  0  3)	  0  1
     64.7833	        	        	        	        	       0	(  1  1  6)	  0  1
     65.0043	        	        	        	        	       0	(  2  0  4)	  0  1
     65.6076	        	        	        	        	       0	(  0  0 10)	  0  1
     66.1962	        	        	        	        	       0	(  1  0  9)	  0  1
     68.3097	        	        	        	        	       0	(  2  0  5)	  0  1
     72.2509	        	        	        	        	       0	(  2  0  6)	  0  1
     73.0351	        	        	        	        	       0	(  1  0 10)	  0  1
     74.8556	        	        	        	        	       0	(  1  1  8)	  0  1
     76.8016	        	        	        	        	       0	(  2  0  7)	  0  1
     80.3193	        	        	        	        	       0	(  1  0 11)	  0  1
     81.1418	        	        	        	        	       0	(  0  0 12)	  0  1
     81.1947	        	        	        	        	       0	(  2  1  0)	  0  1
     81.5359	        	        	        	        	       0	(  2  1  1)	  0  1
     81.9516	        	        	        	        	       0	(  2  0  8)	  0  1
     82.5579	        	        	        	        	       0	(  2  1  2)	  0  1
     84.2561	        	        	        	        	       0	(  2  1  3)	  0  1
     86.6257	        	        	        	        	       0	(  2  1  4)	  0  1
     87.1751	        	        	        	        	       0	(  1  1 10)	  0  1
     87.7134	        	        	        	        	       0	(  2  0  9)	  0  1
     88.1252	        	        	        	        	       0	(  1  0 12)	  0  1
     89.6647	        	        	        	        	       0	(  2  1  5)	  0  1
     93.3791	        	        	        	        	       0	(  2  1  6)	  0  1
     94.1298	        	        	        	        	       0	(  2  0 10)	  0  1
     95.1348	        	        	        	        	       0	(  3  0  0)	  0  1
     95.4738	        	        	        	        	       0	(  3  0  1)	  0  1
     96.4921	        	        	        	        	       0	(  3  0  2)	  0  1
     96.5776	        	        	        	        	       0	(  1  0 13)	  0  1
     97.7893	        	        	        	        	       0	(  2  1  7)	  0  1
     98.1939	        	        	        	        	       0	(  3  0  3)	  0  1
     98.7599	        	        	        	        	       0	(  0  0 14)	  0  1
    100.5894	        	        	        	        	       0	(  3  0  4)	  0  1
    101.2882	        	        	        	        	       0	(  2  0 11)	  0  1
    102.1180	        	        	        	        	       0	(  1  1 12)	  0  1
    102.9392	        	        	        	        	       0	(  2  1  8)	  0  1
    103.6980	        	        	        	        	       0	(  3  0  5)	  0  1
    105.8815	        	        	        	        	       0	(  1  0 14)	  0  1
    107.5558	        	        	        	        	       0	(  3  0  6)	  0  1
    108.9116	        	        	        	        	       0	(  2  1  9)	  0  1
    109.3475	        	        	        	        	       0	(  2  0 12)	  0  1
    112.2263	        	        	        	        	       0	(  3  0  7)	  0  1
    115.8567	        	        	        	        	       0	(  2  1 10)	  0  1
    116.3981	        	        	        	        	       0	(  1  0 15)	  0  1
    116.9762	        	        	        	        	       0	(  2  2  0)	  0  1
    117.8208	        	        	        	        	       0	(  3  0  8)	  0  1
    118.5032	        	        	        	        	       0	(  2  2  2)	  0  1
    118.6000	        	        	        	        	       0	(  2  0 13)	  0  1
    120.3960	        	        	        	        	       0	(  0  0 16)	  0  1
    121.0960	        	        	        	        	       0	(  1  1 14)	  0  1
    123.2286	        	        	        	        	       0	(  2  2  4)	  0  1
    124.0536	        	        	        	        	       0	(  2  1 11)	  0  1
    124.5393	        	        	        	        	       0	(  3  0  9)	  0  1
    125.1050	        	        	        	        	       0	(  3  1  0)	  0  1
    125.5192	        	        	        	        	       0	(  3  1  1)	  0  1
    126.7750	        	        	        	        	       0	(  3  1  2)	  0  1
    128.8625	        	        	        	        	       0	(  1  0 16)	  0  1
    128.9156	        	        	        	        	       0	(  3  1  3)	  0  1
    129.6398	        	        	        	        	       0	(  2  0 14)	  0  1
    131.7575	        	        	        	        	       0	(  2  2  6)	  0  1
    132.0271	        	        	        	        	       0	(  3  1  4)	  0  1
    132.7716	        	        	        	        	       0	(  3  0 10)	  0  1
    134.0815	        	        	        	        	       0	(  2  1 12)	  0  1
    136.2700	        	        	        	        	       0	(  3  1  5)	  0  1
    141.9581	        	        	        	        	       0	(  3  1  6)	  0  1
    143.4244	        	        	        	        	       0	(  3  0 11)	  0  1
    144.0149	        	        	        	        	       0	(  2  0 15)	  0  1
    145.3139	        	        	        	        	       0	(  1  0 17)	  0  1
    146.2342	        	        	        	        	       0	(  2  2  8)	  0  1
    147.4931	        	        	        	        	       0	(  2  1 13)	  0  1
    149.8118	        	        	        	        	       0	(  3  1  7)	  0  1
    150.5370	        	        	        	        	       0	(  1  1 16)	  0  1
    155.1570	        	        	        	        	       0	(  0  0 18)	  0  1
    159.8997	        	        	        	        	       0	(  3  0 12)	  0  1
    160.0532	        	        	        	        	       0	(  4  0  0)	  0  1
    161.0737	        	        	        	        	       0	(  4  0  1)	  0  1
    162.3954	        	        	        	        	       0	(  3  1  8)	  0  1
    164.5218	        	        	        	        	       0	(  4  0  2)	  0  1
    173.1118	        	        	        	        	       0	(  2  0 16)	  0  1
    173.4721	        	        	        	        	       0	(  4  0  3)	  0  1
