MSG Master    CELL:    5.91897   5.91897  23.27271   90.0000   90.0000  120.0000   SPGR: P 63/m m c             TEMP:   1074.85
  1   1280     2.52000     0.00000    -0.13312     0.00000     0.00000    0
    99     0     2
       0.00000      10.00000
     125.00000     130.00000
 2Theta	Yobs	Ycal	Yobs-Ycal	Backg	Posr	(hkl)	K
      0.7700	    0.00	  579.37	-1740.50	  459.84
      0.8700	    0.00	  579.71	-1740.50	  460.18
      0.9700	   47.00	  580.04	-1740.50	  460.51
      1.0700	   42.00	  580.37	-1740.50	  460.83
      1.1700	   36.00	  580.68	-1740.50	  461.15
      1.2700	   43.00	  580.99	-1740.50	  461.46
      1.3700	   36.00	  581.29	-1740.50	  461.76
      1.4700	   76.00	  581.58	-1740.50	  462.05
      1.5700	  322.00	  581.87	-1740.50	  462.34
      1.6700	  444.00	  582.15	-1740.50	  462.61
      1.7700	  537.00	  582.42	-1740.50	  462.88
      1.8700	  652.00	  582.68	-1740.50	  463.15
      1.9700	  740.00	  582.93	-1740.50	  463.40
      2.0700	  822.00	  583.18	-1740.50	  463.65
      2.1700	  782.00	  583.42	-1740.50	  463.89
      2.2700	  773.00	  583.66	-1740.50	  464.13
      2.3700	  785.00	  583.88	-1740.50	  464.35
      2.4700	  648.00	  584.10	-1740.50	  464.57
      2.5700	  667.00	  584.32	-1740.50	  464.78
      2.6700	  670.00	  584.52	-1740.50	  464.99
      2.7700	  681.00	  584.72	-1740.50	  465.19
      2.8700	  603.00	  584.91	-1740.50	  465.38
      2.9700	  639.00	  585.10	-1740.50	  465.56
      3.0700	  567.00	  585.27	-1740.50	  465.74
      3.1700	  576.00	  585.44	-1740.50	  465.91
      3.2700	  660.00	  585.61	-1740.50	  466.08
      3.3700	  685.00	  585.77	-1740.50	  466.24
      3.4700	  799.00	  585.92	-1740.50	  466.39
      3.5700	  811.00	  586.06	-1740.50	  466.53
      3.6700	  874.00	  586.20	-1740.50	  466.67
      3.7700	  888.00	  586.33	-1740.50	  466.80
      3.8700	 1022.00	  586.46	-1740.50	  466.93
      3.9700	 1039.00	  586.58	-1740.50	  467.05
      4.0700	 1049.00	  586.69	-1740.50	  467.16
      4.1700	 1040.00	  586.80	-1740.50	  467.27
      4.2700	 1134.00	  586.90	-1740.50	  467.37
      4.3700	 1116.00	  587.00	-1740.50	  467.46
      4.4700	 1084.00	  587.08	-1740.50	  467.55
      4.5700	  980.00	  587.17	-1740.50	  467.64
      4.6700	 1012.00	  587.24	-1740.50	  467.71
      4.7700	 1008.00	  587.31	-1740.50	  467.78
      4.8700	  920.00	  587.38	-1740.50	  467.85
      4.9700	  979.00	  587.44	-1740.50	  467.91
      5.0700	  937.00	  587.49	-1740.50	  467.96
      5.1700	  917.00	  587.54	-1740.50	  468.01
      5.2700	  952.00	  587.58	-1740.50	  468.05
      5.3700	  898.00	  587.62	-1740.50	  468.09
      5.4700	  850.00	  587.65	-1740.50	  468.12
      5.5700	  806.00	  587.68	-1740.50	  468.14
      5.6700	  874.00	  587.70	-1740.50	  468.16
      5.7700	  821.00	  587.71	-1740.50	  468.18
      5.8700	  792.00	  587.72	-1740.50	  468.19
      5.9700	  813.00	  587.73	-1740.50	  468.19
      6.0700	  757.00	  587.72	-1740.50	  468.19
      6.1700	  808.00	  587.72	-1740.50	  468.19
      6.2700	  798.00	  587.71	-1740.50	  468.17
      6.3700	  765.00	  587.69	-1740.50	  468.16
      6.4700	  800.00	  587.67	-1740.50	  468.14
      6.5700	  714.00	  587.64	-1740.50	  468.11
      6.6700	  721.00	  587.61	-1740.50	  468.08
      6.7700	  705.00	  587.57	-1740.50	  468.04
      6.8700	  762.00	  587.53	-1740.50	  468.00
      6.9700	  708.00	  587.49	-1740.50	  467.95
      7.0700	  651.00	  587.44	-1740.50	  467.90
      7.1700	  728.00	  587.38	-1740.50	  467.85
      7.2700	  686.00	  587.32	-1740.50	  467.79
      7.3700	  656.00	  587.25	-1740.50	  467.72
      7.4700	  670.00	  587.19	-1740.50	  467.65
      7.5700	  671.00	  587.11	-1740.50	  467.58
      7.6700	  653.00	  587.03	-1740.50	  467.50
      7.7700	  675.00	  586.95	-1740.50	  467.42
      7.8700	  666.00	  586.86	-1740.50	  467.33
      7.9700	  636.00	  586.77	-1740.50	  467.24
      8.0700	  640.00	  586.67	-1740.50	  467.14
      8.1700	  626.00	  586.57	-1740.50	  467.04
      8.2700	  630.00	  586.47	-1740.50	  466.94
      8.3700	  615.00	  586.36	-1740.50	  466.83
      8.4700	  696.00	  586.25	-1740.50	  466.71
      8.5700	  639.00	  586.13	-1740.50	  466.60
      8.6700	  589.00	  586.01	-1740.50	  466.48
      8.7700	  684.00	  585.88	-1740.50	  466.35
      8.8700	  609.00	  585.75	-1740.50	  466.22
      8.9700	  597.00	  585.62	-1740.50	  466.09
      9.0700	  650.00	  585.48	-1740.50	  465.95
      9.1700	  630.00	  585.34	-1740.50	  465.81
      9.2700	  592.00	  585.20	-1740.50	  465.66
      9.3700	  661.00	  585.05	-1740.50	  465.52
      9.4700	  620.00	  584.90	-1740.50	  465.36
      9.5700	  634.00	  584.74	-1740.50	  465.21
      9.6700	  575.00	  584.58	-1740.50	  465.05
      9.7700	  640.00	  584.42	-1740.50	  464.88
      9.8700	  625.00	  584.25	-1740.50	  464.72
      9.9700	  614.00	  584.08	-1740.50	  464.55
     10.0700	  596.00	  584.77	-1729.27	  464.37
     10.1700	  573.00	  584.69	-1752.19	  464.20
     10.2700	  600.00	  584.63	-1725.13	  464.01
     10.3700	  610.00	  584.60	-1715.10	  463.83
     10.4700	  556.00	  584.63	-1769.13	  463.64
     10.5700	  604.00	  584.79	-1721.29	  463.45
     10.6700	  598.00	  585.17	-1727.67	  463.26
     10.7700	  639.00	  585.88	-1687.38	  463.06
     10.8700	  584.00	  586.99	-1743.49	  462.86
     10.9700	  593.00	  588.50	-1736.00	  462.66
     11.0700	  597.00	  590.36	-1733.86	  462.45
     11.1700	  585.00	  592.57	-1748.07	  462.24
     11.2700	  605.00	  595.18	-1730.68	  462.03
     11.3700	  619.00	  598.27	-1719.77	  461.81
     11.4700	  636.00	  601.98	-1706.48	  461.59
     11.5700	  617.00	  606.52	-1730.02	  461.37
     11.6700	  640.00	  612.28	-1712.78	  461.15
     11.7700	  632.00	  619.88	-1728.38	  460.92
     11.8700	  654.00	  630.25	-1716.75	  460.69
     11.9700	  696.00	  643.85	-1688.35	  460.45
     12.0700	  682.00	  658.75	-1717.25	  460.22
     12.1700	  665.00	  668.45	-1743.95	  459.98
     12.2700	  694.00	  663.45	-1709.95	  459.74
     12.3700	  670.00	  641.99	-1712.49	  459.50
     12.4700	  709.00	  617.03	-1648.53	  459.25
     12.5700	  599.00	  599.00	-1740.50	  459.00
     12.6700	  601.00	  589.10	-1728.60	  458.75
     12.7700	  583.00	  584.46	-1741.96	  458.49
     12.8700	  581.00	  582.24	-1741.74	  458.24
     12.9700	  533.00	  580.94	-1788.44	  457.98
     13.0700	  571.00	  580.01	-1749.51	  457.72
     13.1700	  547.00	  579.28	-1772.78	  457.46
     13.2700	  538.00	  578.65	-1781.15	  457.19
     13.3700	  578.00	  578.11	-1740.61	  456.92
     13.4700	  563.00	  577.63	-1755.13	  456.65
     13.5700	  582.00	  577.18	-1735.68	  456.38
     13.6700	  533.00	  576.77	-1784.27	  456.10
     13.7700	  564.00	  576.38	-1752.88	  455.83
     13.8700	  563.00	  576.00	-1753.50	  455.55
     13.9700	  541.00	  575.64	-1775.14	  455.27
     14.0700	  547.00	  575.29	-1768.79	  454.98
     14.1700	  547.00	  574.95	-1768.45	  454.70
     14.2700	  567.00	  574.61	-1748.11	  454.41
     14.3700	  553.00	  574.28	-1761.78	  454.12
     14.4700	  567.00	  573.95	-1747.45	  453.83
     14.5700	  572.00	  573.62	-1742.12	  453.54
     14.6700	  552.00	  573.29	-1761.79	  453.24
     14.7700	  599.00	  572.97	-1714.47	  452.95
     14.8700	  601.00	  572.65	-1712.15	  452.65
     14.9700	  537.00	  572.33	-1775.83	  452.35
     15.0700	  512.00	  572.01	-1800.51	  452.05
     15.1700	  557.00	  571.69	-1755.19	  451.74
     15.2700	  602.00	  571.37	-1709.87	  451.44
     15.3700	  594.00	  571.04	-1717.54	  451.13
     15.4700	  581.00	  570.72	-1730.22	  450.82
     15.5700	  579.00	  570.40	-1731.90	  450.51
     15.6700	  548.00	  570.08	-1762.58	  450.20
     15.7700	  556.00	  569.76	-1754.26	  449.89
     15.8700	  577.00	  569.43	-1732.93	  449.58
     15.9700	  580.00	  569.13	-1729.63	  449.26
     16.0700	  539.00	  568.81	-1770.31	  448.94
     16.1700	  556.00	  568.48	-1752.98	  448.62
     16.2700	  570.00	  568.16	-1738.66	  448.30
     16.3700	  513.00	  567.83	-1795.33	  447.98
     16.4700	  541.00	  567.50	-1767.00	  447.66
     16.5700	  559.00	  567.17	-1748.67	  447.34
     16.6700	  542.00	  566.85	-1765.35	  447.01
     16.7700	  577.00	  566.52	-1730.02	  446.68
     16.8700	  553.00	  566.18	-1753.68	  446.36
     16.9700	  573.00	  565.85	-1733.35	  446.03
     17.0700	  576.00	  565.52	-1730.02	  445.70
     17.1700	  572.00	  565.19	-1733.69	  445.37
     17.2700	  578.00	  564.85	-1727.35	  445.04
     17.3700	  554.00	  564.52	-1751.02	  444.70
     17.4700	  578.00	  564.18	-1726.68	  444.37
     17.5700	  547.00	  563.84	-1757.34	  444.03
     17.6700	  548.00	  563.50	-1756.00	  443.70
     17.7700	  554.00	  563.17	-1749.67	  443.36
     17.8700	  554.00	  562.83	-1749.33	  443.02
     17.9700	  507.00	  562.49	-1795.99	  442.68
     18.0700	  606.00	  562.26	-1696.76	  442.34
     18.1700	  554.00	  561.92	-1748.42	  442.00
     18.2700	  553.00	  561.58	-1749.08	  441.66
     18.3700	  538.00	  561.24	-1763.74	  441.32
     18.4700	  548.00	  560.90	-1753.40	  440.98
     18.5700	  575.00	  560.56	-1726.06	  440.63
     18.6700	  560.00	  560.22	-1740.72	  440.29
     18.7700	  516.00	  559.87	-1784.37	  439.94
     18.8700	  555.00	  559.53	-1745.03	  439.60
     18.9700	  549.00	  559.27	-1750.77	  439.25
     19.0700	  507.00	  558.93	-1792.43	  438.90
     19.1700	  539.00	  558.59	-1760.09	  438.56
     19.2700	  547.00	  558.25	-1751.75	  438.21
     19.3700	  548.00	  557.90	-1750.40	  437.86
     19.4700	  559.00	  557.56	-1739.06	  437.51
     19.5700	  527.00	  557.22	-1770.72	  437.16
     19.6700	  551.00	  556.88	-1746.38	  436.81
     19.7700	  573.00	  556.53	-1724.03	  436.46
     19.8700	  567.00	  556.19	-1729.69	  436.11
     19.9700	  561.00	  555.85	-1735.35	  435.76
     20.0700	  587.00	  555.51	-1709.01	  435.41
     20.1700	  515.00	  555.16	-1780.66	  435.06
     20.2700	  544.00	  554.82	-1751.32	  434.70
     20.3700	  596.00	  554.48	-1698.98	  434.35
     20.4700	  559.00	  554.14	-1735.64	  434.00
     20.5700	  529.00	  553.80	-1765.30	  433.64
     20.6700	  459.00	  553.43	-1834.93	  433.29
     20.7700	  511.00	  553.09	-1782.59	  432.94
     20.8700	  544.00	  552.78	-1749.28	  432.58
     20.9700	  559.00	  552.45	-1733.95	  432.23
     21.0700	  543.00	  552.11	-1749.61	  431.88
     21.1700	  588.00	  551.77	-1704.27	  431.52
     21.2700	  523.00	  551.44	-1768.94	  431.17
     21.3700	  562.00	  551.11	-1729.61	  430.81
     21.4700	  550.00	  550.78	-1741.28	  430.46
     21.5700	  508.00	  550.45	-1782.95	  430.10
     21.6700	  587.00	  550.12	-1703.62	  429.75
     21.7700	  570.00	  549.79	-1720.29	  429.39
     21.8700	  579.00	  549.47	-1710.97	  429.04
     21.9700	  540.00	  549.14	-1749.64	  428.69
     22.0700	  541.00	  548.83	-1748.33	  428.33
     22.1700	  568.00	  548.51	-1721.01	  427.98
     22.2700	  549.00	  548.20	-1739.70	  427.62
     22.3700	  544.00	  547.89	-1744.39	  427.27
     22.4700	  559.00	  547.59	-1729.09	  426.92
     22.5700	  549.00	  547.29	-1738.79	  426.56
     22.6700	  535.00	  547.00	-1752.50	  426.21
     22.7700	  552.00	  546.71	-1735.21	  425.85
     22.8700	  602.00	  546.44	-1684.94	  425.50
     22.9700	  548.00	  546.18	-1738.68	  425.15
     23.0700	  522.00	  545.93	-1764.43	  424.80
     23.1700	  543.00	  545.69	-1743.19	  424.44
     23.2700	  562.00	  545.48	-1723.98	  424.09
     23.3700	  566.00	  545.30	-1719.80	  423.74
     23.4700	  581.00	  545.15	-1704.65	  423.39
     23.5700	  512.00	  545.06	-1773.56	  423.04
     23.6700	  540.00	  545.16	-1745.66	  422.69
     23.7700	  549.00	  545.26	-1736.76	  422.34
     23.8700	  497.00	  545.58	-1789.08	  421.99
     23.9700	  634.00	  546.36	-1652.86	  421.64
     24.0700	  560.00	  548.01	-1728.51	  421.29
     24.1700	  592.00	  551.18	-1699.68	  420.94
     24.2700	  589.00	  556.68	-1708.18	  420.59
     24.3700	  575.00	  565.41	-1730.91	  420.24
     24.4700	  598.00	  578.26	-1720.76	  419.90
     24.5700	  619.00	  595.24	-1716.74	  419.55
     24.6700	  628.00	  613.35	-1725.85	  419.20
     24.7700	  609.00	  625.03	-1756.53	  418.86
     24.8700	  628.00	  620.80	-1733.30	  418.51
     24.9700	  642.00	  600.54	-1699.04	  418.17
     25.0700	  629.00	  577.00	-1688.50	  417.83
     25.1700	  578.00	  559.58	-1722.08	  417.48
     25.2700	  535.00	  549.69	-1755.19	  417.14
     25.3700	  587.00	  544.94	-1698.44	  416.80
     25.4700	  567.00	  542.71	-1716.21	  416.46
     25.5700	  558.00	  541.51	-1724.01	  416.12
     25.6700	  599.00	  540.72	-1682.22	  415.78
     25.7700	  563.00	  540.14	-1717.64	  415.44
     25.8700	  567.00	  539.69	-1713.19	  415.10
     25.9700	  518.00	  539.36	-1761.86	  414.76
     26.0700	  538.00	  539.12	-1741.62	  414.43
     26.1700	  564.00	  538.95	-1715.45	  414.09
     26.2700	  533.00	  538.87	-1746.37	  413.75
     26.3700	  571.00	  538.86	-1708.36	  413.42
     26.4700	  587.00	  538.95	-1692.45	  413.09
     26.5700	  556.00	  539.13	-1723.63	  412.75
     26.6700	  529.00	  539.44	-1750.94	  412.42
     26.7700	  521.00	  539.89	-1759.39	  412.09
     26.8700	  546.00	  540.52	-1735.02	  411.76
     26.9700	  567.00	  541.40	-1714.90	  411.43
     27.0700	  553.00	  542.59	-1730.09	  411.10
     27.1700	  574.00	  544.27	-1710.77	  410.78
     27.2700	  518.00	  546.68	-1769.18	  410.45
     27.3700	  537.00	  550.40	-1753.90	  410.12
     27.4700	  554.00	  556.53	-1743.03	  409.80
     27.5700	  548.00	  567.04	-1759.54	  409.47
     27.6700	  539.00	  585.04	-1786.54	  409.15
     27.7700	  593.00	  614.52	-1762.02	  408.83
     27.8700	  631.00	  658.87	-1768.37	  408.51
     27.9700	  660.00	  718.05	-1798.55	  408.19
     28.0700	  803.00	  784.82	-1722.32	  407.87
     28.1700	  913.00	  841.57	-1669.07	  407.55
     28.2700	  960.00	  862.49	-1642.99	  407.24
     28.3700	  904.00	  834.04	-1670.54	  406.92
     28.4700	  757.00	  782.12	-1765.62	  406.61
     28.5700	  726.00	  745.34	-1759.84	  406.29
     28.6700	  660.00	  740.11	-1820.61	  405.98
     28.7700	  709.00	  760.70	-1792.20	  405.67
     28.8700	  793.00	  786.03	-1733.53	  405.36
     28.9700	  796.00	  787.72	-1732.22	  405.05
     29.0700	  762.00	  749.34	-1727.84	  404.74
     29.1700	  751.00	  687.73	-1677.23	  404.44
     29.2700	  646.00	  630.37	-1724.87	  404.13
     29.3700	  604.00	  589.60	-1726.10	  403.83
     29.4700	  582.00	  565.24	-1723.74	  403.53
     29.5700	  573.00	  552.14	-1719.64	  403.22
     29.6700	  572.00	  545.21	-1713.71	  402.92
     29.7700	  606.00	  541.24	-1675.74	  402.62
     29.8700	  609.00	  538.74	-1670.24	  402.33
     29.9700	  604.00	  537.15	-1673.65	  402.03
     30.0700	  579.00	  536.33	-1697.83	  401.73
     30.1700	  561.00	  536.47	-1715.97	  401.44
     30.2700	  534.00	  538.08	-1744.58	  401.15
     30.3700	  551.00	  542.20	-1731.70	  400.85
     30.4700	  573.00	  550.37	-1717.87	  400.56
     30.5700	  604.00	  564.14	-1700.64	  400.27
     30.6700	  559.00	  583.83	-1765.33	  399.99
     30.7700	  574.00	  606.82	-1773.32	  399.70
     30.8700	  631.00	  626.32	-1735.82	  399.41
     30.9700	  627.00	  632.34	-1745.84	  399.13
     31.0700	  579.00	  618.56	-1780.06	  398.85
     31.1700	  589.00	  592.44	-1743.94	  398.57
     31.2700	  589.00	  566.82	-1718.32	  398.29
     31.3700	  524.00	  548.14	-1764.64	  398.01
     31.4700	  556.00	  536.86	-1721.36	  397.73
     31.5700	  530.00	  530.85	-1741.35	  397.46
     31.6700	  516.00	  527.75	-1752.25	  397.18
     31.7700	  524.00	  526.03	-1742.53	  396.91
     31.8700	  524.00	  524.93	-1741.43	  396.64
     31.9700	  491.00	  524.17	-1773.67	  396.37
     32.0700	  532.00	  523.64	-1732.14	  396.10
     32.1700	  544.00	  523.28	-1719.78	  395.83
     32.2700	  557.00	  523.08	-1706.58	  395.57
     32.3700	  559.00	  523.03	-1704.53	  395.30
     32.4700	  593.00	  523.13	-1670.63	  395.04
     32.5700	  528.00	  523.40	-1735.90	  394.78
     32.6700	  587.00	  523.88	-1677.38	  394.52
     32.7700	  566.00	  524.60	-1699.10	  394.26
     32.8700	  555.00	  525.64	-1711.14	  394.00
     32.9700	  531.00	  527.12	-1736.62	  393.75
     33.0700	  590.00	  529.27	-1679.77	  393.49
     33.1700	  565.00	  532.57	-1708.07	  393.24
     33.2700	  530.00	  538.13	-1748.63	  392.99
     33.3700	  557.00	  548.34	-1731.84	  392.74
     33.4700	  557.00	  567.70	-1751.20	  392.49
     33.5700	  584.00	  603.22	-1759.72	  392.24
     33.6700	  573.00	  662.67	-1830.17	  392.00
     33.7700	  749.00	  749.01	-1740.51	  391.76
     33.8700	  887.00	  851.98	-1705.48	  391.51
     33.9700	  988.00	  943.15	-1695.65	  391.27
     34.0700	 1053.00	  980.08	-1667.58	  391.03
     34.1700	 1013.00	  933.79	-1661.29	  390.80
     34.2700	  920.00	  828.92	-1649.42	  390.56
     34.3700	  777.00	  718.54	-1682.04	  390.33
     34.4700	  613.00	  633.90	-1761.40	  390.09
     34.5700	  615.00	  580.90	-1706.40	  389.86
     34.6700	  562.00	  552.20	-1730.70	  389.63
     34.7700	  572.00	  537.71	-1706.21	  389.41
     34.8700	  530.00	  530.10	-1740.60	  389.18
     34.9700	  536.00	  525.52	-1730.02	  388.96
     35.0700	  538.00	  522.35	-1724.85	  388.73
     35.1700	  512.00	  519.97	-1748.47	  388.51
     35.2700	  540.00	  518.08	-1718.58	  388.29
     35.3700	  499.00	  516.54	-1758.04	  388.07
     35.4700	  504.00	  515.26	-1751.76	  387.86
     35.5700	  505.00	  514.18	-1749.68	  387.64
     35.6700	  532.00	  513.26	-1721.76	  387.43
     35.7700	  502.00	  512.45	-1750.95	  387.22
     35.8700	  535.00	  511.75	-1717.25	  387.01
     35.9700	  526.00	  511.12	-1725.62	  386.80
     36.0700	  517.00	  511.03	-1734.53	  386.59
     36.1700	  473.00	  510.53	-1778.03	  386.39
     36.2700	  516.00	  510.08	-1734.58	  386.18
     36.3700	  514.00	  509.67	-1736.17	  385.98
     36.4700	  503.00	  509.31	-1746.81	  385.78
     36.5700	  435.00	  508.98	-1814.48	  385.58
     36.6700	  457.00	  508.69	-1792.19	  385.39
     36.7700	  523.00	  508.45	-1725.95	  385.19
     36.8700	  451.00	  508.27	-1797.77	  385.00
     36.9700	  482.00	  508.22	-1766.72	  384.81
     37.0700	  485.00	  508.41	-1763.91	  384.62
     37.1700	  540.00	  509.06	-1709.56	  384.43
     37.2700	  525.00	  510.49	-1725.99	  384.24
     37.3700	  504.00	  512.98	-1749.48	  384.06
     37.4700	  478.00	  516.46	-1778.96	  383.87
     37.5700	  547.00	  520.27	-1713.77	  383.69
     37.6700	  531.00	  523.09	-1732.59	  383.51
     37.7700	  524.00	  523.51	-1740.01	  383.33
     37.8700	  514.00	  521.33	-1747.83	  383.16
     37.9700	  513.00	  517.87	-1745.37	  382.98
     38.0700	  510.00	  514.33	-1744.83	  382.81
     38.1700	  485.00	  511.19	-1766.69	  382.64
     38.2700	  512.00	  508.68	-1737.18	  382.47
     38.3700	  546.00	  506.86	-1701.36	  382.30
     38.4700	  484.00	  505.64	-1762.14	  382.13
     38.5700	  507.00	  504.83	-1738.33	  381.97
     38.6700	  504.00	  504.21	-1740.71	  381.80
     38.7700	  513.00	  503.84	-1731.34	  381.64
     38.8700	  555.00	  503.56	-1689.06	  381.48
     38.9700	  511.00	  503.33	-1732.83	  381.32
     39.0700	  466.00	  503.12	-1777.62	  381.17
     39.1700	  497.00	  502.86	-1746.36	  381.01
     39.2700	  494.00	  502.69	-1749.19	  380.86
     39.3700	  490.00	  502.53	-1753.03	  380.71
     39.4700	  521.00	  502.51	-1722.01	  380.56
     39.5700	  500.00	  502.37	-1742.87	  380.41
     39.6700	  493.00	  502.25	-1749.75	  380.27
     39.7700	  504.00	  502.13	-1738.63	  380.12
     39.8700	  505.00	  502.02	-1737.52	  379.98
     39.9700	  500.00	  501.92	-1742.42	  379.84
     40.0700	  487.00	  501.83	-1755.33	  379.70
     40.1700	  481.00	  501.75	-1761.25	  379.56
     40.2700	  467.00	  501.68	-1775.18	  379.43
     40.3700	  468.00	  501.63	-1774.13	  379.29
     40.4700	  489.00	  501.59	-1753.09	  379.16
     40.5700	  497.00	  501.56	-1745.06	  379.03
     40.6700	  490.00	  501.55	-1752.05	  378.90
     40.7700	  518.00	  501.56	-1724.06	  378.77
     40.8700	  442.00	  501.60	-1800.10	  378.65
     40.9700	  495.00	  501.67	-1747.17	  378.52
     41.0700	  498.00	  501.77	-1744.27	  378.40
     41.1700	  471.00	  501.91	-1771.41	  378.28
     41.2700	  514.00	  502.08	-1728.58	  378.16
     41.3700	  509.00	  502.35	-1733.85	  378.04
     41.4700	  503.00	  502.71	-1740.21	  377.93
     41.5700	  477.00	  503.63	-1767.13	  377.82
     41.6700	  467.00	  504.32	-1777.82	  377.70
     41.7700	  469.00	  505.35	-1776.85	  377.59
     41.8700	  558.00	  507.07	-1689.57	  377.48
     41.9700	  533.00	  510.25	-1717.75	  377.38
     42.0700	  478.00	  516.34	-1778.84	  377.27
     42.1700	  533.00	  527.59	-1735.09	  377.17
     42.2700	  515.00	  546.51	-1772.01	  377.07
     42.3700	  608.00	  574.44	-1706.94	  376.97
     42.4700	  564.00	  608.93	-1785.43	  376.87
     42.5700	  622.00	  642.34	-1760.84	  376.77
     42.6700	  586.00	  662.40	-1816.90	  376.68
     42.7700	  584.00	  658.54	-1815.04	  376.58
     42.8700	  536.00	  631.99	-1836.49	  376.49
     42.9700	  573.00	  595.88	-1763.38	  376.40
     43.0700	  560.00	  562.40	-1742.90	  376.31
     43.1700	  523.00	  537.42	-1754.92	  376.23
     43.2700	  476.00	  521.56	-1786.06	  376.14
     43.3700	  568.00	  512.69	-1685.19	  376.06
     43.4700	  510.00	  508.07	-1738.57	  375.98
     43.5700	  522.00	  505.66	-1724.16	  375.90
     43.6700	  517.00	  504.28	-1727.78	  375.82
     43.7700	  495.00	  503.56	-1749.06	  375.74
     43.8700	  538.00	  502.91	-1705.41	  375.67
     43.9700	  485.00	  502.47	-1757.97	  375.59
     44.0700	  495.00	  502.09	-1747.59	  375.52
     44.1700	  537.00	  501.80	-1705.30	  375.45
     44.2700	  548.00	  501.57	-1694.07	  375.38
     44.3700	  476.00	  501.40	-1765.90	  375.32
     44.4700	  480.00	  501.27	-1761.77	  375.25
     44.5700	  518.00	  501.06	-1723.56	  375.19
     44.6700	  475.00	  501.00	-1766.50	  375.12
     44.7700	  481.00	  500.98	-1760.48	  375.06
     44.8700	  496.00	  500.98	-1745.48	  375.01
     44.9700	  517.00	  501.01	-1724.51	  374.95
     45.0700	  476.00	  501.06	-1765.56	  374.89
     45.1700	  491.00	  501.13	-1750.63	  374.84
     45.2700	  476.00	  501.41	-1765.91	  374.79
     45.3700	  507.00	  501.52	-1735.02	  374.74
     45.4700	  529.00	  501.66	-1713.16	  374.69
     45.5700	  480.00	  501.83	-1762.33	  374.64
     45.6700	  520.00	  502.02	-1722.52	  374.59
     45.7700	  489.00	  502.23	-1753.73	  374.55
     45.8700	  575.00	  502.47	-1667.97	  374.51
     45.9700	  504.00	  502.75	-1739.25	  374.46
     46.0700	  496.00	  503.06	-1747.56	  374.42
     46.1700	  492.00	  503.40	-1751.90	  374.39
     46.2700	  473.00	  503.79	-1771.29	  374.35
     46.3700	  490.00	  504.23	-1754.73	  374.31
     46.4700	  534.00	  504.73	-1711.23	  374.28
     46.5700	  496.00	  505.30	-1749.80	  374.25
     46.6700	  521.00	  505.96	-1725.46	  374.22
     46.7700	  510.00	  506.73	-1737.23	  374.19
     46.8700	  504.00	  507.68	-1744.18	  374.16
     46.9700	  520.00	  508.92	-1729.42	  374.14
     47.0700	  499.00	  510.74	-1752.24	  374.11
     47.1700	  508.00	  513.70	-1746.20	  374.09
     47.2700	  512.00	  518.68	-1747.18	  374.07
     47.3700	  520.00	  526.73	-1747.23	  374.05
     47.4700	  534.00	  538.91	-1745.41	  374.03
     47.5700	  515.00	  555.29	-1780.79	  374.01
     47.6700	  564.00	  574.14	-1750.64	  374.00
     47.7700	  597.00	  591.39	-1734.89	  373.98
     47.8700	  611.00	  601.40	-1730.90	  373.97
     47.9700	  597.00	  600.02	-1743.52	  373.96
     48.0700	  643.00	  588.60	-1686.10	  373.95
     48.1700	  575.00	  572.82	-1738.32	  373.94
     48.2700	  527.00	  558.05	-1771.55	  373.94
     48.3700	  551.00	  547.26	-1736.76	  373.93
     48.4700	  554.00	  541.25	-1727.75	  373.93
     48.5700	  531.00	  539.42	-1748.92	  373.93
     48.6700	  518.00	  540.74	-1763.24	  373.93
     48.7700	  556.00	  544.34	-1728.84	  373.93
     48.8700	  506.00	  549.79	-1784.29	  373.93
     48.9700	  551.00	  557.18	-1746.68	  373.93
     49.0700	  543.00	  567.20	-1764.70	  373.94
     49.1700	  574.00	  581.53	-1748.03	  373.95
     49.2700	  642.00	  603.71	-1702.21	  373.95
     49.3700	  638.00	  640.55	-1743.05	  373.96
     49.4700	  744.00	  703.86	-1700.36	  373.97
     49.5700	  778.00	  809.46	-1771.96	  373.99
     49.6700	  898.00	  976.34	-1818.84	  374.00
     49.7700	 1120.00	 1218.12	-1838.62	  374.01
     49.8700	 1507.00	 1532.24	-1765.74	  374.03
     49.9700	 1924.00	 1887.73	-1704.23	  374.05
     50.0700	 2277.00	 2216.44	-1679.94	  374.07
     50.1700	 2429.00	 2419.24	-1730.74	  374.09
     50.2700	 2499.00	 2411.32	-1652.82	  374.11
     50.3700	 2271.00	 2194.27	-1663.77	  374.13
     50.4700	 1941.00	 1858.51	-1658.01	  374.15
     50.5700	 1435.00	 1506.07	-1811.57	  374.18
     50.6700	 1051.00	 1202.94	-1892.44	  374.21
     50.7700	  756.00	  976.81	-1961.31	  374.23
     50.8700	  653.00	  827.32	-1914.82	  374.26
     50.9700	  677.00	  738.00	-1801.50	  374.29
     51.0700	  622.00	  687.09	-1805.59	  374.33
     51.1700	  626.00	  655.48	-1769.98	  374.36
     51.2700	  567.00	  631.05	-1804.55	  374.39
     51.3700	  577.00	  609.29	-1772.79	  374.43
     51.4700	  592.00	  590.06	-1738.56	  374.47
     51.5700	  602.00	  574.17	-1712.67	  374.51
     51.6700	  574.00	  562.07	-1728.57	  374.55
     51.7700	  548.00	  553.51	-1746.01	  374.59
     51.8700	  591.00	  547.81	-1697.31	  374.63
     51.9700	  597.00	  544.19	-1687.69	  374.67
     52.0700	  559.00	  542.03	-1723.53	  374.72
     52.1700	  573.00	  541.17	-1708.67	  374.76
     52.2700	  565.00	  541.05	-1716.55	  374.81
     52.3700	  577.00	  542.01	-1705.51	  374.86
     52.4700	  588.00	  544.50	-1697.00	  374.91
     52.5700	  579.00	  549.66	-1711.16	  374.96
     52.6700	  583.00	  559.79	-1717.29	  375.01
     52.7700	  671.00	  579.05	-1648.55	  375.06
     52.8700	  693.00	  613.66	-1661.16	  375.11
     52.9700	  725.00	  671.09	-1686.59	  375.17
     53.0700	  860.00	  757.20	-1637.70	  375.22
     53.1700	  951.00	  871.98	-1661.48	  375.28
     53.2700	 1026.00	 1004.69	-1719.19	  375.34
     53.3700	 1157.00	 1131.21	-1714.71	  375.40
     53.4700	 1179.00	 1216.21	-1777.71	  375.46
     53.5700	 1187.00	 1227.16	-1780.66	  375.52
     53.6700	 1069.00	 1158.72	-1830.22	  375.58
     53.7700	  980.00	 1038.63	-1799.13	  375.65
     53.8700	  828.00	  904.35	-1816.85	  375.71
     53.9700	  747.00	  783.62	-1777.12	  375.78
     54.0700	  680.00	  690.34	-1750.84	  375.85
     54.1700	  615.00	  626.69	-1752.19	  375.91
     54.2700	  589.00	  587.72	-1739.22	  375.98
     54.3700	  573.00	  565.91	-1733.41	  376.05
     54.4700	  597.00	  554.48	-1697.98	  376.12
     54.5700	  541.00	  548.80	-1748.30	  376.20
     54.6700	  502.00	  546.12	-1784.62	  376.27
     54.7700	  615.00	  545.10	-1670.60	  376.34
     54.8700	  563.00	  545.14	-1722.64	  376.42
     54.9700	  570.00	  545.99	-1716.49	  376.50
     55.0700	  526.00	  547.59	-1762.09	  376.57
     55.1700	  573.00	  549.98	-1717.48	  376.65
     55.2700	  549.00	  553.15	-1744.65	  376.73
     55.3700	  559.00	  557.27	-1738.77	  376.81
     55.4700	  577.00	  562.55	-1726.05	  376.89
     55.5700	  557.00	  569.41	-1752.91	  376.97
     55.6700	  584.00	  578.68	-1735.18	  377.06
     55.7700	  563.00	  592.08	-1769.58	  377.14
     55.8700	  596.00	  613.03	-1757.53	  377.22
     55.9700	  600.00	  647.93	-1788.43	  377.31
     56.0700	  669.00	  707.39	-1778.89	  377.40
     56.1700	  693.00	  806.65	-1854.15	  377.48
     56.2700	  923.00	  963.70	-1781.20	  377.57
     56.3700	 1128.00	 1193.80	-1806.30	  377.66
     56.4700	 1420.00	 1500.81	-1821.31	  377.75
     56.5700	 1776.00	 1867.43	-1831.93	  377.84
     56.6700	 2106.00	 2247.43	-1881.93	  377.93
     56.7700	 2518.00	 2564.10	-1786.60	  378.02
     56.8700	 2681.00	 2725.14	-1784.64	  378.12
     56.9700	 2633.00	 2670.44	-1777.94	  378.21
     57.0700	 2349.00	 2421.15	-1812.65	  378.31
     57.1700	 2111.00	 2062.29	-1691.79	  378.40
     57.2700	 1671.00	 1683.16	-1752.66	  378.50
     57.3700	 1330.00	 1345.72	-1756.22	  378.59
     57.4700	 1068.00	 1080.75	-1753.25	  378.69
     57.5700	  883.00	  893.81	-1751.31	  378.79
     57.6700	  777.00	  774.35	-1737.85	  378.89
     57.7700	  660.00	  705.52	-1786.02	  378.99
     57.8700	  703.00	  671.62	-1709.12	  379.09
     57.9700	  647.00	  661.67	-1755.18	  379.19
     58.0700	  691.00	  669.97	-1719.47	  379.30
     58.1700	  678.00	  694.69	-1757.19	  379.40
     58.2700	  770.00	  736.04	-1706.54	  379.50
     58.3700	  801.00	  794.33	-1733.83	  379.61
     58.4700	  937.00	  868.25	-1671.75	  379.71
     58.5700	 1068.00	  953.35	-1625.85	  379.82
     58.6700	 1208.00	 1041.43	-1573.93	  379.92
     58.7700	 1310.00	 1122.90	-1553.40	  380.03
     58.8700	 1492.00	 1191.03	-1439.53	  380.14
     58.9700	 1559.00	 1241.61	-1423.11	  380.25
     59.0700	 1564.00	 1269.00	-1445.50	  380.35
     59.1700	 1543.00	 1268.33	-1465.83	  380.46
     59.2700	 1385.00	 1243.56	-1599.06	  380.57
     59.3700	 1342.00	 1207.44	-1605.94	  380.69
     59.4700	 1221.00	 1172.96	-1692.46	  380.80
     59.5700	 1184.00	 1148.86	-1705.36	  380.91
     59.6700	 1144.00	 1142.69	-1739.19	  381.02
     59.7700	 1215.00	 1163.05	-1688.55	  381.13
     59.8700	 1204.00	 1215.26	-1751.76	  381.25
     59.9700	 1370.00	 1295.09	-1665.59	  381.36
     60.0700	 1487.00	 1386.02	-1639.52	  381.48
     60.1700	 1526.00	 1459.96	-1674.46	  381.59
     60.2700	 1619.00	 1484.66	-1606.16	  381.71
     60.3700	 1615.00	 1440.65	-1566.15	  381.82
     60.4700	 1373.00	 1335.29	-1702.79	  381.94
     60.5700	 1208.00	 1195.26	-1727.76	  382.06
     60.6700	 1029.00	 1048.87	-1760.37	  382.17
     60.7700	  914.00	  916.64	-1743.14	  382.29
     60.8700	  731.00	  810.02	-1819.52	  382.41
     60.9700	  697.00	  732.80	-1776.30	  382.53
     61.0700	  663.00	  683.75	-1761.25	  382.65
     61.1700	  635.00	  659.64	-1765.14	  382.77
     61.2700	  646.00	  657.95	-1752.45	  382.89
     61.3700	  624.00	  678.49	-1794.99	  383.01
     61.4700	  737.00	  723.54	-1727.04	  383.13
     61.5700	  786.00	  796.48	-1750.98	  383.25
     61.6700	  883.00	  899.28	-1756.78	  383.37
     61.7700	  966.00	 1029.47	-1803.97	  383.49
     61.8700	 1109.00	 1177.33	-1808.83	  383.61
     61.9700	 1205.00	 1324.30	-1859.80	  383.74
     62.0700	 1381.00	 1442.97	-1802.47	  383.86
     62.1700	 1395.00	 1502.61	-1848.11	  383.98
     62.2700	 1412.00	 1483.68	-1812.18	  384.11
     62.3700	 1318.00	 1391.98	-1814.48	  384.23
     62.4700	 1128.00	 1254.20	-1866.70	  384.35
     62.5700	 1039.00	 1100.92	-1802.42	  384.48
     62.6700	  859.00	  955.79	-1837.29	  384.60
     62.7700	  755.00	  833.09	-1818.59	  384.73
     62.8700	  715.00	  738.55	-1764.05	  384.85
     62.9700	  631.00	  671.38	-1780.88	  384.98
     63.0700	  641.00	  626.97	-1726.47	  385.10
     63.1700	  622.00	  599.39	-1717.89	  385.23
     63.2700	  580.00	  583.22	-1743.72	  385.36
     63.3700	  592.00	  574.48	-1722.98	  385.48
     63.4700	  566.00	  570.80	-1745.30	  385.61
     63.5700	  561.00	  571.32	-1750.82	  385.74
     63.6700	  578.00	  576.41	-1738.91	  385.86
     63.7700	  607.00	  587.44	-1720.94	  385.99
     63.8700	  653.00	  606.40	-1693.90	  386.12
     63.9700	  708.00	  635.40	-1667.90	  386.24
     64.0700	  742.00	  675.91	-1674.41	  386.37
     64.1700	  752.00	  727.79	-1716.29	  386.50
     64.2700	  860.00	  788.36	-1668.86	  386.63
     64.3700	  865.00	  851.80	-1727.30	  386.76
     64.4700	 1006.00	  909.11	-1643.61	  386.88
     64.5700	  967.00	  949.08	-1722.58	  387.01
     64.6700	 1091.00	  964.23	-1613.73	  387.14
     64.7700	  923.00	  952.03	-1769.53	  387.27
     64.8700	  962.00	  916.85	-1695.35	  387.40
     64.9700	  931.00	  867.14	-1676.64	  387.52
     65.0700	  850.00	  812.34	-1702.84	  387.65
     65.1700	  771.00	  760.09	-1729.59	  387.78
     65.2700	  743.00	  714.67	-1712.17	  387.91
     65.3700	  652.00	  677.22	-1765.72	  388.04
     65.4700	  637.00	  647.01	-1750.51	  388.17
     65.5700	  583.00	  622.84	-1780.34	  388.29
     65.6700	  601.00	  603.76	-1743.26	  388.42
     65.7700	  583.00	  589.05	-1746.55	  388.55
     65.8700	  540.00	  578.11	-1778.61	  388.68
     65.9700	  564.00	  570.44	-1746.94	  388.81
     66.0700	  542.00	  565.56	-1764.06	  388.94
     66.1700	  550.00	  563.02	-1753.52	  389.06
     66.2700	  571.00	  562.42	-1731.92	  389.19
     66.3700	  565.00	  563.43	-1738.93	  389.32
     66.4700	  536.00	  565.86	-1770.36	  389.45
     66.5700	  590.00	  569.84	-1720.34	  389.58
     66.6700	  575.00	  575.56	-1741.06	  389.70
     66.7700	  519.00	  584.03	-1805.53	  389.83
     66.8700	  519.00	  597.01	-1818.51	  389.96
     66.9700	  616.00	  617.57	-1742.07	  390.09
     67.0700	  623.00	  650.56	-1768.06	  390.21
     67.1700	  698.00	  702.86	-1745.36	  390.34
     67.2700	  776.00	  783.16	-1747.66	  390.47
     67.3700	  893.00	  900.75	-1748.25	  390.59
     67.4700	 1108.00	 1063.16	-1695.66	  390.72
     67.5700	 1301.00	 1272.97	-1712.47	  390.85
     67.6700	 1564.00	 1523.92	-1700.42	  390.97
     67.7700	 1840.00	 1799.17	-1699.67	  391.10
     67.8700	 2041.00	 2068.70	-1768.20	  391.22
     67.9700	 2257.00	 2291.09	-1774.59	  391.35
     68.0700	 2404.00	 2420.33	-1756.83	  391.47
     68.1700	 2559.00	 2423.18	-1604.68	  391.60
     68.2700	 2314.00	 2298.81	-1725.31	  391.72
     68.3700	 2120.00	 2079.48	-1699.98	  391.85
     68.4700	 1820.00	 1811.32	-1731.82	  391.97
     68.5700	 1495.00	 1535.99	-1781.49	  392.10
     68.6700	 1248.00	 1283.89	-1776.39	  392.22
     68.7700	 1035.00	 1072.77	-1778.27	  392.34
     68.8700	  924.00	  908.93	-1725.43	  392.46
     68.9700	  782.00	  790.14	-1748.64	  392.59
     69.0700	  720.00	  709.01	-1729.51	  392.71
     69.1700	  695.00	  656.24	-1701.74	  392.83
     69.2700	  643.00	  623.10	-1720.60	  392.95
     69.3700	  534.00	  602.59	-1809.09	  393.07
     69.4700	  576.00	  589.81	-1754.31	  393.19
     69.5700	  585.00	  581.60	-1737.10	  393.31
     69.6700	  590.00	  576.11	-1726.61	  393.43
     69.7700	  565.00	  572.32	-1747.82	  393.55
     69.8700	  596.00	  569.67	-1714.17	  393.67
     69.9700	  546.00	  567.92	-1762.42	  393.79
     70.0700	  546.00	  566.91	-1761.41	  393.91
     70.1700	  564.00	  566.62	-1743.12	  394.03
     70.2700	  506.00	  567.05	-1801.55	  394.15
     70.3700	  552.00	  568.29	-1756.79	  394.26
     70.4700	  555.00	  570.60	-1756.10	  394.38
     70.5700	  586.00	  574.45	-1728.95	  394.49
     70.6700	  560.00	  580.72	-1761.22	  394.61
     70.7700	  541.00	  590.89	-1790.39	  394.73
     70.8700	  583.00	  607.38	-1764.88	  394.84
     70.9700	  649.00	  633.70	-1725.20	  394.95
     71.0700	  646.00	  674.57	-1769.07	  395.07
     71.1700	  686.00	  735.57	-1790.07	  395.18
     71.2700	  832.00	  822.29	-1730.79	  395.29
     71.3700	  912.00	  938.90	-1767.40	  395.40
     71.4700	 1062.00	 1086.26	-1764.76	  395.52
     71.5700	 1235.00	 1260.17	-1765.67	  395.63
     71.6700	 1450.00	 1450.56	-1741.06	  395.74
     71.7700	 1552.00	 1637.82	-1826.32	  395.85
     71.8700	 1772.00	 1798.29	-1766.79	  395.96
     71.9700	 1814.00	 1904.10	-1830.60	  396.06
     72.0700	 1901.00	 1932.31	-1771.81	  396.17
     72.1700	 1792.00	 1876.19	-1824.69	  396.28
     72.2700	 1752.00	 1749.24	-1737.74	  396.39
     72.3700	 1664.00	 1576.93	-1653.43	  396.49
     72.4700	 1506.00	 1387.44	-1621.94	  396.60
     72.5700	 1273.00	 1202.58	-1670.08	  396.70
     72.6700	 1123.00	 1037.67	-1655.17	  396.81
     72.7700	 1027.00	  900.96	-1614.46	  396.91
     72.8700	  907.00	  794.55	-1628.05	  397.01
     72.9700	  809.00	  716.20	-1647.70	  397.11
     73.0700	  773.00	  661.18	-1628.68	  397.22
     73.1700	  717.00	  623.95	-1647.45	  397.32
     73.2700	  675.00	  599.37	-1664.87	  397.42
     73.3700	  583.00	  583.29	-1740.79	  397.51
     73.4700	  596.00	  572.72	-1717.22	  397.61
     73.5700	  613.00	  565.68	-1693.18	  397.71
     73.6700	  608.00	  560.96	-1693.46	  397.81
     73.7700	  582.00	  557.87	-1716.37	  397.90
     73.8700	  570.00	  556.00	-1726.50	  398.00
     73.9700	  564.00	  555.14	-1731.64	  398.10
     74.0700	  592.00	  555.10	-1703.60	  398.19
     74.1700	  644.00	  555.70	-1652.20	  398.28
     74.2700	  629.00	  556.71	-1668.21	  398.37
     74.3700	  586.00	  557.86	-1712.36	  398.47
     74.4700	  603.00	  558.80	-1696.30	  398.56
     74.5700	  634.00	  559.19	-1665.69	  398.65
     74.6700	  654.00	  558.76	-1645.26	  398.74
     74.7700	  627.00	  557.47	-1670.97	  398.83
     74.8700	  662.00	  555.49	-1633.99	  398.91
     74.9700	  602.00	  553.17	-1691.67	  399.00
     75.0700	  629.00	  550.90	-1662.40	  399.09
     75.1700	  574.00	  549.03	-1715.53	  399.17
     75.2700	  581.00	  548.07	-1707.57	  399.26
     75.3700	  544.00	  548.35	-1744.85	  399.34
     75.4700	  565.00	  550.40	-1725.90	  399.42
     75.5700	  578.00	  554.60	-1717.10	  399.50
     75.6700	  572.00	  561.68	-1730.18	  399.58
     75.7700	  565.00	  572.00	-1747.50	  399.66
     75.8700	  561.00	  585.87	-1765.37	  399.74
     75.9700	  589.00	  603.23	-1754.73	  399.82
     76.0700	  648.00	  623.52	-1716.02	  399.90
     76.1700	  646.00	  645.58	-1740.08	  399.97
     76.2700	  629.00	  667.57	-1779.07	  400.05
     76.3700	  737.00	  687.03	-1690.53	  400.12
     76.4700	  703.00	  701.18	-1738.68	  400.20
     76.5700	  713.00	  707.47	-1734.97	  400.27
     76.6700	  744.00	  704.59	-1701.09	  400.34
     76.7700	  733.00	  693.10	-1700.60	  400.41
     76.8700	  630.00	  675.18	-1785.68	  400.48
     76.9700	  646.00	  653.45	-1747.95	  400.55
     77.0700	  618.00	  630.86	-1753.36	  400.62
     77.1700	  626.00	  609.32	-1723.82	  400.68
     77.2700	  585.00	  590.25	-1745.75	  400.75
     77.3700	  543.00	  574.41	-1771.91	  400.81
     77.4700	  516.00	  561.97	-1786.47	  400.88
     77.5700	  528.00	  552.70	-1765.20	  400.94
     77.6700	  498.00	  546.10	-1788.60	  401.00
     77.7700	  559.00	  541.60	-1723.10	  401.06
     77.8700	  504.00	  538.62	-1775.12	  401.12
     77.9700	  544.00	  536.70	-1733.20	  401.18
     78.0700	  528.00	  535.48	-1747.98	  401.24
     78.1700	  566.00	  534.70	-1709.20	  401.29
     78.2700	  495.00	  534.20	-1779.70	  401.35
     78.3700	  564.00	  533.89	-1710.39	  401.40
     78.4700	  535.00	  533.71	-1739.21	  401.46
     78.5700	  499.00	  533.63	-1775.13	  401.51
     78.6700	  484.00	  533.66	-1790.16	  401.56
     78.7700	  534.00	  533.80	-1740.30	  401.61
     78.8700	  508.00	  534.07	-1766.57	  401.66
     78.9700	  472.00	  534.50	-1803.00	  401.71
     79.0700	  546.00	  535.14	-1729.64	  401.75
     79.1700	  500.00	  536.04	-1776.54	  401.80
     79.2700	  499.00	  537.06	-1778.56	  401.84
     79.3700	  553.00	  538.63	-1726.13	  401.89
     79.4700	  504.00	  540.62	-1777.12	  401.93
     79.5700	  515.00	  543.09	-1768.59	  401.97
     79.6700	  515.00	  546.10	-1771.60	  402.01
     79.7700	  525.00	  549.74	-1765.24	  402.05
     79.8700	  502.00	  554.11	-1792.61	  402.09
     79.9700	  534.00	  559.37	-1765.86	  402.12
     80.0700	  512.00	  565.72	-1794.22	  402.16
     80.1700	  565.00	  573.45	-1748.95	  402.19
     80.2700	  569.00	  582.90	-1754.40	  402.23
     80.3700	  541.00	  594.38	-1793.88	  402.26
     80.4700	  584.00	  608.05	-1764.55	  402.29
     80.5700	  566.00	  623.85	-1798.35	  402.32
     80.6700	  645.00	  641.36	-1736.86	  402.35
     80.7700	  644.00	  659.79	-1756.29	  402.37
     80.8700	  635.00	  678.04	-1783.54	  402.40
     80.9700	  661.00	  694.78	-1774.28	  402.43
     81.0700	  670.00	  708.73	-1779.23	  402.45
     81.1700	  750.00	  718.84	-1709.34	  402.47
     81.2700	  758.00	  724.32	-1706.82	  402.49
     81.3700	  742.00	  724.79	-1723.29	  402.51
     81.4700	  778.00	  720.27	-1682.77	  402.53
     81.5700	  779.00	  711.27	-1672.77	  402.55
     81.6700	  719.00	  698.51	-1720.01	  402.56
     81.7700	  753.00	  682.91	-1670.41	  402.58
     81.8700	  720.00	  665.49	-1685.99	  402.59
     81.9700	  706.00	  647.40	-1681.90	  402.61
     82.0700	  727.00	  629.65	-1643.15	  402.62
     82.1700	  666.00	  613.17	-1687.67	  402.63
     82.2700	  639.00	  598.43	-1699.93	  402.64
     82.3700	  635.00	  585.70	-1691.20	  402.64
     82.4700	  636.00	  575.07	-1679.57	  402.65
     82.5700	  620.00	  566.48	-1686.98	  402.66
     82.6700	  607.00	  559.91	-1693.41	  402.66
     82.7700	  592.00	  555.19	-1703.69	  402.66
     82.8700	  522.00	  552.21	-1770.71	  402.66
     82.9700	  565.00	  550.83	-1726.33	  402.66
     83.0700	  555.00	  550.94	-1736.44	  402.66
     83.1700	  531.00	  552.44	-1761.94	  402.66
     83.2700	  585.00	  555.21	-1710.71	  402.65
     83.3700	  540.00	  559.06	-1759.56	  402.65
     83.4700	  551.00	  563.74	-1753.24	  402.64
     83.5700	  481.00	  568.93	-1828.43	  402.64
     83.6700	  537.00	  574.19	-1777.69	  402.63
     83.7700	  584.00	  579.00	-1735.50	  402.62
     83.8700	  538.00	  582.77	-1785.27	  402.60
     83.9700	  595.00	  584.95	-1730.45	  402.59
     84.0700	  575.00	  585.16	-1750.66	  402.58
     84.1700	  567.00	  583.33	-1756.83	  402.56
     84.2700	  580.00	  579.71	-1740.21	  402.54
     84.3700	  534.00	  574.78	-1781.28	  402.53
     84.4700	  556.00	  569.10	-1753.60	  402.51
     84.5700	  524.00	  563.19	-1779.69	  402.49
     84.6700	  519.00	  557.45	-1778.95	  402.46
     84.7700	  532.00	  552.20	-1760.70	  402.44
     84.8700	  514.00	  547.65	-1774.15	  402.42
     84.9700	  548.00	  543.87	-1736.37	  402.39
     85.0700	  538.00	  540.89	-1743.39	  402.36
     85.1700	  557.00	  538.65	-1722.15	  402.33
     85.2700	  504.00	  537.06	-1773.56	  402.30
     85.3700	  533.00	  536.01	-1743.51	  402.27
     85.4700	  545.00	  535.41	-1730.91	  402.24
     85.5700	  535.00	  535.19	-1740.69	  402.20
     85.6700	  527.00	  535.29	-1748.79	  402.17
     85.7700	  557.00	  535.70	-1719.20	  402.13
     85.8700	  506.00	  536.44	-1770.94	  402.09
     85.9700	  530.00	  537.56	-1748.06	  402.05
     86.0700	  565.00	  539.16	-1714.66	  402.01
     86.1700	  529.00	  541.37	-1752.88	  401.97
     86.2700	  497.00	  544.35	-1787.85	  401.93
     86.3700	  559.00	  548.25	-1729.75	  401.88
     86.4700	  556.00	  553.25	-1737.75	  401.84
     86.5700	  624.00	  559.46	-1675.96	  401.79
     86.6700	  605.00	  566.92	-1702.42	  401.74
     86.7700	  543.00	  575.23	-1772.73	  401.69
     86.8700	  585.00	  584.80	-1740.30	  401.64
     86.9700	  594.00	  594.89	-1741.39	  401.59
     87.0700	  624.00	  604.90	-1721.40	  401.53
     87.1700	  654.00	  614.09	-1700.59	  401.48
     87.2700	  676.00	  621.62	-1686.12	  401.42
     87.3700	  618.00	  626.65	-1749.15	  401.36
     87.4700	  613.00	  628.56	-1756.06	  401.30
     87.5700	  711.00	  627.09	-1656.59	  401.24
     87.6700	  616.00	  622.54	-1747.04	  401.18
     87.7700	  649.00	  615.58	-1707.08	  401.11
     87.8700	  598.00	  607.11	-1749.61	  401.05
     87.9700	  597.00	  598.08	-1741.58	  400.98
     88.0700	  623.00	  589.36	-1706.86	  400.92
     88.1700	  617.00	  581.66	-1705.16	  400.85
     88.2700	  612.00	  575.57	-1704.07	  400.78
     88.3700	  620.00	  571.45	-1691.95	  400.70
     88.4700	  604.00	  569.51	-1706.01	  400.63
     88.5700	  576.00	  569.74	-1734.24	  400.56
     88.6700	  527.00	  571.99	-1785.49	  400.48
     88.7700	  580.00	  575.96	-1736.46	  400.40
     88.8700	  617.00	  581.20	-1704.70	  400.33
     88.9700	  643.00	  587.18	-1684.68	  400.25
     89.0700	  624.00	  593.27	-1709.77	  400.16
     89.1700	  572.00	  598.79	-1767.29	  400.08
     89.2700	  595.00	  603.05	-1748.55	  400.00
     89.3700	  609.00	  605.45	-1736.95	  399.91
     89.4700	  635.00	  605.60	-1711.10	  399.83
     89.5700	  591.00	  603.43	-1752.93	  399.74
     89.6700	  622.00	  599.18	-1717.68	  399.65
     89.7700	  598.00	  593.33	-1735.83	  399.56
     89.8700	  583.00	  586.46	-1743.96	  399.47
     89.9700	  541.00	  579.13	-1778.63	  399.38
     90.0700	  519.00	  571.83	-1793.33	  399.28
     90.1700	  527.00	  564.94	-1778.44	  399.19
     90.2700	  545.00	  558.74	-1754.24	  399.09
     90.3700	  532.00	  553.39	-1761.89	  398.99
     90.4700	  522.00	  548.97	-1767.47	  398.89
     90.5700	  511.00	  545.47	-1774.97	  398.79
     90.6700	  527.00	  542.81	-1756.31	  398.69
     90.7700	  485.00	  540.91	-1796.41	  398.58
     90.8700	  515.00	  539.64	-1765.14	  398.48
     90.9700	  522.00	  538.91	-1757.41	  398.37
     91.0700	  493.00	  538.63	-1786.13	  398.27
     91.1700	  533.00	  538.76	-1746.26	  398.16
     91.2700	  534.00	  539.29	-1745.79	  398.05
     91.3700	  539.00	  540.23	-1741.73	  397.94
     91.4700	  506.00	  541.65	-1776.15	  397.82
     91.5700	  555.00	  543.67	-1729.17	  397.71
     91.6700	  523.00	  546.41	-1763.91	  397.60
     91.7700	  505.00	  550.06	-1785.56	  397.48
     91.8700	  564.00	  554.80	-1731.30	  397.36
     91.9700	  551.00	  560.60	-1750.10	  397.24
     92.0700	  537.00	  568.07	-1771.57	  397.12
     92.1700	  579.00	  577.10	-1738.60	  397.00
     92.2700	  552.00	  587.76	-1776.26	  396.88
     92.3700	  596.00	  600.00	-1744.50	  396.76
     92.4700	  622.00	  613.68	-1732.18	  396.63
     92.5700	  643.00	  628.54	-1726.04	  396.51
     92.6700	  648.00	  644.18	-1736.68	  396.38
     92.7700	  652.00	  660.10	-1748.60	  396.25
     92.8700	  689.00	  675.70	-1727.20	  396.12
     92.9700	  693.00	  690.38	-1737.88	  395.99
     93.0700	  693.00	  703.60	-1751.10	  395.86
     93.1700	  725.00	  715.10	-1730.60	  395.72
     93.2700	  736.00	  724.96	-1729.46	  395.59
     93.3700	  777.00	  733.55	-1697.05	  395.45
     93.4700	  830.00	  741.46	-1651.96	  395.32
     93.5700	  780.00	  749.26	-1709.76	  395.18
     93.6700	  794.00	  757.53	-1704.03	  395.04
     93.7700	  786.00	  766.72	-1721.22	  394.90
     93.8700	  822.00	  777.27	-1695.77	  394.76
     93.9700	  878.00	  789.56	-1652.06	  394.61
     94.0700	  857.00	  803.91	-1687.41	  394.47
     94.1700	  859.00	  820.38	-1701.88	  394.33
     94.2700	  874.00	  838.70	-1705.20	  394.18
     94.3700	  876.00	  858.16	-1722.66	  394.03
     94.4700	  833.00	  877.59	-1785.09	  393.88
     94.5700	  952.00	  895.44	-1683.94	  393.74
     94.6700	  904.00	  909.84	-1746.34	  393.58
     94.7700	  884.00	  918.89	-1775.39	  393.43
     94.8700	  901.00	  920.98	-1760.48	  393.28
     94.9700	  925.00	  915.22	-1730.72	  393.13
     95.0700	  913.00	  901.71	-1729.21	  392.97
     95.1700	  865.00	  881.49	-1756.99	  392.82
     95.2700	  855.00	  856.30	-1741.80	  392.66
     95.3700	  862.00	  828.18	-1706.68	  392.50
     95.4700	  800.00	  799.21	-1739.71	  392.34
     95.5700	  732.00	  771.40	-1779.90	  392.18
     95.6700	  768.00	  746.58	-1719.08	  392.02
     95.7700	  729.00	  726.41	-1737.91	  391.86
     95.8700	  680.00	  712.35	-1772.85	  391.70
     95.9700	  655.00	  705.69	-1791.19	  391.53
     96.0700	  632.00	  707.52	-1816.02	  391.37
     96.1700	  712.00	  718.78	-1747.28	  391.20
     96.2700	  764.00	  740.19	-1716.69	  391.03
     96.3700	  789.00	  772.18	-1723.68	  390.87
     96.4700	  805.00	  814.87	-1750.37	  390.70
     96.5700	  847.00	  867.89	-1761.39	  390.53
     96.6700	  896.00	  930.39	-1774.89	  390.36
     96.7700	 1022.00	 1000.83	-1719.33	  390.18
     96.8700	 1023.00	 1076.99	-1794.49	  390.01
     96.9700	 1134.00	 1155.93	-1762.43	  389.84
     97.0700	 1173.00	 1234.00	-1801.50	  389.66
     97.1700	 1320.00	 1306.99	-1727.49	  389.49
     97.2700	 1379.00	 1370.30	-1731.80	  389.31
     97.3700	 1404.00	 1419.34	-1755.84	  389.14
     97.4700	 1449.00	 1450.14	-1741.64	  388.96
     97.5700	 1502.00	 1460.15	-1698.65	  388.78
     97.6700	 1481.00	 1448.78	-1708.28	  388.60
     97.7700	 1392.00	 1417.58	-1766.08	  388.42
     97.8700	 1343.00	 1369.73	-1767.23	  388.24
     97.9700	 1293.00	 1309.35	-1756.85	  388.05
     98.0700	 1221.00	 1241.01	-1760.51	  387.87
     98.1700	 1187.00	 1169.03	-1722.53	  387.69
     98.2700	 1105.00	 1097.38	-1732.88	  387.50
     98.3700	 1016.00	 1029.56	-1754.06	  387.32
     98.4700	  951.00	  968.46	-1757.96	  387.13
     98.5700	  905.00	  916.41	-1751.91	  386.95
     98.6700	  745.00	  875.20	-1870.70	  386.76
     98.7700	  772.00	  846.17	-1814.67	  386.57
     98.8700	  754.00	  830.27	-1816.77	  386.38
     98.9700	  820.00	  828.14	-1748.64	  386.19
     99.0700	  837.00	  840.20	-1743.70	  386.00
     99.1700	  825.00	  866.63	-1782.13	  385.81
     99.2700	  848.00	  907.42	-1799.92	  385.62
     99.3700	  902.00	  962.33	-1800.83	  385.43
     99.4700	 1023.00	 1030.79	-1748.29	  385.23
     99.5700	 1066.00	 1111.88	-1786.38	  385.04
     99.6700	 1135.00	 1204.18	-1809.68	  384.85
     99.7700	 1323.00	 1305.64	-1723.14	  384.65
     99.8700	 1319.00	 1413.61	-1835.11	  384.46
     99.9700	 1519.00	 1524.67	-1746.17	  384.26
    100.0700	 1703.00	 1634.79	-1672.29	  384.06
    100.1700	 1717.00	 1739.49	-1762.99	  383.87
    100.2700	 1936.00	 1834.24	-1638.74	  383.67
    100.3700	 1906.00	 1914.99	-1749.49	  383.47
    100.4700	 2039.00	 1978.55	-1680.05	  383.27
    100.5700	 2084.00	 2022.73	-1679.23	  383.08
    100.6700	 2119.00	 2046.23	-1667.73	  382.88
    100.7700	 2058.00	 2048.33	-1730.83	  382.68
    100.8700	 2054.00	 2028.90	-1715.40	  382.48
    100.9700	 2040.00	 1988.69	-1689.19	  382.27
    101.0700	 1893.00	 1929.61	-1777.11	  382.07
    101.1700	 1896.00	 1854.92	-1699.42	  381.87
    101.2700	 1790.00	 1769.05	-1719.55	  381.67
    101.3700	 1776.00	 1677.01	-1641.51	  381.47
    101.4700	 1599.00	 1583.81	-1725.31	  381.27
    101.5700	 1581.00	 1493.90	-1653.40	  381.06
    101.6700	 1402.00	 1410.89	-1749.39	  380.86
    101.7700	 1378.00	 1337.37	-1699.87	  380.66
    101.8700	 1309.00	 1274.85	-1706.35	  380.45
    101.9700	 1243.00	 1223.82	-1721.32	  380.25
    102.0700	 1187.00	 1183.73	-1737.23	  380.04
    102.1700	 1191.00	 1153.18	-1702.68	  379.84
    102.2700	 1136.00	 1130.09	-1734.59	  379.63
    102.3700	 1133.00	 1111.89	-1719.39	  379.43
    102.4700	 1119.00	 1095.80	-1717.30	  379.22
    102.5700	 1040.00	 1079.15	-1779.65	  379.02
    102.6700	 1070.00	 1059.78	-1730.28	  378.81
    102.7700	 1013.00	 1036.26	-1763.76	  378.61
    102.8700	 1020.00	 1008.05	-1728.55	  378.40
    102.9700	  993.00	  975.40	-1722.90	  378.19
    103.0700	  896.00	  939.11	-1783.61	  377.99
    103.1700	  886.00	  900.34	-1754.84	  377.78
    103.2700	  804.00	  860.36	-1796.86	  377.58
    103.3700	  789.00	  820.41	-1771.91	  377.37
    103.4700	  752.00	  781.65	-1770.15	  377.16
    103.5700	  741.00	  745.03	-1744.53	  376.96
    103.6700	  726.00	  711.31	-1725.81	  376.75
    103.7700	  687.00	  681.03	-1734.53	  376.54
    103.8700	  606.00	  654.46	-1788.96	  376.34
    103.9700	  602.00	  631.71	-1770.21	  376.13
    104.0700	  582.00	  612.69	-1771.19	  375.92
    104.1700	  605.00	  597.17	-1732.67	  375.72
    104.2700	  583.00	  584.84	-1742.34	  375.51
    104.3700	  592.00	  575.31	-1723.81	  375.31
    104.4700	  579.00	  568.20	-1729.70	  375.10
    104.5700	  541.00	  563.11	-1762.61	  374.90
    104.6700	  585.00	  559.69	-1715.19	  374.69
    104.7700	  555.00	  557.63	-1743.13	  374.49
    104.8700	  549.00	  556.63	-1748.13	  374.28
    104.9700	  556.00	  556.49	-1740.99	  374.08
    105.0700	  572.00	  557.02	-1725.52	  373.87
    105.1700	  527.00	  558.07	-1771.57	  373.67
    105.2700	  587.00	  559.56	-1713.06	  373.46
    105.3700	  531.00	  561.44	-1770.94	  373.26
    105.4700	  567.00	  563.69	-1737.19	  373.06
    105.5700	  509.00	  566.34	-1797.84	  372.86
    105.6700	  544.00	  569.45	-1765.95	  372.65
    105.7700	  604.00	  573.11	-1709.61	  372.45
    105.8700	  516.00	  577.43	-1801.93	  372.25
    105.9700	  553.00	  582.51	-1770.01	  372.05
    106.0700	  559.00	  588.42	-1769.92	  371.85
    106.1700	  566.00	  595.21	-1769.71	  371.65
    106.2700	  588.00	  602.85	-1755.35	  371.45
    106.3700	  557.00	  611.27	-1794.77	  371.25
    106.4700	  551.00	  620.33	-1809.83	  371.05
    106.5700	  638.00	  629.82	-1732.32	  370.86
    106.6700	  625.00	  639.46	-1754.96	  370.66
    106.7700	  614.00	  648.96	-1775.46	  370.46
    106.8700	  631.00	  657.95	-1767.45	  370.27
    106.9700	  624.00	  666.07	-1782.57	  370.07
    107.0700	  669.00	  672.97	-1744.47	  369.88
    107.1700	  706.00	  678.40	-1712.90	  369.68
    107.2700	  698.00	  682.20	-1724.70	  369.49
    107.3700	  689.00	  684.37	-1735.87	  369.30
    107.4700	  763.00	  685.09	-1662.59	  369.11
    107.5700	  656.00	  684.67	-1769.17	  368.92
    107.6700	  690.00	  683.52	-1734.02	  368.73
    107.7700	  698.00	  682.04	-1724.54	  368.54
    107.8700	  667.00	  680.63	-1754.13	  368.35
    107.9700	  661.00	  679.62	-1759.12	  368.16
    108.0700	  684.00	  679.24	-1735.74	  367.98
    108.1700	  711.00	  679.61	-1709.11	  367.79
    108.2700	  718.00	  680.72	-1703.22	  367.61
    108.3700	  665.00	  682.47	-1757.97	  367.43
    108.4700	  675.00	  684.62	-1750.12	  367.24
    108.5700	  736.00	  686.85	-1691.35	  367.06
    108.6700	  646.00	  688.79	-1783.29	  366.88
    108.7700	  733.00	  689.99	-1697.49	  366.71
    108.8700	  670.00	  690.04	-1760.54	  366.53
    108.9700	  668.00	  688.62	-1761.12	  366.35
    109.0700	  696.00	  685.47	-1729.97	  366.18
    109.1700	  723.00	  680.54	-1698.04	  366.00
    109.2700	  665.00	  673.89	-1749.39	  365.83
    109.3700	  652.00	  665.74	-1754.24	  365.66
    109.4700	  673.00	  656.39	-1723.89	  365.49
    109.5700	  617.00	  646.18	-1769.68	  365.32
    109.6700	  642.00	  635.48	-1733.98	  365.15
    109.7700	  656.00	  624.64	-1709.14	  364.99
    109.8700	  634.00	  613.97	-1720.47	  364.82
    109.9700	  616.00	  603.76	-1728.26	  364.66
    110.0700	  633.00	  594.23	-1701.73	  364.50
    110.1700	  612.00	  585.56	-1714.06	  364.34
    110.2700	  613.00	  577.87	-1705.37	  364.18
    110.3700	  557.00	  571.21	-1754.71	  364.02
    110.4700	  560.00	  565.63	-1746.13	  363.87
    110.5700	  560.00	  561.08	-1741.58	  363.71
    110.6700	  565.00	  557.52	-1733.02	  363.56
    110.7700	  594.00	  554.87	-1701.37	  363.41
    110.8700	  587.00	  553.04	-1706.54	  363.26
    110.9700	  520.00	  551.94	-1772.44	  363.11
    111.0700	  536.00	  551.47	-1755.97	  362.97
    111.1700	  565.00	  551.55	-1727.05	  362.82
    111.2700	  583.00	  552.08	-1709.58	  362.68
    111.3700	  579.00	  553.00	-1714.50	  362.54
    111.4700	  522.00	  554.24	-1772.74	  362.40
    111.5700	  561.00	  555.77	-1735.27	  362.27
    111.6700	  505.00	  557.54	-1793.04	  362.13
    111.7700	  508.00	  559.53	-1792.03	  362.00
    111.8700	  546.00	  561.71	-1756.21	  361.87
    111.9700	  568.00	  564.09	-1736.59	  361.74
    112.0700	  596.00	  566.66	-1711.16	  361.62
    112.1700	  553.00	  569.44	-1756.94	  361.49
    112.2700	  580.00	  572.45	-1732.95	  361.37
    112.3700	  546.00	  575.71	-1770.21	  361.25
    112.4700	  572.00	  579.27	-1747.77	  361.13
    112.5700	  582.00	  583.18	-1741.68	  361.02
    112.6700	  595.00	  587.49	-1732.99	  360.90
    112.7700	  621.00	  592.30	-1711.80	  360.79
    112.8700	  665.00	  597.72	-1673.22	  360.68
    112.9700	  644.00	  603.89	-1700.39	  360.58
    113.0700	  681.00	  610.99	-1670.49	  360.47
    113.1700	  741.00	  619.26	-1618.76	  360.37
    113.2700	  711.00	  629.02	-1658.52	  360.27
    113.3700	  706.00	  640.67	-1675.17	  360.18
    113.4700	  804.00	  654.70	-1591.20	  360.08
    113.5700	  725.00	  671.75	-1687.25	  359.99
    113.6700	  798.00	  692.59	-1635.09	  359.90
    113.7700	  865.00	  718.18	-1593.68	  359.82
    113.8700	  917.00	  749.68	-1573.18	  359.73
    113.9700	  966.00	  788.42	-1562.92	  359.65
    114.0700	 1001.00	  836.00	-1575.50	  359.57
    114.1700	  999.00	  894.20	-1635.70	  359.50
    114.2700	 1068.00	  965.02	-1637.52	  359.42
    114.3700	 1169.00	 1050.65	-1622.15	  359.35
    114.4700	 1308.00	 1153.39	-1585.89	  359.29
    114.5700	 1484.00	 1275.60	-1532.10	  359.22
    114.6700	 1536.00	 1419.57	-1624.07	  359.16
    114.7700	 1753.00	 1587.49	-1574.99	  359.10
    114.8700	 1850.00	 1781.27	-1671.77	  359.05
    114.9700	 2190.00	 2002.32	-1552.82	  358.99
    115.0700	 2451.00	 2251.48	-1540.98	  358.95
    115.1700	 2613.00	 2528.78	-1656.28	  358.90
    115.2700	 2819.00	 2833.43	-1754.93	  358.86
    115.3700	 3089.00	 3163.61	-1815.11	  358.82
    115.4700	 3363.00	 3516.26	-1893.76	  358.78
    115.5700	 3749.00	 3887.15	-1878.65	  358.75
    115.6700	 4065.00	 4270.77	-1946.27	  358.72
    115.7700	 4496.00	 4660.45	-1904.95	  358.69
    115.8700	 4642.00	 5048.37	-2146.87	  358.66
    115.9700	 5145.00	 5425.48	-2020.98	  358.64
    116.0700	 5567.00	 5781.88	-1955.38	  358.63
    116.1700	 5998.00	 6106.94	-1849.44	  358.61
    116.2700	 6218.00	 6389.91	-1912.41	  358.60
    116.3700	 6578.00	 6620.34	-1782.84	  358.60
    116.4700	 6918.00	 6788.81	-1611.31	  358.60
    116.5700	 6891.00	 6888.00	-1737.50	  358.60
    116.6700	 6962.00	 6913.44	-1691.94	  358.60
    116.7700	 6945.00	 6864.13	-1659.63	  358.61
    116.8700	 6785.00	 6742.63	-1698.13	  358.62
    116.9700	 6640.00	 6554.74	-1655.24	  358.64
    117.0700	 6348.00	 6308.79	-1701.29	  358.66
    117.1700	 5997.00	 6014.73	-1758.23	  358.68
    117.2700	 5686.00	 5683.20	-1737.70	  358.71
    117.3700	 5290.00	 5324.82	-1775.32	  358.74
    117.4700	 4952.00	 4949.86	-1738.36	  358.77
    117.5700	 4617.00	 4567.74	-1691.24	  358.81
    117.6700	 4217.00	 4186.90	-1710.40	  358.86
    117.7700	 4091.00	 3814.53	-1464.03	  358.90
    117.8700	 3593.00	 3456.59	-1604.09	  358.96
    117.9700	 3197.00	 3117.89	-1661.39	  359.01
    118.0700	 2904.00	 2801.98	-1638.48	  359.07
    118.1700	 2644.00	 2511.32	-1607.82	  359.14
    118.2700	 2243.00	 2247.17	-1744.67	  359.20
    118.3700	 1913.00	 2009.94	-1837.44	  359.28
    118.4700	 1771.00	 1799.27	-1768.77	  359.36
    118.5700	 1574.00	 1614.17	-1780.67	  359.44
    118.6700	 1345.00	 1453.14	-1848.64	  359.52
    118.7700	 1216.00	 1314.30	-1838.80	  359.61
    118.8700	 1125.00	 1195.58	-1811.08	  359.71
    118.9700	 1007.00	 1094.82	-1828.32	  359.81
    119.0700	 1034.00	 1009.85	-1716.35	  359.91
    119.1700	  900.00	  938.60	-1779.10	  360.02
    119.2700	  806.00	  879.10	-1813.60	  360.14
    119.3700	  742.00	  829.57	-1828.07	  360.26
    119.4700	  748.00	  788.41	-1780.91	  360.38
    119.5700	  696.00	  754.26	-1798.76	  360.51
    119.6700	  653.00	  725.92	-1813.42	  360.64
    119.7700	  636.00	  702.38	-1806.88	  360.78
    119.8700	  645.00	  682.79	-1778.29	  360.92
    119.9700	  642.00	  666.46	-1764.96	  361.07
    120.0700	  632.00	  652.83	-1761.33	  361.23
    120.1700	  584.00	  641.44	-1797.94	  361.39
    120.2700	  611.00	  631.92	-1761.42	  361.55
    120.3700	  596.00	  623.98	-1768.48	  361.72
    120.4700	  574.00	  617.38	-1783.88	  361.89
    120.5700	  556.00	  611.95	-1796.45	  362.07
    120.6700	  568.00	  607.53	-1780.03	  362.26
    120.7700	  558.00	  604.03	-1786.53	  362.45
    120.8700	  532.00	  601.35	-1809.85	  362.64
    120.9700	  597.00	  599.41	-1742.91	  362.85
    121.0700	  567.00	  598.18	-1771.68	  363.05
    121.1700	  569.00	  597.60	-1769.10	  363.27
    121.2700	  572.00	  597.62	-1766.12	  363.48
    121.3700	  595.00	  598.21	-1743.71	  363.71
    121.4700	  597.00	  599.32	-1742.82	  363.94
    121.5700	  567.00	  600.90	-1774.40	  364.17
    121.6700	  570.00	  602.91	-1773.41	  364.41
    121.7700	  622.00	  605.28	-1723.78	  364.66
    121.8700	  632.00	  607.93	-1716.43	  364.92
    121.9700	  616.00	  610.81	-1735.31	  365.18
    122.0700	  583.00	  613.83	-1771.33	  365.44
    122.1700	  604.00	  616.89	-1753.39	  365.71
    122.2700	  617.00	  619.91	-1743.41	  365.99
    122.3700	  602.00	  622.79	-1761.29	  366.27
    122.4700	  633.00	  625.40	-1732.90	  366.56
    122.5700	  643.00	  627.69	-1725.19	  366.86
    122.6700	  628.00	  629.55	-1742.05	  367.16
    122.7700	  600.00	  630.91	-1771.41	  367.47
    122.8700	  694.00	  631.72	-1678.22	  367.79
    122.9700	  647.00	  631.95	-1725.45	  368.11
    123.0700	  675.00	  631.60	-1697.10	  368.44
    123.1700	  625.00	  630.69	-1746.19	  368.77
    123.2700	  659.00	  629.26	-1710.76	  369.12
    123.3700	  622.00	  627.36	-1745.86	  369.46
    123.4700	  634.00	  625.05	-1731.55	  369.82
    123.5700	  640.00	  622.41	-1722.91	  370.18
    123.6700	  639.00	  619.50	-1721.00	  370.55
    123.7700	  621.00	  616.39	-1735.89	  370.93
    123.8700	  596.00	  613.15	-1757.65	  371.31
    123.9700	  622.00	  609.85	-1728.35	  371.70
    124.0700	  647.00	  606.54	-1700.04	  372.10
    124.1700	  608.00	  603.28	-1735.78	  372.50
    124.2700	  620.00	  600.10	-1720.60	  372.91
    124.3700	  641.00	  597.04	-1696.54	  373.33
    124.4700	  629.00	  594.13	-1705.63	  373.76
    124.5700	  587.00	  591.39	-1744.89	  374.19
    124.6700	  586.00	  588.84	-1743.34	  374.63
    124.7700	  592.00	  586.49	-1734.99	  375.08
    124.8700	  620.00	  584.35	-1704.85	  375.53
    124.9700	  570.00	  495.53	-1666.03	  376.00
    125.0700	  619.00	  496.00	-1740.50	  376.47
    125.1700	  605.00	  496.48	-1740.50	  376.95
    125.2700	  567.00	  496.96	-1740.50	  377.43
    125.3700	  581.00	  497.46	-1740.50	  377.93
    125.4700	  546.00	  497.96	-1740.50	  378.43
    125.5700	  543.00	  498.47	-1740.50	  378.94
    125.6700	  564.00	  498.99	-1740.50	  379.46
    125.7700	  565.00	  499.51	-1740.50	  379.98
    125.8700	  568.00	  500.05	-1740.50	  380.52
    125.9700	  597.00	  500.59	-1740.50	  381.06
    126.0700	  593.00	  501.14	-1740.50	  381.61
    126.1700	  564.00	  501.70	-1740.50	  382.17
    126.2700	  560.00	  502.26	-1740.50	  382.73
    126.3700	  628.00	  502.84	-1740.50	  383.31
    126.4700	  564.00	  503.42	-1740.50	  383.89
    126.5700	  570.00	  504.01	-1740.50	  384.48
    126.6700	  623.00	  504.62	-1740.50	  385.08
    126.7700	  620.00	  505.22	-1740.50	  385.69
    126.8700	  657.00	  505.84	-1740.50	  386.31
    126.9700	  615.00	  506.47	-1740.50	  386.94
    127.0700	  598.00	  507.10	-1740.50	  387.57
    127.1700	  641.00	  507.75	-1740.50	  388.22
    127.2700	  663.00	  508.40	-1740.50	  388.87
    127.3700	  619.00	  509.06	-1740.50	  389.53
    127.4700	  681.00	  509.73	-1740.50	  390.20
    127.5700	  672.00	  510.41	-1740.50	  390.88
    127.6700	  684.00	  511.10	-1740.50	  391.57
    127.7700	  709.00	  511.80	-1740.50	  392.27
    127.8700	  738.00	  512.51	-1740.50	  392.98
    127.9700	  752.00	  513.23	-1740.50	  393.70
    128.0700	  756.00	  513.95	-1740.50	  394.42
    128.1700	  847.00	  514.69	-1740.50	  395.16
    128.2700	  803.00	  515.43	-1740.50	  395.90
    128.3700	  802.00	  516.19	-1740.50	  396.66
    128.4700	  811.00	  516.95	-1740.50	  397.42
    128.5700	    0.00	  517.73	-1740.50	  398.20
    128.6700	    0.00	  518.51	-1740.50	  398.98
     12.2994	        	        	        	        	       0	(  0  0  2)	  0  1
     24.8813	        	        	        	        	       0	(  0  0  4)	  0  1
     28.3259	        	        	        	        	       0	(  1  0  0)	  0  1
     29.0230	        	        	        	        	       0	(  1  0  1)	  0  1
     31.0288	        	        	        	        	       0	(  1  0  2)	  0  1
     34.1366	        	        	        	        	       0	(  1  0  3)	  0  1
     37.7792	        	        	        	        	       0	(  0  0  6)	  0  1
     38.1130	        	        	        	        	       0	(  1  0  4)	  0  1
     42.7623	        	        	        	        	       0	(  1  0  5)	  0  1
     47.9455	        	        	        	        	       0	(  1  0  6)	  0  1
     50.2631	        	        	        	        	       0	(  1  1  0)	  0  1
     51.1991	        	        	        	        	       0	(  0  0  8)	  0  1
     51.9858	        	        	        	        	       0	(  1  1  2)	  0  1
     53.5750	        	        	        	        	       0	(  1  0  7)	  0  1
     56.9327	        	        	        	        	       0	(  1  1  4)	  0  1
     58.7602	        	        	        	        	       0	(  2  0  0)	  0  1
     59.1517	        	        	        	        	       0	(  2  0  1)	  0  1
     59.6044	        	        	        	        	       0	(  1  0  8)	  0  1
     60.3169	        	        	        	        	       0	(  2  0  2)	  0  1
     62.2297	        	        	        	        	       0	(  2  0  3)	  0  1
     64.6259	        	        	        	        	       0	(  1  1  6)	  0  1
     64.8533	        	        	        	        	       0	(  2  0  4)	  0  1
     65.4258	        	        	        	        	       0	(  0  0 10)	  0  1
     66.0195	        	        	        	        	       0	(  1  0  9)	  0  1
     68.1468	        	        	        	        	       0	(  2  0  5)	  0  1
     72.0735	        	        	        	        	       0	(  2  0  6)	  0  1
     72.8343	        	        	        	        	       0	(  1  0 10)	  0  1
     74.6616	        	        	        	        	       0	(  1  1  8)	  0  1
     76.6067	        	        	        	        	       0	(  2  0  7)	  0  1
     80.0905	        	        	        	        	       0	(  1  0 11)	  0  1
     80.9031	        	        	        	        	       0	(  0  0 12)	  0  1
     81.0019	        	        	        	        	       0	(  2  1  0)	  0  1
     81.3417	        	        	        	        	       0	(  2  1  1)	  0  1
     81.7359	        	        	        	        	       0	(  2  0  8)	  0  1
     82.3593	        	        	        	        	       0	(  2  1  2)	  0  1
     84.0502	        	        	        	        	       0	(  2  1  3)	  0  1
     86.4094	        	        	        	        	       0	(  2  1  4)	  0  1
     86.9303	        	        	        	        	       0	(  1  1 10)	  0  1
     87.4726	        	        	        	        	       0	(  2  0  9)	  0  1
     87.8630	        	        	        	        	       0	(  1  0 12)	  0  1
     89.4345	        	        	        	        	       0	(  2  1  5)	  0  1
     93.1311	        	        	        	        	       0	(  2  1  6)	  0  1
     93.8585	        	        	        	        	       0	(  2  0 10)	  0  1
     94.8911	        	        	        	        	       0	(  3  0  0)	  0  1
     95.2284	        	        	        	        	       0	(  3  0  1)	  0  1
     96.2414	        	        	        	        	       0	(  3  0  2)	  0  1
     96.2740	        	        	        	        	       0	(  1  0 13)	  0  1
     97.5187	        	        	        	        	       0	(  2  1  7)	  0  1
     97.9343	        	        	        	        	       0	(  3  0  3)	  0  1
     98.4380	        	        	        	        	       0	(  0  0 14)	  0  1
    100.3168	        	        	        	        	       0	(  3  0  4)	  0  1
    100.9786	        	        	        	        	       0	(  2  0 11)	  0  1
    101.7969	        	        	        	        	       0	(  1  1 12)	  0  1
    102.6399	        	        	        	        	       0	(  2  1  8)	  0  1
    103.4077	        	        	        	        	       0	(  3  0  5)	  0  1
    105.5239	        	        	        	        	       0	(  1  0 14)	  0  1
    107.2419	        	        	        	        	       0	(  3  0  6)	  0  1
    108.5752	        	        	        	        	       0	(  2  1  9)	  0  1
    108.9875	        	        	        	        	       0	(  2  0 12)	  0  1
    111.8811	        	        	        	        	       0	(  3  0  7)	  0  1
    115.4701	        	        	        	        	       0	(  2  1 10)	  0  1
    115.9637	        	        	        	        	       0	(  1  0 15)	  0  1
    116.6171	        	        	        	        	       0	(  2  2  0)	  0  1
    117.4330	        	        	        	        	       0	(  3  0  8)	  0  1
    118.1320	        	        	        	        	       0	(  2  2  2)	  0  1
    118.1689	        	        	        	        	       0	(  2  0 13)	  0  1
    119.9187	        	        	        	        	       0	(  0  0 16)	  0  1
    120.6348	        	        	        	        	       0	(  1  1 14)	  0  1
    122.8165	        	        	        	        	       0	(  2  2  4)	  0  1
    123.5946	        	        	        	        	       0	(  2  1 11)	  0  1
    124.0912	        	        	        	        	       0	(  3  0  9)	  0  1
    124.6830	        	        	        	        	       0	(  3  1  0)	  0  1
    125.0931	        	        	        	        	       0	(  3  1  1)	  0  1
    126.3363	        	        	        	        	       0	(  3  1  2)	  0  1
    128.3018	        	        	        	        	       0	(  1  0 16)	  0  1
    128.4541	        	        	        	        	       0	(  3  1  3)	  0  1
    129.0946	        	        	        	        	       0	(  2  0 14)	  0  1
    131.2545	        	        	        	        	       0	(  2  2  6)	  0  1
    131.5295	        	        	        	        	       0	(  3  1  4)	  0  1
    132.2295	        	        	        	        	       0	(  3  0 10)	  0  1
    133.5036	        	        	        	        	       0	(  2  1 12)	  0  1
    135.7157	        	        	        	        	       0	(  3  1  5)	  0  1
    141.3102	        	        	        	        	       0	(  3  1  6)	  0  1
    142.7049	        	        	        	        	       0	(  3  0 11)	  0  1
    143.2282	        	        	        	        	       0	(  2  0 15)	  0  1
    144.4627	        	        	        	        	       0	(  1  0 17)	  0  1
    145.4856	        	        	        	        	       0	(  2  2  8)	  0  1
    146.6543	        	        	        	        	       0	(  2  1 13)	  0  1
    148.9823	        	        	        	        	       0	(  3  1  7)	  0  1
    149.5570	        	        	        	        	       0	(  1  1 16)	  0  1
    153.9500	        	        	        	        	       0	(  0  0 18)	  0  1
    158.5789	        	        	        	        	       0	(  3  0 12)	  0  1
    158.8492	        	        	        	        	       0	(  4  0  0)	  0  1
    159.8065	        	        	        	        	       0	(  4  0  1)	  0  1
    160.9765	        	        	        	        	       0	(  3  1  8)	  0  1
    162.9877	        	        	        	        	       0	(  4  0  2)	  0  1
    169.6523	        	        	        	        	       0	(  2  0 16)	  0  1
    170.3481	        	        	        	        	       0	(  4  0  3)	  0  1
    174.0948	        	        	        	        	       0	(  2  1 14)	  0  1
