MSG Master    CELL:    5.91907   5.91907  23.27208   90.0000   90.0000  120.0000   SPGR: P 63/m m c             TEMP:   1074.85
  1   1280     2.52000     0.00000    -0.12585     0.00000     0.00000    0
    99     0     2
       0.00000      10.00000
     125.00000     130.00000
 2Theta	Yobs	Ycal	Yobs-Ycal	Backg	Posr	(hkl)	K
      0.7700	    0.00	  565.02	-1790.00	  446.34
      0.8700	    0.00	  565.52	-1790.00	  446.83
      0.9700	   39.00	  566.01	-1790.00	  447.32
      1.0700	   43.00	  566.48	-1790.00	  447.80
      1.1700	   44.00	  566.95	-1790.00	  448.27
      1.2700	   54.00	  567.41	-1790.00	  448.73
      1.3700	   42.00	  567.87	-1790.00	  449.18
      1.4700	  118.00	  568.31	-1790.00	  449.63
      1.5700	  272.00	  568.74	-1790.00	  450.06
      1.6700	  486.00	  569.17	-1790.00	  450.49
      1.7700	  561.00	  569.59	-1790.00	  450.90
      1.8700	  643.00	  570.00	-1790.00	  451.31
      1.9700	  769.00	  570.40	-1790.00	  451.71
      2.0700	  810.00	  570.79	-1790.00	  452.10
      2.1700	  783.00	  571.17	-1790.00	  452.49
      2.2700	  742.00	  571.55	-1790.00	  452.86
      2.3700	  782.00	  571.91	-1790.00	  453.23
      2.4700	  712.00	  572.27	-1790.00	  453.59
      2.5700	  670.00	  572.62	-1790.00	  453.94
      2.6700	  676.00	  572.96	-1790.00	  454.28
      2.7700	  675.00	  573.30	-1790.00	  454.62
      2.8700	  599.00	  573.62	-1790.00	  454.94
      2.9700	  568.00	  573.94	-1790.00	  455.26
      3.0700	  597.00	  574.25	-1790.00	  455.57
      3.1700	  577.00	  574.56	-1790.00	  455.87
      3.2700	  625.00	  574.85	-1790.00	  456.17
      3.3700	  661.00	  575.14	-1790.00	  456.46
      3.4700	  679.00	  575.42	-1790.00	  456.74
      3.5700	  874.00	  575.69	-1790.00	  457.01
      3.6700	  846.00	  575.96	-1790.00	  457.28
      3.7700	  918.00	  576.22	-1790.00	  457.53
      3.8700	  927.00	  576.47	-1790.00	  457.78
      3.9700	  992.00	  576.71	-1790.00	  458.03
      4.0700	 1062.00	  576.95	-1790.00	  458.26
      4.1700	 1080.00	  577.17	-1790.00	  458.49
      4.2700	 1031.00	  577.40	-1790.00	  458.71
      4.3700	 1074.00	  577.61	-1790.00	  458.93
      4.4700	  978.00	  577.82	-1790.00	  459.13
      4.5700	  986.00	  578.02	-1790.00	  459.34
      4.6700	 1002.00	  578.21	-1790.00	  459.53
      4.7700	 1029.00	  578.40	-1790.00	  459.72
      4.8700	  976.00	  578.58	-1790.00	  459.90
      4.9700	  912.00	  578.75	-1790.00	  460.07
      5.0700	  916.00	  578.92	-1790.00	  460.24
      5.1700	  936.00	  579.08	-1790.00	  460.40
      5.2700	  893.00	  579.23	-1790.00	  460.55
      5.3700	  903.00	  579.38	-1790.00	  460.70
      5.4700	  907.00	  579.52	-1790.00	  460.84
      5.5700	  910.00	  579.65	-1790.00	  460.97
      5.6700	  857.00	  579.78	-1790.00	  461.10
      5.7700	  781.00	  579.90	-1790.00	  461.22
      5.8700	  801.00	  580.02	-1790.00	  461.34
      5.9700	  833.00	  580.13	-1790.00	  461.44
      6.0700	  780.00	  580.23	-1790.00	  461.55
      6.1700	  818.00	  580.33	-1790.00	  461.64
      6.2700	  851.00	  580.42	-1790.00	  461.74
      6.3700	  795.00	  580.50	-1790.00	  461.82
      6.4700	  783.00	  580.58	-1790.00	  461.90
      6.5700	  731.00	  580.65	-1790.00	  461.97
      6.6700	  752.00	  580.72	-1790.00	  462.04
      6.7700	  705.00	  580.78	-1790.00	  462.10
      6.8700	  738.00	  580.84	-1790.00	  462.16
      6.9700	  738.00	  580.89	-1790.00	  462.21
      7.0700	  727.00	  580.93	-1790.00	  462.25
      7.1700	  663.00	  580.97	-1790.00	  462.29
      7.2700	  710.00	  581.01	-1790.00	  462.32
      7.3700	  661.00	  581.03	-1790.00	  462.35
      7.4700	  640.00	  581.06	-1790.00	  462.37
      7.5700	  681.00	  581.07	-1790.00	  462.39
      7.6700	  691.00	  581.09	-1790.00	  462.40
      7.7700	  692.00	  581.09	-1790.00	  462.41
      7.8700	  618.00	  581.09	-1790.00	  462.41
      7.9700	  652.00	  581.09	-1790.00	  462.41
      8.0700	  646.00	  581.08	-1790.00	  462.40
      8.1700	  631.00	  581.07	-1790.00	  462.38
      8.2700	  619.00	  581.05	-1790.00	  462.36
      8.3700	  628.00	  581.02	-1790.00	  462.34
      8.4700	  666.00	  580.99	-1790.00	  462.31
      8.5700	  628.00	  580.96	-1790.00	  462.28
      8.6700	  619.00	  580.92	-1790.00	  462.24
      8.7700	  576.00	  580.88	-1790.00	  462.20
      8.8700	  630.00	  580.83	-1790.00	  462.15
      8.9700	  603.00	  580.78	-1790.00	  462.09
      9.0700	  660.00	  580.72	-1790.00	  462.04
      9.1700	  583.00	  580.66	-1790.00	  461.97
      9.2700	  606.00	  580.59	-1790.00	  461.91
      9.3700	  599.00	  580.52	-1790.00	  461.84
      9.4700	  624.00	  580.44	-1790.00	  461.76
      9.5700	  614.00	  580.36	-1790.00	  461.68
      9.6700	  599.00	  580.28	-1790.00	  461.60
      9.7700	  617.00	  580.19	-1790.00	  461.51
      9.8700	  628.00	  580.10	-1790.00	  461.42
      9.9700	  593.00	  580.00	-1790.00	  461.32
     10.0700	  628.00	  580.65	-1742.65	  461.22
     10.1700	  596.00	  580.62	-1774.62	  461.11
     10.2700	  591.00	  580.60	-1779.60	  461.00
     10.3700	  632.00	  580.61	-1738.61	  460.89
     10.4700	  585.00	  580.68	-1785.68	  460.77
     10.5700	  570.00	  580.84	-1800.84	  460.65
     10.6700	  597.00	  581.21	-1774.21	  460.52
     10.7700	  568.00	  581.88	-1803.88	  460.39
     10.8700	  551.00	  582.93	-1821.93	  460.26
     10.9700	  577.00	  584.35	-1797.35	  460.12
     11.0700	  615.00	  586.10	-1761.10	  459.98
     11.1700	  556.00	  588.18	-1822.18	  459.84
     11.2700	  600.00	  590.63	-1780.63	  459.69
     11.3700	  601.00	  593.50	-1782.50	  459.54
     11.4700	  615.00	  596.94	-1771.94	  459.38
     11.5700	  601.00	  601.14	-1790.14	  459.22
     11.6700	  650.00	  606.43	-1746.43	  459.06
     11.7700	  617.00	  613.40	-1786.40	  458.89
     11.8700	  654.00	  623.00	-1759.00	  458.72
     11.9700	  631.00	  635.95	-1794.95	  458.55
     12.0700	  713.00	  650.83	-1727.83	  458.37
     12.1700	  682.00	  661.54	-1769.54	  458.19
     12.2700	  695.00	  658.25	-1753.25	  458.01
     12.3700	  605.00	  637.92	-1822.92	  457.83
     12.4700	  612.00	  613.13	-1791.13	  457.64
     12.5700	  595.00	  595.17	-1790.17	  457.44
     12.6700	  575.00	  585.59	-1800.59	  457.25
     12.7700	  596.00	  581.31	-1775.31	  457.05
     12.8700	  572.00	  579.37	-1797.37	  456.85
     12.9700	  581.00	  578.27	-1787.27	  456.64
     13.0700	  565.00	  577.49	-1802.49	  456.44
     13.1700	  598.00	  576.87	-1768.87	  456.23
     13.2700	  598.00	  576.36	-1768.36	  456.01
     13.3700	  600.00	  575.91	-1765.91	  455.80
     13.4700	  557.00	  575.51	-1808.51	  455.58
     13.5700	  542.00	  575.14	-1823.14	  455.36
     13.6700	  553.00	  574.80	-1811.80	  455.13
     13.7700	  556.00	  574.47	-1808.47	  454.90
     13.8700	  585.00	  574.16	-1779.16	  454.68
     13.9700	  553.00	  573.86	-1810.86	  454.44
     14.0700	  522.00	  573.57	-1841.57	  454.21
     14.1700	  517.00	  573.28	-1846.28	  453.97
     14.2700	  556.00	  573.00	-1807.00	  453.73
     14.3700	  578.00	  572.72	-1784.72	  453.49
     14.4700	  538.00	  572.44	-1824.44	  453.24
     14.5700	  546.00	  572.17	-1816.17	  453.00
     14.6700	  550.00	  571.89	-1811.89	  452.75
     14.7700	  595.00	  571.62	-1766.62	  452.50
     14.8700	  563.00	  571.35	-1798.35	  452.24
     14.9700	  592.00	  571.07	-1769.07	  451.98
     15.0700	  558.00	  570.80	-1802.80	  451.73
     15.1700	  554.00	  570.52	-1806.52	  451.47
     15.2700	  542.00	  570.25	-1818.25	  451.20
     15.3700	  566.00	  569.97	-1793.97	  450.94
     15.4700	  557.00	  569.69	-1802.69	  450.67
     15.5700	  575.00	  569.41	-1784.41	  450.40
     15.6700	  567.00	  569.13	-1792.13	  450.13
     15.7700	  591.00	  568.85	-1767.85	  449.86
     15.8700	  513.00	  568.57	-1845.57	  449.58
     15.9700	  622.00	  568.28	-1736.28	  449.31
     16.0700	  569.00	  568.00	-1789.00	  449.03
     16.1700	  527.00	  567.71	-1830.71	  448.75
     16.2700	  577.00	  567.45	-1780.45	  448.46
     16.3700	  574.00	  567.16	-1783.16	  448.18
     16.4700	  597.00	  566.87	-1759.87	  447.89
     16.5700	  537.00	  566.58	-1819.58	  447.61
     16.6700	  509.00	  566.28	-1847.28	  447.32
     16.7700	  539.00	  565.99	-1816.99	  447.02
     16.8700	  504.00	  565.69	-1851.69	  446.73
     16.9700	  566.00	  565.40	-1789.40	  446.44
     17.0700	  535.00	  565.10	-1820.10	  446.14
     17.1700	  573.00	  564.80	-1781.80	  445.84
     17.2700	  535.00	  564.50	-1819.50	  445.55
     17.3700	  583.00	  564.20	-1771.20	  445.25
     17.4700	  578.00	  563.89	-1775.89	  444.94
     17.5700	  568.00	  563.59	-1785.59	  444.64
     17.6700	  579.00	  563.28	-1774.28	  444.34
     17.7700	  558.00	  562.98	-1794.98	  444.03
     17.8700	  591.00	  562.67	-1761.67	  443.72
     17.9700	  542.00	  562.46	-1810.46	  443.42
     18.0700	  546.00	  562.15	-1806.15	  443.11
     18.1700	  577.00	  561.84	-1774.84	  442.80
     18.2700	  515.00	  561.53	-1836.53	  442.48
     18.3700	  555.00	  561.22	-1796.22	  442.17
     18.4700	  549.00	  560.91	-1801.91	  441.86
     18.5700	  557.00	  560.60	-1793.60	  441.54
     18.6700	  570.00	  560.28	-1780.28	  441.22
     18.7700	  543.00	  559.97	-1806.97	  440.91
     18.8700	  598.00	  559.65	-1751.65	  440.59
     18.9700	  588.00	  559.42	-1761.42	  440.27
     19.0700	  570.00	  559.10	-1779.10	  439.95
     19.1700	  574.00	  558.79	-1774.79	  439.63
     19.2700	  549.00	  558.47	-1799.47	  439.30
     19.3700	  561.00	  558.16	-1787.16	  438.98
     19.4700	  557.00	  557.84	-1790.84	  438.66
     19.5700	  588.00	  557.52	-1759.52	  438.33
     19.6700	  534.00	  557.20	-1813.20	  438.01
     19.7700	  580.00	  556.88	-1766.88	  437.68
     19.8700	  528.00	  556.56	-1818.56	  437.35
     19.9700	  531.00	  556.24	-1815.24	  437.02
     20.0700	  567.00	  555.92	-1778.92	  436.70
     20.1700	  550.00	  555.60	-1795.60	  436.37
     20.2700	  551.00	  555.28	-1794.28	  436.04
     20.3700	  534.00	  554.96	-1810.96	  435.71
     20.4700	  569.00	  554.64	-1775.64	  435.37
     20.5700	  543.00	  554.29	-1801.29	  435.04
     20.6700	  560.00	  553.97	-1783.97	  434.71
     20.7700	  553.00	  553.66	-1790.66	  434.38
     20.8700	  520.00	  553.34	-1823.34	  434.04
     20.9700	  547.00	  553.05	-1796.05	  433.71
     21.0700	  562.00	  552.74	-1780.74	  433.38
     21.1700	  556.00	  552.42	-1786.42	  433.04
     21.2700	  580.00	  552.10	-1762.10	  432.71
     21.3700	  550.00	  551.79	-1791.79	  432.37
     21.4700	  533.00	  551.47	-1808.47	  432.04
     21.5700	  585.00	  551.16	-1756.16	  431.70
     21.6700	  542.00	  550.85	-1798.85	  431.36
     21.7700	  564.00	  550.54	-1776.54	  431.03
     21.8700	  547.00	  550.23	-1793.23	  430.69
     21.9700	  543.00	  549.92	-1796.92	  430.35
     22.0700	  592.00	  549.61	-1747.61	  430.02
     22.1700	  578.00	  549.31	-1761.31	  429.68
     22.2700	  551.00	  549.01	-1788.01	  429.34
     22.3700	  524.00	  548.71	-1814.71	  429.00
     22.4700	  582.00	  548.42	-1756.42	  428.67
     22.5700	  546.00	  548.13	-1792.13	  428.33
     22.6700	  509.00	  547.85	-1828.85	  427.99
     22.7700	  598.00	  547.57	-1739.57	  427.65
     22.8700	  571.00	  547.31	-1766.31	  427.31
     22.9700	  521.00	  547.05	-1816.05	  426.98
     23.0700	  538.00	  546.80	-1798.80	  426.64
     23.1700	  573.00	  546.57	-1763.57	  426.30
     23.2700	  529.00	  546.35	-1807.35	  425.96
     23.3700	  542.00	  546.16	-1794.16	  425.62
     23.4700	  537.00	  546.00	-1799.00	  425.29
     23.5700	  510.00	  545.88	-1825.88	  424.95
     23.6700	  542.00	  545.82	-1793.82	  424.61
     23.7700	  568.00	  545.98	-1767.98	  424.27
     23.8700	  541.00	  546.21	-1795.21	  423.94
     23.9700	  548.00	  546.83	-1788.83	  423.60
     24.0700	  565.00	  548.23	-1773.23	  423.26
     24.1700	  558.00	  551.04	-1783.04	  422.93
     24.2700	  562.00	  556.03	-1784.03	  422.59
     24.3700	  580.00	  564.11	-1774.11	  422.26
     24.4700	  544.00	  576.28	-1822.28	  421.92
     24.5700	  615.00	  592.90	-1767.90	  421.58
     24.6700	  629.00	  611.44	-1772.44	  421.25
     24.7700	  605.00	  624.46	-1809.46	  420.91
     24.8700	  626.00	  621.78	-1785.78	  420.58
     24.9700	  613.00	  601.97	-1778.97	  420.25
     25.0700	  558.00	  577.88	-1809.89	  419.91
     25.1700	  589.00	  559.99	-1760.99	  419.58
     25.2700	  569.00	  550.05	-1771.05	  419.25
     25.3700	  568.00	  545.47	-1767.47	  418.92
     25.4700	  574.00	  543.42	-1759.42	  418.58
     25.5700	  543.00	  542.33	-1789.33	  418.25
     25.6700	  536.00	  541.61	-1795.61	  417.92
     25.7700	  569.00	  541.09	-1762.09	  417.59
     25.8700	  537.00	  540.69	-1793.69	  417.26
     25.9700	  537.00	  540.38	-1793.38	  416.94
     26.0700	  550.00	  540.16	-1780.16	  416.61
     26.1700	  537.00	  540.01	-1793.01	  416.28
     26.2700	  539.00	  539.93	-1790.93	  415.95
     26.3700	  527.00	  539.93	-1802.93	  415.63
     26.4700	  554.00	  540.01	-1776.01	  415.30
     26.5700	  522.00	  540.19	-1808.19	  414.98
     26.6700	  537.00	  540.48	-1793.48	  414.65
     26.7700	  557.00	  540.90	-1773.90	  414.33
     26.8700	  566.00	  541.50	-1765.50	  414.01
     26.9700	  603.00	  542.32	-1729.32	  413.68
     27.0700	  560.00	  543.45	-1773.45	  413.36
     27.1700	  554.00	  545.01	-1781.01	  413.04
     27.2700	  561.00	  547.27	-1776.27	  412.72
     27.3700	  546.00	  550.72	-1794.72	  412.40
     27.4700	  546.00	  556.36	-1800.36	  412.08
     27.5700	  532.00	  565.96	-1823.96	  411.77
     27.6700	  586.00	  582.33	-1786.33	  411.45
     27.7700	  589.00	  609.09	-1810.09	  411.13
     27.8700	  590.00	  649.41	-1849.41	  410.82
     27.9700	  672.00	  703.42	-1821.42	  410.51
     28.0700	  784.00	  764.97	-1770.97	  410.19
     28.1700	  885.00	  818.64	-1723.64	  409.88
     28.2700	  932.00	  841.19	-1699.19	  409.57
     28.3700	  952.00	  818.79	-1656.79	  409.26
     28.4700	  753.00	  773.00	-1810.00	  408.95
     28.5700	  716.00	  739.89	-1813.89	  408.64
     28.6700	  707.00	  736.13	-1819.13	  408.34
     28.7700	  754.00	  757.33	-1793.33	  408.03
     28.8700	  760.00	  783.94	-1813.94	  407.72
     28.9700	  831.00	  788.39	-1747.39	  407.42
     29.0700	  758.00	  752.93	-1784.93	  407.12
     29.1700	  677.00	  692.36	-1805.35	  406.81
     29.2700	  645.00	  634.51	-1779.51	  406.51
     29.3700	  608.00	  592.79	-1774.79	  406.21
     29.4700	  604.00	  567.60	-1753.60	  405.91
     29.5700	  640.00	  554.02	-1704.02	  405.62
     29.6700	  635.00	  546.85	-1701.85	  405.32
     29.7700	  597.00	  542.80	-1735.80	  405.02
     29.8700	  615.00	  540.28	-1715.28	  404.73
     29.9700	  603.00	  538.68	-1725.68	  404.44
     30.0700	  557.00	  537.87	-1770.87	  404.15
     30.1700	  522.00	  538.01	-1806.01	  403.85
     30.2700	  580.00	  539.63	-1749.63	  403.56
     30.3700	  561.00	  543.81	-1772.81	  403.28
     30.4700	  542.00	  552.15	-1800.15	  402.99
     30.5700	  551.00	  566.41	-1805.41	  402.70
     30.6700	  613.00	  587.10	-1764.10	  402.42
     30.7700	  589.00	  611.74	-1812.74	  402.13
     30.8700	  583.00	  633.34	-1840.34	  401.85
     30.9700	  636.00	  641.18	-1795.18	  401.57
     31.0700	  590.00	  627.80	-1827.80	  401.29
     31.1700	  567.00	  600.23	-1823.23	  401.01
     31.2700	  609.00	  572.44	-1753.44	  400.74
     31.3700	  488.00	  551.94	-1853.94	  400.46
     31.4700	  605.00	  539.52	-1724.52	  400.19
     31.5700	  532.00	  532.92	-1790.92	  399.91
     31.6700	  552.00	  529.54	-1767.54	  399.64
     31.7700	  544.00	  527.68	-1773.68	  399.37
     31.8700	  551.00	  526.50	-1765.50	  399.10
     31.9700	  502.00	  525.68	-1813.68	  398.83
     32.0700	  513.00	  525.10	-1802.10	  398.57
     32.1700	  533.00	  524.69	-1781.69	  398.30
     32.2700	  535.00	  524.44	-1779.44	  398.04
     32.3700	  551.00	  524.33	-1763.33	  397.77
     32.4700	  539.00	  524.37	-1775.37	  397.51
     32.5700	  574.00	  524.58	-1740.58	  397.25
     32.6700	  525.00	  524.97	-1789.97	  397.00
     32.7700	  535.00	  525.60	-1780.60	  396.74
     32.8700	  574.00	  526.51	-1742.51	  396.48
     32.9700	  504.00	  527.83	-1813.83	  396.23
     33.0700	  533.00	  529.75	-1786.75	  395.98
     33.1700	  530.00	  532.70	-1792.70	  395.73
     33.2700	  520.00	  537.67	-1807.67	  395.48
     33.3700	  600.00	  546.82	-1736.82	  395.23
     33.4700	  530.00	  564.38	-1824.38	  394.98
     33.5700	  586.00	  597.11	-1801.11	  394.74
     33.6700	  647.00	  653.01	-1796.01	  394.49
     33.7700	  730.00	  735.90	-1795.90	  394.25
     33.8700	  848.00	  837.13	-1779.13	  394.01
     33.9700	  981.00	  929.70	-1738.70	  393.77
     34.0700	 1124.00	  971.68	-1637.68	  393.54
     34.1700	 1000.00	  931.52	-1721.52	  393.30
     34.2700	  925.00	  829.83	-1694.83	  393.06
     34.3700	  764.00	  719.76	-1745.76	  392.83
     34.4700	  616.00	  634.54	-1808.54	  392.60
     34.5700	  558.00	  581.14	-1813.14	  392.37
     34.6700	  559.00	  552.43	-1783.43	  392.14
     34.7700	  548.00	  538.13	-1780.13	  391.92
     34.8700	  545.00	  530.73	-1775.73	  391.69
     34.9700	  529.00	  526.33	-1787.33	  391.47
     35.0700	  497.00	  523.30	-1816.30	  391.25
     35.1700	  539.00	  521.01	-1772.01	  391.03
     35.2700	  539.00	  519.20	-1770.20	  390.81
     35.3700	  543.00	  517.75	-1764.75	  390.59
     35.4700	  523.00	  516.53	-1783.53	  390.38
     35.5700	  524.00	  515.50	-1781.50	  390.16
     35.6700	  485.00	  514.62	-1819.62	  389.95
     35.7700	  546.00	  513.85	-1757.85	  389.74
     35.8700	  511.00	  513.18	-1792.18	  389.53
     35.9700	  517.00	  513.06	-1786.06	  389.32
     36.0700	  555.00	  512.53	-1747.53	  389.12
     36.1700	  480.00	  512.05	-1822.05	  388.91
     36.2700	  533.00	  511.62	-1768.62	  388.71
     36.3700	  496.00	  511.24	-1805.24	  388.51
     36.4700	  536.00	  510.89	-1764.89	  388.31
     36.5700	  505.00	  510.57	-1795.57	  388.11
     36.6700	  488.00	  510.30	-1812.30	  387.92
     36.7700	  483.00	  510.07	-1817.07	  387.72
     36.8700	  481.00	  509.90	-1818.90	  387.53
     36.9700	  489.00	  509.84	-1810.84	  387.34
     37.0700	  549.00	  510.00	-1751.00	  387.15
     37.1700	  536.00	  510.61	-1764.61	  386.96
     37.2700	  514.00	  511.99	-1787.99	  386.78
     37.3700	  557.00	  514.51	-1747.51	  386.60
     37.4700	  493.00	  518.28	-1815.28	  386.41
     37.5700	  519.00	  522.80	-1793.80	  386.23
     37.6700	  501.00	  526.86	-1815.86	  386.05
     37.7700	  517.00	  529.00	-1802.00	  385.88
     37.8700	  521.00	  528.64	-1797.64	  385.70
     37.9700	  522.00	  526.59	-1794.59	  385.53
     38.0700	  525.00	  523.48	-1788.48	  385.36
     38.1700	  522.00	  519.50	-1787.50	  385.19
     38.2700	  540.00	  515.31	-1765.31	  385.02
     38.3700	  501.00	  511.76	-1800.76	  384.85
     38.4700	  526.00	  509.19	-1773.19	  384.68
     38.5700	  519.00	  507.54	-1778.54	  384.52
     38.6700	  503.00	  506.56	-1793.56	  384.36
     38.7700	  483.00	  505.88	-1812.88	  384.20
     38.8700	  497.00	  505.49	-1798.49	  384.04
     38.9700	  483.00	  505.20	-1812.20	  383.89
     39.0700	  484.00	  504.96	-1810.96	  383.73
     39.1700	  499.00	  504.74	-1795.74	  383.58
     39.2700	  524.00	  504.47	-1770.47	  383.43
     39.3700	  469.00	  504.29	-1825.29	  383.28
     39.4700	  556.00	  504.13	-1738.13	  383.13
     39.5700	  497.00	  503.98	-1796.98	  382.98
     39.6700	  511.00	  503.97	-1782.97	  382.84
     39.7700	  516.00	  503.84	-1777.84	  382.70
     39.8700	  480.00	  503.72	-1813.72	  382.55
     39.9700	  506.00	  503.62	-1787.62	  382.42
     40.0700	  489.00	  503.52	-1804.52	  382.28
     40.1700	  507.00	  503.43	-1786.43	  382.14
     40.2700	  490.00	  503.36	-1803.36	  382.01
     40.3700	  465.00	  503.29	-1828.29	  381.88
     40.4700	  500.00	  503.24	-1793.24	  381.75
     40.5700	  530.00	  503.21	-1763.21	  381.62
     40.6700	  477.00	  503.19	-1816.19	  381.49
     40.7700	  499.00	  503.18	-1794.18	  381.37
     40.8700	  492.00	  503.20	-1801.20	  381.24
     40.9700	  497.00	  503.25	-1796.25	  381.12
     41.0700	  460.00	  503.33	-1833.33	  381.00
     41.1700	  484.00	  503.45	-1809.45	  380.88
     41.2700	  503.00	  503.58	-1790.58	  380.77
     41.3700	  542.00	  503.80	-1751.80	  380.65
     41.4700	  477.00	  504.11	-1817.11	  380.54
     41.5700	  453.00	  504.53	-1841.53	  380.43
     41.6700	  510.00	  505.53	-1785.53	  380.32
     41.7700	  492.00	  506.41	-1804.41	  380.21
     41.8700	  501.00	  507.87	-1796.87	  380.10
     41.9700	  498.00	  510.59	-1802.59	  380.00
     42.0700	  514.00	  515.90	-1791.90	  379.90
     42.1700	  523.00	  525.96	-1792.96	  379.80
     42.2700	  516.00	  543.37	-1817.37	  379.70
     42.3700	  512.00	  569.76	-1847.76	  379.60
     42.4700	  566.00	  603.18	-1827.18	  379.51
     42.5700	  591.00	  636.51	-1835.51	  379.41
     42.6700	  613.00	  657.76	-1834.76	  379.32
     42.7700	  575.00	  655.91	-1870.91	  379.23
     42.8700	  595.00	  631.04	-1826.04	  379.14
     42.9700	  564.00	  595.77	-1821.77	  379.05
     43.0700	  543.00	  562.61	-1809.61	  378.97
     43.1700	  535.00	  537.82	-1792.82	  378.89
     43.2700	  513.00	  522.18	-1799.18	  378.80
     43.3700	  493.00	  513.56	-1810.56	  378.72
     43.4700	  481.00	  509.16	-1818.16	  378.65
     43.5700	  494.00	  506.92	-1802.92	  378.57
     43.6700	  505.00	  505.66	-1790.66	  378.49
     43.7700	  501.00	  505.03	-1794.03	  378.42
     43.8700	  526.00	  504.45	-1768.45	  378.35
     43.9700	  508.00	  504.02	-1786.02	  378.28
     44.0700	  503.00	  503.69	-1790.69	  378.21
     44.1700	  459.00	  503.48	-1834.48	  378.15
     44.2700	  467.00	  503.28	-1826.28	  378.08
     44.3700	  533.00	  503.14	-1760.14	  378.02
     44.4700	  466.00	  503.04	-1827.04	  377.96
     44.5700	  526.00	  502.86	-1766.86	  377.90
     44.6700	  463.00	  502.83	-1829.83	  377.84
     44.7700	  524.00	  502.82	-1768.82	  377.78
     44.8700	  501.00	  502.85	-1791.85	  377.73
     44.9700	  564.00	  502.89	-1728.89	  377.68
     45.0700	  532.00	  502.96	-1760.96	  377.63
     45.1700	  524.00	  503.05	-1769.05	  377.58
     45.2700	  506.00	  503.34	-1787.34	  377.53
     45.3700	  498.00	  503.48	-1795.48	  377.48
     45.4700	  537.00	  503.63	-1756.63	  377.44
     45.5700	  479.00	  503.82	-1814.82	  377.40
     45.6700	  506.00	  504.02	-1788.02	  377.35
     45.7700	  529.00	  504.26	-1765.26	  377.32
     45.8700	  493.00	  504.52	-1801.52	  377.28
     45.9700	  447.00	  504.81	-1847.81	  377.24
     46.0700	  515.00	  505.14	-1780.14	  377.21
     46.1700	  523.00	  505.51	-1772.51	  377.17
     46.2700	  490.00	  505.93	-1805.93	  377.14
     46.3700	  516.00	  506.39	-1780.39	  377.11
     46.4700	  516.00	  506.92	-1780.92	  377.08
     46.5700	  540.00	  507.52	-1757.52	  377.06
     46.6700	  518.00	  508.22	-1780.22	  377.03
     46.7700	  472.00	  509.03	-1827.03	  377.01
     46.8700	  486.00	  510.02	-1814.02	  376.99
     46.9700	  497.00	  511.32	-1804.32	  376.97
     47.0700	  509.00	  513.23	-1794.23	  376.95
     47.1700	  495.00	  516.33	-1811.33	  376.93
     47.2700	  575.00	  521.69	-1736.69	  376.92
     47.3700	  526.00	  530.71	-1794.71	  376.90
     47.4700	  555.00	  544.66	-1779.66	  376.89
     47.5700	  573.00	  563.88	-1780.88	  376.88
     47.6700	  617.00	  586.51	-1759.51	  376.87
     47.7700	  618.00	  607.75	-1779.75	  376.86
     47.8700	  621.00	  620.68	-1789.68	  376.86
     47.9700	  658.00	  619.83	-1751.83	  376.85
     48.0700	  596.00	  606.25	-1800.25	  376.85
     48.1700	  552.00	  586.78	-1824.78	  376.85
     48.2700	  537.00	  568.25	-1821.25	  376.85
     48.3700	  527.00	  554.47	-1817.47	  376.85
     48.4700	  507.00	  546.51	-1829.51	  376.86
     48.5700	  576.00	  543.64	-1757.64	  376.86
     48.6700	  534.00	  544.52	-1800.52	  376.87
     48.7700	  508.00	  547.99	-1829.99	  376.88
     48.8700	  558.00	  553.49	-1785.49	  376.88
     48.9700	  564.00	  561.00	-1787.00	  376.90
     49.0700	  585.00	  571.20	-1776.20	  376.91
     49.1700	  608.00	  585.75	-1767.75	  376.92
     49.2700	  617.00	  608.15	-1781.15	  376.94
     49.3700	  674.00	  645.09	-1761.09	  376.95
     49.4700	  708.00	  707.87	-1789.87	  376.97
     49.5700	  799.00	  812.97	-1803.97	  376.99
     49.6700	  939.00	  978.25	-1829.25	  377.01
     49.7700	 1111.00	 1217.83	-1896.83	  377.03
     49.8700	 1457.00	 1530.16	-1863.16	  377.06
     49.9700	 1803.00	 1886.14	-1873.14	  377.08
     50.0700	 2284.00	 2220.10	-1726.10	  377.11
     50.1700	 2470.00	 2434.19	-1754.19	  377.14
     50.2700	 2527.00	 2440.56	-1703.56	  377.17
     50.3700	 2237.00	 2234.04	-1787.04	  377.20
     50.4700	 1935.00	 1901.18	-1756.18	  377.23
     50.5700	 1429.00	 1545.15	-1906.15	  377.27
     50.6700	 1114.00	 1234.45	-1910.45	  377.30
     50.7700	  838.00	  999.14	-1951.14	  377.34
     50.8700	  702.00	  840.82	-1928.82	  377.38
     50.9700	  661.00	  744.34	-1873.34	  377.42
     51.0700	  668.00	  688.64	-1810.64	  377.46
     51.1700	  631.00	  654.66	-1813.66	  377.50
     51.2700	  606.00	  629.78	-1813.78	  377.54
     51.3700	  563.00	  608.67	-1835.67	  377.59
     51.4700	  535.00	  590.48	-1845.48	  377.63
     51.5700	  587.00	  575.66	-1778.66	  377.68
     51.6700	  622.00	  564.47	-1732.47	  377.73
     51.7700	  577.00	  556.59	-1769.59	  377.78
     51.8700	  502.00	  551.26	-1839.26	  377.83
     51.9700	  573.00	  547.68	-1764.68	  377.88
     52.0700	  578.00	  545.23	-1757.23	  377.94
     52.1700	  593.00	  543.66	-1740.66	  377.99
     52.2700	  585.00	  542.92	-1747.92	  378.05
     52.3700	  594.00	  543.38	-1739.38	  378.10
     52.4700	  558.00	  545.03	-1777.03	  378.16
     52.5700	  560.00	  549.05	-1779.05	  378.22
     52.6700	  549.00	  557.52	-1798.52	  378.29
     52.7700	  628.00	  574.30	-1736.30	  378.35
     52.8700	  618.00	  605.47	-1777.47	  378.41
     52.9700	  711.00	  658.72	-1737.72	  378.48
     53.0700	  806.00	  740.69	-1724.69	  378.54
     53.1700	  924.00	  852.49	-1718.49	  378.61
     53.2700	 1010.00	  984.53	-1764.53	  378.68
     53.3700	 1145.00	 1113.38	-1758.38	  378.75
     53.4700	 1128.00	 1203.71	-1865.71	  378.82
     53.5700	 1125.00	 1221.41	-1886.41	  378.89
     53.6700	 1075.00	 1158.16	-1873.16	  378.97
     53.7700	  981.00	 1040.05	-1849.05	  379.04
     53.8700	  892.00	  905.29	-1803.29	  379.12
     53.9700	  831.00	  783.21	-1742.21	  379.19
     54.0700	  670.00	  688.89	-1808.89	  379.27
     54.1700	  628.00	  624.93	-1786.93	  379.35
     54.2700	  557.00	  586.23	-1819.23	  379.43
     54.3700	  534.00	  564.94	-1820.94	  379.51
     54.4700	  564.00	  554.02	-1780.02	  379.59
     54.5700	  590.00	  548.75	-1748.75	  379.68
     54.6700	  557.00	  546.36	-1779.36	  379.76
     54.7700	  537.00	  545.53	-1798.53	  379.85
     54.8700	  596.00	  545.68	-1739.68	  379.93
     54.9700	  569.00	  546.60	-1767.60	  380.02
     55.0700	  550.00	  548.21	-1788.21	  380.11
     55.1700	  549.00	  550.54	-1791.54	  380.20
     55.2700	  537.00	  553.64	-1806.64	  380.29
     55.3700	  571.00	  557.65	-1776.65	  380.38
     55.4700	  540.00	  562.74	-1812.74	  380.47
     55.5700	  568.00	  569.30	-1791.30	  380.57
     55.6700	  568.00	  578.10	-1800.10	  380.66
     55.7700	  573.00	  590.71	-1807.71	  380.76
     55.8700	  579.00	  610.33	-1821.33	  380.85
     55.9700	  650.00	  643.01	-1783.01	  380.95
     56.0700	  657.00	  698.99	-1831.99	  381.05
     56.1700	  768.00	  793.25	-1815.25	  381.15
     56.2700	  864.00	  943.95	-1869.95	  381.25
     56.3700	 1095.00	 1167.16	-1862.16	  381.35
     56.4700	 1378.00	 1468.27	-1880.27	  381.45
     56.5700	 1718.00	 1831.87	-1903.87	  381.56
     56.6700	 2123.00	 2213.64	-1880.64	  381.66
     56.7700	 2473.00	 2538.30	-1855.30	  381.77
     56.8700	 2605.00	 2712.98	-1897.98	  381.87
     56.9700	 2631.00	 2673.13	-1832.13	  381.98
     57.0700	 2459.00	 2434.13	-1765.13	  382.09
     57.1700	 2182.00	 2079.01	-1687.01	  382.19
     57.2700	 1653.00	 1698.71	-1835.71	  382.30
     57.3700	 1290.00	 1357.75	-1857.75	  382.41
     57.4700	 1049.00	 1088.96	-1829.96	  382.52
     57.5700	  846.00	  898.99	-1842.99	  382.64
     57.6700	  807.00	  777.70	-1760.70	  382.75
     57.7700	  718.00	  708.06	-1780.06	  382.86
     57.8700	  685.00	  674.04	-1779.04	  382.98
     57.9700	  668.00	  664.39	-1786.39	  383.09
     58.0700	  692.00	  673.19	-1771.19	  383.21
     58.1700	  757.00	  698.55	-1731.55	  383.32
     58.2700	  766.00	  740.67	-1764.67	  383.44
     58.3700	  895.00	  799.86	-1694.86	  383.56
     58.4700	  979.00	  874.88	-1685.88	  383.68
     58.5700	 1116.00	  961.29	-1635.29	  383.79
     58.6700	 1205.00	 1050.79	-1635.79	  383.91
     58.7700	 1366.00	 1133.59	-1557.59	  384.03
     58.8700	 1501.00	 1202.80	-1491.80	  384.16
     58.9700	 1538.00	 1254.58	-1506.58	  384.28
     59.0700	 1624.00	 1283.87	-1449.87	  384.40
     59.1700	 1516.00	 1285.90	-1559.90	  384.52
     59.2700	 1414.00	 1264.03	-1640.03	  384.65
     59.3700	 1358.00	 1230.50	-1662.50	  384.77
     59.4700	 1310.00	 1198.01	-1678.01	  384.90
     59.5700	 1220.00	 1175.02	-1745.02	  385.02
     59.6700	 1176.00	 1168.62	-1782.62	  385.15
     59.7700	 1167.00	 1187.68	-1810.68	  385.28
     59.8700	 1232.00	 1238.49	-1796.49	  385.41
     59.9700	 1286.00	 1318.08	-1822.08	  385.53
     60.0700	 1420.00	 1410.72	-1780.72	  385.66
     60.1700	 1626.00	 1488.33	-1652.33	  385.79
     60.2700	 1664.00	 1517.49	-1643.49	  385.92
     60.3700	 1571.00	 1476.57	-1695.57	  386.05
     60.4700	 1424.00	 1371.23	-1737.23	  386.18
     60.5700	 1249.00	 1228.21	-1769.21	  386.31
     60.6700	 1101.00	 1076.95	-1765.95	  386.45
     60.7700	  900.00	  939.18	-1829.18	  386.58
     60.8700	  752.00	  827.24	-1865.24	  386.71
     60.9700	  715.00	  745.47	-1820.47	  386.85
     61.0700	  644.00	  692.81	-1838.81	  386.98
     61.1700	  637.00	  665.89	-1818.89	  387.11
     61.2700	  624.00	  661.92	-1827.92	  387.25
     61.3700	  619.00	  680.40	-1851.40	  387.38
     61.4700	  663.00	  723.40	-1850.40	  387.52
     61.5700	  759.00	  794.28	-1825.28	  387.66
     61.6700	  829.00	  895.20	-1856.20	  387.79
     61.7700	  991.00	 1024.06	-1823.06	  387.93
     61.8700	 1093.00	 1171.69	-1868.69	  388.07
     61.9700	 1293.00	 1319.95	-1816.95	  388.20
     62.0700	 1359.00	 1441.80	-1872.80	  388.34
     62.1700	 1438.00	 1506.22	-1858.22	  388.48
     62.2700	 1368.00	 1492.32	-1914.32	  388.62
     62.3700	 1319.00	 1404.18	-1875.18	  388.76
     62.4700	 1199.00	 1267.80	-1858.80	  388.90
     62.5700	 1072.00	 1114.11	-1832.11	  389.04
     62.6700	  904.00	  967.45	-1853.45	  389.18
     62.7700	  810.00	  842.75	-1822.75	  389.32
     62.8700	  697.00	  746.23	-1839.23	  389.46
     62.9700	  615.00	  677.43	-1852.43	  389.60
     63.0700	  641.00	  631.81	-1780.81	  389.74
     63.1700	  602.00	  603.41	-1791.41	  389.88
     63.2700	  599.00	  586.70	-1777.70	  390.02
     63.3700	  549.00	  577.59	-1818.59	  390.16
     63.4700	  619.00	  573.63	-1744.63	  390.31
     63.5700	  545.00	  573.88	-1818.88	  390.45
     63.6700	  619.00	  578.71	-1749.71	  390.59
     63.7700	  615.00	  589.50	-1764.50	  390.73
     63.8700	  644.00	  608.33	-1754.33	  390.88
     63.9700	  692.00	  637.44	-1735.44	  391.02
     64.0700	  751.00	  678.40	-1717.40	  391.16
     64.1700	  783.00	  731.06	-1738.06	  391.31
     64.2700	  832.00	  792.63	-1750.63	  391.45
     64.3700	  882.00	  857.02	-1765.02	  391.59
     64.4700	  936.00	  914.77	-1768.77	  391.74
     64.5700	 1034.00	  954.71	-1710.71	  391.88
     64.6700	  959.00	  967.53	-1798.53	  392.02
     64.7700	 1004.00	  952.14	-1738.14	  392.17
     64.8700	 1018.00	  913.30	-1685.30	  392.31
     64.9700	  928.00	  860.18	-1722.18	  392.46
     65.0700	  843.00	  802.64	-1749.64	  392.60
     65.1700	  756.00	  748.53	-1782.53	  392.75
     65.2700	  754.00	  702.32	-1738.32	  392.89
     65.3700	  689.00	  665.18	-1766.18	  393.03
     65.4700	  623.00	  636.25	-1803.25	  393.18
     65.5700	  572.00	  614.00	-1832.00	  393.32
     65.6700	  589.00	  597.11	-1798.11	  393.47
     65.7700	  601.00	  584.51	-1773.51	  393.61
     65.8700	  559.00	  575.40	-1806.40	  393.76
     65.9700	  562.00	  569.20	-1797.20	  393.90
     66.0700	  541.00	  565.41	-1814.41	  394.04
     66.1700	  559.00	  563.61	-1794.61	  394.19
     66.2700	  569.00	  563.45	-1784.45	  394.33
     66.3700	  502.00	  564.67	-1852.67	  394.48
     66.4700	  540.00	  567.11	-1817.11	  394.62
     66.5700	  536.00	  570.86	-1824.86	  394.76
     66.6700	  567.00	  576.27	-1799.27	  394.91
     66.7700	  596.00	  584.29	-1778.29	  395.05
     66.8700	  618.00	  596.39	-1768.39	  395.19
     66.9700	  592.00	  615.57	-1813.57	  395.34
     67.0700	  608.00	  646.45	-1828.45	  395.48
     67.1700	  682.00	  695.75	-1803.75	  395.62
     67.2700	  742.00	  772.06	-1820.06	  395.77
     67.3700	  862.00	  884.76	-1812.76	  395.91
     67.4700	 1068.00	 1041.77	-1763.77	  396.05
     67.5700	 1273.00	 1246.24	-1763.24	  396.19
     67.6700	 1498.00	 1493.04	-1785.04	  396.34
     67.7700	 1858.00	 1765.82	-1697.82	  396.48
     67.8700	 2090.00	 2035.63	-1735.63	  396.62
     67.9700	 2196.00	 2261.70	-1855.70	  396.76
     68.0700	 2423.00	 2397.96	-1764.96	  396.90
     68.1700	 2499.00	 2409.71	-1700.71	  397.04
     68.2700	 2296.00	 2293.66	-1787.66	  397.18
     68.3700	 2095.00	 2080.23	-1775.23	  397.32
     68.4700	 1769.00	 1815.10	-1836.10	  397.46
     68.5700	 1522.00	 1540.69	-1808.69	  397.60
     68.6700	 1297.00	 1288.36	-1781.36	  397.74
     68.7700	 1083.00	 1076.32	-1783.32	  397.88
     68.8700	  885.00	  911.57	-1816.57	  398.02
     68.9700	  722.00	  792.19	-1860.19	  398.16
     69.0700	  649.00	  710.73	-1851.73	  398.30
     69.1700	  609.00	  657.92	-1838.92	  398.43
     69.2700	  650.00	  624.90	-1764.90	  398.57
     69.3700	  651.00	  604.59	-1743.59	  398.71
     69.4700	  601.00	  592.01	-1781.01	  398.84
     69.5700	  571.00	  583.99	-1802.99	  398.98
     69.6700	  531.00	  578.66	-1837.66	  399.12
     69.7700	  573.00	  574.99	-1791.99	  399.25
     69.8700	  499.00	  572.45	-1863.45	  399.39
     69.9700	  585.00	  570.76	-1775.76	  399.52
     70.0700	  588.00	  569.80	-1771.80	  399.65
     70.1700	  575.00	  569.52	-1784.52	  399.79
     70.2700	  556.00	  569.94	-1803.94	  399.92
     70.3700	  584.00	  571.13	-1777.13	  400.05
     70.4700	  563.00	  573.32	-1800.32	  400.19
     70.5700	  552.00	  576.95	-1814.95	  400.32
     70.6700	  578.00	  582.86	-1794.86	  400.45
     70.7700	  551.00	  592.48	-1831.48	  400.58
     70.8700	  614.00	  608.15	-1784.15	  400.71
     70.9700	  583.00	  633.35	-1840.35	  400.84
     71.0700	  632.00	  672.81	-1830.81	  400.97
     71.1700	  709.00	  732.25	-1813.25	  401.09
     71.2700	  818.00	  817.55	-1789.55	  401.22
     71.3700	  983.00	  933.29	-1740.29	  401.35
     71.4700	 1042.00	 1081.67	-1829.67	  401.48
     71.5700	 1258.00	 1257.18	-1789.18	  401.60
     71.6700	 1368.00	 1450.07	-1872.07	  401.73
     71.7700	 1622.00	 1642.42	-1810.42	  401.85
     71.8700	 1849.00	 1809.41	-1750.41	  401.98
     71.9700	 1870.00	 1922.50	-1842.50	  402.10
     72.0700	 1893.00	 1957.55	-1854.55	  402.22
     72.1700	 1886.00	 1906.25	-1810.25	  402.35
     72.2700	 1748.00	 1781.09	-1823.09	  402.47
     72.3700	 1693.00	 1607.72	-1704.72	  402.59
     72.4700	 1480.00	 1415.14	-1725.14	  402.71
     72.5700	 1302.00	 1226.23	-1714.23	  402.83
     72.6700	 1140.00	 1057.13	-1707.13	  402.95
     72.7700	 1054.00	  916.63	-1652.63	  403.06
     72.8700	  969.00	  807.13	-1628.13	  403.18
     72.9700	  865.00	  726.40	-1651.40	  403.30
     73.0700	  798.00	  669.63	-1661.63	  403.41
     73.1700	  758.00	  631.12	-1663.12	  403.53
     73.2700	  713.00	  605.59	-1682.59	  403.64
     73.3700	  685.00	  588.79	-1693.79	  403.76
     73.4700	  668.00	  577.65	-1699.65	  403.87
     73.5700	  629.00	  570.10	-1731.10	  403.98
     73.6700	  579.00	  564.88	-1775.88	  404.09
     73.7700	  614.00	  561.25	-1737.25	  404.20
     73.8700	  585.00	  558.76	-1763.76	  404.31
     73.9700	  517.00	  557.14	-1830.14	  404.42
     74.0700	  592.00	  556.21	-1754.21	  404.53
     74.1700	  600.00	  555.82	-1745.82	  404.64
     74.2700	  647.00	  555.80	-1698.80	  404.75
     74.3700	  627.00	  555.97	-1718.97	  404.85
     74.4700	  615.00	  556.12	-1731.12	  404.96
     74.5700	  648.00	  556.03	-1698.03	  405.06
     74.6700	  609.00	  555.56	-1736.56	  405.16
     74.7700	  627.00	  554.64	-1717.64	  405.26
     74.8700	  610.00	  553.39	-1733.39	  405.37
     74.9700	  610.00	  552.00	-1732.00	  405.47
     75.0700	  583.00	  550.73	-1757.73	  405.57
     75.1700	  586.00	  549.80	-1753.80	  405.66
     75.2700	  557.00	  549.55	-1782.55	  405.76
     75.3700	  548.00	  550.41	-1792.41	  405.86
     75.4700	  579.00	  552.73	-1763.73	  405.95
     75.5700	  565.00	  557.02	-1782.02	  406.05
     75.6700	  591.00	  563.72	-1762.72	  406.14
     75.7700	  572.00	  573.54	-1791.54	  406.24
     75.8700	  611.00	  586.71	-1765.71	  406.33
     75.9700	  609.00	  603.27	-1784.27	  406.42
     76.0700	  586.00	  622.73	-1826.73	  406.51
     76.1700	  637.00	  644.02	-1797.02	  406.60
     76.2700	  641.00	  665.40	-1814.40	  406.69
     76.3700	  674.00	  684.54	-1800.54	  406.77
     76.4700	  693.00	  698.73	-1795.73	  406.86
     76.5700	  730.00	  705.45	-1765.45	  406.94
     76.6700	  704.00	  703.33	-1789.33	  407.03
     76.7700	  641.00	  692.78	-1841.78	  407.11
     76.8700	  656.00	  675.82	-1809.82	  407.19
     76.9700	  639.00	  654.96	-1805.96	  407.27
     77.0700	  587.00	  633.14	-1836.14	  407.35
     77.1700	  595.00	  612.26	-1807.26	  407.43
     77.2700	  560.00	  593.74	-1823.74	  407.51
     77.3700	  554.00	  578.34	-1814.34	  407.58
     77.4700	  566.00	  566.26	-1790.26	  407.66
     77.5700	  561.00	  557.28	-1786.28	  407.73
     77.6700	  501.00	  550.92	-1839.92	  407.81
     77.7700	  540.00	  546.61	-1796.61	  407.88
     77.8700	  549.00	  543.78	-1784.78	  407.95
     77.9700	  517.00	  541.97	-1814.97	  408.02
     78.0700	  542.00	  540.84	-1788.84	  408.09
     78.1700	  486.00	  540.13	-1844.13	  408.16
     78.2700	  504.00	  539.69	-1825.69	  408.22
     78.3700	  523.00	  539.43	-1806.43	  408.29
     78.4700	  560.00	  539.29	-1769.29	  408.35
     78.5700	  535.00	  539.25	-1794.25	  408.41
     78.6700	  576.00	  539.30	-1753.30	  408.48
     78.7700	  533.00	  539.45	-1796.45	  408.54
     78.8700	  549.00	  539.73	-1780.73	  408.59
     78.9700	  564.00	  540.15	-1766.15	  408.65
     79.0700	  523.00	  540.77	-1807.77	  408.71
     79.1700	  504.00	  541.63	-1827.63	  408.77
     79.2700	  504.00	  542.62	-1828.62	  408.82
     79.3700	  547.00	  544.14	-1787.14	  408.87
     79.4700	  531.00	  546.10	-1805.10	  408.93
     79.5700	  536.00	  548.54	-1802.54	  408.98
     79.6700	  539.00	  551.57	-1802.57	  409.03
     79.7700	  577.00	  555.27	-1768.27	  409.07
     79.8700	  559.00	  559.78	-1790.78	  409.12
     79.9700	  502.00	  565.28	-1853.28	  409.17
     80.0700	  524.00	  571.99	-1837.99	  409.21
     80.1700	  533.00	  580.19	-1837.19	  409.25
     80.2700	  537.00	  590.21	-1843.21	  409.30
     80.3700	  593.00	  602.32	-1799.32	  409.34
     80.4700	  570.00	  616.66	-1836.66	  409.38
     80.5700	  634.00	  633.06	-1789.06	  409.41
     80.6700	  637.00	  651.03	-1804.03	  409.45
     80.7700	  672.00	  669.67	-1787.67	  409.49
     80.8700	  694.00	  687.74	-1783.74	  409.52
     80.9700	  637.00	  703.79	-1856.79	  409.55
     81.0700	  727.00	  716.45	-1779.45	  409.59
     81.1700	  709.00	  724.65	-1805.65	  409.62
     81.2700	  753.00	  727.71	-1764.71	  409.64
     81.3700	  781.00	  725.42	-1734.42	  409.67
     81.4700	  755.00	  718.04	-1753.04	  409.70
     81.5700	  721.00	  706.33	-1775.33	  409.72
     81.6700	  758.00	  691.33	-1723.33	  409.75
     81.7700	  750.00	  674.15	-1714.15	  409.77
     81.8700	  699.00	  655.90	-1746.90	  409.79
     81.9700	  675.00	  637.62	-1752.62	  409.81
     82.0700	  642.00	  620.35	-1768.35	  409.83
     82.1700	  670.00	  604.75	-1724.75	  409.84
     82.2700	  578.00	  591.22	-1803.22	  409.86
     82.3700	  603.00	  579.93	-1766.93	  409.87
     82.4700	  616.00	  570.89	-1744.89	  409.89
     82.5700	  579.00	  563.96	-1774.96	  409.90
     82.6700	  573.00	  559.00	-1776.00	  409.91
     82.7700	  571.00	  555.83	-1774.83	  409.92
     82.8700	  571.00	  554.27	-1773.27	  409.92
     82.9700	  547.00	  554.21	-1797.21	  409.93
     83.0700	  523.00	  555.53	-1822.53	  409.93
     83.1700	  546.00	  558.17	-1802.17	  409.94
     83.2700	  531.00	  562.02	-1821.02	  409.94
     83.3700	  556.00	  566.92	-1800.92	  409.94
     83.4700	  602.00	  572.64	-1760.64	  409.93
     83.5700	  564.00	  578.84	-1804.84	  409.93
     83.6700	  550.00	  585.06	-1825.06	  409.93
     83.7700	  592.00	  590.74	-1788.74	  409.92
     83.8700	  543.00	  595.23	-1842.23	  409.91
     83.9700	  583.00	  597.92	-1804.92	  409.91
     84.0700	  613.00	  598.37	-1775.37	  409.90
     84.1700	  573.00	  596.48	-1813.48	  409.88
     84.2700	  553.00	  592.52	-1829.52	  409.87
     84.3700	  528.00	  587.04	-1849.04	  409.86
     84.4700	  567.00	  580.66	-1803.66	  409.84
     84.5700	  551.00	  573.98	-1812.98	  409.82
     84.6700	  536.00	  567.48	-1821.48	  409.80
     84.7700	  540.00	  561.52	-1811.52	  409.78
     84.8700	  524.00	  556.33	-1822.33	  409.76
     84.9700	  534.00	  552.03	-1808.03	  409.74
     85.0700	  520.00	  548.64	-1818.64	  409.71
     85.1700	  526.00	  546.10	-1810.10	  409.69
     85.2700	  537.00	  544.32	-1797.32	  409.66
     85.3700	  538.00	  543.19	-1795.19	  409.63
     85.4700	  557.00	  542.59	-1775.59	  409.60
     85.5700	  527.00	  542.44	-1805.44	  409.57
     85.6700	  545.00	  542.68	-1787.68	  409.53
     85.7700	  547.00	  543.26	-1786.26	  409.50
     85.8700	  509.00	  544.18	-1825.18	  409.46
     85.9700	  528.00	  545.48	-1807.48	  409.42
     86.0700	  555.00	  547.22	-1782.22	  409.38
     86.1700	  554.00	  549.49	-1785.49	  409.34
     86.2700	  511.00	  552.40	-1831.40	  409.30
     86.3700	  529.00	  556.11	-1817.11	  409.26
     86.4700	  511.00	  560.74	-1839.74	  409.21
     86.5700	  617.00	  566.42	-1739.42	  409.16
     86.6700	  562.00	  573.21	-1801.21	  409.11
     86.7700	  571.00	  580.75	-1799.75	  409.06
     86.8700	  565.00	  589.45	-1814.45	  409.01
     86.9700	  612.00	  598.63	-1776.63	  408.96
     87.0700	  685.00	  607.76	-1712.76	  408.90
     87.1700	  651.00	  616.16	-1755.16	  408.85
     87.2700	  602.00	  623.03	-1811.03	  408.79
     87.3700	  621.00	  627.59	-1796.59	  408.73
     87.4700	  656.00	  629.24	-1763.24	  408.67
     87.5700	  637.00	  627.72	-1780.72	  408.61
     87.6700	  648.00	  623.27	-1765.27	  408.54
     87.7700	  709.00	  616.52	-1697.52	  408.48
     87.8700	  669.00	  608.29	-1729.29	  408.41
     87.9700	  596.00	  599.50	-1793.50	  408.34
     88.0700	  606.00	  590.93	-1774.93	  408.27
     88.1700	  609.00	  583.29	-1764.29	  408.20
     88.2700	  635.00	  577.10	-1732.10	  408.13
     88.3700	  581.00	  572.70	-1781.70	  408.06
     88.4700	  578.00	  570.26	-1782.26	  407.98
     88.5700	  561.00	  569.78	-1798.78	  407.90
     88.6700	  626.00	  571.12	-1735.12	  407.82
     88.7700	  618.00	  574.00	-1746.00	  407.74
     88.8700	  614.00	  578.04	-1754.04	  407.66
     88.9700	  616.00	  582.78	-1756.78	  407.58
     89.0700	  615.00	  587.69	-1762.69	  407.49
     89.1700	  583.00	  592.20	-1799.20	  407.41
     89.2700	  618.00	  595.73	-1767.73	  407.32
     89.3700	  597.00	  597.79	-1790.79	  407.23
     89.4700	  564.00	  598.03	-1824.03	  407.14
     89.5700	  591.00	  596.39	-1795.39	  407.04
     89.6700	  560.00	  593.03	-1823.03	  406.95
     89.7700	  568.00	  588.35	-1810.35	  406.85
     89.8700	  552.00	  582.82	-1820.82	  406.76
     89.9700	  539.00	  576.89	-1827.89	  406.66
     90.0700	  548.00	  570.97	-1812.97	  406.56
     90.1700	  551.00	  565.37	-1804.37	  406.46
     90.2700	  522.00	  560.33	-1828.33	  406.35
     90.3700	  555.00	  555.99	-1790.99	  406.25
     90.4700	  537.00	  552.41	-1805.41	  406.14
     90.5700	  528.00	  549.58	-1811.58	  406.04
     90.6700	  517.00	  547.46	-1820.46	  405.93
     90.7700	  514.00	  545.97	-1821.97	  405.82
     90.8700	  510.00	  545.02	-1825.02	  405.70
     90.9700	  523.00	  544.53	-1811.53	  405.59
     91.0700	  498.00	  544.44	-1836.44	  405.48
     91.1700	  539.00	  544.73	-1795.73	  405.36
     91.2700	  500.00	  545.39	-1835.39	  405.24
     91.3700	  541.00	  546.49	-1795.49	  405.12
     91.4700	  555.00	  548.10	-1783.10	  405.00
     91.5700	  557.00	  550.35	-1783.35	  404.88
     91.6700	  518.00	  553.41	-1825.41	  404.76
     91.7700	  523.00	  557.48	-1824.48	  404.63
     91.8700	  569.00	  562.55	-1783.55	  404.50
     91.9700	  577.00	  569.28	-1782.28	  404.38
     92.0700	  537.00	  577.62	-1830.62	  404.25
     92.1700	  520.00	  587.70	-1857.70	  404.12
     92.2700	  610.00	  599.56	-1779.56	  403.98
     92.3700	  546.00	  613.14	-1857.14	  403.85
     92.4700	  664.00	  628.23	-1754.23	  403.71
     92.5700	  645.00	  644.49	-1789.49	  403.58
     92.6700	  659.00	  661.41	-1792.41	  403.44
     92.7700	  706.00	  678.38	-1762.38	  403.30
     92.8700	  690.00	  694.67	-1794.67	  403.16
     92.9700	  729.00	  709.56	-1770.56	  403.02
     93.0700	  777.00	  722.43	-1735.43	  402.87
     93.1700	  805.00	  732.97	-1717.97	  402.73
     93.2700	  802.00	  741.31	-1729.31	  402.58
     93.3700	  788.00	  747.95	-1749.95	  402.43
     93.4700	  833.00	  753.64	-1710.64	  402.28
     93.5700	  840.00	  759.22	-1709.22	  402.13
     93.6700	  789.00	  765.43	-1766.43	  401.98
     93.7700	  835.00	  772.94	-1727.94	  401.83
     93.8700	  845.00	  782.31	-1727.31	  401.67
     93.9700	  875.00	  793.99	-1708.99	  401.52
     94.0700	  843.00	  808.28	-1755.28	  401.36
     94.1700	  858.00	  825.21	-1757.21	  401.20
     94.2700	  837.00	  844.43	-1797.43	  401.04
     94.3700	  894.00	  865.12	-1761.12	  400.88
     94.4700	  895.00	  886.03	-1781.03	  400.72
     94.5700	  879.00	  905.49	-1816.49	  400.55
     94.6700	  949.00	  921.52	-1762.52	  400.39
     94.7700	  913.00	  932.11	-1809.11	  400.22
     94.8700	  937.00	  935.53	-1788.53	  400.05
     94.9700	  888.00	  930.79	-1832.79	  399.88
     95.0700	  946.00	  917.91	-1761.91	  399.71
     95.1700	  868.00	  897.91	-1819.91	  399.54
     95.2700	  781.00	  872.52	-1881.52	  399.37
     95.3700	  818.00	  843.83	-1815.83	  399.19
     95.4700	  783.00	  813.99	-1820.99	  399.02
     95.5700	  783.00	  785.04	-1792.04	  398.84
     95.6700	  713.00	  758.88	-1835.88	  398.66
     95.7700	  723.00	  737.20	-1804.20	  398.48
     95.8700	  701.00	  721.49	-1810.49	  398.30
     95.9700	  693.00	  713.08	-1810.08	  398.12
     96.0700	  749.00	  713.08	-1754.08	  397.93
     96.1700	  730.00	  722.43	-1782.43	  397.75
     96.2700	  697.00	  741.88	-1834.88	  397.57
     96.3700	  767.00	  771.89	-1794.89	  397.38
     96.4700	  840.00	  812.58	-1762.58	  397.19
     96.5700	  907.00	  863.66	-1746.66	  397.00
     96.6700	  951.00	  924.28	-1763.28	  396.81
     96.7700	  984.00	  992.95	-1798.95	  396.62
     96.8700	 1094.00	 1067.51	-1763.51	  396.43
     96.9700	 1123.00	 1145.04	-1812.04	  396.23
     97.0700	 1236.00	 1221.99	-1775.99	  396.04
     97.1700	 1233.00	 1294.17	-1851.17	  395.84
     97.2700	 1326.00	 1357.02	-1821.02	  395.65
     97.3700	 1416.00	 1405.99	-1779.99	  395.45
     97.4700	 1457.00	 1437.11	-1770.11	  395.25
     97.5700	 1408.00	 1447.77	-1829.77	  395.05
     97.6700	 1499.00	 1437.29	-1728.29	  394.85
     97.7700	 1331.00	 1407.11	-1866.11	  394.65
     97.8700	 1396.00	 1360.33	-1754.33	  394.44
     97.9700	 1271.00	 1301.05	-1820.05	  394.24
     98.0700	 1195.00	 1233.77	-1828.77	  394.03
     98.1700	 1158.00	 1162.80	-1794.80	  393.83
     98.2700	 1098.00	 1092.14	-1784.14	  393.62
     98.3700	 1020.00	 1025.23	-1795.23	  393.41
     98.4700	  959.00	  964.96	-1795.96	  393.20
     98.5700	  859.00	  913.62	-1844.62	  392.99
     98.6700	  875.00	  872.99	-1787.99	  392.78
     98.7700	  820.00	  844.41	-1814.41	  392.57
     98.8700	  749.00	  828.81	-1869.81	  392.35
     98.9700	  828.00	  826.85	-1788.85	  392.14
     99.0700	  835.00	  838.93	-1793.93	  391.92
     99.1700	  835.00	  865.27	-1820.27	  391.71
     99.2700	  891.00	  905.91	-1804.91	  391.49
     99.3700	  987.00	  960.65	-1763.65	  391.27
     99.4700	 1007.00	 1028.98	-1811.98	  391.05
     99.5700	 1039.00	 1110.02	-1861.02	  390.84
     99.6700	 1156.00	 1202.44	-1836.44	  390.61
     99.7700	 1225.00	 1304.30	-1869.30	  390.39
     99.8700	 1351.00	 1412.98	-1851.98	  390.17
     99.9700	 1474.00	 1525.12	-1841.12	  389.95
    100.0700	 1632.00	 1636.71	-1794.71	  389.73
    100.1700	 1793.00	 1743.28	-1740.28	  389.50
    100.2700	 1854.00	 1840.24	-1776.24	  389.28
    100.3700	 1915.00	 1923.41	-1798.41	  389.05
    100.4700	 2041.00	 1989.48	-1738.48	  388.82
    100.5700	 2007.00	 2036.14	-1819.14	  388.60
    100.6700	 2114.00	 2061.96	-1737.96	  388.37
    100.7700	 2091.00	 2066.11	-1765.11	  388.14
    100.8700	 2107.00	 2048.39	-1731.39	  387.91
    100.9700	 2076.00	 2009.41	-1723.41	  387.68
    101.0700	 1976.00	 1950.97	-1764.97	  387.45
    101.1700	 1923.00	 1876.24	-1743.24	  387.22
    101.2700	 1863.00	 1789.56	-1716.56	  386.99
    101.3700	 1707.00	 1696.01	-1779.01	  386.75
    101.4700	 1644.00	 1600.68	-1746.68	  386.52
    101.5700	 1566.00	 1508.19	-1732.19	  386.29
    101.6700	 1423.00	 1422.28	-1789.28	  386.05
    101.7700	 1368.00	 1345.73	-1767.73	  385.82
    101.8700	 1295.00	 1280.22	-1775.22	  385.58
    101.9700	 1251.00	 1226.36	-1765.36	  385.35
    102.0700	 1154.00	 1183.73	-1819.73	  385.11
    102.1700	 1147.00	 1151.00	-1794.00	  384.87
    102.2700	 1079.00	 1126.15	-1837.15	  384.64
    102.3700	 1164.00	 1106.64	-1732.64	  384.40
    102.4700	 1077.00	 1089.68	-1802.68	  384.16
    102.5700	 1102.00	 1072.60	-1760.60	  383.92
    102.6700	 1032.00	 1053.15	-1811.15	  383.68
    102.7700	 1026.00	 1029.84	-1793.84	  383.44
    102.8700	 1020.00	 1002.05	-1772.05	  383.20
    102.9700	  933.00	  969.94	-1826.94	  382.96
    103.0700	  929.00	  934.26	-1795.26	  382.72
    103.1700	  873.00	  896.12	-1813.12	  382.48
    103.2700	  835.00	  856.76	-1811.76	  382.24
    103.3700	  835.00	  817.42	-1772.42	  382.00
    103.4700	  743.00	  779.25	-1826.25	  381.76
    103.5700	  737.00	  743.20	-1796.20	  381.52
    103.6700	  703.00	  710.05	-1797.05	  381.27
    103.7700	  695.00	  680.32	-1775.32	  381.03
    103.8700	  669.00	  654.31	-1775.31	  380.79
    103.9700	  596.00	  632.12	-1826.12	  380.55
    104.0700	  592.00	  613.67	-1811.67	  380.30
    104.1700	  613.00	  598.74	-1775.74	  380.06
    104.2700	  586.00	  587.01	-1791.01	  379.82
    104.3700	  531.00	  578.11	-1837.11	  379.57
    104.4700	  570.00	  571.65	-1791.65	  379.33
    104.5700	  546.00	  567.23	-1811.23	  379.09
    104.6700	  523.00	  564.50	-1831.50	  378.84
    104.7700	  561.00	  563.14	-1792.14	  378.60
    104.8700	  566.00	  562.84	-1786.84	  378.36
    104.9700	  545.00	  563.37	-1808.37	  378.11
    105.0700	  528.00	  564.56	-1826.56	  377.87
    105.1700	  526.00	  566.23	-1830.23	  377.63
    105.2700	  502.00	  568.28	-1856.28	  377.38
    105.3700	  566.00	  570.62	-1794.62	  377.14
    105.4700	  600.00	  573.26	-1763.26	  376.90
    105.5700	  521.00	  576.19	-1845.19	  376.66
    105.6700	  540.00	  579.49	-1829.49	  376.41
    105.7700	  578.00	  583.27	-1795.27	  376.17
    105.8700	  638.00	  587.65	-1739.65	  375.93
    105.9700	  604.00	  592.75	-1778.75	  375.69
    106.0700	  565.00	  598.69	-1823.69	  375.44
    106.1700	  545.00	  605.52	-1850.52	  375.20
    106.2700	  590.00	  613.25	-1813.25	  374.96
    106.3700	  650.00	  621.82	-1761.82	  374.72
    106.4700	  594.00	  631.07	-1827.07	  374.48
    106.5700	  576.00	  640.80	-1854.80	  374.24
    106.6700	  622.00	  650.73	-1818.73	  374.00
    106.7700	  636.00	  660.50	-1814.50	  373.76
    106.8700	  660.00	  669.74	-1799.74	  373.52
    106.9700	  654.00	  678.03	-1814.03	  373.28
    107.0700	  657.00	  684.99	-1817.99	  373.04
    107.1700	  699.00	  690.31	-1781.31	  372.81
    107.2700	  678.00	  693.79	-1805.79	  372.57
    107.3700	  728.00	  695.43	-1757.43	  372.33
    107.4700	  662.00	  695.37	-1823.37	  372.10
    107.5700	  688.00	  693.95	-1795.95	  371.86
    107.6700	  709.00	  691.57	-1772.57	  371.63
    107.7700	  690.00	  688.69	-1788.69	  371.39
    107.8700	  687.00	  685.75	-1788.75	  371.16
    107.9700	  683.00	  683.12	-1790.12	  370.93
    108.0700	  680.00	  681.07	-1791.07	  370.69
    108.1700	  696.00	  679.77	-1773.77	  370.46
    108.2700	  659.00	  679.26	-1810.26	  370.23
    108.3700	  715.00	  679.48	-1754.48	  370.00
    108.4700	  700.00	  680.24	-1770.24	  369.77
    108.5700	  633.00	  681.25	-1838.25	  369.54
    108.6700	  710.00	  682.15	-1762.15	  369.32
    108.7700	  684.00	  682.54	-1788.54	  369.09
    108.8700	  718.00	  682.03	-1754.03	  368.86
    108.9700	  654.00	  680.28	-1816.28	  368.64
    109.0700	  654.00	  677.05	-1813.05	  368.42
    109.1700	  706.00	  672.25	-1756.25	  368.19
    109.2700	  657.00	  665.91	-1798.91	  367.97
    109.3700	  669.00	  658.22	-1779.22	  367.75
    109.4700	  655.00	  649.43	-1784.43	  367.53
    109.5700	  638.00	  639.85	-1791.85	  367.31
    109.6700	  633.00	  629.81	-1786.81	  367.10
    109.7700	  643.00	  619.65	-1766.65	  366.88
    109.8700	  623.00	  609.65	-1776.65	  366.67
    109.9700	  640.00	  600.08	-1750.08	  366.45
    110.0700	  648.00	  591.15	-1733.15	  366.24
    110.1700	  603.00	  583.03	-1770.03	  366.03
    110.2700	  583.00	  575.84	-1782.84	  365.82
    110.3700	  592.00	  569.62	-1767.62	  365.61
    110.4700	  557.00	  564.41	-1797.41	  365.40
    110.5700	  527.00	  560.18	-1823.18	  365.20
    110.6700	  554.00	  556.88	-1792.88	  364.99
    110.7700	  511.00	  554.44	-1833.44	  364.79
    110.8700	  544.00	  552.77	-1798.77	  364.59
    110.9700	  563.00	  551.78	-1778.78	  364.39
    111.0700	  578.00	  551.39	-1763.39	  364.19
    111.1700	  567.00	  551.51	-1774.51	  363.99
    111.2700	  590.00	  552.07	-1752.07	  363.80
    111.3700	  544.00	  553.00	-1799.00	  363.60
    111.4700	  582.00	  554.25	-1762.25	  363.41
    111.5700	  539.00	  555.79	-1806.79	  363.22
    111.6700	  523.00	  557.57	-1824.57	  363.03
    111.7700	  602.00	  559.57	-1747.57	  362.84
    111.8700	  522.00	  561.80	-1829.80	  362.66
    111.9700	  560.00	  564.23	-1794.23	  362.48
    112.0700	  602.00	  566.88	-1754.88	  362.29
    112.1700	  555.00	  569.75	-1804.75	  362.11
    112.2700	  599.00	  572.88	-1763.88	  361.94
    112.3700	  602.00	  576.27	-1764.27	  361.76
    112.4700	  551.00	  579.98	-1818.98	  361.59
    112.5700	  598.00	  584.05	-1776.05	  361.41
    112.6700	  575.00	  588.54	-1803.54	  361.24
    112.7700	  605.00	  593.53	-1778.53	  361.08
    112.8700	  650.00	  599.15	-1739.15	  360.91
    112.9700	  648.00	  605.53	-1747.53	  360.75
    113.0700	  697.00	  612.85	-1705.85	  360.59
    113.1700	  723.00	  621.36	-1688.36	  360.43
    113.2700	  728.00	  631.38	-1693.38	  360.27
    113.3700	  765.00	  643.30	-1668.30	  360.11
    113.4700	  837.00	  657.64	-1610.64	  359.96
    113.5700	  790.00	  675.02	-1675.02	  359.81
    113.6700	  785.00	  696.23	-1701.23	  359.66
    113.7700	  876.00	  722.22	-1636.22	  359.52
    113.8700	  944.00	  754.15	-1600.15	  359.38
    113.9700	  964.00	  793.38	-1619.38	  359.23
    114.0700	 1038.00	  841.47	-1593.47	  359.10
    114.1700	 1095.00	  900.21	-1595.21	  358.96
    114.2700	 1170.00	  971.59	-1591.59	  358.83
    114.3700	 1269.00	 1057.80	-1578.80	  358.70
    114.4700	 1287.00	 1161.10	-1664.10	  358.57
    114.5700	 1422.00	 1283.85	-1651.85	  358.45
    114.6700	 1555.00	 1428.31	-1663.31	  358.32
    114.7700	 1703.00	 1596.66	-1683.66	  358.20
    114.8700	 1905.00	 1790.78	-1675.78	  358.09
    114.9700	 2127.00	 2012.06	-1675.06	  357.97
    115.0700	 2384.00	 2261.34	-1667.34	  357.86
    115.1700	 2554.00	 2538.64	-1774.64	  357.75
    115.2700	 2874.00	 2843.19	-1759.19	  357.65
    115.3700	 3054.00	 3173.18	-1909.18	  357.55
    115.4700	 3332.00	 3525.60	-1983.60	  357.45
    115.5700	 3699.00	 3896.27	-1987.27	  357.35
    115.6700	 4060.00	 4279.73	-2009.73	  357.26
    115.7700	 4379.00	 4669.40	-2080.40	  357.17
    115.8700	 4762.00	 5057.52	-2085.52	  357.08
    115.9700	 5151.00	 5435.14	-2074.14	  357.00
    116.0700	 5539.00	 5792.42	-2043.42	  356.92
    116.1700	 6006.00	 6118.77	-1902.77	  356.84
    116.2700	 6176.00	 6403.49	-2017.49	  356.77
    116.3700	 6633.00	 6636.09	-1793.09	  356.70
    116.4700	 6866.00	 6807.13	-1731.13	  356.63
    116.5700	 7054.00	 6909.17	-1645.17	  356.56
    116.6700	 7160.00	 6937.63	-1567.63	  356.50
    116.7700	 7010.00	 6891.38	-1671.38	  356.45
    116.8700	 6922.00	 6772.83	-1640.83	  356.40
    116.9700	 6736.00	 6587.69	-1641.69	  356.35
    117.0700	 6232.00	 6344.19	-1902.19	  356.30
    117.1700	 6253.00	 6052.25	-1589.25	  356.26
    117.2700	 5670.00	 5722.46	-1842.46	  356.22
    117.3700	 5436.00	 5365.43	-1719.43	  356.18
    117.4700	 4892.00	 4991.43	-1889.43	  356.15
    117.5700	 4633.00	 4609.86	-1766.86	  356.13
    117.6700	 4365.00	 4229.17	-1654.17	  356.10
    117.7700	 4020.00	 3856.53	-1626.53	  356.08
    117.8700	 3689.00	 3497.90	-1598.90	  356.07
    117.9700	 3179.00	 3158.13	-1769.13	  356.06
    118.0700	 3011.00	 2840.79	-1619.79	  356.05
    118.1700	 2559.00	 2548.36	-1779.36	  356.05
    118.2700	 2227.00	 2282.18	-1845.18	  356.05
    118.3700	 2042.00	 2042.68	-1790.68	  356.05
    118.4700	 1771.00	 1829.58	-1848.58	  356.06
    118.5700	 1570.00	 1641.94	-1861.94	  356.08
    118.6700	 1335.00	 1478.33	-1933.33	  356.10
    118.7700	 1191.00	 1336.93	-1935.93	  356.12
    118.8700	 1181.00	 1215.69	-1824.69	  356.15
    118.9700	 1068.00	 1112.52	-1834.52	  356.18
    119.0700	  927.00	 1025.27	-1888.27	  356.21
    119.1700	  879.00	  951.90	-1862.90	  356.25
    119.2700	  824.00	  890.45	-1856.45	  356.30
    119.3700	  827.00	  839.13	-1802.13	  356.35
    119.4700	  685.00	  796.38	-1901.38	  356.40
    119.5700	  714.00	  760.80	-1836.80	  356.46
    119.6700	  653.00	  731.20	-1868.20	  356.52
    119.7700	  604.00	  706.55	-1892.55	  356.59
    119.8700	  637.00	  685.99	-1838.99	  356.67
    119.9700	  610.00	  668.81	-1848.81	  356.74
    120.0700	  652.00	  654.44	-1792.44	  356.83
    120.1700	  605.00	  642.40	-1827.40	  356.92
    120.2700	  579.00	  632.31	-1843.31	  357.01
    120.3700	  593.00	  623.85	-1820.85	  357.11
    120.4700	  548.00	  616.78	-1858.78	  357.21
    120.5700	  562.00	  610.90	-1838.90	  357.32
    120.6700	  601.00	  606.07	-1795.07	  357.43
    120.7700	  548.00	  602.17	-1844.17	  357.55
    120.8700	  555.00	  599.08	-1834.08	  357.68
    120.9700	  595.00	  596.76	-1791.76	  357.81
    121.0700	  603.00	  595.12	-1782.12	  357.94
    121.1700	  563.00	  594.13	-1821.13	  358.08
    121.2700	  518.00	  593.75	-1865.75	  358.23
    121.3700	  602.00	  593.92	-1781.92	  358.38
    121.4700	  547.00	  594.61	-1837.61	  358.54
    121.5700	  597.00	  595.77	-1788.77	  358.70
    121.6700	  585.00	  597.35	-1802.35	  358.87
    121.7700	  601.00	  599.29	-1788.29	  359.05
    121.8700	  582.00	  601.51	-1809.51	  359.23
    121.9700	  608.00	  603.98	-1785.98	  359.41
    122.0700	  559.00	  606.60	-1837.60	  359.61
    122.1700	  653.00	  609.28	-1746.28	  359.81
    122.2700	  622.00	  611.94	-1779.94	  360.01
    122.3700	  616.00	  614.46	-1788.46	  360.22
    122.4700	  637.00	  616.76	-1769.76	  360.44
    122.5700	  633.00	  618.76	-1775.76	  360.66
    122.6700	  628.00	  620.36	-1782.36	  360.89
    122.7700	  607.00	  621.49	-1804.49	  361.12
    122.8700	  634.00	  622.11	-1778.11	  361.37
    122.9700	  623.00	  622.18	-1789.18	  361.61
    123.0700	  676.00	  621.71	-1735.71	  361.87
    123.1700	  589.00	  620.71	-1821.71	  362.13
    123.2700	  650.00	  619.21	-1759.21	  362.40
    123.3700	  662.00	  617.27	-1745.27	  362.67
    123.4700	  629.00	  614.96	-1775.96	  362.95
    123.5700	  631.00	  612.33	-1771.33	  363.24
    123.6700	  641.00	  609.46	-1758.46	  363.53
    123.7700	  625.00	  606.41	-1771.41	  363.84
    123.8700	  639.00	  603.24	-1754.24	  364.14
    123.9700	  551.00	  600.02	-1839.02	  364.46
    124.0700	  629.00	  596.80	-1757.80	  364.78
    124.1700	  621.00	  593.63	-1762.63	  365.11
    124.2700	  627.00	  590.54	-1753.54	  365.45
    124.3700	  564.00	  587.57	-1813.57	  365.79
    124.4700	  606.00	  584.75	-1768.75	  366.14
    124.5700	  607.00	  582.08	-1765.08	  366.50
    124.6700	  617.00	  579.59	-1752.59	  366.86
    124.7700	  600.00	  577.29	-1767.29	  367.24
    124.8700	  587.00	  575.19	-1778.19	  367.62
    124.9700	  594.00	  486.69	-1682.69	  368.00
    125.0700	  594.00	  487.08	-1790.00	  368.40
    125.1700	  648.00	  487.48	-1790.00	  368.80
    125.2700	  603.00	  487.89	-1790.00	  369.21
    125.3700	  597.00	  488.31	-1790.00	  369.63
    125.4700	  622.00	  488.74	-1790.00	  370.06
    125.5700	  549.00	  489.17	-1790.00	  370.49
    125.6700	  557.00	  489.61	-1790.00	  370.93
    125.7700	  534.00	  490.06	-1790.00	  371.38
    125.8700	  573.00	  490.52	-1790.00	  371.84
    125.9700	  587.00	  490.99	-1790.00	  372.30
    126.0700	  577.00	  491.46	-1790.00	  372.78
    126.1700	  579.00	  491.94	-1790.00	  373.26
    126.2700	  565.00	  492.43	-1790.00	  373.75
    126.3700	  588.00	  492.93	-1790.00	  374.25
    126.4700	  614.00	  493.44	-1790.00	  374.76
    126.5700	  571.00	  493.95	-1790.00	  375.27
    126.6700	  605.00	  494.48	-1790.00	  375.79
    126.7700	  600.00	  495.01	-1790.00	  376.33
    126.8700	  626.00	  495.55	-1790.00	  376.87
    126.9700	  626.00	  496.10	-1790.00	  377.42
    127.0700	  627.00	  496.66	-1790.00	  377.98
    127.1700	  628.00	  497.23	-1790.00	  378.54
    127.2700	  653.00	  497.80	-1790.00	  379.12
    127.3700	  709.00	  498.39	-1790.00	  379.71
    127.4700	  677.00	  498.98	-1790.00	  380.30
    127.5700	  669.00	  499.59	-1790.00	  380.90
    127.6700	  659.00	  500.20	-1790.00	  381.52
    127.7700	  723.00	  500.82	-1790.00	  382.14
    127.8700	  689.00	  501.45	-1790.00	  382.77
    127.9700	  775.00	  502.09	-1790.00	  383.41
    128.0700	  762.00	  502.74	-1790.00	  384.06
    128.1700	  807.00	  503.40	-1790.00	  384.72
    128.2700	  806.00	  504.07	-1790.00	  385.39
    128.3700	  820.00	  504.75	-1790.00	  386.06
    128.4700	  773.00	  505.43	-1790.00	  386.75
    128.5700	    0.00	  506.13	-1790.00	  387.45
    128.6700	    0.00	  506.84	-1790.00	  388.16
     12.3070	        	        	        	        	       0	(  0  0  2)	  0  1
     24.8893	        	        	        	        	       0	(  0  0  4)	  0  1
     28.3327	        	        	        	        	       0	(  1  0  0)	  0  1
     29.0298	        	        	        	        	       0	(  1  0  1)	  0  1
     31.0358	        	        	        	        	       0	(  1  0  2)	  0  1
     34.1437	        	        	        	        	       0	(  1  0  3)	  0  1
     37.7875	        	        	        	        	       0	(  0  0  6)	  0  1
     38.1203	        	        	        	        	       0	(  1  0  4)	  0  1
     42.7699	        	        	        	        	       0	(  1  0  5)	  0  1
     47.9533	        	        	        	        	       0	(  1  0  6)	  0  1
     50.2695	        	        	        	        	       0	(  1  1  0)	  0  1
     51.2078	        	        	        	        	       0	(  0  0  8)	  0  1
     51.9923	        	        	        	        	       0	(  1  1  2)	  0  1
     53.5831	        	        	        	        	       0	(  1  0  7)	  0  1
     56.9395	        	        	        	        	       0	(  1  1  4)	  0  1
     58.7664	        	        	        	        	       0	(  2  0  0)	  0  1
     59.1579	        	        	        	        	       0	(  2  0  1)	  0  1
     59.6127	        	        	        	        	       0	(  1  0  8)	  0  1
     60.3232	        	        	        	        	       0	(  2  0  2)	  0  1
     62.2361	        	        	        	        	       0	(  2  0  3)	  0  1
     64.6331	        	        	        	        	       0	(  1  1  6)	  0  1
     64.8598	        	        	        	        	       0	(  2  0  4)	  0  1
     65.4351	        	        	        	        	       0	(  0  0 10)	  0  1
     66.0281	        	        	        	        	       0	(  1  0  9)	  0  1
     68.1536	        	        	        	        	       0	(  2  0  5)	  0  1
     72.0805	        	        	        	        	       0	(  2  0  6)	  0  1
     72.8432	        	        	        	        	       0	(  1  0 10)	  0  1
     74.6693	        	        	        	        	       0	(  1  1  8)	  0  1
     76.6139	        	        	        	        	       0	(  2  0  7)	  0  1
     80.0997	        	        	        	        	       0	(  1  0 11)	  0  1
     80.9130	        	        	        	        	       0	(  0  0 12)	  0  1
     81.0075	        	        	        	        	       0	(  2  1  0)	  0  1
     81.3473	        	        	        	        	       0	(  2  1  1)	  0  1
     81.7434	        	        	        	        	       0	(  2  0  8)	  0  1
     82.3650	        	        	        	        	       0	(  2  1  2)	  0  1
     84.0560	        	        	        	        	       0	(  2  1  3)	  0  1
     86.4153	        	        	        	        	       0	(  2  1  4)	  0  1
     86.9386	        	        	        	        	       0	(  1  1 10)	  0  1
     87.4804	        	        	        	        	       0	(  2  0  9)	  0  1
     87.8726	        	        	        	        	       0	(  1  0 12)	  0  1
     89.4406	        	        	        	        	       0	(  2  1  5)	  0  1
     93.1374	        	        	        	        	       0	(  2  1  6)	  0  1
     93.8666	        	        	        	        	       0	(  2  0 10)	  0  1
     94.8963	        	        	        	        	       0	(  3  0  0)	  0  1
     95.2336	        	        	        	        	       0	(  3  0  1)	  0  1
     96.2466	        	        	        	        	       0	(  3  0  2)	  0  1
     96.2841	        	        	        	        	       0	(  1  0 13)	  0  1
     97.5252	        	        	        	        	       0	(  2  1  7)	  0  1
     97.9396	        	        	        	        	       0	(  3  0  3)	  0  1
     98.4488	        	        	        	        	       0	(  0  0 14)	  0  1
    100.3222	        	        	        	        	       0	(  3  0  4)	  0  1
    100.9871	        	        	        	        	       0	(  2  0 11)	  0  1
    101.8060	        	        	        	        	       0	(  1  1 12)	  0  1
    102.6466	        	        	        	        	       0	(  2  1  8)	  0  1
    103.4133	        	        	        	        	       0	(  3  0  5)	  0  1
    105.5346	        	        	        	        	       0	(  1  0 14)	  0  1
    107.2476	        	        	        	        	       0	(  3  0  6)	  0  1
    108.5823	        	        	        	        	       0	(  2  1  9)	  0  1
    108.9965	        	        	        	        	       0	(  2  0 12)	  0  1
    111.8870	        	        	        	        	       0	(  3  0  7)	  0  1
    115.4775	        	        	        	        	       0	(  2  1 10)	  0  1
    115.9752	        	        	        	        	       0	(  1  0 15)	  0  1
    116.6213	        	        	        	        	       0	(  2  2  0)	  0  1
    117.4392	        	        	        	        	       0	(  3  0  8)	  0  1
    118.1362	        	        	        	        	       0	(  2  2  2)	  0  1
    118.1785	        	        	        	        	       0	(  2  0 13)	  0  1
    119.9312	        	        	        	        	       0	(  0  0 16)	  0  1
    120.6454	        	        	        	        	       0	(  1  1 14)	  0  1
    122.8208	        	        	        	        	       0	(  2  2  4)	  0  1
    123.6025	        	        	        	        	       0	(  2  1 11)	  0  1
    124.0976	        	        	        	        	       0	(  3  0  9)	  0  1
    124.6866	        	        	        	        	       0	(  3  1  0)	  0  1
    125.0967	        	        	        	        	       0	(  3  1  1)	  0  1
    126.3399	        	        	        	        	       0	(  3  1  2)	  0  1
    128.3145	        	        	        	        	       0	(  1  0 16)	  0  1
    128.4578	        	        	        	        	       0	(  3  1  3)	  0  1
    129.1052	        	        	        	        	       0	(  2  0 14)	  0  1
    131.2589	        	        	        	        	       0	(  2  2  6)	  0  1
    131.5331	        	        	        	        	       0	(  3  1  4)	  0  1
    132.2363	        	        	        	        	       0	(  3  0 10)	  0  1
    133.5122	        	        	        	        	       0	(  2  1 12)	  0  1
    135.7193	        	        	        	        	       0	(  3  1  5)	  0  1
    141.3137	        	        	        	        	       0	(  3  1  6)	  0  1
    142.7123	        	        	        	        	       0	(  3  0 11)	  0  1
    143.2406	        	        	        	        	       0	(  2  0 15)	  0  1
    144.4784	        	        	        	        	       0	(  1  0 17)	  0  1
    145.4899	        	        	        	        	       0	(  2  2  8)	  0  1
    146.6641	        	        	        	        	       0	(  2  1 13)	  0  1
    148.9854	        	        	        	        	       0	(  3  1  7)	  0  1
    149.5719	        	        	        	        	       0	(  1  1 16)	  0  1
    153.9704	        	        	        	        	       0	(  0  0 18)	  0  1
    158.5874	        	        	        	        	       0	(  3  0 12)	  0  1
    158.8461	        	        	        	        	       0	(  4  0  0)	  0  1
    159.8031	        	        	        	        	       0	(  4  0  1)	  0  1
    160.9780	        	        	        	        	       0	(  3  1  8)	  0  1
    162.9825	        	        	        	        	       0	(  4  0  2)	  0  1
    169.6800	        	        	        	        	       0	(  2  0 16)	  0  1
    170.3340	        	        	        	        	       0	(  4  0  3)	  0  1
    174.1207	        	        	        	        	       0	(  2  1 14)	  0  1
