MSG Master    CELL:    5.91911   5.91911  23.27435   90.0000   90.0000  120.0000   SPGR: P 63/m m c             TEMP:   1074.85
  1   1280     2.52000     0.00000    -0.12647     0.00000     0.00000    0
    99     0     2
       0.00000      10.00000
     125.00000     130.00000
 2Theta	Yobs	Ycal	Yobs-Ycal	Backg	Posr	(hkl)	K
      0.7700	    0.00	  564.79	-1752.25	  447.33
      0.8700	    0.00	  565.34	-1752.25	  447.88
      0.9700	   38.00	  565.88	-1752.25	  448.42
      1.0700	   52.00	  566.40	-1752.25	  448.95
      1.1700	   58.00	  566.92	-1752.25	  449.47
      1.2700	   48.00	  567.43	-1752.25	  449.98
      1.3700	   47.00	  567.93	-1752.25	  450.48
      1.4700	  101.00	  568.42	-1752.25	  450.97
      1.5700	  321.00	  568.91	-1752.25	  451.45
      1.6700	  459.00	  569.38	-1752.25	  451.92
      1.7700	  577.00	  569.84	-1752.25	  452.39
      1.8700	  619.00	  570.30	-1752.25	  452.84
      1.9700	  711.00	  570.74	-1752.25	  453.29
      2.0700	  774.00	  571.18	-1752.25	  453.72
      2.1700	  746.00	  571.61	-1752.25	  454.15
      2.2700	  743.00	  572.02	-1752.25	  454.57
      2.3700	  781.00	  572.43	-1752.25	  454.98
      2.4700	  717.00	  572.84	-1752.25	  455.38
      2.5700	  731.00	  573.23	-1752.25	  455.77
      2.6700	  665.00	  573.61	-1752.25	  456.16
      2.7700	  664.00	  573.99	-1752.25	  456.53
      2.8700	  606.00	  574.36	-1752.25	  456.90
      2.9700	  608.00	  574.71	-1752.25	  457.26
      3.0700	  593.00	  575.06	-1752.25	  457.61
      3.1700	  553.00	  575.41	-1752.25	  457.95
      3.2700	  579.00	  575.74	-1752.25	  458.29
      3.3700	  724.00	  576.07	-1752.25	  458.61
      3.4700	  767.00	  576.39	-1752.25	  458.93
      3.5700	  830.00	  576.70	-1752.25	  459.24
      3.6700	  825.00	  577.00	-1752.25	  459.54
      3.7700	  924.00	  577.29	-1752.25	  459.84
      3.8700	  995.00	  577.58	-1752.25	  460.12
      3.9700	 1009.00	  577.86	-1752.25	  460.40
      4.0700	 1044.00	  578.13	-1752.25	  460.67
      4.1700	 1034.00	  578.39	-1752.25	  460.94
      4.2700	 1119.00	  578.65	-1752.25	  461.19
      4.3700	 1065.00	  578.89	-1752.25	  461.44
      4.4700	 1064.00	  579.14	-1752.25	  461.68
      4.5700	 1064.00	  579.37	-1752.25	  461.91
      4.6700	 1052.00	  579.60	-1752.25	  462.14
      4.7700	 1008.00	  579.81	-1752.25	  462.36
      4.8700	  953.00	  580.03	-1752.25	  462.57
      4.9700	  964.00	  580.23	-1752.25	  462.78
      5.0700	  945.00	  580.43	-1752.25	  462.97
      5.1700	  932.00	  580.62	-1752.25	  463.16
      5.2700	  874.00	  580.80	-1752.25	  463.35
      5.3700	  944.00	  580.98	-1752.25	  463.52
      5.4700	  919.00	  581.15	-1752.25	  463.69
      5.5700	  818.00	  581.31	-1752.25	  463.86
      5.6700	  855.00	  581.47	-1752.25	  464.01
      5.7700	  855.00	  581.62	-1752.25	  464.16
      5.8700	  826.00	  581.76	-1752.25	  464.30
      5.9700	  817.00	  581.89	-1752.25	  464.44
      6.0700	  782.00	  582.02	-1752.25	  464.57
      6.1700	  754.00	  582.15	-1752.25	  464.69
      6.2700	  744.00	  582.26	-1752.25	  464.81
      6.3700	  784.00	  582.37	-1752.25	  464.92
      6.4700	  740.00	  582.48	-1752.25	  465.02
      6.5700	  743.00	  582.58	-1752.25	  465.12
      6.6700	  773.00	  582.67	-1752.25	  465.21
      6.7700	  732.00	  582.75	-1752.25	  465.30
      6.8700	  781.00	  582.83	-1752.25	  465.38
      6.9700	  696.00	  582.91	-1752.25	  465.45
      7.0700	  685.00	  582.97	-1752.25	  465.52
      7.1700	  639.00	  583.03	-1752.25	  465.58
      7.2700	  726.00	  583.09	-1752.25	  465.64
      7.3700	  716.00	  583.14	-1752.25	  465.68
      7.4700	  670.00	  583.18	-1752.25	  465.73
      7.5700	  617.00	  583.22	-1752.25	  465.77
      7.6700	  662.00	  583.25	-1752.25	  465.80
      7.7700	  682.00	  583.28	-1752.25	  465.83
      7.8700	  636.00	  583.30	-1752.25	  465.85
      7.9700	  658.00	  583.32	-1752.25	  465.86
      8.0700	  683.00	  583.33	-1752.25	  465.87
      8.1700	  620.00	  583.33	-1752.25	  465.88
      8.2700	  632.00	  583.33	-1752.25	  465.88
      8.3700	  592.00	  583.33	-1752.25	  465.87
      8.4700	  677.00	  583.32	-1752.25	  465.86
      8.5700	  628.00	  583.30	-1752.25	  465.85
      8.6700	  656.00	  583.28	-1752.25	  465.83
      8.7700	  682.00	  583.25	-1752.25	  465.80
      8.8700	  611.00	  583.22	-1752.25	  465.77
      8.9700	  643.00	  583.19	-1752.25	  465.73
      9.0700	  573.00	  583.15	-1752.25	  465.69
      9.1700	  617.00	  583.10	-1752.25	  465.64
      9.2700	  599.00	  583.05	-1752.25	  465.59
      9.3700	  639.00	  582.99	-1752.25	  465.54
      9.4700	  579.00	  582.93	-1752.25	  465.48
      9.5700	  600.00	  582.87	-1752.25	  465.41
      9.6700	  643.00	  582.80	-1752.25	  465.34
      9.7700	  632.00	  582.72	-1752.25	  465.27
      9.8700	  605.00	  582.64	-1752.25	  465.19
      9.9700	  614.00	  582.56	-1752.25	  465.10
     10.0700	  573.00	  583.27	-1762.52	  465.02
     10.1700	  605.00	  583.26	-1730.51	  464.92
     10.2700	  611.00	  583.27	-1724.52	  464.83
     10.3700	  583.00	  583.31	-1752.56	  464.72
     10.4700	  654.00	  583.40	-1681.65	  464.62
     10.5700	  577.00	  583.61	-1758.86	  464.51
     10.6700	  566.00	  584.03	-1770.28	  464.39
     10.7700	  575.00	  584.78	-1762.03	  464.28
     10.8700	  592.00	  585.94	-1746.19	  464.15
     10.9700	  645.00	  587.48	-1694.73	  464.03
     11.0700	  605.00	  589.39	-1736.64	  463.90
     11.1700	  617.00	  591.65	-1726.90	  463.76
     11.2700	  574.00	  594.29	-1772.54	  463.62
     11.3700	  605.00	  597.40	-1744.65	  463.48
     11.4700	  606.00	  601.12	-1747.37	  463.34
     11.5700	  635.00	  605.65	-1722.90	  463.19
     11.6700	  608.00	  611.36	-1755.61	  463.03
     11.7700	  617.00	  618.89	-1754.14	  462.87
     11.8700	  626.00	  629.21	-1755.46	  462.71
     11.9700	  686.00	  643.05	-1709.30	  462.55
     12.0700	  651.00	  658.78	-1760.03	  462.38
     12.1700	  695.00	  669.86	-1727.11	  462.21
     12.2700	  654.00	  666.01	-1764.26	  462.03
     12.3700	  696.00	  644.32	-1700.57	  461.86
     12.4700	  636.00	  618.19	-1734.44	  461.67
     12.5700	  584.00	  599.30	-1767.55	  461.49
     12.6700	  580.00	  589.17	-1761.42	  461.30
     12.7700	  579.00	  584.62	-1757.87	  461.11
     12.8700	  565.00	  582.54	-1769.79	  460.91
     12.9700	  552.00	  581.36	-1781.61	  460.71
     13.0700	  572.00	  580.54	-1760.79	  460.51
     13.1700	  545.00	  579.89	-1787.14	  460.31
     13.2700	  563.00	  579.35	-1768.60	  460.10
     13.3700	  529.00	  578.89	-1802.14	  459.89
     13.4700	  620.00	  578.47	-1710.72	  459.67
     13.5700	  590.00	  578.10	-1740.35	  459.46
     13.6700	  582.00	  577.75	-1748.00	  459.24
     13.7700	  549.00	  577.42	-1780.67	  459.01
     13.8700	  575.00	  577.10	-1754.35	  458.79
     13.9700	  575.00	  576.80	-1754.05	  458.56
     14.0700	  591.00	  576.51	-1737.76	  458.33
     14.1700	  610.00	  576.22	-1718.47	  458.09
     14.2700	  561.00	  575.93	-1767.18	  457.86
     14.3700	  542.00	  575.65	-1785.90	  457.62
     14.4700	  511.00	  575.38	-1816.63	  457.38
     14.5700	  538.00	  575.10	-1789.35	  457.13
     14.6700	  577.00	  574.83	-1750.08	  456.89
     14.7700	  595.00	  574.55	-1731.80	  456.64
     14.8700	  539.00	  574.28	-1787.53	  456.38
     14.9700	  605.00	  574.00	-1721.25	  456.13
     15.0700	  559.00	  573.73	-1766.98	  455.87
     15.1700	  562.00	  573.46	-1763.71	  455.61
     15.2700	  555.00	  573.18	-1770.43	  455.35
     15.3700	  545.00	  572.90	-1780.15	  455.09
     15.4700	  586.00	  572.62	-1738.87	  454.82
     15.5700	  530.00	  572.35	-1794.60	  454.55
     15.6700	  571.00	  572.07	-1753.32	  454.28
     15.7700	  619.00	  571.78	-1705.03	  454.01
     15.8700	  535.00	  571.50	-1788.75	  453.74
     15.9700	  625.00	  571.22	-1698.47	  453.46
     16.0700	  561.00	  570.93	-1762.18	  453.18
     16.1700	  547.00	  570.64	-1775.89	  452.90
     16.2700	  560.00	  570.38	-1762.63	  452.62
     16.3700	  580.00	  570.09	-1742.34	  452.33
     16.4700	  597.00	  569.80	-1725.05	  452.05
     16.5700	  536.00	  569.51	-1785.76	  451.76
     16.6700	  542.00	  569.21	-1779.46	  451.47
     16.7700	  538.00	  568.92	-1783.17	  451.18
     16.8700	  594.00	  568.62	-1726.87	  450.88
     16.9700	  554.00	  568.32	-1766.57	  450.59
     17.0700	  574.00	  568.02	-1746.27	  450.29
     17.1700	  542.00	  567.72	-1777.97	  449.99
     17.2700	  569.00	  567.42	-1750.67	  449.69
     17.3700	  548.00	  567.11	-1771.36	  449.39
     17.4700	  533.00	  566.81	-1786.06	  449.09
     17.5700	  521.00	  566.50	-1797.75	  448.78
     17.6700	  582.00	  566.19	-1736.44	  448.47
     17.7700	  555.00	  565.89	-1763.14	  448.17
     17.8700	  628.00	  565.57	-1689.82	  447.86
     17.9700	  580.00	  565.37	-1737.62	  447.55
     18.0700	  583.00	  565.05	-1734.30	  447.23
     18.1700	  562.00	  564.74	-1754.99	  446.92
     18.2700	  572.00	  564.43	-1744.68	  446.60
     18.3700	  593.00	  564.11	-1723.36	  446.29
     18.4700	  566.00	  563.80	-1750.05	  445.97
     18.5700	  574.00	  563.48	-1741.73	  445.65
     18.6700	  529.00	  563.17	-1786.42	  445.33
     18.7700	  567.00	  562.85	-1748.10	  445.01
     18.8700	  542.00	  562.61	-1772.86	  444.69
     18.9700	  564.00	  562.29	-1750.54	  444.37
     19.0700	  580.00	  561.98	-1734.23	  444.04
     19.1700	  586.00	  561.66	-1727.91	  443.72
     19.2700	  582.00	  561.34	-1731.58	  443.39
     19.3700	  529.00	  561.01	-1784.26	  443.06
     19.4700	  525.00	  560.69	-1787.94	  442.73
     19.5700	  562.00	  560.37	-1750.62	  442.40
     19.6700	  538.00	  560.05	-1774.30	  442.07
     19.7700	  545.00	  559.72	-1766.97	  441.74
     19.8700	  573.00	  559.40	-1738.65	  441.41
     19.9700	  517.00	  559.08	-1794.33	  441.08
     20.0700	  536.00	  558.75	-1775.00	  440.75
     20.1700	  576.00	  558.43	-1734.68	  440.41
     20.2700	  581.00	  558.10	-1729.35	  440.08
     20.3700	  571.00	  557.78	-1739.03	  439.74
     20.4700	  568.00	  557.45	-1741.70	  439.40
     20.5700	  552.00	  557.10	-1757.35	  439.07
     20.6700	  543.00	  556.77	-1766.02	  438.73
     20.7700	  522.00	  556.45	-1786.70	  438.39
     20.8700	  542.00	  556.16	-1766.41	  438.05
     20.9700	  590.00	  555.84	-1718.08	  437.71
     21.0700	  531.00	  555.51	-1776.76	  437.37
     21.1700	  562.00	  555.19	-1745.44	  437.03
     21.2700	  599.00	  554.87	-1708.12	  436.69
     21.3700	  553.00	  554.55	-1753.80	  436.35
     21.4700	  549.00	  554.23	-1757.48	  436.01
     21.5700	  556.00	  553.91	-1750.16	  435.67
     21.6700	  553.00	  553.59	-1752.84	  435.32
     21.7700	  551.00	  553.28	-1754.53	  434.98
     21.8700	  587.00	  552.96	-1718.21	  434.64
     21.9700	  524.00	  552.65	-1780.90	  434.29
     22.0700	  506.00	  552.34	-1798.59	  433.95
     22.1700	  505.00	  552.04	-1799.29	  433.61
     22.2700	  520.00	  551.73	-1783.98	  433.26
     22.3700	  556.00	  551.43	-1747.68	  432.92
     22.4700	  554.00	  551.14	-1749.39	  432.57
     22.5700	  516.00	  550.85	-1787.10	  432.23
     22.6700	  542.00	  550.56	-1760.81	  431.88
     22.7700	  556.00	  550.28	-1746.53	  431.54
     22.8700	  574.00	  550.01	-1728.26	  431.19
     22.9700	  536.00	  549.76	-1766.01	  430.85
     23.0700	  576.00	  549.51	-1725.76	  430.50
     23.1700	  514.00	  549.28	-1787.53	  430.16
     23.2700	  560.00	  549.07	-1741.32	  429.81
     23.3700	  543.00	  548.89	-1758.14	  429.47
     23.4700	  547.00	  548.74	-1753.99	  429.12
     23.5700	  539.00	  548.64	-1761.89	  428.78
     23.6700	  559.00	  548.61	-1741.86	  428.43
     23.7700	  571.00	  548.82	-1730.07	  428.09
     23.8700	  537.00	  549.12	-1764.37	  427.74
     23.9700	  524.00	  549.86	-1778.11	  427.40
     24.0700	  569.00	  551.50	-1734.75	  427.06
     24.1700	  573.00	  554.70	-1733.95	  426.71
     24.2700	  565.00	  560.35	-1747.60	  426.37
     24.3700	  587.00	  569.42	-1734.67	  426.02
     24.4700	  572.00	  582.98	-1763.23	  425.68
     24.5700	  586.00	  601.30	-1767.55	  425.34
     24.6700	  592.00	  621.41	-1781.66	  425.00
     24.7700	  636.00	  635.07	-1751.32	  424.65
     24.8700	  634.00	  631.39	-1749.64	  424.31
     24.9700	  640.00	  609.46	-1721.71	  423.97
     25.0700	  584.00	  583.40	-1751.65	  423.63
     25.1700	  624.00	  564.18	-1692.43	  423.29
     25.2700	  577.00	  553.49	-1728.74	  422.95
     25.3700	  582.00	  548.54	-1718.79	  422.61
     25.4700	  590.00	  546.30	-1708.55	  422.27
     25.5700	  600.00	  545.10	-1697.35	  421.93
     25.6700	  588.00	  544.31	-1708.56	  421.59
     25.7700	  541.00	  543.73	-1754.98	  421.25
     25.8700	  525.00	  543.29	-1770.54	  420.91
     25.9700	  551.00	  542.95	-1744.20	  420.58
     26.0700	  609.00	  542.70	-1685.95	  420.24
     26.1700	  535.00	  542.53	-1759.78	  419.90
     26.2700	  571.00	  542.43	-1723.68	  419.57
     26.3700	  536.00	  542.41	-1758.66	  419.23
     26.4700	  569.00	  542.47	-1725.72	  418.90
     26.5700	  566.00	  542.63	-1728.88	  418.57
     26.6700	  552.00	  542.90	-1743.15	  418.23
     26.7700	  544.00	  543.32	-1751.57	  417.90
     26.8700	  561.00	  543.90	-1735.15	  417.57
     26.9700	  531.00	  544.71	-1765.96	  417.24
     27.0700	  568.00	  545.82	-1730.07	  416.91
     27.1700	  551.00	  547.37	-1748.62	  416.58
     27.2700	  564.00	  549.61	-1737.86	  416.25
     27.3700	  604.00	  553.05	-1701.30	  415.93
     27.4700	  567.00	  558.66	-1743.91	  415.60
     27.5700	  583.00	  568.19	-1737.44	  415.27
     27.6700	  561.00	  584.41	-1775.66	  414.95
     27.7700	  582.00	  610.86	-1781.11	  414.62
     27.8700	  599.00	  650.59	-1803.84	  414.30
     27.9700	  691.00	  703.69	-1764.94	  413.98
     28.0700	  767.00	  764.02	-1749.27	  413.66
     28.1700	  881.00	  816.49	-1687.74	  413.34
     28.2700	  959.00	  838.51	-1631.76	  413.02
     28.3700	  881.00	  816.92	-1688.17	  412.70
     28.4700	  827.00	  773.17	-1698.42	  412.38
     28.5700	  736.00	  742.45	-1758.70	  412.06
     28.6700	  707.00	  740.80	-1786.05	  411.75
     28.7700	  753.00	  763.56	-1762.81	  411.43
     28.8700	  809.00	  791.00	-1734.25	  411.12
     28.9700	  814.00	  795.36	-1733.61	  410.81
     29.0700	  794.00	  759.05	-1717.30	  410.49
     29.1700	  660.00	  697.40	-1789.65	  410.18
     29.2700	  628.00	  638.63	-1762.88	  409.87
     29.3700	  595.00	  596.21	-1753.46	  409.56
     29.4700	  597.00	  570.54	-1725.79	  409.26
     29.5700	  585.00	  556.64	-1723.89	  408.95
     29.6700	  622.00	  549.28	-1679.53	  408.65
     29.7700	  564.00	  545.10	-1733.35	  408.34
     29.8700	  586.00	  542.47	-1708.72	  408.04
     29.9700	  549.00	  540.79	-1744.04	  407.74
     30.0700	  567.00	  539.88	-1725.13	  407.44
     30.1700	  582.00	  539.90	-1710.15	  407.14
     30.2700	  558.00	  541.33	-1735.58	  406.84
     30.3700	  541.00	  545.17	-1756.43	  406.54
     30.4700	  527.00	  552.91	-1778.16	  406.25
     30.5700	  575.00	  566.12	-1743.37	  405.95
     30.6700	  647.00	  585.25	-1690.50	  405.66
     30.7700	  605.00	  607.90	-1755.15	  405.37
     30.8700	  618.00	  627.62	-1761.87	  405.07
     30.9700	  594.00	  634.54	-1792.79	  404.78
     31.0700	  582.00	  621.97	-1792.22	  404.50
     31.1700	  579.00	  596.45	-1769.70	  404.21
     31.2700	  555.00	  570.86	-1768.11	  403.92
     31.3700	  563.00	  551.97	-1741.22	  403.64
     31.4700	  534.00	  540.50	-1758.75	  403.36
     31.5700	  566.00	  534.36	-1720.61	  403.07
     31.6700	  563.00	  531.20	-1720.45	  402.79
     31.7700	  490.00	  529.45	-1791.70	  402.52
     31.8700	  495.00	  528.34	-1785.59	  402.24
     31.9700	  523.00	  527.57	-1756.82	  401.96
     32.0700	  528.00	  527.02	-1751.27	  401.69
     32.1700	  555.00	  526.65	-1723.90	  401.41
     32.2700	  525.00	  526.44	-1753.69	  401.14
     32.3700	  572.00	  526.37	-1706.62	  400.87
     32.4700	  563.00	  526.45	-1715.70	  400.60
     32.5700	  561.00	  526.69	-1717.94	  400.33
     32.6700	  509.00	  527.14	-1770.39	  400.07
     32.7700	  566.00	  527.82	-1714.07	  399.80
     32.8700	  495.00	  528.82	-1786.07	  399.54
     32.9700	  509.00	  530.23	-1773.48	  399.28
     33.0700	  576.00	  532.29	-1708.54	  399.02
     33.1700	  562.00	  535.44	-1725.69	  398.76
     33.2700	  548.00	  540.75	-1745.00	  398.50
     33.3700	  568.00	  550.50	-1734.75	  398.24
     33.4700	  579.00	  569.10	-1742.35	  397.99
     33.5700	  574.00	  603.60	-1781.85	  397.74
     33.6700	  650.00	  662.06	-1764.31	  397.48
     33.7700	  770.00	  748.19	-1730.44	  397.23
     33.8700	  878.00	  852.63	-1726.88	  396.99
     33.9700	 1021.00	  947.28	-1678.53	  396.74
     34.0700	 1086.00	  989.02	-1655.27	  396.49
     34.1700	  995.00	  946.17	-1703.42	  396.25
     34.2700	  855.00	  840.96	-1738.21	  396.01
     34.3700	  703.00	  727.85	-1777.10	  395.77
     34.4700	  617.00	  640.40	-1775.65	  395.53
     34.5700	  583.00	  585.53	-1754.78	  395.29
     34.6700	  567.00	  555.90	-1741.15	  395.06
     34.7700	  546.00	  541.06	-1747.31	  394.82
     34.8700	  561.00	  533.34	-1724.59	  394.59
     34.9700	  568.00	  528.73	-1712.98	  394.36
     35.0700	  533.00	  525.56	-1744.81	  394.13
     35.1700	  518.00	  523.16	-1757.41	  393.90
     35.2700	  535.00	  521.28	-1738.53	  393.67
     35.3700	  531.00	  519.74	-1740.99	  393.45
     35.4700	  514.00	  518.47	-1756.72	  393.23
     35.5700	  537.00	  517.39	-1732.64	  393.01
     35.6700	  509.00	  516.46	-1759.71	  392.79
     35.7700	  508.00	  515.66	-1759.91	  392.57
     35.8700	  544.00	  514.95	-1723.20	  392.35
     35.9700	  511.00	  514.81	-1756.06	  392.14
     36.0700	  502.00	  514.25	-1764.50	  391.93
     36.1700	  519.00	  513.75	-1747.00	  391.71
     36.2700	  512.00	  513.30	-1753.55	  391.50
     36.3700	  498.00	  512.89	-1767.14	  391.30
     36.4700	  485.00	  512.52	-1779.77	  391.09
     36.5700	  501.00	  512.19	-1763.44	  390.89
     36.6700	  517.00	  511.90	-1747.15	  390.68
     36.7700	  520.00	  511.65	-1743.90	  390.48
     36.8700	  533.00	  511.48	-1730.73	  390.28
     36.9700	  507.00	  511.43	-1756.68	  390.09
     37.0700	  534.00	  511.63	-1729.88	  389.89
     37.1700	  486.00	  512.33	-1778.58	  389.70
     37.2700	  495.00	  513.91	-1771.16	  389.50
     37.3700	  512.00	  516.70	-1756.95	  389.31
     37.4700	  560.00	  520.72	-1712.97	  389.12
     37.5700	  539.00	  525.22	-1738.47	  388.94
     37.6700	  495.00	  528.68	-1785.93	  388.75
     37.7700	  512.00	  529.40	-1769.65	  388.57
     37.8700	  494.00	  527.06	-1785.31	  388.39
     37.9700	  532.00	  523.18	-1743.43	  388.20
     38.0700	  496.00	  519.17	-1775.42	  388.03
     38.1700	  462.00	  515.57	-1805.82	  387.85
     38.2700	  529.00	  512.64	-1735.89	  387.67
     38.3700	  482.00	  510.50	-1780.75	  387.50
     38.4700	  501.00	  509.04	-1760.29	  387.33
     38.5700	  529.00	  508.10	-1731.35	  387.16
     38.6700	  497.00	  507.50	-1762.75	  386.99
     38.7700	  499.00	  507.00	-1760.25	  386.83
     38.8700	  479.00	  506.70	-1779.95	  386.66
     38.9700	  510.00	  506.45	-1748.70	  386.50
     39.0700	  501.00	  506.23	-1757.48	  386.34
     39.1700	  494.00	  506.03	-1764.28	  386.18
     39.2700	  483.00	  505.77	-1775.02	  386.02
     39.3700	  503.00	  505.60	-1754.85	  385.87
     39.4700	  508.00	  505.44	-1749.69	  385.71
     39.5700	  515.00	  505.42	-1742.67	  385.56
     39.6700	  498.00	  505.29	-1759.54	  385.41
     39.7700	  547.00	  505.16	-1710.41	  385.26
     39.8700	  500.00	  505.04	-1757.29	  385.12
     39.9700	  503.00	  504.93	-1754.18	  384.97
     40.0700	  499.00	  504.83	-1758.08	  384.83
     40.1700	  511.00	  504.74	-1745.99	  384.69
     40.2700	  541.00	  504.67	-1715.92	  384.55
     40.3700	  454.00	  504.60	-1802.85	  384.41
     40.4700	  511.00	  504.55	-1745.80	  384.27
     40.5700	  536.00	  504.51	-1720.76	  384.14
     40.6700	  502.00	  504.48	-1754.73	  384.01
     40.7700	  533.00	  504.48	-1723.73	  383.88
     40.8700	  512.00	  504.50	-1744.75	  383.75
     40.9700	  482.00	  504.54	-1774.79	  383.62
     41.0700	  499.00	  504.61	-1757.86	  383.49
     41.1700	  503.00	  504.73	-1753.98	  383.37
     41.2700	  506.00	  504.86	-1751.11	  383.25
     41.3700	  522.00	  505.09	-1735.34	  383.13
     41.4700	  503.00	  505.39	-1754.64	  383.01
     41.5700	  516.00	  506.24	-1742.49	  382.90
     41.6700	  511.00	  506.83	-1748.08	  382.78
     41.7700	  502.00	  507.72	-1757.97	  382.67
     41.8700	  527.00	  509.22	-1734.47	  382.56
     41.9700	  512.00	  512.00	-1752.25	  382.45
     42.0700	  505.00	  517.39	-1764.64	  382.34
     42.1700	  525.00	  527.55	-1754.80	  382.24
     42.2700	  509.00	  545.01	-1788.26	  382.13
     42.3700	  573.00	  571.10	-1750.35	  382.03
     42.4700	  592.00	  603.91	-1764.16	  381.93
     42.5700	  592.00	  636.27	-1796.52	  381.83
     42.6700	  635.00	  656.41	-1773.66	  381.73
     42.7700	  576.00	  653.81	-1830.06	  381.64
     42.8700	  597.00	  629.01	-1784.26	  381.55
     42.9700	  539.00	  594.47	-1807.72	  381.46
     43.0700	  531.00	  562.22	-1783.47	  381.37
     43.1700	  547.00	  538.17	-1743.42	  381.28
     43.2700	  490.00	  522.99	-1785.24	  381.19
     43.3700	  508.00	  514.59	-1758.84	  381.11
     43.4700	  511.00	  510.29	-1751.54	  381.02
     43.5700	  485.00	  508.07	-1775.32	  380.94
     43.6700	  455.00	  506.82	-1804.07	  380.87
     43.7700	  530.00	  506.19	-1728.44	  380.79
     43.8700	  470.00	  505.61	-1787.86	  380.71
     43.9700	  519.00	  505.18	-1738.43	  380.64
     44.0700	  532.00	  504.88	-1725.13	  380.57
     44.1700	  501.00	  504.63	-1755.88	  380.50
     44.2700	  487.00	  504.43	-1769.68	  380.43
     44.3700	  505.00	  504.29	-1751.54	  380.36
     44.4700	  509.00	  504.18	-1747.43	  380.30
     44.5700	  467.00	  503.99	-1789.24	  380.23
     44.6700	  515.00	  503.95	-1741.20	  380.17
     44.7700	  494.00	  503.95	-1762.20	  380.11
     44.8700	  506.00	  503.97	-1750.22	  380.05
     44.9700	  500.00	  504.01	-1756.26	  380.00
     45.0700	  490.00	  504.07	-1766.32	  379.94
     45.1700	  498.00	  504.16	-1758.41	  379.89
     45.2700	  557.00	  504.45	-1699.70	  379.84
     45.3700	  499.00	  504.58	-1757.83	  379.79
     45.4700	  508.00	  504.73	-1748.98	  379.74
     45.5700	  523.00	  504.91	-1734.16	  379.69
     45.6700	  532.00	  505.11	-1725.36	  379.65
     45.7700	  511.00	  505.34	-1746.59	  379.61
     45.8700	  585.00	  505.60	-1672.85	  379.56
     45.9700	  467.00	  505.89	-1791.14	  379.52
     46.0700	  505.00	  506.21	-1753.46	  379.49
     46.1700	  519.00	  506.58	-1739.83	  379.45
     46.2700	  481.00	  506.98	-1778.23	  379.42
     46.3700	  482.00	  507.44	-1777.69	  379.38
     46.4700	  486.00	  507.96	-1774.21	  379.35
     46.5700	  529.00	  508.55	-1731.80	  379.32
     46.6700	  467.00	  509.23	-1794.48	  379.29
     46.7700	  504.00	  510.02	-1758.27	  379.27
     46.8700	  511.00	  510.99	-1752.24	  379.24
     46.9700	  509.00	  512.26	-1755.51	  379.22
     47.0700	  524.00	  514.10	-1742.35	  379.20
     47.1700	  515.00	  517.11	-1754.36	  379.18
     47.2700	  507.00	  522.23	-1767.48	  379.16
     47.3700	  553.00	  530.66	-1729.91	  379.14
     47.4700	  564.00	  543.63	-1731.88	  379.13
     47.5700	  582.00	  561.32	-1731.57	  379.12
     47.6700	  586.00	  581.93	-1748.18	  379.10
     47.7700	  606.00	  601.07	-1747.32	  379.09
     47.8700	  590.00	  612.47	-1774.72	  379.09
     47.9700	  581.00	  611.36	-1782.61	  379.08
     48.0700	  632.00	  598.94	-1719.19	  379.07
     48.1700	  563.00	  581.53	-1770.78	  379.07
     48.2700	  564.00	  565.09	-1753.34	  379.07
     48.3700	  534.00	  553.06	-1771.31	  379.07
     48.4700	  525.00	  546.30	-1773.55	  379.07
     48.5700	  544.00	  544.15	-1752.40	  379.07
     48.6700	  518.00	  545.43	-1779.68	  379.07
     48.7700	  511.00	  549.13	-1790.38	  379.08
     48.8700	  530.00	  554.78	-1777.03	  379.09
     48.9700	  523.00	  562.44	-1791.69	  379.10
     49.0700	  553.00	  572.79	-1772.04	  379.11
     49.1700	  593.00	  587.55	-1746.80	  379.12
     49.2700	  607.00	  610.26	-1755.51	  379.13
     49.3700	  679.00	  647.67	-1720.92	  379.14
     49.4700	  675.00	  711.09	-1788.34	  379.16
     49.5700	  778.00	  816.95	-1791.20	  379.18
     49.6700	  921.00	  982.96	-1814.21	  379.20
     49.7700	 1162.00	 1222.90	-1813.15	  379.22
     49.8700	 1445.00	 1534.85	-1842.10	  379.24
     49.9700	 1945.00	 1889.57	-1696.82	  379.26
     50.0700	 2283.00	 2221.31	-1690.56	  379.29
     50.1700	 2469.00	 2432.70	-1715.95	  379.31
     50.2700	 2576.00	 2436.90	-1613.15	  379.34
     50.3700	 2322.00	 2229.85	-1660.10	  379.37
     50.4700	 1911.00	 1898.11	-1739.36	  379.40
     50.5700	 1474.00	 1544.19	-1822.44	  379.43
     50.6700	 1066.00	 1235.75	-1922.00	  379.47
     50.7700	  800.00	 1002.48	-1954.73	  379.50
     50.8700	  712.00	  845.80	-1886.05	  379.54
     50.9700	  702.00	  750.44	-1800.69	  379.58
     51.0700	  648.00	  695.26	-1799.51	  379.61
     51.1700	  641.00	  661.09	-1772.34	  379.65
     51.2700	  592.00	  635.44	-1795.69	  379.70
     51.3700	  558.00	  613.26	-1807.51	  379.74
     51.4700	  615.00	  593.99	-1731.24	  379.78
     51.5700	  587.00	  578.24	-1743.49	  379.83
     51.6700	  561.00	  566.31	-1757.56	  379.88
     51.7700	  512.00	  557.89	-1798.14	  379.93
     51.8700	  553.00	  552.25	-1751.50	  379.98
     51.9700	  623.00	  548.57	-1677.82	  380.03
     52.0700	  576.00	  546.24	-1722.49	  380.08
     52.1700	  558.00	  544.92	-1739.17	  380.13
     52.2700	  519.00	  544.74	-1777.99	  380.19
     52.3700	  540.00	  545.38	-1757.63	  380.24
     52.4700	  580.00	  547.49	-1719.74	  380.30
     52.5700	  551.00	  552.14	-1753.39	  380.36
     52.6700	  599.00	  561.60	-1714.85	  380.42
     52.7700	  621.00	  580.01	-1711.26	  380.48
     52.8700	  628.00	  613.82	-1738.07	  380.54
     52.9700	  732.00	  670.97	-1691.22	  380.61
     53.0700	  858.00	  758.07	-1652.32	  380.67
     53.1700	  968.00	  875.75	-1660.00	  380.74
     53.2700	 1071.00	 1013.37	-1694.62	  380.81
     53.3700	 1179.00	 1146.05	-1719.30	  380.87
     53.4700	 1229.00	 1236.87	-1760.12	  380.94
     53.5700	 1183.00	 1251.18	-1820.43	  381.02
     53.6700	 1100.00	 1182.12	-1834.37	  381.09
     53.7700	  965.00	 1057.94	-1845.19	  381.16
     53.8700	  918.00	  918.09	-1752.34	  381.24
     53.9700	  773.00	  792.24	-1771.49	  381.31
     54.0700	  644.00	  695.34	-1803.59	  381.39
     54.1700	  600.00	  629.73	-1781.98	  381.47
     54.2700	  580.00	  589.99	-1762.24	  381.54
     54.3700	  607.00	  568.06	-1713.31	  381.62
     54.4700	  597.00	  556.74	-1711.99	  381.71
     54.5700	  567.00	  551.20	-1736.45	  381.79
     54.6700	  570.00	  548.64	-1730.89	  381.87
     54.7700	  584.00	  547.68	-1715.93	  381.96
     54.8700	  586.00	  547.75	-1714.00	  382.04
     54.9700	  586.00	  548.61	-1714.86	  382.13
     55.0700	  599.00	  550.19	-1703.44	  382.22
     55.1700	  570.00	  552.51	-1734.76	  382.30
     55.2700	  535.00	  555.64	-1772.89	  382.39
     55.3700	  566.00	  559.66	-1745.91	  382.49
     55.4700	  564.00	  564.80	-1753.05	  382.58
     55.5700	  558.00	  571.47	-1765.72	  382.67
     55.6700	  546.00	  580.43	-1786.68	  382.76
     55.7700	  608.00	  593.31	-1737.56	  382.86
     55.8700	  617.00	  613.40	-1748.65	  382.95
     55.9700	  616.00	  646.84	-1783.09	  383.05
     56.0700	  693.00	  703.93	-1763.18	  383.15
     56.1700	  711.00	  799.69	-1840.94	  383.25
     56.2700	  866.00	  952.04	-1838.29	  383.35
     56.3700	 1105.00	 1176.66	-1823.91	  383.45
     56.4700	 1346.00	 1478.32	-1884.57	  383.55
     56.5700	 1755.00	 1840.97	-1838.22	  383.65
     56.6700	 2136.00	 2220.11	-1836.36	  383.75
     56.7700	 2488.00	 2540.32	-1804.57	  383.86
     56.8700	 2583.00	 2709.60	-1878.85	  383.96
     56.9700	 2627.00	 2665.18	-1790.43	  384.07
     57.0700	 2323.00	 2424.30	-1853.55	  384.18
     57.1700	 2095.00	 2069.93	-1727.18	  384.28
     57.2700	 1747.00	 1692.10	-1697.35	  384.39
     57.3700	 1303.00	 1353.99	-1803.24	  384.50
     57.4700	 1074.00	 1087.57	-1765.82	  384.61
     57.5700	  856.00	  899.21	-1795.46	  384.72
     57.6700	  807.00	  778.72	-1723.97	  384.83
     57.7700	  669.00	  709.35	-1792.60	  384.95
     57.8700	  657.00	  675.25	-1770.50	  385.06
     57.9700	  694.00	  665.28	-1723.53	  385.17
     58.0700	  654.00	  673.55	-1771.80	  385.29
     58.1700	  685.00	  698.11	-1765.36	  385.40
     58.2700	  751.00	  739.04	-1740.29	  385.52
     58.3700	  873.00	  796.57	-1675.82	  385.64
     58.4700	  956.00	  869.39	-1665.64	  385.75
     58.5700	 1088.00	  953.08	-1617.33	  385.87
     58.6700	 1181.00	 1039.55	-1610.80	  385.99
     58.7700	 1297.00	 1119.30	-1574.55	  386.11
     58.8700	 1531.00	 1185.79	-1407.04	  386.23
     58.9700	 1550.00	 1235.45	-1437.70	  386.35
     59.0700	 1557.00	 1263.51	-1458.76	  386.48
     59.1700	 1570.00	 1265.45	-1447.70	  386.60
     59.2700	 1432.00	 1244.60	-1564.85	  386.72
     59.3700	 1342.00	 1212.70	-1622.95	  386.84
     59.4700	 1247.00	 1181.91	-1687.16	  386.97
     59.5700	 1172.00	 1160.40	-1740.65	  387.09
     59.6700	 1096.00	 1155.44	-1811.69	  387.22
     59.7700	 1160.00	 1175.85	-1768.10	  387.35
     59.8700	 1206.00	 1227.73	-1773.98	  387.47
     59.9700	 1355.00	 1307.75	-1705.00	  387.60
     60.0700	 1457.00	 1400.09	-1695.34	  387.73
     60.1700	 1596.00	 1476.96	-1633.21	  387.86
     60.2700	 1658.00	 1505.43	-1599.68	  387.99
     60.3700	 1508.00	 1464.58	-1708.83	  388.11
     60.4700	 1376.00	 1360.40	-1736.65	  388.24
     60.5700	 1221.00	 1219.45	-1750.70	  388.38
     60.6700	 1157.00	 1070.60	-1665.85	  388.51
     60.7700	  934.00	  935.12	-1753.37	  388.64
     60.8700	  799.00	  825.10	-1778.35	  388.77
     60.9700	  708.00	  744.77	-1789.02	  388.90
     61.0700	  657.00	  693.11	-1788.36	  389.04
     61.1700	  637.00	  666.88	-1782.13	  389.17
     61.2700	  647.00	  663.41	-1768.66	  389.30
     61.3700	  640.00	  682.29	-1794.54	  389.44
     61.4700	  761.00	  725.57	-1716.82	  389.57
     61.5700	  718.00	  796.52	-1830.77	  389.71
     61.6700	  863.00	  897.17	-1786.42	  389.84
     61.7700	  975.00	 1025.28	-1802.53	  389.98
     61.8700	 1069.00	 1171.61	-1854.86	  390.11
     61.9700	 1241.00	 1318.11	-1829.36	  390.25
     62.0700	 1342.00	 1437.91	-1848.16	  390.39
     62.1700	 1422.00	 1500.43	-1830.68	  390.52
     62.2700	 1366.00	 1485.32	-1871.57	  390.66
     62.3700	 1348.00	 1397.11	-1801.36	  390.80
     62.4700	 1191.00	 1261.67	-1822.92	  390.94
     62.5700	 1054.00	 1109.53	-1807.78	  391.08
     62.6700	  937.00	  964.56	-1779.81	  391.22
     62.7700	  780.00	  841.38	-1813.63	  391.35
     62.8700	  726.00	  746.04	-1772.29	  391.49
     62.9700	  650.00	  678.03	-1780.28	  391.63
     63.0700	  571.00	  632.89	-1814.14	  391.77
     63.1700	  574.00	  604.75	-1783.00	  391.91
     63.2700	  554.00	  588.20	-1786.45	  392.05
     63.3700	  597.00	  579.19	-1734.44	  392.19
     63.4700	  524.00	  575.32	-1803.57	  392.33
     63.5700	  605.00	  575.69	-1722.94	  392.47
     63.6700	  590.00	  580.66	-1742.91	  392.62
     63.7700	  599.00	  591.62	-1744.87	  392.76
     63.8700	  637.00	  610.62	-1725.87	  392.90
     63.9700	  689.00	  639.89	-1703.14	  393.04
     64.0700	  688.00	  680.97	-1745.22	  393.18
     64.1700	  781.00	  733.76	-1705.01	  393.32
     64.2700	  839.00	  795.55	-1708.80	  393.46
     64.3700	  907.00	  860.34	-1705.59	  393.61
     64.4700	  907.00	  918.87	-1764.12	  393.75
     64.5700	  987.00	  960.10	-1725.35	  393.89
     64.6700	 1081.00	  974.72	-1645.97	  394.03
     64.7700	 1056.00	  961.55	-1657.80	  394.18
     64.8700	 1010.00	  924.78	-1667.03	  394.32
     64.9700	  942.00	  873.19	-1683.44	  394.46
     65.0700	  841.00	  816.48	-1727.73	  394.60
     65.1700	  769.00	  762.53	-1745.78	  394.74
     65.2700	  756.00	  715.86	-1712.11	  394.89
     65.3700	  667.00	  677.70	-1762.95	  395.03
     65.4700	  630.00	  647.29	-1769.54	  395.17
     65.5700	  602.00	  623.35	-1773.60	  395.31
     65.6700	  635.00	  604.76	-1722.01	  395.46
     65.7700	  565.00	  590.64	-1777.89	  395.60
     65.8700	  547.00	  580.30	-1785.55	  395.74
     65.9700	  553.00	  573.17	-1772.42	  395.88
     66.0700	  559.00	  568.74	-1761.99	  396.02
     66.1700	  552.00	  566.56	-1766.81	  396.17
     66.2700	  560.00	  566.20	-1758.45	  396.31
     66.3700	  567.00	  567.37	-1752.62	  396.45
     66.4700	  547.00	  569.86	-1775.11	  396.59
     66.5700	  573.00	  573.74	-1752.99	  396.73
     66.6700	  546.00	  579.49	-1785.74	  396.87
     66.7700	  561.00	  587.77	-1779.02	  397.01
     66.8700	  551.00	  600.44	-1801.69	  397.16
     66.9700	  619.00	  620.49	-1753.74	  397.30
     67.0700	  619.00	  652.73	-1785.98	  397.44
     67.1700	  679.00	  704.01	-1777.26	  397.58
     67.2700	  741.00	  783.08	-1794.33	  397.72
     67.3700	  863.00	  899.40	-1788.65	  397.86
     67.4700	 1070.00	 1060.88	-1743.13	  398.00
     67.5700	 1284.00	 1270.31	-1738.56	  398.14
     67.6700	 1492.00	 1522.07	-1782.32	  398.28
     67.7700	 1782.00	 1799.43	-1769.68	  398.41
     67.8700	 2069.00	 2072.66	-1755.91	  398.55
     67.9700	 2335.00	 2300.12	-1717.37	  398.69
     68.0700	 2499.00	 2435.28	-1688.53	  398.83
     68.1700	 2521.00	 2443.50	-1674.75	  398.97
     68.2700	 2359.00	 2322.50	-1715.75	  399.11
     68.3700	 2123.00	 2103.85	-1733.10	  399.24
     68.4700	 1817.00	 1834.02	-1769.27	  399.38
     68.5700	 1592.00	 1555.73	-1715.98	  399.52
     68.6700	 1265.00	 1300.06	-1787.31	  399.65
     68.7700	 1008.00	 1085.56	-1829.81	  399.79
     68.8700	  884.00	  918.98	-1787.23	  399.92
     68.9700	  795.00	  798.16	-1755.41	  400.06
     69.0700	  712.00	  715.65	-1755.90	  400.19
     69.1700	  639.00	  662.05	-1775.30	  400.33
     69.2700	  680.00	  628.47	-1700.72	  400.46
     69.3700	  625.00	  607.76	-1735.01	  400.59
     69.4700	  579.00	  594.89	-1768.14	  400.73
     69.5700	  613.00	  586.66	-1725.91	  400.86
     69.6700	  617.00	  581.17	-1716.42	  400.99
     69.7700	  585.00	  577.39	-1744.64	  401.12
     69.8700	  608.00	  574.77	-1719.02	  401.25
     69.9700	  516.00	  573.02	-1809.27	  401.38
     70.0700	  556.00	  572.03	-1768.28	  401.51
     70.1700	  571.00	  571.73	-1752.98	  401.64
     70.2700	  592.00	  572.17	-1732.42	  401.77
     70.3700	  611.00	  573.40	-1714.65	  401.90
     70.4700	  612.00	  575.68	-1715.93	  402.03
     70.5700	  595.00	  579.46	-1736.71	  402.16
     70.6700	  612.00	  585.63	-1725.88	  402.28
     70.7700	  588.00	  595.65	-1759.90	  402.41
     70.8700	  554.00	  611.96	-1810.21	  402.54
     70.9700	  604.00	  638.08	-1786.33	  402.66
     71.0700	  721.00	  678.86	-1710.11	  402.78
     71.1700	  760.00	  740.03	-1732.28	  402.91
     71.2700	  777.00	  827.43	-1802.68	  403.03
     71.3700	  991.00	  945.57	-1706.82	  403.15
     71.4700	 1120.00	 1096.40	-1728.65	  403.28
     71.5700	 1226.00	 1274.17	-1800.42	  403.40
     71.6700	 1355.00	 1468.81	-1866.06	  403.52
     71.7700	 1605.00	 1661.97	-1809.22	  403.64
     71.8700	 1802.00	 1828.61	-1778.86	  403.76
     71.9700	 1885.00	 1939.98	-1807.23	  403.88
     72.0700	 1911.00	 1972.16	-1813.41	  403.99
     72.1700	 1925.00	 1917.43	-1744.68	  404.11
     72.2700	 1764.00	 1789.10	-1777.35	  404.23
     72.3700	 1607.00	 1613.12	-1758.37	  404.34
     72.4700	 1517.00	 1418.63	-1653.88	  404.46
     72.5700	 1345.00	 1228.38	-1635.63	  404.57
     72.6700	 1151.00	 1058.41	-1659.66	  404.69
     72.7700	 1046.00	  917.40	-1623.65	  404.80
     72.8700	  968.00	  807.62	-1591.87	  404.91
     72.9700	  879.00	  726.81	-1600.06	  405.02
     73.0700	  782.00	  670.05	-1640.30	  405.13
     73.1700	  749.00	  631.65	-1634.90	  405.24
     73.2700	  671.00	  606.30	-1687.55	  405.35
     73.3700	  698.00	  589.70	-1643.95	  405.46
     73.4700	  602.00	  578.74	-1728.99	  405.57
     73.5700	  602.00	  571.39	-1721.64	  405.67
     73.6700	  591.00	  566.39	-1727.64	  405.78
     73.7700	  638.00	  562.99	-1677.24	  405.88
     73.8700	  557.00	  560.79	-1756.04	  405.99
     73.9700	  625.00	  559.52	-1686.77	  406.09
     74.0700	  601.00	  559.02	-1710.27	  406.19
     74.1700	  624.00	  559.10	-1687.35	  406.29
     74.2700	  604.00	  559.58	-1707.83	  406.39
     74.3700	  567.00	  560.22	-1745.47	  406.49
     74.4700	  602.00	  560.74	-1710.99	  406.59
     74.5700	  624.00	  560.88	-1689.13	  406.69
     74.6700	  643.00	  560.40	-1669.65	  406.78
     74.7700	  622.00	  559.27	-1689.52	  406.88
     74.8700	  623.00	  557.62	-1686.87	  406.98
     74.9700	  612.00	  555.73	-1695.98	  407.07
     75.0700	  586.00	  553.92	-1720.17	  407.16
     75.1700	  588.00	  552.48	-1716.73	  407.25
     75.2700	  552.00	  551.84	-1752.09	  407.34
     75.3700	  528.00	  552.27	-1776.52	  407.43
     75.4700	  554.00	  554.33	-1752.58	  407.52
     75.5700	  553.00	  558.43	-1757.68	  407.61
     75.6700	  566.00	  565.00	-1751.25	  407.70
     75.7700	  565.00	  574.72	-1761.97	  407.78
     75.8700	  564.00	  587.78	-1776.03	  407.87
     75.9700	  640.00	  604.17	-1716.42	  407.95
     76.0700	  629.00	  623.39	-1746.64	  408.03
     76.1700	  709.00	  644.35	-1687.60	  408.11
     76.2700	  676.00	  665.30	-1741.55	  408.19
     76.3700	  672.00	  683.95	-1764.20	  408.27
     76.4700	  675.00	  697.61	-1774.86	  408.35
     76.5700	  705.00	  703.85	-1751.10	  408.43
     76.6700	  687.00	  701.37	-1766.62	  408.51
     76.7700	  684.00	  690.66	-1758.91	  408.58
     76.8700	  674.00	  673.76	-1752.01	  408.65
     76.9700	  622.00	  653.13	-1783.38	  408.73
     77.0700	  621.00	  631.65	-1762.90	  408.80
     77.1700	  603.00	  611.15	-1760.40	  408.87
     77.2700	  561.00	  593.00	-1784.25	  408.94
     77.3700	  569.00	  577.93	-1761.18	  409.01
     77.4700	  554.00	  566.12	-1764.37	  409.07
     77.5700	  537.00	  557.33	-1772.58	  409.14
     77.6700	  590.00	  551.11	-1713.36	  409.20
     77.7700	  561.00	  546.87	-1738.12	  409.27
     77.8700	  574.00	  544.09	-1722.34	  409.33
     77.9700	  517.00	  542.31	-1777.56	  409.39
     78.0700	  528.00	  541.19	-1765.44	  409.45
     78.1700	  507.00	  540.48	-1785.73	  409.51
     78.2700	  483.00	  540.04	-1809.29	  409.57
     78.3700	  528.00	  539.78	-1764.03	  409.62
     78.4700	  495.00	  539.64	-1796.89	  409.68
     78.5700	  506.00	  539.59	-1785.84	  409.73
     78.6700	  523.00	  539.65	-1768.90	  409.78
     78.7700	  560.00	  539.81	-1732.06	  409.83
     78.8700	  528.00	  540.10	-1764.35	  409.88
     78.9700	  492.00	  540.55	-1800.80	  409.93
     79.0700	  495.00	  541.20	-1798.45	  409.98
     79.1700	  525.00	  542.10	-1769.35	  410.03
     79.2700	  508.00	  543.32	-1787.57	  410.07
     79.3700	  537.00	  544.74	-1759.99	  410.11
     79.4700	  527.00	  546.77	-1772.02	  410.16
     79.5700	  532.00	  549.31	-1769.56	  410.20
     79.6700	  527.00	  552.43	-1777.68	  410.24
     79.7700	  499.00	  556.23	-1809.48	  410.28
     79.8700	  538.00	  560.85	-1775.10	  410.31
     79.9700	  543.00	  566.44	-1775.69	  410.35
     80.0700	  564.00	  573.24	-1761.49	  410.38
     80.1700	  596.00	  581.53	-1737.78	  410.42
     80.2700	  566.00	  591.65	-1777.90	  410.45
     80.3700	  565.00	  603.88	-1791.13	  410.48
     80.4700	  576.00	  618.35	-1794.60	  410.51
     80.5700	  669.00	  634.92	-1718.17	  410.53
     80.6700	  616.00	  653.11	-1789.36	  410.56
     80.7700	  663.00	  672.05	-1761.30	  410.58
     80.8700	  700.00	  690.53	-1742.78	  410.61
     80.9700	  667.00	  707.14	-1792.39	  410.63
     81.0700	  730.00	  720.54	-1742.79	  410.65
     81.1700	  693.00	  729.72	-1788.97	  410.67
     81.2700	  751.00	  734.00	-1735.25	  410.69
     81.3700	  747.00	  733.12	-1738.37	  410.70
     81.4700	  774.00	  727.23	-1705.48	  410.72
     81.5700	  747.00	  716.89	-1722.14	  410.73
     81.6700	  767.00	  702.92	-1688.17	  410.75
     81.7700	  738.00	  686.26	-1700.51	  410.76
     81.8700	  723.00	  667.98	-1697.23	  410.77
     81.9700	  721.00	  649.19	-1680.44	  410.77
     82.0700	  636.00	  630.93	-1747.18	  410.78
     82.1700	  679.00	  614.13	-1687.38	  410.78
     82.2700	  686.00	  599.27	-1665.52	  410.79
     82.3700	  638.00	  586.63	-1700.88	  410.79
     82.4700	  602.00	  576.29	-1726.54	  410.79
     82.5700	  547.00	  568.17	-1773.42	  410.79
     82.6700	  631.00	  562.14	-1683.39	  410.79
     82.7700	  601.00	  558.06	-1709.31	  410.78
     82.8700	  558.00	  555.72	-1749.97	  410.78
     82.9700	  574.00	  554.96	-1733.21	  410.77
     83.0700	  554.00	  555.67	-1753.92	  410.76
     83.1700	  566.00	  557.71	-1743.96	  410.75
     83.2700	  536.00	  560.98	-1777.23	  410.74
     83.3700	  542.00	  565.28	-1775.53	  410.73
     83.4700	  534.00	  570.40	-1788.65	  410.72
     83.5700	  539.00	  575.98	-1789.23	  410.70
     83.6700	  552.00	  581.61	-1781.86	  410.68
     83.7700	  536.00	  586.74	-1802.99	  410.66
     83.8700	  572.00	  590.79	-1771.04	  410.64
     83.9700	  559.00	  593.18	-1786.43	  410.62
     84.0700	  577.00	  593.50	-1768.75	  410.60
     84.1700	  558.00	  591.68	-1785.93	  410.57
     84.2700	  569.00	  587.97	-1771.22	  410.55
     84.3700	  563.00	  582.86	-1772.11	  410.52
     84.4700	  543.00	  576.95	-1786.20	  410.49
     84.5700	  585.00	  570.77	-1738.02	  410.46
     84.6700	  530.00	  564.75	-1787.00	  410.43
     84.7700	  579.00	  559.24	-1732.49	  410.39
     84.8700	  555.00	  554.44	-1751.69	  410.36
     84.9700	  534.00	  550.47	-1768.72	  410.32
     85.0700	  537.00	  547.32	-1762.57	  410.28
     85.1700	  528.00	  544.97	-1769.22	  410.24
     85.2700	  517.00	  543.31	-1778.56	  410.20
     85.3700	  528.00	  542.24	-1766.49	  410.16
     85.4700	  530.00	  541.67	-1763.92	  410.11
     85.5700	  515.00	  541.51	-1778.76	  410.07
     85.6700	  517.00	  541.70	-1776.95	  410.02
     85.7700	  542.00	  542.23	-1752.48	  409.97
     85.8700	  532.00	  543.09	-1763.34	  409.92
     85.9700	  550.00	  544.32	-1746.57	  409.86
     86.0700	  571.00	  546.00	-1727.25	  409.81
     86.1700	  538.00	  548.22	-1762.47	  409.75
     86.2700	  548.00	  551.11	-1755.36	  409.70
     86.3700	  562.00	  554.83	-1745.08	  409.64
     86.4700	  527.00	  559.50	-1784.75	  409.58
     86.5700	  564.00	  565.26	-1753.51	  409.52
     86.6700	  588.00	  572.15	-1736.40	  409.45
     86.7700	  595.00	  580.11	-1737.36	  409.39
     86.8700	  572.00	  588.62	-1768.87	  409.32
     86.9700	  637.00	  597.91	-1713.16	  409.25
     87.0700	  677.00	  607.14	-1682.39	  409.18
     87.1700	  646.00	  615.58	-1721.83	  409.11
     87.2700	  647.00	  622.46	-1727.71	  409.04
     87.3700	  628.00	  627.00	-1751.25	  408.96
     87.4700	  644.00	  628.58	-1736.83	  408.89
     87.5700	  633.00	  626.99	-1746.24	  408.81
     87.6700	  610.00	  622.48	-1764.73	  408.73
     87.7700	  660.00	  615.71	-1707.96	  408.65
     87.8700	  602.00	  607.53	-1757.78	  408.57
     87.9700	  612.00	  598.83	-1739.08	  408.48
     88.0700	  618.00	  590.43	-1724.68	  408.40
     88.1700	  604.00	  583.02	-1731.27	  408.31
     88.2700	  584.00	  577.12	-1745.37	  408.22
     88.3700	  597.00	  573.09	-1728.34	  408.13
     88.4700	  593.00	  571.10	-1730.35	  408.04
     88.5700	  589.00	  571.14	-1734.39	  407.94
     88.6700	  567.00	  573.06	-1758.31	  407.85
     88.7700	  565.00	  576.58	-1763.83	  407.75
     88.8700	  614.00	  581.29	-1719.54	  407.65
     88.9700	  561.00	  586.68	-1777.94	  407.55
     89.0700	  591.00	  592.21	-1753.46	  407.45
     89.1700	  596.00	  597.23	-1753.48	  407.35
     89.2700	  592.00	  601.14	-1761.39	  407.24
     89.3700	  632.00	  603.38	-1723.63	  407.14
     89.4700	  576.00	  603.58	-1779.83	  407.03
     89.5700	  589.00	  601.68	-1764.93	  406.92
     89.6700	  597.00	  597.88	-1753.13	  406.81
     89.7700	  602.00	  592.63	-1742.88	  406.70
     89.8700	  578.00	  586.44	-1760.69	  406.58
     89.9700	  546.00	  579.81	-1786.06	  406.47
     90.0700	  580.00	  573.20	-1745.45	  406.35
     90.1700	  521.00	  566.95	-1798.20	  406.23
     90.2700	  552.00	  561.32	-1761.57	  406.11
     90.3700	  553.00	  556.47	-1755.72	  405.99
     90.4700	  539.00	  552.46	-1765.71	  405.87
     90.5700	  575.00	  549.28	-1726.53	  405.74
     90.6700	  577.00	  546.88	-1722.13	  405.62
     90.7700	  525.00	  545.17	-1772.42	  405.49
     90.8700	  484.00	  544.04	-1812.29	  405.36
     90.9700	  500.00	  543.42	-1795.67	  405.23
     91.0700	  522.00	  543.23	-1773.48	  405.10
     91.1700	  553.00	  543.44	-1742.69	  404.96
     91.2700	  539.00	  544.04	-1757.29	  404.83
     91.3700	  534.00	  545.07	-1763.32	  404.69
     91.4700	  509.00	  546.61	-1789.86	  404.55
     91.5700	  489.00	  548.78	-1812.03	  404.41
     91.6700	  532.00	  551.75	-1772.00	  404.27
     91.7700	  491.00	  555.69	-1816.94	  404.13
     91.8700	  521.00	  560.83	-1792.08	  403.98
     91.9700	  564.00	  567.13	-1755.38	  403.83
     92.0700	  541.00	  575.23	-1786.48	  403.69
     92.1700	  554.00	  585.03	-1783.28	  403.54
     92.2700	  585.00	  596.58	-1763.83	  403.39
     92.3700	  623.00	  609.82	-1739.07	  403.24
     92.4700	  605.00	  624.58	-1771.83	  403.08
     92.5700	  627.00	  640.53	-1765.78	  402.93
     92.6700	  642.00	  657.24	-1767.49	  402.77
     92.7700	  695.00	  674.11	-1731.36	  402.61
     92.8700	  726.00	  690.46	-1716.71	  402.45
     92.9700	  757.00	  705.60	-1700.85	  402.29
     93.0700	  800.00	  718.95	-1671.20	  402.13
     93.1700	  768.00	  730.19	-1714.44	  401.97
     93.2700	  837.00	  739.41	-1654.66	  401.80
     93.3700	  814.00	  747.05	-1685.30	  401.64
     93.4700	  773.00	  753.75	-1733.00	  401.47
     93.5700	  825.00	  760.24	-1687.49	  401.30
     93.6700	  818.00	  767.15	-1701.40	  401.13
     93.7700	  861.00	  775.04	-1666.29	  400.95
     93.8700	  827.00	  784.42	-1709.67	  400.78
     93.9700	  852.00	  795.71	-1695.96	  400.61
     94.0700	  836.00	  809.24	-1725.49	  400.43
     94.1700	  830.00	  825.08	-1747.33	  400.25
     94.2700	  857.00	  842.96	-1738.21	  400.07
     94.3700	  908.00	  862.15	-1706.40	  399.89
     94.4700	  914.00	  881.48	-1719.73	  399.71
     94.5700	  918.00	  899.35	-1733.60	  399.53
     94.6700	  897.00	  913.90	-1769.15	  399.34
     94.7700	  890.00	  923.18	-1785.43	  399.16
     94.8700	  907.00	  925.54	-1770.79	  398.97
     94.9700	  848.00	  920.05	-1824.30	  398.78
     95.0700	  877.00	  906.77	-1782.02	  398.59
     95.1700	  858.00	  886.71	-1780.96	  398.40
     95.2700	  884.00	  861.57	-1729.82	  398.21
     95.3700	  797.00	  833.40	-1788.65	  398.01
     95.4700	  749.00	  804.29	-1807.54	  397.82
     95.5700	  779.00	  776.23	-1749.48	  397.62
     95.6700	  697.00	  751.03	-1806.28	  397.43
     95.7700	  693.00	  730.34	-1789.59	  397.23
     95.8700	  715.00	  715.61	-1752.86	  397.03
     95.9700	  689.00	  708.13	-1771.38	  396.83
     96.0700	  687.00	  708.97	-1774.22	  396.62
     96.1700	  687.00	  719.07	-1784.32	  396.42
     96.2700	  754.00	  739.14	-1737.39	  396.22
     96.3700	  764.00	  769.63	-1757.88	  396.01
     96.4700	  803.00	  810.66	-1759.91	  395.80
     96.5700	  819.00	  861.91	-1795.16	  395.59
     96.6700	  892.00	  922.52	-1782.77	  395.38
     96.7700	  994.00	  991.02	-1749.27	  395.17
     96.8700	 1052.00	 1065.25	-1765.50	  394.96
     96.9700	 1099.00	 1142.31	-1795.56	  394.75
     97.0700	 1222.00	 1218.65	-1748.90	  394.53
     97.1700	 1279.00	 1290.15	-1763.40	  394.32
     97.2700	 1379.00	 1352.29	-1725.54	  394.10
     97.3700	 1424.00	 1400.56	-1728.81	  393.88
     97.4700	 1355.00	 1431.05	-1828.30	  393.67
     97.5700	 1411.00	 1441.23	-1782.48	  393.45
     97.6700	 1432.00	 1430.49	-1750.74	  393.23
     97.7700	 1416.00	 1400.28	-1736.53	  393.00
     97.8700	 1303.00	 1353.67	-1802.92	  392.78
     97.9700	 1287.00	 1294.74	-1759.99	  392.56
     98.0700	 1243.00	 1227.85	-1737.10	  392.33
     98.1700	 1183.00	 1157.34	-1726.59	  392.11
     98.2700	 1089.00	 1087.09	-1750.34	  391.88
     98.3700	 1078.00	 1020.56	-1694.81	  391.65
     98.4700	  905.00	  960.59	-1807.84	  391.42
     98.5700	  912.00	  909.51	-1749.76	  391.19
     98.6700	  854.00	  869.09	-1767.34	  390.96
     98.7700	  786.00	  840.63	-1806.88	  390.73
     98.8700	  772.00	  825.09	-1805.34	  390.50
     98.9700	  760.00	  823.11	-1815.36	  390.26
     99.0700	  808.00	  835.12	-1779.37	  390.03
     99.1700	  826.00	  861.33	-1787.58	  389.79
     99.2700	  875.00	  901.76	-1779.01	  389.56
     99.3700	  942.00	  956.22	-1766.47	  389.32
     99.4700	 1014.00	 1024.21	-1762.46	  389.08
     99.5700	 1070.00	 1104.87	-1787.12	  388.84
     99.6700	 1190.00	 1196.88	-1759.13	  388.60
     99.7700	 1282.00	 1298.28	-1768.53	  388.36
     99.8700	 1338.00	 1406.50	-1820.75	  388.12
     99.9700	 1499.00	 1518.18	-1771.43	  387.88
    100.0700	 1633.00	 1629.37	-1748.62	  387.64
    100.1700	 1693.00	 1735.57	-1794.82	  387.39
    100.2700	 1899.00	 1832.22	-1685.47	  387.15
    100.3700	 1905.00	 1915.17	-1762.42	  386.90
    100.4700	 2009.00	 1981.09	-1724.34	  386.66
    100.5700	 2084.00	 2027.65	-1695.90	  386.41
    100.6700	 2175.00	 2053.32	-1630.57	  386.16
    100.7700	 2064.00	 2057.26	-1745.51	  385.92
    100.8700	 2075.00	 2039.23	-1716.48	  385.67
    100.9700	 2040.00	 1999.88	-1712.13	  385.42
    101.0700	 2006.00	 1941.07	-1687.32	  385.17
    101.1700	 1943.00	 1866.07	-1675.32	  384.92
    101.2700	 1811.00	 1779.35	-1720.60	  384.67
    101.3700	 1766.00	 1685.99	-1672.24	  384.42
    101.4700	 1620.00	 1591.14	-1723.39	  384.16
    101.5700	 1528.00	 1499.34	-1723.59	  383.91
    101.6700	 1408.00	 1414.34	-1758.59	  383.66
    101.7700	 1361.00	 1338.87	-1730.12	  383.41
    101.8700	 1288.00	 1274.51	-1738.76	  383.15
    101.9700	 1260.00	 1221.81	-1714.06	  382.90
    102.0700	 1218.00	 1180.29	-1714.54	  382.64
    102.1700	 1193.00	 1148.57	-1707.82	  382.39
    102.2700	 1067.00	 1124.58	-1809.83	  382.13
    102.3700	 1092.00	 1105.70	-1765.95	  381.87
    102.4700	 1132.00	 1089.15	-1709.40	  381.62
    102.5700	 1044.00	 1072.24	-1780.49	  381.36
    102.6700	 1045.00	 1052.75	-1760.00	  381.10
    102.7700	 1004.00	 1029.25	-1777.50	  380.85
    102.8700	  961.00	 1001.13	-1792.38	  380.59
    102.9700	  895.00	  968.64	-1825.89	  380.33
    103.0700	  910.00	  932.55	-1774.80	  380.07
    103.1700	  895.00	  894.00	-1751.25	  379.81
    103.2700	  848.00	  854.27	-1758.52	  379.55
    103.3700	  803.00	  814.60	-1763.85	  379.29
    103.4700	  745.00	  776.15	-1783.40	  379.03
    103.5700	  737.00	  739.86	-1755.11	  378.77
    103.6700	  729.00	  706.50	-1729.75	  378.51
    103.7700	  667.00	  676.59	-1761.84	  378.25
    103.8700	  635.00	  650.43	-1767.68	  377.99
    103.9700	  656.00	  628.10	-1724.35	  377.73
    104.0700	  605.00	  609.51	-1756.76	  377.47
    104.1700	  619.00	  594.41	-1727.66	  377.21
    104.2700	  577.00	  582.50	-1757.75	  376.95
    104.3700	  548.00	  573.39	-1777.64	  376.69
    104.4700	  548.00	  566.69	-1770.94	  376.43
    104.5700	  561.00	  562.00	-1753.25	  376.17
    104.6700	  558.00	  558.96	-1753.21	  375.91
    104.7700	  557.00	  557.26	-1752.51	  375.65
    104.8700	  529.00	  556.62	-1779.87	  375.39
    104.9700	  580.00	  556.78	-1729.03	  375.13
    105.0700	  513.00	  557.59	-1796.84	  374.87
    105.1700	  556.00	  558.89	-1755.14	  374.61
    105.2700	  565.00	  560.60	-1747.85	  374.35
    105.3700	  530.00	  562.62	-1784.87	  374.09
    105.4700	  518.00	  564.98	-1799.23	  373.83
    105.5700	  532.00	  567.68	-1787.93	  373.57
    105.6700	  537.00	  570.80	-1786.05	  373.32
    105.7700	  522.00	  574.44	-1804.69	  373.06
    105.8700	  566.00	  578.71	-1764.96	  372.80
    105.9700	  582.00	  583.72	-1753.97	  372.54
    106.0700	  598.00	  589.57	-1743.82	  372.28
    106.1700	  572.00	  596.30	-1776.55	  372.03
    106.2700	  567.00	  603.90	-1789.15	  371.77
    106.3700	  581.00	  612.30	-1783.55	  371.51
    106.4700	  594.00	  621.36	-1779.61	  371.26
    106.5700	  609.00	  630.85	-1774.10	  371.00
    106.6700	  625.00	  640.51	-1767.76	  370.75
    106.7700	  634.00	  650.01	-1768.26	  370.49
    106.8700	  616.00	  658.97	-1795.22	  370.24
    106.9700	  672.00	  667.01	-1747.26	  369.99
    107.0700	  649.00	  673.77	-1777.02	  369.73
    107.1700	  685.00	  678.95	-1746.20	  369.48
    107.2700	  740.00	  682.40	-1694.65	  369.23
    107.3700	  644.00	  684.09	-1792.34	  368.98
    107.4700	  663.00	  684.19	-1773.44	  368.73
    107.5700	  653.00	  683.02	-1782.27	  368.48
    107.6700	  685.00	  680.97	-1748.22	  368.23
    107.7700	  674.00	  678.48	-1756.73	  367.98
    107.8700	  645.00	  675.95	-1783.20	  367.74
    107.9700	  698.00	  673.74	-1727.99	  367.49
    108.0700	  697.00	  672.10	-1727.35	  367.25
    108.1700	  668.00	  671.16	-1755.41	  367.00
    108.2700	  632.00	  670.97	-1791.22	  366.76
    108.3700	  681.00	  671.43	-1742.68	  366.52
    108.4700	  676.00	  672.36	-1748.61	  366.27
    108.5700	  697.00	  673.48	-1728.73	  366.03
    108.6700	  693.00	  674.42	-1733.67	  365.79
    108.7700	  722.00	  674.80	-1705.05	  365.56
    108.8700	  666.00	  674.25	-1760.50	  365.32
    108.9700	  692.00	  672.42	-1732.67	  365.08
    109.0700	  687.00	  669.13	-1734.38	  364.85
    109.1700	  680.00	  664.29	-1736.54	  364.61
    109.2700	  687.00	  657.95	-1723.20	  364.38
    109.3700	  643.00	  650.31	-1759.56	  364.15
    109.4700	  661.00	  641.62	-1732.87	  363.92
    109.5700	  677.00	  632.19	-1707.44	  363.69
    109.6700	  573.00	  622.36	-1801.61	  363.46
    109.7700	  629.00	  612.43	-1735.68	  363.23
    109.8700	  560.00	  602.68	-1794.93	  363.01
    109.9700	  616.00	  593.38	-1729.63	  362.78
    110.0700	  579.00	  584.73	-1757.98	  362.56
    110.1700	  595.00	  576.88	-1734.13	  362.34
    110.2700	  564.00	  569.94	-1758.19	  362.12
    110.3700	  576.00	  563.97	-1740.22	  361.90
    110.4700	  553.00	  558.97	-1758.22	  361.69
    110.5700	  552.00	  554.93	-1755.18	  361.47
    110.6700	  578.00	  551.79	-1726.04	  361.26
    110.7700	  515.00	  549.49	-1786.74	  361.05
    110.8700	  537.00	  547.94	-1763.19	  360.84
    110.9700	  550.00	  547.05	-1749.30	  360.63
    111.0700	  568.00	  546.74	-1730.99	  360.42
    111.1700	  559.00	  546.93	-1740.18	  360.22
    111.2700	  576.00	  547.55	-1723.80	  360.01
    111.3700	  526.00	  548.53	-1774.78	  359.81
    111.4700	  542.00	  549.82	-1760.07	  359.61
    111.5700	  517.00	  551.39	-1786.64	  359.42
    111.6700	  574.00	  553.20	-1731.45	  359.22
    111.7700	  547.00	  555.24	-1760.49	  359.03
    111.8700	  563.00	  557.49	-1746.74	  358.84
    111.9700	  548.00	  559.96	-1764.21	  358.65
    112.0700	  551.00	  562.64	-1763.89	  358.46
    112.1700	  576.00	  565.55	-1741.80	  358.27
    112.2700	  541.00	  568.70	-1779.95	  358.09
    112.3700	  599.00	  572.14	-1725.39	  357.91
    112.4700	  559.00	  575.89	-1769.14	  357.73
    112.5700	  590.00	  580.00	-1742.25	  357.55
    112.6700	  630.00	  584.55	-1706.80	  357.38
    112.7700	  625.00	  589.61	-1716.86	  357.21
    112.8700	  631.00	  595.29	-1716.54	  357.04
    112.9700	  698.00	  601.75	-1656.00	  356.87
    113.0700	  627.00	  609.18	-1734.43	  356.71
    113.1700	  678.00	  617.79	-1692.04	  356.54
    113.2700	  675.00	  627.94	-1705.19	  356.38
    113.3700	  753.00	  640.02	-1639.27	  356.23
    113.4700	  797.00	  654.54	-1609.79	  356.07
    113.5700	  801.00	  672.14	-1623.39	  355.92
    113.6700	  807.00	  693.61	-1638.86	  355.77
    113.7700	  890.00	  719.90	-1582.15	  355.62
    113.8700	  901.00	  752.18	-1603.43	  355.48
    113.9700	  956.00	  791.81	-1588.06	  355.34
    114.0700	  999.00	  840.37	-1593.62	  355.20
    114.1700	 1100.00	  899.63	-1551.88	  355.06
    114.2700	 1122.00	  971.60	-1601.85	  354.93
    114.3700	 1195.00	 1058.45	-1615.70	  354.80
    114.4700	 1318.00	 1162.46	-1596.71	  354.67
    114.5700	 1403.00	 1285.96	-1635.21	  354.55
    114.6700	 1602.00	 1431.22	-1581.47	  354.42
    114.7700	 1703.00	 1600.38	-1649.63	  354.31
    114.8700	 1891.00	 1795.31	-1656.56	  354.19
    114.9700	 2164.00	 2017.40	-1605.65	  354.08
    115.0700	 2375.00	 2267.44	-1644.69	  353.97
    115.1700	 2568.00	 2545.44	-1729.69	  353.86
    115.2700	 2822.00	 2850.60	-1780.85	  353.76
    115.3700	 3107.00	 3181.09	-1826.34	  353.66
    115.4700	 3261.00	 3533.89	-2025.14	  353.57
    115.5700	 3778.00	 3904.79	-1879.04	  353.47
    115.6700	 4116.00	 4288.32	-1924.57	  353.38
    115.7700	 4526.00	 4677.91	-1904.16	  353.30
    115.8700	 4745.00	 5065.79	-2073.04	  353.22
    115.9700	 5302.00	 5443.00	-1893.25	  353.14
    116.0700	 5520.00	 5799.70	-2031.95	  353.06
    116.1700	 6019.00	 6125.33	-1858.58	  352.99
    116.2700	 6319.00	 6409.18	-1842.43	  352.92
    116.3700	 6713.00	 6640.79	-1680.04	  352.86
    116.4700	 6843.00	 6810.74	-1719.99	  352.80
    116.5700	 7001.00	 6911.64	-1662.89	  352.74
    116.6700	 7009.00	 6938.97	-1682.22	  352.69
    116.7700	 6938.00	 6891.64	-1705.89	  352.64
    116.8700	 6928.00	 6772.13	-1596.38	  352.59
    116.9700	 6739.00	 6586.18	-1599.43	  352.55
    117.0700	 6259.00	 6342.04	-1835.29	  352.51
    117.1700	 6081.00	 6049.65	-1720.90	  352.48
    117.2700	 5670.00	 5719.58	-1801.83	  352.45
    117.3700	 5251.00	 5362.43	-1863.68	  352.43
    117.4700	 4919.00	 4988.42	-1821.67	  352.41
    117.5700	 4607.00	 4606.93	-1752.18	  352.39
    117.6700	 4227.00	 4226.37	-1751.62	  352.38
    117.7700	 4028.00	 3853.89	-1578.14	  352.37
    117.8700	 3546.00	 3495.41	-1701.66	  352.37
    117.9700	 3237.00	 3155.77	-1671.02	  352.37
    118.0700	 2972.00	 2838.52	-1618.77	  352.37
    118.1700	 2638.00	 2546.14	-1660.39	  352.38
    118.2700	 2290.00	 2279.95	-1742.20	  352.39
    118.3700	 2070.00	 2040.40	-1722.65	  352.41
    118.4700	 1712.00	 1827.23	-1867.48	  352.44
    118.5700	 1582.00	 1639.48	-1809.73	  352.46
    118.6700	 1486.00	 1475.75	-1742.00	  352.50
    118.7700	 1271.00	 1334.21	-1815.46	  352.53
    118.8700	 1071.00	 1212.83	-1894.08	  352.58
    118.9700	 1052.00	 1109.53	-1809.78	  352.62
    119.0700	  955.00	 1022.16	-1819.41	  352.68
    119.1700	  888.00	  948.67	-1812.92	  352.73
    119.2700	  844.00	  887.12	-1795.37	  352.80
    119.3700	  820.00	  835.73	-1767.98	  352.86
    119.4700	  768.00	  792.91	-1777.16	  352.93
    119.5700	  726.00	  757.28	-1783.53	  353.01
    119.6700	  681.00	  727.64	-1798.89	  353.09
    119.7700	  659.00	  702.96	-1796.21	  353.18
    119.8700	  635.00	  682.39	-1799.64	  353.27
    119.9700	  583.00	  665.21	-1834.46	  353.37
    120.0700	  609.00	  650.85	-1794.10	  353.48
    120.1700	  616.00	  638.82	-1775.07	  353.59
    120.2700	  556.00	  628.76	-1825.01	  353.70
    120.3700	  550.00	  620.34	-1822.59	  353.82
    120.4700	  582.00	  613.33	-1783.58	  353.95
    120.5700	  599.00	  607.54	-1760.79	  354.08
    120.6700	  605.00	  602.81	-1750.06	  354.22
    120.7700	  555.00	  599.02	-1796.27	  354.36
    120.8700	  513.00	  596.08	-1835.33	  354.51
    120.9700	  622.00	  593.92	-1724.17	  354.66
    121.0700	  562.00	  592.48	-1782.73	  354.82
    121.1700	  601.00	  591.71	-1742.96	  354.99
    121.2700	  559.00	  591.56	-1784.81	  355.16
    121.3700	  566.00	  592.00	-1778.25	  355.34
    121.4700	  578.00	  592.98	-1767.23	  355.52
    121.5700	  613.00	  594.44	-1733.69	  355.72
    121.6700	  565.00	  596.35	-1783.60	  355.91
    121.7700	  599.00	  598.63	-1751.88	  356.12
    121.8700	  580.00	  601.20	-1773.45	  356.33
    121.9700	  637.00	  604.03	-1719.28	  356.54
    122.0700	  573.00	  606.99	-1786.24	  356.76
    122.1700	  637.00	  610.02	-1725.27	  356.99
    122.2700	  568.00	  613.00	-1797.25	  357.23
    122.3700	  635.00	  615.83	-1733.08	  357.47
    122.4700	  631.00	  618.41	-1739.66	  357.72
    122.5700	  639.00	  620.65	-1733.90	  357.97
    122.6700	  659.00	  622.46	-1715.71	  358.24
    122.7700	  647.00	  623.75	-1729.00	  358.51
    122.8700	  641.00	  624.48	-1735.73	  358.78
    122.9700	  709.00	  624.62	-1667.87	  359.07
    123.0700	  585.00	  624.15	-1791.40	  359.35
    123.1700	  650.00	  623.10	-1725.35	  359.65
    123.2700	  649.00	  621.51	-1724.76	  359.96
    123.3700	  625.00	  619.42	-1746.67	  360.27
    123.4700	  658.00	  616.92	-1711.17	  360.59
    123.5700	  630.00	  614.06	-1736.31	  360.91
    123.6700	  568.00	  610.91	-1795.16	  361.24
    123.7700	  641.00	  607.56	-1718.81	  361.59
    123.8700	  568.00	  604.07	-1788.32	  361.93
    123.9700	  597.00	  600.51	-1755.76	  362.29
    124.0700	  605.00	  596.94	-1744.19	  362.65
    124.1700	  604.00	  593.42	-1741.67	  363.02
    124.2700	  613.00	  589.98	-1729.23	  363.40
    124.3700	  561.00	  586.67	-1777.92	  363.79
    124.4700	  612.00	  583.53	-1723.78	  364.18
    124.5700	  580.00	  580.57	-1752.82	  364.58
    124.6700	  583.00	  577.81	-1747.06	  364.99
    124.7700	  602.00	  575.26	-1725.51	  365.41
    124.8700	  578.00	  572.95	-1747.20	  365.84
    124.9700	  624.00	  483.72	-1611.97	  366.27
    125.0700	  608.00	  484.17	-1752.25	  366.71
    125.1700	  592.00	  484.62	-1752.25	  367.16
    125.2700	  569.00	  485.08	-1752.25	  367.62
    125.3700	  577.00	  485.54	-1752.25	  368.09
    125.4700	  585.00	  486.02	-1752.25	  368.56
    125.5700	  612.00	  486.50	-1752.25	  369.05
    125.6700	  584.00	  486.99	-1752.25	  369.54
    125.7700	  532.00	  487.50	-1752.25	  370.04
    125.8700	  573.00	  488.01	-1752.25	  370.55
    125.9700	  564.00	  488.52	-1752.25	  371.07
    126.0700	  569.00	  489.05	-1752.25	  371.60
    126.1700	  588.00	  489.59	-1752.25	  372.13
    126.2700	  585.00	  490.13	-1752.25	  372.68
    126.3700	  573.00	  490.69	-1752.25	  373.23
    126.4700	  583.00	  491.25	-1752.25	  373.79
    126.5700	  639.00	  491.82	-1752.25	  374.37
    126.6700	  626.00	  492.40	-1752.25	  374.95
    126.7700	  619.00	  492.99	-1752.25	  375.54
    126.8700	  655.00	  493.59	-1752.25	  376.14
    126.9700	  588.00	  494.20	-1752.25	  376.75
    127.0700	  651.00	  494.82	-1752.25	  377.37
    127.1700	  683.00	  495.45	-1752.25	  378.00
    127.2700	  660.00	  496.09	-1752.25	  378.63
    127.3700	  652.00	  496.74	-1752.25	  379.28
    127.4700	  680.00	  497.39	-1752.25	  379.94
    127.5700	  693.00	  498.06	-1752.25	  380.61
    127.6700	  676.00	  498.74	-1752.25	  381.28
    127.7700	  745.00	  499.42	-1752.25	  381.97
    127.8700	  696.00	  500.12	-1752.25	  382.67
    127.9700	  728.00	  500.83	-1752.25	  383.37
    128.0700	  771.00	  501.55	-1752.25	  384.09
    128.1700	  800.00	  502.27	-1752.25	  384.82
    128.2700	  784.00	  503.01	-1752.25	  385.55
    128.3700	  757.00	  503.76	-1752.25	  386.30
    128.4700	  776.00	  504.52	-1752.25	  387.06
    128.5700	    0.00	  505.28	-1752.25	  387.83
    128.6700	    0.00	  506.06	-1752.25	  388.61
     12.3052	        	        	        	        	       0	(  0  0  2)	  0  1
     24.8862	        	        	        	        	       0	(  0  0  4)	  0  1
     28.3319	        	        	        	        	       0	(  1  0  0)	  0  1
     29.0289	        	        	        	        	       0	(  1  0  1)	  0  1
     31.0345	        	        	        	        	       0	(  1  0  2)	  0  1
     34.1419	        	        	        	        	       0	(  1  0  3)	  0  1
     37.7831	        	        	        	        	       0	(  0  0  6)	  0  1
     38.1179	        	        	        	        	       0	(  1  0  4)	  0  1
     42.7668	        	        	        	        	       0	(  1  0  5)	  0  1
     47.9494	        	        	        	        	       0	(  1  0  6)	  0  1
     50.2686	        	        	        	        	       0	(  1  1  0)	  0  1
     51.2019	        	        	        	        	       0	(  0  0  8)	  0  1
     51.9910	        	        	        	        	       0	(  1  1  2)	  0  1
     53.5784	        	        	        	        	       0	(  1  0  7)	  0  1
     56.9373	        	        	        	        	       0	(  1  1  4)	  0  1
     58.7654	        	        	        	        	       0	(  2  0  0)	  0  1
     59.1569	        	        	        	        	       0	(  2  0  1)	  0  1
     59.6072	        	        	        	        	       0	(  1  0  8)	  0  1
     60.3219	        	        	        	        	       0	(  2  0  2)	  0  1
     62.2345	        	        	        	        	       0	(  2  0  3)	  0  1
     64.6296	        	        	        	        	       0	(  1  1  6)	  0  1
     64.8577	        	        	        	        	       0	(  2  0  4)	  0  1
     65.4274	        	        	        	        	       0	(  0  0 10)	  0  1
     66.0217	        	        	        	        	       0	(  1  0  9)	  0  1
     68.1509	        	        	        	        	       0	(  2  0  5)	  0  1
     72.0771	        	        	        	        	       0	(  2  0  6)	  0  1
     72.8358	        	        	        	        	       0	(  1  0 10)	  0  1
     74.6641	        	        	        	        	       0	(  1  1  8)	  0  1
     76.6097	        	        	        	        	       0	(  2  0  7)	  0  1
     80.0911	        	        	        	        	       0	(  1  0 11)	  0  1
     80.9030	        	        	        	        	       0	(  0  0 12)	  0  1
     81.0063	        	        	        	        	       0	(  2  1  0)	  0  1
     81.3460	        	        	        	        	       0	(  2  1  1)	  0  1
     81.7382	        	        	        	        	       0	(  2  0  8)	  0  1
     82.3635	        	        	        	        	       0	(  2  1  2)	  0  1
     84.0543	        	        	        	        	       0	(  2  1  3)	  0  1
     86.4131	        	        	        	        	       0	(  2  1  4)	  0  1
     86.9313	        	        	        	        	       0	(  1  1 10)	  0  1
     87.4742	        	        	        	        	       0	(  2  0  9)	  0  1
     87.8626	        	        	        	        	       0	(  1  0 12)	  0  1
     89.4378	        	        	        	        	       0	(  2  1  5)	  0  1
     93.1339	        	        	        	        	       0	(  2  1  6)	  0  1
     93.8592	        	        	        	        	       0	(  2  0 10)	  0  1
     94.8949	        	        	        	        	       0	(  3  0  0)	  0  1
     95.2321	        	        	        	        	       0	(  3  0  1)	  0  1
     96.2450	        	        	        	        	       0	(  3  0  2)	  0  1
     96.2724	        	        	        	        	       0	(  1  0 13)	  0  1
     97.5208	        	        	        	        	       0	(  2  1  7)	  0  1
     97.9377	        	        	        	        	       0	(  3  0  3)	  0  1
     98.4354	        	        	        	        	       0	(  0  0 14)	  0  1
    100.3198	        	        	        	        	       0	(  3  0  4)	  0  1
    100.9782	        	        	        	        	       0	(  2  0 11)	  0  1
    101.7957	        	        	        	        	       0	(  1  1 12)	  0  1
    102.6412	        	        	        	        	       0	(  2  1  8)	  0  1
    103.4102	        	        	        	        	       0	(  3  0  5)	  0  1
    105.5208	        	        	        	        	       0	(  1  0 14)	  0  1
    107.2438	        	        	        	        	       0	(  3  0  6)	  0  1
    108.5755	        	        	        	        	       0	(  2  1  9)	  0  1
    108.9857	        	        	        	        	       0	(  2  0 12)	  0  1
    111.8822	        	        	        	        	       0	(  3  0  7)	  0  1
    115.4691	        	        	        	        	       0	(  2  1 10)	  0  1
    115.9583	        	        	        	        	       0	(  1  0 15)	  0  1
    116.6196	        	        	        	        	       0	(  2  2  0)	  0  1
    117.4331	        	        	        	        	       0	(  3  0  8)	  0  1
    118.1341	        	        	        	        	       0	(  2  2  2)	  0  1
    118.1651	        	        	        	        	       0	(  2  0 13)	  0  1
    119.9116	        	        	        	        	       0	(  0  0 16)	  0  1
    120.6298	        	        	        	        	       0	(  1  1 14)	  0  1
    122.8177	        	        	        	        	       0	(  2  2  4)	  0  1
    123.5919	        	        	        	        	       0	(  2  1 11)	  0  1
    124.0898	        	        	        	        	       0	(  3  0  9)	  0  1
    124.6846	        	        	        	        	       0	(  3  1  0)	  0  1
    125.0947	        	        	        	        	       0	(  3  1  1)	  0  1
    126.3376	        	        	        	        	       0	(  3  1  2)	  0  1
    128.2928	        	        	        	        	       0	(  1  0 16)	  0  1
    128.4550	        	        	        	        	       0	(  3  1  3)	  0  1
    129.0878	        	        	        	        	       0	(  2  0 14)	  0  1
    131.2539	        	        	        	        	       0	(  2  2  6)	  0  1
    131.5297	        	        	        	        	       0	(  3  1  4)	  0  1
    132.2260	        	        	        	        	       0	(  3  0 10)	  0  1
    133.4979	        	        	        	        	       0	(  2  1 12)	  0  1
    135.7149	        	        	        	        	       0	(  3  1  5)	  0  1
    141.3076	        	        	        	        	       0	(  3  1  6)	  0  1
    142.6976	        	        	        	        	       0	(  3  0 11)	  0  1
    143.2152	        	        	        	        	       0	(  2  0 15)	  0  1
    144.4455	        	        	        	        	       0	(  1  0 17)	  0  1
    145.4803	        	        	        	        	       0	(  2  2  8)	  0  1
    146.6426	        	        	        	        	       0	(  2  1 13)	  0  1
    148.9766	        	        	        	        	       0	(  3  1  7)	  0  1
    149.5381	        	        	        	        	       0	(  1  1 16)	  0  1
    153.9220	        	        	        	        	       0	(  0  0 18)	  0  1
    158.5592	        	        	        	        	       0	(  3  0 12)	  0  1
    158.8418	        	        	        	        	       0	(  4  0  0)	  0  1
    159.7984	        	        	        	        	       0	(  4  0  1)	  0  1
    160.9613	        	        	        	        	       0	(  3  1  8)	  0  1
    162.9764	        	        	        	        	       0	(  4  0  2)	  0  1
    169.5848	        	        	        	        	       0	(  2  0 16)	  0  1
    170.3219	        	        	        	        	       0	(  4  0  3)	  0  1
    173.9900	        	        	        	        	       0	(  2  1 14)	  0  1
