MSG Master    CELL:    5.91969   5.91969  23.27712   90.0000   90.0000  120.0000   SPGR: P 63/m m c             TEMP:   1074.85
  1   1280     2.52000     0.00000    -0.12132     0.00000     0.00000    0
    99     0     2
       0.00000      10.00000
     125.00000     130.00000
 2Theta	Yobs	Ycal	Yobs-Ycal	Backg	Posr	(hkl)	K
      0.7700	    1.00	  559.67	-1750.25	  439.50
      0.8700	    0.00	  560.20	-1750.25	  440.02
      0.9700	   31.00	  560.71	-1750.25	  440.54
      1.0700	   37.00	  561.22	-1750.25	  441.04
      1.1700	   40.00	  561.71	-1750.25	  441.54
      1.2700	   39.00	  562.20	-1750.25	  442.02
      1.3700	   39.00	  562.68	-1750.25	  442.50
      1.4700	  102.00	  563.15	-1750.25	  442.97
      1.5700	  294.00	  563.61	-1750.25	  443.43
      1.6700	  443.00	  564.06	-1750.25	  443.88
      1.7700	  588.00	  564.50	-1750.25	  444.33
      1.8700	  598.00	  564.94	-1750.25	  444.76
      1.9700	  696.00	  565.36	-1750.25	  445.19
      2.0700	  754.00	  565.78	-1750.25	  445.61
      2.1700	  825.00	  566.19	-1750.25	  446.02
      2.2700	  726.00	  566.59	-1750.25	  446.42
      2.3700	  756.00	  566.99	-1750.25	  446.81
      2.4700	  745.00	  567.37	-1750.25	  447.20
      2.5700	  700.00	  567.75	-1750.25	  447.58
      2.6700	  687.00	  568.12	-1750.25	  447.95
      2.7700	  644.00	  568.48	-1750.25	  448.31
      2.8700	  651.00	  568.84	-1750.25	  448.66
      2.9700	  600.00	  569.18	-1750.25	  449.01
      3.0700	  608.00	  569.52	-1750.25	  449.34
      3.1700	  581.00	  569.85	-1750.25	  449.68
      3.2700	  625.00	  570.17	-1750.25	  450.00
      3.3700	  700.00	  570.49	-1750.25	  450.31
      3.4700	  772.00	  570.80	-1750.25	  450.62
      3.5700	  780.00	  571.10	-1750.25	  450.92
      3.6700	  911.00	  571.39	-1750.25	  451.21
      3.7700	  890.00	  571.67	-1750.25	  451.50
      3.8700	  958.00	  571.95	-1750.25	  451.78
      3.9700	 1010.00	  572.22	-1750.25	  452.05
      4.0700	 1055.00	  572.49	-1750.25	  452.31
      4.1700	 1098.00	  572.74	-1750.25	  452.57
      4.2700	 1066.00	  572.99	-1750.25	  452.82
      4.3700	 1100.00	  573.24	-1750.25	  453.06
      4.4700	 1079.00	  573.47	-1750.25	  453.30
      4.5700	 1060.00	  573.70	-1750.25	  453.52
      4.6700	 1016.00	  573.92	-1750.25	  453.75
      4.7700	 1006.00	  574.14	-1750.25	  453.96
      4.8700	  985.00	  574.35	-1750.25	  454.17
      4.9700	  910.00	  574.55	-1750.25	  454.37
      5.0700	  890.00	  574.74	-1750.25	  454.57
      5.1700	  914.00	  574.93	-1750.25	  454.75
      5.2700	  899.00	  575.11	-1750.25	  454.94
      5.3700	  879.00	  575.29	-1750.25	  455.11
      5.4700	  857.00	  575.46	-1750.25	  455.28
      5.5700	  903.00	  575.62	-1750.25	  455.44
      5.6700	  876.00	  575.77	-1750.25	  455.60
      5.7700	  875.00	  575.92	-1750.25	  455.75
      5.8700	  844.00	  576.07	-1750.25	  455.89
      5.9700	  813.00	  576.21	-1750.25	  456.03
      6.0700	  827.00	  576.34	-1750.25	  456.16
      6.1700	  722.00	  576.46	-1750.25	  456.29
      6.2700	  802.00	  576.58	-1750.25	  456.41
      6.3700	  751.00	  576.69	-1750.25	  456.52
      6.4700	  715.00	  576.80	-1750.25	  456.63
      6.5700	  757.00	  576.90	-1750.25	  456.73
      6.6700	  708.00	  577.00	-1750.25	  456.82
      6.7700	  698.00	  577.09	-1750.25	  456.91
      6.8700	  723.00	  577.17	-1750.25	  457.00
      6.9700	  722.00	  577.25	-1750.25	  457.08
      7.0700	  659.00	  577.33	-1750.25	  457.15
      7.1700	  708.00	  577.39	-1750.25	  457.22
      7.2700	  708.00	  577.45	-1750.25	  457.28
      7.3700	  674.00	  577.51	-1750.25	  457.34
      7.4700	  665.00	  577.56	-1750.25	  457.39
      7.5700	  623.00	  577.61	-1750.25	  457.43
      7.6700	  663.00	  577.65	-1750.25	  457.47
      7.7700	  667.00	  577.68	-1750.25	  457.51
      7.8700	  670.00	  577.71	-1750.25	  457.54
      7.9700	  625.00	  577.74	-1750.25	  457.56
      8.0700	  633.00	  577.76	-1750.25	  457.58
      8.1700	  657.00	  577.77	-1750.25	  457.60
      8.2700	  652.00	  577.78	-1750.25	  457.61
      8.3700	  637.00	  577.79	-1750.25	  457.61
      8.4700	  640.00	  577.79	-1750.25	  457.61
      8.5700	  654.00	  577.78	-1750.25	  457.61
      8.6700	  641.00	  577.77	-1750.25	  457.60
      8.7700	  636.00	  577.76	-1750.25	  457.58
      8.8700	  563.00	  577.74	-1750.25	  457.56
      8.9700	  637.00	  577.71	-1750.25	  457.54
      9.0700	  626.00	  577.68	-1750.25	  457.51
      9.1700	  636.00	  577.65	-1750.25	  457.47
      9.2700	  590.00	  577.61	-1750.25	  457.44
      9.3700	  609.00	  577.57	-1750.25	  457.39
      9.4700	  622.00	  577.52	-1750.25	  457.35
      9.5700	  607.00	  577.47	-1750.25	  457.29
      9.6700	  615.00	  577.41	-1750.25	  457.24
      9.7700	  669.00	  577.35	-1750.25	  457.18
      9.8700	  608.00	  577.29	-1750.25	  457.11
      9.9700	  560.00	  577.22	-1750.25	  457.04
     10.0700	  573.00	  578.06	-1755.31	  456.97
     10.1700	  646.00	  578.08	-1682.33	  456.89
     10.2700	  635.00	  578.12	-1693.37	  456.81
     10.3700	  593.00	  578.20	-1735.45	  456.73
     10.4700	  545.00	  578.34	-1783.59	  456.64
     10.5700	  612.00	  578.61	-1716.86	  456.54
     10.6700	  598.00	  579.09	-1731.34	  456.45
     10.7700	  629.00	  579.93	-1701.18	  456.34
     10.8700	  606.00	  581.18	-1725.43	  456.24
     10.9700	  578.00	  582.84	-1755.09	  456.13
     11.0700	  568.00	  584.89	-1767.14	  456.02
     11.1700	  584.00	  587.32	-1753.57	  455.90
     11.2700	  591.00	  590.16	-1749.41	  455.78
     11.3700	  559.00	  593.50	-1784.75	  455.66
     11.4700	  614.00	  597.49	-1733.74	  455.53
     11.5700	  624.00	  602.33	-1728.58	  455.40
     11.6700	  549.00	  608.42	-1809.67	  455.26
     11.7700	  636.00	  616.38	-1730.63	  455.12
     11.8700	  605.00	  627.17	-1772.42	  454.98
     11.9700	  693.00	  641.33	-1698.58	  454.84
     12.0700	  702.00	  657.12	-1705.37	  454.69
     12.1700	  698.00	  668.23	-1720.48	  454.54
     12.2700	  691.00	  664.79	-1724.04	  454.38
     12.3700	  694.00	  643.58	-1699.83	  454.22
     12.4700	  624.00	  617.21	-1743.46	  454.06
     12.5700	  620.00	  597.44	-1727.69	  453.89
     12.6700	  609.00	  586.30	-1727.55	  453.73
     12.7700	  571.00	  581.02	-1760.27	  453.56
     12.8700	  572.00	  578.55	-1756.80	  453.38
     12.9700	  566.00	  577.18	-1761.43	  453.20
     13.0700	  541.00	  576.24	-1785.49	  453.02
     13.1700	  568.00	  575.53	-1757.78	  452.84
     13.2700	  586.00	  574.94	-1739.19	  452.65
     13.3700	  554.00	  574.45	-1770.70	  452.46
     13.4700	  581.00	  574.02	-1743.27	  452.27
     13.5700	  525.00	  573.63	-1798.88	  452.08
     13.6700	  549.00	  573.28	-1774.53	  451.88
     13.7700	  531.00	  572.95	-1792.20	  451.68
     13.8700	  527.00	  572.64	-1795.89	  451.48
     13.9700	  596.00	  572.35	-1726.60	  451.27
     14.0700	  541.00	  572.06	-1781.31	  451.06
     14.1700	  538.00	  571.79	-1784.04	  450.85
     14.2700	  531.00	  571.52	-1790.77	  450.64
     14.3700	  535.00	  571.25	-1786.50	  450.42
     14.4700	  535.00	  570.99	-1786.24	  450.20
     14.5700	  565.00	  570.74	-1755.99	  449.98
     14.6700	  591.00	  570.48	-1729.73	  449.76
     14.7700	  542.00	  570.22	-1778.47	  449.54
     14.8700	  576.00	  569.97	-1744.22	  449.31
     14.9700	  539.00	  569.72	-1780.97	  449.08
     15.0700	  589.00	  569.46	-1730.71	  448.84
     15.1700	  547.00	  569.21	-1772.46	  448.61
     15.2700	  588.00	  568.95	-1731.20	  448.37
     15.3700	  547.00	  568.70	-1771.95	  448.13
     15.4700	  585.00	  568.44	-1733.69	  447.89
     15.5700	  533.00	  568.19	-1785.44	  447.65
     15.6700	  559.00	  567.93	-1759.18	  447.40
     15.7700	  583.00	  567.67	-1734.92	  447.15
     15.8700	  555.00	  567.41	-1762.66	  446.91
     15.9700	  560.00	  567.17	-1757.42	  446.65
     16.0700	  594.00	  566.91	-1723.16	  446.40
     16.1700	  549.00	  566.65	-1767.90	  446.14
     16.2700	  573.00	  566.39	-1743.64	  445.89
     16.3700	  606.00	  566.12	-1710.37	  445.63
     16.4700	  572.00	  565.85	-1744.10	  445.37
     16.5700	  505.00	  565.59	-1810.84	  445.10
     16.6700	  592.00	  565.32	-1723.57	  444.84
     16.7700	  555.00	  565.04	-1760.29	  444.57
     16.8700	  559.00	  564.77	-1756.02	  444.31
     16.9700	  572.00	  564.50	-1742.75	  444.04
     17.0700	  557.00	  564.22	-1757.47	  443.76
     17.1700	  567.00	  563.95	-1747.20	  443.49
     17.2700	  568.00	  563.67	-1745.92	  443.22
     17.3700	  565.00	  563.39	-1748.64	  442.94
     17.4700	  552.00	  563.11	-1761.36	  442.66
     17.5700	  564.00	  562.83	-1749.08	  442.38
     17.6700	  524.00	  562.55	-1788.80	  442.10
     17.7700	  570.00	  562.27	-1742.52	  441.82
     17.8700	  584.00	  561.98	-1728.23	  441.54
     17.9700	  551.00	  561.70	-1760.95	  441.25
     18.0700	  536.00	  561.41	-1775.66	  440.97
     18.1700	  584.00	  561.22	-1727.47	  440.68
     18.2700	  527.00	  560.94	-1784.19	  440.39
     18.3700	  544.00	  560.65	-1766.90	  440.10
     18.4700	  595.00	  560.36	-1715.61	  439.81
     18.5700	  531.00	  560.07	-1779.32	  439.52
     18.6700	  524.00	  559.78	-1786.03	  439.23
     18.7700	  524.00	  559.49	-1785.74	  438.93
     18.8700	  586.00	  559.19	-1723.44	  438.64
     18.9700	  575.00	  558.98	-1734.23	  438.34
     19.0700	  545.00	  558.69	-1763.94	  438.04
     19.1700	  577.00	  558.39	-1731.64	  437.74
     19.2700	  580.00	  558.10	-1728.35	  437.44
     19.3700	  561.00	  557.81	-1747.06	  437.14
     19.4700	  573.00	  557.51	-1734.76	  436.84
     19.5700	  566.00	  557.21	-1741.46	  436.54
     19.6700	  545.00	  556.92	-1762.17	  436.23
     19.7700	  560.00	  556.62	-1746.87	  435.93
     19.8700	  548.00	  556.32	-1758.57	  435.62
     19.9700	  582.00	  556.03	-1724.28	  435.32
     20.0700	  536.00	  555.73	-1769.98	  435.01
     20.1700	  566.00	  555.43	-1739.68	  434.70
     20.2700	  549.00	  555.13	-1756.38	  434.40
     20.3700	  595.00	  554.83	-1710.08	  434.09
     20.4700	  551.00	  554.54	-1753.79	  433.78
     20.5700	  511.00	  554.24	-1793.49	  433.47
     20.6700	  554.00	  553.90	-1750.15	  433.16
     20.7700	  534.00	  553.60	-1769.85	  432.84
     20.8700	  591.00	  553.34	-1712.59	  432.53
     20.9700	  564.00	  553.05	-1739.30	  432.22
     21.0700	  566.00	  552.75	-1737.00	  431.91
     21.1700	  510.00	  552.45	-1792.70	  431.59
     21.2700	  515.00	  552.16	-1787.41	  431.28
     21.3700	  523.00	  551.87	-1779.12	  430.96
     21.4700	  587.00	  551.57	-1714.82	  430.65
     21.5700	  553.00	  551.28	-1748.53	  430.33
     21.6700	  578.00	  550.99	-1723.24	  430.02
     21.7700	  533.00	  550.70	-1767.95	  429.70
     21.8700	  531.00	  550.41	-1769.66	  429.38
     21.9700	  500.00	  550.13	-1800.38	  429.07
     22.0700	  561.00	  549.84	-1739.09	  428.75
     22.1700	  529.00	  549.56	-1770.81	  428.43
     22.2700	  579.00	  549.29	-1720.54	  428.11
     22.3700	  544.00	  549.01	-1755.26	  427.79
     22.4700	  595.00	  548.74	-1703.99	  427.48
     22.5700	  571.00	  548.48	-1727.73	  427.16
     22.6700	  554.00	  548.22	-1744.47	  426.84
     22.7700	  578.00	  547.97	-1720.22	  426.52
     22.8700	  577.00	  547.73	-1720.98	  426.20
     22.9700	  542.00	  547.50	-1755.75	  425.88
     23.0700	  529.00	  547.28	-1768.53	  425.56
     23.1700	  600.00	  547.08	-1697.33	  425.24
     23.2700	  512.00	  546.89	-1785.14	  424.92
     23.3700	  523.00	  546.74	-1773.99	  424.60
     23.4700	  566.00	  546.62	-1730.87	  424.28
     23.5700	  556.00	  546.55	-1740.80	  423.96
     23.6700	  560.00	  546.69	-1736.94	  423.64
     23.7700	  583.00	  546.80	-1714.05	  423.32
     23.8700	  554.00	  547.13	-1743.38	  423.01
     23.9700	  561.00	  547.89	-1737.14	  422.69
     24.0700	  500.00	  549.46	-1799.71	  422.37
     24.1700	  576.00	  552.47	-1726.72	  422.05
     24.2700	  574.00	  557.67	-1733.92	  421.73
     24.3700	  562.00	  565.95	-1754.20	  421.41
     24.4700	  589.00	  578.16	-1739.41	  421.09
     24.5700	  587.00	  594.35	-1757.60	  420.77
     24.6700	  621.00	  611.89	-1741.14	  420.46
     24.7700	  585.00	  623.81	-1789.06	  420.14
     24.8700	  682.00	  620.96	-1689.21	  419.82
     24.9700	  609.00	  602.24	-1743.49	  419.50
     25.0700	  592.00	  579.44	-1737.69	  419.19
     25.1700	  538.00	  562.10	-1774.35	  418.87
     25.2700	  539.00	  552.02	-1763.27	  418.55
     25.3700	  549.00	  547.09	-1748.34	  418.24
     25.4700	  558.00	  544.78	-1737.03	  417.92
     25.5700	  527.00	  543.55	-1766.80	  417.61
     25.6700	  521.00	  542.75	-1772.00	  417.29
     25.7700	  547.00	  542.17	-1745.42	  416.98
     25.8700	  577.00	  541.74	-1714.99	  416.66
     25.9700	  552.00	  541.40	-1739.65	  416.35
     26.0700	  551.00	  541.16	-1740.41	  416.04
     26.1700	  532.00	  541.00	-1759.25	  415.73
     26.2700	  506.00	  540.90	-1785.15	  415.41
     26.3700	  579.00	  540.89	-1712.14	  415.10
     26.4700	  547.00	  540.96	-1744.21	  414.79
     26.5700	  561.00	  541.12	-1730.37	  414.48
     26.6700	  501.00	  541.40	-1790.65	  414.17
     26.7700	  514.00	  541.80	-1778.05	  413.86
     26.8700	  557.00	  542.38	-1735.63	  413.55
     26.9700	  589.00	  543.18	-1704.43	  413.25
     27.0700	  559.00	  544.26	-1735.51	  412.94
     27.1700	  577.00	  545.78	-1719.03	  412.63
     27.2700	  578.00	  547.95	-1720.20	  412.33
     27.3700	  520.00	  551.27	-1781.52	  412.02
     27.4700	  554.00	  556.72	-1752.97	  411.72
     27.5700	  557.00	  566.05	-1759.30	  411.41
     27.6700	  551.00	  582.07	-1781.32	  411.11
     27.7700	  615.00	  608.46	-1743.71	  410.81
     27.8700	  612.00	  648.54	-1786.79	  410.50
     27.9700	  683.00	  702.70	-1769.95	  410.20
     28.0700	  781.00	  764.93	-1734.18	  409.90
     28.1700	  895.00	  819.69	-1674.94	  409.60
     28.2700	  934.00	  843.20	-1659.45	  409.30
     28.3700	  895.00	  820.69	-1675.94	  409.01
     28.4700	  806.00	  773.63	-1717.88	  408.71
     28.5700	  738.00	  738.96	-1751.21	  408.41
     28.6700	  738.00	  733.97	-1746.22	  408.12
     28.7700	  737.00	  754.43	-1767.68	  407.82
     28.8700	  769.00	  780.89	-1762.14	  407.53
     28.9700	  782.00	  785.88	-1754.13	  407.24
     29.0700	  745.00	  751.49	-1756.74	  406.95
     29.1700	  687.00	  691.93	-1755.18	  406.66
     29.2700	  633.00	  634.77	-1752.02	  406.37
     29.3700	  579.00	  593.46	-1764.71	  406.08
     29.4700	  616.00	  568.51	-1702.76	  405.79
     29.5700	  576.00	  555.06	-1729.31	  405.50
     29.6700	  619.00	  547.99	-1679.24	  405.22
     29.7700	  609.00	  544.01	-1685.26	  404.93
     29.8700	  575.00	  541.54	-1716.79	  404.65
     29.9700	  558.00	  540.00	-1732.25	  404.37
     30.0700	  539.00	  539.23	-1750.48	  404.08
     30.1700	  576.00	  539.41	-1713.66	  403.80
     30.2700	  607.00	  541.05	-1684.30	  403.52
     30.3700	  577.00	  545.20	-1718.45	  403.24
     30.4700	  592.00	  553.41	-1711.66	  402.97
     30.5700	  559.00	  567.33	-1758.58	  402.69
     30.6700	  567.00	  587.45	-1770.70	  402.42
     30.7700	  596.00	  611.32	-1765.57	  402.14
     30.8700	  606.00	  632.24	-1776.49	  401.87
     30.9700	  651.00	  639.93	-1739.18	  401.60
     31.0700	  583.00	  627.14	-1794.39	  401.33
     31.1700	  615.00	  600.53	-1735.78	  401.06
     31.2700	  559.00	  573.59	-1764.84	  400.79
     31.3700	  530.00	  553.58	-1773.83	  400.52
     31.4700	  573.00	  541.35	-1718.60	  400.25
     31.5700	  559.00	  534.80	-1726.05	  399.99
     31.6700	  580.00	  531.44	-1701.69	  399.73
     31.7700	  546.00	  529.59	-1733.84	  399.46
     31.8700	  529.00	  528.45	-1749.70	  399.20
     31.9700	  538.00	  527.67	-1739.92	  398.94
     32.0700	  555.00	  527.14	-1722.39	  398.68
     32.1700	  517.00	  526.79	-1760.04	  398.42
     32.2700	  553.00	  526.60	-1723.85	  398.17
     32.3700	  610.00	  526.57	-1666.82	  397.91
     32.4700	  528.00	  526.70	-1748.95	  397.66
     32.5700	  556.00	  527.01	-1721.26	  397.41
     32.6700	  554.00	  527.53	-1723.78	  397.16
     32.7700	  557.00	  528.31	-1721.56	  396.91
     32.8700	  532.00	  529.42	-1747.67	  396.66
     32.9700	  512.00	  530.99	-1769.24	  396.41
     33.0700	  507.00	  533.24	-1776.49	  396.16
     33.1700	  527.00	  536.67	-1759.92	  395.92
     33.2700	  545.00	  542.39	-1747.64	  395.68
     33.3700	  527.00	  552.78	-1776.03	  395.43
     33.4700	  598.00	  572.42	-1724.67	  395.19
     33.5700	  640.00	  608.46	-1718.71	  394.95
     33.6700	  675.00	  669.14	-1744.39	  394.72
     33.7700	  742.00	  758.00	-1766.25	  394.48
     33.8700	  941.00	  865.46	-1674.71	  394.24
     33.9700	  977.00	  963.00	-1736.25	  394.01
     34.0700	 1080.00	 1006.80	-1677.05	  393.78
     34.1700	  972.00	  964.11	-1742.36	  393.55
     34.2700	  902.00	  856.71	-1704.96	  393.32
     34.3700	  775.00	  740.11	-1715.36	  393.09
     34.4700	  644.00	  649.10	-1755.35	  392.86
     34.5700	  577.00	  591.28	-1764.53	  392.64
     34.6700	  582.00	  559.62	-1727.87	  392.41
     34.7700	  525.00	  543.56	-1768.81	  392.19
     34.8700	  546.00	  535.17	-1739.42	  391.97
     34.9700	  516.00	  530.18	-1764.43	  391.75
     35.0700	  525.00	  526.78	-1752.03	  391.53
     35.1700	  545.00	  524.21	-1729.46	  391.32
     35.2700	  504.00	  522.19	-1768.44	  391.10
     35.3700	  551.00	  520.55	-1719.80	  390.89
     35.4700	  505.00	  519.20	-1764.45	  390.68
     35.5700	  530.00	  518.06	-1738.31	  390.47
     35.6700	  502.00	  517.08	-1765.33	  390.26
     35.7700	  537.00	  516.24	-1729.49	  390.05
     35.8700	  502.00	  515.51	-1763.76	  389.84
     35.9700	  544.00	  514.85	-1721.10	  389.64
     36.0700	  515.00	  514.73	-1749.98	  389.44
     36.1700	  476.00	  514.21	-1788.46	  389.23
     36.2700	  523.00	  513.75	-1741.00	  389.03
     36.3700	  518.00	  513.33	-1745.58	  388.84
     36.4700	  481.00	  512.96	-1782.21	  388.64
     36.5700	  501.00	  512.62	-1761.87	  388.44
     36.6700	  501.00	  512.33	-1761.58	  388.25
     36.7700	  484.00	  512.08	-1778.33	  388.06
     36.8700	  500.00	  511.91	-1762.16	  387.87
     36.9700	  496.00	  511.87	-1766.12	  387.68
     37.0700	  551.00	  512.07	-1711.32	  387.49
     37.1700	  517.00	  512.74	-1745.99	  387.30
     37.2700	  501.00	  514.21	-1763.46	  387.12
     37.3700	  453.00	  516.75	-1814.00	  386.94
     37.4700	  540.00	  520.34	-1730.59	  386.75
     37.5700	  522.00	  524.34	-1752.59	  386.57
     37.6700	  535.00	  527.43	-1742.68	  386.40
     37.7700	  504.00	  528.17	-1774.42	  386.22
     37.8700	  512.00	  526.24	-1764.49	  386.04
     37.9700	  504.00	  522.91	-1769.16	  385.87
     38.0700	  514.00	  519.33	-1755.58	  385.70
     38.1700	  519.00	  515.98	-1747.23	  385.53
     38.2700	  496.00	  513.16	-1767.41	  385.36
     38.3700	  518.00	  511.03	-1743.28	  385.19
     38.4700	  482.00	  509.56	-1777.81	  385.03
     38.5700	  447.00	  508.60	-1811.85	  384.86
     38.6700	  521.00	  507.89	-1737.14	  384.70
     38.7700	  504.00	  507.47	-1753.72	  384.54
     38.8700	  472.00	  507.17	-1785.42	  384.38
     38.9700	  502.00	  506.91	-1755.17	  384.22
     39.0700	  517.00	  506.70	-1739.95	  384.07
     39.1700	  451.00	  506.42	-1805.67	  383.91
     39.2700	  538.00	  506.24	-1718.49	  383.76
     39.3700	  491.00	  506.20	-1765.45	  383.61
     39.4700	  539.00	  506.05	-1717.30	  383.46
     39.5700	  479.00	  505.90	-1777.15	  383.31
     39.6700	  518.00	  505.77	-1738.02	  383.17
     39.7700	  483.00	  505.65	-1772.90	  383.02
     39.8700	  475.00	  505.53	-1780.78	  382.88
     39.9700	  534.00	  505.42	-1721.67	  382.74
     40.0700	  510.00	  505.33	-1745.58	  382.60
     40.1700	  478.00	  505.24	-1777.49	  382.46
     40.2700	  519.00	  505.17	-1736.42	  382.32
     40.3700	  515.00	  505.10	-1740.35	  382.19
     40.4700	  499.00	  505.05	-1756.30	  382.05
     40.5700	  532.00	  505.02	-1723.27	  381.92
     40.6700	  490.00	  505.00	-1765.25	  381.79
     40.7700	  493.00	  505.00	-1762.25	  381.66
     40.8700	  517.00	  505.02	-1738.27	  381.54
     40.9700	  493.00	  505.07	-1762.32	  381.41
     41.0700	  505.00	  505.15	-1750.40	  381.29
     41.1700	  473.00	  505.24	-1782.49	  381.17
     41.2700	  473.00	  505.42	-1782.67	  381.05
     41.3700	  490.00	  505.65	-1765.90	  380.93
     41.4700	  512.00	  505.98	-1744.23	  380.81
     41.5700	  486.00	  506.85	-1771.10	  380.70
     41.6700	  494.00	  507.47	-1763.72	  380.58
     41.7700	  511.00	  508.41	-1747.66	  380.47
     41.8700	  510.00	  509.97	-1750.22	  380.36
     41.9700	  529.00	  512.83	-1734.08	  380.25
     42.0700	  536.00	  518.29	-1732.54	  380.14
     42.1700	  509.00	  528.37	-1769.62	  380.04
     42.2700	  510.00	  545.35	-1785.60	  379.93
     42.3700	  531.00	  570.44	-1789.69	  379.83
     42.4700	  628.00	  601.76	-1724.01	  379.73
     42.5700	  595.00	  632.43	-1787.68	  379.63
     42.6700	  584.00	  651.48	-1817.73	  379.53
     42.7700	  640.00	  648.94	-1759.19	  379.44
     42.8700	  577.00	  625.58	-1798.83	  379.34
     42.9700	  546.00	  592.80	-1797.05	  379.25
     43.0700	  554.00	  562.01	-1758.26	  379.16
     43.1700	  539.00	  538.77	-1750.02	  379.07
     43.2700	  542.00	  523.87	-1732.12	  378.98
     43.3700	  551.00	  515.45	-1714.70	  378.90
     43.4700	  516.00	  511.03	-1745.28	  378.81
     43.5700	  535.00	  508.72	-1723.97	  378.73
     43.6700	  507.00	  507.40	-1750.65	  378.65
     43.7700	  476.00	  506.72	-1780.97	  378.57
     43.8700	  526.00	  506.15	-1730.40	  378.49
     43.9700	  517.00	  505.69	-1738.94	  378.41
     44.0700	  507.00	  505.33	-1748.58	  378.34
     44.1700	  517.00	  505.06	-1738.31	  378.26
     44.2700	  499.00	  504.84	-1756.09	  378.19
     44.3700	  477.00	  504.68	-1777.93	  378.12
     44.4700	  512.00	  504.56	-1742.81	  378.05
     44.5700	  510.00	  504.34	-1744.59	  377.99
     44.6700	  515.00	  504.29	-1739.54	  377.92
     44.7700	  540.00	  504.27	-1714.52	  377.86
     44.8700	  481.00	  504.27	-1773.52	  377.79
     44.9700	  549.00	  504.30	-1705.55	  377.73
     45.0700	  539.00	  504.35	-1715.60	  377.67
     45.1700	  473.00	  504.42	-1781.67	  377.62
     45.2700	  518.00	  504.69	-1736.94	  377.56
     45.3700	  552.00	  504.81	-1703.06	  377.50
     45.4700	  506.00	  504.95	-1749.20	  377.45
     45.5700	  561.00	  505.11	-1694.36	  377.40
     45.6700	  523.00	  505.29	-1732.54	  377.35
     45.7700	  484.00	  505.51	-1771.76	  377.30
     45.8700	  474.00	  505.75	-1782.00	  377.25
     45.9700	  529.00	  506.02	-1727.27	  377.21
     46.0700	  498.00	  506.33	-1758.58	  377.17
     46.1700	  506.00	  506.67	-1750.92	  377.12
     46.2700	  510.00	  507.06	-1747.31	  377.08
     46.3700	  502.00	  507.51	-1755.76	  377.04
     46.4700	  514.00	  508.01	-1744.26	  377.01
     46.5700	  543.00	  508.58	-1715.83	  376.97
     46.6700	  503.00	  509.25	-1756.50	  376.94
     46.7700	  547.00	  510.03	-1713.28	  376.90
     46.8700	  495.00	  511.00	-1766.25	  376.87
     46.9700	  484.00	  512.29	-1778.54	  376.84
     47.0700	  479.00	  514.18	-1785.43	  376.81
     47.1700	  514.00	  517.32	-1753.57	  376.78
     47.2700	  545.00	  522.48	-1727.73	  376.76
     47.3700	  542.00	  530.94	-1739.19	  376.73
     47.4700	  544.00	  543.77	-1750.02	  376.71
     47.5700	  572.00	  561.07	-1739.32	  376.69
     47.6700	  576.00	  581.05	-1755.30	  376.67
     47.7700	  580.00	  599.48	-1769.73	  376.65
     47.8700	  626.00	  610.36	-1734.61	  376.63
     47.9700	  614.00	  609.15	-1745.40	  376.62
     48.0700	  578.00	  597.04	-1769.29	  376.61
     48.1700	  580.00	  580.10	-1750.35	  376.59
     48.2700	  567.00	  564.01	-1747.26	  376.58
     48.3700	  512.00	  552.05	-1790.30	  376.57
     48.4700	  511.00	  545.13	-1784.38	  376.56
     48.5700	  526.00	  542.65	-1766.90	  376.56
     48.6700	  532.00	  543.51	-1761.76	  376.55
     48.7700	  544.00	  546.77	-1753.02	  376.55
     48.8700	  495.00	  551.91	-1807.16	  376.54
     48.9700	  608.00	  558.98	-1701.23	  376.54
     49.0700	  577.00	  568.56	-1741.81	  376.54
     49.1700	  590.00	  582.26	-1742.51	  376.55
     49.2700	  650.00	  603.40	-1703.65	  376.55
     49.3700	  624.00	  638.45	-1764.70	  376.55
     49.4700	  683.00	  698.80	-1766.05	  376.56
     49.5700	  748.00	  799.82	-1802.07	  376.57
     49.6700	  897.00	  960.34	-1813.59	  376.57
     49.7700	 1065.00	 1194.44	-1879.69	  376.58
     49.8700	 1449.00	 1500.75	-1802.00	  376.59
     49.9700	 1900.00	 1850.63	-1700.88	  376.61
     50.0700	 2179.00	 2178.70	-1749.95	  376.62
     50.1700	 2554.00	 2387.99	-1584.24	  376.64
     50.2700	 2447.00	 2392.08	-1695.33	  376.65
     50.3700	 2243.00	 2187.04	-1694.29	  376.67
     50.4700	 1849.00	 1859.17	-1760.42	  376.69
     50.5700	 1396.00	 1510.47	-1864.72	  376.71
     50.6700	 1103.00	 1208.19	-1855.44	  376.73
     50.7700	  835.00	  981.36	-1896.61	  376.75
     50.8700	  689.00	  830.70	-1891.95	  376.78
     50.9700	  690.00	  740.30	-1800.55	  376.80
     51.0700	  621.00	  688.74	-1817.99	  376.83
     51.1700	  633.00	  656.90	-1774.15	  376.86
     51.2700	  631.00	  632.58	-1751.83	  376.89
     51.3700	  610.00	  611.10	-1751.35	  376.92
     51.4700	  563.00	  592.17	-1779.42	  376.95
     51.5700	  565.00	  576.54	-1761.79	  376.98
     51.6700	  526.00	  564.61	-1788.86	  377.02
     51.7700	  581.00	  556.16	-1725.41	  377.05
     51.8700	  551.00	  550.53	-1749.78	  377.09
     51.9700	  510.00	  546.94	-1787.19	  377.13
     52.0700	  580.00	  544.81	-1715.06	  377.17
     52.1700	  553.00	  543.98	-1741.23	  377.21
     52.2700	  545.00	  543.88	-1749.13	  377.25
     52.3700	  543.00	  544.87	-1752.12	  377.29
     52.4700	  548.00	  547.38	-1749.63	  377.34
     52.5700	  581.00	  552.55	-1721.80	  377.38
     52.6700	  593.00	  562.64	-1719.89	  377.43
     52.7700	  568.00	  581.73	-1763.98	  377.47
     52.8700	  628.00	  615.89	-1738.14	  377.52
     52.9700	  679.00	  672.41	-1743.66	  377.57
     53.0700	  864.00	  757.04	-1643.29	  377.62
     53.1700	  884.00	  869.77	-1736.02	  377.67
     53.2700	 1054.00	 1000.29	-1696.54	  377.73
     53.3700	 1131.00	 1125.12	-1744.37	  377.78
     53.4700	 1217.00	 1209.76	-1743.01	  377.84
     53.5700	 1192.00	 1221.96	-1780.21	  377.89
     53.6700	 1112.00	 1155.87	-1794.12	  377.95
     53.7700	  982.00	 1038.31	-1806.56	  378.01
     53.8700	  887.00	  906.13	-1769.38	  378.07
     53.9700	  773.00	  786.76	-1764.01	  378.13
     54.0700	  706.00	  694.08	-1738.33	  378.19
     54.1700	  611.00	  630.52	-1769.77	  378.25
     54.2700	  612.00	  591.35	-1729.60	  378.32
     54.3700	  545.00	  569.30	-1774.55	  378.38
     54.4700	  570.00	  557.65	-1737.90	  378.45
     54.5700	  568.00	  551.82	-1734.07	  378.52
     54.6700	  585.00	  549.04	-1714.29	  378.58
     54.7700	  553.00	  547.95	-1745.20	  378.65
     54.8700	  560.00	  547.93	-1738.18	  378.72
     54.9700	  575.00	  548.74	-1723.99	  378.79
     55.0700	  550.00	  550.29	-1750.54	  378.86
     55.1700	  581.00	  552.62	-1721.87	  378.94
     55.2700	  591.00	  555.74	-1714.99	  379.01
     55.3700	  581.00	  559.80	-1729.05	  379.09
     55.4700	  557.00	  565.01	-1758.26	  379.16
     55.5700	  600.00	  571.78	-1722.03	  379.24
     55.6700	  540.00	  580.92	-1791.17	  379.32
     55.7700	  582.00	  594.09	-1762.34	  379.39
     55.8700	  571.00	  614.66	-1793.91	  379.47
     55.9700	  644.00	  648.82	-1755.07	  379.55
     56.0700	  715.00	  706.96	-1742.21	  379.64
     56.1700	  774.00	  803.99	-1780.24	  379.72
     56.2700	  916.00	  957.66	-1791.91	  379.80
     56.3700	 1130.00	 1183.18	-1803.43	  379.88
     56.4700	 1350.00	 1484.82	-1885.07	  379.97
     56.5700	 1771.00	 1846.30	-1825.55	  380.05
     56.6700	 2172.00	 2222.90	-1801.15	  380.14
     56.7700	 2450.00	 2539.73	-1839.98	  380.23
     56.8700	 2527.00	 2705.44	-1928.69	  380.32
     56.9700	 2721.00	 2658.55	-1687.80	  380.40
     57.0700	 2375.00	 2417.12	-1792.37	  380.49
     57.1700	 2028.00	 2064.09	-1786.34	  380.58
     57.2700	 1627.00	 1688.33	-1811.58	  380.68
     57.3700	 1335.00	 1352.13	-1767.38	  380.77
     57.4700	 1065.00	 1086.91	-1772.16	  380.86
     57.5700	  904.00	  898.89	-1745.14	  380.95
     57.6700	  772.00	  778.09	-1756.34	  381.05
     57.7700	  722.00	  707.95	-1736.20	  381.14
     57.8700	  688.00	  672.80	-1735.05	  381.24
     57.9700	  697.00	  661.55	-1714.80	  381.34
     58.0700	  673.00	  668.27	-1745.52	  381.43
     58.1700	  741.00	  690.95	-1700.20	  381.53
     58.2700	  788.00	  729.63	-1691.88	  381.63
     58.3700	  878.00	  784.51	-1656.76	  381.73
     58.4700	  918.00	  854.29	-1686.54	  381.83
     58.5700	 1034.00	  934.71	-1650.96	  381.93
     58.6700	 1114.00	 1017.95	-1654.20	  382.03
     58.7700	 1270.00	 1094.79	-1575.04	  382.13
     58.8700	 1430.00	 1158.85	-1479.10	  382.24
     58.9700	 1382.00	 1206.47	-1574.72	  382.34
     59.0700	 1494.00	 1232.81	-1489.06	  382.44
     59.1700	 1499.00	 1233.48	-1484.73	  382.55
     59.2700	 1408.00	 1211.91	-1554.16	  382.65
     59.3700	 1295.00	 1179.94	-1635.19	  382.76
     59.4700	 1215.00	 1149.92	-1685.17	  382.86
     59.5700	 1198.00	 1130.44	-1682.69	  382.97
     59.6700	 1143.00	 1129.04	-1736.29	  383.08
     59.7700	 1147.00	 1154.37	-1757.62	  383.19
     59.8700	 1201.00	 1211.67	-1760.92	  383.30
     59.9700	 1321.00	 1296.72	-1725.97	  383.40
     60.0700	 1472.00	 1392.95	-1671.20	  383.51
     60.1700	 1589.00	 1472.06	-1633.31	  383.62
     60.2700	 1522.00	 1501.21	-1729.46	  383.73
     60.3700	 1495.00	 1459.94	-1715.19	  383.85
     60.4700	 1543.00	 1354.98	-1562.23	  383.96
     60.5700	 1233.00	 1213.35	-1730.60	  384.07
     60.6700	 1089.00	 1064.16	-1725.41	  384.18
     60.7700	  902.00	  928.71	-1776.96	  384.30
     60.8700	  836.00	  819.01	-1733.26	  384.41
     60.9700	  660.00	  739.14	-1829.39	  384.52
     61.0700	  652.00	  687.91	-1786.16	  384.64
     61.1700	  657.00	  661.93	-1755.18	  384.75
     61.2700	  681.00	  658.40	-1727.65	  384.87
     61.3700	  667.00	  676.77	-1760.02	  384.98
     61.4700	  700.00	  718.96	-1769.21	  385.10
     61.5700	  806.00	  788.07	-1732.32	  385.22
     61.6700	  817.00	  886.00	-1819.25	  385.33
     61.7700	 1002.00	 1010.48	-1758.73	  385.45
     61.8700	 1098.00	 1152.38	-1804.63	  385.57
     61.9700	 1191.00	 1294.10	-1853.35	  385.69
     62.0700	 1317.00	 1409.46	-1842.71	  385.81
     62.1700	 1338.00	 1468.83	-1881.08	  385.92
     62.2700	 1296.00	 1452.84	-1907.09	  386.04
     62.3700	 1295.00	 1366.33	-1821.58	  386.16
     62.4700	 1219.00	 1234.59	-1765.84	  386.28
     62.5700	  992.00	 1087.15	-1845.40	  386.40
     62.6700	  870.00	  947.03	-1827.28	  386.52
     62.7700	  746.00	  828.19	-1832.44	  386.64
     62.8700	  703.00	  736.41	-1783.66	  386.76
     62.9700	  602.00	  671.05	-1819.30	  386.89
     63.0700	  582.00	  627.79	-1796.04	  387.01
     63.1700	  560.00	  600.92	-1791.17	  387.13
     63.2700	  613.00	  585.23	-1722.48	  387.25
     63.3700	  581.00	  576.86	-1746.11	  387.37
     63.4700	  578.00	  573.54	-1745.79	  387.49
     63.5700	  571.00	  574.50	-1753.75	  387.62
     63.6700	  622.00	  580.20	-1708.45	  387.74
     63.7700	  633.00	  592.08	-1709.33	  387.86
     63.8700	  664.00	  612.28	-1698.53	  387.99
     63.9700	  687.00	  643.03	-1706.28	  388.11
     64.0700	  740.00	  685.87	-1696.12	  388.23
     64.1700	  778.00	  740.68	-1712.93	  388.36
     64.2700	  887.00	  804.66	-1667.91	  388.48
     64.3700	  907.00	  871.70	-1714.95	  388.60
     64.4700	  949.00	  931.88	-1733.13	  388.73
     64.5700	 1056.00	  974.75	-1669.00	  388.85
     64.6700	 1079.00	  990.91	-1662.16	  388.97
     64.7700	 1073.00	  978.04	-1655.29	  389.10
     64.8700	 1011.00	  940.65	-1679.90	  389.22
     64.9700	  948.00	  887.62	-1689.87	  389.35
     65.0700	  887.00	  828.92	-1692.17	  389.47
     65.1700	  803.00	  772.71	-1719.96	  389.60
     65.2700	  730.00	  723.76	-1744.01	  389.72
     65.3700	  715.00	  683.50	-1718.75	  389.85
     65.4700	  602.00	  651.29	-1799.54	  389.97
     65.5700	  585.00	  625.92	-1791.17	  390.09
     65.6700	  562.00	  606.26	-1794.51	  390.22
     65.7700	  584.00	  591.39	-1757.64	  390.34
     65.8700	  570.00	  580.53	-1760.78	  390.47
     65.9700	  536.00	  573.02	-1787.27	  390.59
     66.0700	  539.00	  568.31	-1779.56	  390.72
     66.1700	  551.00	  565.90	-1765.15	  390.84
     66.2700	  545.00	  565.39	-1770.64	  390.96
     66.3700	  537.00	  566.45	-1779.70	  391.09
     66.4700	  546.00	  568.91	-1773.16	  391.21
     66.5700	  547.00	  572.92	-1776.17	  391.34
     66.6700	  525.00	  578.66	-1803.91	  391.46
     66.7700	  559.00	  587.15	-1778.40	  391.59
     66.8700	  562.00	  600.17	-1788.42	  391.71
     66.9700	  573.00	  620.78	-1798.03	  391.83
     67.0700	  603.00	  653.81	-1801.06	  391.96
     67.1700	  695.00	  706.11	-1761.36	  392.08
     67.2700	  708.00	  786.36	-1828.61	  392.20
     67.3700	  899.00	  903.82	-1755.07	  392.33
     67.4700	 1088.00	 1066.01	-1728.26	  392.45
     67.5700	 1240.00	 1275.47	-1785.72	  392.57
     67.6700	 1522.00	 1526.32	-1754.57	  392.69
     67.7700	 1888.00	 1801.48	-1663.73	  392.82
     67.8700	 2082.00	 2071.31	-1739.56	  392.94
     67.9700	 2283.00	 2294.49	-1761.74	  393.06
     68.0700	 2474.00	 2424.98	-1701.23	  393.18
     68.1700	 2477.00	 2429.27	-1702.52	  393.30
     68.2700	 2310.00	 2306.15	-1746.40	  393.42
     68.3700	 2014.00	 2087.71	-1823.96	  393.54
     68.4700	 1848.00	 1819.70	-1721.95	  393.67
     68.5700	 1519.00	 1544.14	-1775.39	  393.79
     68.6700	 1352.00	 1291.52	-1689.77	  393.91
     68.7700	 1058.00	 1079.70	-1771.95	  394.03
     68.8700	  906.00	  915.03	-1759.28	  394.14
     68.9700	  792.00	  795.46	-1753.71	  394.26
     69.0700	  664.00	  713.64	-1799.89	  394.38
     69.1700	  665.00	  660.35	-1745.60	  394.50
     69.2700	  669.00	  626.82	-1708.07	  394.62
     69.3700	  579.00	  606.06	-1777.31	  394.74
     69.4700	  597.00	  593.11	-1746.36	  394.85
     69.5700	  595.00	  584.79	-1740.04	  394.97
     69.6700	  560.00	  579.23	-1769.48	  395.09
     69.7700	  598.00	  575.39	-1727.64	  395.20
     69.8700	  589.00	  572.72	-1733.97	  395.32
     69.9700	  552.00	  570.96	-1769.21	  395.44
     70.0700	  524.00	  569.95	-1796.20	  395.55
     70.1700	  553.00	  569.69	-1766.94	  395.67
     70.2700	  581.00	  570.14	-1739.39	  395.78
     70.3700	  587.00	  571.43	-1734.68	  395.89
     70.4700	  552.00	  573.81	-1772.06	  396.01
     70.5700	  589.00	  577.76	-1739.01	  396.12
     70.6700	  598.00	  584.17	-1736.42	  396.23
     70.7700	  601.00	  594.57	-1743.82	  396.34
     70.8700	  577.00	  611.38	-1784.63	  396.46
     70.9700	  593.00	  638.20	-1795.45	  396.57
     71.0700	  678.00	  679.74	-1751.99	  396.68
     71.1700	  735.00	  741.65	-1756.90	  396.79
     71.2700	  816.00	  829.57	-1763.82	  396.90
     71.3700	  958.00	  947.65	-1739.90	  397.01
     71.4700	 1054.00	 1096.77	-1793.02	  397.11
     71.5700	 1207.00	 1272.55	-1815.80	  397.22
     71.6700	 1456.00	 1464.89	-1759.14	  397.33
     71.7700	 1623.00	 1654.05	-1781.30	  397.44
     71.8700	 1797.00	 1816.05	-1769.30	  397.54
     71.9700	 1894.00	 1922.79	-1779.04	  397.65
     72.0700	 1864.00	 1951.06	-1837.31	  397.75
     72.1700	 1910.00	 1894.15	-1734.40	  397.86
     72.2700	 1784.00	 1765.24	-1731.49	  397.96
     72.3700	 1667.00	 1591.41	-1674.66	  398.06
     72.4700	 1429.00	 1399.79	-1721.04	  398.17
     72.5700	 1312.00	 1212.89	-1651.14	  398.27
     72.6700	 1094.00	 1046.11	-1702.36	  398.37
     72.7700	  979.00	  907.75	-1679.00	  398.47
     72.8700	  901.00	  800.01	-1649.26	  398.57
     72.9700	  840.00	  720.66	-1630.91	  398.67
     73.0700	  767.00	  664.94	-1648.19	  398.77
     73.1700	  686.00	  627.23	-1691.48	  398.87
     73.2700	  722.00	  602.33	-1630.58	  398.96
     73.3700	  694.00	  586.04	-1642.29	  399.06
     73.4700	  643.00	  575.29	-1682.54	  399.16
     73.5700	  557.00	  568.06	-1761.31	  399.25
     73.6700	  609.00	  563.11	-1704.36	  399.35
     73.7700	  559.00	  559.70	-1750.95	  399.44
     73.8700	  618.00	  557.41	-1689.66	  399.53
     73.9700	  597.00	  556.01	-1709.26	  399.62
     74.0700	  592.00	  555.32	-1713.57	  399.72
     74.1700	  616.00	  555.17	-1689.42	  399.81
     74.2700	  610.00	  555.40	-1695.65	  399.90
     74.3700	  644.00	  555.79	-1662.04	  399.99
     74.4700	  630.00	  556.09	-1676.34	  400.07
     74.5700	  609.00	  556.07	-1697.32	  400.16
     74.6700	  597.00	  555.53	-1708.78	  400.25
     74.7700	  613.00	  554.46	-1691.71	  400.33
     74.8700	  655.00	  552.97	-1648.22	  400.42
     74.9700	  609.00	  551.32	-1692.57	  400.50
     75.0700	  582.00	  549.81	-1718.06	  400.59
     75.1700	  562.00	  548.70	-1736.95	  400.67
     75.2700	  553.00	  548.44	-1745.69	  400.75
     75.3700	  524.00	  549.37	-1775.62	  400.83
     75.4700	  579.00	  551.89	-1723.14	  400.91
     75.5700	  543.00	  556.52	-1763.77	  400.99
     75.6700	  605.00	  563.94	-1709.19	  401.07
     75.7700	  569.00	  574.57	-1755.82	  401.15
     75.8700	  576.00	  588.70	-1762.95	  401.23
     75.9700	  590.00	  606.29	-1766.54	  401.30
     76.0700	  615.00	  626.79	-1762.04	  401.38
     76.1700	  699.00	  649.01	-1700.26	  401.45
     76.2700	  654.00	  671.11	-1767.36	  401.52
     76.3700	  675.00	  690.63	-1765.88	  401.59
     76.4700	  711.00	  704.75	-1744.00	  401.67
     76.5700	  689.00	  710.93	-1772.18	  401.74
     76.6700	  739.00	  707.88	-1719.13	  401.81
     76.7700	  662.00	  696.20	-1784.45	  401.87
     76.8700	  700.00	  678.09	-1728.34	  401.94
     76.9700	  660.00	  656.19	-1746.44	  402.01
     77.0700	  607.00	  633.48	-1776.73	  402.07
     77.1700	  576.00	  611.85	-1786.10	  402.14
     77.2700	  565.00	  592.70	-1777.95	  402.20
     77.3700	  568.00	  576.80	-1759.05	  402.26
     77.4700	  543.00	  564.31	-1771.56	  402.32
     77.5700	  506.00	  555.00	-1799.25	  402.38
     77.6700	  539.00	  548.37	-1759.62	  402.44
     77.7700	  524.00	  543.84	-1770.09	  402.50
     77.8700	  506.00	  540.84	-1785.09	  402.56
     77.9700	  518.00	  538.90	-1771.15	  402.62
     78.0700	  518.00	  537.66	-1769.91	  402.67
     78.1700	  518.00	  536.87	-1769.12	  402.73
     78.2700	  493.00	  536.36	-1793.61	  402.78
     78.3700	  534.00	  536.05	-1752.30	  402.83
     78.4700	  518.00	  535.86	-1768.11	  402.88
     78.5700	  532.00	  535.79	-1754.04	  402.93
     78.6700	  488.00	  535.82	-1798.07	  402.98
     78.7700	  500.00	  535.97	-1786.22	  403.03
     78.8700	  506.00	  536.25	-1780.50	  403.08
     78.9700	  527.00	  536.71	-1759.96	  403.12
     79.0700	  523.00	  537.39	-1764.64	  403.17
     79.1700	  492.00	  538.34	-1796.59	  403.21
     79.2700	  543.00	  539.44	-1746.69	  403.25
     79.3700	  529.00	  541.09	-1762.34	  403.29
     79.4700	  520.00	  543.18	-1773.43	  403.33
     79.5700	  559.00	  545.75	-1737.00	  403.37
     79.6700	  546.00	  548.86	-1753.11	  403.41
     79.7700	  536.00	  552.59	-1766.84	  403.45
     79.8700	  517.00	  557.02	-1790.27	  403.48
     79.9700	  508.00	  562.31	-1804.56	  403.52
     80.0700	  554.00	  568.64	-1764.89	  403.55
     80.1700	  563.00	  576.30	-1763.55	  403.58
     80.2700	  546.00	  585.62	-1789.87	  403.62
     80.3700	  603.00	  596.93	-1744.18	  403.65
     80.4700	  584.00	  610.38	-1776.63	  403.67
     80.5700	  617.00	  625.90	-1759.15	  403.70
     80.6700	  638.00	  643.09	-1755.34	  403.73
     80.7700	  617.00	  661.17	-1794.42	  403.75
     80.8700	  694.00	  679.01	-1735.26	  403.78
     80.9700	  739.00	  695.30	-1706.55	  403.80
     81.0700	  746.00	  708.81	-1713.06	  403.82
     81.1700	  702.00	  718.52	-1766.77	  403.84
     81.2700	  742.00	  723.74	-1731.99	  403.86
     81.3700	  753.00	  724.13	-1721.38	  403.88
     81.4700	  703.00	  719.75	-1767.00	  403.90
     81.5700	  718.00	  711.05	-1743.30	  403.91
     81.6700	  794.00	  698.73	-1654.98	  403.93
     81.7700	  768.00	  683.61	-1665.86	  403.94
     81.8700	  684.00	  666.70	-1732.95	  403.95
     81.9700	  721.00	  649.05	-1678.30	  403.96
     82.0700	  716.00	  631.79	-1666.04	  403.97
     82.1700	  648.00	  615.67	-1717.92	  403.98
     82.2700	  641.00	  601.22	-1710.47	  403.99
     82.3700	  645.00	  588.67	-1693.92	  403.99
     82.4700	  576.00	  578.13	-1752.38	  404.00
     82.5700	  542.00	  569.54	-1777.79	  404.00
     82.6700	  540.00	  562.92	-1773.17	  404.00
     82.7700	  567.00	  558.12	-1741.37	  404.00
     82.8700	  568.00	  555.05	-1737.30	  404.00
     82.9700	  538.00	  553.59	-1765.84	  404.00
     83.0700	  536.00	  553.64	-1767.89	  404.00
     83.1700	  547.00	  555.12	-1758.37	  403.99
     83.2700	  525.00	  557.89	-1783.14	  403.99
     83.3700	  563.00	  561.78	-1749.03	  403.98
     83.4700	  540.00	  566.53	-1776.78	  403.97
     83.5700	  573.00	  571.80	-1749.05	  403.96
     83.6700	  570.00	  577.15	-1757.40	  403.95
     83.7700	  523.00	  582.04	-1809.29	  403.94
     83.8700	  560.00	  585.86	-1776.11	  403.93
     83.9700	  564.00	  588.07	-1774.32	  403.91
     84.0700	  548.00	  588.26	-1790.51	  403.90
     84.1700	  577.00	  586.36	-1759.61	  403.88
     84.2700	  589.00	  582.64	-1743.89	  403.86
     84.3700	  570.00	  577.60	-1757.85	  403.84
     84.4700	  585.00	  571.79	-1737.04	  403.82
     84.5700	  553.00	  565.75	-1763.00	  403.80
     84.6700	  551.00	  559.89	-1759.14	  403.77
     84.7700	  545.00	  554.54	-1759.79	  403.75
     84.8700	  544.00	  549.90	-1756.15	  403.72
     84.9700	  513.00	  546.05	-1783.30	  403.69
     85.0700	  524.00	  543.01	-1769.26	  403.66
     85.1700	  569.00	  540.71	-1721.96	  403.63
     85.2700	  547.00	  539.07	-1742.32	  403.60
     85.3700	  495.00	  537.99	-1793.24	  403.57
     85.4700	  525.00	  537.36	-1762.61	  403.53
     85.5700	  545.00	  537.11	-1742.36	  403.50
     85.6700	  534.00	  537.19	-1753.44	  403.46
     85.7700	  553.00	  537.59	-1734.84	  403.42
     85.8700	  564.00	  538.34	-1724.59	  403.38
     85.9700	  553.00	  539.50	-1736.75	  403.34
     86.0700	  506.00	  541.19	-1785.44	  403.30
     86.1700	  538.00	  543.54	-1755.79	  403.26
     86.2700	  511.00	  546.73	-1785.98	  403.21
     86.3700	  534.00	  550.93	-1767.18	  403.16
     86.4700	  522.00	  556.31	-1784.56	  403.12
     86.5700	  541.00	  563.00	-1772.25	  403.07
     86.6700	  497.00	  571.00	-1824.25	  403.02
     86.7700	  610.00	  579.91	-1720.16	  402.97
     86.8700	  600.00	  590.10	-1740.35	  402.91
     86.9700	  590.00	  600.78	-1761.03	  402.86
     87.0700	  635.00	  611.32	-1726.57	  402.80
     87.1700	  663.00	  620.93	-1708.18	  402.74
     87.2700	  646.00	  628.72	-1732.97	  402.69
     87.3700	  655.00	  633.81	-1729.06	  402.63
     87.4700	  590.00	  635.55	-1795.80	  402.56
     87.5700	  629.00	  633.72	-1754.97	  402.50
     87.6700	  640.00	  628.63	-1738.88	  402.44
     87.7700	  628.00	  621.00	-1743.25	  402.37
     87.8700	  632.00	  611.79	-1730.04	  402.31
     87.9700	  668.00	  601.98	-1684.23	  402.24
     88.0700	  642.00	  592.44	-1700.69	  402.17
     88.1700	  632.00	  583.90	-1702.15	  402.10
     88.2700	  600.00	  576.92	-1727.17	  402.03
     88.3700	  579.00	  571.87	-1743.12	  401.95
     88.4700	  582.00	  568.90	-1737.15	  401.88
     88.5700	  577.00	  568.02	-1741.27	  401.80
     88.6700	  632.00	  569.05	-1687.30	  401.73
     88.7700	  601.00	  571.71	-1720.96	  401.65
     88.8700	  610.00	  575.58	-1715.83	  401.57
     88.9700	  639.00	  580.18	-1691.43	  401.49
     89.0700	  595.00	  584.95	-1740.20	  401.40
     89.1700	  606.00	  589.31	-1733.56	  401.32
     89.2700	  568.00	  592.67	-1774.92	  401.24
     89.3700	  601.00	  594.53	-1743.78	  401.15
     89.4700	  616.00	  594.56	-1728.81	  401.06
     89.5700	  613.00	  592.69	-1729.94	  400.97
     89.6700	  612.00	  589.15	-1727.40	  400.88
     89.7700	  593.00	  584.32	-1741.57	  400.79
     89.8700	  574.00	  578.67	-1754.92	  400.70
     89.9700	  576.00	  572.66	-1746.91	  400.60
     90.0700	  569.00	  566.69	-1747.94	  400.51
     90.1700	  502.00	  561.08	-1809.33	  400.41
     90.2700	  545.00	  556.04	-1761.29	  400.31
     90.3700	  513.00	  551.72	-1788.97	  400.21
     90.4700	  518.00	  548.17	-1780.42	  400.11
     90.5700	  512.00	  545.37	-1783.62	  400.01
     90.6700	  515.00	  543.28	-1778.53	  399.90
     90.7700	  482.00	  541.82	-1810.07	  399.80
     90.8700	  548.00	  540.89	-1743.14	  399.69
     90.9700	  522.00	  540.43	-1768.68	  399.59
     91.0700	  528.00	  540.37	-1762.62	  399.48
     91.1700	  497.00	  540.70	-1793.95	  399.37
     91.2700	  522.00	  541.41	-1769.66	  399.26
     91.3700	  522.00	  542.56	-1770.81	  399.14
     91.4700	  517.00	  544.23	-1777.48	  399.03
     91.5700	  534.00	  546.56	-1762.81	  398.92
     91.6700	  523.00	  549.71	-1776.96	  398.80
     91.7700	  533.00	  553.87	-1771.12	  398.68
     91.8700	  488.00	  559.04	-1821.29	  398.56
     91.9700	  558.00	  565.88	-1758.13	  398.44
     92.0700	  542.00	  574.34	-1782.59	  398.32
     92.1700	  580.00	  584.56	-1754.81	  398.20
     92.2700	  589.00	  596.59	-1757.84	  398.08
     92.3700	  637.00	  610.37	-1723.62	  397.95
     92.4700	  620.00	  625.72	-1755.97	  397.83
     92.5700	  663.00	  642.32	-1729.57	  397.70
     92.6700	  656.00	  659.71	-1753.96	  397.57
     92.7700	  669.00	  677.30	-1758.55	  397.44
     92.8700	  732.00	  694.37	-1712.62	  397.31
     92.9700	  728.00	  710.21	-1732.46	  397.18
     93.0700	  763.00	  724.21	-1711.46	  397.04
     93.1700	  784.00	  736.06	-1702.31	  396.91
     93.2700	  805.00	  745.81	-1691.06	  396.77
     93.3700	  810.00	  753.89	-1694.14	  396.64
     93.4700	  846.00	  760.90	-1665.15	  396.50
     93.5700	  784.00	  767.50	-1733.75	  396.36
     93.6700	  841.00	  774.25	-1683.50	  396.22
     93.7700	  783.00	  781.68	-1748.93	  396.08
     93.8700	  817.00	  790.27	-1723.52	  395.93
     93.9700	  794.00	  800.49	-1756.74	  395.79
     94.0700	  871.00	  812.70	-1691.95	  395.65
     94.1700	  876.00	  827.04	-1701.29	  395.50
     94.2700	  910.00	  843.29	-1683.54	  395.35
     94.3700	  844.00	  860.80	-1767.05	  395.21
     94.4700	  831.00	  878.43	-1797.68	  395.06
     94.5700	  930.00	  894.66	-1714.91	  394.91
     94.6700	  891.00	  907.68	-1766.93	  394.75
     94.7700	  888.00	  915.60	-1777.85	  394.60
     94.8700	  943.00	  916.88	-1724.13	  394.45
     94.9700	  981.00	  910.63	-1679.88	  394.29
     95.0700	  937.00	  896.96	-1710.21	  394.14
     95.1700	  890.00	  876.89	-1737.14	  393.98
     95.2700	  831.00	  852.10	-1771.35	  393.82
     95.3700	  814.00	  824.56	-1760.81	  393.66
     95.4700	  766.00	  796.32	-1780.57	  393.50
     95.5700	  764.00	  769.32	-1755.57	  393.34
     95.6700	  763.00	  745.37	-1732.62	  393.18
     95.7700	  727.00	  726.07	-1749.32	  393.02
     95.8700	  686.00	  712.86	-1777.11	  392.85
     95.9700	  658.00	  707.00	-1799.25	  392.69
     96.0700	  723.00	  709.61	-1736.86	  392.52
     96.1700	  682.00	  721.57	-1789.82	  392.36
     96.2700	  743.00	  743.59	-1750.84	  392.19
     96.3700	  774.00	  776.10	-1752.35	  392.02
     96.4700	  787.00	  819.18	-1782.43	  391.85
     96.5700	  886.00	  872.49	-1736.74	  391.68
     96.6700	  870.00	  935.11	-1815.36	  391.51
     96.7700	 1044.00	 1005.50	-1711.75	  391.34
     96.8700	 1084.00	 1081.43	-1747.68	  391.16
     96.9700	 1166.00	 1159.92	-1744.17	  390.99
     97.0700	 1169.00	 1237.37	-1818.62	  390.81
     97.1700	 1315.00	 1309.54	-1744.79	  390.64
     97.2700	 1354.00	 1371.84	-1768.09	  390.46
     97.3700	 1386.00	 1419.72	-1783.97	  390.28
     97.4700	 1484.00	 1449.32	-1715.57	  390.10
     97.5700	 1501.00	 1458.17	-1707.42	  389.92
     97.6700	 1435.00	 1445.82	-1761.07	  389.74
     97.7700	 1384.00	 1413.89	-1780.14	  389.56
     97.8700	 1315.00	 1365.60	-1800.85	  389.38
     97.9700	 1235.00	 1305.09	-1820.34	  389.20
     98.0700	 1270.00	 1236.82	-1717.07	  389.02
     98.1700	 1172.00	 1165.11	-1743.36	  388.83
     98.2700	 1088.00	 1093.88	-1756.13	  388.65
     98.3700	 1071.00	 1026.56	-1705.81	  388.46
     98.4700	  960.00	  966.01	-1756.26	  388.28
     98.5700	  912.00	  914.52	-1752.77	  388.09
     98.6700	  849.00	  873.86	-1775.11	  387.90
     98.7700	  783.00	  845.35	-1812.60	  387.71
     98.8700	  800.00	  829.92	-1780.17	  387.52
     98.9700	  783.00	  828.20	-1795.45	  387.33
     99.0700	  814.00	  840.60	-1776.85	  387.14
     99.1700	  860.00	  867.31	-1757.56	  386.95
     99.2700	  882.00	  908.31	-1776.56	  386.76
     99.3700	 1039.00	  963.37	-1674.62	  386.57
     99.4700	  992.00	 1031.92	-1790.17	  386.37
     99.5700	 1050.00	 1113.05	-1813.30	  386.18
     99.6700	 1193.00	 1205.33	-1762.58	  385.99
     99.7700	 1291.00	 1306.73	-1765.98	  385.79
     99.8700	 1396.00	 1414.59	-1768.84	  385.60
     99.9700	 1564.00	 1525.49	-1711.74	  385.40
    100.0700	 1682.00	 1635.41	-1703.66	  385.21
    100.1700	 1727.00	 1739.87	-1763.12	  385.01
    100.2700	 1802.00	 1834.37	-1782.62	  384.81
    100.3700	 1942.00	 1914.87	-1723.12	  384.61
    100.4700	 2001.00	 1978.18	-1727.43	  384.41
    100.5700	 2070.00	 2022.11	-1702.36	  384.22
    100.6700	 2072.00	 2045.27	-1723.52	  384.02
    100.7700	 2057.00	 2046.88	-1740.13	  383.82
    100.8700	 2044.00	 2026.79	-1733.04	  383.62
    100.9700	 2047.00	 1985.77	-1689.02	  383.42
    101.0700	 1934.00	 1925.80	-1742.05	  383.22
    101.1700	 1913.00	 1850.30	-1687.55	  383.02
    101.2700	 1737.00	 1763.79	-1777.04	  382.81
    101.3700	 1713.00	 1671.35	-1708.60	  382.61
    101.4700	 1585.00	 1578.00	-1743.25	  382.41
    101.5700	 1529.00	 1488.17	-1709.42	  382.21
    101.6700	 1415.00	 1405.41	-1740.66	  382.00
    101.7700	 1350.00	 1332.26	-1732.51	  381.80
    101.8700	 1258.00	 1270.15	-1762.40	  381.60
    101.9700	 1228.00	 1219.51	-1741.76	  381.39
    102.0700	 1097.00	 1179.73	-1832.98	  381.19
    102.1700	 1161.00	 1149.37	-1738.62	  380.99
    102.2700	 1133.00	 1126.32	-1743.57	  380.78
    102.3700	 1077.00	 1107.99	-1781.24	  380.58
    102.4700	 1074.00	 1091.61	-1767.86	  380.37
    102.5700	 1037.00	 1074.58	-1787.83	  380.17
    102.6700	 1065.00	 1054.76	-1740.01	  379.96
    102.7700	 1051.00	 1030.83	-1730.08	  379.76
    102.8700	 1058.00	 1002.30	-1694.55	  379.55
    102.9700	 1023.00	  969.48	-1696.73	  379.35
    103.0700	  929.00	  933.19	-1754.44	  379.14
    103.1700	  867.00	  894.58	-1777.83	  378.94
    103.2700	  850.00	  854.92	-1755.17	  378.73
    103.3700	  789.00	  815.42	-1776.67	  378.53
    103.4700	  766.00	  777.22	-1761.47	  378.32
    103.5700	  778.00	  741.23	-1713.48	  378.12
    103.6700	  702.00	  708.17	-1756.42	  377.91
    103.7700	  657.00	  678.54	-1771.79	  377.71
    103.8700	  652.00	  652.63	-1750.88	  377.50
    103.9700	  701.00	  630.50	-1679.75	  377.30
    104.0700	  609.00	  612.04	-1753.29	  377.09
    104.1700	  563.00	  597.01	-1784.26	  376.89
    104.2700	  588.00	  585.10	-1747.35	  376.69
    104.3700	  551.00	  575.93	-1775.18	  376.48
    104.4700	  542.00	  569.11	-1777.36	  376.28
    104.5700	  551.00	  564.26	-1763.51	  376.07
    104.6700	  565.00	  561.02	-1746.27	  375.87
    104.7700	  589.00	  559.10	-1720.35	  375.67
    104.8700	  528.00	  558.21	-1780.46	  375.46
    104.9700	  527.00	  558.17	-1781.42	  375.26
    105.0700	  531.00	  558.78	-1778.03	  375.06
    105.1700	  557.00	  559.92	-1753.17	  374.86
    105.2700	  560.00	  561.51	-1751.76	  374.66
    105.3700	  511.00	  563.52	-1802.77	  374.46
    105.4700	  537.00	  565.94	-1779.19	  374.25
    105.5700	  544.00	  568.81	-1775.06	  374.05
    105.6700	  556.00	  572.20	-1766.45	  373.85
    105.7700	  557.00	  576.21	-1769.46	  373.66
    105.8700	  574.00	  580.96	-1757.21	  373.46
    105.9700	  559.00	  586.54	-1777.79	  373.26
    106.0700	  583.00	  593.04	-1760.29	  373.06
    106.1700	  639.00	  600.47	-1711.72	  372.86
    106.2700	  586.00	  608.80	-1773.05	  372.67
    106.3700	  628.00	  617.94	-1740.19	  372.47
    106.4700	  567.00	  627.72	-1810.97	  372.27
    106.5700	  675.00	  637.91	-1713.16	  372.08
    106.6700	  628.00	  648.21	-1770.46	  371.89
    106.7700	  716.00	  658.28	-1692.53	  371.69
    106.8700	  684.00	  667.73	-1733.98	  371.50
    106.9700	  600.00	  676.16	-1826.41	  371.31
    107.0700	  687.00	  683.21	-1746.46	  371.12
    107.1700	  666.00	  688.59	-1772.84	  370.93
    107.2700	  684.00	  692.14	-1758.39	  370.74
    107.3700	  692.00	  693.88	-1752.13	  370.55
    107.4700	  673.00	  694.00	-1771.25	  370.36
    107.5700	  621.00	  692.81	-1822.06	  370.17
    107.6700	  702.00	  690.76	-1739.01	  369.99
    107.7700	  693.00	  688.28	-1745.53	  369.80
    107.8700	  671.00	  685.79	-1765.04	  369.62
    107.9700	  715.00	  683.63	-1718.88	  369.44
    108.0700	  711.00	  682.05	-1721.30	  369.25
    108.1700	  713.00	  681.19	-1718.44	  369.07
    108.2700	  668.00	  681.07	-1763.32	  368.89
    108.3700	  706.00	  681.60	-1725.85	  368.71
    108.4700	  669.00	  682.57	-1763.82	  368.54
    108.5700	  663.00	  683.68	-1770.93	  368.36
    108.6700	  733.00	  684.57	-1701.82	  368.18
    108.7700	  686.00	  684.83	-1749.08	  368.01
    108.8700	  654.00	  684.08	-1780.33	  367.84
    108.9700	  682.00	  682.00	-1750.25	  367.67
    109.0700	  708.00	  678.39	-1720.64	  367.50
    109.1700	  734.00	  673.19	-1689.44	  367.33
    109.2700	  712.00	  666.48	-1704.73	  367.16
    109.3700	  642.00	  658.46	-1766.71	  366.99
    109.4700	  624.00	  649.41	-1775.66	  366.83
    109.5700	  634.00	  639.66	-1755.91	  366.66
    109.6700	  651.00	  629.52	-1728.77	  366.50
    109.7700	  589.00	  619.33	-1780.58	  366.34
    109.8700	  618.00	  609.37	-1741.62	  366.18
    109.9700	  622.00	  599.89	-1728.14	  366.02
    110.0700	  599.00	  591.09	-1742.34	  365.87
    110.1700	  558.00	  583.13	-1775.38	  365.71
    110.2700	  561.00	  576.11	-1765.36	  365.56
    110.3700	  608.00	  570.07	-1712.32	  365.41
    110.4700	  550.00	  565.04	-1765.29	  365.26
    110.5700	  582.00	  560.98	-1729.23	  365.11
    110.6700	  537.00	  557.85	-1771.10	  364.97
    110.7700	  507.00	  555.57	-1798.82	  364.82
    110.8700	  545.00	  554.05	-1759.30	  364.68
    110.9700	  519.00	  553.21	-1784.46	  364.54
    111.0700	  573.00	  552.95	-1730.20	  364.40
    111.1700	  574.00	  553.20	-1729.45	  364.26
    111.2700	  586.00	  553.87	-1718.12	  364.13
    111.3700	  604.00	  554.90	-1701.15	  363.99
    111.4700	  517.00	  556.23	-1789.48	  363.86
    111.5700	  544.00	  557.83	-1764.08	  363.73
    111.6700	  533.00	  559.65	-1776.90	  363.61
    111.7700	  565.00	  561.67	-1746.92	  363.48
    111.8700	  553.00	  563.88	-1761.13	  363.36
    111.9700	  599.00	  566.27	-1717.52	  363.24
    112.0700	  590.00	  568.85	-1729.10	  363.12
    112.1700	  520.00	  571.63	-1801.88	  363.00
    112.2700	  579.00	  574.63	-1745.88	  362.89
    112.3700	  602.00	  577.89	-1726.14	  362.77
    112.4700	  568.00	  581.44	-1763.69	  362.66
    112.5700	  611.00	  585.33	-1724.58	  362.56
    112.6700	  673.00	  589.64	-1666.89	  362.45
    112.7700	  585.00	  594.45	-1759.70	  362.35
    112.8700	  610.00	  599.87	-1740.12	  362.25
    112.9700	  647.00	  606.04	-1709.29	  362.15
    113.0700	  656.00	  613.15	-1707.40	  362.06
    113.1700	  642.00	  621.47	-1729.72	  361.96
    113.2700	  722.00	  631.29	-1659.54	  361.87
    113.3700	  708.00	  643.02	-1685.27	  361.79
    113.4700	  728.00	  657.18	-1679.43	  361.70
    113.5700	  766.00	  674.40	-1658.65	  361.62
    113.6700	  755.00	  695.47	-1690.72	  361.54
    113.7700	  832.00	  721.38	-1639.63	  361.46
    113.8700	  847.00	  753.28	-1656.53	  361.39
    113.9700	  889.00	  792.54	-1653.79	  361.32
    114.0700	  959.00	  840.77	-1632.02	  361.25
    114.1700	 1014.00	  899.77	-1636.02	  361.18
    114.2700	 1086.00	  971.59	-1635.84	  361.12
    114.3700	 1142.00	 1058.42	-1666.67	  361.06
    114.4700	 1276.00	 1162.56	-1636.81	  361.00
    114.5700	 1423.00	 1286.38	-1613.63	  360.95
    114.6700	 1540.00	 1432.20	-1642.45	  360.90
    114.7700	 1741.00	 1602.22	-1611.47	  360.85
    114.8700	 1982.00	 1798.26	-1566.51	  360.80
    114.9700	 2103.00	 2021.72	-1668.97	  360.76
    115.0700	 2295.00	 2273.35	-1728.60	  360.72
    115.1700	 2604.00	 2553.19	-1699.44	  360.69
    115.2700	 2952.00	 2860.36	-1658.61	  360.66
    115.3700	 3150.00	 3192.85	-1793.10	  360.63
    115.4700	 3429.00	 3547.53	-1868.78	  360.60
    115.5700	 3829.00	 3920.00	-1841.25	  360.58
    115.6700	 4104.00	 4304.70	-1950.95	  360.56
    115.7700	 4445.00	 4694.87	-2000.12	  360.55
    115.8700	 4951.00	 5082.42	-1881.67	  360.54
    115.9700	 5223.00	 5458.24	-1985.49	  360.53
    116.0700	 5633.00	 5812.30	-1929.55	  360.53
    116.1700	 5959.00	 6134.01	-1925.26	  360.53
    116.2700	 6284.00	 6412.61	-1878.86	  360.53
    116.3700	 6574.00	 6637.61	-1813.86	  360.54
    116.4700	 6798.00	 6799.84	-1752.09	  360.55
    116.5700	 6948.00	 6892.21	-1694.46	  360.56
    116.6700	 7001.00	 6910.60	-1659.85	  360.58
    116.7700	 6841.00	 6854.39	-1763.64	  360.60
    116.8700	 6883.00	 6726.51	-1593.76	  360.63
    116.9700	 6493.00	 6533.05	-1790.30	  360.66
    117.0700	 6458.00	 6282.61	-1574.86	  360.69
    117.1700	 5967.00	 5985.18	-1768.43	  360.73
    117.2700	 5586.00	 5651.38	-1815.63	  360.77
    117.3700	 5187.00	 5291.91	-1855.16	  360.82
    117.4700	 4812.00	 4916.91	-1855.16	  360.87
    117.5700	 4574.00	 4535.74	-1711.99	  360.92
    117.6700	 4290.00	 4156.58	-1616.83	  360.98
    117.7700	 3879.00	 3786.47	-1657.72	  361.04
    117.8700	 3623.00	 3431.32	-1558.57	  361.11
    117.9700	 3151.00	 3095.73	-1694.98	  361.18
    118.0700	 2960.00	 2783.15	-1573.40	  361.26
    118.1700	 2493.00	 2495.78	-1753.03	  361.34
    118.2700	 2152.00	 2234.81	-1833.06	  361.42
    118.3700	 1943.00	 2000.61	-1807.86	  361.51
    118.4700	 1840.00	 1792.72	-1702.97	  361.61
    118.5700	 1567.00	 1610.11	-1793.36	  361.70
    118.6700	 1363.00	 1451.21	-1838.46	  361.81
    118.7700	 1239.00	 1314.16	-1825.41	  361.92
    118.8700	 1084.00	 1196.90	-1863.15	  362.03
    118.9700	 1029.00	 1097.30	-1818.55	  362.15
    119.0700	 1003.00	 1013.22	-1760.47	  362.27
    119.1700	  885.00	  942.60	-1807.85	  362.40
    119.2700	  834.00	  883.51	-1799.76	  362.53
    119.3700	  790.00	  834.22	-1794.47	  362.67
    119.4700	  739.00	  793.19	-1804.44	  362.81
    119.5700	  736.00	  759.06	-1773.31	  362.95
    119.6700	  671.00	  730.67	-1809.92	  363.11
    119.7700	  640.00	  707.03	-1817.28	  363.26
    119.8700	  640.00	  687.32	-1797.57	  363.43
    119.9700	  626.00	  670.88	-1795.13	  363.60
    120.0700	  638.00	  657.14	-1769.39	  363.77
    120.1700	  601.00	  645.65	-1794.90	  363.95
    120.2700	  572.00	  636.04	-1814.29	  364.13
    120.3700	  618.00	  628.03	-1760.28	  364.32
    120.4700	  575.00	  621.38	-1796.63	  364.52
    120.5700	  601.00	  615.92	-1765.17	  364.72
    120.6700	  611.00	  611.48	-1750.73	  364.92
    120.7700	  617.00	  607.97	-1741.22	  365.13
    120.8700	  596.00	  605.28	-1759.53	  365.35
    120.9700	  598.00	  603.36	-1755.61	  365.58
    121.0700	  581.00	  602.14	-1771.39	  365.80
    121.1700	  576.00	  601.57	-1775.82	  366.04
    121.2700	  564.00	  601.61	-1787.86	  366.28
    121.3700	  557.00	  602.21	-1795.46	  366.53
    121.4700	  596.00	  603.34	-1757.59	  366.78
    121.5700	  599.00	  604.95	-1756.20	  367.04
    121.6700	  586.00	  606.97	-1771.22	  367.30
    121.7700	  625.00	  609.34	-1734.59	  367.57
    121.8700	  615.00	  612.02	-1747.27	  367.85
    121.9700	  612.00	  614.92	-1753.17	  368.13
    122.0700	  614.00	  617.96	-1754.21	  368.42
    122.1700	  621.00	  621.03	-1750.28	  368.72
    122.2700	  680.00	  624.06	-1694.31	  369.02
    122.3700	  615.00	  626.92	-1762.17	  369.33
    122.4700	  651.00	  629.54	-1728.79	  369.65
    122.5700	  634.00	  631.82	-1748.07	  369.97
    122.6700	  605.00	  633.67	-1778.92	  370.30
    122.7700	  646.00	  635.01	-1739.26	  370.63
    122.8700	  645.00	  635.80	-1741.05	  370.97
    122.9700	  681.00	  636.01	-1705.26	  371.32
    123.0700	  711.00	  635.63	-1674.88	  371.68
    123.1700	  672.00	  634.70	-1712.95	  372.04
    123.2700	  637.00	  633.24	-1746.49	  372.41
    123.3700	  589.00	  631.31	-1792.56	  372.78
    123.4700	  650.00	  628.97	-1729.22	  373.17
    123.5700	  652.00	  626.29	-1724.54	  373.56
    123.6700	  646.00	  623.34	-1727.59	  373.95
    123.7700	  661.00	  620.19	-1709.44	  374.36
    123.8700	  631.00	  616.91	-1736.16	  374.77
    123.9700	  630.00	  613.55	-1733.80	  375.19
    124.0700	  593.00	  610.19	-1767.44	  375.62
    124.1700	  649.00	  606.86	-1708.11	  376.05
    124.2700	  577.00	  603.63	-1776.88	  376.49
    124.3700	  629.00	  600.52	-1721.77	  376.94
    124.4700	  602.00	  597.56	-1745.81	  377.40
    124.5700	  592.00	  594.79	-1753.04	  377.86
    124.6700	  575.00	  592.22	-1767.47	  378.33
    124.7700	  618.00	  589.86	-1722.11	  378.81
    124.8700	  555.00	  587.74	-1782.99	  379.30
    124.9700	  561.00	  499.97	-1689.22	  379.79
    125.0700	  591.00	  500.47	-1750.25	  380.30
    125.1700	  572.00	  500.98	-1750.25	  380.81
    125.2700	  574.00	  501.50	-1750.25	  381.33
    125.3700	  579.00	  502.03	-1750.25	  381.85
    125.4700	  587.00	  502.56	-1750.25	  382.39
    125.5700	  590.00	  503.11	-1750.25	  382.93
    125.6700	  585.00	  503.66	-1750.25	  383.48
    125.7700	  550.00	  504.22	-1750.25	  384.04
    125.8700	  590.00	  504.79	-1750.25	  384.61
    125.9700	  552.00	  505.36	-1750.25	  385.19
    126.0700	  581.00	  505.95	-1750.25	  385.77
    126.1700	  583.00	  506.54	-1750.25	  386.37
    126.2700	  569.00	  507.14	-1750.25	  386.97
    126.3700	  621.00	  507.76	-1750.25	  387.58
    126.4700	  582.00	  508.37	-1750.25	  388.20
    126.5700	  602.00	  509.00	-1750.25	  388.83
    126.6700	  651.00	  509.64	-1750.25	  389.47
    126.7700	  603.00	  510.29	-1750.25	  390.11
    126.8700	  634.00	  510.94	-1750.25	  390.77
    126.9700	  612.00	  511.61	-1750.25	  391.43
    127.0700	  655.00	  512.28	-1750.25	  392.11
    127.1700	  634.00	  512.96	-1750.25	  392.79
    127.2700	  623.00	  513.66	-1750.25	  393.48
    127.3700	  643.00	  514.36	-1750.25	  394.18
    127.4700	  650.00	  515.07	-1750.25	  394.89
    127.5700	  682.00	  515.79	-1750.25	  395.61
    127.6700	  695.00	  516.52	-1750.25	  396.34
    127.7700	  680.00	  517.26	-1750.25	  397.08
    127.8700	  740.00	  518.01	-1750.25	  397.83
    127.9700	  744.00	  518.76	-1750.25	  398.59
    128.0700	  752.00	  519.53	-1750.25	  399.36
    128.1700	  718.00	  520.31	-1750.25	  400.13
    128.2700	  823.00	  521.10	-1750.25	  400.92
    128.3700	  829.00	  521.90	-1750.25	  401.72
    128.4700	  796.00	  522.70	-1750.25	  402.53
    128.5700	    0.00	  523.52	-1750.25	  403.35
    128.6700	    0.00	  524.35	-1750.25	  404.17
     12.3088	        	        	        	        	       0	(  0  0  2)	  0  1
     24.8882	        	        	        	        	       0	(  0  0  4)	  0  1
     28.3342	        	        	        	        	       0	(  1  0  0)	  0  1
     29.0311	        	        	        	        	       0	(  1  0  1)	  0  1
     31.0364	        	        	        	        	       0	(  1  0  2)	  0  1
     34.1434	        	        	        	        	       0	(  1  0  3)	  0  1
     37.7833	        	        	        	        	       0	(  0  0  6)	  0  1
     38.1187	        	        	        	        	       0	(  1  0  4)	  0  1
     42.7669	        	        	        	        	       0	(  1  0  5)	  0  1
     47.9488	        	        	        	        	       0	(  1  0  6)	  0  1
     50.2685	        	        	        	        	       0	(  1  1  0)	  0  1
     51.2002	        	        	        	        	       0	(  0  0  8)	  0  1
     51.9906	        	        	        	        	       0	(  1  1  2)	  0  1
     53.5768	        	        	        	        	       0	(  1  0  7)	  0  1
     56.9361	        	        	        	        	       0	(  1  1  4)	  0  1
     58.7643	        	        	        	        	       0	(  2  0  0)	  0  1
     59.1557	        	        	        	        	       0	(  2  0  1)	  0  1
     59.6046	        	        	        	        	       0	(  1  0  8)	  0  1
     60.3205	        	        	        	        	       0	(  2  0  2)	  0  1
     62.2327	        	        	        	        	       0	(  2  0  3)	  0  1
     64.6270	        	        	        	        	       0	(  1  1  6)	  0  1
     64.8554	        	        	        	        	       0	(  2  0  4)	  0  1
     65.4234	        	        	        	        	       0	(  0  0 10)	  0  1
     66.0180	        	        	        	        	       0	(  1  0  9)	  0  1
     68.1480	        	        	        	        	       0	(  2  0  5)	  0  1
     72.0734	        	        	        	        	       0	(  2  0  6)	  0  1
     72.8308	        	        	        	        	       0	(  1  0 10)	  0  1
     74.6596	        	        	        	        	       0	(  1  1  8)	  0  1
     76.6051	        	        	        	        	       0	(  2  0  7)	  0  1
     80.0846	        	        	        	        	       0	(  1  0 11)	  0  1
     80.8960	        	        	        	        	       0	(  0  0 12)	  0  1
     81.0019	        	        	        	        	       0	(  2  1  0)	  0  1
     81.3416	        	        	        	        	       0	(  2  1  1)	  0  1
     81.7326	        	        	        	        	       0	(  2  0  8)	  0  1
     82.3589	        	        	        	        	       0	(  2  1  2)	  0  1
     84.0492	        	        	        	        	       0	(  2  1  3)	  0  1
     86.4075	        	        	        	        	       0	(  2  1  4)	  0  1
     86.9241	        	        	        	        	       0	(  1  1 10)	  0  1
     87.4672	        	        	        	        	       0	(  2  0  9)	  0  1
     87.8544	        	        	        	        	       0	(  1  0 12)	  0  1
     89.4315	        	        	        	        	       0	(  2  1  5)	  0  1
     93.1266	        	        	        	        	       0	(  2  1  6)	  0  1
     93.8506	        	        	        	        	       0	(  2  0 10)	  0  1
     94.8879	        	        	        	        	       0	(  3  0  0)	  0  1
     95.2250	        	        	        	        	       0	(  3  0  1)	  0  1
     96.2621	        	        	        	        	       0	(  1  0 13)	  0  1
     96.2376	        	        	        	        	       0	(  3  0  2)	  0  1
     97.5123	        	        	        	        	       0	(  2  1  7)	  0  1
     97.9299	        	        	        	        	       0	(  3  0  3)	  0  1
     98.4240	        	        	        	        	       0	(  0  0 14)	  0  1
    100.3113	        	        	        	        	       0	(  3  0  4)	  0  1
    100.9676	        	        	        	        	       0	(  2  0 11)	  0  1
    101.7844	        	        	        	        	       0	(  1  1 12)	  0  1
    102.6312	        	        	        	        	       0	(  2  1  8)	  0  1
    103.4008	        	        	        	        	       0	(  3  0  5)	  0  1
    105.5076	        	        	        	        	       0	(  1  0 14)	  0  1
    107.2331	        	        	        	        	       0	(  3  0  6)	  0  1
    108.5636	        	        	        	        	       0	(  2  1  9)	  0  1
    108.9725	        	        	        	        	       0	(  2  0 12)	  0  1
    111.8699	        	        	        	        	       0	(  3  0  7)	  0  1
    115.4546	        	        	        	        	       0	(  2  1 10)	  0  1
    115.9411	        	        	        	        	       0	(  1  0 15)	  0  1
    116.6066	        	        	        	        	       0	(  2  2  0)	  0  1
    117.4186	        	        	        	        	       0	(  3  0  8)	  0  1
    118.1482	        	        	        	        	       0	(  2  0 13)	  0  1
    118.1206	        	        	        	        	       0	(  2  2  2)	  0  1
    119.8921	        	        	        	        	       0	(  0  0 16)	  0  1
    120.6112	        	        	        	        	       0	(  1  1 14)	  0  1
    122.8021	        	        	        	        	       0	(  2  2  4)	  0  1
    123.5736	        	        	        	        	       0	(  2  1 11)	  0  1
    124.0722	        	        	        	        	       0	(  3  0  9)	  0  1
    124.6685	        	        	        	        	       0	(  3  1  0)	  0  1
    125.0784	        	        	        	        	       0	(  3  1  1)	  0  1
    126.3207	        	        	        	        	       0	(  3  1  2)	  0  1
    128.2690	        	        	        	        	       0	(  1  0 16)	  0  1
    128.4369	        	        	        	        	       0	(  3  1  3)	  0  1
    129.0650	        	        	        	        	       0	(  2  0 14)	  0  1
    131.2336	        	        	        	        	       0	(  2  2  6)	  0  1
    131.5097	        	        	        	        	       0	(  3  1  4)	  0  1
    132.2035	        	        	        	        	       0	(  3  0 10)	  0  1
    133.4735	        	        	        	        	       0	(  2  1 12)	  0  1
    135.6919	        	        	        	        	       0	(  3  1  5)	  0  1
    141.2799	        	        	        	        	       0	(  3  1  6)	  0  1
    142.6660	        	        	        	        	       0	(  3  0 11)	  0  1
    143.1799	        	        	        	        	       0	(  2  0 15)	  0  1
    144.4068	        	        	        	        	       0	(  1  0 17)	  0  1
    145.4475	        	        	        	        	       0	(  2  2  8)	  0  1
    146.6049	        	        	        	        	       0	(  2  1 13)	  0  1
    148.9398	        	        	        	        	       0	(  3  1  7)	  0  1
    149.4931	        	        	        	        	       0	(  1  1 16)	  0  1
    153.8656	        	        	        	        	       0	(  0  0 18)	  0  1
    158.4982	        	        	        	        	       0	(  3  0 12)	  0  1
    158.7872	        	        	        	        	       0	(  4  0  0)	  0  1
    159.7408	        	        	        	        	       0	(  4  0  1)	  0  1
    160.8963	        	        	        	        	       0	(  3  1  8)	  0  1
    162.9066	        	        	        	        	       0	(  4  0  2)	  0  1
    169.4415	        	        	        	        	       0	(  2  0 16)	  0  1
    170.1939	        	        	        	        	       0	(  4  0  3)	  0  1
    173.7491	        	        	        	        	       0	(  2  1 14)	  0  1
