MSG Master    CELL:    5.91615   5.91615  23.24984   90.0000   90.0000  120.0000   SPGR: P 63/m m c             TEMP:   1017.05
  1   1280     2.52000     0.00000    -0.12633     0.00000     0.00000    0
    99     0     2
       0.00000      10.00000
     125.00000     130.00000
 2Theta	Yobs	Ycal	Yobs-Ycal	Backg	Posr	(hkl)	K
      0.7700	    0.00	  570.97	-1797.25	  457.88
      0.8700	    0.00	  571.47	-1797.25	  458.37
      0.9700	   49.00	  571.95	-1797.25	  458.86
      1.0700	   45.00	  572.43	-1797.25	  459.33
      1.1700	   42.00	  572.89	-1797.25	  459.80
      1.2700	   54.00	  573.35	-1797.25	  460.25
      1.3700	   39.00	  573.79	-1797.25	  460.70
      1.4700	   96.00	  574.23	-1797.25	  461.14
      1.5700	  292.00	  574.66	-1797.25	  461.56
      1.6700	  420.00	  575.07	-1797.25	  461.98
      1.7700	  595.00	  575.48	-1797.25	  462.39
      1.8700	  646.00	  575.88	-1797.25	  462.79
      1.9700	  742.00	  576.27	-1797.25	  463.17
      2.0700	  803.00	  576.65	-1797.25	  463.55
      2.1700	  790.00	  577.02	-1797.25	  463.93
      2.2700	  744.00	  577.38	-1797.25	  464.29
      2.3700	  699.00	  577.74	-1797.25	  464.64
      2.4700	  728.00	  578.08	-1797.25	  464.99
      2.5700	  698.00	  578.42	-1797.25	  465.32
      2.6700	  651.00	  578.74	-1797.25	  465.65
      2.7700	  654.00	  579.06	-1797.25	  465.97
      2.8700	  645.00	  579.37	-1797.25	  466.28
      2.9700	  627.00	  579.67	-1797.25	  466.58
      3.0700	  603.00	  579.96	-1797.25	  466.87
      3.1700	  569.00	  580.25	-1797.25	  467.15
      3.2700	  583.00	  580.52	-1797.25	  467.43
      3.3700	  685.00	  580.79	-1797.25	  467.70
      3.4700	  735.00	  581.05	-1797.25	  467.96
      3.5700	  825.00	  581.30	-1797.25	  468.21
      3.6700	  823.00	  581.54	-1797.25	  468.45
      3.7700	  863.00	  581.78	-1797.25	  468.69
      3.8700	  928.00	  582.01	-1797.25	  468.91
      3.9700	  925.00	  582.23	-1797.25	  469.13
      4.0700	  966.00	  582.44	-1797.25	  469.34
      4.1700	 1076.00	  582.64	-1797.25	  469.55
      4.2700	 1059.00	  582.84	-1797.25	  469.74
      4.3700	 1087.00	  583.03	-1797.25	  469.93
      4.4700	 1039.00	  583.21	-1797.25	  470.11
      4.5700	 1051.00	  583.38	-1797.25	  470.29
      4.6700	 1016.00	  583.55	-1797.25	  470.45
      4.7700	  991.00	  583.70	-1797.25	  470.61
      4.8700	  989.00	  583.86	-1797.25	  470.76
      4.9700	  916.00	  584.00	-1797.25	  470.91
      5.0700	  973.00	  584.14	-1797.25	  471.04
      5.1700	  971.00	  584.27	-1797.25	  471.17
      5.2700	  909.00	  584.39	-1797.25	  471.30
      5.3700	  869.00	  584.51	-1797.25	  471.41
      5.4700	  903.00	  584.61	-1797.25	  471.52
      5.5700	  819.00	  584.72	-1797.25	  471.62
      5.6700	  819.00	  584.81	-1797.25	  471.72
      5.7700	  861.00	  584.90	-1797.25	  471.81
      5.8700	  796.00	  584.98	-1797.25	  471.89
      5.9700	  797.00	  585.06	-1797.25	  471.96
      6.0700	  806.00	  585.12	-1797.25	  472.03
      6.1700	  757.00	  585.19	-1797.25	  472.09
      6.2700	  812.00	  585.24	-1797.25	  472.15
      6.3700	  736.00	  585.29	-1797.25	  472.20
      6.4700	  755.00	  585.33	-1797.25	  472.24
      6.5700	  721.00	  585.37	-1797.25	  472.28
      6.6700	  686.00	  585.40	-1797.25	  472.31
      6.7700	  732.00	  585.42	-1797.25	  472.33
      6.8700	  700.00	  585.44	-1797.25	  472.35
      6.9700	  661.00	  585.45	-1797.25	  472.36
      7.0700	  701.00	  585.46	-1797.25	  472.37
      7.1700	  683.00	  585.46	-1797.25	  472.37
      7.2700	  681.00	  585.45	-1797.25	  472.36
      7.3700	  683.00	  585.44	-1797.25	  472.35
      7.4700	  660.00	  585.43	-1797.25	  472.33
      7.5700	  699.00	  585.40	-1797.25	  472.31
      7.6700	  657.00	  585.37	-1797.25	  472.28
      7.7700	  685.00	  585.34	-1797.25	  472.24
      7.8700	  634.00	  585.30	-1797.25	  472.20
      7.9700	  607.00	  585.25	-1797.25	  472.16
      8.0700	  658.00	  585.20	-1797.25	  472.11
      8.1700	  640.00	  585.15	-1797.25	  472.05
      8.2700	  625.00	  585.08	-1797.25	  471.99
      8.3700	  624.00	  585.02	-1797.25	  471.92
      8.4700	  626.00	  584.94	-1797.25	  471.85
      8.5700	  640.00	  584.87	-1797.25	  471.77
      8.6700	  608.00	  584.78	-1797.25	  471.69
      8.7700	  634.00	  584.70	-1797.25	  471.60
      8.8700	  635.00	  584.60	-1797.25	  471.51
      8.9700	  640.00	  584.51	-1797.25	  471.41
      9.0700	  653.00	  584.40	-1797.25	  471.31
      9.1700	  637.00	  584.30	-1797.25	  471.20
      9.2700	  613.00	  584.18	-1797.25	  471.09
      9.3700	  629.00	  584.07	-1797.25	  470.97
      9.4700	  577.00	  583.94	-1797.25	  470.85
      9.5700	  608.00	  583.82	-1797.25	  470.72
      9.6700	  628.00	  583.69	-1797.25	  470.59
      9.7700	  607.00	  583.55	-1797.25	  470.46
      9.8700	  558.00	  583.41	-1797.25	  470.32
      9.9700	  631.00	  583.27	-1797.25	  470.17
     10.0700	  579.00	  583.84	-1802.09	  470.02
     10.1700	  590.00	  583.76	-1791.01	  469.87
     10.2700	  584.00	  583.69	-1796.94	  469.71
     10.3700	  579.00	  583.63	-1801.88	  469.55
     10.4700	  650.00	  583.62	-1730.87	  469.38
     10.5700	  600.00	  583.70	-1780.95	  469.21
     10.6700	  581.00	  583.96	-1800.21	  469.04
     10.7700	  590.00	  584.51	-1791.76	  468.86
     10.8700	  586.00	  585.42	-1796.67	  468.68
     10.9700	  589.00	  586.71	-1794.96	  468.49
     11.0700	  630.00	  588.32	-1755.57	  468.30
     11.1700	  585.00	  590.25	-1802.50	  468.11
     11.2700	  564.00	  592.52	-1825.77	  467.91
     11.3700	  590.00	  595.20	-1802.45	  467.71
     11.4700	  580.00	  598.42	-1815.67	  467.50
     11.5700	  563.00	  602.34	-1836.59	  467.29
     11.6700	  638.00	  607.28	-1766.53	  467.08
     11.7700	  671.00	  613.78	-1740.03	  466.86
     11.8700	  622.00	  622.76	-1798.01	  466.64
     11.9700	  688.00	  635.15	-1744.40	  466.42
     12.0700	  663.00	  650.08	-1784.33	  466.19
     12.1700	  688.00	  661.98	-1771.23	  465.96
     12.2700	  710.00	  660.85	-1748.10	  465.73
     12.3700	  625.00	  641.83	-1814.08	  465.49
     12.4700	  655.00	  616.54	-1758.79	  465.25
     12.5700	  628.00	  597.63	-1766.88	  465.01
     12.6700	  579.00	  587.47	-1805.72	  464.76
     12.7700	  574.00	  583.00	-1806.25	  464.51
     12.8700	  530.00	  581.02	-1848.27	  464.26
     12.9700	  555.00	  579.90	-1822.15	  464.00
     13.0700	  567.00	  579.10	-1809.35	  463.74
     13.1700	  535.00	  578.45	-1840.70	  463.48
     13.2700	  546.00	  577.90	-1829.15	  463.21
     13.3700	  587.00	  577.42	-1787.67	  462.94
     13.4700	  564.00	  576.97	-1810.22	  462.67
     13.5700	  557.00	  576.57	-1816.82	  462.40
     13.6700	  505.00	  576.18	-1868.43	  462.12
     13.7700	  574.00	  575.81	-1799.06	  461.84
     13.8700	  602.00	  575.45	-1770.70	  461.56
     13.9700	  534.00	  575.11	-1838.36	  461.28
     14.0700	  586.00	  574.77	-1786.02	  460.99
     14.1700	  572.00	  574.43	-1799.68	  460.70
     14.2700	  588.00	  574.10	-1783.35	  460.41
     14.3700	  571.00	  573.77	-1800.02	  460.11
     14.4700	  560.00	  573.44	-1810.69	  459.81
     14.5700	  543.00	  573.12	-1827.37	  459.51
     14.6700	  570.00	  572.79	-1800.04	  459.21
     14.7700	  602.00	  572.47	-1767.72	  458.91
     14.8700	  569.00	  572.14	-1800.39	  458.60
     14.9700	  562.00	  571.81	-1807.06	  458.29
     15.0700	  578.00	  571.49	-1790.74	  457.98
     15.1700	  585.00	  571.16	-1783.41	  457.67
     15.2700	  503.00	  570.83	-1865.08	  457.35
     15.3700	  566.00	  570.51	-1801.76	  457.03
     15.4700	  562.00	  570.18	-1805.43	  456.71
     15.5700	  546.00	  569.84	-1821.09	  456.39
     15.6700	  538.00	  569.51	-1828.76	  456.07
     15.7700	  579.00	  569.18	-1787.43	  455.74
     15.8700	  570.00	  568.84	-1796.09	  455.41
     15.9700	  550.00	  568.51	-1815.76	  455.08
     16.0700	  566.00	  568.17	-1799.42	  454.75
     16.1700	  535.00	  567.83	-1830.08	  454.42
     16.2700	  549.00	  567.49	-1815.74	  454.08
     16.3700	  555.00	  567.15	-1809.40	  453.75
     16.4700	  544.00	  566.83	-1820.08	  453.41
     16.5700	  572.00	  566.49	-1791.74	  453.07
     16.6700	  537.00	  566.14	-1826.39	  452.73
     16.7700	  593.00	  565.80	-1770.05	  452.38
     16.8700	  547.00	  565.45	-1815.70	  452.04
     16.9700	  555.00	  565.10	-1807.35	  451.69
     17.0700	  544.00	  564.75	-1818.00	  451.34
     17.1700	  585.00	  564.40	-1776.65	  450.99
     17.2700	  596.00	  564.05	-1765.30	  450.64
     17.3700	  586.00	  563.69	-1774.94	  450.29
     17.4700	  606.00	  563.34	-1754.59	  449.94
     17.5700	  605.00	  562.98	-1755.23	  449.58
     17.6700	  595.00	  562.62	-1764.87	  449.23
     17.7700	  582.00	  562.27	-1777.52	  448.87
     17.8700	  570.00	  562.01	-1789.26	  448.51
     17.9700	  535.00	  561.65	-1823.90	  448.15
     18.0700	  541.00	  561.29	-1817.54	  447.79
     18.1700	  530.00	  560.93	-1828.18	  447.43
     18.2700	  553.00	  560.57	-1804.82	  447.06
     18.3700	  550.00	  560.21	-1807.46	  446.70
     18.4700	  528.00	  559.84	-1829.09	  446.33
     18.5700	  579.00	  559.48	-1777.73	  445.97
     18.6700	  536.00	  559.12	-1820.37	  445.60
     18.7700	  507.00	  558.75	-1849.00	  445.23
     18.8700	  546.00	  558.48	-1809.73	  444.86
     18.9700	  542.00	  558.11	-1813.36	  444.49
     19.0700	  584.00	  557.75	-1771.00	  444.12
     19.1700	  541.00	  557.38	-1813.63	  443.75
     19.2700	  569.00	  557.02	-1785.27	  443.38
     19.3700	  605.00	  556.65	-1748.90	  443.00
     19.4700	  523.00	  556.28	-1830.53	  442.63
     19.5700	  554.00	  555.92	-1799.17	  442.25
     19.6700	  573.00	  555.55	-1779.80	  441.88
     19.7700	  515.00	  555.18	-1837.43	  441.50
     19.8700	  571.00	  554.81	-1781.06	  441.13
     19.9700	  547.00	  554.44	-1804.69	  440.75
     20.0700	  528.00	  554.08	-1823.32	  440.37
     20.1700	  569.00	  553.71	-1781.96	  439.99
     20.2700	  591.00	  553.34	-1759.59	  439.61
     20.3700	  514.00	  552.94	-1836.19	  439.23
     20.4700	  546.00	  552.57	-1803.82	  438.85
     20.5700	  534.00	  552.21	-1815.46	  438.47
     20.6700	  591.00	  551.84	-1758.09	  438.09
     20.7700	  573.00	  551.47	-1775.72	  437.71
     20.8700	  521.00	  551.11	-1827.36	  437.33
     20.9700	  559.00	  550.78	-1789.03	  436.95
     21.0700	  559.00	  550.41	-1788.66	  436.57
     21.1700	  584.00	  550.05	-1763.30	  436.19
     21.2700	  542.00	  549.68	-1804.93	  435.80
     21.3700	  560.00	  549.32	-1786.57	  435.42
     21.4700	  552.00	  548.96	-1794.21	  435.04
     21.5700	  575.00	  548.60	-1770.85	  434.66
     21.6700	  565.00	  548.24	-1780.49	  434.27
     21.7700	  520.00	  547.88	-1825.14	  433.89
     21.8700	  554.00	  547.53	-1790.78	  433.51
     21.9700	  571.00	  547.18	-1773.43	  433.12
     22.0700	  571.00	  546.83	-1773.08	  432.74
     22.1700	  589.00	  546.48	-1754.73	  432.36
     22.2700	  528.00	  546.13	-1815.38	  431.97
     22.3700	  556.00	  545.79	-1787.04	  431.59
     22.4700	  568.00	  545.45	-1774.70	  431.21
     22.5700	  565.00	  545.12	-1777.37	  430.82
     22.6700	  553.00	  544.79	-1789.04	  430.44
     22.7700	  542.00	  544.47	-1799.72	  430.06
     22.8700	  520.00	  544.15	-1821.40	  429.68
     22.9700	  536.00	  543.85	-1805.10	  429.29
     23.0700	  573.00	  543.55	-1767.80	  428.91
     23.1700	  526.00	  543.27	-1814.52	  428.53
     23.2700	  543.00	  543.01	-1797.26	  428.15
     23.3700	  553.00	  542.77	-1787.02	  427.77
     23.4700	  511.00	  542.56	-1828.81	  427.39
     23.5700	  549.00	  542.38	-1790.63	  427.01
     23.6700	  548.00	  542.26	-1791.51	  426.63
     23.7700	  564.00	  542.22	-1775.47	  426.25
     23.8700	  564.00	  542.47	-1775.72	  425.87
     23.9700	  559.00	  542.92	-1781.17	  425.49
     24.0700	  508.00	  544.07	-1833.32	  425.11
     24.1700	  522.00	  546.51	-1821.76	  424.73
     24.2700	  541.00	  551.06	-1807.31	  424.35
     24.3700	  556.00	  558.66	-1799.91	  423.97
     24.4700	  580.00	  570.40	-1787.65	  423.60
     24.5700	  649.00	  587.13	-1735.38	  423.22
     24.6700	  588.00	  607.27	-1816.52	  422.85
     24.7700	  647.00	  624.03	-1774.28	  422.47
     24.8700	  692.00	  626.09	-1731.34	  422.10
     24.9700	  595.00	  607.98	-1810.23	  421.72
     25.0700	  608.00	  581.41	-1770.66	  421.35
     25.1700	  582.00	  560.04	-1775.29	  420.98
     25.2700	  531.00	  547.71	-1813.96	  420.61
     25.3700	  585.00	  541.99	-1754.24	  420.23
     25.4700	  552.00	  539.52	-1784.77	  419.86
     25.5700	  553.00	  538.28	-1782.53	  419.49
     25.6700	  544.00	  537.49	-1790.74	  419.13
     25.7700	  552.00	  536.91	-1782.16	  418.76
     25.8700	  552.00	  536.46	-1781.71	  418.39
     25.9700	  568.00	  536.12	-1765.37	  418.02
     26.0700	  542.00	  535.86	-1791.11	  417.66
     26.1700	  540.00	  535.68	-1792.93	  417.29
     26.2700	  529.00	  535.57	-1803.82	  416.93
     26.3700	  547.00	  535.55	-1785.80	  416.57
     26.4700	  541.00	  535.60	-1791.85	  416.20
     26.5700	  545.00	  535.75	-1788.00	  415.84
     26.6700	  545.00	  536.01	-1788.26	  415.48
     26.7700	  550.00	  536.42	-1783.67	  415.12
     26.8700	  512.00	  536.99	-1822.24	  414.77
     26.9700	  539.00	  537.79	-1796.04	  414.41
     27.0700	  558.00	  538.88	-1778.13	  414.05
     27.1700	  546.00	  540.40	-1791.65	  413.70
     27.2700	  555.00	  542.57	-1784.82	  413.34
     27.3700	  563.00	  545.87	-1780.12	  412.99
     27.4700	  521.00	  551.17	-1827.42	  412.64
     27.5700	  513.00	  560.08	-1844.33	  412.29
     27.6700	  564.00	  575.15	-1808.40	  411.94
     27.7700	  580.00	  599.75	-1817.00	  411.59
     27.8700	  600.00	  636.96	-1834.21	  411.24
     27.9700	  638.00	  687.34	-1846.59	  410.89
     28.0700	  731.00	  745.96	-1812.21	  410.55
     28.1700	  901.00	  799.69	-1695.94	  410.20
     28.2700	  984.00	  827.67	-1640.92	  409.86
     28.3700	  953.00	  814.55	-1658.80	  409.52
     28.4700	  845.00	  776.46	-1728.71	  409.18
     28.5700	  731.00	  748.34	-1814.59	  408.84
     28.6700	  703.00	  749.11	-1843.36	  408.50
     28.7700	  763.00	  776.28	-1810.53	  408.16
     28.8700	  799.00	  810.78	-1809.03	  407.83
     28.9700	  801.00	  822.95	-1819.20	  407.49
     29.0700	  750.00	  789.71	-1836.96	  407.16
     29.1700	  719.00	  722.73	-1800.98	  406.83
     29.2700	  614.00	  654.54	-1837.79	  406.50
     29.3700	  649.00	  603.43	-1751.68	  406.17
     29.4700	  587.00	  571.66	-1781.91	  405.84
     29.5700	  576.00	  554.20	-1775.45	  405.51
     29.6700	  618.00	  544.98	-1724.23	  405.19
     29.7700	  578.00	  539.84	-1759.09	  404.86
     29.8700	  592.00	  536.67	-1741.92	  404.54
     29.9700	  618.00	  534.62	-1713.87	  404.22
     30.0700	  592.00	  533.44	-1738.69	  403.90
     30.1700	  550.00	  533.24	-1780.49	  403.58
     30.2700	  533.00	  534.46	-1798.71	  403.27
     30.3700	  537.00	  538.10	-1798.35	  402.95
     30.4700	  512.00	  545.72	-1830.97	  402.64
     30.5700	  589.00	  559.16	-1767.41	  402.33
     30.6700	  580.00	  579.30	-1796.55	  402.02
     30.7700	  597.00	  604.24	-1804.49	  401.71
     30.8700	  621.00	  627.67	-1803.92	  401.40
     30.9700	  639.00	  639.00	-1797.25	  401.09
     31.0700	  598.00	  629.04	-1828.29	  400.79
     31.1700	  611.00	  602.12	-1788.37	  400.49
     31.2700	  569.00	  572.76	-1801.01	  400.18
     31.3700	  560.00	  550.09	-1787.34	  399.89
     31.4700	  565.00	  535.89	-1768.14	  399.59
     31.5700	  523.00	  528.17	-1802.42	  399.29
     31.6700	  521.00	  524.20	-1800.45	  399.00
     31.7700	  550.00	  522.04	-1769.29	  398.70
     31.8700	  488.00	  520.69	-1829.94	  398.41
     31.9700	  506.00	  519.75	-1811.00	  398.12
     32.0700	  549.00	  519.07	-1767.32	  397.83
     32.1700	  531.00	  518.58	-1784.83	  397.54
     32.2700	  586.00	  518.25	-1729.50	  397.26
     32.3700	  545.00	  518.07	-1770.32	  396.98
     32.4700	  560.00	  518.03	-1755.28	  396.69
     32.5700	  556.00	  518.16	-1759.41	  396.41
     32.6700	  537.00	  518.47	-1778.72	  396.13
     32.7700	  558.00	  518.99	-1758.24	  395.86
     32.8700	  505.00	  519.79	-1812.04	  395.58
     32.9700	  521.00	  520.95	-1797.20	  395.31
     33.0700	  510.00	  522.66	-1809.91	  395.04
     33.1700	  557.00	  525.25	-1765.50	  394.77
     33.2700	  516.00	  529.54	-1810.79	  394.50
     33.3700	  560.00	  537.36	-1774.61	  394.23
     33.4700	  535.00	  552.35	-1814.60	  393.97
     33.5700	  607.00	  580.80	-1771.05	  393.70
     33.6700	  599.00	  630.69	-1828.94	  393.44
     33.7700	  712.00	  707.52	-1792.77	  393.18
     33.8700	  799.00	  806.15	-1804.40	  392.93
     33.9700	  972.00	  903.77	-1729.02	  392.67
     34.0700	 1027.00	  960.60	-1730.85	  392.42
     34.1700	 1052.00	  938.93	-1684.18	  392.16
     34.2700	  940.00	  846.34	-1703.59	  391.91
     34.3700	  747.00	  734.32	-1784.57	  391.66
     34.4700	  675.00	  642.54	-1764.79	  391.42
     34.5700	  592.00	  582.75	-1788.00	  391.17
     34.6700	  552.00	  549.78	-1795.03	  390.93
     34.7700	  487.00	  533.27	-1843.52	  390.69
     34.8700	  514.00	  524.91	-1808.16	  390.45
     34.9700	  507.00	  520.10	-1810.35	  390.21
     35.0700	  516.00	  516.87	-1798.12	  389.98
     35.1700	  538.00	  514.47	-1773.72	  389.74
     35.2700	  522.00	  512.58	-1787.83	  389.51
     35.3700	  508.00	  511.05	-1800.30	  389.28
     35.4700	  495.00	  509.79	-1812.04	  389.05
     35.5700	  545.00	  508.72	-1760.97	  388.82
     35.6700	  511.00	  507.81	-1794.06	  388.60
     35.7700	  477.00	  507.01	-1827.26	  388.38
     35.8700	  570.00	  506.80	-1734.05	  388.16
     35.9700	  453.00	  506.18	-1850.43	  387.94
     36.0700	  464.00	  505.63	-1838.88	  387.72
     36.1700	  492.00	  505.13	-1810.38	  387.50
     36.2700	  502.00	  504.68	-1799.93	  387.29
     36.3700	  502.00	  504.27	-1799.52	  387.08
     36.4700	  460.00	  503.89	-1841.14	  386.87
     36.5700	  502.00	  503.55	-1798.80	  386.66
     36.6700	  497.00	  503.25	-1803.50	  386.46
     36.7700	  507.00	  502.98	-1793.23	  386.25
     36.8700	  514.00	  502.77	-1786.02	  386.05
     36.9700	  493.00	  502.63	-1806.88	  385.85
     37.0700	  479.00	  502.65	-1820.90	  385.65
     37.1700	  569.00	  502.99	-1731.24	  385.46
     37.2700	  474.00	  503.96	-1827.21	  385.26
     37.3700	  528.00	  505.92	-1775.17	  385.07
     37.4700	  496.00	  509.12	-1810.37	  384.88
     37.5700	  534.00	  513.29	-1776.54	  384.69
     37.6700	  530.00	  517.41	-1784.66	  384.51
     37.7700	  528.00	  519.93	-1789.18	  384.32
     37.8700	  511.00	  519.79	-1806.04	  384.14
     37.9700	  516.00	  517.54	-1798.79	  383.96
     38.0700	  493.00	  514.31	-1818.56	  383.78
     38.1700	  503.00	  510.63	-1804.88	  383.60
     38.2700	  514.00	  506.96	-1790.21	  383.43
     38.3700	  478.00	  503.88	-1823.13	  383.26
     38.4700	  526.00	  501.63	-1772.88	  383.09
     38.5700	  441.00	  500.15	-1856.40	  382.92
     38.6700	  486.00	  499.25	-1810.50	  382.75
     38.7700	  468.00	  498.61	-1827.86	  382.58
     38.8700	  492.00	  498.24	-1803.49	  382.42
     38.9700	  479.00	  497.96	-1816.21	  382.26
     39.0700	  522.00	  497.72	-1772.97	  382.10
     39.1700	  499.00	  497.52	-1795.77	  381.94
     39.2700	  508.00	  497.23	-1786.48	  381.79
     39.3700	  511.00	  497.06	-1783.31	  381.64
     39.4700	  483.00	  496.90	-1811.15	  381.49
     39.5700	  489.00	  496.75	-1805.00	  381.34
     39.6700	  523.00	  496.61	-1770.86	  381.19
     39.7700	  513.00	  496.48	-1780.73	  381.04
     39.8700	  481.00	  496.48	-1812.73	  380.90
     39.9700	  493.00	  496.37	-1800.62	  380.76
     40.0700	  476.00	  496.26	-1817.51	  380.62
     40.1700	  506.00	  496.17	-1787.42	  380.48
     40.2700	  500.00	  496.09	-1793.34	  380.35
     40.3700	  467.00	  496.02	-1826.27	  380.21
     40.4700	  512.00	  495.96	-1781.21	  380.08
     40.5700	  495.00	  495.92	-1798.17	  379.95
     40.6700	  483.00	  495.88	-1810.13	  379.83
     40.7700	  460.00	  495.87	-1833.12	  379.70
     40.8700	  464.00	  495.88	-1829.13	  379.58
     40.9700	  467.00	  495.90	-1826.15	  379.46
     41.0700	  499.00	  495.96	-1794.21	  379.34
     41.1700	  488.00	  496.05	-1805.30	  379.22
     41.2700	  484.00	  496.14	-1809.39	  379.10
     41.3700	  504.00	  496.33	-1789.58	  378.99
     41.4700	  505.00	  496.58	-1788.83	  378.88
     41.5700	  526.00	  496.92	-1768.17	  378.77
     41.6700	  477.00	  497.82	-1818.07	  378.66
     41.7700	  483.00	  498.51	-1812.76	  378.55
     41.8700	  468.00	  499.63	-1828.88	  378.45
     41.9700	  496.00	  501.65	-1802.90	  378.35
     42.0700	  499.00	  505.59	-1803.84	  378.25
     42.1700	  509.00	  513.34	-1801.59	  378.15
     42.2700	  558.00	  527.25	-1766.50	  378.05
     42.3700	  550.00	  549.51	-1796.76	  377.96
     42.4700	  534.00	  579.77	-1843.02	  377.86
     42.5700	  592.00	  612.96	-1818.21	  377.77
     42.6700	  582.00	  638.81	-1854.06	  377.69
     42.7700	  569.00	  645.07	-1873.32	  377.60
     42.8700	  542.00	  627.50	-1882.75	  377.51
     42.9700	  543.00	  595.33	-1849.58	  377.43
     43.0700	  508.00	  561.85	-1851.10	  377.35
     43.1700	  522.00	  535.20	-1810.45	  377.27
     43.2700	  469.00	  517.61	-1845.86	  377.19
     43.3700	  486.00	  507.61	-1818.86	  377.12
     43.4700	  445.00	  502.47	-1854.72	  377.05
     43.5700	  511.00	  499.91	-1786.16	  376.97
     43.6700	  527.00	  498.73	-1768.98	  376.90
     43.7700	  512.00	  497.89	-1783.14	  376.84
     43.8700	  494.00	  497.31	-1800.56	  376.77
     43.9700	  517.00	  496.89	-1777.14	  376.71
     44.0700	  476.00	  496.57	-1817.82	  376.65
     44.1700	  527.00	  496.33	-1766.58	  376.59
     44.2700	  471.00	  496.18	-1822.43	  376.53
     44.3700	  460.00	  496.05	-1833.30	  376.47
     44.4700	  488.00	  495.96	-1805.21	  376.42
     44.5700	  502.00	  495.79	-1791.04	  376.36
     44.6700	  476.00	  495.77	-1817.02	  376.31
     44.7700	  496.00	  495.78	-1797.03	  376.26
     44.8700	  459.00	  495.81	-1834.06	  376.22
     44.9700	  479.00	  495.87	-1814.12	  376.17
     45.0700	  524.00	  495.94	-1769.19	  376.13
     45.1700	  479.00	  496.04	-1814.29	  376.09
     45.2700	  480.00	  496.35	-1813.60	  376.05
     45.3700	  539.00	  496.49	-1754.74	  376.01
     45.4700	  499.00	  496.66	-1794.91	  375.97
     45.5700	  489.00	  496.84	-1805.09	  375.94
     45.6700	  480.00	  497.05	-1814.30	  375.90
     45.7700	  481.00	  497.29	-1813.54	  375.87
     45.8700	  477.00	  497.56	-1817.81	  375.84
     45.9700	  506.00	  497.85	-1789.10	  375.82
     46.0700	  483.00	  498.18	-1812.43	  375.79
     46.1700	  471.00	  498.54	-1824.79	  375.77
     46.2700	  471.00	  498.95	-1825.20	  375.75
     46.3700	  533.00	  499.40	-1763.65	  375.73
     46.4700	  487.00	  499.91	-1810.16	  375.71
     46.5700	  501.00	  500.48	-1796.73	  375.69
     46.6700	  548.00	  501.13	-1750.38	  375.68
     46.7700	  513.00	  501.88	-1786.13	  375.66
     46.8700	  515.00	  502.76	-1785.01	  375.65
     46.9700	  475.00	  503.86	-1826.11	  375.64
     47.0700	  507.00	  505.36	-1795.61	  375.63
     47.1700	  521.00	  507.66	-1783.91	  375.63
     47.2700	  529.00	  511.53	-1779.78	  375.62
     47.3700	  510.00	  518.10	-1805.35	  375.62
     47.4700	  530.00	  528.75	-1796.00	  375.62
     47.5700	  575.00	  544.20	-1766.45	  375.62
     47.6700	  600.00	  563.73	-1760.98	  375.62
     47.7700	  580.00	  584.16	-1801.41	  375.63
     47.8700	  586.00	  599.71	-1810.96	  375.63
     47.9700	  579.00	  604.43	-1822.68	  375.64
     48.0700	  552.00	  596.54	-1841.79	  375.65
     48.1700	  554.00	  580.71	-1823.96	  375.66
     48.2700	  547.00	  563.61	-1813.86	  375.67
     48.3700	  523.00	  549.86	-1824.11	  375.68
     48.4700	  537.00	  541.33	-1801.58	  375.70
     48.5700	  536.00	  537.84	-1799.09	  375.72
     48.6700	  515.00	  538.29	-1820.54	  375.73
     48.7700	  507.00	  541.52	-1831.77	  375.76
     48.8700	  571.00	  546.87	-1773.12	  375.78
     48.9700	  539.00	  554.23	-1812.48	  375.80
     49.0700	  554.00	  564.12	-1807.37	  375.83
     49.1700	  627.00	  577.97	-1748.22	  375.85
     49.2700	  604.00	  598.79	-1792.04	  375.88
     49.3700	  603.00	  632.40	-1826.65	  375.91
     49.4700	  720.00	  688.79	-1766.04	  375.94
     49.5700	  787.00	  782.66	-1792.91	  375.97
     49.6700	  943.00	  932.00	-1786.25	  376.01
     49.7700	 1026.00	 1151.20	-1922.45	  376.04
     49.8700	 1428.00	 1443.32	-1812.57	  376.08
     49.9700	 1677.00	 1787.69	-1907.94	  376.12
     50.0700	 2111.00	 2129.80	-1816.05	  376.16
     50.1700	 2509.00	 2380.42	-1668.67	  376.20
     50.2700	 2504.00	 2444.74	-1737.99	  376.25
     50.3700	 2336.00	 2291.42	-1752.67	  376.29
     50.4700	 2018.00	 1986.58	-1765.83	  376.34
     50.5700	 1501.00	 1633.82	-1930.07	  376.38
     50.6700	 1133.00	 1310.48	-1974.73	  376.43
     50.7700	  854.00	 1055.32	-1998.57	  376.48
     50.8700	  692.00	  876.96	-1982.21	  376.54
     50.9700	  674.00	  764.68	-1887.93	  376.59
     51.0700	  614.00	  699.19	-1882.44	  376.64
     51.1700	  650.00	  660.79	-1808.04	  376.70
     51.2700	  615.00	  634.59	-1816.84	  376.76
     51.3700	  553.00	  612.74	-1856.99	  376.82
     51.4700	  562.00	  593.23	-1828.48	  376.88
     51.5700	  611.00	  576.58	-1762.83	  376.94
     51.6700	  563.00	  563.41	-1797.66	  377.00
     51.7700	  571.00	  553.80	-1780.05	  377.07
     51.8700	  533.00	  547.19	-1811.44	  377.13
     51.9700	  559.00	  542.76	-1781.01	  377.20
     52.0700	  520.00	  539.78	-1817.03	  377.27
     52.1700	  580.00	  537.82	-1755.07	  377.34
     52.2700	  546.00	  536.71	-1787.96	  377.41
     52.3700	  545.00	  536.69	-1788.94	  377.48
     52.4700	  540.00	  537.58	-1794.83	  377.56
     52.5700	  628.00	  540.20	-1709.45	  377.63
     52.6700	  609.00	  546.02	-1734.27	  377.71
     52.7700	  616.00	  557.95	-1739.20	  377.78
     52.8700	  607.00	  581.10	-1771.35	  377.86
     52.9700	  671.00	  622.81	-1749.06	  377.94
     53.0700	  775.00	  691.00	-1713.25	  378.02
     53.1700	  878.00	  790.41	-1709.66	  378.11
     53.2700	  985.00	  917.14	-1729.39	  378.19
     53.3700	 1092.00	 1054.06	-1759.31	  378.28
     53.4700	 1153.00	 1169.84	-1814.09	  378.36
     53.5700	 1191.00	 1226.20	-1832.45	  378.45
     53.6700	 1147.00	 1199.16	-1849.41	  378.54
     53.7700	 1038.00	 1100.13	-1859.38	  378.63
     53.8700	  915.00	  966.02	-1848.27	  378.72
     53.9700	  773.00	  832.77	-1857.02	  378.81
     54.0700	  677.00	  722.83	-1843.08	  378.90
     54.1700	  666.00	  644.25	-1775.50	  379.00
     54.2700	  648.00	  594.64	-1743.89	  379.09
     54.3700	  584.00	  566.50	-1779.75	  379.19
     54.4700	  591.00	  551.84	-1758.09	  379.29
     54.5700	  602.00	  544.72	-1739.97	  379.38
     54.6700	  552.00	  541.47	-1786.72	  379.48
     54.7700	  523.00	  540.21	-1814.46	  379.58
     54.8700	  547.00	  540.12	-1790.37	  379.69
     54.9700	  555.00	  540.86	-1783.11	  379.79
     55.0700	  554.00	  542.31	-1785.56	  379.89
     55.1700	  543.00	  544.46	-1798.71	  380.00
     55.2700	  568.00	  547.36	-1776.61	  380.10
     55.3700	  561.00	  551.11	-1787.36	  380.21
     55.4700	  531.00	  555.91	-1822.16	  380.32
     55.5700	  552.00	  562.01	-1807.26	  380.43
     55.6700	  577.00	  570.03	-1790.28	  380.54
     55.7700	  580.00	  581.22	-1798.47	  380.65
     55.8700	  592.00	  598.09	-1803.34	  380.76
     55.9700	  587.00	  625.58	-1835.83	  380.87
     56.0700	  637.00	  672.40	-1832.65	  380.98
     56.1700	  688.00	  752.05	-1861.30	  381.10
     56.2700	  812.00	  882.13	-1867.38	  381.21
     56.3700	 1016.00	 1080.53	-1861.78	  381.33
     56.4700	 1261.00	 1357.78	-1894.03	  381.45
     56.5700	 1600.00	 1706.87	-1904.12	  381.56
     56.6700	 1955.00	 2094.34	-1936.59	  381.68
     56.7700	 2355.00	 2454.80	-1897.05	  381.80
     56.8700	 2611.00	 2697.31	-1883.56	  381.92
     56.9700	 2666.00	 2738.93	-1870.18	  382.04
     57.0700	 2548.00	 2562.83	-1812.08	  382.17
     57.1700	 2235.00	 2234.41	-1796.66	  382.29
     57.2700	 1836.00	 1849.16	-1810.41	  382.41
     57.3700	 1490.00	 1483.75	-1791.00	  382.54
     57.4700	 1062.00	 1182.72	-1917.97	  382.66
     57.5700	  948.00	  961.63	-1810.88	  382.79
     57.6700	  793.00	  815.18	-1819.43	  382.92
     57.7700	  768.00	  727.68	-1756.93	  383.04
     57.8700	  698.00	  681.85	-1781.10	  383.17
     57.9700	  647.00	  664.28	-1814.53	  383.30
     58.0700	  651.00	  667.05	-1813.30	  383.43
     58.1700	  694.00	  686.88	-1790.13	  383.56
     58.2700	  756.00	  723.34	-1764.59	  383.69
     58.3700	  825.00	  776.85	-1749.10	  383.82
     58.4700	  933.00	  846.93	-1711.18	  383.95
     58.5700	 1022.00	  930.43	-1705.68	  384.09
     58.6700	 1319.00	 1020.39	-1498.64	  384.22
     58.7700	 1376.00	 1107.06	-1528.31	  384.35
     58.8700	 1572.00	 1181.99	-1407.24	  384.49
     58.9700	 1607.00	 1240.13	-1430.38	  384.62
     59.0700	 1687.00	 1276.33	-1386.58	  384.76
     59.1700	 1661.00	 1284.47	-1420.72	  384.90
     59.2700	 1522.00	 1265.00	-1540.25	  385.03
     59.3700	 1438.00	 1229.18	-1588.43	  385.17
     59.4700	 1264.00	 1192.17	-1725.42	  385.31
     59.5700	 1255.00	 1164.95	-1707.20	  385.45
     59.6700	 1143.00	 1154.22	-1808.47	  385.59
     59.7700	 1141.00	 1166.48	-1822.73	  385.73
     59.8700	 1195.00	 1207.98	-1810.23	  385.87
     59.9700	 1243.00	 1278.88	-1833.13	  386.01
     60.0700	 1399.00	 1368.24	-1766.49	  386.15
     60.1700	 1539.00	 1452.68	-1710.93	  386.29
     60.2700	 1574.00	 1500.22	-1723.47	  386.43
     60.3700	 1594.00	 1483.75	-1687.00	  386.57
     60.4700	 1502.00	 1399.27	-1694.52	  386.72
     60.5700	 1331.00	 1267.89	-1734.14	  386.86
     60.6700	 1131.00	 1119.20	-1785.45	  387.00
     60.7700	  991.00	  977.40	-1783.65	  387.15
     60.8700	  877.00	  857.63	-1777.88	  387.29
     60.9700	  709.00	  766.63	-1854.88	  387.44
     61.0700	  668.00	  704.95	-1834.20	  387.58
     61.1700	  626.00	  669.89	-1841.14	  387.73
     61.2700	  650.00	  658.40	-1805.65	  387.87
     61.3700	  647.00	  669.23	-1819.48	  388.02
     61.4700	  695.00	  703.71	-1805.96	  388.16
     61.5700	  693.00	  765.02	-1869.27	  388.31
     61.6700	  825.00	  856.10	-1828.35	  388.46
     61.7700	  944.00	  976.70	-1829.95	  388.60
     61.8700	 1034.00	 1120.44	-1883.69	  388.75
     61.9700	 1173.00	 1272.55	-1896.80	  388.90
     62.0700	 1317.00	 1408.89	-1889.14	  389.05
     62.1700	 1442.00	 1498.64	-1853.89	  389.19
     62.2700	 1343.00	 1514.86	-1969.11	  389.34
     62.3700	 1342.00	 1451.51	-1906.76	  389.49
     62.4700	 1281.00	 1328.28	-1844.53	  389.64
     62.5700	 1131.00	 1176.39	-1842.64	  389.79
     62.6700	 1016.00	 1023.41	-1804.66	  389.94
     62.7700	  796.00	  887.95	-1889.20	  390.09
     62.8700	  681.00	  779.35	-1895.60	  390.24
     62.9700	  646.00	  699.42	-1850.67	  390.39
     63.0700	  635.00	  644.87	-1807.12	  390.53
     63.1700	  659.00	  610.01	-1748.26	  390.68
     63.2700	  583.00	  588.96	-1803.21	  390.83
     63.3700	  530.00	  576.99	-1844.24	  390.98
     63.4700	  569.00	  570.98	-1799.23	  391.13
     63.5700	  610.00	  569.39	-1756.64	  391.28
     63.6700	  541.00	  572.11	-1828.36	  391.43
     63.7700	  574.00	  580.13	-1803.38	  391.58
     63.8700	  614.00	  595.37	-1778.62	  391.73
     63.9700	  636.00	  620.18	-1781.43	  391.88
     64.0700	  643.00	  656.64	-1810.89	  392.03
     64.1700	  719.00	  705.57	-1783.82	  392.18
     64.2700	  855.00	  765.44	-1707.69	  392.33
     64.3700	  905.00	  831.53	-1723.78	  392.48
     64.4700	  998.00	  895.59	-1694.84	  392.63
     64.5700	 1064.00	  946.38	-1679.63	  392.78
     64.6700	 1026.00	  972.42	-1743.67	  392.93
     64.7700	 1092.00	  969.01	-1674.26	  393.08
     64.8700	 1031.00	  938.10	-1704.35	  393.23
     64.9700	  949.00	  888.09	-1736.34	  393.38
     65.0700	  833.00	  829.48	-1793.73	  393.53
     65.1700	  790.00	  771.70	-1778.95	  393.68
     65.2700	  765.00	  720.94	-1753.19	  393.83
     65.3700	  724.00	  679.67	-1752.92	  393.97
     65.4700	  648.00	  647.52	-1796.77	  394.12
     65.5700	  640.00	  622.74	-1779.99	  394.27
     65.6700	  627.00	  603.58	-1773.83	  394.42
     65.7700	  590.00	  588.81	-1796.06	  394.57
     65.8700	  556.00	  577.63	-1818.88	  394.72
     65.9700	  615.00	  569.49	-1751.74	  394.86
     66.0700	  567.00	  563.99	-1794.24	  395.01
     66.1700	  536.00	  560.77	-1822.02	  395.16
     66.2700	  594.00	  559.48	-1762.73	  395.30
     66.3700	  574.00	  559.79	-1783.04	  395.45
     66.4700	  560.00	  561.47	-1798.72	  395.60
     66.5700	  554.00	  564.44	-1807.69	  395.74
     66.6700	  508.00	  568.90	-1858.15	  395.89
     66.7700	  586.00	  575.51	-1786.76	  396.03
     66.8700	  595.00	  585.30	-1787.55	  396.18
     66.9700	  554.00	  600.60	-1843.85	  396.32
     67.0700	  607.00	  625.15	-1815.40	  396.47
     67.1700	  629.00	  664.66	-1832.91	  396.61
     67.2700	  730.00	  726.84	-1794.09	  396.75
     67.3700	  740.00	  820.85	-1878.10	  396.89
     67.4700	  928.00	  955.54	-1824.79	  397.04
     67.5700	 1182.00	 1136.64	-1751.89	  397.18
     67.6700	 1394.00	 1363.30	-1766.55	  397.32
     67.7700	 1624.00	 1624.76	-1798.01	  397.46
     67.8700	 1789.00	 1898.09	-1906.34	  397.60
     67.9700	 2202.00	 2147.92	-1743.17	  397.74
     68.0700	 2463.00	 2329.69	-1663.94	  397.88
     68.1700	 2374.00	 2401.17	-1824.42	  398.02
     68.2700	 2346.00	 2342.85	-1794.10	  398.16
     68.3700	 2181.00	 2170.75	-1787.00	  398.30
     68.4700	 1952.00	 1925.91	-1771.16	  398.44
     68.5700	 1669.00	 1653.49	-1781.74	  398.57
     68.6700	 1373.00	 1389.98	-1814.23	  398.71
     68.7700	 1147.00	 1159.51	-1809.76	  398.85
     68.8700	  925.00	  974.15	-1846.40	  398.98
     68.9700	  803.00	  835.43	-1829.68	  399.12
     69.0700	  730.00	  738.27	-1805.52	  399.25
     69.1700	  721.00	  673.82	-1750.07	  399.39
     69.2700	  652.00	  632.91	-1778.16	  399.52
     69.3700	  620.00	  607.63	-1784.88	  399.65
     69.4700	  564.00	  592.08	-1825.33	  399.78
     69.5700	  611.00	  582.32	-1768.57	  399.91
     69.6700	  568.00	  575.96	-1805.21	  400.04
     69.7700	  555.00	  571.64	-1813.89	  400.17
     69.8700	  586.00	  568.65	-1779.90	  400.30
     69.9700	  554.00	  566.60	-1809.85	  400.43
     70.0700	  517.00	  565.32	-1845.57	  400.56
     70.1700	  559.00	  564.72	-1802.97	  400.69
     70.2700	  561.00	  564.79	-1801.04	  400.81
     70.3700	  568.00	  565.59	-1794.84	  400.94
     70.4700	  567.00	  567.24	-1797.49	  401.06
     70.5700	  537.00	  570.05	-1830.30	  401.19
     70.6700	  595.00	  574.65	-1776.90	  401.31
     70.7700	  596.00	  582.12	-1783.37	  401.43
     70.8700	  568.00	  594.30	-1823.55	  401.56
     70.9700	  575.00	  614.06	-1836.31	  401.68
     71.0700	  627.00	  645.54	-1815.79	  401.80
     71.1700	  735.00	  694.05	-1756.30	  401.92
     71.2700	  777.00	  766.48	-1786.73	  402.03
     71.3700	  913.00	  866.62	-1750.87	  402.15
     71.4700	  940.00	  998.71	-1855.96	  402.27
     71.5700	 1113.00	 1161.87	-1846.12	  402.39
     71.6700	 1287.00	 1349.19	-1859.44	  402.50
     71.7700	 1478.00	 1546.43	-1865.68	  402.61
     71.8700	 1642.00	 1731.94	-1887.19	  402.73
     71.9700	 1826.00	 1878.24	-1849.49	  402.84
     72.0700	 1894.00	 1957.33	-1860.58	  402.95
     72.1700	 1964.00	 1951.06	-1784.31	  403.06
     72.2700	 1952.00	 1861.16	-1706.41	  403.17
     72.3700	 1745.00	 1707.79	-1760.04	  403.28
     72.4700	 1600.00	 1520.39	-1717.64	  403.39
     72.5700	 1436.00	 1325.15	-1686.40	  403.50
     72.6700	 1222.00	 1142.35	-1717.60	  403.60
     72.7700	 1153.00	  984.75	-1629.00	  403.71
     72.8700	 1025.00	  857.99	-1630.24	  403.81
     72.9700	  948.00	  762.00	-1611.25	  403.91
     73.0700	  857.00	  692.94	-1633.19	  404.01
     73.1700	  799.00	  645.30	-1643.55	  404.11
     73.2700	  759.00	  613.42	-1651.67	  404.21
     73.3700	  656.00	  592.41	-1733.66	  404.31
     73.4700	  629.00	  578.56	-1746.81	  404.41
     73.5700	  632.00	  569.31	-1734.56	  404.51
     73.6700	  593.00	  563.05	-1767.30	  404.60
     73.7700	  604.00	  558.78	-1752.03	  404.70
     73.8700	  565.00	  555.97	-1788.22	  404.79
     73.9700	  592.00	  554.27	-1759.52	  404.88
     74.0700	  567.00	  553.49	-1783.74	  404.97
     74.1700	  597.00	  553.44	-1753.69	  405.06
     74.2700	  554.00	  553.96	-1797.21	  405.15
     74.3700	  545.00	  554.81	-1807.06	  405.24
     74.4700	  610.00	  555.71	-1742.96	  405.33
     74.5700	  644.00	  556.35	-1709.60	  405.41
     74.6700	  564.00	  556.43	-1789.68	  405.50
     74.7700	  637.00	  555.76	-1716.01	  405.58
     74.8700	  668.00	  554.36	-1683.61	  405.66
     74.9700	  572.00	  552.43	-1777.68	  405.74
     75.0700	  621.00	  550.28	-1726.53	  405.82
     75.1700	  610.00	  548.33	-1735.58	  405.90
     75.2700	  599.00	  546.91	-1745.16	  405.98
     75.3700	  573.00	  546.35	-1770.59	  406.05
     75.4700	  577.00	  547.15	-1767.40	  406.13
     75.5700	  567.00	  549.73	-1779.98	  406.20
     75.6700	  556.00	  554.49	-1795.74	  406.27
     75.7700	  547.00	  562.17	-1812.42	  406.34
     75.8700	  570.00	  573.09	-1800.34	  406.41
     75.9700	  588.00	  587.48	-1796.73	  406.48
     76.0700	  609.00	  605.16	-1793.41	  406.55
     76.1700	  598.00	  625.42	-1824.67	  406.61
     76.2700	  639.00	  646.90	-1805.15	  406.68
     76.3700	  684.00	  667.62	-1780.87	  406.74
     76.4700	  712.00	  685.04	-1770.29	  406.80
     76.5700	  718.00	  696.45	-1775.70	  406.86
     76.6700	  663.00	  699.68	-1833.93	  406.92
     76.7700	  718.00	  694.02	-1773.27	  406.98
     76.8700	  704.00	  680.61	-1773.86	  407.04
     76.9700	  589.00	  661.84	-1870.09	  407.09
     77.0700	  611.00	  640.26	-1826.51	  407.15
     77.1700	  625.00	  618.61	-1790.86	  407.20
     77.2700	  545.00	  598.56	-1850.81	  407.25
     77.3700	  512.00	  581.24	-1866.49	  407.30
     77.4700	  507.00	  567.20	-1857.45	  407.35
     77.5700	  559.00	  556.43	-1794.68	  407.39
     77.6700	  529.00	  548.58	-1816.83	  407.44
     77.7700	  527.00	  543.12	-1813.37	  407.48
     77.8700	  512.00	  539.47	-1824.72	  407.53
     77.9700	  556.00	  537.10	-1778.35	  407.57
     78.0700	  493.00	  535.59	-1839.84	  407.61
     78.1700	  566.00	  534.64	-1765.89	  407.65
     78.2700	  513.00	  534.03	-1818.28	  407.68
     78.3700	  492.00	  533.65	-1838.90	  407.72
     78.4700	  541.00	  533.41	-1789.66	  407.75
     78.5700	  543.00	  533.28	-1787.53	  407.78
     78.6700	  490.00	  533.24	-1840.49	  407.81
     78.7700	  478.00	  533.27	-1852.52	  407.84
     78.8700	  489.00	  533.40	-1841.65	  407.87
     78.9700	  495.00	  533.64	-1835.89	  407.90
     79.0700	  514.00	  534.01	-1817.26	  407.92
     79.1700	  534.00	  534.55	-1797.80	  407.95
     79.2700	  494.00	  535.31	-1838.56	  407.97
     79.3700	  502.00	  536.17	-1831.42	  407.99
     79.4700	  552.00	  537.56	-1782.81	  408.01
     79.5700	  526.00	  539.38	-1810.63	  408.02
     79.6700	  522.00	  541.75	-1817.00	  408.04
     79.7700	  521.00	  544.78	-1821.03	  408.05
     79.8700	  541.00	  548.64	-1804.89	  408.07
     79.9700	  516.00	  553.52	-1834.77	  408.08
     80.0700	  516.00	  559.65	-1840.90	  408.09
     80.1700	  556.00	  567.28	-1808.53	  408.09
     80.2700	  550.00	  576.68	-1823.93	  408.10
     80.3700	  586.00	  588.09	-1799.34	  408.11
     80.4700	  619.00	  601.64	-1779.89	  408.11
     80.5700	  626.00	  617.24	-1788.49	  408.11
     80.6700	  607.00	  634.52	-1824.77	  408.11
     80.7700	  631.00	  652.75	-1819.00	  408.11
     80.8700	  639.00	  670.84	-1829.09	  408.10
     80.9700	  640.00	  687.45	-1844.70	  408.10
     81.0700	  675.00	  701.23	-1823.48	  408.09
     81.1700	  717.00	  711.08	-1791.33	  408.08
     81.2700	  714.00	  716.32	-1799.57	  408.08
     81.3700	  670.00	  716.66	-1843.91	  408.06
     81.4700	  755.00	  712.24	-1754.49	  408.05
     81.5700	  767.00	  703.61	-1733.86	  408.04
     81.6700	  736.00	  691.58	-1752.83	  408.02
     81.7700	  736.00	  677.07	-1738.32	  408.00
     81.8700	  736.00	  660.96	-1722.21	  407.98
     81.9700	  712.00	  644.12	-1729.37	  407.96
     82.0700	  717.00	  627.55	-1707.80	  407.94
     82.1700	  628.00	  611.96	-1781.21	  407.91
     82.2700	  667.00	  597.85	-1728.10	  407.89
     82.3700	  632.00	  585.49	-1750.74	  407.86
     82.4700	  631.00	  574.99	-1741.24	  407.83
     82.5700	  608.00	  566.35	-1755.60	  407.80
     82.6700	  610.00	  559.47	-1746.72	  407.76
     82.7700	  577.00	  554.30	-1774.55	  407.73
     82.8700	  574.00	  550.72	-1773.97	  407.69
     82.9700	  551.00	  548.60	-1794.85	  407.65
     83.0700	  566.00	  547.86	-1779.11	  407.61
     83.1700	  495.00	  548.41	-1850.66	  407.57
     83.2700	  520.00	  550.15	-1827.40	  407.53
     83.3700	  558.00	  552.96	-1792.21	  407.48
     83.4700	  545.00	  556.66	-1808.91	  407.44
     83.5700	  559.00	  561.00	-1799.25	  407.39
     83.6700	  573.00	  565.65	-1789.90	  407.34
     83.7700	  525.00	  570.19	-1842.44	  407.29
     83.8700	  528.00	  574.11	-1843.36	  407.23
     83.9700	  550.00	  576.90	-1824.15	  407.18
     84.0700	  538.00	  578.10	-1837.35	  407.12
     84.1700	  586.00	  577.49	-1788.74	  407.06
     84.2700	  589.00	  575.10	-1783.35	  407.00
     84.3700	  531.00	  571.28	-1837.53	  406.94
     84.4700	  543.00	  566.49	-1820.74	  406.87
     84.5700	  546.00	  561.23	-1812.48	  406.81
     84.6700	  521.00	  555.91	-1832.16	  406.74
     84.7700	  509.00	  550.88	-1839.13	  406.67
     84.8700	  553.00	  546.38	-1790.63	  406.60
     84.9700	  497.00	  542.54	-1842.79	  406.53
     85.0700	  527.00	  539.42	-1809.67	  406.45
     85.1700	  530.00	  537.02	-1804.27	  406.38
     85.2700	  480.00	  535.26	-1852.51	  406.30
     85.3700	  508.00	  534.09	-1823.34	  406.22
     85.4700	  481.00	  533.39	-1849.64	  406.14
     85.5700	  521.00	  533.11	-1809.36	  406.05
     85.6700	  513.00	  533.17	-1817.42	  405.97
     85.7700	  476.00	  533.54	-1854.79	  405.88
     85.8700	  520.00	  534.19	-1811.44	  405.79
     85.9700	  510.00	  535.15	-1822.40	  405.70
     86.0700	  451.00	  536.45	-1882.70	  405.61
     86.1700	  487.00	  538.17	-1848.42	  405.52
     86.2700	  516.00	  540.39	-1821.64	  405.42
     86.3700	  535.00	  543.24	-1805.49	  405.32
     86.4700	  570.00	  546.87	-1774.12	  405.22
     86.5700	  537.00	  551.42	-1811.67	  405.12
     86.6700	  597.00	  557.02	-1757.27	  405.02
     86.7700	  596.00	  563.71	-1764.96	  404.92
     86.8700	  569.00	  571.14	-1799.39	  404.81
     86.9700	  563.00	  579.67	-1813.92	  404.70
     87.0700	  588.00	  588.62	-1797.87	  404.59
     87.1700	  592.00	  597.43	-1802.68	  404.48
     87.2700	  600.00	  605.40	-1802.65	  404.37
     87.3700	  656.00	  611.76	-1753.01	  404.25
     87.4700	  634.00	  615.74	-1778.99	  404.14
     87.5700	  675.00	  616.83	-1739.08	  404.02
     87.6700	  668.00	  614.88	-1744.13	  403.90
     87.7700	  659.00	  610.20	-1748.45	  403.77
     87.8700	  602.00	  603.47	-1798.72	  403.65
     87.9700	  613.00	  595.56	-1779.81	  403.52
     88.0700	  556.00	  587.33	-1828.58	  403.40
     88.1700	  623.00	  579.61	-1753.86	  403.27
     88.2700	  588.00	  573.05	-1782.30	  403.14
     88.3700	  541.00	  568.18	-1824.43	  403.00
     88.4700	  584.00	  565.31	-1778.56	  402.87
     88.5700	  586.00	  564.59	-1775.84	  402.73
     88.6700	  584.00	  565.98	-1779.23	  402.60
     88.7700	  577.00	  569.29	-1789.54	  402.46
     88.8700	  645.00	  574.16	-1726.41	  402.32
     88.9700	  550.00	  580.13	-1827.38	  402.17
     89.0700	  571.00	  586.61	-1812.86	  402.03
     89.1700	  600.00	  592.95	-1790.20	  401.88
     89.2700	  605.00	  598.43	-1790.68	  401.73
     89.3700	  630.00	  602.37	-1769.62	  401.58
     89.4700	  607.00	  604.19	-1794.44	  401.43
     89.5700	  586.00	  603.59	-1814.84	  401.28
     89.6700	  570.00	  600.60	-1827.85	  401.12
     89.7700	  597.00	  595.57	-1795.82	  400.97
     89.8700	  583.00	  589.04	-1803.29	  400.81
     89.9700	  637.00	  581.63	-1741.88	  400.65
     90.0700	  551.00	  573.89	-1820.14	  400.49
     90.1700	  536.00	  566.31	-1827.56	  400.32
     90.2700	  517.00	  559.26	-1839.51	  400.16
     90.3700	  479.00	  552.99	-1871.24	  399.99
     90.4700	  479.00	  547.65	-1865.90	  399.82
     90.5700	  518.00	  543.27	-1822.52	  399.65
     90.6700	  526.00	  539.84	-1811.09	  399.48
     90.7700	  530.00	  537.26	-1804.51	  399.31
     90.8700	  535.00	  535.44	-1797.69	  399.13
     90.9700	  560.00	  534.24	-1771.49	  398.95
     91.0700	  512.00	  533.58	-1818.83	  398.77
     91.1700	  519.00	  533.38	-1811.63	  398.59
     91.2700	  497.00	  533.60	-1833.85	  398.41
     91.3700	  512.00	  534.24	-1819.49	  398.23
     91.4700	  547.00	  535.36	-1785.61	  398.04
     91.5700	  530.00	  537.03	-1804.28	  397.86
     91.6700	  467.00	  539.40	-1869.65	  397.67
     91.7700	  553.00	  542.63	-1786.88	  397.48
     91.8700	  505.00	  546.92	-1839.17	  397.29
     91.9700	  548.00	  552.27	-1801.52	  397.09
     92.0700	  551.00	  559.31	-1805.56	  396.90
     92.1700	  565.00	  567.98	-1800.23	  396.70
     92.2700	  606.00	  578.40	-1769.65	  396.51
     92.3700	  600.00	  590.57	-1787.82	  396.31
     92.4700	  577.00	  604.39	-1824.64	  396.10
     92.5700	  622.00	  619.63	-1794.88	  395.90
     92.6700	  674.00	  635.92	-1759.17	  395.70
     92.7700	  689.00	  652.75	-1761.00	  395.49
     92.8700	  706.00	  669.51	-1760.76	  395.28
     92.9700	  711.00	  685.47	-1771.72	  395.08
     93.0700	  767.00	  699.99	-1730.24	  394.87
     93.1700	  739.00	  712.54	-1770.79	  394.65
     93.2700	  824.00	  722.97	-1696.22	  394.44
     93.3700	  835.00	  731.53	-1693.78	  394.22
     93.4700	  815.00	  738.79	-1721.04	  394.01
     93.5700	  824.00	  745.52	-1718.77	  393.79
     93.6700	  871.00	  752.48	-1678.73	  393.57
     93.7700	  792.00	  760.33	-1765.58	  393.35
     93.8700	  902.00	  769.60	-1664.85	  393.13
     93.9700	  810.00	  780.71	-1767.96	  392.90
     94.0700	  825.00	  793.99	-1766.24	  392.68
     94.1700	  813.00	  809.59	-1793.84	  392.45
     94.2700	  901.00	  827.39	-1723.64	  392.22
     94.3700	  883.00	  846.92	-1761.17	  392.00
     94.4700	  858.00	  867.25	-1806.50	  391.76
     94.5700	  909.00	  887.00	-1775.25	  391.53
     94.6700	  906.00	  904.45	-1795.70	  391.30
     94.7700	  947.00	  917.62	-1767.87	  391.06
     94.8700	  952.00	  924.62	-1769.87	  390.83
     94.9700	  899.00	  924.01	-1822.26	  390.59
     95.0700	  865.00	  915.20	-1847.45	  390.35
     95.1700	  905.00	  898.64	-1790.89	  390.11
     95.2700	  895.00	  875.71	-1777.96	  389.87
     95.3700	  840.00	  848.29	-1805.54	  389.62
     95.4700	  780.00	  818.52	-1835.77	  389.38
     95.5700	  749.00	  788.47	-1836.72	  389.13
     95.6700	  734.00	  760.11	-1823.36	  388.89
     95.7700	  688.00	  735.18	-1844.43	  388.64
     95.8700	  637.00	  715.27	-1875.52	  388.39
     95.9700	  647.00	  701.75	-1852.00	  388.14
     96.0700	  666.00	  695.86	-1827.11	  387.89
     96.1700	  672.00	  698.67	-1823.92	  387.63
     96.2700	  684.00	  711.05	-1824.30	  387.38
     96.3700	  697.00	  733.70	-1833.95	  387.12
     96.4700	  758.00	  767.03	-1806.28	  386.87
     96.5700	  758.00	  811.13	-1850.38	  386.61
     96.6700	  896.00	  865.61	-1766.86	  386.35
     96.7700	  847.00	  929.52	-1879.77	  386.09
     96.8700	 1004.00	 1001.27	-1794.52	  385.83
     96.9700	 1037.00	 1078.52	-1838.77	  385.57
     97.0700	 1075.00	 1158.23	-1880.48	  385.30
     97.1700	 1218.00	 1236.65	-1815.90	  385.04
     97.2700	 1273.00	 1309.45	-1833.70	  384.77
     97.3700	 1381.00	 1371.99	-1788.24	  384.50
     97.4700	 1380.00	 1419.68	-1836.93	  384.24
     97.5700	 1439.00	 1448.69	-1806.94	  383.97
     97.6700	 1418.00	 1456.64	-1835.89	  383.70
     97.7700	 1462.00	 1443.22	-1778.47	  383.43
     97.8700	 1459.00	 1410.13	-1748.38	  383.15
     97.9700	 1368.00	 1360.69	-1789.94	  382.88
     98.0700	 1250.00	 1299.13	-1846.38	  382.61
     98.1700	 1188.00	 1229.95	-1839.20	  382.33
     98.2700	 1210.00	 1157.54	-1744.79	  382.06
     98.3700	 1082.00	 1085.90	-1801.15	  381.78
     98.4700	 1008.00	 1018.52	-1807.77	  381.50
     98.5700	  909.00	  958.25	-1846.50	  381.22
     98.6700	  901.00	  907.40	-1803.65	  380.94
     98.7700	  829.00	  867.73	-1835.98	  380.66
     98.8700	  783.00	  840.51	-1854.76	  380.38
     98.9700	  769.00	  826.66	-1854.91	  380.10
     99.0700	  760.00	  826.79	-1864.04	  379.82
     99.1700	  794.00	  841.26	-1844.51	  379.53
     99.2700	  814.00	  870.22	-1853.47	  379.25
     99.3700	  862.00	  913.59	-1848.84	  378.96
     99.4700	  991.00	  971.05	-1777.30	  378.68
     99.5700	 1009.00	 1041.97	-1830.22	  378.39
     99.6700	 1111.00	 1125.35	-1811.60	  378.10
     99.7700	 1169.00	 1219.65	-1847.90	  377.82
     99.8700	 1266.00	 1322.79	-1854.04	  377.53
     99.9700	 1405.00	 1431.98	-1824.23	  377.24
    100.0700	 1543.00	 1543.78	-1798.03	  376.95
    100.1700	 1650.00	 1654.13	-1801.38	  376.66
    100.2700	 1742.00	 1758.55	-1813.80	  376.36
    100.3700	 1865.00	 1852.66	-1784.91	  376.07
    100.4700	 1916.00	 1932.60	-1813.85	  375.78
    100.5700	 2052.00	 1995.49	-1740.74	  375.49
    100.6700	 2125.00	 2039.40	-1711.65	  375.19
    100.7700	 2124.00	 2063.12	-1736.37	  374.90
    100.8700	 2100.00	 2065.97	-1763.22	  374.60
    100.9700	 2108.00	 2047.73	-1736.98	  374.31
    101.0700	 2080.00	 2008.91	-1726.16	  374.01
    101.1700	 2035.00	 1951.14	-1713.39	  373.72
    101.2700	 1908.00	 1877.41	-1766.66	  373.42
    101.3700	 1872.00	 1791.93	-1717.18	  373.12
    101.4700	 1672.00	 1699.64	-1824.89	  372.83
    101.5700	 1606.00	 1605.57	-1796.82	  372.53
    101.6700	 1513.00	 1514.28	-1798.53	  372.23
    101.7700	 1402.00	 1429.56	-1824.81	  371.93
    101.8700	 1353.00	 1354.15	-1798.40	  371.63
    101.9700	 1291.00	 1289.76	-1796.01	  371.33
    102.0700	 1251.00	 1236.93	-1783.18	  371.04
    102.1700	 1208.00	 1195.20	-1784.45	  370.74
    102.2700	 1153.00	 1163.22	-1807.47	  370.44
    102.3700	 1150.00	 1138.86	-1786.11	  370.14
    102.4700	 1084.00	 1119.49	-1832.74	  369.84
    102.5700	 1165.00	 1102.24	-1734.49	  369.54
    102.6700	 1035.00	 1084.36	-1846.61	  369.24
    102.7700	 1103.00	 1063.61	-1757.86	  368.94
    102.8700	 1105.00	 1038.54	-1730.79	  368.64
    102.9700	  991.00	 1008.61	-1814.86	  368.34
    103.0700	  911.00	  974.07	-1860.32	  368.03
    103.1700	  917.00	  935.78	-1816.03	  367.73
    103.2700	  909.00	  894.98	-1783.23	  367.43
    103.3700	  812.00	  852.99	-1838.24	  367.13
    103.4700	  810.00	  811.15	-1798.40	  366.83
    103.5700	  782.00	  770.65	-1785.90	  366.53
    103.6700	  737.00	  732.50	-1792.75	  366.23
    103.7700	  674.00	  697.51	-1820.76	  365.93
    103.8700	  650.00	  666.22	-1813.47	  365.63
    103.9700	  608.00	  638.92	-1828.17	  365.33
    104.0700	  604.00	  615.71	-1808.96	  365.03
    104.1700	  654.00	  596.46	-1739.71	  364.73
    104.2700	  602.00	  580.94	-1776.19	  364.43
    104.3700	  594.00	  568.80	-1772.05	  364.13
    104.4700	  552.00	  559.66	-1804.91	  363.84
    104.5700	  542.00	  553.08	-1808.33	  363.54
    104.6700	  561.00	  548.67	-1784.92	  363.24
    104.7700	  579.00	  546.05	-1764.30	  362.94
    104.8700	  578.00	  544.89	-1764.14	  362.64
    104.9700	  526.00	  544.88	-1816.13	  362.35
    105.0700	  528.00	  545.77	-1815.02	  362.05
    105.1700	  544.00	  547.38	-1800.63	  361.76
    105.2700	  537.00	  549.55	-1809.80	  361.46
    105.3700	  527.00	  552.13	-1822.38	  361.16
    105.4700	  522.00	  555.08	-1830.33	  360.87
    105.5700	  529.00	  558.34	-1826.59	  360.58
    105.6700	  521.00	  561.94	-1838.19	  360.28
    105.7700	  544.00	  565.93	-1819.18	  359.99
    105.8700	  533.00	  570.40	-1834.65	  359.70
    105.9700	  559.00	  575.49	-1813.74	  359.41
    106.0700	  612.00	  581.31	-1766.56	  359.12
    106.1700	  569.00	  587.99	-1816.24	  358.83
    106.2700	  558.00	  595.57	-1834.82	  358.54
    106.3700	  593.00	  604.06	-1808.31	  358.25
    106.4700	  617.00	  613.38	-1793.63	  357.96
    106.5700	  628.00	  623.39	-1792.64	  357.68
    106.6700	  578.00	  633.83	-1853.08	  357.39
    106.7700	  606.00	  644.41	-1835.66	  357.11
    106.8700	  640.00	  654.75	-1812.00	  356.83
    106.9700	  611.00	  664.41	-1850.66	  356.54
    107.0700	  661.00	  672.95	-1809.20	  356.26
    107.1700	  699.00	  679.97	-1778.22	  355.98
    107.2700	  635.00	  685.12	-1847.37	  355.70
    107.3700	  641.00	  688.22	-1844.47	  355.42
    107.4700	  672.00	  689.27	-1814.52	  355.15
    107.5700	  696.00	  688.46	-1789.71	  354.87
    107.6700	  669.00	  686.16	-1814.41	  354.60
    107.7700	  717.00	  682.84	-1763.09	  354.32
    107.8700	  685.00	  679.01	-1791.26	  354.05
    107.9700	  636.00	  675.16	-1836.41	  353.78
    108.0700	  642.00	  671.68	-1826.93	  353.51
    108.1700	  667.00	  668.91	-1799.16	  353.24
    108.2700	  697.00	  667.04	-1767.29	  352.97
    108.3700	  694.00	  666.11	-1769.36	  352.71
    108.4700	  670.00	  666.08	-1793.33	  352.44
    108.5700	  682.00	  666.75	-1782.00	  352.18
    108.6700	  686.00	  667.82	-1779.07	  351.92
    108.7700	  659.00	  668.93	-1807.18	  351.66
    108.8700	  697.00	  669.63	-1769.88	  351.40
    108.9700	  723.00	  669.49	-1743.74	  351.15
    109.0700	  751.00	  668.13	-1714.38	  350.89
    109.1700	  706.00	  665.26	-1756.51	  350.64
    109.2700	  680.00	  660.73	-1777.98	  350.39
    109.3700	  627.00	  654.55	-1824.80	  350.14
    109.4700	  654.00	  646.87	-1790.12	  349.89
    109.5700	  609.00	  637.94	-1826.19	  349.65
    109.6700	  679.00	  628.09	-1746.34	  349.40
    109.7700	  598.00	  617.65	-1816.90	  349.16
    109.8700	  584.00	  606.98	-1820.23	  348.92
    109.9700	  644.00	  596.41	-1749.66	  348.68
    110.0700	  576.00	  586.23	-1807.48	  348.45
    110.1700	  599.00	  576.68	-1774.93	  348.21
    110.2700	  517.00	  567.94	-1848.19	  347.98
    110.3700	  547.00	  560.17	-1810.42	  347.75
    110.4700	  572.00	  553.43	-1778.68	  347.52
    110.5700	  556.00	  547.76	-1789.01	  347.30
    110.6700	  568.00	  543.14	-1772.39	  347.07
    110.7700	  545.00	  539.52	-1791.77	  346.85
    110.8700	  567.00	  536.85	-1767.10	  346.63
    110.9700	  522.00	  535.02	-1810.27	  346.42
    111.0700	  532.00	  533.94	-1799.19	  346.20
    111.1700	  514.00	  533.52	-1816.77	  345.99
    111.2700	  508.00	  533.67	-1822.92	  345.78
    111.3700	  530.00	  534.29	-1801.54	  345.58
    111.4700	  523.00	  535.33	-1809.58	  345.37
    111.5700	  529.00	  536.72	-1804.97	  345.17
    111.6700	  512.00	  538.41	-1823.66	  344.97
    111.7700	  568.00	  540.36	-1769.61	  344.78
    111.8700	  566.00	  542.56	-1773.81	  344.58
    111.9700	  532.00	  544.97	-1810.22	  344.39
    112.0700	  515.00	  547.61	-1829.86	  344.20
    112.1700	  544.00	  550.47	-1803.72	  344.02
    112.2700	  511.00	  553.56	-1839.81	  343.84
    112.3700	  540.00	  556.91	-1814.16	  343.66
    112.4700	  586.00	  560.55	-1771.80	  343.48
    112.5700	  585.00	  564.52	-1776.77	  343.31
    112.6700	  574.00	  568.89	-1792.14	  343.14
    112.7700	  597.00	  573.72	-1773.97	  342.97
    112.8700	  604.00	  579.11	-1772.35	  342.81
    112.9700	  656.00	  585.17	-1726.42	  342.64
    113.0700	  683.00	  592.07	-1706.32	  342.49
    113.1700	  657.00	  600.03	-1740.28	  342.33
    113.2700	  707.00	  609.30	-1699.55	  342.18
    113.3700	  711.00	  620.22	-1706.47	  342.03
    113.4700	  809.00	  633.23	-1621.48	  341.89
    113.5700	  810.00	  648.88	-1636.13	  341.75
    113.6700	  866.00	  667.83	-1599.08	  341.61
    113.7700	  876.00	  690.94	-1612.19	  341.47
    113.8700	  970.00	  719.20	-1546.45	  341.34
    113.9700	  926.00	  753.82	-1625.07	  341.21
    114.0700	  968.00	  796.21	-1625.46	  341.09
    114.1700	 1068.00	  848.03	-1577.28	  340.97
    114.2700	 1102.00	  911.10	-1606.35	  340.85
    114.3700	 1245.00	  987.46	-1539.71	  340.74
    114.4700	 1350.00	 1079.31	-1526.56	  340.63
    114.5700	 1347.00	 1188.95	-1639.20	  340.53
    114.6700	 1403.00	 1318.76	-1713.01	  340.43
    114.7700	 1615.00	 1470.99	-1653.24	  340.33
    114.8700	 1760.00	 1647.75	-1685.00	  340.24
    114.9700	 2033.00	 1850.78	-1615.03	  340.15
    115.0700	 2142.00	 2081.43	-1736.68	  340.06
    115.1700	 2360.00	 2340.43	-1777.68	  339.98
    115.2700	 2641.00	 2627.68	-1783.93	  339.90
    115.3700	 2908.00	 2942.19	-1831.44	  339.83
    115.4700	 3331.00	 3281.89	-1748.14	  339.76
    115.5700	 3507.00	 3643.64	-1933.89	  339.70
    115.6700	 3825.00	 4023.16	-1995.41	  339.64
    115.7700	 4137.00	 4414.79	-2075.04	  339.58
    115.8700	 4484.00	 4811.72	-2124.97	  339.53
    115.9700	 4913.00	 5205.90	-2090.15	  339.49
    116.0700	 5335.00	 5588.32	-2050.57	  339.45
    116.1700	 5710.00	 5949.04	-2036.29	  339.41
    116.2700	 6061.00	 6277.32	-2013.57	  339.38
    116.3700	 6417.00	 6562.26	-1942.51	  339.35
    116.4700	 6747.00	 6793.27	-1843.52	  339.33
    116.5700	 6993.00	 6961.00	-1765.25	  339.31
    116.6700	 7189.00	 7058.18	-1666.43	  339.29
    116.7700	 7187.00	 7080.41	-1690.66	  339.29
    116.8700	 7147.00	 7026.83	-1677.08	  339.28
    116.9700	 6782.00	 6900.25	-1915.50	  339.28
    117.0700	 6923.00	 6706.70	-1580.95	  339.29
    117.1700	 6513.00	 6454.65	-1738.90	  339.30
    117.2700	 6382.00	 6154.23	-1569.48	  339.32
    117.3700	 5863.00	 5816.22	-1750.47	  339.34
    117.4700	 5293.00	 5451.47	-1955.72	  339.37
    117.5700	 4991.00	 5070.19	-1876.44	  339.40
    117.6700	 4658.00	 4681.75	-1821.00	  339.44
    117.7700	 4456.00	 4294.57	-1635.82	  339.48
    117.8700	 4045.00	 3915.87	-1668.12	  339.53
    117.9700	 3786.00	 3551.70	-1562.95	  339.59
    118.0700	 3367.00	 3206.75	-1637.00	  339.65
    118.1700	 2942.00	 2884.49	-1739.74	  339.71
    118.2700	 2663.00	 2587.40	-1721.65	  339.79
    118.3700	 2345.00	 2316.83	-1769.08	  339.86
    118.4700	 2070.00	 2073.25	-1800.50	  339.95
    118.5700	 1756.00	 1856.29	-1897.54	  340.03
    118.6700	 1597.00	 1664.95	-1865.20	  340.13
    118.7700	 1385.00	 1497.82	-1910.07	  340.23
    118.8700	 1283.00	 1353.09	-1867.34	  340.34
    118.9700	 1130.00	 1228.78	-1896.03	  340.45
    119.0700	 1008.00	 1122.72	-1911.97	  340.57
    119.1700	  932.00	 1032.79	-1898.04	  340.69
    119.2700	  864.00	  956.92	-1890.17	  340.83
    119.3700	  886.00	  893.18	-1804.43	  340.96
    119.4700	  729.00	  839.80	-1908.05	  341.11
    119.5700	  694.00	  795.18	-1898.43	  341.26
    119.6700	  710.00	  757.91	-1845.16	  341.42
    119.7700	  609.00	  726.80	-1915.05	  341.58
    119.8700	  638.00	  700.82	-1860.07	  341.75
    119.9700	  613.00	  679.10	-1863.35	  341.93
    120.0700	  580.00	  660.93	-1878.18	  342.11
    120.1700	  576.00	  645.70	-1866.95	  342.30
    120.2700	  591.00	  632.96	-1839.21	  342.50
    120.3700	  584.00	  622.29	-1835.54	  342.70
    120.4700	  553.00	  613.39	-1857.64	  342.91
    120.5700	  587.00	  606.00	-1816.25	  343.13
    120.6700	  548.00	  599.93	-1849.18	  343.36
    120.7700	  546.00	  595.02	-1846.27	  343.59
    120.8700	  530.00	  591.13	-1858.38	  343.83
    120.9700	  539.00	  588.17	-1846.42	  344.07
    121.0700	  570.00	  586.06	-1813.31	  344.33
    121.1700	  563.00	  584.73	-1818.98	  344.59
    121.2700	  534.00	  584.12	-1847.37	  344.86
    121.3700	  595.00	  584.19	-1786.44	  345.13
    121.4700	  579.00	  584.88	-1803.13	  345.42
    121.5700	  587.00	  586.15	-1796.40	  345.71
    121.6700	  563.00	  587.95	-1822.20	  346.01
    121.7700	  607.00	  590.20	-1780.45	  346.32
    121.8700	  559.00	  592.85	-1831.10	  346.63
    121.9700	  567.00	  595.81	-1826.06	  346.95
    122.0700	  595.00	  599.02	-1801.27	  347.28
    122.1700	  605.00	  602.37	-1794.62	  347.62
    122.2700	  603.00	  605.78	-1800.03	  347.97
    122.3700	  598.00	  609.13	-1808.38	  348.32
    122.4700	  637.00	  612.31	-1772.56	  348.69
    122.5700	  617.00	  615.22	-1795.47	  349.06
    122.6700	  679.00	  617.76	-1736.01	  349.44
    122.7700	  655.00	  619.81	-1762.06	  349.83
    122.8700	  640.00	  621.31	-1778.56	  350.22
    122.9700	  621.00	  622.19	-1798.44	  350.63
    123.0700	  632.00	  622.43	-1787.68	  351.04
    123.1700	  656.00	  622.01	-1763.26	  351.46
    123.2700	  622.00	  620.97	-1796.22	  351.89
    123.3700	  667.00	  619.34	-1749.59	  352.33
    123.4700	  637.00	  617.18	-1777.43	  352.78
    123.5700	  643.00	  614.58	-1768.83	  353.24
    123.6700	  635.00	  611.60	-1773.85	  353.71
    123.7700	  591.00	  608.33	-1814.58	  354.18
    123.8700	  592.00	  604.85	-1810.10	  354.67
    123.9700	  641.00	  601.24	-1757.49	  355.16
    124.0700	  605.00	  597.56	-1789.81	  355.66
    124.1700	  613.00	  593.88	-1778.13	  356.18
    124.2700	  626.00	  590.25	-1761.50	  356.70
    124.3700	  596.00	  586.73	-1787.98	  357.23
    124.4700	  601.00	  583.36	-1779.61	  357.77
    124.5700	  606.00	  580.16	-1771.41	  358.32
    124.6700	  609.00	  577.16	-1765.41	  358.88
    124.7700	  559.00	  574.37	-1812.62	  359.45
    124.8700	  609.00	  571.82	-1760.07	  360.03
    124.9700	  584.00	  473.71	-1686.96	  360.62
    125.0700	  539.00	  474.31	-1797.25	  361.22
    125.1700	  600.00	  474.92	-1797.25	  361.83
    125.2700	  557.00	  475.54	-1797.25	  362.45
    125.3700	  559.00	  476.17	-1797.25	  363.08
    125.4700	  551.00	  476.81	-1797.25	  363.72
    125.5700	  639.00	  477.46	-1797.25	  364.37
    125.6700	  565.00	  478.12	-1797.25	  365.03
    125.7700	  530.00	  478.80	-1797.25	  365.70
    125.8700	  578.00	  479.48	-1797.25	  366.38
    125.9700	  544.00	  480.17	-1797.25	  367.08
    126.0700	  538.00	  480.87	-1797.25	  367.78
    126.1700	  541.00	  481.59	-1797.25	  368.49
    126.2700	  540.00	  482.31	-1797.25	  369.22
    126.3700	  560.00	  483.05	-1797.25	  369.95
    126.4700	  565.00	  483.79	-1797.25	  370.70
    126.5700	  621.00	  484.55	-1797.25	  371.46
    126.6700	  586.00	  485.32	-1797.25	  372.23
    126.7700	  589.00	  486.10	-1797.25	  373.01
    126.8700	  600.00	  486.89	-1797.25	  373.80
    126.9700	  620.00	  487.70	-1797.25	  374.60
    127.0700	  578.00	  488.51	-1797.25	  375.42
    127.1700	  592.00	  489.34	-1797.25	  376.24
    127.2700	  597.00	  490.17	-1797.25	  377.08
    127.3700	  621.00	  491.02	-1797.25	  377.93
    127.4700	  638.00	  491.89	-1797.25	  378.79
    127.5700	  622.00	  492.76	-1797.25	  379.66
    127.6700	  653.00	  493.64	-1797.25	  380.55
    127.7700	  678.00	  494.54	-1797.25	  381.45
    127.8700	  747.00	  495.45	-1797.25	  382.35
    127.9700	  674.00	  496.37	-1797.25	  383.28
    128.0700	  710.00	  497.30	-1797.25	  384.21
    128.1700	  724.00	  498.25	-1797.25	  385.15
    128.2700	  778.00	  499.21	-1797.25	  386.11
    128.3700	  798.00	  500.18	-1797.25	  387.08
    128.4700	  792.00	  501.16	-1797.25	  388.07
    128.5700	    1.00	  502.16	-1797.25	  389.06
    128.6700	    0.00	  503.16	-1797.25	  390.07
     12.3185	        	        	        	        	       0	(  0  0  2)	  0  1
     24.9131	        	        	        	        	       0	(  0  0  4)	  0  1
     28.3466	        	        	        	        	       0	(  1  0  0)	  0  1
     29.0447	        	        	        	        	       0	(  1  0  1)	  0  1
     31.0535	        	        	        	        	       0	(  1  0  2)	  0  1
     34.1657	        	        	        	        	       0	(  1  0  3)	  0  1
     37.8246	        	        	        	        	       0	(  0  0  6)	  0  1
     38.1475	        	        	        	        	       0	(  1  0  4)	  0  1
     42.8031	        	        	        	        	       0	(  1  0  5)	  0  1
     47.9931	        	        	        	        	       0	(  1  0  6)	  0  1
     50.2957	        	        	        	        	       0	(  1  1  0)	  0  1
     51.2600	        	        	        	        	       0	(  0  0  8)	  0  1
     52.0211	        	        	        	        	       0	(  1  1  2)	  0  1
     53.6301	        	        	        	        	       0	(  1  0  7)	  0  1
     56.9757	        	        	        	        	       0	(  1  1  4)	  0  1
     58.7979	        	        	        	        	       0	(  2  0  0)	  0  1
     59.1901	        	        	        	        	       0	(  2  0  1)	  0  1
     59.6678	        	        	        	        	       0	(  1  0  8)	  0  1
     60.3571	        	        	        	        	       0	(  2  0  2)	  0  1
     62.2731	        	        	        	        	       0	(  2  0  3)	  0  1
     64.6809	        	        	        	        	       0	(  1  1  6)	  0  1
     64.9009	        	        	        	        	       0	(  2  0  4)	  0  1
     65.5052	        	        	        	        	       0	(  0  0 10)	  0  1
     66.0921	        	        	        	        	       0	(  1  0  9)	  0  1
     68.1999	        	        	        	        	       0	(  2  0  5)	  0  1
     72.1331	        	        	        	        	       0	(  2  0  6)	  0  1
     72.9171	        	        	        	        	       0	(  1  0 10)	  0  1
     74.7327	        	        	        	        	       0	(  1  1  8)	  0  1
     76.6739	        	        	        	        	       0	(  2  0  7)	  0  1
     80.1851	        	        	        	        	       0	(  1  0 11)	  0  1
     81.0062	        	        	        	        	       0	(  0  0 12)	  0  1
     81.0555	        	        	        	        	       0	(  2  1  0)	  0  1
     81.3959	        	        	        	        	       0	(  2  1  1)	  0  1
     81.8121	        	        	        	        	       0	(  2  0  8)	  0  1
     82.4154	        	        	        	        	       0	(  2  1  2)	  0  1
     84.1095	        	        	        	        	       0	(  2  1  3)	  0  1
     86.4731	        	        	        	        	       0	(  2  1  4)	  0  1
     87.0231	        	        	        	        	       0	(  1  1 10)	  0  1
     87.5594	        	        	        	        	       0	(  2  0  9)	  0  1
     87.9716	        	        	        	        	       0	(  1  0 12)	  0  1
     89.5041	        	        	        	        	       0	(  2  1  5)	  0  1
     93.2081	        	        	        	        	       0	(  2  1  6)	  0  1
     93.9580	        	        	        	        	       0	(  2  0 10)	  0  1
     94.9576	        	        	        	        	       0	(  3  0  0)	  0  1
     95.2956	        	        	        	        	       0	(  3  0  1)	  0  1
     96.3107	        	        	        	        	       0	(  3  0  2)	  0  1
     96.3999	        	        	        	        	       0	(  1  0 13)	  0  1
     97.6048	        	        	        	        	       0	(  2  1  7)	  0  1
     98.0072	        	        	        	        	       0	(  3  0  3)	  0  1
     98.5758	        	        	        	        	       0	(  0  0 14)	  0  1
    100.3948	        	        	        	        	       0	(  3  0  4)	  0  1
    101.0938	        	        	        	        	       0	(  2  0 11)	  0  1
    101.9212	        	        	        	        	       0	(  1  1 12)	  0  1
    102.7375	        	        	        	        	       0	(  2  1  8)	  0  1
    103.4927	        	        	        	        	       0	(  3  0  5)	  0  1
    105.6721	        	        	        	        	       0	(  1  0 14)	  0  1
    107.3360	        	        	        	        	       0	(  3  0  6)	  0  1
    108.6874	        	        	        	        	       0	(  2  1  9)	  0  1
    109.1230	        	        	        	        	       0	(  2  0 12)	  0  1
    111.9870	        	        	        	        	       0	(  3  0  7)	  0  1
    115.6015	        	        	        	        	       0	(  2  1 10)	  0  1
    116.1435	        	        	        	        	       0	(  1  0 15)	  0  1
    116.7128	        	        	        	        	       0	(  2  2  0)	  0  1
    117.5547	        	        	        	        	       0	(  3  0  8)	  0  1
    118.2319	        	        	        	        	       0	(  2  2  2)	  0  1
    118.3326	        	        	        	        	       0	(  2  0 13)	  0  1
    120.1211	        	        	        	        	       0	(  0  0 16)	  0  1
    120.8156	        	        	        	        	       0	(  1  1 14)	  0  1
    122.9305	        	        	        	        	       0	(  2  2  4)	  0  1
    123.7533	        	        	        	        	       0	(  2  1 11)	  0  1
    124.2348	        	        	        	        	       0	(  3  0  9)	  0  1
    124.7945	        	        	        	        	       0	(  3  1  0)	  0  1
    125.2060	        	        	        	        	       0	(  3  1  1)	  0  1
    126.4534	        	        	        	        	       0	(  3  1  2)	  0  1
    128.5333	        	        	        	        	       0	(  1  0 16)	  0  1
    128.5786	        	        	        	        	       0	(  3  1  3)	  0  1
    129.3030	        	        	        	        	       0	(  2  0 14)	  0  1
    131.3989	        	        	        	        	       0	(  2  2  6)	  0  1
    131.6656	        	        	        	        	       0	(  3  1  4)	  0  1
    132.4064	        	        	        	        	       0	(  3  0 10)	  0  1
    133.7061	        	        	        	        	       0	(  2  1 12)	  0  1
    135.8699	        	        	        	        	       0	(  3  1  5)	  0  1
    141.4934	        	        	        	        	       0	(  3  1  6)	  0  1
    142.9432	        	        	        	        	       0	(  3  0 11)	  0  1
    143.5294	        	        	        	        	       0	(  2  0 15)	  0  1
    144.8119	        	        	        	        	       0	(  1  0 17)	  0  1
    145.7084	        	        	        	        	       0	(  2  2  8)	  0  1
    146.9506	        	        	        	        	       0	(  2  1 13)	  0  1
    149.2204	        	        	        	        	       0	(  3  1  7)	  0  1
    149.9404	        	        	        	        	       0	(  1  1 16)	  0  1
    154.4509	        	        	        	        	       0	(  0  0 18)	  0  1
    159.0158	        	        	        	        	       0	(  3  0 12)	  0  1
    159.1530	        	        	        	        	       0	(  4  0  0)	  0  1
    160.1261	        	        	        	        	       0	(  4  0  1)	  0  1
    161.3835	        	        	        	        	       0	(  3  1  8)	  0  1
    163.3722	        	        	        	        	       0	(  4  0  2)	  0  1
    170.8283	        	        	        	        	       0	(  2  0 16)	  0  1
    171.0564	        	        	        	        	       0	(  4  0  3)	  0  1
    176.2475	        	        	        	        	       0	(  2  1 14)	  0  1
