MSG Master    CELL:    5.91367   5.91367  23.25331   90.0000   90.0000  120.0000   SPGR: P 63/m m c             TEMP:    978.25
  1   1280     2.52000     0.00000    -0.13060     0.00000     0.00000    0
    99     0     2
       0.00000      10.00000
     125.00000     130.00000
 2Theta	Yobs	Ycal	Yobs-Ycal	Backg	Posr	(hkl)	K
      0.7700	    0.00	  493.47	-1724.50	  377.41
      0.8700	    0.00	  494.72	-1724.50	  378.66
      0.9700	   35.00	  495.95	-1724.50	  379.89
      1.0700	   24.00	  497.17	-1724.50	  381.10
      1.1700	   49.00	  498.37	-1724.50	  382.31
      1.2700	   33.00	  499.56	-1724.50	  383.50
      1.3700	   53.00	  500.73	-1724.50	  384.67
      1.4700	   78.00	  501.89	-1724.50	  385.83
      1.5700	  303.00	  503.04	-1724.50	  386.98
      1.6700	  420.00	  504.17	-1724.50	  388.11
      1.7700	  558.00	  505.29	-1724.50	  389.23
      1.8700	  683.00	  506.40	-1724.50	  390.33
      1.9700	  722.00	  507.49	-1724.50	  391.42
      2.0700	  720.00	  508.56	-1724.50	  392.50
      2.1700	  790.00	  509.63	-1724.50	  393.56
      2.2700	  802.00	  510.68	-1724.50	  394.62
      2.3700	  772.00	  511.72	-1724.50	  395.65
      2.4700	  718.00	  512.74	-1724.50	  396.68
      2.5700	  699.00	  513.75	-1724.50	  397.69
      2.6700	  687.00	  514.75	-1724.50	  398.69
      2.7700	  679.00	  515.74	-1724.50	  399.67
      2.8700	  648.00	  516.71	-1724.50	  400.64
      2.9700	  589.00	  517.67	-1724.50	  401.60
      3.0700	  590.00	  518.62	-1724.50	  402.55
      3.1700	  586.00	  519.55	-1724.50	  403.49
      3.2700	  656.00	  520.47	-1724.50	  404.41
      3.3700	  687.00	  521.38	-1724.50	  405.32
      3.4700	  842.00	  522.28	-1724.50	  406.21
      3.5700	  897.00	  523.16	-1724.50	  407.10
      3.6700	  967.00	  524.03	-1724.50	  407.97
      3.7700	  986.00	  524.90	-1724.50	  408.83
      3.8700	 1022.00	  525.74	-1724.50	  409.68
      3.9700	 1107.00	  526.58	-1724.50	  410.52
      4.0700	 1143.00	  527.40	-1724.50	  411.34
      4.1700	 1199.00	  528.22	-1724.50	  412.15
      4.2700	 1168.00	  529.02	-1724.50	  412.95
      4.3700	 1125.00	  529.81	-1724.50	  413.74
      4.4700	 1090.00	  530.58	-1724.50	  414.52
      4.5700	 1102.00	  531.35	-1724.50	  415.29
      4.6700	 1077.00	  532.11	-1724.50	  416.04
      4.7700	 1083.00	  532.85	-1724.50	  416.78
      4.8700	  978.00	  533.58	-1724.50	  417.52
      4.9700	 1032.00	  534.30	-1724.50	  418.24
      5.0700	  961.00	  535.01	-1724.50	  418.95
      5.1700	  937.00	  535.71	-1724.50	  419.65
      5.2700	  998.00	  536.40	-1724.50	  420.33
      5.3700	  960.00	  537.08	-1724.50	  421.01
      5.4700	  918.00	  537.74	-1724.50	  421.68
      5.5700	  868.00	  538.40	-1724.50	  422.33
      5.6700	  857.00	  539.04	-1724.50	  422.98
      5.7700	  829.00	  539.68	-1724.50	  423.61
      5.8700	  797.00	  540.30	-1724.50	  424.24
      5.9700	  820.00	  540.91	-1724.50	  424.85
      6.0700	  787.00	  541.52	-1724.50	  425.45
      6.1700	  798.00	  542.11	-1724.50	  426.04
      6.2700	  754.00	  542.69	-1724.50	  426.63
      6.3700	  779.00	  543.26	-1724.50	  427.20
      6.4700	  805.00	  543.83	-1724.50	  427.76
      6.5700	  810.00	  544.38	-1724.50	  428.31
      6.6700	  722.00	  544.92	-1724.50	  428.86
      6.7700	  769.00	  545.45	-1724.50	  429.39
      6.8700	  714.00	  545.98	-1724.50	  429.91
      6.9700	  700.00	  546.49	-1724.50	  430.42
      7.0700	  732.00	  546.99	-1724.50	  430.93
      7.1700	  652.00	  547.49	-1724.50	  431.42
      7.2700	  722.00	  547.97	-1724.50	  431.91
      7.3700	  669.00	  548.44	-1724.50	  432.38
      7.4700	  688.00	  548.91	-1724.50	  432.85
      7.5700	  644.00	  549.37	-1724.50	  433.30
      7.6700	  643.00	  549.81	-1724.50	  433.75
      7.7700	  607.00	  550.25	-1724.50	  434.19
      7.8700	  615.00	  550.68	-1724.50	  434.62
      7.9700	  645.00	  551.10	-1724.50	  435.04
      8.0700	  620.00	  551.51	-1724.50	  435.45
      8.1700	  641.00	  551.91	-1724.50	  435.85
      8.2700	  641.00	  552.31	-1724.50	  436.24
      8.3700	  648.00	  552.69	-1724.50	  436.63
      8.4700	  622.00	  553.07	-1724.50	  437.00
      8.5700	  568.00	  553.43	-1724.50	  437.37
      8.6700	  628.00	  553.79	-1724.50	  437.73
      8.7700	  591.00	  554.14	-1724.50	  438.08
      8.8700	  645.00	  554.48	-1724.50	  438.42
      8.9700	  628.00	  554.82	-1724.50	  438.75
      9.0700	  612.00	  555.14	-1724.50	  439.08
      9.1700	  600.00	  555.46	-1724.50	  439.39
      9.2700	  635.00	  555.77	-1724.50	  439.70
      9.3700	  600.00	  556.07	-1724.50	  440.00
      9.4700	  566.00	  556.36	-1724.50	  440.30
      9.5700	  603.00	  556.65	-1724.50	  440.58
      9.6700	  586.00	  556.92	-1724.50	  440.86
      9.7700	  584.00	  557.19	-1724.50	  441.13
      9.8700	  629.00	  557.45	-1724.50	  441.39
      9.9700	  586.00	  557.71	-1724.50	  441.64
     10.0700	  601.00	  559.58	-1683.08	  441.89
     10.1700	  587.00	  559.99	-1697.49	  442.13
     10.2700	  578.00	  560.45	-1706.95	  442.36
     10.3700	  592.00	  560.96	-1693.46	  442.58
     10.4700	  596.00	  561.57	-1690.07	  442.80
     10.5700	  587.00	  562.34	-1699.84	  443.01
     10.6700	  561.00	  563.38	-1726.88	  443.21
     10.7700	  533.00	  564.80	-1756.30	  443.40
     10.8700	  603.00	  566.67	-1688.17	  443.59
     10.9700	  555.00	  569.02	-1738.52	  443.77
     11.0700	  621.00	  571.83	-1675.33	  443.94
     11.1700	  564.00	  575.11	-1735.61	  444.11
     11.2700	  566.00	  578.90	-1737.40	  444.27
     11.3700	  576.00	  583.30	-1731.80	  444.42
     11.4700	  592.00	  588.48	-1720.98	  444.57
     11.5700	  550.00	  594.70	-1769.20	  444.71
     11.6700	  651.00	  602.36	-1675.86	  444.84
     11.7700	  602.00	  612.04	-1734.54	  444.96
     11.8700	  614.00	  624.28	-1734.78	  445.08
     11.9700	  662.00	  638.83	-1701.33	  445.20
     12.0700	  708.00	  653.46	-1669.96	  445.30
     12.1700	  672.00	  662.83	-1715.33	  445.40
     12.2700	  677.00	  659.36	-1706.86	  445.50
     12.3700	  672.00	  640.60	-1693.10	  445.58
     12.4700	  637.00	  616.15	-1703.65	  445.66
     12.5700	  594.00	  595.92	-1726.42	  445.74
     12.6700	  596.00	  582.67	-1711.17	  445.81
     12.7700	  607.00	  575.13	-1692.63	  445.87
     12.8700	  555.00	  571.13	-1740.63	  445.93
     12.9700	  569.00	  568.92	-1724.42	  445.98
     13.0700	  507.00	  567.57	-1785.07	  446.03
     13.1700	  614.00	  566.65	-1677.15	  446.07
     13.2700	  545.00	  565.97	-1745.47	  446.10
     13.3700	  522.00	  565.45	-1767.95	  446.13
     13.4700	  558.00	  565.04	-1731.54	  446.15
     13.5700	  565.00	  564.71	-1724.21	  446.17
     13.6700	  543.00	  564.44	-1745.94	  446.18
     13.7700	  553.00	  564.22	-1735.72	  446.18
     13.8700	  560.00	  564.02	-1728.52	  446.18
     13.9700	  552.00	  563.86	-1736.36	  446.18
     14.0700	  544.00	  563.71	-1744.21	  446.17
     14.1700	  574.00	  563.58	-1714.08	  446.15
     14.2700	  566.00	  563.45	-1721.95	  446.13
     14.3700	  554.00	  563.34	-1733.84	  446.11
     14.4700	  565.00	  563.23	-1722.73	  446.08
     14.5700	  533.00	  563.12	-1754.62	  446.04
     14.6700	  550.00	  563.05	-1737.55	  446.00
     14.7700	  640.00	  562.95	-1647.45	  445.95
     14.8700	  560.00	  562.86	-1727.36	  445.90
     14.9700	  532.00	  562.76	-1755.26	  445.85
     15.0700	  538.00	  562.66	-1749.16	  445.79
     15.1700	  553.00	  562.56	-1734.06	  445.72
     15.2700	  569.00	  562.46	-1717.96	  445.65
     15.3700	  533.00	  562.36	-1753.86	  445.58
     15.4700	  573.00	  562.25	-1713.75	  445.50
     15.5700	  511.00	  562.14	-1775.64	  445.41
     15.6700	  529.00	  562.03	-1757.53	  445.33
     15.7700	  561.00	  561.92	-1725.42	  445.23
     15.8700	  598.00	  561.81	-1688.31	  445.14
     15.9700	  529.00	  561.69	-1757.19	  445.04
     16.0700	  556.00	  561.57	-1730.07	  444.93
     16.1700	  577.00	  561.45	-1708.95	  444.82
     16.2700	  530.00	  561.32	-1755.82	  444.71
     16.3700	  533.00	  561.19	-1752.69	  444.59
     16.4700	  558.00	  561.06	-1727.56	  444.47
     16.5700	  572.00	  560.92	-1713.42	  444.34
     16.6700	  560.00	  560.78	-1725.28	  444.21
     16.7700	  554.00	  560.64	-1731.14	  444.07
     16.8700	  552.00	  560.49	-1732.99	  443.94
     16.9700	  577.00	  560.34	-1707.84	  443.79
     17.0700	  578.00	  560.19	-1706.69	  443.65
     17.1700	  550.00	  560.03	-1734.53	  443.50
     17.2700	  544.00	  559.87	-1740.37	  443.34
     17.3700	  540.00	  559.71	-1744.21	  443.19
     17.4700	  587.00	  559.55	-1697.05	  443.03
     17.5700	  568.00	  559.38	-1715.88	  442.86
     17.6700	  531.00	  559.21	-1752.71	  442.69
     17.7700	  532.00	  559.03	-1751.53	  442.52
     17.8700	  514.00	  558.96	-1769.46	  442.35
     17.9700	  512.00	  558.78	-1771.28	  442.17
     18.0700	  564.00	  558.60	-1719.10	  441.99
     18.1700	  547.00	  558.41	-1735.91	  441.80
     18.2700	  531.00	  558.22	-1751.72	  441.61
     18.3700	  574.00	  558.03	-1708.53	  441.42
     18.4700	  579.00	  557.93	-1703.43	  441.23
     18.5700	  530.00	  557.73	-1752.23	  441.03
     18.6700	  562.00	  557.53	-1720.03	  440.83
     18.7700	  547.00	  557.33	-1734.83	  440.62
     18.8700	  560.00	  557.13	-1721.63	  440.42
     18.9700	  556.00	  556.92	-1725.42	  440.21
     19.0700	  563.00	  556.72	-1718.22	  439.99
     19.1700	  569.00	  556.51	-1712.01	  439.78
     19.2700	  527.00	  556.29	-1753.79	  439.56
     19.3700	  537.00	  556.08	-1743.58	  439.34
     19.4700	  569.00	  555.86	-1711.36	  439.11
     19.5700	  589.00	  555.64	-1691.14	  438.88
     19.6700	  570.00	  555.42	-1709.92	  438.65
     19.7700	  522.00	  555.20	-1757.70	  438.42
     19.8700	  514.00	  554.97	-1765.47	  438.18
     19.9700	  535.00	  554.74	-1744.24	  437.95
     20.0700	  531.00	  554.51	-1748.01	  437.71
     20.1700	  521.00	  554.31	-1757.81	  437.46
     20.2700	  539.00	  554.08	-1739.58	  437.22
     20.3700	  618.00	  553.85	-1660.35	  436.97
     20.4700	  555.00	  553.61	-1723.11	  436.72
     20.5700	  562.00	  553.37	-1715.87	  436.47
     20.6700	  566.00	  553.13	-1711.63	  436.21
     20.7700	  547.00	  552.89	-1730.39	  435.95
     20.8700	  589.00	  552.65	-1688.15	  435.69
     20.9700	  536.00	  552.41	-1740.91	  435.43
     21.0700	  583.00	  552.17	-1693.67	  435.17
     21.1700	  547.00	  551.92	-1729.42	  434.90
     21.2700	  558.00	  551.68	-1718.18	  434.63
     21.3700	  530.00	  551.43	-1745.94	  434.36
     21.4700	  525.00	  551.19	-1750.69	  434.09
     21.5700	  539.00	  550.95	-1736.45	  433.82
     21.6700	  541.00	  550.70	-1734.20	  433.54
     21.7700	  523.00	  550.46	-1751.96	  433.26
     21.8700	  510.00	  550.21	-1764.71	  432.98
     21.9700	  552.00	  549.97	-1722.47	  432.70
     22.0700	  513.00	  549.73	-1761.23	  432.42
     22.1700	  571.00	  549.45	-1702.95	  432.13
     22.2700	  560.00	  549.21	-1713.71	  431.84
     22.3700	  516.00	  548.99	-1757.49	  431.56
     22.4700	  535.00	  548.76	-1738.26	  431.26
     22.5700	  586.00	  548.54	-1687.04	  430.97
     22.6700	  540.00	  548.33	-1732.83	  430.68
     22.7700	  534.00	  548.13	-1738.63	  430.38
     22.8700	  559.00	  548.09	-1713.59	  430.09
     22.9700	  538.00	  547.91	-1734.41	  429.79
     23.0700	  550.00	  547.75	-1722.25	  429.49
     23.1700	  563.00	  547.62	-1709.12	  429.19
     23.2700	  545.00	  547.51	-1727.01	  428.88
     23.3700	  535.00	  547.43	-1736.93	  428.58
     23.4700	  584.00	  547.40	-1687.90	  428.27
     23.5700	  541.00	  547.44	-1730.94	  427.97
     23.6700	  593.00	  547.57	-1679.07	  427.66
     23.7700	  575.00	  547.86	-1697.36	  427.35
     23.8700	  580.00	  548.40	-1692.90	  427.04
     23.9700	  549.00	  549.40	-1724.90	  426.73
     24.0700	  521.00	  551.19	-1754.69	  426.42
     24.1700	  557.00	  554.28	-1721.78	  426.10
     24.2700	  573.00	  559.29	-1710.79	  425.79
     24.3700	  598.00	  566.85	-1693.35	  425.47
     24.4700	  549.00	  577.35	-1752.85	  425.15
     24.5700	  658.00	  590.38	-1656.88	  424.84
     24.6700	  624.00	  603.89	-1704.39	  424.52
     24.7700	  572.00	  613.45	-1765.95	  424.20
     24.8700	  585.00	  613.02	-1752.52	  423.88
     24.9700	  582.00	  600.67	-1743.17	  423.55
     25.0700	  604.00	  583.19	-1703.69	  423.23
     25.1700	  569.00	  567.91	-1723.41	  422.91
     25.2700	  547.00	  557.35	-1734.85	  422.58
     25.3700	  594.00	  551.03	-1681.53	  422.26
     25.4700	  526.00	  547.53	-1746.03	  421.93
     25.5700	  562.00	  545.56	-1708.06	  421.61
     25.6700	  571.00	  544.34	-1697.84	  421.28
     25.7700	  545.00	  543.51	-1723.01	  420.95
     25.8700	  560.00	  542.89	-1707.39	  420.62
     25.9700	  545.00	  542.42	-1721.92	  420.29
     26.0700	  535.00	  542.08	-1731.58	  419.96
     26.1700	  592.00	  541.83	-1674.33	  419.63
     26.2700	  590.00	  541.68	-1676.18	  419.30
     26.3700	  534.00	  541.62	-1732.12	  418.97
     26.4700	  540.00	  541.65	-1726.15	  418.64
     26.5700	  541.00	  541.79	-1725.29	  418.31
     26.6700	  568.00	  542.04	-1698.54	  417.98
     26.7700	  521.00	  542.44	-1745.94	  417.64
     26.8700	  593.00	  543.01	-1674.51	  417.31
     26.9700	  526.00	  543.81	-1742.31	  416.98
     27.0700	  598.00	  544.91	-1671.41	  416.64
     27.1700	  571.00	  546.42	-1699.92	  416.31
     27.2700	  581.00	  548.59	-1692.09	  415.98
     27.3700	  527.00	  551.84	-1749.34	  415.64
     27.4700	  547.00	  557.05	-1734.55	  415.31
     27.5700	  568.00	  565.79	-1722.29	  414.97
     27.6700	  542.00	  580.58	-1763.08	  414.64
     27.7700	  581.00	  604.84	-1748.34	  414.30
     27.8700	  599.00	  641.79	-1767.29	  413.97
     27.9700	  647.00	  692.32	-1769.82	  413.63
     28.0700	  726.00	  751.90	-1750.40	  413.29
     28.1700	  841.00	  807.77	-1691.27	  412.96
     28.2700	  945.00	  838.75	-1618.25	  412.62
     28.3700	  903.00	  827.27	-1648.77	  412.29
     28.4700	  831.00	  786.12	-1679.62	  411.95
     28.5700	  763.00	  750.07	-1711.57	  411.62
     28.6700	  692.00	  739.56	-1772.06	  411.28
     28.7700	  733.00	  754.10	-1745.60	  410.95
     28.8700	  792.00	  778.27	-1710.77	  410.61
     28.9700	  795.00	  787.76	-1717.26	  410.28
     29.0700	  818.00	  762.46	-1668.96	  409.94
     29.1700	  715.00	  708.71	-1718.21	  409.61
     29.2700	  659.00	  651.66	-1717.16	  409.27
     29.3700	  589.00	  607.06	-1742.56	  408.94
     29.4700	  609.00	  577.91	-1693.41	  408.61
     29.5700	  551.00	  560.99	-1734.49	  408.27
     29.6700	  565.00	  551.66	-1711.16	  407.94
     29.7700	  592.00	  546.39	-1678.89	  407.61
     29.8700	  590.00	  543.22	-1677.72	  407.27
     29.9700	  593.00	  541.20	-1672.70	  406.94
     30.0700	  563.00	  540.08	-1701.58	  406.61
     30.1700	  575.00	  539.94	-1689.44	  406.28
     30.2700	  543.00	  541.16	-1722.66	  405.95
     30.3700	  568.00	  544.53	-1701.03	  405.62
     30.4700	  560.00	  551.20	-1715.70	  405.29
     30.5700	  572.00	  562.41	-1714.91	  404.96
     30.6700	  594.00	  578.53	-1709.03	  404.63
     30.7700	  588.00	  597.89	-1734.39	  404.30
     30.8700	  572.00	  615.87	-1768.37	  403.97
     30.9700	  598.00	  624.92	-1751.42	  403.64
     31.0700	  623.00	  618.25	-1719.75	  403.31
     31.1700	  600.00	  598.27	-1722.77	  402.99
     31.2700	  565.00	  575.25	-1734.75	  402.66
     31.3700	  538.00	  556.38	-1742.88	  402.34
     31.4700	  556.00	  543.59	-1712.09	  402.01
     31.5700	  566.00	  535.97	-1694.47	  401.69
     31.6700	  528.00	  531.73	-1728.23	  401.37
     31.7700	  534.00	  529.35	-1719.85	  401.04
     31.8700	  579.00	  527.91	-1673.41	  400.72
     31.9700	  612.00	  526.98	-1639.48	  400.40
     32.0700	  536.00	  526.35	-1714.85	  400.08
     32.1700	  572.00	  525.95	-1678.45	  399.76
     32.2700	  509.00	  525.75	-1741.25	  399.44
     32.3700	  564.00	  525.74	-1686.24	  399.12
     32.4700	  557.00	  525.92	-1693.42	  398.81
     32.5700	  556.00	  526.33	-1694.83	  398.49
     32.6700	  511.00	  526.98	-1740.48	  398.17
     32.7700	  550.00	  527.95	-1702.45	  397.86
     32.8700	  509.00	  529.31	-1744.81	  397.54
     32.9700	  581.00	  531.21	-1674.71	  397.23
     33.0700	  534.00	  533.92	-1724.42	  396.92
     33.1700	  535.00	  537.96	-1727.46	  396.61
     33.2700	  572.00	  544.43	-1696.93	  396.30
     33.3700	  557.00	  555.49	-1722.99	  395.99
     33.4700	  561.00	  574.99	-1738.49	  395.68
     33.5700	  577.00	  608.62	-1756.12	  395.37
     33.6700	  649.00	  662.65	-1738.15	  395.07
     33.7700	  751.00	  739.95	-1713.45	  394.76
     33.8700	  817.00	  834.02	-1741.52	  394.46
     33.9700	 1004.00	  924.54	-1645.04	  394.16
     34.0700	 1043.00	  977.64	-1659.14	  393.85
     34.1700	 1055.00	  960.94	-1630.44	  393.55
     34.2700	  929.00	  878.86	-1674.36	  393.25
     34.3700	  839.00	  774.17	-1659.67	  392.95
     34.4700	  710.00	  682.60	-1697.10	  392.66
     34.5700	  668.00	  617.13	-1673.63	  392.36
     34.6700	  537.00	  576.37	-1763.87	  392.06
     34.7700	  528.00	  553.18	-1749.68	  391.77
     34.8700	  526.00	  540.29	-1738.79	  391.48
     34.9700	  533.00	  532.69	-1724.19	  391.18
     35.0700	  557.00	  527.70	-1695.20	  390.89
     35.1700	  527.00	  524.05	-1721.55	  390.60
     35.2700	  515.00	  521.24	-1730.74	  390.31
     35.3700	  481.00	  518.98	-1762.48	  390.03
     35.4700	  525.00	  517.12	-1716.62	  389.74
     35.5700	  555.00	  515.55	-1685.05	  389.46
     35.6700	  549.00	  514.22	-1689.72	  389.17
     35.7700	  480.00	  513.07	-1757.57	  388.89
     35.8700	  525.00	  512.52	-1712.02	  388.61
     35.9700	  477.00	  511.64	-1759.14	  388.33
     36.0700	  556.00	  510.85	-1679.35	  388.05
     36.1700	  517.00	  510.14	-1717.64	  387.77
     36.2700	  495.00	  509.51	-1739.01	  387.50
     36.3700	  485.00	  508.94	-1748.44	  387.22
     36.4700	  524.00	  508.43	-1708.93	  386.95
     36.5700	  475.00	  507.97	-1757.47	  386.68
     36.6700	  498.00	  507.57	-1734.07	  386.41
     36.7700	  550.00	  507.23	-1681.73	  386.14
     36.8700	  466.00	  506.99	-1765.49	  385.87
     36.9700	  501.00	  506.90	-1730.40	  385.61
     37.0700	  512.00	  507.06	-1719.56	  385.34
     37.1700	  512.00	  507.67	-1720.17	  385.08
     37.2700	  500.00	  508.93	-1733.43	  384.81
     37.3700	  496.00	  511.02	-1739.52	  384.55
     37.4700	  532.00	  513.88	-1706.38	  384.29
     37.5700	  492.00	  517.04	-1749.54	  384.04
     37.6700	  533.00	  519.51	-1711.01	  383.78
     37.7700	  510.00	  520.07	-1734.57	  383.53
     37.8700	  529.00	  518.16	-1713.66	  383.27
     37.9700	  506.00	  514.64	-1733.14	  383.02
     38.0700	  530.00	  510.87	-1705.37	  382.77
     38.1700	  536.00	  507.65	-1696.15	  382.52
     38.2700	  512.00	  505.39	-1717.89	  382.27
     38.3700	  489.00	  503.69	-1739.19	  382.03
     38.4700	  474.00	  502.56	-1753.06	  381.78
     38.5700	  509.00	  501.78	-1717.28	  381.54
     38.6700	  501.00	  501.21	-1724.71	  381.30
     38.7700	  471.00	  500.77	-1754.27	  381.06
     38.8700	  495.00	  500.39	-1729.89	  380.82
     38.9700	  473.00	  499.95	-1751.45	  380.58
     39.0700	  472.00	  499.65	-1752.15	  380.35
     39.1700	  500.00	  499.36	-1723.86	  380.12
     39.2700	  482.00	  499.10	-1741.60	  379.88
     39.3700	  509.00	  498.85	-1714.35	  379.65
     39.4700	  462.00	  498.61	-1761.11	  379.42
     39.5700	  529.00	  498.39	-1693.89	  379.20
     39.6700	  507.00	  498.17	-1715.67	  378.97
     39.7700	  475.00	  497.89	-1747.39	  378.75
     39.8700	  504.00	  497.70	-1718.20	  378.53
     39.9700	  467.00	  497.53	-1755.03	  378.30
     40.0700	  532.00	  497.36	-1689.86	  378.09
     40.1700	  476.00	  497.21	-1745.71	  377.87
     40.2700	  460.00	  497.07	-1761.57	  377.65
     40.3700	  489.00	  496.94	-1732.44	  377.44
     40.4700	  475.00	  496.83	-1746.33	  377.23
     40.5700	  508.00	  496.74	-1713.24	  377.01
     40.6700	  523.00	  496.67	-1698.17	  376.80
     40.7700	  499.00	  497.10	-1722.60	  376.60
     40.8700	  485.00	  497.09	-1736.59	  376.39
     40.9700	  515.00	  497.11	-1706.61	  376.19
     41.0700	  507.00	  497.17	-1714.67	  375.98
     41.1700	  480.00	  497.28	-1741.78	  375.78
     41.2700	  491.00	  497.45	-1730.95	  375.58
     41.3700	  496.00	  497.70	-1726.20	  375.39
     41.4700	  509.00	  498.05	-1713.55	  375.19
     41.5700	  499.00	  498.54	-1724.04	  375.00
     41.6700	  535.00	  499.25	-1688.75	  374.80
     41.7700	  501.00	  500.30	-1723.80	  374.61
     41.8700	  544.00	  502.01	-1682.51	  374.42
     41.9700	  493.00	  504.90	-1736.40	  374.24
     42.0700	  506.00	  510.04	-1728.54	  374.05
     42.1700	  527.00	  518.80	-1716.30	  373.87
     42.2700	  512.00	  532.80	-1745.30	  373.68
     42.3700	  505.00	  552.83	-1772.33	  373.50
     42.4700	  591.00	  578.11	-1711.61	  373.32
     42.5700	  572.00	  604.38	-1756.88	  373.15
     42.6700	  597.00	  624.28	-1751.78	  372.97
     42.7700	  612.00	  629.02	-1741.52	  372.80
     42.8700	  558.00	  615.54	-1782.04	  372.63
     42.9700	  578.00	  590.35	-1736.85	  372.46
     43.0700	  539.00	  563.09	-1748.59	  372.29
     43.1700	  560.00	  539.87	-1704.37	  372.12
     43.2700	  482.00	  523.07	-1765.57	  371.96
     43.3700	  478.00	  511.97	-1758.47	  371.79
     43.4700	  515.00	  505.31	-1714.81	  371.63
     43.5700	  494.00	  501.45	-1731.95	  371.47
     43.6700	  518.00	  499.17	-1705.67	  371.31
     43.7700	  541.00	  497.72	-1681.22	  371.16
     43.8700	  495.00	  496.70	-1726.20	  371.00
     43.9700	  513.00	  495.94	-1707.44	  370.85
     44.0700	  459.00	  495.34	-1760.84	  370.70
     44.1700	  553.00	  494.86	-1666.36	  370.55
     44.2700	  489.00	  494.46	-1729.96	  370.40
     44.3700	  492.00	  494.14	-1726.64	  370.26
     44.4700	  483.00	  493.88	-1735.38	  370.11
     44.5700	  514.00	  493.67	-1704.17	  369.97
     44.6700	  472.00	  493.70	-1746.20	  369.83
     44.7700	  491.00	  493.57	-1727.07	  369.69
     44.8700	  503.00	  493.47	-1714.97	  369.55
     44.9700	  481.00	  493.45	-1736.95	  369.42
     45.0700	  476.00	  493.42	-1741.92	  369.28
     45.1700	  488.00	  493.40	-1729.90	  369.15
     45.2700	  468.00	  493.42	-1749.92	  369.02
     45.3700	  500.00	  493.46	-1717.96	  368.89
     45.4700	  507.00	  493.53	-1711.03	  368.77
     45.5700	  500.00	  493.48	-1717.98	  368.64
     45.6700	  520.00	  493.61	-1698.11	  368.52
     45.7700	  507.00	  493.76	-1711.26	  368.40
     45.8700	  471.00	  493.96	-1747.46	  368.28
     45.9700	  541.00	  494.18	-1677.68	  368.16
     46.0700	  522.00	  494.45	-1696.95	  368.05
     46.1700	  504.00	  494.76	-1715.26	  367.93
     46.2700	  463.00	  495.18	-1756.68	  367.82
     46.3700	  471.00	  495.61	-1749.11	  367.71
     46.4700	  494.00	  496.13	-1726.63	  367.60
     46.5700	  481.00	  496.71	-1740.21	  367.49
     46.6700	  501.00	  497.39	-1720.89	  367.39
     46.7700	  525.00	  498.22	-1697.72	  367.28
     46.8700	  523.00	  499.24	-1700.74	  367.18
     46.9700	  497.00	  500.61	-1728.11	  367.08
     47.0700	  473.00	  502.56	-1754.06	  366.98
     47.1700	  496.00	  505.54	-1734.04	  366.88
     47.2700	  504.00	  510.22	-1730.72	  366.79
     47.3700	  508.00	  517.42	-1733.92	  366.70
     47.4700	  523.00	  527.89	-1729.39	  366.60
     47.5700	  556.00	  541.83	-1710.33	  366.51
     47.6700	  551.00	  558.34	-1731.84	  366.43
     47.7700	  560.00	  574.88	-1739.38	  366.34
     47.8700	  609.00	  587.23	-1702.73	  366.26
     47.9700	  527.00	  590.94	-1788.44	  366.17
     48.0700	  634.00	  584.80	-1675.30	  366.09
     48.1700	  613.00	  572.28	-1683.78	  366.01
     48.2700	  537.00	  558.35	-1745.85	  365.93
     48.3700	  562.00	  546.47	-1708.97	  365.86
     48.4700	  504.00	  538.23	-1758.73	  365.78
     48.5700	  528.00	  533.89	-1730.39	  365.71
     48.6700	  496.00	  532.98	-1761.48	  365.64
     48.7700	  522.00	  535.19	-1737.69	  365.57
     48.8700	  538.00	  539.22	-1725.72	  365.50
     48.9700	  530.00	  545.29	-1739.79	  365.44
     49.0700	  525.00	  553.72	-1753.22	  365.37
     49.1700	  530.00	  565.60	-1760.10	  365.31
     49.2700	  524.00	  583.37	-1783.87	  365.25
     49.3700	  560.00	  611.85	-1776.35	  365.19
     49.4700	  627.00	  659.54	-1757.04	  365.13
     49.5700	  680.00	  739.31	-1783.81	  365.07
     49.6700	  833.00	  867.37	-1758.87	  365.02
     49.7700	  980.00	 1058.63	-1803.13	  364.97
     49.8700	 1278.00	 1318.48	-1764.98	  364.92
     49.9700	 1601.00	 1632.50	-1756.00	  364.87
     50.0700	 1924.00	 1956.36	-1756.86	  364.82
     50.1700	 2372.00	 2212.37	-1564.87	  364.77
     50.2700	 2369.00	 2309.53	-1665.03	  364.73
     50.3700	 2300.00	 2203.14	-1627.64	  364.69
     50.4700	 1884.00	 1940.12	-1780.62	  364.64
     50.5700	 1645.00	 1616.09	-1695.59	  364.61
     50.6700	 1196.00	 1309.32	-1837.82	  364.57
     50.7700	  942.00	 1061.74	-1844.24	  364.53
     50.8700	  796.00	  885.44	-1813.94	  364.50
     50.9700	  709.00	  772.58	-1788.08	  364.46
     51.0700	  665.00	  705.70	-1765.20	  364.43
     51.1700	  610.00	  665.90	-1780.40	  364.40
     51.2700	  616.00	  638.55	-1747.05	  364.37
     51.3700	  600.00	  616.17	-1740.67	  364.35
     51.4700	  599.00	  596.12	-1721.62	  364.32
     51.5700	  580.00	  578.88	-1723.38	  364.30
     51.6700	  522.00	  564.91	-1767.41	  364.27
     51.7700	  585.00	  554.33	-1693.83	  364.25
     51.8700	  532.00	  546.85	-1739.35	  364.23
     51.9700	  541.00	  541.97	-1725.47	  364.22
     52.0700	  514.00	  539.13	-1749.63	  364.20
     52.1700	  558.00	  537.91	-1704.41	  364.19
     52.2700	  545.00	  538.07	-1717.57	  364.17
     52.3700	  579.00	  539.68	-1685.18	  364.16
     52.4700	  582.00	  543.18	-1685.68	  364.15
     52.5700	  543.00	  549.60	-1731.09	  364.14
     52.6700	  573.00	  560.92	-1712.42	  364.14
     52.7700	  589.00	  580.44	-1715.94	  364.13
     52.8700	  618.00	  612.78	-1719.28	  364.13
     52.9700	  686.00	  663.37	-1701.87	  364.13
     53.0700	  749.00	  736.74	-1712.24	  364.12
     53.1700	  870.00	  833.95	-1688.45	  364.12
     53.2700	  991.00	  949.66	-1683.16	  364.13
     53.3700	 1112.00	 1069.17	-1681.67	  364.13
     53.4700	 1177.00	 1167.19	-1714.69	  364.13
     53.5700	 1243.00	 1213.01	-1694.51	  364.14
     53.6700	 1160.00	 1188.01	-1752.51	  364.15
     53.7700	 1043.00	 1102.25	-1783.75	  364.16
     53.8700	  940.00	  985.74	-1770.24	  364.17
     53.9700	  844.00	  866.99	-1747.49	  364.18
     54.0700	  732.00	  763.81	-1756.31	  364.19
     54.1700	  621.00	  683.98	-1787.48	  364.21
     54.2700	  635.00	  627.81	-1717.31	  364.22
     54.3700	  582.00	  591.45	-1733.95	  364.24
     54.4700	  558.00	  569.46	-1735.96	  364.26
     54.5700	  563.00	  556.84	-1718.34	  364.28
     54.6700	  543.00	  549.89	-1731.39	  364.30
     54.7700	  587.00	  546.26	-1683.76	  364.33
     54.8700	  575.00	  544.66	-1694.16	  364.35
     54.9700	  548.00	  544.45	-1720.95	  364.38
     55.0700	  592.00	  545.34	-1677.84	  364.40
     55.1700	  574.00	  547.23	-1697.73	  364.43
     55.2700	  548.00	  550.14	-1726.64	  364.46
     55.3700	  549.00	  554.17	-1729.67	  364.49
     55.4700	  591.00	  559.51	-1693.01	  364.52
     55.5700	  550.00	  566.54	-1741.04	  364.56
     55.6700	  592.00	  575.95	-1708.45	  364.59
     55.7700	  618.00	  589.26	-1695.76	  364.63
     55.8700	  606.00	  609.12	-1727.62	  364.67
     55.9700	  657.00	  640.42	-1707.92	  364.71
     56.0700	  684.00	  691.04	-1731.54	  364.75
     56.1700	  715.00	  772.36	-1781.86	  364.79
     56.2700	  817.00	  898.23	-1805.73	  364.83
     56.3700	  984.00	 1081.80	-1822.30	  364.87
     56.4700	 1285.00	 1330.13	-1769.63	  364.92
     56.5700	 1614.00	 1637.09	-1747.59	  364.96
     56.6700	 1940.00	 1976.84	-1761.34	  365.01
     56.7700	 2310.00	 2298.60	-1713.10	  365.06
     56.8700	 2481.00	 2528.22	-1771.72	  365.11
     56.9700	 2488.00	 2592.22	-1828.72	  365.16
     57.0700	 2453.00	 2465.90	-1737.40	  365.21
     57.1700	 2206.00	 2195.85	-1714.35	  365.26
     57.2700	 1819.00	 1861.71	-1767.21	  365.32
     57.3700	 1484.00	 1531.35	-1771.85	  365.37
     57.4700	 1193.00	 1246.32	-1777.82	  365.43
     57.5700	 1044.00	 1024.89	-1705.39	  365.49
     57.6700	  855.00	  867.88	-1737.38	  365.55
     57.7700	  811.00	  765.84	-1679.34	  365.61
     57.8700	  775.00	  705.76	-1655.26	  365.67
     57.9700	  667.00	  675.82	-1733.32	  365.73
     58.0700	  706.00	  667.87	-1686.37	  365.79
     58.1700	  676.00	  677.57	-1726.07	  365.86
     58.2700	  716.00	  703.37	-1711.87	  365.92
     58.3700	  746.00	  744.96	-1723.46	  365.99
     58.4700	  845.00	  801.72	-1681.22	  366.06
     58.5700	  885.00	  871.16	-1710.66	  366.13
     58.6700	 1075.00	  947.77	-1597.27	  366.20
     58.7700	 1076.00	 1023.39	-1671.89	  366.27
     58.8700	 1166.00	 1090.39	-1648.89	  366.34
     58.9700	 1237.00	 1144.48	-1631.98	  366.41
     59.0700	 1318.00	 1182.21	-1588.71	  366.48
     59.1700	 1352.00	 1198.79	-1571.29	  366.56
     59.2700	 1344.00	 1192.67	-1573.17	  366.63
     59.3700	 1289.00	 1171.01	-1606.51	  366.71
     59.4700	 1213.00	 1145.80	-1657.30	  366.79
     59.5700	 1220.00	 1126.83	-1631.33	  366.86
     59.6700	 1197.00	 1120.78	-1648.28	  366.94
     59.7700	 1161.00	 1134.37	-1697.87	  367.02
     59.8700	 1260.00	 1174.16	-1638.66	  367.10
     59.9700	 1282.00	 1241.25	-1683.75	  367.19
     60.0700	 1393.00	 1326.89	-1658.39	  367.27
     60.1700	 1457.00	 1411.27	-1678.77	  367.35
     60.2700	 1557.00	 1465.78	-1633.28	  367.44
     60.3700	 1510.00	 1463.36	-1677.86	  367.52
     60.4700	 1464.00	 1395.46	-1655.96	  367.61
     60.5700	 1293.00	 1278.13	-1709.63	  367.70
     60.6700	 1119.00	 1138.61	-1744.11	  367.78
     60.7700	 1023.00	 1000.97	-1702.47	  367.87
     60.8700	  911.00	  880.98	-1694.48	  367.96
     60.9700	  798.00	  786.65	-1713.15	  368.05
     61.0700	  701.00	  720.10	-1743.60	  368.14
     61.1700	  632.00	  679.87	-1772.37	  368.24
     61.2700	  676.00	  663.50	-1712.00	  368.33
     61.3700	  691.00	  669.45	-1702.95	  368.42
     61.4700	  677.00	  698.05	-1745.55	  368.52
     61.5700	  751.00	  751.14	-1724.64	  368.61
     61.6700	  845.00	  830.57	-1710.07	  368.71
     61.7700	  886.00	  935.96	-1774.46	  368.80
     61.8700	 1073.00	 1062.40	-1713.90	  368.90
     61.9700	 1173.00	 1198.38	-1749.88	  369.00
     62.0700	 1300.00	 1324.68	-1749.18	  369.10
     62.1700	 1356.00	 1415.09	-1783.59	  369.20
     62.2700	 1336.00	 1444.22	-1832.72	  369.30
     62.3700	 1300.00	 1401.93	-1826.43	  369.40
     62.4700	 1207.00	 1301.31	-1818.81	  369.50
     62.5700	 1107.00	 1168.78	-1786.28	  369.60
     62.6700	  997.00	 1029.74	-1757.24	  369.70
     62.7700	  810.00	  902.04	-1816.54	  369.80
     62.8700	  752.00	  795.67	-1768.17	  369.91
     62.9700	  647.00	  714.04	-1791.54	  370.01
     63.0700	  664.00	  655.76	-1716.26	  370.12
     63.1700	  597.00	  616.80	-1744.30	  370.22
     63.2700	  564.00	  592.32	-1752.82	  370.33
     63.3700	  569.00	  578.00	-1733.50	  370.43
     63.4700	  573.00	  570.74	-1722.24	  370.54
     63.5700	  616.00	  568.83	-1677.33	  370.65
     63.6700	  600.00	  571.80	-1696.30	  370.76
     63.7700	  562.00	  580.27	-1742.77	  370.86
     63.8700	  648.00	  595.64	-1672.14	  370.97
     63.9700	  636.00	  619.61	-1708.11	  371.08
     64.0700	  663.00	  653.77	-1715.27	  371.19
     64.1700	  735.00	  698.81	-1688.31	  371.30
     64.2700	  821.00	  753.85	-1657.35	  371.41
     64.3700	  880.00	  815.65	-1660.15	  371.53
     64.4700	  922.00	  878.12	-1680.62	  371.64
     64.5700	  933.00	  932.24	-1723.74	  371.75
     64.6700	 1012.00	  968.26	-1680.76	  371.86
     64.7700	 1017.00	  979.35	-1686.85	  371.98
     64.8700	 1005.00	  964.05	-1683.55	  372.09
     64.9700	  944.00	  927.75	-1708.25	  372.20
     65.0700	  888.00	  877.97	-1714.47	  372.32
     65.1700	  856.00	  823.47	-1691.97	  372.43
     65.2700	  802.00	  771.09	-1693.59	  372.55
     65.3700	  739.00	  724.60	-1710.10	  372.66
     65.4700	  654.00	  685.14	-1755.64	  372.78
     65.5700	  589.00	  652.62	-1788.12	  372.89
     65.6700	  642.00	  626.21	-1708.71	  373.01
     65.7700	  592.00	  605.47	-1737.97	  373.13
     65.8700	  573.00	  589.72	-1741.22	  373.24
     65.9700	  577.00	  578.20	-1725.70	  373.36
     66.0700	  526.00	  570.25	-1768.75	  373.48
     66.1700	  551.00	  565.26	-1738.76	  373.59
     66.2700	  582.00	  562.78	-1705.28	  373.71
     66.3700	  573.00	  562.43	-1713.93	  373.83
     66.4700	  511.00	  563.98	-1777.48	  373.95
     66.5700	  590.00	  567.40	-1701.90	  374.07
     66.6700	  572.00	  572.90	-1725.40	  374.18
     66.7700	  526.00	  581.18	-1779.68	  374.30
     66.8700	  576.00	  593.69	-1742.19	  374.42
     66.9700	  624.00	  612.72	-1713.22	  374.54
     67.0700	  633.00	  641.82	-1733.32	  374.66
     67.1700	  639.00	  686.47	-1771.97	  374.78
     67.2700	  708.00	  753.52	-1770.02	  374.90
     67.3700	  848.00	  850.72	-1727.22	  375.02
     67.4700	  971.00	  985.19	-1738.69	  375.14
     67.5700	 1125.00	 1161.30	-1760.80	  375.26
     67.6700	 1362.00	 1378.02	-1740.52	  375.38
     67.7700	 1671.00	 1626.10	-1679.60	  375.50
     67.8700	 1900.00	 1886.70	-1711.20	  375.62
     67.9700	 2185.00	 2129.73	-1669.23	  375.74
     68.0700	 2356.00	 2315.64	-1684.14	  375.86
     68.1700	 2447.00	 2403.83	-1681.33	  375.98
     68.2700	 2302.00	 2371.11	-1793.61	  376.10
     68.3700	 2236.00	 2226.41	-1714.91	  376.22
     68.4700	 2058.00	 2004.87	-1671.37	  376.34
     68.5700	 1723.00	 1748.28	-1749.78	  376.46
     68.6700	 1552.00	 1491.69	-1664.19	  376.58
     68.7700	 1206.00	 1259.17	-1777.67	  376.70
     68.8700	 1038.00	 1064.09	-1750.59	  376.82
     68.9700	  909.00	  910.84	-1726.34	  376.94
     69.0700	  763.00	  797.57	-1759.07	  377.06
     69.1700	  751.00	  717.95	-1691.45	  377.18
     69.2700	  616.00	  664.31	-1772.81	  377.30
     69.3700	  630.00	  629.20	-1723.70	  377.42
     69.4700	  632.00	  606.52	-1699.02	  377.54
     69.5700	  579.00	  591.82	-1737.32	  377.66
     69.6700	  605.00	  582.14	-1701.64	  377.78
     69.7700	  567.00	  575.53	-1733.03	  377.90
     69.8700	  561.00	  570.95	-1734.45	  378.02
     69.9700	  554.00	  567.80	-1738.30	  378.13
     70.0700	  551.00	  565.80	-1739.30	  378.25
     70.1700	  540.00	  564.76	-1749.26	  378.37
     70.2700	  567.00	  564.66	-1722.16	  378.49
     70.3700	  586.00	  565.56	-1704.06	  378.61
     70.4700	  576.00	  567.65	-1716.15	  378.73
     70.5700	  547.00	  571.31	-1748.81	  378.84
     70.6700	  558.00	  577.24	-1743.74	  378.96
     70.7700	  536.00	  586.62	-1775.12	  379.08
     70.8700	  592.00	  601.30	-1733.80	  379.20
     70.9700	  603.00	  623.98	-1745.48	  379.31
     71.0700	  664.00	  658.30	-1718.80	  379.43
     71.1700	  693.00	  708.69	-1740.19	  379.55
     71.2700	  781.00	  780.66	-1724.16	  379.66
     71.3700	  882.00	  876.63	-1719.13	  379.78
     71.4700	  968.00	  999.61	-1756.11	  379.89
     71.5700	 1208.00	 1148.53	-1665.03	  380.01
     71.6700	 1247.00	 1317.66	-1795.16	  380.12
     71.7700	 1449.00	 1495.67	-1771.17	  380.24
     71.8700	 1616.00	 1665.17	-1773.67	  380.35
     71.9700	 1750.00	 1803.10	-1777.60	  380.46
     72.0700	 1848.00	 1884.58	-1761.08	  380.58
     72.1700	 1854.00	 1891.47	-1761.97	  380.69
     72.2700	 1791.00	 1822.15	-1755.65	  380.80
     72.3700	 1643.00	 1692.45	-1773.95	  380.91
     72.4700	 1616.00	 1526.91	-1635.41	  381.02
     72.5700	 1409.00	 1349.17	-1664.67	  381.13
     72.6700	 1181.00	 1177.66	-1721.16	  381.25
     72.7700	 1064.00	 1024.62	-1685.12	  381.36
     72.8700	  938.00	  896.51	-1683.01	  381.46
     72.9700	  846.00	  795.10	-1673.60	  381.57
     73.0700	  765.00	  718.66	-1678.16	  381.68
     73.1700	  680.00	  663.44	-1707.94	  381.79
     73.2700	  726.00	  624.39	-1622.89	  381.90
     73.3700	  692.00	  598.07	-1630.57	  382.01
     73.4700	  628.00	  580.30	-1676.80	  382.11
     73.5700	  570.00	  568.25	-1722.75	  382.22
     73.6700	  582.00	  559.98	-1702.48	  382.32
     73.7700	  620.00	  554.25	-1658.75	  382.43
     73.8700	  539.00	  550.26	-1735.76	  382.53
     73.9700	  611.00	  547.56	-1661.06	  382.64
     74.0700	  586.00	  545.86	-1684.36	  382.74
     74.1700	  617.00	  544.95	-1652.45	  382.84
     74.2700	  585.00	  544.64	-1684.14	  382.95
     74.3700	  654.00	  544.71	-1615.21	  383.05
     74.4700	  652.00	  544.94	-1617.44	  383.15
     74.5700	  591.00	  545.06	-1678.56	  383.25
     74.6700	  619.00	  544.81	-1650.31	  383.35
     74.7700	  594.00	  544.01	-1674.51	  383.45
     74.8700	  651.00	  542.67	-1616.17	  383.55
     74.9700	  627.00	  540.97	-1638.47	  383.64
     75.0700	  613.00	  539.22	-1650.72	  383.74
     75.1700	  540.00	  537.75	-1722.25	  383.84
     75.2700	  617.00	  536.92	-1644.42	  383.93
     75.3700	  572.00	  537.11	-1689.61	  384.03
     75.4700	  595.00	  538.70	-1668.20	  384.12
     75.5700	  561.00	  542.27	-1705.77	  384.21
     75.6700	  537.00	  548.26	-1735.76	  384.31
     75.7700	  595.00	  557.14	-1686.64	  384.40
     75.8700	  588.00	  569.28	-1705.78	  384.49
     75.9700	  576.00	  584.82	-1733.32	  384.58
     76.0700	  630.00	  603.44	-1697.94	  384.67
     76.1700	  584.00	  624.64	-1765.14	  384.76
     76.2700	  644.00	  647.04	-1727.54	  384.85
     76.3700	  701.00	  668.80	-1692.30	  384.93
     76.4700	  684.00	  687.45	-1727.95	  385.02
     76.5700	  722.00	  700.27	-1702.77	  385.11
     76.6700	  745.00	  704.83	-1684.33	  385.19
     76.7700	  679.00	  700.25	-1745.75	  385.28
     76.8700	  656.00	  687.39	-1755.89	  385.36
     76.9700	  721.00	  668.56	-1672.06	  385.44
     77.0700	  663.00	  646.48	-1707.98	  385.52
     77.1700	  633.00	  623.63	-1715.13	  385.60
     77.2700	  556.00	  601.86	-1770.36	  385.68
     77.3700	  562.00	  582.45	-1744.95	  385.76
     77.4700	  515.00	  566.08	-1775.58	  385.84
     77.5700	  548.00	  552.74	-1729.24	  385.92
     77.6700	  519.00	  542.66	-1748.16	  385.99
     77.7700	  544.00	  535.24	-1715.74	  386.07
     77.8700	  504.00	  529.96	-1750.46	  386.14
     77.9700	  532.00	  526.32	-1718.82	  386.22
     78.0700	  552.00	  523.84	-1696.34	  386.29
     78.1700	  538.00	  522.19	-1708.69	  386.36
     78.2700	  510.00	  521.09	-1735.59	  386.43
     78.3700	  456.00	  520.35	-1788.85	  386.50
     78.4700	  485.00	  519.87	-1759.37	  386.57
     78.5700	  484.00	  519.58	-1760.08	  386.64
     78.6700	  470.00	  519.45	-1773.95	  386.70
     78.7700	  522.00	  519.46	-1721.96	  386.77
     78.8700	  493.00	  519.62	-1751.12	  386.84
     78.9700	  519.00	  519.96	-1725.46	  386.90
     79.0700	  459.00	  520.51	-1786.01	  386.96
     79.1700	  478.00	  521.30	-1767.80	  387.02
     79.2700	  538.00	  522.38	-1708.88	  387.08
     79.3700	  539.00	  523.80	-1709.30	  387.14
     79.4700	  462.00	  525.59	-1788.09	  387.20
     79.5700	  519.00	  527.81	-1733.31	  387.26
     79.6700	  511.00	  530.51	-1744.01	  387.32
     79.7700	  551.00	  533.74	-1707.24	  387.37
     79.8700	  500.00	  537.57	-1762.07	  387.43
     79.9700	  520.00	  541.91	-1746.41	  387.48
     80.0700	  494.00	  547.28	-1777.78	  387.53
     80.1700	  499.00	  553.65	-1779.15	  387.58
     80.2700	  536.00	  561.30	-1749.80	  387.63
     80.3700	  558.00	  570.55	-1737.05	  387.68
     80.4700	  598.00	  581.69	-1708.19	  387.73
     80.5700	  584.00	  594.88	-1735.38	  387.78
     80.6700	  576.00	  610.06	-1758.56	  387.82
     80.7700	  605.00	  626.86	-1746.36	  387.87
     80.8700	  668.00	  644.57	-1701.07	  387.91
     80.9700	  609.00	  662.19	-1777.69	  387.95
     81.0700	  674.00	  678.54	-1729.04	  387.99
     81.1700	  748.00	  692.52	-1669.02	  388.03
     81.2700	  701.00	  703.24	-1726.74	  388.07
     81.3700	  764.00	  710.03	-1670.53	  388.11
     81.4700	  749.00	  712.51	-1688.01	  388.14
     81.5700	  722.00	  710.55	-1713.05	  388.18
     81.6700	  725.00	  704.33	-1703.83	  388.21
     81.7700	  719.00	  694.17	-1699.67	  388.25
     81.8700	  694.00	  680.65	-1711.15	  388.28
     81.9700	  721.00	  664.64	-1668.14	  388.31
     82.0700	  694.00	  647.25	-1677.75	  388.34
     82.1700	  683.00	  629.63	-1671.13	  388.36
     82.2700	  681.00	  612.70	-1656.20	  388.39
     82.3700	  642.00	  597.10	-1679.60	  388.42
     82.4700	  626.00	  583.21	-1681.71	  388.44
     82.5700	  575.00	  571.25	-1720.75	  388.46
     82.6700	  562.00	  561.30	-1723.80	  388.49
     82.7700	  567.00	  553.39	-1710.89	  388.51
     82.8700	  507.00	  547.47	-1764.97	  388.53
     82.9700	  517.00	  543.48	-1750.98	  388.54
     83.0700	  521.00	  541.29	-1744.79	  388.56
     83.1700	  523.00	  540.74	-1742.24	  388.58
     83.2700	  571.00	  541.80	-1695.30	  388.59
     83.3700	  555.00	  544.25	-1713.75	  388.60
     83.4700	  532.00	  547.84	-1740.34	  388.61
     83.5700	  503.00	  552.36	-1773.86	  388.62
     83.6700	  524.00	  557.42	-1757.92	  388.63
     83.7700	  560.00	  562.55	-1727.05	  388.64
     83.8700	  560.00	  567.24	-1731.74	  388.65
     83.9700	  597.00	  570.88	-1698.38	  388.65
     84.0700	  528.00	  572.93	-1769.43	  388.66
     84.1700	  525.00	  573.01	-1772.51	  388.66
     84.2700	  509.00	  571.06	-1786.56	  388.66
     84.3700	  584.00	  567.34	-1707.84	  388.66
     84.4700	  585.00	  562.35	-1701.85	  388.66
     84.5700	  574.00	  556.63	-1707.13	  388.66
     84.6700	  515.00	  550.68	-1760.18	  388.65
     84.7700	  530.00	  544.90	-1739.40	  388.65
     84.8700	  573.00	  539.60	-1691.10	  388.64
     84.9700	  569.00	  534.97	-1690.47	  388.63
     85.0700	  567.00	  531.11	-1688.61	  388.62
     85.1700	  513.00	  528.03	-1739.53	  388.61
     85.2700	  490.00	  525.69	-1760.19	  388.60
     85.3700	  479.00	  524.01	-1769.51	  388.59
     85.4700	  508.00	  522.90	-1739.40	  388.57
     85.5700	  521.00	  522.28	-1725.78	  388.56
     85.6700	  495.00	  522.09	-1751.59	  388.54
     85.7700	  518.00	  522.29	-1728.79	  388.52
     85.8700	  527.00	  522.90	-1720.40	  388.50
     85.9700	  511.00	  523.96	-1737.46	  388.48
     86.0700	  500.00	  525.57	-1750.07	  388.45
     86.1700	  513.00	  527.88	-1739.38	  388.43
     86.2700	  521.00	  531.05	-1734.55	  388.40
     86.3700	  537.00	  535.27	-1722.77	  388.38
     86.4700	  570.00	  540.73	-1695.23	  388.35
     86.5700	  553.00	  547.59	-1719.09	  388.32
     86.6700	  574.00	  555.96	-1706.46	  388.29
     86.7700	  543.00	  565.81	-1747.31	  388.25
     86.8700	  558.00	  577.01	-1743.51	  388.22
     86.9700	  630.00	  589.22	-1683.72	  388.18
     87.0700	  627.00	  601.94	-1699.44	  388.15
     87.1700	  612.00	  614.47	-1726.97	  388.11
     87.2700	  662.00	  625.93	-1688.43	  388.07
     87.3700	  609.00	  635.31	-1750.81	  388.03
     87.4700	  614.00	  641.60	-1752.10	  387.99
     87.5700	  645.00	  644.04	-1723.54	  387.94
     87.6700	  636.00	  642.35	-1730.85	  387.90
     87.7700	  636.00	  636.49	-1724.99	  387.85
     87.8700	  592.00	  628.03	-1760.53	  387.80
     87.9700	  612.00	  617.68	-1730.18	  387.75
     88.0700	  591.00	  606.50	-1740.00	  387.70
     88.1700	  582.00	  595.48	-1737.98	  387.65
     88.2700	  595.00	  585.45	-1714.95	  387.60
     88.3700	  576.00	  577.02	-1725.52	  387.54
     88.4700	  596.00	  570.61	-1699.11	  387.48
     88.5700	  572.00	  566.46	-1718.96	  387.43
     88.6700	  597.00	  564.60	-1692.10	  387.37
     88.7700	  591.00	  564.89	-1698.39	  387.31
     88.8700	  611.00	  567.03	-1680.53	  387.24
     88.9700	  593.00	  570.62	-1702.12	  387.18
     89.0700	  581.00	  575.13	-1718.63	  387.12
     89.1700	  601.00	  579.97	-1703.47	  387.05
     89.2700	  582.00	  584.49	-1726.99	  386.98
     89.3700	  600.00	  588.04	-1712.54	  386.91
     89.4700	  598.00	  590.02	-1716.52	  386.84
     89.5700	  596.00	  590.05	-1718.55	  386.77
     89.6700	  571.00	  588.03	-1741.53	  386.70
     89.7700	  599.00	  584.15	-1709.65	  386.62
     89.8700	  572.00	  578.83	-1731.33	  386.55
     89.9700	  606.00	  572.58	-1691.08	  386.47
     90.0700	  528.00	  565.90	-1762.40	  386.39
     90.1700	  524.00	  559.21	-1759.71	  386.31
     90.2700	  501.00	  552.85	-1776.35	  386.23
     90.3700	  467.00	  547.08	-1804.58	  386.14
     90.4700	  539.00	  542.06	-1727.56	  386.06
     90.5700	  549.00	  537.86	-1713.36	  385.97
     90.6700	  491.00	  534.50	-1768.00	  385.89
     90.7700	  517.00	  531.93	-1739.43	  385.80
     90.8700	  512.00	  530.08	-1742.58	  385.71
     90.9700	  475.00	  528.87	-1778.37	  385.62
     91.0700	  530.00	  528.22	-1722.72	  385.52
     91.1700	  507.00	  528.06	-1745.56	  385.43
     91.2700	  559.00	  528.37	-1693.87	  385.33
     91.3700	  508.00	  529.15	-1745.65	  385.24
     91.4700	  538.00	  530.42	-1716.92	  385.14
     91.5700	  515.00	  532.27	-1741.77	  385.04
     91.6700	  493.00	  534.81	-1766.31	  384.94
     91.7700	  532.00	  538.20	-1730.70	  384.84
     91.8700	  506.00	  542.61	-1761.11	  384.73
     91.9700	  577.00	  548.22	-1695.72	  384.63
     92.0700	  557.00	  555.24	-1722.74	  384.52
     92.1700	  533.00	  563.82	-1755.32	  384.41
     92.2700	  584.00	  574.09	-1714.58	  384.30
     92.3700	  597.00	  586.09	-1713.59	  384.19
     92.4700	  579.00	  599.81	-1745.31	  384.08
     92.5700	  635.00	  615.09	-1704.59	  383.97
     92.6700	  654.00	  631.66	-1702.16	  383.86
     92.7700	  676.00	  649.12	-1697.62	  383.74
     92.8700	  629.00	  666.95	-1762.45	  383.62
     92.9700	  650.00	  684.22	-1758.72	  383.51
     93.0700	  687.00	  700.79	-1738.29	  383.39
     93.1700	  740.00	  715.78	-1700.28	  383.26
     93.2700	  706.00	  728.82	-1747.32	  383.14
     93.3700	  705.00	  739.90	-1759.40	  383.02
     93.4700	  769.00	  749.32	-1704.82	  382.89
     93.5700	  723.00	  757.58	-1759.08	  382.77
     93.6700	  743.00	  765.21	-1746.71	  382.64
     93.7700	  787.00	  772.65	-1710.15	  382.51
     93.8700	  762.00	  780.28	-1742.78	  382.38
     93.9700	  863.00	  788.47	-1649.97	  382.25
     94.0700	  851.00	  797.61	-1671.11	  382.12
     94.1700	  852.00	  808.11	-1680.61	  381.99
     94.2700	  906.00	  820.21	-1638.71	  381.85
     94.3700	  823.00	  833.87	-1735.37	  381.72
     94.4700	  959.00	  848.65	-1614.15	  381.58
     94.5700	  903.00	  863.64	-1685.14	  381.44
     94.6700	  899.00	  877.57	-1703.07	  381.30
     94.7700	  893.00	  888.86	-1720.36	  381.16
     94.8700	  953.00	  895.79	-1667.29	  381.02
     94.9700	  927.00	  896.89	-1694.39	  380.88
     95.0700	  915.00	  891.25	-1700.75	  380.73
     95.1700	  891.00	  878.86	-1712.36	  380.59
     95.2700	  845.00	  860.56	-1740.06	  380.44
     95.3700	  830.00	  837.87	-1732.37	  380.29
     95.4700	  794.00	  812.63	-1743.13	  380.14
     95.5700	  764.00	  786.77	-1747.27	  379.99
     95.6700	  767.00	  762.13	-1719.63	  379.84
     95.7700	  690.00	  740.40	-1774.90	  379.69
     95.8700	  754.00	  723.12	-1693.62	  379.54
     95.9700	  668.00	  711.65	-1768.15	  379.38
     96.0700	  692.00	  707.20	-1739.70	  379.23
     96.1700	  713.00	  710.78	-1722.28	  379.07
     96.2700	  701.00	  723.21	-1746.71	  378.91
     96.3700	  735.00	  745.10	-1734.60	  378.75
     96.4700	  815.00	  776.82	-1686.32	  378.59
     96.5700	  856.00	  818.41	-1686.91	  378.43
     96.6700	  823.00	  869.54	-1771.04	  378.27
     96.7700	  865.00	  929.36	-1788.86	  378.11
     96.8700	 1015.00	  996.56	-1706.06	  377.94
     96.9700	 1056.00	 1069.17	-1737.67	  377.78
     97.0700	 1123.00	 1144.64	-1746.14	  377.61
     97.1700	 1184.00	 1219.77	-1760.27	  377.44
     97.2700	 1284.00	 1290.77	-1731.27	  377.28
     97.3700	 1343.00	 1353.45	-1734.95	  377.11
     97.4700	 1461.00	 1403.47	-1666.97	  376.94
     97.5700	 1422.00	 1436.96	-1739.46	  376.77
     97.6700	 1428.00	 1451.19	-1747.69	  376.59
     97.7700	 1448.00	 1445.23	-1721.73	  376.42
     97.8700	 1384.00	 1420.15	-1760.65	  376.25
     97.9700	 1296.00	 1378.67	-1807.17	  376.07
     98.0700	 1310.00	 1324.55	-1739.05	  375.90
     98.1700	 1276.00	 1261.93	-1710.43	  375.72
     98.2700	 1247.00	 1194.87	-1672.37	  375.54
     98.3700	 1102.00	 1127.11	-1749.61	  375.37
     98.4700	 1036.00	 1061.98	-1750.48	  375.19
     98.5700	 1008.00	 1002.26	-1718.76	  375.01
     98.6700	  931.00	  950.30	-1743.80	  374.83
     98.7700	  864.00	  907.99	-1768.49	  374.65
     98.8700	  863.00	  876.77	-1738.27	  374.46
     98.9700	  781.00	  857.76	-1801.26	  374.28
     99.0700	  883.00	  851.73	-1693.23	  374.10
     99.1700	  858.00	  859.14	-1725.64	  373.91
     99.2700	  896.00	  880.34	-1708.84	  373.73
     99.3700	  912.00	  915.29	-1727.79	  373.54
     99.4700	  943.00	  963.78	-1745.28	  373.35
     99.5700	 1004.00	 1025.27	-1745.77	  373.17
     99.6700	 1089.00	 1098.88	-1734.38	  372.98
     99.7700	 1156.00	 1183.28	-1751.78	  372.79
     99.8700	 1278.00	 1276.66	-1723.16	  372.60
     99.9700	 1377.00	 1376.58	-1724.08	  372.41
    100.0700	 1470.00	 1480.00	-1734.50	  372.22
    100.1700	 1598.00	 1583.29	-1709.79	  372.03
    100.2700	 1730.00	 1682.42	-1676.92	  371.84
    100.3700	 1750.00	 1773.26	-1747.76	  371.64
    100.4700	 1880.00	 1852.02	-1696.52	  371.45
    100.5700	 1914.00	 1915.67	-1726.17	  371.26
    100.6700	 1947.00	 1962.11	-1739.61	  371.06
    100.7700	 2042.00	 1990.01	-1672.51	  370.87
    100.8700	 2006.00	 1998.59	-1717.09	  370.67
    100.9700	 1992.00	 1987.54	-1720.04	  370.48
    101.0700	 1960.00	 1957.22	-1721.72	  370.28
    101.1700	 1886.00	 1909.00	-1747.50	  370.08
    101.2700	 1866.00	 1845.51	-1704.01	  369.89
    101.3700	 1790.00	 1770.51	-1705.01	  369.69
    101.4700	 1757.00	 1688.50	-1656.00	  369.49
    101.5700	 1618.00	 1604.04	-1710.54	  369.29
    101.6700	 1557.00	 1521.33	-1688.83	  369.09
    101.7700	 1486.00	 1443.76	-1682.26	  368.89
    101.8700	 1348.00	 1373.85	-1750.35	  368.69
    101.9700	 1287.00	 1313.17	-1750.67	  368.49
    102.0700	 1265.00	 1262.35	-1721.85	  368.29
    102.1700	 1202.00	 1221.15	-1743.65	  368.09
    102.2700	 1132.00	 1188.57	-1781.07	  367.89
    102.3700	 1214.00	 1162.93	-1673.43	  367.69
    102.4700	 1139.00	 1142.09	-1727.59	  367.49
    102.5700	 1124.00	 1123.60	-1724.10	  367.29
    102.6700	 1095.00	 1105.05	-1734.55	  367.09
    102.7700	 1110.00	 1084.33	-1698.83	  366.89
    102.8700	 1048.00	 1059.98	-1736.48	  366.68
    102.9700	 1011.00	 1031.34	-1744.84	  366.48
    103.0700	  994.00	  998.51	-1729.01	  366.28
    103.1700	  943.00	  962.17	-1743.67	  366.08
    103.2700	  897.00	  923.34	-1750.84	  365.87
    103.3700	  892.00	  883.18	-1715.68	  365.67
    103.4700	  851.00	  842.86	-1716.36	  365.47
    103.5700	  809.00	  803.44	-1718.94	  365.26
    103.6700	  792.00	  765.82	-1698.32	  365.06
    103.7700	  778.00	  730.72	-1677.22	  364.86
    103.8700	  657.00	  698.70	-1766.20	  364.66
    103.9700	  735.00	  670.09	-1659.59	  364.45
    104.0700	  674.00	  645.06	-1695.56	  364.25
    104.1700	  616.00	  623.61	-1732.11	  364.05
    104.2700	  632.00	  605.58	-1698.08	  363.85
    104.3700	  595.00	  590.74	-1720.24	  363.64
    104.4700	  564.00	  578.77	-1739.27	  363.44
    104.5700	  577.00	  569.33	-1716.83	  363.24
    104.6700	  599.00	  562.07	-1687.57	  363.04
    104.7700	  571.00	  556.64	-1710.14	  362.84
    104.8700	  575.00	  552.75	-1702.25	  362.64
    104.9700	  546.00	  550.11	-1728.61	  362.43
    105.0700	  541.00	  548.50	-1732.00	  362.23
    105.1700	  564.00	  547.75	-1708.25	  362.03
    105.2700	  579.00	  547.70	-1693.20	  361.83
    105.3700	  539.00	  548.29	-1733.79	  361.63
    105.4700	  572.00	  549.43	-1701.93	  361.43
    105.5700	  543.00	  551.12	-1732.62	  361.23
    105.6700	  553.00	  553.35	-1724.85	  361.04
    105.7700	  549.00	  556.15	-1731.65	  360.84
    105.8700	  548.00	  559.62	-1736.12	  360.64
    105.9700	  564.00	  563.80	-1724.30	  360.44
    106.0700	  584.00	  568.76	-1709.26	  360.25
    106.1700	  553.00	  574.56	-1746.06	  360.05
    106.2700	  572.00	  581.21	-1733.71	  359.85
    106.3700	  565.00	  588.67	-1748.17	  359.66
    106.4700	  613.00	  596.91	-1708.41	  359.47
    106.5700	  557.00	  605.78	-1773.28	  359.27
    106.6700	  594.00	  615.11	-1745.61	  359.08
    106.7700	  620.00	  624.68	-1729.18	  358.89
    106.8700	  693.00	  634.21	-1665.71	  358.69
    106.9700	  633.00	  643.40	-1734.90	  358.50
    107.0700	  610.00	  651.92	-1766.42	  358.31
    107.1700	  654.00	  659.45	-1729.95	  358.12
    107.2700	  718.00	  665.69	-1672.19	  357.94
    107.3700	  641.00	  670.47	-1753.97	  357.75
    107.4700	  715.00	  673.72	-1683.22	  357.56
    107.5700	  692.00	  675.52	-1708.02	  357.38
    107.6700	  683.00	  676.12	-1717.62	  357.19
    107.7700	  706.00	  675.83	-1694.33	  357.01
    107.8700	  669.00	  675.03	-1730.53	  356.82
    107.9700	  660.00	  674.08	-1738.58	  356.64
    108.0700	  671.00	  673.30	-1726.80	  356.46
    108.1700	  679.00	  672.93	-1718.43	  356.28
    108.2700	  706.00	  673.10	-1691.60	  356.10
    108.3700	  689.00	  673.88	-1709.38	  355.93
    108.4700	  667.00	  675.21	-1732.71	  355.75
    108.5700	  683.00	  676.92	-1718.42	  355.57
    108.6700	  623.00	  678.78	-1780.28	  355.40
    108.7700	  693.00	  680.46	-1711.96	  355.23
    108.8700	  650.00	  681.59	-1756.09	  355.06
    108.9700	  706.00	  681.80	-1700.30	  354.89
    109.0700	  658.00	  680.75	-1747.25	  354.72
    109.1700	  681.00	  678.17	-1721.67	  354.55
    109.2700	  656.00	  673.96	-1742.46	  354.38
    109.3700	  736.00	  668.13	-1656.63	  354.22
    109.4700	  649.00	  660.84	-1736.34	  354.05
    109.5700	  616.00	  652.34	-1760.84	  353.89
    109.6700	  636.00	  642.94	-1731.44	  353.73
    109.7700	  618.00	  632.97	-1739.47	  353.57
    109.8700	  636.00	  622.75	-1711.25	  353.42
    109.9700	  610.00	  612.56	-1727.06	  353.26
    110.0700	  624.00	  602.67	-1703.17	  353.11
    110.1700	  595.00	  593.30	-1722.80	  352.96
    110.2700	  651.00	  584.61	-1658.11	  352.81
    110.3700	  608.00	  576.75	-1693.25	  352.66
    110.4700	  592.00	  569.80	-1702.30	  352.51
    110.5700	  546.00	  563.80	-1742.30	  352.36
    110.6700	  562.00	  558.77	-1721.27	  352.22
    110.7700	  554.00	  554.69	-1725.19	  352.08
    110.8700	  554.00	  551.50	-1722.00	  351.94
    110.9700	  523.00	  549.15	-1750.65	  351.80
    111.0700	  552.00	  547.57	-1720.07	  351.67
    111.1700	  569.00	  546.66	-1702.16	  351.53
    111.2700	  541.00	  546.35	-1729.85	  351.40
    111.3700	  524.00	  546.57	-1747.07	  351.27
    111.4700	  538.00	  547.24	-1733.74	  351.15
    111.5700	  537.00	  548.29	-1735.79	  351.02
    111.6700	  572.00	  549.67	-1702.17	  350.90
    111.7700	  534.00	  551.34	-1741.84	  350.78
    111.8700	  590.00	  553.26	-1687.76	  350.66
    111.9700	  542.00	  555.40	-1737.90	  350.54
    112.0700	  551.00	  557.75	-1731.25	  350.43
    112.1700	  549.00	  560.31	-1735.81	  350.32
    112.2700	  581.00	  563.08	-1706.58	  350.21
    112.3700	  535.00	  566.07	-1755.57	  350.10
    112.4700	  565.00	  569.32	-1728.82	  350.00
    112.5700	  572.00	  572.85	-1725.35	  349.89
    112.6700	  573.00	  576.73	-1728.23	  349.80
    112.7700	  576.00	  581.00	-1729.50	  349.70
    112.8700	  556.00	  585.74	-1754.24	  349.60
    112.9700	  614.00	  591.06	-1701.56	  349.51
    113.0700	  648.00	  597.09	-1673.59	  349.42
    113.1700	  571.00	  603.99	-1757.49	  349.34
    113.2700	  626.00	  611.97	-1710.47	  349.26
    113.3700	  644.00	  621.31	-1701.81	  349.17
    113.4700	  663.00	  632.37	-1693.87	  349.10
    113.5700	  650.00	  645.58	-1720.08	  349.02
    113.6700	  692.00	  661.50	-1694.00	  348.95
    113.7700	  709.00	  680.83	-1696.33	  348.88
    113.8700	  775.00	  704.41	-1653.91	  348.82
    113.9700	  799.00	  733.26	-1658.76	  348.75
    114.0700	  808.00	  768.61	-1685.11	  348.69
    114.1700	  863.00	  811.86	-1673.36	  348.64
    114.2700	  900.00	  864.67	-1689.17	  348.58
    114.3700	  982.00	  928.84	-1671.34	  348.53
    114.4700	 1032.00	 1006.41	-1698.91	  348.49
    114.5700	 1093.00	 1099.49	-1730.99	  348.44
    114.6700	 1278.00	 1210.38	-1656.88	  348.40
    114.7700	 1441.00	 1341.33	-1624.83	  348.37
    114.8700	 1607.00	 1494.50	-1612.00	  348.33
    114.9700	 1687.00	 1671.85	-1709.35	  348.30
    115.0700	 1996.00	 1874.96	-1603.46	  348.28
    115.1700	 2194.00	 2105.00	-1635.50	  348.25
    115.2700	 2471.00	 2362.51	-1616.01	  348.23
    115.3700	 2676.00	 2647.16	-1695.66	  348.22
    115.4700	 2966.00	 2957.76	-1716.26	  348.21
    115.5700	 3356.00	 3292.03	-1660.53	  348.20
    115.6700	 3610.00	 3646.68	-1761.18	  348.19
    115.7700	 3941.00	 4017.25	-1800.75	  348.19
    115.8700	 4318.00	 4398.00	-1804.50	  348.20
    115.9700	 4694.00	 4782.06	-1812.56	  348.20
    116.0700	 4977.00	 5161.38	-1908.88	  348.21
    116.1700	 5347.00	 5527.02	-1904.52	  348.23
    116.2700	 5854.00	 5869.19	-1739.69	  348.25
    116.3700	 6285.00	 6177.44	-1616.94	  348.27
    116.4700	 6374.00	 6441.29	-1791.79	  348.30
    116.5700	 6571.00	 6650.73	-1804.23	  348.33
    116.6700	 6719.00	 6797.19	-1802.69	  348.36
    116.7700	 6806.00	 6874.30	-1792.80	  348.40
    116.8700	 6898.00	 6878.61	-1705.11	  348.45
    116.9700	 6791.00	 6810.20	-1743.70	  348.50
    117.0700	 6650.00	 6672.58	-1747.08	  348.55
    117.1700	 6468.00	 6472.20	-1728.70	  348.61
    117.2700	 6237.00	 6217.64	-1705.14	  348.67
    117.3700	 5694.00	 5918.87	-1949.37	  348.73
    117.4700	 5381.00	 5586.28	-1929.78	  348.80
    117.5700	 5147.00	 5230.23	-1807.73	  348.88
    117.6700	 4794.00	 4860.35	-1790.85	  348.96
    117.7700	 4534.00	 4485.40	-1675.90	  349.04
    117.8700	 4210.00	 4113.23	-1627.73	  349.13
    117.9700	 3987.00	 3750.50	-1488.00	  349.23
    118.0700	 3536.00	 3402.75	-1591.25	  349.33
    118.1700	 3223.00	 3074.21	-1575.71	  349.43
    118.2700	 2911.00	 2768.00	-1581.50	  349.54
    118.3700	 2573.00	 2486.27	-1637.77	  349.66
    118.4700	 2286.00	 2230.15	-1668.65	  349.77
    118.5700	 1970.00	 1999.96	-1754.46	  349.90
    118.6700	 1779.00	 1795.23	-1740.73	  350.03
    118.7700	 1596.00	 1614.93	-1743.43	  350.16
    118.8700	 1418.00	 1457.65	-1764.15	  350.30
    118.9700	 1316.00	 1321.62	-1730.12	  350.45
    119.0700	 1134.00	 1204.90	-1795.40	  350.60
    119.1700	 1085.00	 1105.41	-1744.91	  350.76
    119.2700	 1006.00	 1021.11	-1739.61	  350.92
    119.3700	  955.00	  950.02	-1719.52	  351.08
    119.4700	  856.00	  890.31	-1758.81	  351.26
    119.5700	  828.00	  840.29	-1736.79	  351.44
    119.6700	  758.00	  798.44	-1764.94	  351.62
    119.7700	  733.00	  763.46	-1754.96	  351.81
    119.8700	  686.00	  734.19	-1772.69	  352.01
    119.9700	  665.00	  709.69	-1769.19	  352.21
    120.0700	  672.00	  689.15	-1741.65	  352.41
    120.1700	  639.00	  671.90	-1757.40	  352.63
    120.2700	  624.00	  657.38	-1757.88	  352.85
    120.3700	  626.00	  645.16	-1743.66	  353.07
    120.4700	  607.00	  634.88	-1752.38	  353.30
    120.5700	  624.00	  626.24	-1726.74	  353.54
    120.6700	  536.00	  619.01	-1807.51	  353.79
    120.7700	  580.00	  613.02	-1757.52	  354.04
    120.8700	  573.00	  608.10	-1759.60	  354.29
    120.9700	  616.00	  604.14	-1712.64	  354.56
    121.0700	  601.00	  601.05	-1724.55	  354.82
    121.1700	  615.00	  598.76	-1708.26	  355.10
    121.2700	  583.00	  597.19	-1738.69	  355.38
    121.3700	  610.00	  596.30	-1710.80	  355.67
    121.4700	  549.00	  596.03	-1771.53	  355.97
    121.5700	  571.00	  596.34	-1749.84	  356.27
    121.6700	  575.00	  597.18	-1746.68	  356.58
    121.7700	  583.00	  598.50	-1740.00	  356.90
    121.8700	  578.00	  600.25	-1746.75	  357.22
    121.9700	  591.00	  602.36	-1735.86	  357.55
    122.0700	  614.00	  604.78	-1715.28	  357.89
    122.1700	  607.00	  607.43	-1724.93	  358.23
    122.2700	  606.00	  610.23	-1728.73	  358.58
    122.3700	  592.00	  613.11	-1745.61	  358.94
    122.4700	  585.00	  615.97	-1755.47	  359.31
    122.5700	  652.00	  618.72	-1691.22	  359.68
    122.6700	  663.00	  621.26	-1682.76	  360.06
    122.7700	  614.00	  623.51	-1734.01	  360.45
    122.8700	  638.00	  625.39	-1711.89	  360.85
    122.9700	  625.00	  626.81	-1726.31	  361.25
    123.0700	  628.00	  627.76	-1724.26	  361.66
    123.1700	  640.00	  628.18	-1712.68	  362.08
    123.2700	  588.00	  628.08	-1764.58	  362.50
    123.3700	  597.00	  627.46	-1754.96	  362.94
    123.4700	  675.00	  626.35	-1675.85	  363.38
    123.5700	  643.00	  624.80	-1706.30	  363.83
    123.6700	  650.00	  622.87	-1697.37	  364.29
    123.7700	  582.00	  620.60	-1763.10	  364.75
    123.8700	  651.00	  618.05	-1691.55	  365.23
    123.9700	  631.00	  615.30	-1708.80	  365.71
    124.0700	  673.00	  612.39	-1663.89	  366.20
    124.1700	  599.00	  609.40	-1734.90	  366.70
    124.2700	  604.00	  606.38	-1726.88	  367.21
    124.3700	  671.00	  603.38	-1656.88	  367.72
    124.4700	  649.00	  600.45	-1675.95	  368.25
    124.5700	  592.00	  597.61	-1730.11	  368.78
    124.6700	  596.00	  594.91	-1723.41	  369.32
    124.7700	  601.00	  592.38	-1715.88	  369.87
    124.8700	  612.00	  590.03	-1702.53	  370.43
    124.9700	  598.00	  487.06	-1613.56	  371.00
    125.0700	  571.00	  487.64	-1724.50	  371.58
    125.1700	  536.00	  488.23	-1724.50	  372.16
    125.2700	  601.00	  488.82	-1724.50	  372.76
    125.3700	  606.00	  489.43	-1724.50	  373.36
    125.4700	  586.00	  490.04	-1724.50	  373.98
    125.5700	  566.00	  490.66	-1724.50	  374.60
    125.6700	  611.00	  491.29	-1724.50	  375.23
    125.7700	  564.00	  491.94	-1724.50	  375.87
    125.8700	  564.00	  492.59	-1724.50	  376.52
    125.9700	  577.00	  493.25	-1724.50	  377.18
    126.0700	  590.00	  493.92	-1724.50	  377.85
    126.1700	  527.00	  494.60	-1724.50	  378.53
    126.2700	  588.00	  495.29	-1724.50	  379.22
    126.3700	  578.00	  495.98	-1724.50	  379.92
    126.4700	  543.00	  496.69	-1724.50	  380.63
    126.5700	  582.00	  497.41	-1724.50	  381.35
    126.6700	  593.00	  498.14	-1724.50	  382.08
    126.7700	  625.00	  498.88	-1724.50	  382.82
    126.8700	  606.00	  499.63	-1724.50	  383.57
    126.9700	  587.00	  500.39	-1724.50	  384.33
    127.0700	  601.00	  501.16	-1724.50	  385.09
    127.1700	  581.00	  501.94	-1724.50	  385.88
    127.2700	  614.00	  502.73	-1724.50	  386.67
    127.3700	  618.00	  503.53	-1724.50	  387.47
    127.4700	  631.00	  504.34	-1724.50	  388.28
    127.5700	  612.00	  505.17	-1724.50	  389.10
    127.6700	  668.00	  506.00	-1724.50	  389.93
    127.7700	  645.00	  506.84	-1724.50	  390.78
    127.8700	  692.00	  507.70	-1724.50	  391.63
    127.9700	  663.00	  508.56	-1724.50	  392.50
    128.0700	  678.00	  509.44	-1724.50	  393.38
    128.1700	  725.00	  510.33	-1724.50	  394.26
    128.2700	  801.00	  511.23	-1724.50	  395.16
    128.3700	  800.00	  512.14	-1724.50	  396.07
    128.4700	  730.00	  513.06	-1724.50	  397.00
    128.5700	    0.00	  513.99	-1724.50	  397.93
    128.6700	    0.00	  514.94	-1724.50	  398.87
     12.3123	        	        	        	        	       0	(  0  0  2)	  0  1
     24.9051	        	        	        	        	       0	(  0  0  4)	  0  1
     28.3545	        	        	        	        	       0	(  1  0  0)	  0  1
     29.0522	        	        	        	        	       0	(  1  0  1)	  0  1
     31.0597	        	        	        	        	       0	(  1  0  2)	  0  1
     34.1702	        	        	        	        	       0	(  1  0  3)	  0  1
     37.8146	        	        	        	        	       0	(  0  0  6)	  0  1
     38.1501	        	        	        	        	       0	(  1  0  4)	  0  1
     42.8037	        	        	        	        	       0	(  1  0  5)	  0  1
     47.9919	        	        	        	        	       0	(  1  0  6)	  0  1
     50.3141	        	        	        	        	       0	(  1  1  0)	  0  1
     51.2476	        	        	        	        	       0	(  0  0  8)	  0  1
     52.0384	        	        	        	        	       0	(  1  1  2)	  0  1
     53.6271	        	        	        	        	       0	(  1  0  7)	  0  1
     56.9904	        	        	        	        	       0	(  1  1  4)	  0  1
     58.8209	        	        	        	        	       0	(  2  0  0)	  0  1
     59.2128	        	        	        	        	       0	(  2  0  1)	  0  1
     59.6629	        	        	        	        	       0	(  1  0  8)	  0  1
     60.3792	        	        	        	        	       0	(  2  0  2)	  0  1
     62.2941	        	        	        	        	       0	(  2  0  3)	  0  1
     64.6920	        	        	        	        	       0	(  1  1  6)	  0  1
     64.9206	        	        	        	        	       0	(  2  0  4)	  0  1
     65.4900	        	        	        	        	       0	(  0  0 10)	  0  1
     66.0854	        	        	        	        	       0	(  1  0  9)	  0  1
     68.2180	        	        	        	        	       0	(  2  0  5)	  0  1
     72.1495	        	        	        	        	       0	(  2  0  6)	  0  1
     72.9086	        	        	        	        	       0	(  1  0 10)	  0  1
     74.7400	        	        	        	        	       0	(  1  1  8)	  0  1
     76.6886	        	        	        	        	       0	(  2  0  7)	  0  1
     80.1746	        	        	        	        	       0	(  1  0 11)	  0  1
     80.9875	        	        	        	        	       0	(  0  0 12)	  0  1
     81.0925	        	        	        	        	       0	(  2  1  0)	  0  1
     81.4328	        	        	        	        	       0	(  2  1  1)	  0  1
     81.8250	        	        	        	        	       0	(  2  0  8)	  0  1
     82.4519	        	        	        	        	       0	(  2  1  2)	  0  1
     84.1454	        	        	        	        	       0	(  2  1  3)	  0  1
     86.5082	        	        	        	        	       0	(  2  1  4)	  0  1
     87.0264	        	        	        	        	       0	(  1  1 10)	  0  1
     87.5705	        	        	        	        	       0	(  2  0  9)	  0  1
     87.9589	        	        	        	        	       0	(  1  0 12)	  0  1
     89.5382	        	        	        	        	       0	(  2  1  5)	  0  1
     93.2411	        	        	        	        	       0	(  2  1  6)	  0  1
     93.9672	        	        	        	        	       0	(  2  0 10)	  0  1
     95.0061	        	        	        	        	       0	(  3  0  0)	  0  1
     95.3439	        	        	        	        	       0	(  3  0  1)	  0  1
     96.3589	        	        	        	        	       0	(  3  0  2)	  0  1
     96.3846	        	        	        	        	       0	(  1  0 13)	  0  1
     97.6369	        	        	        	        	       0	(  2  1  7)	  0  1
     98.0551	        	        	        	        	       0	(  3  0  3)	  0  1
     98.5519	        	        	        	        	       0	(  0  0 14)	  0  1
    100.4423	        	        	        	        	       0	(  3  0  4)	  0  1
    101.1011	        	        	        	        	       0	(  2  0 11)	  0  1
    101.9202	        	        	        	        	       0	(  1  1 12)	  0  1
    102.7686	        	        	        	        	       0	(  2  1  8)	  0  1
    103.5399	        	        	        	        	       0	(  3  0  5)	  0  1
    105.6538	        	        	        	        	       0	(  1  0 14)	  0  1
    107.3830	        	        	        	        	       0	(  3  0  6)	  0  1
    108.7178	        	        	        	        	       0	(  2  1  9)	  0  1
    109.1283	        	        	        	        	       0	(  2  0 12)	  0  1
    112.0341	        	        	        	        	       0	(  3  0  7)	  0  1
    115.6316	        	        	        	        	       0	(  2  1 10)	  0  1
    116.1209	        	        	        	        	       0	(  1  0 15)	  0  1
    116.7870	        	        	        	        	       0	(  2  2  0)	  0  1
    117.6026	        	        	        	        	       0	(  3  0  8)	  0  1
    118.3067	        	        	        	        	       0	(  2  2  2)	  0  1
    118.3359	        	        	        	        	       0	(  2  0 13)	  0  1
    120.0875	        	        	        	        	       0	(  0  0 16)	  0  1
    120.8091	        	        	        	        	       0	(  1  1 14)	  0  1
    123.0079	        	        	        	        	       0	(  2  2  4)	  0  1
    123.7838	        	        	        	        	       0	(  2  1 11)	  0  1
    124.2844	        	        	        	        	       0	(  3  0  9)	  0  1
    124.8828	        	        	        	        	       0	(  3  1  0)	  0  1
    125.2946	        	        	        	        	       0	(  3  1  1)	  0  1
    126.5431	        	        	        	        	       0	(  3  1  2)	  0  1
    128.5040	        	        	        	        	       0	(  1  0 16)	  0  1
    128.6704	        	        	        	        	       0	(  3  1  3)	  0  1
    129.3038	        	        	        	        	       0	(  2  0 14)	  0  1
    131.4834	        	        	        	        	       0	(  2  2  6)	  0  1
    131.7610	        	        	        	        	       0	(  3  1  4)	  0  1
    132.4600	        	        	        	        	       0	(  3  0 10)	  0  1
    133.7387	        	        	        	        	       0	(  2  1 12)	  0  1
    135.9712	        	        	        	        	       0	(  3  1  5)	  0  1
    141.6056	        	        	        	        	       0	(  3  1  6)	  0  1
    143.0064	        	        	        	        	       0	(  3  0 11)	  0  1
    143.5269	        	        	        	        	       0	(  2  0 15)	  0  1
    144.7679	        	        	        	        	       0	(  1  0 17)	  0  1
    145.8176	        	        	        	        	       0	(  2  2  8)	  0  1
    146.9906	        	        	        	        	       0	(  2  1 13)	  0  1
    149.3556	        	        	        	        	       0	(  3  1  7)	  0  1
    149.9203	        	        	        	        	       0	(  1  1 16)	  0  1
    154.3719	        	        	        	        	       0	(  0  0 18)	  0  1
    159.1191	        	        	        	        	       0	(  3  0 12)	  0  1
    159.4140	        	        	        	        	       0	(  4  0  0)	  0  1
    160.3995	        	        	        	        	       0	(  4  0  1)	  0  1
    161.5995	        	        	        	        	       0	(  3  1  8)	  0  1
    163.6982	        	        	        	        	       0	(  4  0  2)	  0  1
    170.8111	        	        	        	        	       0	(  2  0 16)	  0  1
    171.6768	        	        	        	        	       0	(  4  0  3)	  0  1
    176.5993	        	        	        	        	       0	(  2  1 14)	  0  1
