MSG Master    CELL:    5.91943   5.91943  23.27626   90.0000   90.0000  120.0000   SPGR: P 63/m m c             TEMP:   1074.85
  1   1280     2.52000     0.00000    -0.12654     0.00000     0.00000    0
    99     0     2
       0.00000      10.00000
     125.00000     130.00000
 2Theta	Yobs	Ycal	Yobs-Ycal	Backg	Posr	(hkl)	K
      0.7700	    0.00	  543.87	-1724.25	  424.10
      0.8700	    0.00	  544.60	-1724.25	  424.83
      0.9700	   39.00	  545.32	-1724.25	  425.55
      1.0700	   39.00	  546.03	-1724.25	  426.26
      1.1700	   61.00	  546.72	-1724.25	  426.96
      1.2700	   30.00	  547.41	-1724.25	  427.64
      1.3700	   46.00	  548.09	-1724.25	  428.32
      1.4700	   92.00	  548.75	-1724.25	  428.99
      1.5700	  287.00	  549.41	-1724.25	  429.64
      1.6700	  446.00	  550.05	-1724.25	  430.28
      1.7700	  585.00	  550.69	-1724.25	  430.92
      1.8700	  629.00	  551.31	-1724.25	  431.54
      1.9700	  682.00	  551.92	-1724.25	  432.15
      2.0700	  779.00	  552.52	-1724.25	  432.76
      2.1700	  769.00	  553.12	-1724.25	  433.35
      2.2700	  731.00	  553.70	-1724.25	  433.93
      2.3700	  745.00	  554.27	-1724.25	  434.50
      2.4700	  732.00	  554.83	-1724.25	  435.07
      2.5700	  698.00	  555.39	-1724.25	  435.62
      2.6700	  713.00	  555.93	-1724.25	  436.16
      2.7700	  645.00	  556.46	-1724.25	  436.70
      2.8700	  656.00	  556.99	-1724.25	  437.22
      2.9700	  611.00	  557.50	-1724.25	  437.73
      3.0700	  625.00	  558.00	-1724.25	  438.24
      3.1700	  561.00	  558.50	-1724.25	  438.73
      3.2700	  609.00	  558.99	-1724.25	  439.22
      3.3700	  690.00	  559.46	-1724.25	  439.69
      3.4700	  732.00	  559.93	-1724.25	  440.16
      3.5700	  817.00	  560.39	-1724.25	  440.62
      3.6700	  910.00	  560.83	-1724.25	  441.07
      3.7700	  905.00	  561.27	-1724.25	  441.51
      3.8700	  991.00	  561.70	-1724.25	  441.94
      3.9700	 1032.00	  562.13	-1724.25	  442.36
      4.0700	 1058.00	  562.54	-1724.25	  442.77
      4.1700	 1124.00	  562.94	-1724.25	  443.18
      4.2700	 1096.00	  563.34	-1724.25	  443.57
      4.3700	 1060.00	  563.73	-1724.25	  443.96
      4.4700	 1066.00	  564.10	-1724.25	  444.34
      4.5700	 1002.00	  564.47	-1724.25	  444.71
      4.6700	 1050.00	  564.83	-1724.25	  445.07
      4.7700	  992.00	  565.19	-1724.25	  445.42
      4.8700	  990.00	  565.53	-1724.25	  445.76
      4.9700	  962.00	  565.87	-1724.25	  446.10
      5.0700	  965.00	  566.20	-1724.25	  446.43
      5.1700	  889.00	  566.51	-1724.25	  446.75
      5.2700	  885.00	  566.83	-1724.25	  447.06
      5.3700	  850.00	  567.13	-1724.25	  447.36
      5.4700	  892.00	  567.43	-1724.25	  447.66
      5.5700	  866.00	  567.71	-1724.25	  447.95
      5.6700	  872.00	  567.99	-1724.25	  448.23
      5.7700	  811.00	  568.27	-1724.25	  448.50
      5.8700	  802.00	  568.53	-1724.25	  448.76
      5.9700	  791.00	  568.79	-1724.25	  449.02
      6.0700	  768.00	  569.04	-1724.25	  449.27
      6.1700	  822.00	  569.28	-1724.25	  449.51
      6.2700	  752.00	  569.51	-1724.25	  449.75
      6.3700	  767.00	  569.74	-1724.25	  449.97
      6.4700	  764.00	  569.96	-1724.25	  450.19
      6.5700	  786.00	  570.17	-1724.25	  450.41
      6.6700	  689.00	  570.38	-1724.25	  450.61
      6.7700	  734.00	  570.58	-1724.25	  450.81
      6.8700	  739.00	  570.77	-1724.25	  451.00
      6.9700	  680.00	  570.95	-1724.25	  451.19
      7.0700	  689.00	  571.13	-1724.25	  451.36
      7.1700	  709.00	  571.30	-1724.25	  451.53
      7.2700	  648.00	  571.46	-1724.25	  451.70
      7.3700	  692.00	  571.62	-1724.25	  451.85
      7.4700	  660.00	  571.77	-1724.25	  452.00
      7.5700	  626.00	  571.91	-1724.25	  452.15
      7.6700	  627.00	  572.05	-1724.25	  452.28
      7.7700	  662.00	  572.18	-1724.25	  452.41
      7.8700	  648.00	  572.31	-1724.25	  452.54
      7.9700	  599.00	  572.42	-1724.25	  452.66
      8.0700	  651.00	  572.53	-1724.25	  452.77
      8.1700	  631.00	  572.64	-1724.25	  452.87
      8.2700	  665.00	  572.74	-1724.25	  452.97
      8.3700	  646.00	  572.83	-1724.25	  453.06
      8.4700	  615.00	  572.91	-1724.25	  453.15
      8.5700	  601.00	  572.99	-1724.25	  453.23
      8.6700	  614.00	  573.07	-1724.25	  453.30
      8.7700	  612.00	  573.14	-1724.25	  453.37
      8.8700	  648.00	  573.20	-1724.25	  453.43
      8.9700	  579.00	  573.25	-1724.25	  453.49
      9.0700	  611.00	  573.30	-1724.25	  453.54
      9.1700	  609.00	  573.35	-1724.25	  453.58
      9.2700	  600.00	  573.39	-1724.25	  453.62
      9.3700	  598.00	  573.42	-1724.25	  453.65
      9.4700	  610.00	  573.45	-1724.25	  453.68
      9.5700	  709.00	  573.47	-1724.25	  453.70
      9.6700	  613.00	  573.49	-1724.25	  453.72
      9.7700	  554.00	  573.50	-1724.25	  453.73
      9.8700	  603.00	  573.50	-1724.25	  453.74
      9.9700	  605.00	  573.50	-1724.25	  453.74
     10.0700	  615.00	  574.33	-1683.58	  453.73
     10.1700	  594.00	  574.41	-1704.66	  453.72
     10.2700	  603.00	  574.51	-1695.76	  453.71
     10.3700	  607.00	  574.63	-1691.88	  453.68
     10.4700	  572.00	  574.82	-1727.06	  453.66
     10.5700	  562.00	  575.11	-1737.36	  453.63
     10.6700	  623.00	  575.62	-1676.87	  453.59
     10.7700	  526.00	  576.44	-1774.69	  453.55
     10.8700	  599.00	  577.65	-1702.90	  453.51
     10.9700	  570.00	  579.23	-1733.48	  453.46
     11.0700	  585.00	  581.16	-1720.41	  453.40
     11.1700	  605.00	  583.43	-1702.68	  453.34
     11.2700	  612.00	  586.08	-1698.33	  453.28
     11.3700	  616.00	  589.18	-1697.43	  453.21
     11.4700	  548.00	  592.88	-1769.13	  453.13
     11.5700	  597.00	  597.37	-1724.62	  453.06
     11.6700	  596.00	  603.01	-1731.26	  452.97
     11.7700	  608.00	  610.40	-1726.65	  452.89
     11.8700	  626.00	  620.43	-1718.68	  452.79
     11.9700	  669.00	  633.62	-1688.87	  452.70
     12.0700	  674.00	  648.25	-1698.50	  452.60
     12.1700	  678.00	  658.25	-1704.50	  452.49
     12.2700	  666.00	  654.35	-1712.60	  452.39
     12.3700	  665.00	  634.18	-1693.43	  452.27
     12.4700	  627.00	  609.94	-1707.19	  452.16
     12.5700	  568.00	  592.19	-1748.44	  452.04
     12.6700	  542.00	  582.41	-1764.66	  451.91
     12.7700	  522.00	  577.88	-1780.13	  451.78
     12.8700	  570.00	  575.79	-1730.04	  451.65
     12.9700	  569.00	  574.62	-1729.88	  451.51
     13.0700	  567.00	  573.83	-1731.08	  451.37
     13.1700	  556.00	  573.22	-1741.47	  451.23
     13.2700	  567.00	  572.73	-1729.98	  451.08
     13.3700	  584.00	  572.31	-1712.56	  450.93
     13.4700	  591.00	  571.94	-1705.19	  450.77
     13.5700	  600.00	  571.62	-1695.87	  450.61
     13.6700	  535.00	  571.32	-1760.57	  450.45
     13.7700	  563.00	  571.04	-1732.29	  450.29
     13.8700	  562.00	  570.78	-1733.03	  450.12
     13.9700	  597.00	  570.53	-1697.78	  449.94
     14.0700	  590.00	  570.29	-1704.54	  449.77
     14.1700	  617.00	  570.05	-1677.30	  449.59
     14.2700	  568.00	  569.82	-1726.07	  449.41
     14.3700	  583.00	  569.59	-1710.84	  449.22
     14.4700	  570.00	  569.36	-1723.61	  449.03
     14.5700	  524.00	  569.14	-1769.39	  448.84
     14.6700	  548.00	  568.91	-1745.16	  448.64
     14.7700	  532.00	  568.69	-1760.94	  448.44
     14.8700	  517.00	  568.46	-1775.71	  448.24
     14.9700	  594.00	  568.24	-1698.49	  448.04
     15.0700	  587.00	  568.01	-1705.26	  447.83
     15.1700	  560.00	  567.78	-1732.03	  447.62
     15.2700	  560.00	  567.55	-1731.80	  447.40
     15.3700	  560.00	  567.32	-1731.57	  447.19
     15.4700	  543.00	  567.09	-1748.34	  446.97
     15.5700	  552.00	  566.86	-1739.11	  446.75
     15.6700	  555.00	  566.62	-1735.87	  446.52
     15.7700	  569.00	  566.39	-1721.64	  446.30
     15.8700	  548.00	  566.15	-1742.40	  446.07
     15.9700	  571.00	  565.91	-1719.16	  445.83
     16.0700	  570.00	  565.69	-1719.94	  445.60
     16.1700	  594.00	  565.45	-1695.70	  445.36
     16.2700	  539.00	  565.20	-1750.45	  445.12
     16.3700	  562.00	  564.95	-1727.20	  444.88
     16.4700	  563.00	  564.70	-1725.95	  444.63
     16.5700	  559.00	  564.45	-1729.70	  444.39
     16.6700	  507.00	  564.20	-1781.45	  444.14
     16.7700	  529.00	  563.94	-1759.19	  443.88
     16.8700	  588.00	  563.68	-1699.93	  443.63
     16.9700	  594.00	  563.42	-1693.67	  443.37
     17.0700	  604.00	  563.16	-1683.41	  443.12
     17.1700	  592.00	  562.90	-1695.15	  442.85
     17.2700	  584.00	  562.63	-1702.88	  442.59
     17.3700	  574.00	  562.37	-1712.62	  442.33
     17.4700	  554.00	  562.10	-1732.35	  442.06
     17.5700	  583.00	  561.83	-1703.08	  441.79
     17.6700	  553.00	  561.55	-1732.80	  441.52
     17.7700	  539.00	  561.28	-1746.53	  441.25
     17.8700	  559.00	  561.00	-1726.25	  440.97
     17.9700	  536.00	  560.73	-1748.98	  440.70
     18.0700	  576.00	  560.55	-1708.80	  440.42
     18.1700	  562.00	  560.28	-1722.53	  440.14
     18.2700	  557.00	  560.00	-1727.25	  439.86
     18.3700	  563.00	  559.71	-1720.96	  439.57
     18.4700	  597.00	  559.43	-1686.68	  439.29
     18.5700	  554.00	  559.15	-1729.40	  439.00
     18.6700	  527.00	  558.86	-1756.11	  438.71
     18.7700	  545.00	  558.57	-1737.82	  438.42
     18.8700	  577.00	  558.28	-1705.53	  438.13
     18.9700	  536.00	  558.07	-1746.32	  437.84
     19.0700	  544.00	  557.78	-1738.03	  437.54
     19.1700	  493.00	  557.49	-1788.74	  437.24
     19.2700	  564.00	  557.20	-1717.45	  436.95
     19.3700	  544.00	  556.91	-1737.16	  436.65
     19.4700	  517.00	  556.61	-1763.86	  436.35
     19.5700	  547.00	  556.32	-1733.57	  436.05
     19.6700	  572.00	  556.02	-1708.27	  435.74
     19.7700	  561.00	  555.73	-1718.98	  435.44
     19.8700	  569.00	  555.43	-1710.68	  435.13
     19.9700	  508.00	  555.13	-1771.38	  434.83
     20.0700	  588.00	  554.83	-1691.08	  434.52
     20.1700	  536.00	  554.53	-1742.78	  434.21
     20.2700	  573.00	  554.23	-1705.48	  433.90
     20.3700	  571.00	  553.93	-1707.18	  433.59
     20.4700	  516.00	  553.63	-1761.88	  433.28
     20.5700	  545.00	  553.33	-1732.58	  432.96
     20.6700	  549.00	  553.03	-1728.28	  432.65
     20.7700	  538.00	  552.69	-1738.94	  432.33
     20.8700	  547.00	  552.43	-1729.68	  432.02
     20.9700	  527.00	  552.13	-1749.38	  431.70
     21.0700	  556.00	  551.83	-1720.08	  431.38
     21.1700	  514.00	  551.53	-1761.78	  431.07
     21.2700	  550.00	  551.22	-1725.47	  430.75
     21.3700	  564.00	  550.93	-1711.18	  430.43
     21.4700	  507.00	  550.63	-1767.88	  430.10
     21.5700	  593.00	  550.33	-1681.58	  429.78
     21.6700	  509.00	  550.03	-1765.28	  429.46
     21.7700	  577.00	  549.73	-1696.98	  429.14
     21.8700	  514.00	  549.44	-1759.69	  428.81
     21.9700	  580.00	  549.15	-1693.40	  428.49
     22.0700	  506.00	  548.85	-1767.10	  428.17
     22.1700	  548.00	  548.57	-1724.82	  427.84
     22.2700	  518.00	  548.28	-1754.53	  427.51
     22.3700	  498.00	  548.00	-1774.25	  427.19
     22.4700	  536.00	  547.72	-1735.97	  426.86
     22.5700	  538.00	  547.44	-1733.69	  426.53
     22.6700	  572.00	  547.17	-1699.42	  426.21
     22.7700	  515.00	  546.91	-1756.16	  425.88
     22.8700	  602.00	  546.66	-1668.91	  425.55
     22.9700	  513.00	  546.41	-1757.66	  425.22
     23.0700	  583.00	  546.18	-1687.43	  424.89
     23.1700	  541.00	  545.96	-1729.21	  424.56
     23.2700	  539.00	  545.77	-1731.02	  424.23
     23.3700	  499.00	  545.60	-1770.84	  423.90
     23.4700	  544.00	  545.46	-1725.71	  423.57
     23.5700	  575.00	  545.36	-1694.61	  423.24
     23.6700	  530.00	  545.47	-1739.72	  422.91
     23.7700	  554.00	  545.56	-1715.81	  422.58
     23.8700	  572.00	  545.85	-1698.10	  422.25
     23.9700	  543.00	  546.56	-1727.81	  421.92
     24.0700	  553.00	  548.08	-1719.33	  421.59
     24.1700	  587.00	  551.02	-1688.27	  421.26
     24.2700	  575.00	  556.12	-1705.37	  420.93
     24.3700	  623.00	  564.24	-1665.49	  420.60
     24.4700	  544.00	  576.23	-1756.48	  420.26
     24.5700	  586.00	  592.15	-1730.40	  419.93
     24.6700	  605.00	  609.29	-1728.54	  419.60
     24.7700	  615.00	  620.61	-1729.86	  419.27
     24.8700	  619.00	  617.08	-1722.33	  418.94
     24.9700	  628.00	  598.22	-1694.47	  418.61
     25.0700	  546.00	  575.94	-1754.19	  418.28
     25.1700	  568.00	  559.31	-1715.56	  417.95
     25.2700	  525.00	  549.84	-1749.08	  417.62
     25.3700	  556.00	  545.28	-1713.53	  417.29
     25.4700	  562.00	  543.15	-1705.40	  416.96
     25.5700	  523.00	  542.00	-1743.25	  416.63
     25.6700	  569.00	  541.24	-1696.49	  416.30
     25.7700	  549.00	  540.69	-1715.94	  415.97
     25.8700	  541.00	  540.27	-1723.52	  415.65
     25.9700	  547.00	  539.95	-1717.20	  415.32
     26.0700	  583.00	  539.72	-1680.97	  414.99
     26.1700	  538.00	  539.56	-1725.81	  414.66
     26.2700	  552.00	  539.47	-1711.72	  414.34
     26.3700	  510.00	  539.47	-1753.72	  414.01
     26.4700	  573.00	  539.55	-1690.80	  413.68
     26.5700	  562.00	  539.72	-1701.97	  413.36
     26.6700	  587.00	  540.01	-1677.26	  413.03
     26.7700	  555.00	  540.44	-1709.69	  412.71
     26.8700	  540.00	  541.05	-1725.30	  412.39
     26.9700	  563.00	  541.88	-1703.13	  412.06
     27.0700	  528.00	  543.02	-1739.27	  411.74
     27.1700	  553.00	  544.62	-1715.87	  411.42
     27.2700	  549.00	  546.92	-1722.17	  411.10
     27.3700	  576.00	  550.46	-1698.71	  410.77
     27.4700	  558.00	  556.28	-1722.53	  410.45
     27.5700	  567.00	  566.26	-1723.51	  410.13
     27.6700	  546.00	  583.38	-1761.63	  409.82
     27.7700	  555.00	  611.48	-1780.73	  409.50
     27.8700	  602.00	  653.93	-1776.18	  409.18
     27.9700	  698.00	  710.88	-1737.13	  408.86
     28.0700	  782.00	  775.66	-1717.91	  408.55
     28.1700	  888.00	  831.58	-1667.83	  408.23
     28.2700	  978.00	  853.65	-1599.90	  407.92
     28.3700	  902.00	  827.41	-1649.66	  407.60
     28.4700	  774.00	  776.36	-1726.61	  407.29
     28.5700	  709.00	  738.34	-1753.59	  406.98
     28.6700	  713.00	  730.35	-1741.60	  406.67
     28.7700	  801.00	  747.81	-1671.06	  406.36
     28.8700	  773.00	  771.25	-1722.50	  406.05
     28.9700	  734.00	  773.90	-1764.15	  405.74
     29.0700	  747.00	  739.18	-1716.43	  405.43
     29.1700	  692.00	  681.62	-1713.87	  405.12
     29.2700	  601.00	  627.23	-1750.48	  404.82
     29.3700	  601.00	  588.21	-1711.46	  404.51
     29.4700	  612.00	  564.73	-1676.98	  404.21
     29.5700	  624.00	  552.06	-1652.31	  403.91
     29.6700	  616.00	  545.36	-1653.61	  403.60
     29.7700	  560.00	  541.54	-1705.79	  403.30
     29.8700	  608.00	  539.15	-1655.40	  403.00
     29.9700	  568.00	  537.63	-1693.88	  402.71
     30.0700	  581.00	  536.88	-1680.13	  402.41
     30.1700	  579.00	  537.05	-1682.30	  402.11
     30.2700	  584.00	  538.68	-1678.93	  401.81
     30.3700	  515.00	  542.79	-1752.04	  401.52
     30.4700	  578.00	  550.93	-1697.18	  401.23
     30.5700	  528.00	  564.70	-1760.95	  400.93
     30.6700	  634.00	  584.50	-1674.75	  400.64
     30.7700	  565.00	  607.80	-1767.05	  400.35
     30.8700	  631.00	  627.91	-1721.16	  400.07
     30.9700	  620.00	  634.71	-1738.96	  399.78
     31.0700	  607.00	  621.47	-1738.72	  399.49
     31.1700	  613.00	  595.21	-1706.46	  399.21
     31.2700	  558.00	  569.06	-1735.31	  398.92
     31.3700	  537.00	  549.83	-1737.08	  398.64
     31.4700	  555.00	  538.16	-1707.41	  398.36
     31.5700	  550.00	  531.92	-1706.17	  398.08
     31.6700	  518.00	  528.71	-1734.96	  397.80
     31.7700	  568.00	  526.94	-1683.19	  397.52
     31.8700	  525.00	  525.82	-1725.07	  397.24
     31.9700	  570.00	  525.04	-1679.29	  396.97
     32.0700	  562.00	  524.50	-1686.75	  396.70
     32.1700	  563.00	  524.14	-1685.39	  396.42
     32.2700	  536.00	  523.93	-1712.18	  396.15
     32.3700	  563.00	  523.87	-1685.12	  395.88
     32.4700	  556.00	  523.98	-1692.23	  395.61
     32.5700	  523.00	  524.25	-1725.50	  395.35
     32.6700	  532.00	  524.73	-1716.98	  395.08
     32.7700	  524.00	  525.45	-1725.70	  394.82
     32.8700	  553.00	  526.50	-1697.75	  394.55
     32.9700	  575.00	  527.99	-1677.24	  394.29
     33.0700	  559.00	  530.14	-1695.39	  394.03
     33.1700	  575.00	  533.45	-1682.70	  393.77
     33.2700	  508.00	  539.00	-1755.25	  393.52
     33.3700	  552.00	  549.15	-1721.40	  393.26
     33.4700	  541.00	  568.41	-1751.66	  393.01
     33.5700	  617.00	  603.83	-1711.08	  392.75
     33.6700	  626.00	  663.39	-1761.64	  392.50
     33.7700	  705.00	  750.39	-1769.64	  392.25
     33.8700	  876.00	  855.02	-1703.27	  392.00
     33.9700	 1069.00	  948.99	-1604.24	  391.76
     34.0700	 1029.00	  989.26	-1684.51	  391.51
     34.1700	  967.00	  944.98	-1702.23	  391.27
     34.2700	  903.00	  839.28	-1660.53	  391.03
     34.3700	  744.00	  726.35	-1706.60	  390.79
     34.4700	  611.00	  639.07	-1752.32	  390.55
     34.5700	  597.00	  584.11	-1711.36	  390.31
     34.6700	  561.00	  554.24	-1717.49	  390.07
     34.7700	  554.00	  539.16	-1709.41	  389.84
     34.8700	  530.00	  531.27	-1725.52	  389.61
     34.9700	  564.00	  526.54	-1686.79	  389.37
     35.0700	  548.00	  523.28	-1699.53	  389.14
     35.1700	  503.00	  520.84	-1742.09	  388.92
     35.2700	  524.00	  518.90	-1719.15	  388.69
     35.3700	  514.00	  517.32	-1727.57	  388.47
     35.4700	  556.00	  516.01	-1684.26	  388.24
     35.5700	  517.00	  514.91	-1722.16	  388.02
     35.6700	  544.00	  513.96	-1694.21	  387.80
     35.7700	  490.00	  513.14	-1747.39	  387.58
     35.8700	  567.00	  512.41	-1669.67	  387.37
     35.9700	  491.00	  511.77	-1745.02	  387.15
     36.0700	  543.00	  511.66	-1692.91	  386.94
     36.1700	  530.00	  511.15	-1705.40	  386.73
     36.2700	  517.00	  510.69	-1717.94	  386.52
     36.3700	  516.00	  510.28	-1718.53	  386.31
     36.4700	  432.00	  509.90	-1802.15	  386.10
     36.5700	  501.00	  509.57	-1732.82	  385.90
     36.6700	  472.00	  509.27	-1761.52	  385.69
     36.7700	  513.00	  509.02	-1720.27	  385.49
     36.8700	  457.00	  508.84	-1776.09	  385.29
     36.9700	  487.00	  508.79	-1746.04	  385.09
     37.0700	  534.00	  508.98	-1699.23	  384.90
     37.1700	  546.00	  509.63	-1687.88	  384.70
     37.2700	  520.00	  511.07	-1715.32	  384.51
     37.3700	  516.00	  513.59	-1721.84	  384.32
     37.4700	  511.00	  517.16	-1730.41	  384.13
     37.5700	  526.00	  521.14	-1719.39	  383.94
     37.6700	  544.00	  524.27	-1704.52	  383.75
     37.7700	  576.00	  525.13	-1673.38	  383.57
     37.8700	  533.00	  523.45	-1714.70	  383.39
     37.9700	  485.00	  520.40	-1759.65	  383.21
     38.0700	  500.00	  516.99	-1741.24	  383.03
     38.1700	  514.00	  513.60	-1723.85	  382.85
     38.2700	  481.00	  510.59	-1753.84	  382.67
     38.3700	  504.00	  508.26	-1728.51	  382.50
     38.4700	  531.00	  506.63	-1699.88	  382.33
     38.5700	  533.00	  505.57	-1696.82	  382.16
     38.6700	  498.00	  504.80	-1731.05	  381.99
     38.7700	  539.00	  504.36	-1689.61	  381.82
     38.8700	  503.00	  504.04	-1725.29	  381.66
     38.9700	  531.00	  503.78	-1697.03	  381.49
     39.0700	  507.00	  503.55	-1720.80	  381.33
     39.1700	  512.00	  503.27	-1715.52	  381.17
     39.2700	  514.00	  503.08	-1713.33	  381.02
     39.3700	  500.00	  502.91	-1727.16	  380.86
     39.4700	  497.00	  502.88	-1730.13	  380.71
     39.5700	  475.00	  502.73	-1751.98	  380.55
     39.6700	  514.00	  502.59	-1712.84	  380.40
     39.7700	  517.00	  502.46	-1709.71	  380.25
     39.8700	  527.00	  502.34	-1699.59	  380.11
     39.9700	  524.00	  502.23	-1702.48	  379.96
     40.0700	  443.00	  502.13	-1783.39	  379.82
     40.1700	  464.00	  502.05	-1762.30	  379.68
     40.2700	  483.00	  501.97	-1743.22	  379.54
     40.3700	  504.00	  501.90	-1722.15	  379.40
     40.4700	  498.00	  501.85	-1728.10	  379.26
     40.5700	  514.00	  501.81	-1712.06	  379.13
     40.6700	  476.00	  501.79	-1750.04	  379.00
     40.7700	  481.00	  501.78	-1745.03	  378.87
     40.8700	  519.00	  501.80	-1707.05	  378.74
     40.9700	  447.00	  501.85	-1779.10	  378.61
     41.0700	  507.00	  501.93	-1719.18	  378.49
     41.1700	  461.00	  502.05	-1765.30	  378.36
     41.2700	  499.00	  502.19	-1727.44	  378.24
     41.3700	  465.00	  502.42	-1761.67	  378.12
     41.4700	  493.00	  502.74	-1733.99	  378.01
     41.5700	  492.00	  503.60	-1735.85	  377.89
     41.6700	  490.00	  504.22	-1738.47	  377.78
     41.7700	  485.00	  505.15	-1744.40	  377.66
     41.8700	  553.00	  506.72	-1677.97	  377.55
     41.9700	  457.00	  509.60	-1776.85	  377.44
     42.0700	  518.00	  515.14	-1721.39	  377.34
     42.1700	  534.00	  525.40	-1715.65	  377.23
     42.2700	  519.00	  542.69	-1747.94	  377.13
     42.3700	  547.00	  568.29	-1745.54	  377.03
     42.4700	  600.00	  599.99	-1724.24	  376.93
     42.5700	  596.00	  630.82	-1759.07	  376.83
     42.6700	  589.00	  649.51	-1784.76	  376.73
     42.7700	  553.00	  646.24	-1817.49	  376.64
     42.8700	  532.00	  621.97	-1814.22	  376.55
     42.9700	  553.00	  588.75	-1760.00	  376.46
     43.0700	  562.00	  557.86	-1720.11	  376.37
     43.1700	  519.00	  534.78	-1740.03	  376.28
     43.2700	  544.00	  520.11	-1700.36	  376.20
     43.3700	  492.00	  511.90	-1744.15	  376.11
     43.4700	  540.00	  507.63	-1691.88	  376.03
     43.5700	  501.00	  505.41	-1728.66	  375.95
     43.6700	  498.00	  504.13	-1730.38	  375.88
     43.7700	  523.00	  503.49	-1704.74	  375.80
     43.8700	  500.00	  502.90	-1727.15	  375.73
     43.9700	  515.00	  502.49	-1711.74	  375.65
     44.0700	  496.00	  502.15	-1730.40	  375.58
     44.1700	  504.00	  501.88	-1722.13	  375.51
     44.2700	  533.00	  501.68	-1692.93	  375.45
     44.3700	  488.00	  501.53	-1737.78	  375.38
     44.4700	  508.00	  501.42	-1717.67	  375.32
     44.5700	  502.00	  501.35	-1723.60	  375.26
     44.6700	  496.00	  501.18	-1729.43	  375.20
     44.7700	  471.00	  501.16	-1754.41	  375.14
     44.8700	  510.00	  501.18	-1715.43	  375.08
     44.9700	  494.00	  501.21	-1731.46	  375.03
     45.0700	  508.00	  501.27	-1717.52	  374.98
     45.1700	  520.00	  501.35	-1705.60	  374.92
     45.2700	  498.00	  501.64	-1727.89	  374.88
     45.3700	  533.00	  501.76	-1693.01	  374.83
     45.4700	  475.00	  501.91	-1751.16	  374.78
     45.5700	  502.00	  502.09	-1724.34	  374.74
     45.6700	  478.00	  502.28	-1748.53	  374.70
     45.7700	  485.00	  502.51	-1741.76	  374.66
     45.8700	  502.00	  502.76	-1725.01	  374.62
     45.9700	  467.00	  503.05	-1760.30	  374.58
     46.0700	  515.00	  503.37	-1712.62	  374.54
     46.1700	  474.00	  503.73	-1753.98	  374.51
     46.2700	  510.00	  504.13	-1718.38	  374.48
     46.3700	  496.00	  504.59	-1732.84	  374.45
     46.4700	  502.00	  505.10	-1727.35	  374.42
     46.5700	  518.00	  505.70	-1711.95	  374.39
     46.6700	  536.00	  506.38	-1694.63	  374.37
     46.7700	  543.00	  507.18	-1688.43	  374.35
     46.8700	  514.00	  508.18	-1718.43	  374.33
     46.9700	  536.00	  509.49	-1697.74	  374.31
     47.0700	  489.00	  511.43	-1746.68	  374.29
     47.1700	  517.00	  514.61	-1721.86	  374.27
     47.2700	  506.00	  520.00	-1738.25	  374.26
     47.3700	  490.00	  528.77	-1763.02	  374.24
     47.4700	  525.00	  542.09	-1741.34	  374.23
     47.5700	  524.00	  560.03	-1760.28	  374.22
     47.6700	  572.00	  580.68	-1732.93	  374.21
     47.7700	  568.00	  599.57	-1755.82	  374.21
     47.8700	  640.00	  610.48	-1694.73	  374.20
     47.9700	  586.00	  608.79	-1747.04	  374.20
     48.0700	  599.00	  595.98	-1721.23	  374.20
     48.1700	  573.00	  578.35	-1729.60	  374.20
     48.2700	  547.00	  561.86	-1739.11	  374.20
     48.3700	  549.00	  549.68	-1724.93	  374.20
     48.4700	  566.00	  542.71	-1700.96	  374.21
     48.5700	  496.00	  540.30	-1768.55	  374.22
     48.6700	  517.00	  541.27	-1748.52	  374.22
     48.7700	  564.00	  544.65	-1704.90	  374.23
     48.8700	  529.00	  549.94	-1745.19	  374.24
     48.9700	  540.00	  557.17	-1741.42	  374.26
     49.0700	  551.00	  566.99	-1740.24	  374.27
     49.1700	  622.00	  581.04	-1683.29	  374.29
     49.2700	  621.00	  602.77	-1706.02	  374.31
     49.3700	  639.00	  638.80	-1724.05	  374.33
     49.4700	  632.00	  700.68	-1792.93	  374.35
     49.5700	  699.00	  803.94	-1829.19	  374.37
     49.6700	  894.00	  967.33	-1797.58	  374.39
     49.7700	 1154.00	 1204.50	-1774.75	  374.42
     49.8700	 1501.00	 1513.43	-1736.68	  374.45
     49.9700	 1774.00	 1864.31	-1814.56	  374.47
     50.0700	 2297.00	 2190.78	-1618.03	  374.50
     50.1700	 2519.00	 2395.35	-1600.60	  374.54
     50.2700	 2489.00	 2393.00	-1628.25	  374.57
     50.3700	 2233.00	 2182.73	-1673.98	  374.60
     50.4700	 1850.00	 1852.46	-1726.71	  374.64
     50.5700	 1407.00	 1503.48	-1820.73	  374.68
     50.6700	 1043.00	 1201.89	-1883.14	  374.72
     50.7700	  897.00	  975.84	-1803.09	  374.76
     50.8700	  685.00	  825.53	-1864.78	  374.80
     50.9700	  699.00	  735.07	-1760.31	  374.84
     51.0700	  640.00	  683.19	-1767.44	  374.89
     51.1700	  630.00	  651.13	-1745.38	  374.93
     51.2700	  616.00	  626.94	-1735.19	  374.98
     51.3700	  583.00	  605.96	-1747.21	  375.03
     51.4700	  546.00	  587.71	-1765.96	  375.08
     51.5700	  569.00	  572.77	-1728.02	  375.13
     51.6700	  555.00	  561.44	-1730.69	  375.19
     51.7700	  572.00	  553.43	-1705.68	  375.24
     51.8700	  578.00	  548.08	-1694.33	  375.30
     51.9700	  567.00	  544.65	-1701.90	  375.36
     52.0700	  573.00	  542.55	-1693.80	  375.42
     52.1700	  560.00	  541.69	-1705.94	  375.48
     52.2700	  555.00	  541.54	-1710.79	  375.54
     52.3700	  566.00	  542.45	-1700.70	  375.60
     52.4700	  578.00	  544.88	-1691.13	  375.67
     52.5700	  557.00	  549.95	-1717.20	  375.73
     52.6700	  564.00	  559.95	-1720.20	  375.80
     52.7700	  586.00	  578.98	-1717.23	  375.87
     52.8700	  650.00	  613.22	-1687.47	  375.94
     52.9700	  717.00	  670.01	-1677.26	  376.01
     53.0700	  792.00	  755.16	-1687.41	  376.08
     53.1700	  936.00	  868.54	-1656.79	  376.15
     53.2700	 1028.00	  999.51	-1695.76	  376.23
     53.3700	 1136.00	 1124.08	-1712.33	  376.30
     53.4700	 1209.00	 1207.31	-1722.56	  376.38
     53.5700	 1151.00	 1217.25	-1790.50	  376.46
     53.6700	 1088.00	 1149.01	-1785.26	  376.54
     53.7700	 1017.00	 1030.22	-1737.47	  376.62
     53.8700	  896.00	  897.83	-1726.08	  376.70
     53.9700	  748.00	  779.08	-1755.33	  376.79
     54.0700	  686.00	  687.51	-1725.76	  376.87
     54.1700	  624.00	  625.18	-1725.43	  376.96
     54.2700	  540.00	  587.09	-1771.34	  377.05
     54.3700	  608.00	  565.83	-1682.08	  377.13
     54.4700	  596.00	  554.74	-1682.99	  377.22
     54.5700	  586.00	  549.22	-1687.47	  377.31
     54.6700	  508.00	  546.61	-1762.86	  377.41
     54.7700	  602.00	  545.63	-1667.88	  377.50
     54.8700	  590.00	  545.69	-1679.94	  377.59
     54.9700	  556.00	  546.55	-1714.80	  377.69
     55.0700	  603.00	  548.14	-1669.39	  377.78
     55.1700	  583.00	  550.50	-1691.75	  377.88
     55.2700	  514.00	  553.63	-1763.88	  377.98
     55.3700	  578.00	  557.69	-1703.94	  378.08
     55.4700	  570.00	  562.89	-1717.14	  378.18
     55.5700	  563.00	  569.63	-1730.88	  378.28
     55.6700	  570.00	  578.72	-1732.97	  378.38
     55.7700	  590.00	  591.83	-1726.08	  378.49
     55.8700	  562.00	  612.33	-1774.58	  378.59
     55.9700	  637.00	  646.43	-1733.68	  378.70
     56.0700	  699.00	  704.52	-1729.77	  378.81
     56.1700	  783.00	  801.52	-1742.77	  378.91
     56.2700	  914.00	  955.07	-1765.32	  379.02
     56.3700	 1143.00	 1180.23	-1761.48	  379.13
     56.4700	 1400.00	 1480.91	-1805.16	  379.24
     56.5700	 1790.00	 1840.32	-1774.57	  379.36
     56.6700	 2139.00	 2213.42	-1798.67	  379.47
     56.7700	 2450.00	 2525.04	-1799.29	  379.58
     56.8700	 2576.00	 2684.63	-1832.88	  379.70
     56.9700	 2501.00	 2632.66	-1855.91	  379.81
     57.0700	 2388.00	 2389.27	-1725.52	  379.93
     57.1700	 2041.00	 2037.61	-1720.86	  380.05
     57.2700	 1669.00	 1665.53	-1720.78	  380.17
     57.3700	 1326.00	 1334.01	-1732.26	  380.29
     57.4700	 1022.00	 1073.55	-1775.80	  380.41
     57.5700	  886.00	  889.69	-1727.94	  380.53
     57.6700	  752.00	  772.16	-1744.41	  380.65
     57.7700	  710.00	  704.48	-1718.73	  380.77
     57.8700	  672.00	  671.19	-1723.44	  380.89
     57.9700	  669.00	  661.53	-1716.78	  381.02
     58.0700	  669.00	  669.88	-1725.13	  381.14
     58.1700	  710.00	  694.45	-1708.70	  381.27
     58.2700	  729.00	  735.41	-1730.66	  381.40
     58.3700	  853.00	  793.02	-1664.27	  381.52
     58.4700	  916.00	  865.95	-1674.20	  381.65
     58.5700	 1116.00	  949.69	-1557.94	  381.78
     58.6700	 1115.00	 1036.08	-1645.33	  381.91
     58.7700	 1351.00	 1115.67	-1488.92	  382.04
     58.8700	 1426.00	 1181.93	-1480.18	  382.17
     58.9700	 1464.00	 1231.12	-1491.37	  382.31
     59.0700	 1533.00	 1258.18	-1449.43	  382.44
     59.1700	 1501.00	 1258.56	-1481.81	  382.57
     59.2700	 1445.00	 1235.98	-1515.23	  382.71
     59.3700	 1303.00	 1202.55	-1623.80	  382.84
     59.4700	 1310.00	 1170.67	-1584.92	  382.98
     59.5700	 1198.00	 1148.79	-1675.04	  383.11
     59.6700	 1077.00	 1144.49	-1791.74	  383.25
     59.7700	 1230.00	 1166.65	-1660.90	  383.39
     59.8700	 1251.00	 1220.81	-1694.06	  383.53
     59.9700	 1369.00	 1302.85	-1658.10	  383.67
     60.0700	 1446.00	 1396.19	-1674.44	  383.81
     60.1700	 1568.00	 1472.46	-1628.71	  383.95
     60.2700	 1618.00	 1498.92	-1605.17	  384.09
     60.3700	 1489.00	 1455.59	-1690.84	  384.23
     60.4700	 1398.00	 1349.60	-1675.85	  384.37
     60.5700	 1248.00	 1207.97	-1684.22	  384.51
     60.6700	 1070.00	 1059.52	-1713.77	  384.65
     60.7700	  854.00	  925.14	-1795.39	  384.80
     60.8700	  806.00	  816.55	-1734.80	  384.94
     60.9700	  659.00	  737.73	-1802.98	  385.09
     61.0700	  627.00	  687.39	-1784.64	  385.23
     61.1700	  625.00	  662.20	-1761.45	  385.38
     61.2700	  659.00	  659.45	-1724.70	  385.52
     61.3700	  633.00	  678.73	-1769.98	  385.67
     61.4700	  718.00	  722.12	-1728.37	  385.82
     61.5700	  736.00	  792.79	-1781.04	  385.96
     61.6700	  833.00	  892.64	-1783.89	  386.11
     61.7700	  972.00	 1019.26	-1771.51	  386.26
     61.8700	 1115.00	 1163.24	-1772.49	  386.41
     61.9700	 1214.00	 1306.54	-1816.79	  386.56
     62.0700	 1296.00	 1422.47	-1850.72	  386.71
     62.1700	 1383.00	 1481.08	-1822.33	  386.86
     62.2700	 1414.00	 1463.17	-1773.42	  387.01
     62.3700	 1224.00	 1374.20	-1874.45	  387.16
     62.4700	 1189.00	 1240.10	-1775.35	  387.31
     62.5700	 1027.00	 1090.70	-1787.95	  387.46
     62.6700	  875.00	  949.14	-1798.39	  387.61
     62.7700	  754.00	  829.36	-1799.61	  387.76
     62.8700	  715.00	  737.03	-1746.28	  387.91
     62.9700	  605.00	  671.41	-1790.66	  388.07
     63.0700	  609.00	  628.01	-1743.26	  388.22
     63.1700	  547.00	  601.07	-1778.32	  388.37
     63.2700	  584.00	  585.30	-1725.55	  388.52
     63.3700	  572.00	  576.83	-1729.08	  388.68
     63.4700	  603.00	  573.36	-1694.61	  388.83
     63.5700	  578.00	  574.08	-1720.33	  388.98
     63.6700	  580.00	  579.41	-1723.66	  389.14
     63.7700	  627.00	  590.74	-1687.99	  389.29
     63.8700	  627.00	  610.09	-1707.34	  389.45
     63.9700	  692.00	  639.57	-1671.82	  389.60
     64.0700	  726.00	  680.57	-1678.82	  389.76
     64.1700	  768.00	  732.82	-1689.07	  389.91
     64.2700	  833.00	  793.49	-1684.74	  390.07
     64.3700	  893.00	  856.51	-1687.76	  390.22
     64.4700	  970.00	  912.67	-1666.92	  390.38
     64.5700	 1069.00	  950.72	-1605.97	  390.53
     64.6700	  980.00	  963.27	-1707.52	  390.69
     64.7700	  986.00	  948.34	-1686.59	  390.84
     64.8700	 1001.00	  910.81	-1634.06	  391.00
     64.9700	  869.00	  859.50	-1714.75	  391.16
     65.0700	  842.00	  803.81	-1686.06	  391.31
     65.1700	  773.00	  751.25	-1702.50	  391.47
     65.2700	  681.00	  706.01	-1749.26	  391.62
     65.3700	  669.00	  669.22	-1724.47	  391.78
     65.4700	  646.00	  640.10	-1718.35	  391.94
     65.5700	  628.00	  617.38	-1713.63	  392.09
     65.6700	  591.00	  599.94	-1733.19	  392.25
     65.7700	  572.00	  586.85	-1739.10	  392.40
     65.8700	  567.00	  577.38	-1734.63	  392.56
     65.9700	  545.00	  570.91	-1750.16	  392.71
     66.0700	  519.00	  566.96	-1772.21	  392.87
     66.1700	  563.00	  565.09	-1726.34	  393.03
     66.2700	  568.00	  564.92	-1721.17	  393.18
     66.3700	  526.00	  566.20	-1764.45	  393.34
     66.4700	  537.00	  568.77	-1756.02	  393.49
     66.5700	  540.00	  572.81	-1757.06	  393.65
     66.6700	  569.00	  578.52	-1733.77	  393.80
     66.7700	  563.00	  586.90	-1748.15	  393.96
     66.8700	  590.00	  599.72	-1733.97	  394.11
     66.9700	  598.00	  619.99	-1746.24	  394.27
     67.0700	  605.00	  652.48	-1771.73	  394.42
     67.1700	  691.00	  703.95	-1737.20	  394.58
     67.2700	  742.00	  782.94	-1765.19	  394.73
     67.3700	  889.00	  898.57	-1733.82	  394.89
     67.4700	 1072.00	 1058.20	-1710.45	  395.04
     67.5700	 1250.00	 1264.38	-1738.63	  395.19
     67.6700	 1506.00	 1510.94	-1729.19	  395.35
     67.7700	 1812.00	 1780.87	-1693.12	  395.50
     67.8700	 2091.00	 2045.11	-1678.36	  395.65
     67.9700	 2270.00	 2262.77	-1717.02	  395.80
     68.0700	 2478.00	 2388.70	-1634.95	  395.96
     68.1700	 2395.00	 2390.47	-1719.72	  396.11
     68.2700	 2237.00	 2267.59	-1754.84	  396.26
     68.3700	 2055.00	 2051.89	-1721.14	  396.41
     68.4700	 1801.00	 1788.66	-1711.91	  396.56
     68.5700	 1578.00	 1518.68	-1664.93	  396.71
     68.6700	 1268.00	 1271.75	-1728.00	  396.86
     68.7700	  997.00	 1065.12	-1792.37	  397.01
     68.8700	  873.00	  904.94	-1756.19	  397.16
     68.9700	  790.00	  788.88	-1723.13	  397.31
     69.0700	  705.00	  709.66	-1728.91	  397.46
     69.1700	  656.00	  658.19	-1726.44	  397.61
     69.2700	  660.00	  625.89	-1690.14	  397.76
     69.3700	  592.00	  605.93	-1738.18	  397.91
     69.4700	  562.00	  593.51	-1755.76	  398.05
     69.5700	  557.00	  585.54	-1752.79	  398.20
     69.6700	  615.00	  580.23	-1689.48	  398.35
     69.7700	  639.00	  576.57	-1661.82	  398.49
     69.8700	  591.00	  574.04	-1707.29	  398.64
     69.9700	  543.00	  572.39	-1753.64	  398.78
     70.0700	  604.00	  571.47	-1691.72	  398.93
     70.1700	  534.00	  571.25	-1761.50	  399.07
     70.2700	  578.00	  571.76	-1718.01	  399.22
     70.3700	  621.00	  573.08	-1676.33	  399.36
     70.4700	  541.00	  575.46	-1758.71	  399.50
     70.5700	  594.00	  579.38	-1709.63	  399.64
     70.6700	  600.00	  585.72	-1709.97	  399.78
     70.7700	  580.00	  596.00	-1740.25	  399.92
     70.8700	  605.00	  612.63	-1731.88	  400.06
     70.9700	  594.00	  639.15	-1769.40	  400.20
     71.0700	  667.00	  680.28	-1737.53	  400.34
     71.1700	  725.00	  741.60	-1740.85	  400.48
     71.2700	  804.00	  828.70	-1748.95	  400.62
     71.3700	  914.00	  945.75	-1756.00	  400.76
     71.4700	 1095.00	 1093.54	-1722.79	  400.89
     71.5700	 1269.00	 1267.70	-1722.95	  401.03
     71.6700	 1436.00	 1458.06	-1746.31	  401.16
     71.7700	 1561.00	 1644.96	-1808.21	  401.30
     71.8700	 1747.00	 1804.58	-1781.83	  401.43
     71.9700	 1855.00	 1909.07	-1778.32	  401.57
     72.0700	 1871.00	 1935.72	-1788.97	  401.70
     72.1700	 1880.00	 1878.13	-1722.38	  401.83
     72.2700	 1797.00	 1750.14	-1677.39	  401.96
     72.3700	 1638.00	 1577.34	-1663.59	  402.09
     72.4700	 1534.00	 1387.81	-1578.06	  402.22
     72.5700	 1274.00	 1203.32	-1653.57	  402.35
     72.6700	 1116.00	 1039.03	-1647.28	  402.48
     72.7700	  961.00	  903.02	-1666.27	  402.60
     72.8700	  914.00	  797.31	-1607.56	  402.73
     72.9700	  868.00	  719.60	-1575.85	  402.86
     73.0700	  796.00	  665.12	-1593.37	  402.98
     73.1700	  671.00	  628.35	-1681.60	  403.11
     73.2700	  658.00	  604.09	-1670.34	  403.23
     73.3700	  666.00	  588.23	-1646.48	  403.35
     73.4700	  585.00	  577.77	-1717.02	  403.47
     73.5700	  607.00	  570.74	-1687.99	  403.59
     73.6700	  591.00	  565.91	-1699.16	  403.71
     73.7700	  575.00	  562.59	-1711.84	  403.83
     73.8700	  603.00	  560.35	-1681.60	  403.95
     73.9700	  591.00	  558.97	-1692.22	  404.07
     74.0700	  615.00	  558.26	-1667.51	  404.18
     74.1700	  594.00	  558.08	-1688.33	  404.30
     74.2700	  594.00	  558.26	-1688.51	  404.41
     74.3700	  604.00	  558.60	-1678.85	  404.53
     74.4700	  635.00	  558.86	-1648.11	  404.64
     74.5700	  635.00	  558.82	-1648.07	  404.75
     74.6700	  625.00	  558.30	-1657.55	  404.86
     74.7700	  619.00	  557.28	-1662.53	  404.97
     74.8700	  590.00	  555.89	-1690.14	  405.08
     74.9700	  598.00	  554.36	-1680.61	  405.19
     75.0700	  601.00	  552.96	-1676.21	  405.30
     75.1700	  576.00	  551.96	-1700.21	  405.40
     75.2700	  572.00	  551.77	-1704.02	  405.51
     75.3700	  546.00	  552.68	-1730.93	  405.61
     75.4700	  575.00	  555.20	-1704.45	  405.71
     75.5700	  628.00	  559.72	-1655.97	  405.82
     75.6700	  541.00	  566.94	-1750.19	  405.92
     75.7700	  563.00	  577.25	-1738.50	  406.02
     75.8700	  587.00	  590.97	-1728.22	  406.12
     75.9700	  575.00	  608.03	-1757.28	  406.21
     76.0700	  670.00	  627.90	-1682.15	  406.31
     76.1700	  643.00	  649.43	-1730.68	  406.41
     76.2700	  692.00	  670.81	-1703.06	  406.50
     76.3700	  691.00	  689.67	-1722.92	  406.59
     76.4700	  734.00	  703.26	-1693.51	  406.69
     76.5700	  700.00	  709.14	-1733.39	  406.78
     76.6700	  711.00	  706.09	-1719.34	  406.87
     76.7700	  710.00	  694.71	-1708.96	  406.96
     76.8700	  725.00	  677.14	-1676.39	  407.04
     76.9700	  634.00	  655.94	-1746.19	  407.13
     77.0700	  656.00	  634.00	-1702.25	  407.22
     77.1700	  533.00	  613.13	-1804.38	  407.30
     77.2700	  587.00	  594.70	-1731.95	  407.38
     77.3700	  570.00	  579.42	-1733.67	  407.47
     77.4700	  580.00	  567.45	-1711.70	  407.55
     77.5700	  582.00	  558.56	-1700.81	  407.63
     77.6700	  546.00	  552.24	-1730.49	  407.71
     77.7700	  567.00	  547.94	-1705.19	  407.78
     77.8700	  492.00	  545.11	-1777.36	  407.86
     77.9700	  548.00	  543.29	-1719.54	  407.93
     78.0700	  501.00	  542.14	-1765.39	  408.01
     78.1700	  483.00	  541.41	-1782.66	  408.08
     78.2700	  568.00	  540.96	-1697.21	  408.15
     78.3700	  485.00	  540.68	-1779.93	  408.22
     78.4700	  573.00	  540.54	-1691.79	  408.29
     78.5700	  515.00	  540.50	-1749.75	  408.36
     78.6700	  495.00	  540.56	-1769.81	  408.42
     78.7700	  536.00	  540.75	-1729.00	  408.49
     78.8700	  482.00	  541.07	-1783.32	  408.55
     78.9700	  520.00	  541.58	-1745.83	  408.61
     79.0700	  510.00	  542.32	-1756.57	  408.67
     79.1700	  548.00	  543.34	-1719.59	  408.73
     79.2700	  533.00	  544.71	-1735.96	  408.79
     79.3700	  524.00	  546.30	-1746.55	  408.85
     79.4700	  541.00	  548.51	-1731.76	  408.91
     79.5700	  528.00	  551.21	-1747.46	  408.96
     79.6700	  537.00	  554.44	-1741.69	  409.01
     79.7700	  525.00	  558.25	-1757.50	  409.06
     79.8700	  526.00	  562.72	-1760.97	  409.12
     79.9700	  583.00	  567.95	-1709.20	  409.16
     80.0700	  555.00	  574.13	-1743.38	  409.21
     80.1700	  594.00	  581.53	-1711.78	  409.26
     80.2700	  571.00	  590.48	-1743.73	  409.30
     80.3700	  553.00	  601.30	-1772.55	  409.35
     80.4700	  566.00	  614.19	-1772.44	  409.39
     80.5700	  563.00	  629.08	-1790.33	  409.43
     80.6700	  611.00	  645.58	-1758.83	  409.47
     80.7700	  656.00	  662.93	-1731.18	  409.51
     80.8700	  650.00	  680.02	-1754.27	  409.54
     80.9700	  727.00	  695.53	-1692.78	  409.58
     81.0700	  745.00	  708.22	-1687.47	  409.61
     81.1700	  746.00	  717.04	-1695.29	  409.64
     81.2700	  803.00	  721.29	-1642.54	  409.68
     81.3700	  754.00	  720.62	-1690.87	  409.71
     81.4700	  736.00	  715.16	-1703.41	  409.73
     81.5700	  721.00	  705.46	-1708.71	  409.76
     81.6700	  718.00	  692.36	-1698.61	  409.79
     81.7700	  734.00	  676.80	-1667.05	  409.81
     81.8700	  698.00	  659.82	-1686.07	  409.83
     81.9700	  687.00	  642.51	-1679.76	  409.85
     82.0700	  692.00	  625.83	-1658.08	  409.87
     82.1700	  676.00	  610.48	-1658.73	  409.89
     82.2700	  613.00	  597.00	-1708.25	  409.91
     82.3700	  594.00	  585.56	-1715.81	  409.92
     82.4700	  634.00	  576.21	-1666.46	  409.93
     82.5700	  608.00	  568.89	-1685.14	  409.95
     82.6700	  590.00	  563.47	-1697.72	  409.96
     82.7700	  520.00	  559.86	-1764.11	  409.96
     82.8700	  555.00	  557.92	-1727.17	  409.97
     82.9700	  545.00	  557.57	-1736.82	  409.98
     83.0700	  574.00	  558.71	-1708.96	  409.98
     83.1700	  532.00	  561.26	-1753.51	  409.99
     83.2700	  577.00	  565.11	-1712.36	  409.99
     83.3700	  533.00	  570.11	-1761.36	  409.99
     83.4700	  547.00	  575.97	-1753.22	  409.99
     83.5700	  592.00	  582.34	-1714.59	  409.98
     83.6700	  574.00	  588.72	-1738.97	  409.98
     83.7700	  528.00	  594.50	-1790.75	  409.97
     83.8700	  582.00	  599.02	-1741.27	  409.96
     83.9700	  567.00	  601.63	-1758.88	  409.95
     84.0700	  588.00	  601.90	-1738.15	  409.94
     84.1700	  576.00	  599.75	-1748.00	  409.93
     84.2700	  573.00	  595.49	-1746.74	  409.92
     84.3700	  608.00	  589.69	-1705.94	  409.90
     84.4700	  582.00	  583.02	-1725.27	  409.88
     84.5700	  548.00	  576.07	-1752.32	  409.87
     84.6700	  511.00	  569.34	-1782.59	  409.85
     84.7700	  552.00	  563.19	-1735.44	  409.82
     84.8700	  574.00	  557.84	-1708.09	  409.80
     84.9700	  538.00	  553.41	-1739.66	  409.78
     85.0700	  517.00	  549.91	-1757.16	  409.75
     85.1700	  533.00	  547.27	-1738.52	  409.72
     85.2700	  538.00	  545.38	-1731.63	  409.69
     85.3700	  547.00	  544.12	-1721.37	  409.66
     85.4700	  547.00	  543.38	-1720.63	  409.63
     85.5700	  539.00	  543.06	-1728.31	  409.59
     85.6700	  560.00	  543.11	-1707.36	  409.56
     85.7700	  552.00	  543.49	-1715.74	  409.52
     85.8700	  513.00	  544.21	-1755.46	  409.48
     85.9700	  516.00	  545.34	-1753.59	  409.44
     86.0700	  519.00	  546.95	-1752.20	  409.40
     86.1700	  550.00	  549.18	-1723.43	  409.35
     86.2700	  550.00	  552.16	-1726.41	  409.31
     86.3700	  550.00	  556.07	-1730.32	  409.26
     86.4700	  527.00	  561.04	-1758.29	  409.21
     86.5700	  579.00	  567.20	-1712.45	  409.16
     86.6700	  539.00	  574.57	-1759.82	  409.11
     86.7700	  605.00	  583.04	-1702.29	  409.06
     86.8700	  569.00	  592.08	-1747.33	  409.00
     86.9700	  627.00	  601.88	-1699.13	  408.95
     87.0700	  638.00	  611.54	-1697.79	  408.89
     87.1700	  612.00	  620.33	-1732.58	  408.83
     87.2700	  635.00	  627.42	-1716.67	  408.77
     87.3700	  662.00	  632.03	-1694.28	  408.70
     87.4700	  646.00	  633.54	-1711.79	  408.64
     87.5700	  671.00	  631.76	-1685.01	  408.57
     87.6700	  653.00	  626.99	-1698.24	  408.50
     87.7700	  646.00	  619.91	-1698.16	  408.44
     87.8700	  676.00	  611.40	-1659.65	  408.36
     87.9700	  627.00	  602.37	-1699.62	  408.29
     88.0700	  608.00	  593.66	-1709.91	  408.22
     88.1700	  586.00	  585.94	-1724.19	  408.14
     88.2700	  555.00	  579.73	-1748.98	  408.06
     88.3700	  623.00	  575.38	-1676.63	  407.99
     88.4700	  590.00	  573.05	-1707.30	  407.90
     88.5700	  631.00	  572.72	-1665.97	  407.82
     88.6700	  601.00	  574.24	-1697.49	  407.74
     88.7700	  612.00	  577.32	-1689.57	  407.65
     88.8700	  620.00	  581.56	-1685.81	  407.57
     88.9700	  610.00	  586.47	-1700.72	  407.48
     89.0700	  641.00	  591.51	-1674.76	  407.39
     89.1700	  615.00	  596.08	-1705.33	  407.30
     89.2700	  561.00	  599.59	-1762.84	  407.20
     89.3700	  636.00	  601.53	-1689.78	  407.11
     89.4700	  658.00	  601.57	-1667.82	  407.01
     89.5700	  543.00	  599.66	-1780.91	  406.91
     89.6700	  560.00	  596.01	-1760.26	  406.81
     89.7700	  582.00	  591.03	-1733.28	  406.71
     89.8700	  549.00	  585.21	-1760.46	  406.61
     89.9700	  544.00	  579.02	-1759.27	  406.51
     90.0700	  532.00	  572.87	-1765.12	  406.40
     90.1700	  564.00	  567.08	-1727.33	  406.29
     90.2700	  533.00	  561.88	-1753.13	  406.18
     90.3700	  509.00	  557.42	-1772.67	  406.07
     90.4700	  527.00	  553.75	-1751.00	  405.96
     90.5700	  530.00	  550.85	-1745.10	  405.85
     90.6700	  528.00	  548.68	-1744.93	  405.73
     90.7700	  540.00	  547.15	-1731.40	  405.62
     90.8700	  509.00	  546.17	-1761.42	  405.50
     90.9700	  526.00	  545.65	-1743.90	  405.38
     91.0700	  530.00	  545.55	-1739.80	  405.26
     91.1700	  581.00	  545.82	-1689.07	  405.14
     91.2700	  539.00	  546.47	-1731.72	  405.01
     91.3700	  552.00	  547.54	-1719.79	  404.89
     91.4700	  531.00	  549.13	-1742.38	  404.76
     91.5700	  531.00	  551.33	-1744.58	  404.63
     91.6700	  567.00	  554.33	-1711.58	  404.50
     91.7700	  532.00	  558.30	-1750.55	  404.37
     91.8700	  549.00	  563.44	-1738.69	  404.23
     91.9700	  540.00	  569.96	-1754.21	  404.10
     92.0700	  521.00	  577.82	-1781.07	  403.96
     92.1700	  543.00	  587.57	-1768.82	  403.82
     92.2700	  564.00	  599.05	-1759.30	  403.69
     92.3700	  590.00	  612.20	-1746.45	  403.54
     92.4700	  589.00	  626.84	-1762.09	  403.40
     92.5700	  661.00	  642.68	-1705.93	  403.26
     92.6700	  641.00	  659.26	-1742.51	  403.11
     92.7700	  701.00	  676.01	-1699.26	  402.97
     92.8700	  714.00	  692.29	-1702.54	  402.82
     92.9700	  721.00	  707.40	-1710.65	  402.67
     93.0700	  751.00	  720.80	-1694.05	  402.52
     93.1700	  709.00	  732.19	-1747.44	  402.37
     93.2700	  765.00	  741.67	-1700.92	  402.21
     93.3700	  797.00	  749.67	-1676.92	  402.06
     93.4700	  775.00	  756.81	-1706.06	  401.90
     93.5700	  817.00	  763.75	-1671.00	  401.74
     93.6700	  793.00	  771.10	-1702.35	  401.58
     93.7700	  831.00	  779.37	-1672.62	  401.42
     93.8700	  859.00	  789.04	-1654.29	  401.26
     93.9700	  855.00	  800.56	-1669.81	  401.10
     94.0700	  859.00	  814.25	-1679.50	  400.93
     94.1700	  878.00	  830.19	-1676.44	  400.77
     94.2700	  873.00	  848.11	-1699.36	  400.60
     94.3700	  935.00	  867.27	-1656.52	  400.43
     94.4700	  908.00	  886.48	-1702.73	  400.26
     94.5700	  955.00	  904.14	-1673.39	  400.09
     94.6700	  890.00	  918.38	-1752.63	  399.92
     94.7700	  900.00	  927.26	-1751.51	  399.74
     94.8700	  970.00	  929.18	-1683.43	  399.57
     94.9700	  886.00	  923.24	-1761.49	  399.39
     95.0700	  897.00	  909.56	-1736.81	  399.21
     95.1700	  877.00	  889.20	-1736.45	  399.03
     95.2700	  882.00	  863.90	-1706.15	  398.85
     95.3700	  824.00	  835.68	-1735.93	  398.67
     95.4700	  783.00	  806.67	-1747.92	  398.49
     95.5700	  777.00	  778.85	-1726.10	  398.30
     95.6700	  725.00	  754.06	-1753.31	  398.12
     95.7700	  740.00	  733.97	-1718.22	  397.93
     95.8700	  751.00	  720.03	-1693.28	  397.74
     95.9700	  684.00	  713.53	-1753.78	  397.56
     96.0700	  690.00	  715.57	-1749.82	  397.36
     96.1700	  712.00	  727.08	-1739.33	  397.17
     96.2700	  734.00	  748.75	-1739.00	  396.98
     96.3700	  798.00	  781.01	-1707.26	  396.79
     96.4700	  792.00	  823.92	-1756.17	  396.59
     96.5700	  956.00	  877.12	-1645.37	  396.40
     96.6700	  978.00	  939.69	-1685.94	  396.20
     96.7700	 1011.00	 1010.06	-1723.31	  396.00
     96.8700	 1027.00	 1085.95	-1783.20	  395.80
     96.9700	 1144.00	 1164.37	-1744.62	  395.60
     97.0700	 1247.00	 1241.66	-1718.91	  395.40
     97.1700	 1269.00	 1313.59	-1768.84	  395.20
     97.2700	 1347.00	 1375.53	-1752.78	  394.99
     97.3700	 1414.00	 1422.92	-1733.17	  394.79
     97.4700	 1480.00	 1451.88	-1696.13	  394.58
     97.5700	 1431.00	 1460.00	-1753.25	  394.38
     97.6700	 1454.00	 1446.86	-1717.11	  394.17
     97.7700	 1391.00	 1414.13	-1747.38	  393.96
     97.8700	 1376.00	 1365.12	-1713.37	  393.75
     97.9700	 1254.00	 1304.04	-1774.29	  393.54
     98.0700	 1280.00	 1235.36	-1679.61	  393.33
     98.1700	 1174.00	 1163.44	-1713.69	  393.11
     98.2700	 1082.00	 1092.20	-1734.45	  392.90
     98.3700	  973.00	 1025.07	-1776.32	  392.69
     98.4700	  919.00	  964.87	-1770.12	  392.47
     98.5700	  801.00	  913.85	-1837.10	  392.25
     98.6700	  887.00	  873.76	-1711.01	  392.04
     98.7700	  789.00	  845.88	-1781.13	  391.82
     98.8700	  831.00	  831.14	-1724.39	  391.60
     98.9700	  785.00	  830.16	-1769.41	  391.38
     99.0700	  807.00	  843.31	-1760.56	  391.16
     99.1700	  831.00	  870.79	-1764.04	  390.94
     99.2700	  893.00	  912.58	-1743.83	  390.72
     99.3700	  936.00	  968.45	-1756.70	  390.49
     99.4700	  943.00	 1037.84	-1819.09	  390.27
     99.5700	 1131.00	 1119.84	-1713.09	  390.05
     99.6700	 1210.00	 1213.00	-1727.25	  389.82
     99.7700	 1305.00	 1315.29	-1734.54	  389.59
     99.8700	 1390.00	 1424.02	-1758.27	  389.37
     99.9700	 1483.00	 1535.74	-1776.99	  389.14
    100.0700	 1601.00	 1646.40	-1769.65	  388.91
    100.1700	 1741.00	 1751.46	-1734.71	  388.68
    100.2700	 1881.00	 1846.38	-1689.63	  388.45
    100.3700	 1997.00	 1927.08	-1654.33	  388.22
    100.4700	 2029.00	 1990.35	-1685.60	  387.99
    100.5700	 2097.00	 2033.99	-1661.24	  387.76
    100.6700	 2103.00	 2056.62	-1677.87	  387.53
    100.7700	 2106.00	 2057.50	-1675.75	  387.30
    100.8700	 2137.00	 2036.51	-1623.76	  387.07
    100.9700	 2063.00	 1994.46	-1655.71	  386.83
    101.0700	 1905.00	 1933.37	-1752.62	  386.60
    101.1700	 1890.00	 1856.67	-1690.92	  386.36
    101.2700	 1727.00	 1768.90	-1766.15	  386.13
    101.3700	 1641.00	 1675.17	-1758.42	  385.89
    101.4700	 1666.00	 1580.52	-1638.77	  385.66
    101.5700	 1508.00	 1489.40	-1705.65	  385.42
    101.6700	 1410.00	 1405.38	-1719.63	  385.19
    101.7700	 1337.00	 1331.02	-1718.27	  384.95
    101.8700	 1251.00	 1267.80	-1741.05	  384.71
    101.9700	 1244.00	 1216.14	-1696.39	  384.47
    102.0700	 1214.00	 1175.46	-1685.71	  384.24
    102.1700	 1157.00	 1144.32	-1711.57	  384.00
    102.2700	 1138.00	 1120.63	-1706.88	  383.76
    102.3700	 1077.00	 1101.84	-1749.09	  383.52
    102.4700	 1105.00	 1085.18	-1704.43	  383.28
    102.5700	 1106.00	 1068.04	-1686.29	  383.04
    102.6700	 1049.00	 1048.31	-1723.56	  382.80
    102.7700	 1049.00	 1024.63	-1699.88	  382.56
    102.8700	 1031.00	  996.51	-1689.76	  382.32
    102.9700	  933.00	  964.20	-1755.45	  382.08
    103.0700	  909.00	  928.51	-1743.76	  381.84
    103.1700	  841.00	  890.55	-1773.80	  381.60
    103.2700	  834.00	  851.56	-1741.81	  381.36
    103.3700	  802.00	  812.72	-1734.97	  381.12
    103.4700	  734.00	  775.14	-1765.39	  380.88
    103.5700	  692.00	  739.72	-1771.97	  380.64
    103.6700	  746.00	  707.20	-1685.45	  380.40
    103.7700	  718.00	  678.04	-1684.29	  380.16
    103.8700	  653.00	  652.53	-1723.78	  379.92
    103.9700	  590.00	  630.74	-1764.99	  379.68
    104.0700	  617.00	  612.56	-1719.81	  379.44
    104.1700	  638.00	  597.77	-1684.02	  379.20
    104.2700	  590.00	  586.04	-1720.29	  378.96
    104.3700	  584.00	  577.02	-1717.27	  378.72
    104.4700	  557.00	  570.32	-1737.57	  378.48
    104.5700	  589.00	  565.56	-1700.81	  378.24
    104.6700	  542.00	  562.40	-1744.65	  378.00
    104.7700	  537.00	  560.53	-1747.78	  377.76
    104.8700	  556.00	  559.68	-1727.93	  377.52
    104.9700	  512.00	  559.66	-1771.91	  377.28
    105.0700	  567.00	  560.28	-1717.53	  377.04
    105.1700	  524.00	  561.41	-1761.66	  376.81
    105.2700	  534.00	  562.97	-1753.22	  376.57
    105.3700	  581.00	  564.93	-1708.18	  376.33
    105.4700	  563.00	  567.27	-1728.52	  376.09
    105.5700	  538.00	  570.03	-1756.28	  375.86
    105.6700	  537.00	  573.28	-1760.53	  375.62
    105.7700	  586.00	  577.13	-1715.38	  375.39
    105.8700	  551.00	  581.68	-1754.93	  375.15
    105.9700	  568.00	  587.05	-1743.30	  374.92
    106.0700	  577.00	  593.29	-1740.54	  374.68
    106.1700	  546.00	  600.46	-1778.71	  374.45
    106.2700	  558.00	  608.51	-1774.76	  374.22
    106.3700	  589.00	  617.35	-1752.60	  373.99
    106.4700	  594.00	  626.84	-1757.09	  373.75
    106.5700	  626.00	  636.74	-1734.99	  373.52
    106.6700	  589.00	  646.77	-1782.02	  373.29
    106.7700	  634.00	  656.59	-1746.84	  373.06
    106.8700	  668.00	  665.82	-1722.07	  372.84
    106.9700	  671.00	  674.08	-1727.33	  372.61
    107.0700	  695.00	  681.01	-1710.26	  372.38
    107.1700	  660.00	  686.32	-1750.57	  372.16
    107.2700	  756.00	  689.86	-1658.11	  371.93
    107.3700	  694.00	  691.66	-1721.91	  371.71
    107.4700	  739.00	  691.88	-1677.13	  371.48
    107.5700	  664.00	  690.86	-1751.11	  371.26
    107.6700	  690.00	  689.01	-1723.26	  371.04
    107.7700	  681.00	  686.77	-1730.02	  370.82
    107.8700	  676.00	  684.55	-1732.80	  370.60
    107.9700	  712.00	  682.67	-1694.92	  370.38
    108.0700	  689.00	  681.40	-1716.65	  370.17
    108.1700	  792.00	  680.84	-1613.09	  369.95
    108.2700	  707.00	  681.02	-1698.27	  369.73
    108.3700	  672.00	  681.84	-1734.09	  369.52
    108.4700	  658.00	  683.08	-1749.33	  369.31
    108.5700	  695.00	  684.44	-1713.69	  369.10
    108.6700	  669.00	  685.55	-1740.80	  368.89
    108.7700	  731.00	  685.99	-1679.24	  368.68
    108.8700	  680.00	  685.37	-1729.62	  368.47
    108.9700	  653.00	  683.39	-1754.64	  368.27
    109.0700	  715.00	  679.83	-1689.08	  368.06
    109.1700	  672.00	  674.63	-1726.88	  367.86
    109.2700	  648.00	  667.89	-1744.14	  367.66
    109.3700	  607.00	  659.79	-1777.04	  367.46
    109.4700	  645.00	  650.63	-1729.88	  367.26
    109.5700	  659.00	  640.74	-1705.99	  367.06
    109.6700	  653.00	  630.45	-1701.70	  366.87
    109.7700	  600.00	  620.09	-1744.34	  366.67
    109.8700	  619.00	  609.96	-1715.21	  366.48
    109.9700	  639.00	  600.30	-1685.55	  366.29
    110.0700	  612.00	  591.33	-1703.58	  366.10
    110.1700	  556.00	  583.21	-1751.46	  365.92
    110.2700	  618.00	  576.03	-1682.28	  365.73
    110.3700	  567.00	  569.85	-1727.10	  365.55
    110.4700	  587.00	  564.68	-1701.93	  365.37
    110.5700	  564.00	  560.50	-1720.75	  365.19
    110.6700	  540.00	  557.25	-1741.50	  365.01
    110.7700	  552.00	  554.86	-1727.11	  364.84
    110.8700	  571.00	  553.24	-1706.49	  364.66
    110.9700	  542.00	  552.30	-1734.55	  364.49
    111.0700	  563.00	  551.95	-1713.20	  364.32
    111.1700	  548.00	  552.10	-1728.35	  364.15
    111.2700	  526.00	  552.69	-1750.94	  363.99
    111.3700	  524.00	  553.64	-1753.89	  363.83
    111.4700	  539.00	  554.90	-1740.15	  363.67
    111.5700	  553.00	  556.43	-1727.68	  363.51
    111.6700	  568.00	  558.20	-1714.45	  363.35
    111.7700	  575.00	  560.18	-1709.43	  363.20
    111.8700	  550.00	  562.36	-1736.61	  363.05
    111.9700	  582.00	  564.73	-1706.98	  362.90
    112.0700	  565.00	  567.30	-1726.55	  362.75
    112.1700	  584.00	  570.08	-1710.33	  362.61
    112.2700	  615.00	  573.09	-1682.34	  362.46
    112.3700	  572.00	  576.36	-1728.61	  362.33
    112.4700	  546.00	  579.94	-1758.19	  362.19
    112.5700	  574.00	  583.86	-1734.11	  362.06
    112.6700	  606.00	  588.19	-1706.44	  361.92
    112.7700	  588.00	  593.03	-1729.28	  361.80
    112.8700	  685.00	  598.47	-1637.72	  361.67
    112.9700	  614.00	  604.67	-1714.92	  361.55
    113.0700	  724.00	  611.80	-1612.05	  361.43
    113.1700	  664.00	  620.12	-1680.37	  361.31
    113.2700	  727.00	  629.92	-1627.17	  361.19
    113.3700	  709.00	  641.63	-1656.88	  361.08
    113.4700	  780.00	  655.74	-1599.99	  360.97
    113.5700	  747.00	  672.88	-1650.13	  360.87
    113.6700	  802.00	  693.85	-1616.10	  360.77
    113.7700	  797.00	  719.61	-1646.86	  360.67
    113.8700	  887.00	  751.30	-1588.55	  360.57
    113.9700	  855.00	  790.29	-1659.54	  360.48
    114.0700	  907.00	  838.16	-1655.41	  360.39
    114.1700	 1037.00	  896.73	-1583.98	  360.30
    114.2700	 1085.00	  967.97	-1607.22	  360.22
    114.3700	 1201.00	 1054.08	-1577.33	  360.14
    114.4700	 1301.00	 1157.33	-1580.58	  360.06
    114.5700	 1463.00	 1280.07	-1541.32	  359.99
    114.6700	 1532.00	 1424.64	-1616.89	  359.92
    114.7700	 1653.00	 1593.15	-1664.40	  359.85
    114.8700	 1961.00	 1787.45	-1550.70	  359.79
    114.9700	 2127.00	 2008.88	-1606.13	  359.73
    115.0700	 2336.00	 2258.27	-1646.52	  359.67
    115.1700	 2513.00	 2535.68	-1746.93	  359.62
    115.2700	 2802.00	 2840.17	-1762.42	  359.57
    115.3700	 3099.00	 3169.82	-1795.07	  359.53
    115.4700	 3424.00	 3521.48	-1821.73	  359.49
    115.5700	 3745.00	 3890.93	-1870.18	  359.45
    115.6700	 4111.00	 4272.71	-1885.96	  359.42
    115.7700	 4578.00	 4660.00	-1806.25	  359.39
    115.8700	 4830.00	 5044.89	-1939.14	  359.37
    115.9700	 5145.00	 5418.31	-1997.56	  359.34
    116.0700	 5594.00	 5770.44	-1900.69	  359.33
    116.1700	 5932.00	 6090.78	-1883.03	  359.31
    116.2700	 6302.00	 6368.53	-1790.78	  359.31
    116.3700	 6612.00	 6593.34	-1705.59	  359.30
    116.4700	 6772.00	 6756.01	-1708.26	  359.30
    116.5700	 6837.00	 6849.48	-1736.73	  359.31
    116.6700	 6841.00	 6869.57	-1752.82	  359.32
    116.7700	 6831.00	 6815.52	-1708.77	  359.33
    116.8700	 6897.00	 6690.17	-1517.42	  359.35
    116.9700	 6551.00	 6499.55	-1672.80	  359.37
    117.0700	 6247.00	 6252.05	-1729.30	  359.39
    117.1700	 5983.00	 5957.55	-1698.80	  359.43
    117.2700	 5631.00	 5626.69	-1719.94	  359.46
    117.3700	 5195.00	 5270.05	-1799.30	  359.50
    117.4700	 4800.00	 4897.79	-1822.04	  359.55
    117.5700	 4557.00	 4519.09	-1686.34	  359.60
    117.6700	 4233.00	 4142.11	-1633.36	  359.65
    117.7700	 3891.00	 3773.99	-1607.24	  359.71
    117.8700	 3552.00	 3420.57	-1592.82	  359.78
    117.9700	 3243.00	 3086.50	-1567.75	  359.85
    118.0700	 2921.00	 2775.16	-1578.41	  359.92
    118.1700	 2507.00	 2488.77	-1706.02	  360.00
    118.2700	 2223.00	 2228.63	-1729.88	  360.09
    118.3700	 1949.00	 1995.09	-1770.34	  360.18
    118.4700	 1703.00	 1787.77	-1809.02	  360.27
    118.5700	 1507.00	 1605.58	-1822.83	  360.37
    118.6700	 1363.00	 1447.01	-1808.26	  360.48
    118.7700	 1338.00	 1310.25	-1696.50	  360.59
    118.8700	 1140.00	 1193.25	-1777.50	  360.71
    118.9700	 1031.00	 1093.88	-1787.13	  360.83
    119.0700	 1029.00	 1010.02	-1705.27	  360.96
    119.1700	  882.00	  939.59	-1781.84	  361.09
    119.2700	  828.00	  880.71	-1776.96	  361.23
    119.3700	  776.00	  831.63	-1779.88	  361.37
    119.4700	  743.00	  790.81	-1772.06	  361.52
    119.5700	  749.00	  756.88	-1732.13	  361.68
    119.6700	  699.00	  728.68	-1753.93	  361.84
    119.7700	  675.00	  705.24	-1754.49	  362.01
    119.8700	  632.00	  685.71	-1777.96	  362.18
    119.9700	  634.00	  669.43	-1759.68	  362.36
    120.0700	  607.00	  655.83	-1773.08	  362.55
    120.1700	  590.00	  644.46	-1778.71	  362.74
    120.2700	  561.00	  634.95	-1798.20	  362.94
    120.3700	  589.00	  627.01	-1762.26	  363.14
    120.4700	  558.00	  620.41	-1786.66	  363.36
    120.5700	  541.00	  614.95	-1798.20	  363.57
    120.6700	  585.00	  610.50	-1749.75	  363.80
    120.7700	  586.00	  606.94	-1745.19	  364.03
    120.8700	  583.00	  604.18	-1745.43	  364.26
    120.9700	  571.00	  602.16	-1755.41	  364.51
    121.0700	  586.00	  600.81	-1739.06	  364.76
    121.1700	  576.00	  600.10	-1748.35	  365.01
    121.2700	  585.00	  599.97	-1739.22	  365.28
    121.3700	  596.00	  600.40	-1728.65	  365.55
    121.4700	  588.00	  601.34	-1737.59	  365.82
    121.5700	  616.00	  602.75	-1711.00	  366.11
    121.6700	  586.00	  604.57	-1742.82	  366.40
    121.7700	  606.00	  606.75	-1725.00	  366.70
    121.8700	  617.00	  609.22	-1716.47	  367.00
    121.9700	  614.00	  611.93	-1722.18	  367.32
    122.0700	  629.00	  614.78	-1710.03	  367.63
    122.1700	  632.00	  617.70	-1709.95	  367.96
    122.2700	  630.00	  620.58	-1714.83	  368.30
    122.3700	  590.00	  623.35	-1757.60	  368.64
    122.4700	  621.00	  625.89	-1729.14	  368.99
    122.5700	  634.00	  628.11	-1718.36	  369.34
    122.6700	  645.00	  629.93	-1709.18	  369.71
    122.7700	  630.00	  631.29	-1725.54	  370.08
    122.8700	  628.00	  632.14	-1728.39	  370.46
    122.9700	  632.00	  632.45	-1724.70	  370.85
    123.0700	  657.00	  632.21	-1699.46	  371.24
    123.1700	  641.00	  631.43	-1714.68	  371.64
    123.2700	  648.00	  630.17	-1706.42	  372.05
    123.3700	  649.00	  628.46	-1703.71	  372.47
    123.4700	  623.00	  626.36	-1727.61	  372.90
    123.5700	  645.00	  623.93	-1703.18	  373.33
    123.6700	  653.00	  621.25	-1692.50	  373.78
    123.7700	  626.00	  618.38	-1716.63	  374.23
    123.8700	  642.00	  615.37	-1697.62	  374.69
    123.9700	  647.00	  612.30	-1689.55	  375.16
    124.0700	  592.00	  609.21	-1741.46	  375.63
    124.1700	  597.00	  606.16	-1733.41	  376.12
    124.2700	  594.00	  603.18	-1733.43	  376.61
    124.3700	  634.00	  600.31	-1690.56	  377.12
    124.4700	  612.00	  597.57	-1709.82	  377.63
    124.5700	  584.00	  595.00	-1735.25	  378.15
    124.6700	  620.00	  592.60	-1696.85	  378.68
    124.7700	  577.00	  590.39	-1737.64	  379.21
    124.8700	  639.00	  588.39	-1673.64	  379.76
    124.9700	  593.00	  500.08	-1631.33	  380.32
    125.0700	  561.00	  500.65	-1724.25	  380.88
    125.1700	  566.00	  501.22	-1724.25	  381.46
    125.2700	  582.00	  501.81	-1724.25	  382.04
    125.3700	  541.00	  502.40	-1724.25	  382.63
    125.4700	  568.00	  503.00	-1724.25	  383.23
    125.5700	  573.00	  503.61	-1724.25	  383.85
    125.6700	  566.00	  504.23	-1724.25	  384.47
    125.7700	  560.00	  504.86	-1724.25	  385.10
    125.8700	  580.00	  505.50	-1724.25	  385.74
    125.9700	  568.00	  506.15	-1724.25	  386.39
    126.0700	  571.00	  506.81	-1724.25	  387.05
    126.1700	  600.00	  507.48	-1724.25	  387.72
    126.2700	  551.00	  508.16	-1724.25	  388.40
    126.3700	  601.00	  508.85	-1724.25	  389.09
    126.4700	  648.00	  509.55	-1724.25	  389.79
    126.5700	  674.00	  510.26	-1724.25	  390.50
    126.6700	  586.00	  510.98	-1724.25	  391.22
    126.7700	  604.00	  511.71	-1724.25	  391.95
    126.8700	  656.00	  512.45	-1724.25	  392.69
    126.9700	  650.00	  513.20	-1724.25	  393.44
    127.0700	  661.00	  513.97	-1724.25	  394.20
    127.1700	  638.00	  514.74	-1724.25	  394.97
    127.2700	  650.00	  515.52	-1724.25	  395.75
    127.3700	  679.00	  516.32	-1724.25	  396.55
    127.4700	  656.00	  517.12	-1724.25	  397.35
    127.5700	  666.00	  517.93	-1724.25	  398.17
    127.6700	  681.00	  518.76	-1724.25	  398.99
    127.7700	  696.00	  519.60	-1724.25	  399.83
    127.8700	  774.00	  520.45	-1724.25	  400.68
    127.9700	  744.00	  521.31	-1724.25	  401.54
    128.0700	  736.00	  522.18	-1724.25	  402.41
    128.1700	  799.00	  523.06	-1724.25	  403.29
    128.2700	  811.00	  523.95	-1724.25	  404.19
    128.3700	  850.00	  524.86	-1724.25	  405.09
    128.4700	  775.00	  525.77	-1724.25	  406.01
    128.5700	    0.00	  526.70	-1724.25	  406.93
    128.6700	    1.00	  527.64	-1724.25	  407.87
     12.3040	        	        	        	        	       0	(  0  0  2)	  0  1
     24.8840	        	        	        	        	       0	(  0  0  4)	  0  1
     28.3302	        	        	        	        	       0	(  1  0  0)	  0  1
     29.0271	        	        	        	        	       0	(  1  0  1)	  0  1
     31.0325	        	        	        	        	       0	(  1  0  2)	  0  1
     34.1396	        	        	        	        	       0	(  1  0  3)	  0  1
     37.7796	        	        	        	        	       0	(  0  0  6)	  0  1
     38.1151	        	        	        	        	       0	(  1  0  4)	  0  1
     42.7635	        	        	        	        	       0	(  1  0  5)	  0  1
     47.9456	        	        	        	        	       0	(  1  0  6)	  0  1
     50.2655	        	        	        	        	       0	(  1  1  0)	  0  1
     51.1971	        	        	        	        	       0	(  0  0  8)	  0  1
     51.9878	        	        	        	        	       0	(  1  1  2)	  0  1
     53.5739	        	        	        	        	       0	(  1  0  7)	  0  1
     56.9335	        	        	        	        	       0	(  1  1  4)	  0  1
     58.7618	        	        	        	        	       0	(  2  0  0)	  0  1
     59.1532	        	        	        	        	       0	(  2  0  1)	  0  1
     59.6020	        	        	        	        	       0	(  1  0  8)	  0  1
     60.3181	        	        	        	        	       0	(  2  0  2)	  0  1
     62.2304	        	        	        	        	       0	(  2  0  3)	  0  1
     64.6248	        	        	        	        	       0	(  1  1  6)	  0  1
     64.8533	        	        	        	        	       0	(  2  0  4)	  0  1
     65.4210	        	        	        	        	       0	(  0  0 10)	  0  1
     66.0157	        	        	        	        	       0	(  1  0  9)	  0  1
     68.1460	        	        	        	        	       0	(  2  0  5)	  0  1
     72.0717	        	        	        	        	       0	(  2  0  6)	  0  1
     72.8289	        	        	        	        	       0	(  1  0 10)	  0  1
     74.6579	        	        	        	        	       0	(  1  1  8)	  0  1
     76.6036	        	        	        	        	       0	(  2  0  7)	  0  1
     80.0832	        	        	        	        	       0	(  1  0 11)	  0  1
     80.8945	        	        	        	        	       0	(  0  0 12)	  0  1
     81.0009	        	        	        	        	       0	(  2  1  0)	  0  1
     81.3406	        	        	        	        	       0	(  2  1  1)	  0  1
     81.7314	        	        	        	        	       0	(  2  0  8)	  0  1
     82.3579	        	        	        	        	       0	(  2  1  2)	  0  1
     84.0484	        	        	        	        	       0	(  2  1  3)	  0  1
     86.4068	        	        	        	        	       0	(  2  1  4)	  0  1
     86.9232	        	        	        	        	       0	(  1  1 10)	  0  1
     87.4665	        	        	        	        	       0	(  2  0  9)	  0  1
     87.8535	        	        	        	        	       0	(  1  0 12)	  0  1
     89.4310	        	        	        	        	       0	(  2  1  5)	  0  1
     93.1264	        	        	        	        	       0	(  2  1  6)	  0  1
     93.8504	        	        	        	        	       0	(  2  0 10)	  0  1
     94.8880	        	        	        	        	       0	(  3  0  0)	  0  1
     95.2252	        	        	        	        	       0	(  3  0  1)	  0  1
     96.2379	        	        	        	        	       0	(  3  0  2)	  0  1
     96.2618	        	        	        	        	       0	(  1  0 13)	  0  1
     97.5126	        	        	        	        	       0	(  2  1  7)	  0  1
     97.9302	        	        	        	        	       0	(  3  0  3)	  0  1
     98.4239	        	        	        	        	       0	(  0  0 14)	  0  1
    100.3119	        	        	        	        	       0	(  3  0  4)	  0  1
    100.9679	        	        	        	        	       0	(  2  0 11)	  0  1
    101.7848	        	        	        	        	       0	(  1  1 12)	  0  1
    102.6320	        	        	        	        	       0	(  2  1  8)	  0  1
    103.4017	        	        	        	        	       0	(  3  0  5)	  0  1
    105.5082	        	        	        	        	       0	(  1  0 14)	  0  1
    107.2345	        	        	        	        	       0	(  3  0  6)	  0  1
    108.5649	        	        	        	        	       0	(  2  1  9)	  0  1
    108.9737	        	        	        	        	       0	(  2  0 12)	  0  1
    111.8718	        	        	        	        	       0	(  3  0  7)	  0  1
    115.4568	        	        	        	        	       0	(  2  1 10)	  0  1
    115.9430	        	        	        	        	       0	(  1  0 15)	  0  1
    116.6094	        	        	        	        	       0	(  2  2  0)	  0  1
    117.4213	        	        	        	        	       0	(  3  0  8)	  0  1
    118.1236	        	        	        	        	       0	(  2  2  2)	  0  1
    118.1506	        	        	        	        	       0	(  2  0 13)	  0  1
    119.8945	        	        	        	        	       0	(  0  0 16)	  0  1
    120.6140	        	        	        	        	       0	(  1  1 14)	  0  1
    122.8058	        	        	        	        	       0	(  2  2  4)	  0  1
    123.5771	        	        	        	        	       0	(  2  1 11)	  0  1
    124.0759	        	        	        	        	       0	(  3  0  9)	  0  1
    124.6726	        	        	        	        	       0	(  3  1  0)	  0  1
    125.0826	        	        	        	        	       0	(  3  1  1)	  0  1
    126.3251	        	        	        	        	       0	(  3  1  2)	  0  1
    128.2730	        	        	        	        	       0	(  1  0 16)	  0  1
    128.4418	        	        	        	        	       0	(  3  1  3)	  0  1
    129.0694	        	        	        	        	       0	(  2  0 14)	  0  1
    131.2390	        	        	        	        	       0	(  2  2  6)	  0  1
    131.5153	        	        	        	        	       0	(  3  1  4)	  0  1
    132.2090	        	        	        	        	       0	(  3  0 10)	  0  1
    133.4791	        	        	        	        	       0	(  2  1 12)	  0  1
    135.6987	        	        	        	        	       0	(  3  1  5)	  0  1
    141.2885	        	        	        	        	       0	(  3  1  6)	  0  1
    142.6748	        	        	        	        	       0	(  3  0 11)	  0  1
    143.1884	        	        	        	        	       0	(  2  0 15)	  0  1
    144.4155	        	        	        	        	       0	(  1  0 17)	  0  1
    145.4577	        	        	        	        	       0	(  2  2  8)	  0  1
    146.6152	        	        	        	        	       0	(  2  1 13)	  0  1
    148.9520	        	        	        	        	       0	(  3  1  7)	  0  1
    149.5045	        	        	        	        	       0	(  1  1 16)	  0  1
    153.8795	        	        	        	        	       0	(  0  0 18)	  0  1
    158.5178	        	        	        	        	       0	(  3  0 12)	  0  1
    158.8082	        	        	        	        	       0	(  4  0  0)	  0  1
    159.7631	        	        	        	        	       0	(  4  0  1)	  0  1
    160.9198	        	        	        	        	       0	(  3  1  8)	  0  1
    162.9342	        	        	        	        	       0	(  4  0  2)	  0  1
    169.4860	        	        	        	        	       0	(  2  0 16)	  0  1
    170.2464	        	        	        	        	       0	(  4  0  3)	  0  1
    173.8306	        	        	        	        	       0	(  2  1 14)	  0  1
