MSG Master    CELL:    5.87549   5.87549  23.07289   90.0000   90.0000  120.0000   SPGR: P 63/m m c             TEMP:    441.35
  2   1280     2.52000     0.00000    -0.08732     0.00000     0.00000    0
    95    95     0     0     2
       0.00000      10.00000
     125.00000     130.00000
 2Theta	Yobs	Ycal	Yobs-Ycal	Backg	Posr	(hkl)	K
      0.7700	    0.00	 1006.26	-2340.75	  863.70
      0.8700	    0.00	 1002.85	-2340.75	  860.29
      0.9700	   55.00	  999.47	-2340.75	  856.91
      1.0700	   48.00	  996.11	-2340.75	  853.54
      1.1700	   43.00	  992.76	-2340.75	  850.20
      1.2700	   46.00	  989.44	-2340.75	  846.88
      1.3700	   33.00	  986.14	-2340.75	  843.58
      1.4700	   91.00	  982.86	-2340.75	  840.30
      1.5700	  287.00	  979.60	-2340.75	  837.04
      1.6700	  477.00	  976.37	-2340.75	  833.80
      1.7700	  596.00	  973.15	-2340.75	  830.59
      1.8700	  634.00	  969.95	-2340.75	  827.39
      1.9700	  760.00	  966.78	-2340.75	  824.21
      2.0700	  732.00	  963.62	-2340.75	  821.06
      2.1700	  778.00	  960.48	-2340.75	  817.92
      2.2700	  815.00	  957.37	-2340.75	  814.81
      2.3700	  767.00	  954.27	-2340.75	  811.71
      2.4700	  752.00	  951.20	-2340.75	  808.64
      2.5700	  654.00	  948.14	-2340.75	  805.58
      2.6700	  670.00	  945.11	-2340.75	  802.55
      2.7700	  664.00	  942.09	-2340.75	  799.53
      2.8700	  672.00	  939.10	-2340.75	  796.54
      2.9700	  613.00	  936.12	-2340.75	  793.56
      3.0700	  630.00	  933.17	-2340.75	  790.61
      3.1700	  679.00	  930.23	-2340.75	  787.67
      3.2700	  744.00	  927.31	-2340.75	  784.75
      3.3700	  925.00	  924.42	-2340.75	  781.85
      3.4700	 1028.00	  921.54	-2340.75	  778.97
      3.5700	 1208.00	  918.68	-2340.75	  776.11
      3.6700	 1344.00	  915.84	-2340.75	  773.27
      3.7700	 1426.00	  913.01	-2340.75	  770.45
      3.8700	 1518.00	  910.21	-2340.75	  767.65
      3.9700	 1606.00	  907.43	-2340.75	  764.87
      4.0700	 1660.00	  904.66	-2340.75	  762.10
      4.1700	 1601.00	  901.92	-2340.75	  759.35
      4.2700	 1675.00	  899.19	-2340.75	  756.63
      4.3700	 1740.00	  896.48	-2340.75	  753.92
      4.4700	 1597.00	  893.79	-2340.75	  751.23
      4.5700	 1658.00	  891.12	-2340.75	  748.55
      4.6700	 1481.00	  888.46	-2340.75	  745.90
      4.7700	 1497.00	  885.82	-2340.75	  743.26
      4.8700	 1449.00	  883.21	-2340.75	  740.64
      4.9700	 1468.00	  880.61	-2340.75	  738.04
      5.0700	 1472.00	  878.02	-2340.75	  735.46
      5.1700	 1245.00	  875.46	-2340.75	  732.90
      5.2700	 1299.00	  872.91	-2340.75	  730.35
      5.3700	 1261.00	  870.38	-2340.75	  727.82
      5.4700	 1259.00	  867.87	-2340.75	  725.31
      5.5700	 1213.00	  865.38	-2340.75	  722.82
      5.6700	 1195.00	  862.90	-2340.75	  720.34
      5.7700	 1125.00	  860.44	-2340.75	  717.88
      5.8700	 1143.00	  858.00	-2340.75	  715.44
      5.9700	 1096.00	  855.58	-2340.75	  713.02
      6.0700	 1099.00	  853.17	-2340.75	  710.61
      6.1700	 1086.00	  850.78	-2340.75	  708.22
      6.2700	 1039.00	  848.41	-2340.75	  705.84
      6.3700	 1019.00	  846.05	-2340.75	  703.49
      6.4700	 1068.00	  843.71	-2340.75	  701.15
      6.5700	 1025.00	  841.39	-2340.75	  698.83
      6.6700	 1051.00	  839.08	-2340.75	  696.52
      6.7700	 1020.00	  836.79	-2340.75	  694.23
      6.8700	  974.00	  834.52	-2340.75	  691.96
      6.9700	  973.00	  832.26	-2340.75	  689.70
      7.0700	  967.00	  830.02	-2340.75	  687.46
      7.1700	  931.00	  827.80	-2340.75	  685.24
      7.2700	  997.00	  825.59	-2340.75	  683.03
      7.3700	  929.00	  823.40	-2340.75	  680.84
      7.4700	  888.00	  821.22	-2340.75	  678.66
      7.5700	  888.00	  819.06	-2340.75	  676.50
      7.6700	  876.00	  816.92	-2340.75	  674.36
      7.7700	  863.00	  814.79	-2340.75	  672.23
      7.8700	  915.00	  812.68	-2340.75	  670.12
      7.9700	  880.00	  810.58	-2340.75	  668.02
      8.0700	  863.00	  808.50	-2340.75	  665.94
      8.1700	  867.00	  806.44	-2340.75	  663.88
      8.2700	  807.00	  804.39	-2340.75	  661.83
      8.3700	  816.00	  802.36	-2340.75	  659.79
      8.4700	  778.00	  800.34	-2340.75	  657.77
      8.5700	  815.00	  798.33	-2340.75	  655.77
      8.6700	  807.00	  796.34	-2340.75	  653.78
      8.7700	  787.00	  794.37	-2340.75	  651.81
      8.8700	  789.00	  792.41	-2340.75	  649.85
      8.9700	  805.00	  790.47	-2340.75	  647.91
      9.0700	  793.00	  788.54	-2340.75	  645.98
      9.1700	  780.00	  786.63	-2340.75	  644.06
      9.2700	  799.00	  784.73	-2340.75	  642.17
      9.3700	  807.00	  782.84	-2340.75	  640.28
      9.4700	  853.00	  780.97	-2340.75	  638.41
      9.5700	  768.00	  779.12	-2340.75	  636.56
      9.6700	  770.00	  777.28	-2340.75	  634.72
      9.7700	  750.00	  775.45	-2340.75	  632.89
      9.8700	  733.00	  773.64	-2340.75	  631.08
      9.9700	  711.00	  771.84	-2340.75	  629.28
     10.0700	  814.00	  772.11	-2298.86	  627.50
     10.1700	  713.00	  770.57	-2398.32	  625.73
     10.2700	  782.00	  769.08	-2327.83	  623.97
     10.3700	  767.00	  767.66	-2341.41	  622.23
     10.4700	  724.00	  766.33	-2383.08	  620.50
     10.5700	  752.00	  765.14	-2353.89	  618.79
     10.6700	  817.00	  764.14	-2287.89	  617.09
     10.7700	  766.00	  763.39	-2338.14	  615.40
     10.8700	  722.00	  763.01	-2381.76	  613.73
     10.9700	  815.00	  763.07	-2288.82	  612.07
     11.0700	  761.00	  763.63	-2343.38	  610.43
     11.1700	  767.00	  764.73	-2338.48	  608.80
     11.2700	  801.00	  766.37	-2306.12	  607.18
     11.3700	  765.00	  768.59	-2344.34	  605.57
     11.4700	  741.00	  771.49	-2371.24	  603.98
     11.5700	  790.00	  775.19	-2325.94	  602.40
     11.6700	  760.00	  779.91	-2360.66	  600.83
     11.7700	  770.00	  785.92	-2356.67	  599.28
     11.8700	  801.00	  793.50	-2333.25	  597.74
     11.9700	  831.00	  802.76	-2312.51	  596.22
     12.0700	  851.00	  813.28	-2303.03	  594.70
     12.1700	  900.00	  823.56	-2264.31	  593.20
     12.2700	  907.00	  830.56	-2264.31	  591.71
     12.3700	  875.00	  829.67	-2295.42	  590.23
     12.4700	  878.00	  817.68	-2280.43	  588.77
     12.5700	  822.00	  797.90	-2316.65	  587.32
     12.6700	  774.00	  777.64	-2344.39	  585.88
     12.7700	  717.00	  761.14	-2384.89	  584.46
     12.8700	  689.00	  749.13	-2400.88	  583.04
     12.9700	  720.00	  740.84	-2361.59	  581.64
     13.0700	  696.00	  735.11	-2379.86	  580.25
     13.1700	  759.00	  730.97	-2312.72	  578.87
     13.2700	  717.00	  727.77	-2351.52	  577.51
     13.3700	  688.00	  725.10	-2377.85	  576.15
     13.4700	  661.00	  722.78	-2402.53	  574.81
     13.5700	  683.00	  720.69	-2378.44	  573.48
     13.6700	  712.00	  718.76	-2347.51	  572.16
     13.7700	  714.00	  716.96	-2343.71	  570.86
     13.8700	  701.00	  715.26	-2355.01	  569.56
     13.9700	  741.00	  713.64	-2313.39	  568.28
     14.0700	  689.00	  712.09	-2363.84	  567.01
     14.1700	  754.00	  710.59	-2297.34	  565.75
     14.2700	  710.00	  709.13	-2339.88	  564.50
     14.3700	  691.00	  707.72	-2357.47	  563.26
     14.4700	  686.00	  706.34	-2361.09	  562.04
     14.5700	  730.00	  704.99	-2315.74	  560.82
     14.6700	  696.00	  703.67	-2348.42	  559.62
     14.7700	  688.00	  702.37	-2355.12	  558.43
     14.8700	  672.00	  701.10	-2369.85	  557.25
     14.9700	  721.00	  699.84	-2319.59	  556.08
     15.0700	  683.00	  698.61	-2356.36	  554.92
     15.1700	  689.00	  697.40	-2349.15	  553.77
     15.2700	  644.00	  696.20	-2392.95	  552.63
     15.3700	  692.00	  695.02	-2343.77	  551.50
     15.4700	  711.00	  693.85	-2323.60	  550.39
     15.5700	  682.00	  692.70	-2351.45	  549.28
     15.6700	  676.00	  691.57	-2356.32	  548.19
     15.7700	  681.00	  690.45	-2350.20	  547.10
     15.8700	  644.00	  689.34	-2386.09	  546.03
     15.9700	  716.00	  688.24	-2312.99	  544.97
     16.0700	  723.00	  687.16	-2304.91	  543.91
     16.1700	  692.00	  686.09	-2334.84	  542.87
     16.2700	  694.00	  685.03	-2331.78	  541.84
     16.3700	  668.00	  683.99	-2356.74	  540.81
     16.4700	  696.00	  682.96	-2327.71	  539.80
     16.5700	  662.00	  681.93	-2360.68	  538.80
     16.6700	  681.00	  680.92	-2340.67	  537.81
     16.7700	  678.00	  679.92	-2342.68	  536.82
     16.8700	  657.00	  678.94	-2362.69	  535.85
     16.9700	  693.00	  677.96	-2325.71	  534.89
     17.0700	  685.00	  676.99	-2332.74	  533.93
     17.1700	  681.00	  676.04	-2335.79	  532.99
     17.2700	  670.00	  675.09	-2345.84	  532.06
     17.3700	  720.00	  674.16	-2294.91	  531.13
     17.4700	  657.00	  673.23	-2356.98	  530.22
     17.5700	  688.00	  672.32	-2325.07	  529.31
     17.6700	  699.00	  671.42	-2313.17	  528.42
     17.7700	  701.00	  670.52	-2310.27	  527.53
     17.8700	  703.00	  669.64	-2307.39	  526.65
     17.9700	  680.00	  668.76	-2329.51	  525.78
     18.0700	  690.00	  667.90	-2318.65	  524.92
     18.1700	  623.00	  667.04	-2384.79	  524.07
     18.2700	  691.00	  666.20	-2315.95	  523.23
     18.3700	  675.00	  665.36	-2331.11	  522.40
     18.4700	  700.00	  664.54	-2305.29	  521.58
     18.5700	  637.00	  663.72	-2367.47	  520.77
     18.6700	  736.00	  662.91	-2267.66	  519.96
     18.7700	  648.00	  662.11	-2354.86	  519.17
     18.8700	  714.00	  661.32	-2288.07	  518.38
     18.9700	  671.00	  660.54	-2330.29	  517.60
     19.0700	  731.00	  659.77	-2269.52	  516.83
     19.1700	  676.00	  662.56	-2327.31	  516.07
     19.2700	  633.00	  661.88	-2369.63	  515.31
     19.3700	  673.00	  661.21	-2328.96	  514.57
     19.4700	  611.00	  660.56	-2390.31	  513.83
     19.5700	  712.00	  659.92	-2288.67	  513.11
     19.6700	  631.00	  659.28	-2369.03	  512.39
     19.7700	  630.00	  658.66	-2369.41	  511.68
     19.8700	  663.00	  658.06	-2335.81	  510.97
     19.9700	  680.00	  657.46	-2318.21	  510.28
     20.0700	  663.00	  656.87	-2334.62	  509.59
     20.1700	  634.00	  656.30	-2363.05	  508.91
     20.2700	  657.00	  655.79	-2339.54	  508.24
     20.3700	  628.00	  655.25	-2368.00	  507.58
     20.4700	  667.00	  654.71	-2328.46	  506.93
     20.5700	  647.00	  654.19	-2347.94	  506.28
     20.6700	  680.00	  653.68	-2314.43	  505.64
     20.7700	  657.00	  653.18	-2336.94	  505.01
     20.8700	  660.00	  652.70	-2333.45	  504.39
     20.9700	  625.00	  652.23	-2367.98	  503.77
     21.0700	  653.00	  651.78	-2339.53	  503.16
     21.1700	  620.00	  651.34	-2372.09	  502.56
     21.2700	  662.00	  650.92	-2329.67	  501.97
     21.3700	  634.00	  650.51	-2357.26	  501.39
     21.4700	  676.00	  650.11	-2314.86	  500.81
     21.5700	  626.00	  649.73	-2364.48	  500.24
     21.6700	  613.00	  649.37	-2377.12	  499.67
     21.7700	  655.00	  649.03	-2334.78	  499.12
     21.8700	  618.00	  648.70	-2371.45	  498.57
     21.9700	  696.00	  648.40	-2293.15	  498.03
     22.0700	  686.00	  648.11	-2302.86	  497.49
     22.1700	  634.00	  647.84	-2354.59	  496.96
     22.2700	  634.00	  647.60	-2354.35	  496.44
     22.3700	  674.00	  647.37	-2314.12	  495.93
     22.4700	  641.00	  647.39	-2347.14	  495.42
     22.5700	  694.00	  647.22	-2293.97	  494.92
     22.6700	  648.00	  647.07	-2339.82	  494.43
     22.7700	  624.00	  646.96	-2363.71	  493.95
     22.8700	  638.00	  646.88	-2349.63	  493.47
     22.9700	  660.00	  646.84	-2327.59	  492.99
     23.0700	  643.00	  646.84	-2344.59	  492.53
     23.1700	  682.00	  646.88	-2305.63	  492.07
     23.2700	  669.00	  646.97	-2318.72	  491.61
     23.3700	  613.00	  647.11	-2374.86	  491.17
     23.4700	  618.00	  647.32	-2370.07	  490.73
     23.5700	  641.00	  647.60	-2347.35	  490.29
     23.6700	  698.00	  647.98	-2290.73	  489.87
     23.7700	  688.00	  648.47	-2301.22	  489.45
     23.8700	  662.00	  649.12	-2327.87	  489.03
     23.9700	  633.00	  649.98	-2357.73	  488.62
     24.0700	  658.00	  651.14	-2333.89	  488.22
     24.1700	  682.00	  652.77	-2311.52	  487.83
     24.2700	  663.00	  655.11	-2332.86	  487.44
     24.3700	  671.00	  658.51	-2328.26	  487.05
     24.4700	  695.00	  663.33	-2309.08	  486.67
     24.5700	  714.00	  670.03	-2296.78	  486.30
     24.6700	  689.00	  678.67	-2330.42	  485.94
     24.7700	  676.00	  688.86	-2353.61	  485.58
     24.8700	  722.00	  699.45	-2318.20	  485.22
     24.9700	  676.00	  708.18	-2372.93	  484.87
     25.0700	  706.00	  711.74	-2346.49	  484.53
     25.1700	  779.00	  707.84	-2269.59	  484.19
     25.2700	  772.00	  698.42	-2267.17	  483.86
     25.3700	  699.00	  688.10	-2329.85	  483.54
     25.4700	  726.00	  679.93	-2294.68	  483.22
     25.5700	  653.00	  674.55	-2362.30	  482.90
     25.6700	  678.00	  671.75	-2334.50	  482.59
     25.7700	  719.00	  670.90	-2292.65	  482.29
     25.8700	  683.00	  671.45	-2329.20	  481.99
     25.9700	  668.00	  672.97	-2345.72	  481.70
     26.0700	  701.00	  675.24	-2314.99	  481.41
     26.1700	  649.00	  678.16	-2369.91	  481.13
     26.2700	  680.00	  681.73	-2342.48	  480.85
     26.3700	  656.00	  686.00	-2370.75	  480.58
     26.4700	  663.00	  691.04	-2368.79	  480.31
     26.5700	  691.00	  696.99	-2346.74	  480.05
     26.6700	  720.00	  704.01	-2324.76	  479.79
     26.7700	  687.00	  712.33	-2366.08	  479.54
     26.8700	  697.00	  722.24	-2365.99	  479.30
     26.9700	  721.00	  734.14	-2353.89	  479.05
     27.0700	  702.00	  748.58	-2387.33	  478.82
     27.1700	  728.00	  766.30	-2379.05	  478.59
     27.2700	  729.00	  788.38	-2400.13	  478.36
     27.3700	  732.00	  816.52	-2425.27	  478.14
     27.4700	  824.00	  853.70	-2370.45	  477.92
     27.5700	  819.00	  906.19	-2427.94	  477.71
     27.6700	  882.00	  987.96	-2446.71	  477.50
     27.7700	  935.00	 1128.44	-2534.19	  477.30
     27.8700	 1089.00	 1382.62	-2634.37	  477.10
     27.9700	 1358.00	 1838.33	-2821.08	  476.90
     28.0700	 2082.00	 2608.19	-2866.94	  476.71
     28.1700	 3309.00	 3786.76	-2818.51	  476.53
     28.2700	 5405.00	 5356.49	-2292.24	  476.35
     28.3700	 7805.00	 7045.75	-1581.50	  476.17
     28.4700	 9363.00	 8243.54	-1221.29	  476.00
     28.5700	 8875.00	 8212.38	-1678.13	  475.83
     28.6700	 7053.00	 6921.89	-2209.64	  475.67
     28.7700	 5079.00	 5380.28	-2642.03	  475.51
     28.8700	 4228.00	 4439.41	-2552.16	  475.35
     28.9700	 4171.00	 4280.28	-2450.03	  475.20
     29.0700	 4963.00	 4620.49	-1998.24	  475.05
     29.1700	 5327.00	 4957.06	-1970.81	  474.91
     29.2700	 5038.00	 4790.46	-2093.21	  474.77
     29.3700	 3983.00	 3998.74	-2356.49	  474.64
     29.4700	 2833.00	 2978.45	-2486.20	  474.51
     29.5700	 1904.00	 2116.36	-2553.11	  474.38
     29.6700	 1339.00	 1536.60	-2538.35	  474.26
     29.7700	 1238.00	 1201.75	-2304.50	  474.14
     29.8700	  996.00	 1023.27	-2368.02	  474.02
     29.9700	  930.00	  926.20	-2336.95	  473.91
     30.0700	  904.00	  867.36	-2304.11	  473.80
     30.1700	  834.00	  827.15	-2333.90	  473.70
     30.2700	  800.00	  797.62	-2338.37	  473.60
     30.3700	  749.00	  775.42	-2367.17	  473.50
     30.4700	  785.00	  759.13	-2314.88	  473.41
     30.5700	  793.00	  748.44	-2296.19	  473.32
     30.6700	  703.00	  743.94	-2381.69	  473.24
     30.7700	  779.00	  746.85	-2308.60	  473.15
     30.8700	  775.00	  758.11	-2323.86	  473.08
     30.9700	  758.00	  776.86	-2359.61	  473.00
     31.0700	  828.00	  798.83	-2311.58	  472.93
     31.1700	  813.00	  815.48	-2343.23	  472.86
     31.2700	  863.00	  815.47	-2293.22	  472.79
     31.3700	  742.00	  793.37	-2392.12	  472.73
     31.4700	  774.00	  758.64	-2325.39	  472.67
     31.5700	  754.00	  725.04	-2311.79	  472.62
     31.6700	  687.00	  699.25	-2353.00	  472.57
     31.7700	  736.00	  681.99	-2286.74	  472.52
     31.8700	  719.00	  671.29	-2293.04	  472.47
     31.9700	  664.00	  664.71	-2341.46	  472.43
     32.0700	  707.00	  660.41	-2294.16	  472.39
     32.1700	  657.00	  657.36	-2341.11	  472.35
     32.2700	  651.00	  655.07	-2344.82	  472.32
     32.3700	  665.00	  653.30	-2329.05	  472.29
     32.4700	  698.00	  651.97	-2294.72	  472.26
     32.5700	  687.00	  651.03	-2304.78	  472.24
     32.6700	  677.00	  650.45	-2314.20	  472.22
     32.7700	  675.00	  650.25	-2316.00	  472.20
     32.8700	  727.00	  650.48	-2264.23	  472.18
     32.9700	  661.00	  651.13	-2330.88	  472.17
     33.0700	  691.00	  652.31	-2302.06	  472.16
     33.1700	  720.00	  654.16	-2274.91	  472.15
     33.2700	  662.00	  656.92	-2335.67	  472.14
     33.3700	  623.00	  661.00	-2378.75	  472.14
     33.4700	  686.00	  667.28	-2322.03	  472.14
     33.5700	  720.00	  677.42	-2298.17	  472.15
     33.6700	  719.00	  694.48	-2316.23	  472.15
     33.7700	  734.00	  723.40	-2330.15	  472.16
     33.8700	  736.00	  770.73	-2375.48	  472.17
     33.9700	  912.00	  842.57	-2271.32	  472.18
     34.0700	 1000.00	  939.80	-2280.55	  472.20
     34.1700	 1161.00	 1052.07	-2231.82	  472.21
     34.2700	 1195.00	 1153.79	-2299.54	  472.23
     34.3700	 1358.00	 1205.92	-2188.67	  472.26
     34.4700	 1278.00	 1176.00	-2238.75	  472.28
     34.5700	 1275.00	 1075.82	-2141.57	  472.31
     34.6700	  956.00	  953.84	-2338.59	  472.34
     34.7700	  867.00	  847.25	-2321.00	  472.37
     34.8700	  761.00	  769.27	-2349.02	  472.40
     34.9700	  690.00	  718.69	-2369.44	  472.44
     35.0700	  750.00	  688.42	-2279.17	  472.48
     35.1700	  694.00	  670.81	-2317.56	  472.52
     35.2700	  706.00	  660.21	-2294.96	  472.56
     35.3700	  693.00	  653.29	-2301.04	  472.61
     35.4700	  678.00	  648.38	-2311.13	  472.65
     35.5700	  619.00	  644.72	-2366.47	  472.70
     35.6700	  654.00	  641.83	-2328.58	  472.75
     35.7700	  683.00	  639.52	-2297.27	  472.80
     35.8700	  671.00	  637.67	-2307.42	  472.86
     35.9700	  655.00	  636.17	-2321.92	  472.91
     36.0700	  637.00	  634.96	-2338.71	  472.97
     36.1700	  585.00	  633.98	-2389.73	  473.03
     36.2700	  621.00	  633.21	-2352.96	  473.09
     36.3700	  716.00	  632.62	-2257.37	  473.16
     36.4700	  624.00	  632.18	-2348.93	  473.22
     36.5700	  629.00	  631.90	-2343.65	  473.29
     36.6700	  638.00	  631.77	-2334.52	  473.36
     36.7700	  600.00	  631.79	-2372.54	  473.43
     36.8700	  692.00	  631.99	-2280.74	  473.50
     36.9700	  596.00	  632.37	-2377.12	  473.58
     37.0700	  640.00	  633.19	-2333.94	  473.65
     37.1700	  669.00	  634.13	-2305.88	  473.73
     37.2700	  609.00	  636.02	-2367.77	  473.81
     37.3700	  695.00	  638.05	-2283.80	  473.89
     37.4700	  588.00	  641.13	-2393.88	  473.97
     37.5700	  643.00	  645.87	-2343.62	  474.05
     37.6700	  699.00	  653.38	-2295.13	  474.14
     37.7700	  712.00	  665.09	-2293.84	  474.22
     37.8700	  656.00	  682.69	-2367.44	  474.31
     37.9700	  685.00	  707.45	-2363.20	  474.40
     38.0700	  737.00	  737.00	-2340.75	  474.49
     38.1700	  774.00	  772.33	-2339.08	  474.58
     38.2700	  763.00	  804.44	-2382.19	  474.67
     38.3700	  852.00	  822.90	-2311.65	  474.77
     38.4700	  781.00	  817.91	-2377.66	  474.86
     38.5700	  783.00	  790.05	-2347.80	  474.96
     38.6700	  699.00	  751.62	-2393.37	  475.06
     38.7700	  743.00	  714.78	-2312.53	  475.16
     38.8700	  682.00	  685.44	-2344.19	  475.26
     38.9700	  664.00	  664.71	-2341.46	  475.36
     39.0700	  662.00	  651.31	-2330.06	  475.46
     39.1700	  676.00	  643.11	-2307.86	  475.56
     39.2700	  608.00	  638.16	-2370.91	  475.67
     39.3700	  598.00	  635.06	-2377.81	  475.77
     39.4700	  613.00	  632.99	-2360.74	  475.88
     39.5700	  604.00	  630.23	-2366.98	  475.99
     39.6700	  641.00	  629.14	-2328.89	  476.10
     39.7700	  662.00	  628.30	-2307.05	  476.21
     39.8700	  678.00	  627.65	-2290.40	  476.32
     39.9700	  629.00	  627.15	-2338.90	  476.43
     40.0700	  616.00	  626.76	-2351.51	  476.54
     40.1700	  618.00	  626.47	-2349.22	  476.65
     40.2700	  642.00	  626.25	-2325.00	  476.77
     40.3700	  670.00	  626.10	-2296.85	  476.88
     40.4700	  660.00	  626.01	-2306.76	  477.00
     40.5700	  622.00	  625.97	-2344.72	  477.12
     40.6700	  627.00	  625.97	-2339.72	  477.23
     40.7700	  619.00	  626.01	-2347.76	  477.35
     40.8700	  670.00	  626.63	-2297.38	  477.47
     40.9700	  642.00	  626.76	-2325.51	  477.59
     41.0700	  649.00	  626.94	-2318.69	  477.71
     41.1700	  650.00	  627.15	-2317.90	  477.83
     41.2700	  649.00	  627.42	-2319.17	  477.95
     41.3700	  619.00	  627.79	-2349.54	  478.07
     41.4700	  600.00	  628.16	-2368.91	  478.19
     41.5700	  585.00	  628.61	-2384.36	  478.32
     41.6700	  644.00	  629.14	-2325.89	  478.44
     41.7700	  629.00	  629.79	-2341.54	  478.57
     41.8700	  667.00	  630.57	-2304.32	  478.69
     41.9700	  625.00	  631.57	-2347.32	  478.81
     42.0700	  651.00	  632.89	-2322.64	  478.94
     42.1700	  629.00	  634.76	-2346.51	  479.07
     42.2700	  639.00	  637.57	-2339.32	  479.19
     42.3700	  634.00	  641.95	-2348.70	  479.32
     42.4700	  620.00	  648.74	-2369.49	  479.45
     42.5700	  633.00	  659.03	-2366.78	  479.57
     42.6700	  656.00	  673.56	-2358.31	  479.70
     42.7700	  674.00	  692.29	-2359.04	  479.83
     42.8700	  689.00	  713.61	-2365.36	  479.96
     42.9700	  696.00	  733.58	-2378.33	  480.09
     43.0700	  765.00	  746.08	-2321.83	  480.22
     43.1700	  665.00	  745.58	-2421.33	  480.35
     43.2700	  706.00	  732.02	-2366.77	  480.48
     43.3700	  706.00	  711.41	-2346.16	  480.61
     43.4700	  690.00	  690.25	-2341.00	  480.74
     43.5700	  585.00	  672.34	-2428.09	  480.87
     43.6700	  665.00	  658.85	-2334.60	  481.00
     43.7700	  619.00	  649.54	-2371.29	  481.13
     43.8700	  624.00	  643.57	-2360.32	  481.26
     43.9700	  641.00	  639.91	-2339.66	  481.39
     44.0700	  673.00	  637.89	-2305.64	  481.52
     44.1700	  613.00	  636.51	-2364.26	  481.65
     44.2700	  657.00	  635.62	-2319.37	  481.78
     44.3700	  629.00	  635.02	-2346.77	  481.91
     44.4700	  594.00	  634.61	-2381.36	  482.04
     44.5700	  672.00	  634.33	-2303.08	  482.18
     44.6700	  654.00	  634.16	-2320.91	  482.31
     44.7700	  687.00	  634.07	-2287.82	  482.44
     44.8700	  687.00	  634.04	-2287.79	  482.57
     44.9700	  626.00	  634.09	-2348.84	  482.70
     45.0700	  638.00	  634.17	-2336.92	  482.83
     45.1700	  625.00	  634.55	-2350.30	  482.96
     45.2700	  592.00	  634.71	-2383.46	  483.09
     45.3700	  622.00	  634.90	-2353.65	  483.22
     45.4700	  670.00	  635.13	-2305.88	  483.35
     45.5700	  642.00	  635.38	-2334.13	  483.48
     45.6700	  634.00	  635.67	-2342.42	  483.61
     45.7700	  645.00	  635.99	-2331.74	  483.74
     45.8700	  671.00	  636.42	-2306.17	  483.87
     45.9700	  651.00	  636.80	-2326.55	  484.00
     46.0700	  637.00	  637.21	-2340.96	  484.13
     46.1700	  683.00	  637.66	-2295.41	  484.26
     46.2700	  596.00	  638.15	-2382.90	  484.39
     46.3700	  653.00	  638.70	-2326.45	  484.52
     46.4700	  679.00	  639.27	-2301.02	  484.65
     46.5700	  616.00	  639.71	-2364.46	  484.78
     46.6700	  626.00	  640.57	-2355.32	  484.90
     46.7700	  592.00	  641.34	-2390.09	  485.03
     46.8700	  625.00	  642.21	-2357.96	  485.16
     46.9700	  640.00	  643.19	-2343.94	  485.29
     47.0700	  641.00	  644.32	-2344.07	  485.41
     47.1700	  611.00	  645.64	-2375.39	  485.54
     47.2700	  660.00	  647.28	-2328.03	  485.66
     47.3700	  650.00	  649.40	-2340.15	  485.79
     47.4700	  627.00	  652.30	-2366.05	  485.91
     47.5700	  629.00	  656.43	-2368.18	  486.04
     47.6700	  694.00	  662.41	-2309.16	  486.16
     47.7700	  664.00	  670.86	-2347.61	  486.28
     47.8700	  683.00	  682.32	-2340.07	  486.41
     47.9700	  702.00	  696.83	-2335.58	  486.53
     48.0700	  705.00	  713.57	-2349.32	  486.65
     48.1700	  753.00	  730.43	-2318.18	  486.77
     48.2700	  724.00	  743.78	-2360.53	  486.89
     48.3700	  708.00	  749.47	-2382.22	  487.01
     48.4700	  692.00	  745.68	-2394.43	  487.13
     48.5700	  759.00	  734.77	-2316.52	  487.25
     48.6700	  696.00	  721.65	-2366.40	  487.37
     48.7700	  713.00	  709.04	-2336.79	  487.49
     48.8700	  665.00	  699.29	-2375.04	  487.61
     48.9700	  649.00	  693.08	-2384.83	  487.72
     49.0700	  661.00	  690.37	-2370.12	  487.84
     49.1700	  703.00	  690.74	-2328.49	  487.96
     49.2700	  694.00	  693.76	-2340.51	  488.07
     49.3700	  671.00	  699.21	-2368.96	  488.18
     49.4700	  709.00	  707.27	-2339.02	  488.30
     49.5700	  696.00	  718.89	-2363.64	  488.41
     49.6700	  714.00	  736.69	-2363.44	  488.52
     49.7700	  753.00	  766.61	-2354.36	  488.63
     49.8700	  750.00	  820.70	-2411.45	  488.74
     49.9700	  974.00	  919.86	-2286.61	  488.85
     50.0700	 1126.00	 1093.79	-2308.54	  488.96
     50.1700	 1460.00	 1373.90	-2254.65	  489.07
     50.2700	 1906.00	 1776.82	-2211.57	  489.18
     50.3700	 2407.00	 2281.48	-2215.23	  489.29
     50.4700	 2913.00	 2809.96	-2237.71	  489.39
     50.5700	 3212.00	 3224.61	-2353.36	  489.50
     50.6700	 3293.00	 3369.50	-2417.25	  489.60
     50.7700	 3114.00	 3174.75	-2401.50	  489.71
     50.8700	 2698.00	 2728.56	-2371.31	  489.81
     50.9700	 2068.00	 2195.67	-2468.42	  489.91
     51.0700	 1691.00	 1708.26	-2358.01	  490.01
     51.1700	 1277.00	 1332.97	-2396.72	  490.11
     51.2700	 1085.00	 1082.33	-2338.08	  490.21
     51.3700	  931.00	  934.52	-2344.27	  490.31
     51.4700	  836.00	  855.77	-2360.52	  490.41
     51.5700	  839.00	  815.69	-2317.44	  490.50
     51.6700	  775.00	  793.10	-2358.85	  490.60
     51.7700	  751.00	  776.53	-2366.28	  490.70
     51.8700	  793.00	  761.61	-2309.36	  490.79
     51.9700	  761.00	  747.98	-2327.73	  490.88
     52.0700	  780.00	  736.36	-2297.11	  490.97
     52.1700	  749.00	  727.17	-2318.92	  491.07
     52.2700	  774.00	  720.27	-2287.02	  491.16
     52.3700	  772.00	  715.17	-2283.92	  491.25
     52.4700	  744.00	  711.32	-2308.07	  491.33
     52.5700	  704.00	  708.50	-2345.25	  491.42
     52.6700	  739.00	  706.95	-2308.70	  491.51
     52.7700	  710.00	  707.10	-2337.85	  491.59
     52.8700	  687.00	  709.55	-2363.30	  491.68
     52.9700	  713.00	  715.17	-2342.92	  491.76
     53.0700	  728.00	  725.37	-2338.12	  491.84
     53.1700	  746.00	  742.23	-2336.98	  491.92
     53.2700	  774.00	  768.61	-2335.36	  492.00
     53.3700	  801.00	  807.77	-2347.52	  492.08
     53.4700	  820.00	  862.67	-2383.42	  492.16
     53.5700	  928.00	  934.77	-2347.52	  492.24
     53.6700	 1071.00	 1022.48	-2292.23	  492.31
     53.7700	 1139.00	 1119.48	-2321.23	  492.39
     53.8700	 1192.00	 1212.30	-2361.05	  492.46
     53.9700	 1289.00	 1280.68	-2332.43	  492.54
     54.0700	 1385.00	 1303.17	-2258.92	  492.61
     54.1700	 1296.00	 1271.13	-2315.88	  492.68
     54.2700	 1143.00	 1196.43	-2394.18	  492.75
     54.3700	 1173.00	 1101.67	-2269.42	  492.81
     54.4700	 1013.00	 1006.36	-2334.11	  492.88
     54.5700	  929.00	  922.20	-2333.95	  492.95
     54.6700	  843.00	  854.44	-2352.19	  493.01
     54.7700	  776.00	  803.81	-2368.56	  493.08
     54.8700	  736.00	  768.38	-2373.13	  493.14
     54.9700	  724.00	  744.96	-2361.71	  493.20
     55.0700	  726.00	  730.22	-2344.97	  493.26
     55.1700	  718.00	  721.35	-2344.10	  493.32
     55.2700	  680.00	  716.34	-2377.09	  493.38
     55.3700	  681.00	  713.89	-2373.64	  493.43
     55.4700	  693.00	  713.25	-2361.00	  493.49
     55.5700	  740.00	  714.03	-2314.78	  493.54
     55.6700	  724.00	  716.08	-2332.83	  493.60
     55.7700	  746.00	  719.40	-2314.15	  493.65
     55.8700	  706.00	  724.12	-2358.87	  493.70
     55.9700	  706.00	  730.52	-2365.27	  493.75
     56.0700	  736.00	  739.15	-2343.90	  493.80
     56.1700	  757.00	  751.11	-2334.86	  493.84
     56.2700	  773.00	  768.46	-2336.21	  493.89
     56.3700	  761.00	  794.91	-2374.66	  493.94
     56.4700	  812.00	  836.67	-2365.42	  493.98
     56.5700	  921.00	  903.08	-2322.83	  494.02
     56.6700	  998.00	 1006.35	-2349.10	  494.06
     56.7700	 1123.00	 1159.70	-2377.45	  494.10
     56.8700	 1393.00	 1373.51	-2321.26	  494.14
     56.9700	 1641.00	 1649.63	-2349.38	  494.18
     57.0700	 2032.00	 1975.07	-2283.82	  494.21
     57.1700	 2390.00	 2316.00	-2266.75	  494.25
     57.2700	 2665.00	 2614.12	-2289.87	  494.28
     57.3700	 2790.00	 2793.21	-2343.96	  494.31
     57.4700	 2603.00	 2792.45	-2530.20	  494.34
     57.5700	 2537.00	 2611.89	-2415.64	  494.37
     57.6700	 2239.00	 2313.21	-2414.96	  494.40
     57.7700	 1907.00	 1973.46	-2407.21	  494.43
     57.8700	 1495.00	 1651.01	-2496.76	  494.45
     57.9700	 1334.00	 1379.09	-2385.84	  494.48
     58.0700	 1079.00	 1170.38	-2432.13	  494.50
     58.1700	  926.00	 1023.18	-2437.93	  494.52
     58.2700	  901.00	  927.74	-2367.49	  494.54
     58.3700	  899.00	  872.27	-2314.02	  494.56
     58.4700	  825.00	  846.96	-2362.71	  494.58
     58.5700	  835.00	  845.90	-2351.65	  494.60
     58.6700	  861.00	  866.69	-2346.44	  494.61
     58.7700	  901.00	  908.89	-2348.64	  494.62
     58.8700	  975.00	  972.06	-2337.81	  494.64
     58.9700	 1053.00	 1053.31	-2341.06	  494.65
     59.0700	 1113.00	 1145.64	-2373.39	  494.66
     59.1700	 1242.00	 1237.36	-2336.11	  494.67
     59.2700	 1269.00	 1314.90	-2386.65	  494.67
     59.3700	 1326.00	 1369.27	-2384.02	  494.68
     59.4700	 1412.00	 1398.74	-2327.49	  494.68
     59.5700	 1380.00	 1403.35	-2364.10	  494.69
     59.6700	 1331.00	 1382.45	-2392.20	  494.69
     59.7700	 1346.00	 1340.83	-2335.58	  494.69
     59.8700	 1333.00	 1291.83	-2299.58	  494.69
     59.9700	 1376.00	 1251.29	-2216.04	  494.68
     60.0700	 1241.00	 1230.92	-2330.67	  494.68
     60.1700	 1289.00	 1237.49	-2289.24	  494.67
     60.2700	 1334.00	 1274.78	-2281.53	  494.67
     60.3700	 1424.00	 1343.97	-2260.72	  494.66
     60.4700	 1454.00	 1440.62	-2327.37	  494.65
     60.5700	 1562.00	 1550.87	-2329.62	  494.64
     60.6700	 1709.00	 1650.10	-2281.85	  494.63
     60.7700	 1669.00	 1706.39	-2378.14	  494.62
     60.8700	 1675.00	 1693.30	-2359.05	  494.60
     60.9700	 1522.00	 1607.59	-2426.34	  494.58
     61.0700	 1442.00	 1471.50	-2370.25	  494.57
     61.1700	 1305.00	 1316.24	-2351.99	  494.55
     61.2700	 1141.00	 1167.49	-2367.24	  494.53
     61.3700	 1019.00	 1041.54	-2363.29	  494.51
     61.4700	  886.00	  945.92	-2400.67	  494.48
     61.5700	  907.00	  881.79	-2315.54	  494.46
     61.6700	  851.00	  846.87	-2336.62	  494.43
     61.7700	  813.00	  838.48	-2366.23	  494.41
     61.8700	  837.00	  855.81	-2359.56	  494.38
     61.9700	  938.00	  900.68	-2303.43	  494.35
     62.0700	 1015.00	  976.81	-2302.56	  494.32
     62.1700	 1167.00	 1087.70	-2261.45	  494.28
     62.2700	 1294.00	 1233.57	-2280.32	  494.25
     62.3700	 1442.00	 1408.18	-2306.93	  494.22
     62.4700	 1658.00	 1596.33	-2279.08	  494.18
     62.5700	 1818.00	 1772.03	-2294.78	  494.14
     62.6700	 1935.00	 1899.99	-2305.74	  494.10
     62.7700	 1971.00	 1945.30	-2315.05	  494.06
     62.8700	 1880.00	 1893.01	-2353.76	  494.02
     62.9700	 1724.00	 1759.41	-2376.16	  493.97
     63.0700	 1535.00	 1580.09	-2385.84	  493.93
     63.1700	 1328.00	 1390.01	-2402.76	  493.88
     63.2700	 1169.00	 1214.36	-2386.11	  493.84
     63.3700	 1040.00	 1067.55	-2368.30	  493.79
     63.4700	  956.00	  954.74	-2339.49	  493.74
     63.5700	  901.00	  874.43	-2314.18	  493.68
     63.6700	  839.00	  821.26	-2323.01	  493.63
     63.7700	  811.00	  788.51	-2318.26	  493.58
     63.8700	  791.00	  770.26	-2320.01	  493.52
     63.9700	  715.00	  762.15	-2387.90	  493.46
     64.0700	  812.00	  761.92	-2290.67	  493.40
     64.1700	  777.00	  768.52	-2332.27	  493.34
     64.2700	  789.00	  784.12	-2335.87	  493.28
     64.3700	  845.00	  810.74	-2306.49	  493.22
     64.4700	  841.00	  851.90	-2351.65	  493.16
     64.5700	  925.00	  911.57	-2327.32	  493.09
     64.6700	 1004.00	  993.19	-2329.94	  493.02
     64.7700	 1163.00	 1098.38	-2276.13	  492.95
     64.8700	 1206.00	 1225.38	-2360.13	  492.89
     64.9700	 1391.00	 1367.34	-2317.09	  492.81
     65.0700	 1464.00	 1511.17	-2387.92	  492.74
     65.1700	 1585.00	 1637.88	-2393.63	  492.67
     65.2700	 1643.00	 1725.99	-2423.74	  492.59
     65.3700	 1748.00	 1757.62	-2350.37	  492.52
     65.4700	 1639.00	 1725.38	-2427.13	  492.44
     65.5700	 1630.00	 1636.45	-2347.20	  492.36
     65.6700	 1421.00	 1511.06	-2430.81	  492.28
     65.7700	 1346.00	 1371.66	-2366.41	  492.20
     65.8700	 1143.00	 1236.56	-2434.31	  492.11
     65.9700	 1085.00	 1116.76	-2372.51	  492.03
     66.0700	  937.00	 1017.19	-2420.94	  491.94
     66.1700	  931.00	  938.38	-2348.13	  491.86
     66.2700	  858.00	  878.45	-2361.20	  491.77
     66.3700	  822.00	  834.25	-2353.00	  491.68
     66.4700	  785.00	  802.51	-2358.26	  491.59
     66.5700	  755.00	  780.12	-2365.87	  491.50
     66.6700	  769.00	  764.56	-2336.31	  491.40
     66.7700	  728.00	  754.02	-2366.77	  491.31
     66.8700	  683.00	  747.31	-2405.06	  491.21
     66.9700	  790.00	  743.72	-2294.47	  491.11
     67.0700	  727.00	  742.90	-2356.65	  491.01
     67.1700	  739.00	  744.84	-2346.59	  490.91
     67.2700	  754.00	  750.00	-2336.75	  490.81
     67.3700	  764.00	  759.15	-2335.90	  490.71
     67.4700	  776.00	  774.14	-2338.90	  490.61
     67.5700	  795.00	  797.98	-2343.73	  490.50
     67.6700	  803.00	  834.76	-2372.51	  490.39
     67.7700	  840.00	  890.36	-2391.11	  490.29
     67.8700	  975.00	  971.76	-2337.51	  490.18
     67.9700	 1100.00	 1086.07	-2326.82	  490.07
     68.0700	 1206.00	 1238.94	-2373.69	  489.95
     68.1700	 1479.00	 1432.46	-2294.21	  489.84
     68.2700	 1601.00	 1662.81	-2402.56	  489.73
     68.3700	 1962.00	 1918.20	-2296.95	  489.61
     68.4700	 2141.00	 2176.99	-2376.74	  489.49
     68.5700	 2425.00	 2407.11	-2322.86	  489.38
     68.6700	 2574.00	 2568.56	-2335.31	  489.26
     68.7700	 2649.00	 2624.75	-2316.50	  489.14
     68.8700	 2561.00	 2560.82	-2340.57	  489.01
     68.9700	 2479.00	 2393.30	-2255.05	  488.89
     69.0700	 2151.00	 2159.64	-2349.39	  488.77
     69.1700	 1922.00	 1899.62	-2318.37	  488.64
     69.2700	 1639.00	 1644.66	-2346.41	  488.51
     69.3700	 1319.00	 1415.70	-2437.45	  488.39
     69.4700	 1251.00	 1223.99	-2313.74	  488.26
     69.5700	 1135.00	 1072.95	-2278.70	  488.13
     69.6700	 1019.00	  960.18	-2281.93	  488.00
     69.7700	  968.00	  879.79	-2252.54	  487.86
     69.8700	  927.00	  824.60	-2238.35	  487.73
     69.9700	  843.00	  787.68	-2285.43	  487.59
     70.0700	  808.00	  763.26	-2296.01	  487.46
     70.1700	  765.00	  747.05	-2322.80	  487.32
     70.2700	  771.00	  736.10	-2305.85	  487.18
     70.3700	  732.00	  728.53	-2337.28	  487.04
     70.4700	  709.00	  723.24	-2354.99	  486.90
     70.5700	  751.00	  719.58	-2309.33	  486.76
     70.6700	  750.00	  717.20	-2307.95	  486.61
     70.7700	  734.00	  715.97	-2322.72	  486.47
     70.8700	  683.00	  715.84	-2373.59	  486.32
     70.9700	  754.00	  716.91	-2303.66	  486.18
     71.0700	  710.00	  719.41	-2350.16	  486.03
     71.1700	  739.00	  723.61	-2325.36	  485.88
     71.2700	  751.00	  730.68	-2320.43	  485.73
     71.3700	  759.00	  741.69	-2323.44	  485.58
     71.4700	  786.00	  758.55	-2313.30	  485.43
     71.5700	  784.00	  783.96	-2340.71	  485.27
     71.6700	  848.00	  821.42	-2314.17	  485.12
     71.7700	  944.00	  874.98	-2271.73	  484.96
     71.8700	 1006.00	  948.93	-2283.68	  484.81
     71.9700	 1095.00	 1046.83	-2292.58	  484.65
     72.0700	 1193.00	 1170.59	-2318.34	  484.49
     72.1700	 1299.00	 1319.21	-2360.96	  484.33
     72.2700	 1538.00	 1487.68	-2290.43	  484.17
     72.3700	 1725.00	 1665.99	-2281.74	  484.01
     72.4700	 1854.00	 1838.52	-2325.27	  483.84
     72.5700	 1976.00	 1984.11	-2348.86	  483.68
     72.6700	 2051.00	 2078.62	-2368.37	  483.51
     72.7700	 2026.00	 2102.36	-2417.11	  483.35
     72.8700	 1948.00	 2049.75	-2442.50	  483.18
     72.9700	 1876.00	 1932.68	-2397.43	  483.01
     73.0700	 1749.00	 1773.68	-2365.43	  482.84
     73.1700	 1587.00	 1597.03	-2350.78	  482.67
     73.2700	 1385.00	 1420.48	-2376.23	  482.50
     73.3700	 1271.00	 1258.10	-2327.85	  482.33
     73.4700	 1112.00	 1117.81	-2346.56	  482.16
     73.5700	 1010.00	 1002.88	-2333.63	  481.98
     73.6700	  903.00	  913.05	-2350.80	  481.81
     73.7700	  836.00	  845.69	-2350.44	  481.63
     73.8700	  819.00	  796.91	-2318.66	  481.45
     73.9700	  764.00	  762.58	-2339.33	  481.28
     74.0700	  759.00	  738.87	-2320.62	  481.10
     74.1700	  714.00	  722.18	-2348.93	  480.92
     74.2700	  715.00	  711.28	-2337.03	  480.74
     74.3700	  717.00	  704.08	-2327.83	  480.55
     74.4700	  664.00	  699.59	-2376.34	  480.37
     74.5700	  756.00	  697.20	-2281.95	  480.19
     74.6700	  689.00	  696.50	-2348.25	  480.00
     74.7700	  757.00	  697.22	-2280.97	  479.82
     74.8700	  722.00	  699.07	-2317.82	  479.63
     74.9700	  734.00	  701.67	-2308.42	  479.44
     75.0700	  760.00	  704.73	-2285.48	  479.26
     75.1700	  733.00	  707.64	-2315.39	  479.07
     75.2700	  738.00	  709.82	-2312.57	  478.88
     75.3700	  761.00	  710.70	-2290.45	  478.69
     75.4700	  768.00	  710.03	-2282.78	  478.50
     75.5700	  699.00	  708.00	-2349.75	  478.30
     75.6700	  770.00	  705.19	-2275.94	  478.11
     75.7700	  721.00	  702.47	-2322.22	  477.92
     75.8700	  738.00	  700.67	-2303.42	  477.72
     75.9700	  770.00	  700.93	-2271.68	  477.53
     76.0700	  775.00	  704.19	-2269.94	  477.33
     76.1700	  745.00	  711.57	-2307.32	  477.13
     76.2700	  726.00	  724.21	-2338.96	  476.93
     76.3700	  785.00	  743.25	-2299.00	  476.74
     76.4700	  766.00	  769.63	-2344.38	  476.54
     76.5700	  840.00	  803.92	-2304.67	  476.34
     76.6700	  829.00	  846.04	-2357.79	  476.14
     76.7700	  845.00	  895.03	-2390.78	  475.93
     76.8700	  943.00	  948.88	-2346.63	  475.73
     76.9700	  979.00	 1004.24	-2365.99	  475.53
     77.0700	 1072.00	 1056.39	-2325.14	  475.32
     77.1700	 1035.00	 1099.35	-2405.10	  475.12
     77.2700	 1115.00	 1126.68	-2352.43	  474.91
     77.3700	 1052.00	 1133.36	-2422.11	  474.71
     77.4700	 1025.00	 1117.93	-2433.68	  474.50
     77.5700	 1048.00	 1083.31	-2376.06	  474.29
     77.6700	 1025.00	 1035.09	-2350.84	  474.09
     77.7700	  993.00	  980.07	-2327.82	  473.88
     77.8700	  877.00	  923.57	-2387.32	  473.67
     77.9700	  876.00	  869.76	-2334.51	  473.46
     78.0700	  813.00	  821.42	-2349.17	  473.25
     78.1700	  839.00	  780.09	-2281.84	  473.04
     78.2700	  743.00	  746.27	-2344.02	  472.83
     78.3700	  682.00	  719.68	-2378.43	  472.61
     78.4700	  718.00	  699.50	-2322.25	  472.40
     78.5700	  666.00	  684.65	-2359.40	  472.19
     78.6700	  718.00	  674.00	-2296.75	  471.97
     78.7700	  666.00	  666.49	-2341.24	  471.76
     78.8700	  657.00	  661.26	-2345.01	  471.54
     78.9700	  678.00	  657.63	-2320.38	  471.33
     79.0700	  705.00	  655.06	-2290.81	  471.11
     79.1700	  654.00	  653.33	-2340.08	  470.89
     79.2700	  638.00	  652.19	-2354.94	  470.68
     79.3700	  634.00	  651.50	-2358.25	  470.46
     79.4700	  619.00	  651.22	-2372.97	  470.24
     79.5700	  622.00	  651.31	-2370.06	  470.02
     79.6700	  685.00	  651.80	-2307.55	  469.80
     79.7700	  668.00	  652.74	-2325.49	  469.58
     79.8700	  662.00	  654.21	-2332.96	  469.36
     79.9700	  654.00	  656.35	-2343.10	  469.14
     80.0700	  643.00	  659.38	-2357.13	  468.92
     80.1700	  656.00	  663.64	-2348.39	  468.70
     80.2700	  678.00	  669.65	-2332.40	  468.47
     80.3700	  665.00	  678.20	-2353.95	  468.25
     80.4700	  702.00	  690.40	-2329.15	  468.03
     80.5700	  751.00	  707.48	-2297.23	  467.81
     80.6700	  756.00	  731.82	-2316.57	  467.58
     80.7700	  826.00	  765.28	-2280.03	  467.36
     80.8700	  866.00	  810.08	-2284.83	  467.13
     80.9700	  900.00	  868.16	-2308.91	  466.91
     81.0700	  972.00	  940.78	-2309.53	  466.68
     81.1700	 1029.00	 1028.04	-2339.79	  466.46
     81.2700	 1146.00	 1128.27	-2323.02	  466.23
     81.3700	 1297.00	 1237.70	-2281.45	  466.01
     81.4700	 1445.00	 1350.18	-2245.93	  465.78
     81.5700	 1472.00	 1457.43	-2326.18	  465.55
     81.6700	 1549.00	 1549.81	-2341.56	  465.33
     81.7700	 1591.00	 1618.10	-2367.85	  465.10
     81.8700	 1670.00	 1655.77	-2326.52	  464.87
     81.9700	 1694.00	 1660.30	-2307.05	  464.64
     82.0700	 1607.00	 1632.91	-2366.66	  464.41
     82.1700	 1570.00	 1577.78	-2348.53	  464.19
     82.2700	 1513.00	 1501.48	-2329.23	  463.96
     82.3700	 1369.00	 1411.91	-2383.66	  463.73
     82.4700	 1337.00	 1316.78	-2320.53	  463.50
     82.5700	 1149.00	 1222.45	-2414.20	  463.27
     82.6700	 1086.00	 1133.57	-2388.32	  463.04
     82.7700	 1033.00	 1053.27	-2361.02	  462.81
     82.8700	  951.00	  983.19	-2372.94	  462.58
     82.9700	  893.00	  923.59	-2371.34	  462.35
     83.0700	  832.00	  873.66	-2382.41	  462.12
     83.1700	  825.00	  832.01	-2347.76	  461.89
     83.2700	  799.00	  797.23	-2338.98	  461.66
     83.3700	  696.00	  768.19	-2412.94	  461.43
     83.4700	  697.00	  744.13	-2387.88	  461.20
     83.5700	  666.00	  724.56	-2399.31	  460.97
     83.6700	  681.00	  709.17	-2368.92	  460.74
     83.7700	  703.00	  697.77	-2335.52	  460.50
     83.8700	  722.00	  690.17	-2308.92	  460.27
     83.9700	  683.00	  686.19	-2343.94	  460.04
     84.0700	  619.00	  685.55	-2407.30	  459.81
     84.1700	  708.00	  687.84	-2320.59	  459.58
     84.2700	  671.00	  692.35	-2362.10	  459.35
     84.3700	  719.00	  698.69	-2320.44	  459.12
     84.4700	  692.00	  705.84	-2354.59	  458.89
     84.5700	  730.00	  712.78	-2323.53	  458.65
     84.6700	  666.00	  718.36	-2393.11	  458.42
     84.7700	  688.00	  721.71	-2374.46	  458.19
     84.8700	  676.00	  721.95	-2386.70	  457.96
     84.9700	  783.00	  718.81	-2276.56	  457.73
     85.0700	  662.00	  712.59	-2391.34	  457.50
     85.1700	  660.00	  704.02	-2384.77	  457.27
     85.2700	  662.00	  694.04	-2372.79	  457.04
     85.3700	  648.00	  683.55	-2376.30	  456.80
     85.4700	  668.00	  673.34	-2346.09	  456.57
     85.5700	  665.00	  664.01	-2339.76	  456.34
     85.6700	  644.00	  656.03	-2352.78	  456.11
     85.7700	  646.00	  649.68	-2344.43	  455.88
     85.8700	  653.00	  645.16	-2332.91	  455.65
     85.9700	  671.00	  642.53	-2312.28	  455.42
     86.0700	  635.00	  641.82	-2347.57	  455.19
     86.1700	  632.00	  643.02	-2351.77	  454.96
     86.2700	  655.00	  646.08	-2331.83	  454.73
     86.3700	  642.00	  650.94	-2349.69	  454.50
     86.4700	  689.00	  657.52	-2309.27	  454.27
     86.5700	  680.00	  665.66	-2326.41	  454.04
     86.6700	  676.00	  675.13	-2339.88	  453.82
     86.7700	  694.00	  685.62	-2332.37	  453.59
     86.8700	  745.00	  696.72	-2292.47	  453.36
     86.9700	  715.00	  707.92	-2333.67	  453.13
     87.0700	  643.00	  718.65	-2416.40	  452.90
     87.1700	  689.00	  728.33	-2380.08	  452.68
     87.2700	  704.00	  736.55	-2373.30	  452.45
     87.3700	  738.00	  743.23	-2345.98	  452.22
     87.4700	  715.00	  748.64	-2374.39	  451.99
     87.5700	  686.00	  753.30	-2408.05	  451.77
     87.6700	  750.00	  757.77	-2348.52	  451.54
     87.7700	  795.00	  762.46	-2308.21	  451.32
     87.8700	  743.00	  767.49	-2365.24	  451.09
     87.9700	  759.00	  772.72	-2354.47	  450.87
     88.0700	  765.00	  777.68	-2353.43	  450.64
     88.1700	  762.00	  781.61	-2360.36	  450.42
     88.2700	  783.00	  783.59	-2341.34	  450.19
     88.3700	  762.00	  782.75	-2361.50	  449.97
     88.4700	  731.00	  778.56	-2388.31	  449.75
     88.5700	  741.00	  771.01	-2370.76	  449.53
     88.6700	  798.00	  760.61	-2303.36	  449.30
     88.7700	  753.00	  748.20	-2335.95	  449.08
     88.8700	  720.00	  734.71	-2355.46	  448.86
     88.9700	  735.00	  720.64	-2326.39	  448.64
     89.0700	  693.00	  707.63	-2355.38	  448.42
     89.1700	  692.00	  695.91	-2344.66	  448.20
     89.2700	  700.00	  685.98	-2326.73	  447.98
     89.3700	  643.00	  678.16	-2375.91	  447.76
     89.4700	  683.00	  672.60	-2330.35	  447.55
     89.5700	  636.00	  669.25	-2374.00	  447.33
     89.6700	  754.00	  667.93	-2254.68	  447.11
     89.7700	  702.00	  668.30	-2307.05	  446.90
     89.8700	  703.00	  669.91	-2307.66	  446.68
     89.9700	  764.00	  672.22	-2248.97	  446.47
     90.0700	  725.00	  674.64	-2290.40	  446.25
     90.1700	  732.00	  676.55	-2285.30	  446.04
     90.2700	  748.00	  677.39	-2270.14	  445.83
     90.3700	  710.00	  676.76	-2307.51	  445.61
     90.4700	  708.00	  674.49	-2307.24	  445.40
     90.5700	  712.00	  670.71	-2299.46	  445.19
     90.6700	  705.00	  665.72	-2301.47	  444.98
     90.7700	  667.00	  659.93	-2333.68	  444.77
     90.8700	  717.00	  653.75	-2277.50	  444.56
     90.9700	  634.00	  647.56	-2354.31	  444.35
     91.0700	  656.00	  641.66	-2326.41	  444.14
     91.1700	  667.00	  636.27	-2310.02	  443.94
     91.2700	  663.00	  631.54	-2309.29	  443.73
     91.3700	  609.00	  627.55	-2359.30	  443.53
     91.4700	  617.00	  624.33	-2348.08	  443.32
     91.5700	  620.00	  621.85	-2342.60	  443.12
     91.6700	  631.00	  620.07	-2329.82	  442.92
     91.7700	  628.00	  618.91	-2331.66	  442.71
     91.8700	  610.00	  618.33	-2349.08	  442.51
     91.9700	  648.00	  618.28	-2311.03	  442.31
     92.0700	  638.00	  618.75	-2321.50	  442.11
     92.1700	  613.00	  619.76	-2347.51	  441.91
     92.2700	  623.00	  621.37	-2339.12	  441.72
     92.3700	  650.00	  623.69	-2314.44	  441.52
     92.4700	  616.00	  626.86	-2351.61	  441.32
     92.5700	  627.00	  631.07	-2344.82	  441.13
     92.6700	  675.00	  636.54	-2302.29	  440.93
     92.7700	  639.00	  643.51	-2345.26	  440.74
     92.8700	  686.00	  652.20	-2306.95	  440.55
     92.9700	  686.00	  662.84	-2317.59	  440.35
     93.0700	  679.00	  675.57	-2337.32	  440.16
     93.1700	  703.00	  690.48	-2328.23	  439.97
     93.2700	  669.00	  707.55	-2379.30	  439.79
     93.3700	  693.00	  726.61	-2374.36	  439.60
     93.4700	  696.00	  747.38	-2392.13	  439.41
     93.5700	  708.00	  769.38	-2402.13	  439.23
     93.6700	  770.00	  792.02	-2362.77	  439.04
     93.7700	  822.00	  814.53	-2333.28	  438.86
     93.8700	  848.00	  836.05	-2328.80	  438.68
     93.9700	  851.00	  855.76	-2345.51	  438.49
     94.0700	  812.00	  873.07	-2401.82	  438.31
     94.1700	  835.00	  887.82	-2393.57	  438.13
     94.2700	  874.00	  900.34	-2367.09	  437.96
     94.3700	  900.00	  911.36	-2352.11	  437.78
     94.4700	  872.00	  921.78	-2390.53	  437.60
     94.5700	  922.00	  932.11	-2350.86	  437.43
     94.6700	  935.00	  943.62	-2349.37	  437.26
     94.7700	  948.00	  956.37	-2349.12	  437.08
     94.8700	  959.00	  970.55	-2352.30	  436.91
     94.9700	  968.00	  986.25	-2359.00	  436.74
     95.0700	 1018.00	 1003.44	-2326.19	  436.57
     95.1700	 1007.00	 1021.99	-2355.74	  436.41
     95.2700	 1011.00	 1041.50	-2371.25	  436.24
     95.3700	 1059.00	 1061.18	-2342.93	  436.07
     95.4700	 1066.00	 1079.74	-2354.49	  435.91
     95.5700	 1122.00	 1095.49	-2314.24	  435.75
     95.6700	 1103.00	 1106.45	-2344.20	  435.59
     95.7700	 1053.00	 1110.67	-2398.42	  435.43
     95.8700	 1068.00	 1106.67	-2379.42	  435.27
     95.9700	 1047.00	 1093.80	-2387.55	  435.11
     96.0700	 1030.00	 1072.48	-2383.23	  434.95
     96.1700	 1059.00	 1044.13	-2325.88	  434.80
     96.2700	  959.00	 1010.85	-2392.60	  434.64
     96.3700	  977.00	  975.00	-2338.75	  434.49
     96.4700	  973.00	  939.03	-2306.78	  434.34
     96.5700	  953.00	  905.21	-2292.96	  434.19
     96.6700	  885.00	  875.62	-2331.37	  434.04
     96.7700	  866.00	  852.04	-2326.79	  433.90
     96.8700	  820.00	  835.94	-2356.69	  433.75
     96.9700	  874.00	  828.50	-2295.25	  433.61
     97.0700	  831.00	  830.66	-2340.41	  433.46
     97.1700	  902.00	  843.05	-2281.80	  433.32
     97.2700	  861.00	  866.09	-2345.84	  433.18
     97.3700	  967.00	  899.96	-2273.71	  433.05
     97.4700	  931.00	  944.54	-2354.29	  432.91
     97.5700	 1031.00	  999.39	-2309.14	  432.77
     97.6700	 1098.00	 1063.67	-2306.42	  432.64
     97.7700	 1190.00	 1136.10	-2286.85	  432.51
     97.8700	 1144.00	 1214.79	-2411.54	  432.38
     97.9700	 1299.00	 1297.30	-2339.05	  432.25
     98.0700	 1324.00	 1380.54	-2397.29	  432.12
     98.1700	 1481.00	 1460.80	-2320.55	  431.99
     98.2700	 1537.00	 1533.85	-2337.60	  431.87
     98.3700	 1514.00	 1595.12	-2421.87	  431.75
     98.4700	 1598.00	 1640.25	-2383.00	  431.63
     98.5700	 1658.00	 1665.71	-2348.46	  431.51
     98.6700	 1577.00	 1669.59	-2433.34	  431.39
     98.7700	 1526.00	 1652.05	-2466.80	  431.27
     98.8700	 1614.00	 1615.17	-2341.92	  431.16
     98.9700	 1476.00	 1562.48	-2427.23	  431.04
     99.0700	 1473.00	 1498.28	-2366.03	  430.93
     99.1700	 1379.00	 1426.98	-2388.73	  430.82
     99.2700	 1398.00	 1352.77	-2295.52	  430.71
     99.3700	 1352.00	 1279.44	-2268.19	  430.61
     99.4700	 1233.00	 1210.28	-2318.03	  430.50
     99.5700	 1158.00	 1148.03	-2330.78	  430.40
     99.6700	 1153.00	 1094.91	-2282.66	  430.30
     99.7700	 1127.00	 1052.67	-2266.42	  430.20
     99.8700	 1018.00	 1022.71	-2345.46	  430.10
     99.9700	 1073.00	 1006.02	-2273.77	  430.01
    100.0700	  989.00	 1003.29	-2355.04	  429.91
    100.1700	  992.00	 1014.90	-2363.65	  429.82
    100.2700	 1111.00	 1040.92	-2270.67	  429.73
    100.3700	 1164.00	 1081.13	-2257.88	  429.64
    100.4700	 1163.00	 1134.96	-2312.71	  429.55
    100.5700	 1192.00	 1201.52	-2350.27	  429.47
    100.6700	 1292.00	 1279.50	-2328.25	  429.38
    100.7700	 1444.00	 1367.16	-2263.91	  429.30
    100.8700	 1467.00	 1462.24	-2335.99	  429.22
    100.9700	 1593.00	 1562.01	-2309.76	  429.14
    101.0700	 1648.00	 1663.11	-2355.86	  429.07
    101.1700	 1837.00	 1762.15	-2265.90	  428.99
    101.2700	 1852.00	 1855.28	-2344.03	  428.92
    101.3700	 1904.00	 1938.96	-2375.71	  428.85
    101.4700	 1962.00	 2010.35	-2389.10	  428.78
    101.5700	 2144.00	 2067.49	-2264.24	  428.72
    101.6700	 2070.00	 2109.34	-2380.09	  428.65
    101.7700	 2202.00	 2135.48	-2274.23	  428.59
    101.8700	 2134.00	 2145.69	-2352.44	  428.53
    101.9700	 2106.00	 2139.88	-2374.62	  428.47
    102.0700	 2156.00	 2118.11	-2302.86	  428.42
    102.1700	 2139.00	 2081.02	-2282.77	  428.36
    102.2700	 1999.00	 2030.10	-2371.85	  428.31
    102.3700	 1996.00	 1967.91	-2312.66	  428.26
    102.4700	 1959.00	 1897.86	-2279.61	  428.21
    102.5700	 1846.00	 1823.77	-2318.52	  428.16
    102.6700	 1788.00	 1749.37	-2302.12	  428.12
    102.7700	 1740.00	 1677.84	-2278.59	  428.08
    102.8700	 1654.00	 1611.66	-2298.41	  428.04
    102.9700	 1611.00	 1552.45	-2282.20	  428.00
    103.0700	 1654.00	 1501.03	-2187.78	  427.96
    103.1700	 1472.00	 1457.47	-2326.22	  427.93
    103.2700	 1434.00	 1421.13	-2327.88	  427.90
    103.3700	 1451.00	 1390.80	-2280.55	  427.87
    103.4700	 1372.00	 1364.78	-2333.53	  427.84
    103.5700	 1406.00	 1341.03	-2275.78	  427.82
    103.6700	 1345.00	 1317.41	-2313.16	  427.79
    103.7700	 1331.00	 1291.94	-2301.69	  427.77
    103.8700	 1284.00	 1263.12	-2319.87	  427.76
    103.9700	 1179.00	 1230.16	-2391.91	  427.74
    104.0700	 1187.00	 1192.99	-2346.74	  427.72
    104.1700	 1105.00	 1152.15	-2387.90	  427.71
    104.2700	 1054.00	 1108.59	-2395.34	  427.70
    104.3700	 1100.00	 1063.48	-2304.23	  427.70
    104.4700	 1017.00	 1017.96	-2341.71	  427.69
    104.5700	  983.00	  973.13	-2330.88	  427.69
    104.6700	 1003.00	  929.90	-2267.65	  427.69
    104.7700	  896.00	  889.07	-2333.82	  427.69
    104.8700	  887.00	  851.24	-2304.99	  427.69
    104.9700	  842.00	  816.77	-2315.52	  427.70
    105.0700	  822.00	  786.05	-2304.80	  427.71
    105.1700	  740.00	  759.09	-2359.84	  427.72
    105.2700	  742.00	  735.84	-2334.59	  427.73
    105.3700	  745.00	  716.13	-2311.88	  427.75
    105.4700	  671.00	  699.70	-2369.45	  427.77
    105.5700	  716.00	  686.25	-2311.00	  427.79
    105.6700	  715.00	  675.44	-2301.19	  427.81
    105.7700	  734.00	  666.88	-2273.63	  427.83
    105.8700	  671.00	  660.36	-2330.11	  427.86
    105.9700	  666.00	  655.55	-2330.30	  427.89
    106.0700	  672.00	  652.21	-2320.96	  427.92
    106.1700	  643.00	  650.15	-2347.90	  427.96
    106.2700	  656.00	  649.23	-2333.98	  428.00
    106.3700	  656.00	  649.37	-2334.12	  428.04
    106.4700	  669.00	  650.51	-2322.26	  428.08
    106.5700	  634.00	  652.65	-2359.40	  428.12
    106.6700	  661.00	  655.81	-2335.56	  428.17
    106.7700	  671.00	  660.04	-2329.79	  428.22
    106.8700	  653.00	  665.38	-2353.13	  428.27
    106.9700	  685.00	  671.92	-2327.67	  428.33
    107.0700	  655.00	  679.70	-2365.45	  428.38
    107.1700	  654.00	  688.78	-2375.53	  428.44
    107.2700	  668.00	  699.15	-2371.90	  428.50
    107.3700	  671.00	  710.78	-2380.53	  428.57
    107.4700	  732.00	  723.59	-2332.34	  428.64
    107.5700	  694.00	  737.39	-2384.14	  428.71
    107.6700	  714.00	  752.00	-2378.75	  428.78
    107.7700	  730.00	  767.10	-2377.85	  428.85
    107.8700	  759.00	  782.33	-2364.08	  428.93
    107.9700	  778.00	  797.27	-2360.02	  429.01
    108.0700	  750.00	  811.45	-2402.20	  429.10
    108.1700	  824.00	  824.37	-2341.12	  429.18
    108.2700	  800.00	  835.55	-2376.30	  429.27
    108.3700	  827.00	  844.55	-2358.30	  429.36
    108.4700	  779.00	  851.10	-2412.85	  429.45
    108.5700	  828.00	  855.04	-2367.79	  429.55
    108.6700	  814.00	  856.55	-2383.30	  429.65
    108.7700	  785.00	  855.91	-2411.66	  429.75
    108.8700	  775.00	  853.58	-2419.33	  429.85
    108.9700	  822.00	  850.11	-2368.86	  429.96
    109.0700	  812.00	  846.07	-2374.82	  430.07
    109.1700	  754.00	  841.96	-2428.71	  430.18
    109.2700	  797.00	  838.20	-2381.95	  430.30
    109.3700	  827.00	  835.14	-2348.89	  430.42
    109.4700	  815.00	  832.98	-2358.73	  430.54
    109.5700	  790.00	  831.80	-2382.55	  430.66
    109.6700	  796.00	  831.57	-2376.32	  430.79
    109.7700	  803.00	  832.13	-2369.88	  430.92
    109.8700	  798.00	  833.20	-2375.95	  431.05
    109.9700	  843.00	  834.42	-2332.17	  431.18
    110.0700	  780.00	  835.35	-2396.10	  431.32
    110.1700	  829.00	  835.52	-2347.27	  431.46
    110.2700	  765.00	  834.47	-2410.22	  431.60
    110.3700	  802.00	  831.87	-2370.62	  431.75
    110.4700	  731.00	  827.51	-2437.26	  431.90
    110.5700	  812.00	  821.30	-2350.05	  432.05
    110.6700	  768.00	  813.36	-2386.11	  432.20
    110.7700	  758.00	  803.91	-2386.66	  432.36
    110.8700	  812.00	  793.26	-2322.01	  432.52
    110.9700	  746.00	  781.77	-2376.52	  432.68
    111.0700	  779.00	  769.78	-2331.53	  432.85
    111.1700	  749.00	  757.64	-2349.39	  433.02
    111.2700	  689.00	  745.64	-2397.39	  433.19
    111.3700	  733.00	  734.05	-2341.80	  433.36
    111.4700	  748.00	  723.10	-2315.85	  433.54
    111.5700	  731.00	  712.95	-2322.70	  433.72
    111.6700	  698.00	  703.74	-2346.49	  433.91
    111.7700	  653.00	  695.57	-2383.32	  434.09
    111.8700	  670.00	  688.47	-2359.22	  434.28
    111.9700	  680.00	  682.46	-2343.21	  434.47
    112.0700	  684.00	  677.53	-2334.28	  434.67
    112.1700	  675.00	  673.63	-2339.38	  434.87
    112.2700	  662.00	  670.70	-2349.45	  435.07
    112.3700	  601.00	  668.64	-2408.39	  435.27
    112.4700	  629.00	  667.37	-2379.12	  435.48
    112.5700	  620.00	  666.79	-2387.54	  435.69
    112.6700	  660.00	  666.79	-2347.54	  435.90
    112.7700	  636.00	  667.28	-2372.03	  436.12
    112.8700	  652.00	  668.17	-2356.92	  436.34
    112.9700	  627.00	  669.37	-2383.12	  436.56
    113.0700	  636.00	  670.81	-2375.56	  436.79
    113.1700	  630.00	  672.41	-2383.16	  437.02
    113.2700	  656.00	  674.15	-2358.90	  437.25
    113.3700	  635.00	  675.99	-2381.74	  437.48
    113.4700	  654.00	  677.92	-2364.68	  437.72
    113.5700	  653.00	  679.96	-2367.71	  437.96
    113.6700	  650.00	  682.14	-2372.89	  438.20
    113.7700	  656.00	  684.48	-2369.23	  438.45
    113.8700	  666.00	  687.04	-2361.79	  438.70
    113.9700	  665.00	  689.88	-2365.63	  438.96
    114.0700	  697.00	  693.10	-2336.85	  439.21
    114.1700	  653.00	  696.78	-2384.53	  439.47
    114.2700	  678.00	  701.05	-2363.80	  439.73
    114.3700	  683.00	  706.05	-2363.80	  440.00
    114.4700	  716.00	  711.98	-2336.73	  440.27
    114.5700	  709.00	  719.10	-2350.85	  440.54
    114.6700	  714.00	  727.72	-2354.47	  440.82
    114.7700	  694.00	  738.27	-2385.02	  441.09
    114.8700	  771.00	  751.26	-2321.01	  441.38
    114.9700	  809.00	  767.38	-2299.13	  441.66
    115.0700	  778.00	  787.47	-2350.22	  441.95
    115.1700	  915.00	  812.54	-2238.29	  442.24
    115.2700	  884.00	  843.88	-2300.63	  442.54
    115.3700	  881.00	  882.98	-2342.73	  442.83
    115.4700	 1029.00	  931.62	-2243.37	  443.13
    115.5700	 1123.00	  991.84	-2209.59	  443.44
    115.6700	 1185.00	 1065.92	-2221.67	  443.75
    115.7700	 1254.00	 1156.40	-2243.15	  444.06
    115.8700	 1433.00	 1266.02	-2173.77	  444.37
    115.9700	 1602.00	 1397.59	-2136.34	  444.69
    116.0700	 1833.00	 1553.94	-2061.69	  445.01
    116.1700	 2007.00	 1737.73	-2071.48	  445.33
    116.2700	 2208.00	 1951.40	-2084.15	  445.66
    116.3700	 2581.00	 2196.92	-1956.67	  445.99
    116.4700	 2790.00	 2475.56	-2026.31	  446.32
    116.5700	 3035.00	 2787.74	-2093.49	  446.66
    116.6700	 3329.00	 3132.79	-2144.54	  447.00
    116.7700	 3706.00	 3508.94	-2143.69	  447.34
    116.8700	 4083.00	 3913.05	-2170.80	  447.69
    116.9700	 4472.00	 4340.48	-2209.23	  448.04
    117.0700	 4801.00	 4785.10	-2324.85	  448.40
    117.1700	 5233.00	 5239.36	-2347.11	  448.75
    117.2700	 5697.00	 5694.39	-2338.14	  449.11
    117.3700	 5991.00	 6140.11	-2489.86	  449.48
    117.4700	 6319.00	 6565.31	-2587.06	  449.84
    117.5700	 6837.00	 6958.12	-2461.87	  450.21
    117.6700	 7054.00	 7306.35	-2593.10	  450.59
    117.7700	 7211.00	 7598.24	-2727.99	  450.96
    117.8700	 7541.00	 7823.03	-2622.78	  451.34
    117.9700	 7687.00	 7971.83	-2625.58	  451.73
    118.0700	 7498.00	 8038.58	-2881.33	  452.11
    118.1700	 7720.00	 8020.75	-2641.50	  452.51
    118.2700	 7556.00	 7919.58	-2704.33	  452.90
    118.3700	 7515.00	 7739.92	-2565.67	  453.30
    118.4700	 7070.00	 7489.70	-2760.45	  453.70
    118.5700	 6951.00	 7179.07	-2568.82	  454.10
    118.6700	 6571.00	 6819.55	-2589.30	  454.51
    118.7700	 6207.00	 6423.05	-2556.80	  454.92
    118.8700	 5915.00	 6001.36	-2427.11	  455.33
    118.9700	 5545.00	 5565.78	-2361.53	  455.75
    119.0700	 5220.00	 5126.62	-2247.37	  456.17
    119.1700	 4963.00	 4693.07	-2070.82	  456.60
    119.2700	 4624.00	 4272.85	-1989.60	  457.03
    119.3700	 4167.00	 3872.21	-2045.96	  457.46
    119.4700	 3679.00	 3496.11	-2157.86	  457.89
    119.5700	 3506.00	 3147.97	-1982.72	  458.33
    119.6700	 3131.00	 2829.95	-2039.70	  458.77
    119.7700	 2832.00	 2542.89	-2051.64	  459.22
    119.8700	 2573.00	 2286.63	-2054.38	  459.67
    119.9700	 2295.00	 2060.28	-2106.03	  460.12
    120.0700	 2131.00	 1862.24	-2071.99	  460.58
    120.1700	 1945.00	 1690.49	-2086.24	  461.03
    120.2700	 1820.00	 1542.67	-2063.42	  461.50
    120.3700	 1611.00	 1416.29	-2146.04	  461.96
    120.4700	 1486.00	 1308.86	-2163.61	  462.43
    120.5700	 1502.00	 1217.95	-2056.70	  462.91
    120.6700	 1312.00	 1141.27	-2170.02	  463.38
    120.7700	 1262.00	 1076.71	-2155.46	  463.86
    120.8700	 1094.00	 1022.39	-2269.14	  464.35
    120.9700	 1123.00	  976.67	-2194.42	  464.83
    121.0700	 1055.00	  938.15	-2223.90	  465.33
    121.1700	  918.00	  905.64	-2328.39	  465.82
    121.2700	  937.00	  878.16	-2281.91	  466.32
    121.3700	  881.00	  854.90	-2314.65	  466.82
    121.4700	  828.00	  835.21	-2347.96	  467.32
    121.5700	  818.00	  818.57	-2341.32	  467.83
    121.6700	  863.00	  804.56	-2282.31	  468.34
    121.7700	  777.00	  792.85	-2356.60	  468.86
    121.8700	  736.00	  783.17	-2387.92	  469.38
    121.9700	  734.00	  775.31	-2382.06	  469.90
    122.0700	  736.00	  769.11	-2373.86	  470.43
    122.1700	  797.00	  764.43	-2308.18	  470.96
    122.2700	  728.00	  761.15	-2373.90	  471.49
    122.3700	  695.00	  759.19	-2404.94	  472.03
    122.4700	  724.00	  758.47	-2375.22	  472.57
    122.5700	  788.00	  758.92	-2311.67	  473.11
    122.6700	  704.00	  760.48	-2397.23	  473.66
    122.7700	  741.00	  763.09	-2362.84	  474.21
    122.8700	  759.00	  766.70	-2348.45	  474.76
    122.9700	  721.00	  771.25	-2391.00	  475.32
    123.0700	  725.00	  776.67	-2392.42	  475.88
    123.1700	  736.00	  782.90	-2387.65	  476.45
    123.2700	  756.00	  789.85	-2374.60	  477.02
    123.3700	  794.00	  797.44	-2344.19	  477.59
    123.4700	  775.00	  805.58	-2371.33	  478.17
    123.5700	  788.00	  814.16	-2366.91	  478.75
    123.6700	  749.00	  823.05	-2414.80	  479.33
    123.7700	  791.00	  832.15	-2381.90	  479.92
    123.8700	  769.00	  841.31	-2413.06	  480.51
    123.9700	  877.00	  850.39	-2314.14	  481.10
    124.0700	  775.00	  859.27	-2425.02	  481.70
    124.1700	  821.00	  867.80	-2387.55	  482.30
    124.2700	  798.00	  875.87	-2418.62	  482.91
    124.3700	  863.00	  883.38	-2361.13	  483.51
    124.4700	  843.00	  890.24	-2387.99	  484.13
    124.5700	  812.00	  896.41	-2425.16	  484.74
    124.6700	  831.00	  901.86	-2411.61	  485.36
    124.7700	  896.00	  906.65	-2351.40	  485.98
    124.8700	  874.00	  910.82	-2377.57	  486.61
    124.9700	  817.00	  629.80	-2153.55	  487.24
    125.0700	  840.00	  630.44	-2340.75	  487.87
    125.1700	  862.00	  631.07	-2340.75	  488.51
    125.2700	  833.00	  631.71	-2340.75	  489.15
    125.3700	  873.00	  632.36	-2340.75	  489.80
    125.4700	  852.00	  633.01	-2340.75	  490.44
    125.5700	  882.00	  633.66	-2340.75	  491.10
    125.6700	  867.00	  634.31	-2340.75	  491.75
    125.7700	  793.00	  634.97	-2340.75	  492.41
    125.8700	  826.00	  635.63	-2340.75	  493.07
    125.9700	  856.00	  636.30	-2340.75	  493.74
    126.0700	  836.00	  636.97	-2340.75	  494.41
    126.1700	  830.00	  637.64	-2340.75	  495.08
    126.2700	  829.00	  638.32	-2340.75	  495.76
    126.3700	  883.00	  639.00	-2340.75	  496.44
    126.4700	  850.00	  639.69	-2340.75	  497.12
    126.5700	  822.00	  640.37	-2340.75	  497.81
    126.6700	  870.00	  641.07	-2340.75	  498.50
    126.7700	  814.00	  641.76	-2340.75	  499.20
    126.8700	  807.00	  642.46	-2340.75	  499.90
    126.9700	  802.00	  643.16	-2340.75	  500.60
    127.0700	  813.00	  643.87	-2340.75	  501.30
    127.1700	  760.00	  644.58	-2340.75	  502.01
    127.2700	  710.00	  645.29	-2340.75	  502.73
    127.3700	  747.00	  646.01	-2340.75	  503.44
    127.4700	  756.00	  646.73	-2340.75	  504.16
    127.5700	  722.00	  647.45	-2340.75	  504.89
    127.6700	  714.00	  648.18	-2340.75	  505.62
    127.7700	  726.00	  648.91	-2340.75	  506.35
    127.8700	  728.00	  649.64	-2340.75	  507.08
    127.9700	  714.00	  650.38	-2340.75	  507.82
    128.0700	  670.00	  651.12	-2340.75	  508.56
    128.1700	  692.00	  651.87	-2340.75	  509.31
    128.2700	  695.00	  652.62	-2340.75	  510.06
    128.3700	  720.00	  653.37	-2340.75	  510.81
    128.4700	  669.00	  654.13	-2340.75	  511.57
    128.5700	    0.00	  654.89	-2340.75	  512.33
    128.6700	    0.00	  655.65	-2340.75	  513.09
     12.4533	        	        	        	        	       0	(  0  0  2)	  0  1
     12.4533	        	        	        	        	    -585	(  0  0  2)	  0  1
     25.1474	        	        	        	        	       0	(  0  0  4)	  0  1
     25.1474	        	        	        	        	    -585	(  0  0  4)	  0  1
     28.5868	        	        	        	        	       0	(  1  0  0)	  0  1
     28.5868	        	        	        	        	    -585	(  1  0  0)	  0  1
     29.2911	        	        	        	        	       0	(  1  0  1)	  0  1
     29.2911	        	        	        	        	    -585	(  1  0  1)	  0  1
     31.3177	        	        	        	        	       0	(  1  0  2)	  0  1
     31.3177	        	        	        	        	    -585	(  1  0  2)	  0  1
     34.4575	        	        	        	        	       0	(  1  0  3)	  0  1
     34.4575	        	        	        	        	    -585	(  1  0  3)	  0  1
     38.1661	        	        	        	        	       0	(  0  0  6)	  0  1
     38.1661	        	        	        	        	    -585	(  0  0  6)	  0  1
     38.4749	        	        	        	        	       0	(  1  0  4)	  0  1
     38.4749	        	        	        	        	    -585	(  1  0  4)	  0  1
     43.1727	        	        	        	        	       0	(  1  0  5)	  0  1
     43.1727	        	        	        	        	    -585	(  1  0  5)	  0  1
     48.4110	        	        	        	        	       0	(  1  0  6)	  0  1
     48.4110	        	        	        	        	    -585	(  1  0  6)	  0  1
     50.7083	        	        	        	        	       0	(  1  1  0)	  0  1
     50.7083	        	        	        	        	    -585	(  1  1  0)	  0  1
     51.7224	        	        	        	        	       0	(  0  0  8)	  0  1
     51.7224	        	        	        	        	    -585	(  0  0  8)	  0  1
     52.4510	        	        	        	        	       0	(  1  1  2)	  0  1
     52.4510	        	        	        	        	    -585	(  1  1  2)	  0  1
     54.1023	        	        	        	        	       0	(  1  0  7)	  0  1
     54.1023	        	        	        	        	    -585	(  1  0  7)	  0  1
     57.4563	        	        	        	        	       0	(  1  1  4)	  0  1
     57.4563	        	        	        	        	    -585	(  1  1  4)	  0  1
     59.2854	        	        	        	        	       0	(  2  0  0)	  0  1
     59.2854	        	        	        	        	    -585	(  2  0  0)	  0  1
     59.6818	        	        	        	        	       0	(  2  0  1)	  0  1
     59.6818	        	        	        	        	    -585	(  2  0  1)	  0  1
     60.2009	        	        	        	        	       0	(  1  0  8)	  0  1
     60.2009	        	        	        	        	    -585	(  1  0  8)	  0  1
     60.8614	        	        	        	        	       0	(  2  0  2)	  0  1
     60.8614	        	        	        	        	    -585	(  2  0  2)	  0  1
     62.7981	        	        	        	        	       0	(  2  0  3)	  0  1
     62.7981	        	        	        	        	    -585	(  2  0  3)	  0  1
     65.2442	        	        	        	        	       0	(  1  1  6)	  0  1
     65.2442	        	        	        	        	    -585	(  1  1  6)	  0  1
     65.4551	        	        	        	        	       0	(  2  0  4)	  0  1
     65.4551	        	        	        	        	    -585	(  2  0  4)	  0  1
     66.1121	        	        	        	        	       0	(  0  0 10)	  0  1
     66.1121	        	        	        	        	    -585	(  0  0 10)	  0  1
     66.6940	        	        	        	        	       0	(  1  0  9)	  0  1
     66.6940	        	        	        	        	    -585	(  1  0  9)	  0  1
     68.7916	        	        	        	        	       0	(  2  0  5)	  0  1
     68.7916	        	        	        	        	    -585	(  2  0  5)	  0  1
     72.7713	        	        	        	        	       0	(  2  0  6)	  0  1
     72.7713	        	        	        	        	    -585	(  2  0  6)	  0  1
     73.5977	        	        	        	        	       0	(  1  0 10)	  0  1
     73.5977	        	        	        	        	    -585	(  1  0 10)	  0  1
     75.4137	        	        	        	        	       0	(  1  1  8)	  0  1
     75.4137	        	        	        	        	    -585	(  1  1  8)	  0  1
     77.3685	        	        	        	        	       0	(  2  0  7)	  0  1
     77.3685	        	        	        	        	    -585	(  2  0  7)	  0  1
     80.9574	        	        	        	        	       0	(  1  0 11)	  0  1
     80.9574	        	        	        	        	    -585	(  1  0 11)	  0  1
     81.7758	        	        	        	        	       0	(  2  1  0)	  0  1
     81.7758	        	        	        	        	    -585	(  2  1  0)	  0  1
     81.8001	        	        	        	        	       0	(  0  0 12)	  0  1
     81.8001	        	        	        	        	    -585	(  0  0 12)	  0  1
     82.1208	        	        	        	        	       0	(  2  1  1)	  0  1
     82.1208	        	        	        	        	    -585	(  2  1  1)	  0  1
     82.5745	        	        	        	        	       0	(  2  0  8)	  0  1
     82.5745	        	        	        	        	    -585	(  2  0  8)	  0  1
     83.1544	        	        	        	        	       0	(  2  1  2)	  0  1
     83.1544	        	        	        	        	    -585	(  2  1  2)	  0  1
     84.8723	        	        	        	        	       0	(  2  1  3)	  0  1
     84.8723	        	        	        	        	    -585	(  2  1  3)	  0  1
     87.2700	        	        	        	        	       0	(  2  1  4)	  0  1
     87.2700	        	        	        	        	    -585	(  2  1  4)	  0  1
     87.8701	        	        	        	        	       0	(  1  1 10)	  0  1
     87.8701	        	        	        	        	    -585	(  1  1 10)	  0  1
     88.4039	        	        	        	        	       0	(  2  0  9)	  0  1
     88.4039	        	        	        	        	    -585	(  2  0  9)	  0  1
     88.8537	        	        	        	        	       0	(  1  0 12)	  0  1
     88.8537	        	        	        	        	    -585	(  1  0 12)	  0  1
     90.3466	        	        	        	        	       0	(  2  1  5)	  0  1
     90.3466	        	        	        	        	    -585	(  2  1  5)	  0  1
     94.1094	        	        	        	        	       0	(  2  1  6)	  0  1
     94.1094	        	        	        	        	    -585	(  2  1  6)	  0  1
     94.9034	        	        	        	        	       0	(  2  0 10)	  0  1
     94.9034	        	        	        	        	    -585	(  2  0 10)	  0  1
     95.8670	        	        	        	        	       0	(  3  0  0)	  0  1
     95.8670	        	        	        	        	    -585	(  3  0  0)	  0  1
     96.2107	        	        	        	        	       0	(  3  0  1)	  0  1
     96.2107	        	        	        	        	    -585	(  3  0  1)	  0  1
     97.2432	        	        	        	        	       0	(  3  0  2)	  0  1
     97.2432	        	        	        	        	    -585	(  3  0  2)	  0  1
     97.4187	        	        	        	        	       0	(  1  0 13)	  0  1
     97.4187	        	        	        	        	    -585	(  1  0 13)	  0  1
     98.5813	        	        	        	        	       0	(  2  1  7)	  0  1
     98.5813	        	        	        	        	    -585	(  2  1  7)	  0  1
     98.9696	        	        	        	        	       0	(  3  0  3)	  0  1
     98.9696	        	        	        	        	    -585	(  3  0  3)	  0  1
     99.6443	        	        	        	        	       0	(  0  0 14)	  0  1
     99.6443	        	        	        	        	    -585	(  0  0 14)	  0  1
    101.4009	        	        	        	        	       0	(  3  0  4)	  0  1
    101.4009	        	        	        	        	    -585	(  3  0  4)	  0  1
    102.1668	        	        	        	        	       0	(  2  0 11)	  0  1
    102.1668	        	        	        	        	    -585	(  2  0 11)	  0  1
    103.0210	        	        	        	        	       0	(  1  1 12)	  0  1
    103.0210	        	        	        	        	    -585	(  1  1 12)	  0  1
    103.8102	        	        	        	        	       0	(  2  1  8)	  0  1
    103.8102	        	        	        	        	    -585	(  2  1  8)	  0  1
    104.5587	        	        	        	        	       0	(  3  0  5)	  0  1
    104.5587	        	        	        	        	    -585	(  3  0  5)	  0  1
    106.8707	        	        	        	        	       0	(  1  0 14)	  0  1
    106.8707	        	        	        	        	    -585	(  1  0 14)	  0  1
    108.4823	        	        	        	        	       0	(  3  0  6)	  0  1
    108.4823	        	        	        	        	    -585	(  3  0  6)	  0  1
    109.8860	        	        	        	        	       0	(  2  1  9)	  0  1
    109.8860	        	        	        	        	    -585	(  2  1  9)	  0  1
    110.3652	        	        	        	        	       0	(  2  0 12)	  0  1
    110.3652	        	        	        	        	    -585	(  2  0 12)	  0  1
    113.2407	        	        	        	        	       0	(  3  0  7)	  0  1
    113.2407	        	        	        	        	    -585	(  3  0  7)	  0  1
    116.9716	        	        	        	        	       0	(  2  1 10)	  0  1
    116.9716	        	        	        	        	    -585	(  2  1 10)	  0  1
    117.5996	        	        	        	        	       0	(  1  0 15)	  0  1
    117.5996	        	        	        	        	    -585	(  1  0 15)	  0  1
    118.0540	        	        	        	        	       0	(  2  2  0)	  0  1
    118.0540	        	        	        	        	    -585	(  2  2  0)	  0  1
    118.9554	        	        	        	        	       0	(  3  0  8)	  0  1
    118.9554	        	        	        	        	    -585	(  3  0  8)	  0  1
    119.6158	        	        	        	        	       0	(  2  2  2)	  0  1
    119.6158	        	        	        	        	    -585	(  2  2  2)	  0  1
    119.8163	        	        	        	        	       0	(  2  0 13)	  0  1
    119.8163	        	        	        	        	    -585	(  2  0 13)	  0  1
    121.7089	        	        	        	        	       0	(  0  0 16)	  0  1
    121.7089	        	        	        	        	    -585	(  0  0 16)	  0  1
    122.3886	        	        	        	        	       0	(  1  1 14)	  0  1
    122.3886	        	        	        	        	    -585	(  1  1 14)	  0  1
    124.4595	        	        	        	        	       0	(  2  2  4)	  0  1
    124.4595	        	        	        	        	    -585	(  2  2  4)	  0  1
    125.3745	        	        	        	        	       0	(  2  1 11)	  0  1
    125.3745	        	        	        	        	    -585	(  2  1 11)	  0  1
    125.8469	        	        	        	        	       0	(  3  0  9)	  0  1
    125.8469	        	        	        	        	    -585	(  3  0  9)	  0  1
    126.3744	        	        	        	        	       0	(  3  1  0)	  0  1
    126.3744	        	        	        	        	    -585	(  3  1  0)	  0  1
    126.8005	        	        	        	        	       0	(  3  1  1)	  0  1
    126.8005	        	        	        	        	    -585	(  3  1  1)	  0  1
    128.0933	        	        	        	        	       0	(  3  1  2)	  0  1
    128.0933	        	        	        	        	    -585	(  3  1  2)	  0  1
    130.3010	        	        	        	        	       0	(  3  1  3)	  0  1
    130.3010	        	        	        	        	    -585	(  3  1  3)	  0  1
    130.4194	        	        	        	        	       0	(  1  0 16)	  0  1
    130.4194	        	        	        	        	    -585	(  1  0 16)	  0  1
    131.1807	        	        	        	        	       0	(  2  0 14)	  0  1
    131.1807	        	        	        	        	    -585	(  2  0 14)	  0  1
    133.2560	        	        	        	        	       0	(  2  2  6)	  0  1
    133.2560	        	        	        	        	    -585	(  2  2  6)	  0  1
    133.5204	        	        	        	        	       0	(  3  1  4)	  0  1
    133.5204	        	        	        	        	    -585	(  3  1  4)	  0  1
    134.3542	        	        	        	        	       0	(  3  0 10)	  0  1
    134.3542	        	        	        	        	    -585	(  3  0 10)	  0  1
    135.7482	        	        	        	        	       0	(  2  1 12)	  0  1
    135.7482	        	        	        	        	    -585	(  2  1 12)	  0  1
    137.9343	        	        	        	        	       0	(  3  1  5)	  0  1
    137.9343	        	        	        	        	    -585	(  3  1  5)	  0  1
    143.9116	        	        	        	        	       0	(  3  1  6)	  0  1
    143.9116	        	        	        	        	    -585	(  3  1  6)	  0  1
    145.5453	        	        	        	        	       0	(  3  0 11)	  0  1
    145.5453	        	        	        	        	    -585	(  3  0 11)	  0  1
    146.2744	        	        	        	        	       0	(  2  0 15)	  0  1
    146.2744	        	        	        	        	    -585	(  2  0 15)	  0  1
    147.7311	        	        	        	        	       0	(  1  0 17)	  0  1
    147.7311	        	        	        	        	    -585	(  1  0 17)	  0  1
    148.4931	        	        	        	        	       0	(  2  2  8)	  0  1
    148.4931	        	        	        	        	    -585	(  2  2  8)	  0  1
    149.9618	        	        	        	        	       0	(  2  1 13)	  0  1
    149.9618	        	        	        	        	    -585	(  2  1 13)	  0  1
    152.3548	        	        	        	        	       0	(  3  1  7)	  0  1
    152.3548	        	        	        	        	    -585	(  3  1  7)	  0  1
    153.3970	        	        	        	        	       0	(  1  1 16)	  0  1
    153.3970	        	        	        	        	    -585	(  1  1 16)	  0  1
    158.7379	        	        	        	        	       0	(  0  0 18)	  0  1
    158.7379	        	        	        	        	    -585	(  0  0 18)	  0  1
    164.1083	        	        	        	        	       0	(  4  0  0)	  0  1
    164.1083	        	        	        	        	    -585	(  4  0  0)	  0  1
    164.1969	        	        	        	        	       0	(  3  0 12)	  0  1
    164.1969	        	        	        	        	    -585	(  3  0 12)	  0  1
    165.4159	        	        	        	        	       0	(  4  0  1)	  0  1
    165.4159	        	        	        	        	    -585	(  4  0  1)	  0  1
    167.3373	        	        	        	        	       0	(  3  1  8)	  0  1
    167.3373	        	        	        	        	    -585	(  3  1  8)	  0  1
