MSG Master    CELL:    5.91886   5.91886  23.27579   90.0000   90.0000  120.0000   SPGR: P 63/m m c             TEMP:   1074.85
  1   1280     2.52000     0.00000    -0.12684     0.00000     0.00000    0
    99     0     2
       0.00000      10.00000
     125.00000     130.00000
 2Theta	Yobs	Ycal	Yobs-Ycal	Backg	Posr	(hkl)	K
      0.7700	    0.00	  548.32	-1746.25	  430.96
      0.8700	    0.00	  549.00	-1746.25	  431.63
      0.9700	   38.00	  549.66	-1746.25	  432.29
      1.0700	   48.00	  550.31	-1746.25	  432.94
      1.1700	   50.00	  550.96	-1746.25	  433.59
      1.2700	   50.00	  551.59	-1746.25	  434.22
      1.3700	   45.00	  552.21	-1746.25	  434.84
      1.4700	   99.00	  552.82	-1746.25	  435.45
      1.5700	  274.00	  553.43	-1746.25	  436.06
      1.6700	  509.00	  554.02	-1746.25	  436.65
      1.7700	  589.00	  554.60	-1746.25	  437.23
      1.8700	  631.00	  555.17	-1746.25	  437.81
      1.9700	  713.00	  555.74	-1746.25	  438.37
      2.0700	  771.00	  556.29	-1746.25	  438.93
      2.1700	  863.00	  556.84	-1746.25	  439.47
      2.2700	  747.00	  557.37	-1746.25	  440.01
      2.3700	  765.00	  557.90	-1746.25	  440.53
      2.4700	  738.00	  558.42	-1746.25	  441.05
      2.5700	  695.00	  558.92	-1746.25	  441.56
      2.6700	  682.00	  559.42	-1746.25	  442.05
      2.7700	  634.00	  559.91	-1746.25	  442.54
      2.8700	  645.00	  560.39	-1746.25	  443.02
      2.9700	  635.00	  560.86	-1746.25	  443.50
      3.0700	  592.00	  561.33	-1746.25	  443.96
      3.1700	  564.00	  561.78	-1746.25	  444.41
      3.2700	  590.00	  562.23	-1746.25	  444.86
      3.3700	  599.00	  562.66	-1746.25	  445.29
      3.4700	  704.00	  563.09	-1746.25	  445.72
      3.5700	  805.00	  563.51	-1746.25	  446.14
      3.6700	  849.00	  563.92	-1746.25	  446.55
      3.7700	  940.00	  564.32	-1746.25	  446.95
      3.8700	  968.00	  564.72	-1746.25	  447.35
      3.9700	  989.00	  565.10	-1746.25	  447.73
      4.0700	 1100.00	  565.48	-1746.25	  448.11
      4.1700	 1096.00	  565.85	-1746.25	  448.48
      4.2700	 1077.00	  566.21	-1746.25	  448.84
      4.3700	 1098.00	  566.56	-1746.25	  449.19
      4.4700	 1074.00	  566.91	-1746.25	  449.54
      4.5700	 1054.00	  567.24	-1746.25	  449.88
      4.6700	 1026.00	  567.57	-1746.25	  450.20
      4.7700	 1062.00	  567.89	-1746.25	  450.53
      4.8700	 1005.00	  568.21	-1746.25	  450.84
      4.9700	  923.00	  568.51	-1746.25	  451.15
      5.0700	  951.00	  568.81	-1746.25	  451.44
      5.1700	  986.00	  569.10	-1746.25	  451.73
      5.2700	  902.00	  569.39	-1746.25	  452.02
      5.3700	  918.00	  569.66	-1746.25	  452.29
      5.4700	  890.00	  569.93	-1746.25	  452.56
      5.5700	  866.00	  570.19	-1746.25	  452.82
      5.6700	  834.00	  570.44	-1746.25	  453.07
      5.7700	  864.00	  570.69	-1746.25	  453.32
      5.8700	  805.00	  570.93	-1746.25	  453.56
      5.9700	  848.00	  571.16	-1746.25	  453.79
      6.0700	  809.00	  571.39	-1746.25	  454.02
      6.1700	  741.00	  571.60	-1746.25	  454.24
      6.2700	  770.00	  571.81	-1746.25	  454.45
      6.3700	  756.00	  572.02	-1746.25	  454.65
      6.4700	  695.00	  572.22	-1746.25	  454.85
      6.5700	  746.00	  572.41	-1746.25	  455.04
      6.6700	  767.00	  572.59	-1746.25	  455.22
      6.7700	  716.00	  572.77	-1746.25	  455.40
      6.8700	  694.00	  572.94	-1746.25	  455.57
      6.9700	  717.00	  573.10	-1746.25	  455.73
      7.0700	  661.00	  573.26	-1746.25	  455.89
      7.1700	  677.00	  573.41	-1746.25	  456.04
      7.2700	  700.00	  573.55	-1746.25	  456.19
      7.3700	  693.00	  573.69	-1746.25	  456.32
      7.4700	  634.00	  573.82	-1746.25	  456.46
      7.5700	  637.00	  573.95	-1746.25	  456.58
      7.6700	  665.00	  574.07	-1746.25	  456.70
      7.7700	  621.00	  574.18	-1746.25	  456.82
      7.8700	  614.00	  574.29	-1746.25	  456.92
      7.9700	  662.00	  574.39	-1746.25	  457.02
      8.0700	  663.00	  574.49	-1746.25	  457.12
      8.1700	  604.00	  574.58	-1746.25	  457.21
      8.2700	  650.00	  574.66	-1746.25	  457.29
      8.3700	  603.00	  574.74	-1746.25	  457.37
      8.4700	  641.00	  574.81	-1746.25	  457.44
      8.5700	  625.00	  574.88	-1746.25	  457.51
      8.6700	  638.00	  574.94	-1746.25	  457.57
      8.7700	  616.00	  574.99	-1746.25	  457.62
      8.8700	  646.00	  575.04	-1746.25	  457.67
      8.9700	  640.00	  575.09	-1746.25	  457.72
      9.0700	  603.00	  575.12	-1746.25	  457.76
      9.1700	  605.00	  575.16	-1746.25	  457.79
      9.2700	  576.00	  575.19	-1746.25	  457.82
      9.3700	  600.00	  575.21	-1746.25	  457.84
      9.4700	  630.00	  575.23	-1746.25	  457.86
      9.5700	  611.00	  575.24	-1746.25	  457.87
      9.6700	  607.00	  575.24	-1746.25	  457.88
      9.7700	  597.00	  575.25	-1746.25	  457.88
      9.8700	  611.00	  575.24	-1746.25	  457.87
      9.9700	  631.00	  575.23	-1746.25	  457.87
     10.0700	  598.00	  576.04	-1724.29	  457.85
     10.1700	  608.00	  576.11	-1714.36	  457.84
     10.2700	  592.00	  576.20	-1730.45	  457.81
     10.3700	  575.00	  576.31	-1747.56	  457.78
     10.4700	  570.00	  576.48	-1752.73	  457.75
     10.5700	  587.00	  576.76	-1736.01	  457.71
     10.6700	  565.00	  577.25	-1758.50	  457.67
     10.7700	  576.00	  578.06	-1748.31	  457.63
     10.8700	  559.00	  579.24	-1766.49	  457.58
     10.9700	  595.00	  580.80	-1732.05	  457.52
     11.0700	  581.00	  582.71	-1747.96	  457.46
     11.1700	  576.00	  584.95	-1755.20	  457.40
     11.2700	  555.00	  587.56	-1778.81	  457.33
     11.3700	  622.00	  590.63	-1714.88	  457.25
     11.4700	  568.00	  594.28	-1772.53	  457.18
     11.5700	  588.00	  598.72	-1756.97	  457.09
     11.6700	  584.00	  604.30	-1766.55	  457.01
     11.7700	  645.00	  611.62	-1712.87	  456.92
     11.8700	  694.00	  621.57	-1673.82	  456.82
     11.9700	  680.00	  634.73	-1700.98	  456.72
     12.0700	  647.00	  649.40	-1748.65	  456.62
     12.1700	  663.00	  659.49	-1742.74	  456.52
     12.2700	  651.00	  655.64	-1750.89	  456.41
     12.3700	  652.00	  635.41	-1729.66	  456.29
     12.4700	  637.00	  611.12	-1720.37	  456.17
     12.5700	  569.00	  593.42	-1770.67	  456.05
     12.6700	  606.00	  583.75	-1724.00	  455.93
     12.7700	  604.00	  579.32	-1721.57	  455.80
     12.8700	  556.00	  577.28	-1767.53	  455.66
     12.9700	  572.00	  576.15	-1750.40	  455.53
     13.0700	  558.00	  575.38	-1763.63	  455.39
     13.1700	  548.00	  574.78	-1773.03	  455.24
     13.2700	  554.00	  574.30	-1766.55	  455.09
     13.3700	  517.00	  573.89	-1803.14	  454.94
     13.4700	  579.00	  573.53	-1740.78	  454.79
     13.5700	  544.00	  573.21	-1775.46	  454.63
     13.6700	  593.00	  572.92	-1726.17	  454.47
     13.7700	  535.00	  572.65	-1783.90	  454.31
     13.8700	  563.00	  572.39	-1755.64	  454.14
     13.9700	  557.00	  572.14	-1761.39	  453.97
     14.0700	  582.00	  571.91	-1736.16	  453.79
     14.1700	  573.00	  571.67	-1744.92	  453.62
     14.2700	  587.00	  571.45	-1730.70	  453.44
     14.3700	  558.00	  571.22	-1759.47	  453.25
     14.4700	  537.00	  571.00	-1780.25	  453.07
     14.5700	  589.00	  570.78	-1728.03	  452.88
     14.6700	  519.00	  570.56	-1797.81	  452.69
     14.7700	  578.00	  570.34	-1738.59	  452.49
     14.8700	  575.00	  570.11	-1741.36	  452.29
     14.9700	  563.00	  569.89	-1753.14	  452.09
     15.0700	  587.00	  569.67	-1728.92	  451.89
     15.1700	  586.00	  569.45	-1729.70	  451.68
     15.2700	  575.00	  569.23	-1740.48	  451.47
     15.3700	  518.00	  569.00	-1797.25	  451.26
     15.4700	  582.00	  568.77	-1733.02	  451.05
     15.5700	  616.00	  568.55	-1698.80	  450.83
     15.6700	  575.00	  568.32	-1739.57	  450.61
     15.7700	  555.00	  568.08	-1759.33	  450.39
     15.8700	  596.00	  567.85	-1718.10	  450.16
     15.9700	  548.00	  567.61	-1765.86	  449.93
     16.0700	  582.00	  567.41	-1731.66	  449.70
     16.1700	  560.00	  567.17	-1753.42	  449.47
     16.2700	  609.00	  566.93	-1704.18	  449.24
     16.3700	  598.00	  566.69	-1714.94	  449.00
     16.4700	  591.00	  566.44	-1721.69	  448.76
     16.5700	  540.00	  566.20	-1772.45	  448.52
     16.6700	  525.00	  565.95	-1787.20	  448.28
     16.7700	  580.00	  565.70	-1731.95	  448.03
     16.8700	  558.00	  565.45	-1753.70	  447.78
     16.9700	  517.00	  565.20	-1794.45	  447.53
     17.0700	  547.00	  564.94	-1764.19	  447.28
     17.1700	  590.00	  564.68	-1720.93	  447.03
     17.2700	  584.00	  564.43	-1726.68	  446.77
     17.3700	  565.00	  564.17	-1745.42	  446.51
     17.4700	  567.00	  563.90	-1743.16	  446.25
     17.5700	  524.00	  563.64	-1785.89	  445.99
     17.6700	  559.00	  563.38	-1750.63	  445.73
     17.7700	  537.00	  563.11	-1772.36	  445.46
     17.8700	  550.00	  562.84	-1759.09	  445.20
     17.9700	  555.00	  562.67	-1753.92	  444.93
     18.0700	  587.00	  562.40	-1721.65	  444.66
     18.1700	  527.00	  562.13	-1781.38	  444.38
     18.2700	  594.00	  561.86	-1714.11	  444.11
     18.3700	  544.00	  561.58	-1763.83	  443.83
     18.4700	  545.00	  561.31	-1762.56	  443.56
     18.5700	  565.00	  561.03	-1742.28	  443.28
     18.6700	  577.00	  560.75	-1730.00	  443.00
     18.7700	  570.00	  560.47	-1736.72	  442.72
     18.8700	  564.00	  560.28	-1742.53	  442.43
     18.9700	  586.00	  560.00	-1720.25	  442.15
     19.0700	  596.00	  559.72	-1709.97	  441.86
     19.1700	  546.00	  559.44	-1759.69	  441.57
     19.2700	  583.00	  559.16	-1722.41	  441.28
     19.3700	  539.00	  558.87	-1766.12	  440.99
     19.4700	  552.00	  558.59	-1752.84	  440.70
     19.5700	  561.00	  558.30	-1743.55	  440.41
     19.6700	  544.00	  558.02	-1760.27	  440.11
     19.7700	  576.00	  557.73	-1727.98	  439.82
     19.8700	  525.00	  557.44	-1778.69	  439.52
     19.9700	  595.00	  557.15	-1708.40	  439.22
     20.0700	  529.00	  556.86	-1774.11	  438.93
     20.1700	  530.00	  556.57	-1772.82	  438.63
     20.2700	  548.00	  556.28	-1754.53	  438.32
     20.3700	  561.00	  555.99	-1741.24	  438.02
     20.4700	  512.00	  555.70	-1789.95	  437.72
     20.5700	  569.00	  555.41	-1732.66	  437.41
     20.6700	  572.00	  555.09	-1729.34	  437.11
     20.7700	  554.00	  554.79	-1747.04	  436.80
     20.8700	  555.00	  554.54	-1745.79	  436.50
     20.9700	  552.00	  554.25	-1748.50	  436.19
     21.0700	  570.00	  553.96	-1730.21	  435.88
     21.1700	  543.00	  553.67	-1756.92	  435.57
     21.2700	  577.00	  553.38	-1722.63	  435.26
     21.3700	  543.00	  553.09	-1756.34	  434.95
     21.4700	  560.00	  552.80	-1739.05	  434.64
     21.5700	  553.00	  552.51	-1745.76	  434.33
     21.6700	  567.00	  552.23	-1731.48	  434.01
     21.7700	  572.00	  551.94	-1726.19	  433.70
     21.8700	  545.00	  551.66	-1752.91	  433.38
     21.9700	  526.00	  551.37	-1771.62	  433.07
     22.0700	  572.00	  551.09	-1725.34	  432.75
     22.1700	  554.00	  550.82	-1743.07	  432.44
     22.2700	  557.00	  550.54	-1739.79	  432.12
     22.3700	  566.00	  550.27	-1730.52	  431.80
     22.4700	  560.00	  550.01	-1736.26	  431.49
     22.5700	  544.00	  549.74	-1751.99	  431.17
     22.6700	  527.00	  549.49	-1768.74	  430.85
     22.7700	  554.00	  549.24	-1741.49	  430.53
     22.8700	  533.00	  549.00	-1762.25	  430.21
     22.9700	  522.00	  548.77	-1773.02	  429.89
     23.0700	  557.00	  548.56	-1737.81	  429.57
     23.1700	  548.00	  548.36	-1746.61	  429.25
     23.2700	  541.00	  548.18	-1753.43	  428.93
     23.3700	  535.00	  548.04	-1759.29	  428.61
     23.4700	  524.00	  547.92	-1770.17	  428.29
     23.5700	  532.00	  547.86	-1762.11	  427.97
     23.6700	  554.00	  548.00	-1740.25	  427.65
     23.7700	  566.00	  548.14	-1728.39	  427.33
     23.8700	  563.00	  548.50	-1731.75	  427.00
     23.9700	  521.00	  549.34	-1774.59	  426.68
     24.0700	  528.00	  551.08	-1769.33	  426.36
     24.1700	  555.00	  554.43	-1745.68	  426.04
     24.2700	  579.00	  560.22	-1727.47	  425.72
     24.3700	  584.00	  569.45	-1731.70	  425.39
     24.4700	  574.00	  583.11	-1755.36	  425.07
     24.5700	  608.00	  601.31	-1739.56	  424.75
     24.6700	  631.00	  620.99	-1736.24	  424.43
     24.7700	  596.00	  634.08	-1784.33	  424.11
     24.8700	  610.00	  630.16	-1766.41	  423.78
     24.9700	  601.00	  608.61	-1753.86	  423.46
     25.0700	  583.00	  583.13	-1746.38	  423.14
     25.1700	  560.00	  564.20	-1750.45	  422.82
     25.2700	  591.00	  553.50	-1708.75	  422.50
     25.3700	  589.00	  548.42	-1705.67	  422.18
     25.4700	  554.00	  546.08	-1738.33	  421.86
     25.5700	  517.00	  544.83	-1774.08	  421.54
     25.6700	  580.00	  544.02	-1710.27	  421.21
     25.7700	  547.00	  543.42	-1742.67	  420.89
     25.8700	  596.00	  542.97	-1693.22	  420.57
     25.9700	  534.00	  542.63	-1754.88	  420.25
     26.0700	  541.00	  542.38	-1747.63	  419.94
     26.1700	  564.00	  542.21	-1724.46	  419.62
     26.2700	  561.00	  542.11	-1727.36	  419.30
     26.3700	  558.00	  542.10	-1730.34	  418.98
     26.4700	  531.00	  542.16	-1757.41	  418.66
     26.5700	  555.00	  542.32	-1733.57	  418.34
     26.6700	  556.00	  542.59	-1732.84	  418.03
     26.7700	  518.00	  543.00	-1771.25	  417.71
     26.8700	  547.00	  543.57	-1742.82	  417.39
     26.9700	  560.00	  544.36	-1730.61	  417.08
     27.0700	  562.00	  545.45	-1729.70	  416.76
     27.1700	  539.00	  546.95	-1754.20	  416.45
     27.2700	  548.00	  549.12	-1747.37	  416.13
     27.3700	  509.00	  552.42	-1789.67	  415.82
     27.4700	  560.00	  557.80	-1744.05	  415.51
     27.5700	  589.00	  566.93	-1724.18	  415.19
     27.6700	  590.00	  582.44	-1738.69	  414.88
     27.7700	  584.00	  607.76	-1770.01	  414.57
     27.8700	  597.00	  645.87	-1795.12	  414.26
     27.9700	  645.00	  696.92	-1798.17	  413.95
     28.0700	  824.00	  755.19	-1677.44	  413.64
     28.1700	  897.00	  806.33	-1655.58	  413.33
     28.2700	  927.00	  828.80	-1648.05	  413.03
     28.3700	  861.00	  809.91	-1695.16	  412.72
     28.4700	  786.00	  770.40	-1730.65	  412.41
     28.5700	  716.00	  744.54	-1774.79	  412.11
     28.6700	  674.00	  747.97	-1820.22	  411.80
     28.7700	  774.00	  775.64	-1747.89	  411.50
     28.8700	  804.00	  807.06	-1749.31	  411.19
     28.9700	  827.00	  813.08	-1732.33	  410.89
     29.0700	  799.00	  775.07	-1722.32	  410.59
     29.1700	  721.00	  709.41	-1734.66	  410.29
     29.2700	  660.00	  646.49	-1732.74	  409.99
     29.3700	  599.00	  600.95	-1748.20	  409.69
     29.4700	  564.00	  573.36	-1755.61	  409.39
     29.5700	  607.00	  558.43	-1697.68	  409.09
     29.6700	  630.00	  550.56	-1666.81	  408.80
     29.7700	  550.00	  546.12	-1742.37	  408.50
     29.8700	  579.00	  543.37	-1710.62	  408.21
     29.9700	  566.00	  541.62	-1721.87	  407.91
     30.0700	  590.00	  540.71	-1696.96	  407.62
     30.1700	  594.00	  540.78	-1693.03	  407.33
     30.2700	  538.00	  542.37	-1750.62	  407.04
     30.3700	  583.00	  546.49	-1709.74	  406.75
     30.4700	  580.00	  554.74	-1720.99	  406.46
     30.5700	  544.00	  568.74	-1770.99	  406.17
     30.6700	  591.00	  588.93	-1744.18	  405.89
     30.7700	  618.00	  612.80	-1741.05	  405.60
     30.8700	  661.00	  633.58	-1718.83	  405.32
     30.9700	  604.00	  640.97	-1783.22	  405.03
     31.0700	  602.00	  627.85	-1772.10	  404.75
     31.1700	  600.00	  601.08	-1747.33	  404.47
     31.2700	  556.00	  574.12	-1764.37	  404.19
     31.3700	  569.00	  554.14	-1731.39	  403.91
     31.4700	  546.00	  541.93	-1742.18	  403.63
     31.5700	  571.00	  535.37	-1710.62	  403.36
     31.6700	  534.00	  531.98	-1744.23	  403.08
     31.7700	  537.00	  530.10	-1739.35	  402.81
     31.8700	  543.00	  528.91	-1732.16	  402.54
     31.9700	  535.00	  528.10	-1739.35	  402.26
     32.0700	  556.00	  527.51	-1717.76	  401.99
     32.1700	  541.00	  527.12	-1732.37	  401.72
     32.2700	  541.00	  526.88	-1732.13	  401.46
     32.3700	  505.00	  526.79	-1768.04	  401.19
     32.4700	  576.00	  526.86	-1697.11	  400.92
     32.5700	  562.00	  527.10	-1711.35	  400.66
     32.6700	  517.00	  527.54	-1756.79	  400.40
     32.7700	  572.00	  528.22	-1702.47	  400.13
     32.8700	  542.00	  529.21	-1733.46	  399.87
     32.9700	  547.00	  530.63	-1729.88	  399.61
     33.0700	  534.00	  532.70	-1744.95	  399.36
     33.1700	  521.00	  535.86	-1761.11	  399.10
     33.2700	  529.00	  541.18	-1758.43	  398.84
     33.3700	  558.00	  550.91	-1739.16	  398.59
     33.4700	  569.00	  569.36	-1746.61	  398.34
     33.5700	  592.00	  603.32	-1757.57	  398.09
     33.6700	  611.00	  660.49	-1795.74	  397.84
     33.7700	  753.00	  744.25	-1737.50	  397.59
     33.8700	  864.00	  845.36	-1727.61	  397.34
     33.9700	 1010.00	  936.77	-1673.02	  397.10
     34.0700	 1070.00	  977.03	-1653.28	  396.85
     34.1700	  991.00	  935.71	-1690.96	  396.61
     34.2700	  876.00	  834.12	-1704.37	  396.37
     34.3700	  809.00	  724.61	-1661.86	  396.13
     34.4700	  636.00	  639.52	-1749.77	  395.89
     34.5700	  535.00	  585.71	-1796.96	  395.65
     34.6700	  572.00	  556.37	-1730.62	  395.42
     34.7700	  557.00	  541.53	-1730.78	  395.18
     34.8700	  535.00	  533.76	-1745.01	  394.95
     34.9700	  516.00	  529.13	-1759.38	  394.72
     35.0700	  571.00	  525.93	-1701.18	  394.49
     35.1700	  533.00	  523.54	-1736.79	  394.26
     35.2700	  550.00	  521.64	-1717.89	  394.03
     35.3700	  506.00	  520.09	-1760.34	  393.81
     35.4700	  529.00	  518.81	-1736.06	  393.58
     35.5700	  522.00	  517.73	-1741.98	  393.36
     35.6700	  534.00	  516.80	-1729.05	  393.14
     35.7700	  476.00	  515.99	-1786.24	  392.92
     35.8700	  501.00	  515.28	-1760.53	  392.70
     35.9700	  481.00	  515.12	-1780.37	  392.49
     36.0700	  455.00	  514.56	-1805.81	  392.27
     36.1700	  491.00	  514.06	-1769.31	  392.06
     36.2700	  520.00	  513.61	-1739.86	  391.85
     36.3700	  512.00	  513.19	-1747.44	  391.64
     36.4700	  547.00	  512.82	-1712.07	  391.43
     36.5700	  482.00	  512.49	-1776.74	  391.22
     36.6700	  524.00	  512.20	-1734.45	  391.02
     36.7700	  508.00	  511.95	-1750.20	  390.82
     36.8700	  510.00	  511.77	-1748.02	  390.61
     36.9700	  547.00	  511.71	-1710.96	  390.41
     37.0700	  516.00	  511.90	-1742.15	  390.21
     37.1700	  534.00	  512.55	-1724.80	  390.02
     37.2700	  554.00	  513.98	-1706.23	  389.82
     37.3700	  512.00	  516.51	-1750.76	  389.63
     37.4700	  522.00	  520.13	-1744.38	  389.44
     37.5700	  542.00	  524.21	-1728.46	  389.24
     37.6700	  548.00	  527.50	-1725.75	  389.06
     37.7700	  538.00	  528.55	-1736.80	  388.87
     37.8700	  482.00	  527.09	-1791.34	  388.68
     37.9700	  473.00	  524.21	-1797.46	  388.50
     38.0700	  548.00	  520.85	-1719.10	  388.32
     38.1700	  536.00	  517.37	-1727.62	  388.13
     38.2700	  558.00	  514.16	-1702.41	  387.96
     38.3700	  500.00	  511.61	-1757.86	  387.78
     38.4700	  517.00	  509.80	-1739.05	  387.60
     38.5700	  505.00	  508.62	-1749.87	  387.43
     38.6700	  484.00	  507.88	-1770.13	  387.25
     38.7700	  470.00	  507.31	-1783.56	  387.08
     38.8700	  490.00	  506.97	-1763.22	  386.91
     38.9700	  477.00	  506.70	-1775.95	  386.75
     39.0700	  506.00	  506.46	-1746.71	  386.58
     39.1700	  486.00	  506.25	-1766.50	  386.42
     39.2700	  515.00	  505.97	-1737.22	  386.25
     39.3700	  479.00	  505.79	-1773.04	  386.09
     39.4700	  500.00	  505.76	-1752.01	  385.93
     39.5700	  501.00	  505.60	-1750.85	  385.78
     39.6700	  537.00	  505.46	-1714.71	  385.62
     39.7700	  503.00	  505.33	-1748.58	  385.47
     39.8700	  521.00	  505.20	-1730.45	  385.31
     39.9700	  489.00	  505.09	-1762.34	  385.16
     40.0700	  479.00	  504.99	-1772.24	  385.01
     40.1700	  505.00	  504.89	-1746.14	  384.87
     40.2700	  507.00	  504.81	-1744.06	  384.72
     40.3700	  530.00	  504.74	-1720.99	  384.58
     40.4700	  509.00	  504.68	-1741.93	  384.44
     40.5700	  475.00	  504.64	-1775.89	  384.30
     40.6700	  543.00	  504.61	-1707.86	  384.16
     40.7700	  522.00	  504.61	-1728.86	  384.02
     40.8700	  558.00	  504.62	-1692.87	  383.88
     40.9700	  477.00	  504.67	-1773.92	  383.75
     41.0700	  481.00	  504.75	-1770.00	  383.62
     41.1700	  497.00	  504.87	-1754.12	  383.49
     41.2700	  517.00	  505.00	-1734.25	  383.36
     41.3700	  505.00	  505.24	-1746.49	  383.23
     41.4700	  496.00	  505.56	-1755.81	  383.11
     41.5700	  481.00	  506.43	-1771.68	  382.98
     41.6700	  499.00	  507.05	-1754.30	  382.86
     41.7700	  487.00	  507.99	-1767.24	  382.74
     41.8700	  516.00	  509.57	-1739.82	  382.63
     41.9700	  493.00	  512.49	-1765.74	  382.51
     42.0700	  484.00	  518.10	-1780.35	  382.39
     42.1700	  484.00	  528.54	-1790.79	  382.28
     42.2700	  562.00	  546.23	-1730.48	  382.17
     42.3700	  578.00	  572.53	-1740.78	  382.06
     42.4700	  583.00	  605.29	-1768.54	  381.95
     42.5700	  596.00	  637.37	-1787.62	  381.85
     42.6700	  612.00	  657.16	-1791.41	  381.74
     42.7700	  622.00	  654.32	-1778.57	  381.64
     42.8700	  527.00	  629.52	-1848.77	  381.54
     42.9700	  542.00	  595.14	-1799.39	  381.44
     43.0700	  557.00	  563.01	-1752.26	  381.34
     43.1700	  488.00	  538.91	-1797.16	  381.25
     43.2700	  473.00	  523.58	-1796.83	  381.15
     43.3700	  504.00	  514.99	-1757.24	  381.06
     43.4700	  497.00	  510.53	-1759.78	  380.97
     43.5700	  489.00	  508.21	-1765.46	  380.88
     43.6700	  530.00	  507.06	-1723.31	  380.79
     43.7700	  515.00	  506.19	-1737.44	  380.71
     43.8700	  502.00	  505.57	-1749.82	  380.62
     43.9700	  505.00	  505.14	-1746.39	  380.54
     44.0700	  516.00	  504.78	-1735.03	  380.46
     44.1700	  527.00	  504.50	-1723.75	  380.38
     44.2700	  513.00	  504.28	-1737.53	  380.30
     44.3700	  530.00	  504.11	-1720.36	  380.23
     44.4700	  493.00	  503.99	-1757.24	  380.15
     44.5700	  522.00	  503.78	-1728.03	  380.08
     44.6700	  535.00	  503.72	-1714.97	  380.01
     44.7700	  516.00	  503.70	-1733.95	  379.94
     44.8700	  496.00	  503.70	-1753.95	  379.88
     44.9700	  480.00	  503.72	-1769.97	  379.81
     45.0700	  488.00	  503.77	-1762.02	  379.75
     45.1700	  530.00	  504.02	-1720.27	  379.69
     45.2700	  517.00	  504.11	-1733.36	  379.63
     45.3700	  496.00	  504.23	-1754.48	  379.57
     45.4700	  520.00	  504.37	-1730.62	  379.51
     45.5700	  477.00	  504.52	-1773.77	  379.46
     45.6700	  515.00	  504.71	-1735.96	  379.40
     45.7700	  489.00	  504.92	-1762.17	  379.35
     45.8700	  516.00	  505.16	-1735.41	  379.30
     45.9700	  531.00	  505.42	-1720.67	  379.25
     46.0700	  517.00	  505.73	-1734.98	  379.20
     46.1700	  510.00	  506.07	-1742.32	  379.16
     46.2700	  499.00	  506.45	-1753.70	  379.11
     46.3700	  544.00	  506.88	-1709.13	  379.07
     46.4700	  490.00	  507.37	-1763.61	  379.03
     46.5700	  486.00	  507.92	-1768.17	  378.99
     46.6700	  527.00	  508.56	-1727.81	  378.96
     46.7700	  493.00	  509.30	-1762.55	  378.92
     46.8700	  516.00	  510.21	-1740.46	  378.89
     46.9700	  473.00	  511.40	-1784.65	  378.85
     47.0700	  503.00	  513.12	-1756.37	  378.82
     47.1700	  496.00	  515.87	-1766.12	  378.80
     47.2700	  538.00	  520.50	-1728.75	  378.77
     47.3700	  541.00	  527.97	-1733.22	  378.74
     47.4700	  594.00	  539.31	-1691.56	  378.72
     47.5700	  575.00	  554.62	-1725.87	  378.69
     47.6700	  573.00	  572.33	-1745.58	  378.67
     47.7700	  577.00	  588.68	-1757.93	  378.65
     47.8700	  576.00	  598.39	-1768.64	  378.64
     47.9700	  605.00	  597.48	-1738.73	  378.62
     48.0700	  580.00	  587.10	-1753.35	  378.61
     48.1700	  560.00	  572.51	-1758.76	  378.59
     48.2700	  569.00	  558.83	-1736.08	  378.58
     48.3700	  526.00	  548.90	-1769.15	  378.57
     48.4700	  555.00	  543.47	-1734.72	  378.56
     48.5700	  473.00	  542.04	-1815.29	  378.55
     48.6700	  506.00	  543.61	-1783.86	  378.55
     48.7700	  564.00	  547.40	-1729.65	  378.54
     48.8700	  531.00	  553.00	-1768.25	  378.54
     48.9700	  553.00	  560.54	-1753.79	  378.54
     49.0700	  569.00	  570.69	-1747.94	  378.54
     49.1700	  563.00	  585.12	-1768.37	  378.54
     49.2700	  608.00	  607.28	-1745.53	  378.55
     49.3700	  651.00	  643.76	-1739.01	  378.55
     49.4700	  696.00	  705.99	-1756.24	  378.56
     49.5700	  766.00	  809.30	-1789.55	  378.57
     49.6700	  916.00	  972.23	-1802.48	  378.58
     49.7700	 1178.00	 1208.50	-1776.75	  378.59
     49.8700	 1450.00	 1516.71	-1812.96	  378.60
     49.9700	 1852.00	 1868.43	-1762.68	  378.62
     50.0700	 2279.00	 2199.14	-1666.39	  378.63
     50.1700	 2502.00	 2412.37	-1656.62	  378.65
     50.2700	 2485.00	 2420.94	-1682.19	  378.67
     50.3700	 2294.00	 2218.76	-1671.01	  378.69
     50.4700	 1884.00	 1890.78	-1753.03	  378.71
     50.5700	 1440.00	 1539.15	-1845.40	  378.73
     50.6700	 1050.00	 1231.91	-1928.16	  378.75
     50.7700	  814.00	  999.04	-1931.29	  378.78
     50.8700	  714.00	  842.22	-1874.47	  378.81
     50.9700	  698.00	  746.49	-1794.74	  378.83
     51.0700	  625.00	  690.92	-1812.17	  378.86
     51.1700	  640.00	  656.59	-1762.84	  378.90
     51.2700	  610.00	  631.19	-1767.44	  378.93
     51.3700	  613.00	  609.63	-1742.88	  378.96
     51.4700	  633.00	  591.13	-1704.38	  379.00
     51.5700	  552.00	  576.09	-1770.34	  379.03
     51.6700	  553.00	  564.69	-1757.94	  379.07
     51.7700	  581.00	  556.63	-1721.88	  379.11
     51.8700	  543.00	  551.21	-1754.46	  379.15
     51.9700	  534.00	  547.67	-1759.92	  379.19
     52.0700	  541.00	  545.43	-1750.68	  379.24
     52.1700	  557.00	  544.43	-1733.68	  379.28
     52.2700	  533.00	  544.13	-1757.38	  379.33
     52.3700	  549.00	  544.89	-1742.14	  379.37
     52.4700	  591.00	  547.19	-1702.44	  379.42
     52.5700	  552.00	  552.13	-1746.38	  379.47
     52.6700	  577.00	  562.02	-1731.27	  379.52
     52.7700	  668.00	  580.97	-1659.22	  379.58
     52.8700	  672.00	  615.28	-1689.53	  379.63
     52.9700	  743.00	  672.52	-1675.77	  379.69
     53.0700	  855.00	  758.77	-1650.02	  379.74
     53.1700	  941.00	  874.16	-1679.41	  379.80
     53.2700	  990.00	 1008.08	-1764.33	  379.86
     53.3700	 1173.00	 1136.21	-1709.46	  379.92
     53.4700	 1256.00	 1222.86	-1713.11	  379.98
     53.5700	 1157.00	 1234.90	-1824.15	  380.04
     53.6700	 1087.00	 1166.50	-1825.75	  380.10
     53.7700	  980.00	 1045.45	-1811.70	  380.17
     53.8700	  906.00	  909.74	-1749.99	  380.24
     53.9700	  746.00	  787.65	-1787.90	  380.30
     54.0700	  676.00	  693.33	-1763.58	  380.37
     54.1700	  647.00	  629.10	-1728.35	  380.44
     54.2700	  574.00	  589.85	-1762.10	  380.51
     54.3700	  533.00	  567.95	-1781.20	  380.58
     54.4700	  580.00	  556.50	-1722.75	  380.66
     54.5700	  587.00	  550.82	-1710.07	  380.73
     54.6700	  555.00	  548.14	-1739.39	  380.81
     54.7700	  543.00	  547.10	-1750.35	  380.88
     54.8700	  527.00	  547.11	-1766.36	  380.96
     54.9700	  552.00	  547.93	-1742.18	  381.04
     55.0700	  566.00	  549.48	-1729.73	  381.12
     55.1700	  559.00	  551.79	-1739.04	  381.20
     55.2700	  592.00	  554.88	-1709.13	  381.28
     55.3700	  535.00	  558.89	-1770.14	  381.36
     55.4700	  576.00	  564.04	-1734.29	  381.45
     55.5700	  562.00	  570.71	-1754.96	  381.53
     55.6700	  616.00	  579.70	-1709.95	  381.62
     55.7700	  597.00	  592.63	-1741.88	  381.70
     55.8700	  597.00	  612.73	-1761.98	  381.79
     55.9700	  640.00	  646.10	-1752.35	  381.88
     56.0700	  649.00	  702.85	-1800.10	  381.97
     56.1700	  771.00	  797.63	-1772.88	  382.06
     56.2700	  845.00	  947.90	-1849.15	  382.16
     56.3700	 1121.00	 1168.77	-1794.02	  382.25
     56.4700	 1397.00	 1464.86	-1814.11	  382.34
     56.5700	 1635.00	 1820.51	-1931.76	  382.44
     56.6700	 2105.00	 2192.40	-1833.65	  382.53
     56.7700	 2504.00	 2507.19	-1749.44	  382.63
     56.8700	 2504.00	 2674.81	-1917.06	  382.73
     56.9700	 2491.00	 2633.36	-1888.61	  382.83
     57.0700	 2374.00	 2398.84	-1771.09	  382.93
     57.1700	 2077.00	 2052.20	-1721.45	  383.03
     57.2700	 1707.00	 1681.46	-1720.71	  383.13
     57.3700	 1316.00	 1348.78	-1779.03	  383.23
     57.4700	 1043.00	 1085.72	-1788.97	  383.33
     57.5700	  847.00	  898.94	-1798.19	  383.44
     57.6700	  806.00	  778.88	-1719.13	  383.54
     57.7700	  739.00	  709.33	-1716.58	  383.65
     57.8700	  686.00	  674.86	-1735.11	  383.76
     57.9700	  676.00	  664.50	-1734.75	  383.86
     58.0700	  613.00	  672.44	-1805.69	  383.97
     58.1700	  719.00	  696.79	-1724.04	  384.08
     58.2700	  823.00	  737.72	-1660.97	  384.19
     58.3700	  865.00	  795.60	-1676.85	  384.30
     58.4700	  911.00	  869.31	-1704.56	  384.41
     58.5700	 1081.00	  954.62	-1619.87	  384.53
     58.6700	 1204.00	 1043.50	-1585.75	  384.64
     58.7700	 1355.00	 1126.27	-1517.52	  384.75
     58.8700	 1441.00	 1195.83	-1501.08	  384.87
     58.9700	 1538.00	 1247.84	-1456.09	  384.98
     59.0700	 1599.00	 1276.66	-1423.91	  385.10
     59.1700	 1533.00	 1276.94	-1490.19	  385.22
     59.2700	 1503.00	 1251.76	-1495.01	  385.33
     59.3700	 1390.00	 1213.50	-1569.75	  385.45
     59.4700	 1232.00	 1175.57	-1689.82	  385.57
     59.5700	 1166.00	 1147.41	-1727.66	  385.69
     59.6700	 1169.00	 1137.05	-1714.30	  385.81
     59.7700	 1098.00	 1153.39	-1801.64	  385.93
     59.8700	 1191.00	 1202.00	-1757.25	  386.05
     59.9700	 1308.00	 1279.19	-1717.44	  386.18
     60.0700	 1477.00	 1369.23	-1638.48	  386.30
     60.1700	 1517.00	 1444.94	-1674.19	  386.42
     60.2700	 1557.00	 1474.28	-1663.53	  386.55
     60.3700	 1464.00	 1436.51	-1718.76	  386.67
     60.4700	 1384.00	 1336.94	-1699.19	  386.80
     60.5700	 1232.00	 1201.05	-1715.30	  386.92
     60.6700	 1091.00	 1056.95	-1712.20	  387.05
     60.7700	  895.00	  925.43	-1776.68	  387.17
     60.8700	  806.00	  818.37	-1758.62	  387.30
     60.9700	  720.00	  740.04	-1766.29	  387.43
     61.0700	  622.00	  689.59	-1813.84	  387.56
     61.1700	  694.00	  664.01	-1716.26	  387.69
     61.2700	  666.00	  660.78	-1741.03	  387.82
     61.3700	  675.00	  679.55	-1750.80	  387.95
     61.4700	  688.00	  722.39	-1780.64	  388.08
     61.5700	  725.00	  792.54	-1813.79	  388.21
     61.6700	  814.00	  892.03	-1824.28	  388.34
     61.7700	  937.00	 1018.71	-1827.96	  388.47
     61.8700	 1088.00	 1163.56	-1821.81	  388.61
     61.9700	 1234.00	 1308.92	-1821.17	  388.74
     62.0700	 1355.00	 1428.35	-1819.60	  388.87
     62.1700	 1386.00	 1491.56	-1851.81	  389.01
     62.2700	 1399.00	 1478.08	-1825.33	  389.14
     62.3700	 1335.00	 1391.88	-1803.13	  389.27
     62.4700	 1156.00	 1258.33	-1848.58	  389.41
     62.5700	 1071.00	 1107.69	-1782.94	  389.54
     62.6700	  883.00	  963.70	-1826.95	  389.68
     62.7700	  728.00	  841.02	-1859.27	  389.82
     62.8700	  663.00	  745.79	-1829.04	  389.95
     62.9700	  656.00	  677.65	-1767.90	  390.09
     63.0700	  625.00	  632.29	-1753.54	  390.23
     63.1700	  622.00	  603.94	-1728.19	  390.36
     63.2700	  590.00	  587.22	-1743.47	  390.50
     63.3700	  572.00	  578.12	-1752.37	  390.64
     63.4700	  557.00	  574.22	-1763.47	  390.78
     63.5700	  573.00	  574.62	-1747.87	  390.91
     63.6700	  553.00	  579.64	-1772.89	  391.05
     63.7700	  634.00	  590.64	-1702.89	  391.19
     63.8700	  657.00	  609.62	-1698.87	  391.33
     63.9700	  673.00	  638.71	-1711.96	  391.47
     64.0700	  708.00	  679.37	-1717.62	  391.61
     64.1700	  767.00	  731.43	-1710.68	  391.75
     64.2700	  786.00	  792.18	-1752.43	  391.89
     64.3700	  955.00	  855.71	-1646.96	  392.03
     64.4700	 1010.00	  912.91	-1649.16	  392.17
     64.5700	 1037.00	  952.42	-1661.67	  392.31
     64.6700	 1082.00	  966.70	-1630.95	  392.45
     64.7700	 1050.00	  953.14	-1649.39	  392.59
     64.8700	  965.00	  916.48	-1697.73	  392.73
     64.9700	  935.00	  865.34	-1676.59	  392.88
     65.0700	  837.00	  809.21	-1718.46	  393.02
     65.1700	  812.00	  755.80	-1690.05	  393.16
     65.2700	  719.00	  709.55	-1736.80	  393.30
     65.3700	  665.00	  671.76	-1753.01	  393.44
     65.4700	  625.00	  641.77	-1763.02	  393.58
     65.5700	  637.00	  618.37	-1727.62	  393.72
     65.6700	  611.00	  600.42	-1735.67	  393.87
     65.7700	  570.00	  586.98	-1763.23	  394.01
     65.8700	  576.00	  577.27	-1747.52	  394.15
     65.9700	  530.00	  570.65	-1786.90	  394.29
     66.0700	  576.00	  566.61	-1736.86	  394.43
     66.1700	  529.00	  564.68	-1781.93	  394.57
     66.2700	  527.00	  564.49	-1783.74	  394.72
     66.3700	  563.00	  565.73	-1748.98	  394.86
     66.4700	  602.00	  568.27	-1712.52	  395.00
     66.5700	  584.00	  572.27	-1734.52	  395.14
     66.6700	  587.00	  577.92	-1737.17	  395.28
     66.7700	  607.00	  586.20	-1725.45	  395.43
     66.8700	  558.00	  598.83	-1787.08	  395.57
     66.9700	  587.00	  618.77	-1778.02	  395.71
     67.0700	  607.00	  650.69	-1789.94	  395.85
     67.1700	  667.00	  701.29	-1780.54	  395.99
     67.2700	  764.00	  779.00	-1761.25	  396.13
     67.3700	  903.00	  892.97	-1736.22	  396.27
     67.4700	 1009.00	 1050.74	-1787.99	  396.41
     67.5700	 1276.00	 1254.92	-1725.17	  396.55
     67.6700	 1468.00	 1500.00	-1778.25	  396.69
     67.7700	 1787.00	 1769.79	-1729.04	  396.83
     67.8700	 2060.00	 2035.49	-1721.74	  396.97
     67.9700	 2268.00	 2256.82	-1735.07	  397.11
     68.0700	 2374.00	 2388.61	-1760.86	  397.25
     68.1700	 2480.00	 2397.13	-1663.38	  397.39
     68.2700	 2338.00	 2280.04	-1688.29	  397.53
     68.3700	 2046.00	 2067.87	-1768.12	  397.67
     68.4700	 1799.00	 1805.80	-1753.05	  397.81
     68.5700	 1510.00	 1534.99	-1771.24	  397.95
     68.6700	 1383.00	 1285.91	-1649.16	  398.09
     68.7700	 1014.00	 1076.54	-1808.79	  398.23
     68.8700	  886.00	  913.43	-1773.68	  398.36
     68.9700	  742.00	  794.78	-1799.03	  398.50
     69.0700	  713.00	  713.47	-1746.72	  398.64
     69.1700	  661.00	  660.46	-1745.71	  398.78
     69.2700	  657.00	  627.10	-1716.35	  398.91
     69.3700	  617.00	  606.47	-1735.72	  399.05
     69.4700	  652.00	  593.62	-1687.87	  399.18
     69.5700	  644.00	  585.39	-1687.64	  399.32
     69.6700	  538.00	  579.91	-1788.16	  399.45
     69.7700	  585.00	  576.15	-1737.40	  399.59
     69.8700	  580.00	  573.55	-1739.80	  399.72
     69.9700	  559.00	  571.84	-1759.09	  399.86
     70.0700	  562.00	  570.88	-1755.13	  399.99
     70.1700	  582.00	  570.65	-1734.90	  400.12
     70.2700	  613.00	  571.11	-1704.36	  400.26
     70.3700	  527.00	  572.41	-1791.66	  400.39
     70.4700	  601.00	  574.77	-1720.02	  400.52
     70.5700	  562.00	  578.65	-1762.90	  400.65
     70.6700	  552.00	  584.94	-1779.19	  400.78
     70.7700	  564.00	  595.11	-1777.36	  400.91
     70.8700	  585.00	  611.57	-1772.82	  401.04
     70.9700	  594.00	  637.82	-1790.07	  401.17
     71.0700	  614.00	  678.59	-1810.84	  401.30
     71.1700	  759.00	  739.51	-1726.76	  401.43
     71.2700	  804.00	  826.27	-1768.52	  401.56
     71.3700	  883.00	  943.21	-1806.46	  401.69
     71.4700	 1129.00	 1092.18	-1709.43	  401.81
     71.5700	 1276.00	 1267.45	-1737.70	  401.94
     71.6700	 1389.00	 1459.18	-1816.43	  402.06
     71.7700	 1591.00	 1649.52	-1804.77	  402.19
     71.8700	 1692.00	 1813.84	-1868.09	  402.31
     71.9700	 1890.00	 1923.96	-1780.21	  402.44
     72.0700	 1960.00	 1956.32	-1742.57	  402.56
     72.1700	 1934.00	 1903.23	-1715.48	  402.68
     72.2700	 1770.00	 1777.65	-1753.90	  402.81
     72.3700	 1687.00	 1605.10	-1664.35	  402.93
     72.4700	 1540.00	 1414.12	-1620.37	  403.05
     72.5700	 1291.00	 1227.06	-1682.31	  403.17
     72.6700	 1154.00	 1059.57	-1651.82	  403.29
     72.7700	 1087.00	  920.12	-1579.37	  403.41
     72.8700	  969.00	  811.07	-1588.32	  403.53
     72.9700	  854.00	  730.30	-1622.55	  403.64
     73.0700	  765.00	  673.16	-1654.41	  403.76
     73.1700	  732.00	  634.18	-1648.43	  403.88
     73.2700	  677.00	  608.17	-1677.42	  403.99
     73.3700	  659.00	  590.97	-1678.22	  404.11
     73.4700	  641.00	  579.55	-1684.80	  404.22
     73.5700	  634.00	  571.89	-1684.14	  404.33
     73.6700	  600.00	  566.74	-1712.99	  404.45
     73.7700	  615.00	  563.35	-1694.60	  404.56
     73.8700	  586.00	  561.30	-1721.55	  404.67
     73.9700	  557.00	  560.32	-1749.57	  404.78
     74.0700	  594.00	  560.23	-1712.48	  404.89
     74.1700	  591.00	  560.81	-1716.06	  405.00
     74.2700	  586.00	  561.84	-1722.09	  405.10
     74.3700	  636.00	  563.00	-1673.25	  405.21
     74.4700	  632.00	  563.97	-1678.22	  405.32
     74.5700	  626.00	  564.36	-1684.61	  405.42
     74.6700	  658.00	  563.93	-1652.18	  405.53
     74.7700	  645.00	  562.60	-1663.85	  405.63
     74.8700	  629.00	  560.55	-1677.80	  405.73
     74.9700	  639.00	  558.14	-1665.39	  405.83
     75.0700	  611.00	  555.77	-1691.02	  405.93
     75.1700	  548.00	  553.82	-1752.07	  406.03
     75.2700	  545.00	  552.64	-1753.89	  406.13
     75.3700	  568.00	  552.70	-1730.95	  406.23
     75.4700	  558.00	  554.45	-1742.70	  406.33
     75.5700	  586.00	  558.35	-1718.60	  406.42
     75.6700	  578.00	  564.78	-1733.03	  406.52
     75.7700	  603.00	  574.38	-1717.63	  406.61
     75.8700	  577.00	  587.35	-1756.60	  406.71
     75.9700	  572.00	  603.63	-1777.88	  406.80
     76.0700	  616.00	  622.72	-1752.97	  406.89
     76.1700	  666.00	  643.51	-1723.76	  406.98
     76.2700	  649.00	  664.30	-1761.55	  407.07
     76.3700	  689.00	  682.78	-1740.03	  407.16
     76.4700	  662.00	  696.32	-1780.57	  407.25
     76.5700	  721.00	  702.50	-1727.75	  407.33
     76.6700	  710.00	  700.02	-1736.27	  407.42
     76.7700	  633.00	  689.39	-1802.64	  407.51
     76.8700	  668.00	  672.61	-1750.86	  407.59
     76.9700	  671.00	  652.14	-1727.39	  407.67
     77.0700	  600.00	  630.81	-1777.06	  407.75
     77.1700	  576.00	  610.44	-1780.69	  407.83
     77.2700	  574.00	  592.37	-1764.62	  407.91
     77.3700	  544.00	  577.34	-1779.59	  407.99
     77.4700	  568.00	  565.52	-1743.77	  408.07
     77.5700	  554.00	  556.71	-1748.96	  408.14
     77.6700	  514.00	  550.44	-1782.69	  408.22
     77.7700	  523.00	  546.16	-1769.41	  408.29
     77.8700	  521.00	  543.34	-1768.59	  408.37
     77.9700	  576.00	  541.52	-1711.77	  408.44
     78.0700	  521.00	  540.37	-1765.62	  408.51
     78.1700	  554.00	  539.65	-1731.90	  408.58
     78.2700	  503.00	  539.19	-1782.44	  408.65
     78.3700	  506.00	  538.92	-1779.17	  408.71
     78.4700	  513.00	  538.77	-1772.02	  408.78
     78.5700	  524.00	  538.72	-1760.97	  408.84
     78.6700	  544.00	  538.77	-1741.02	  408.91
     78.7700	  535.00	  538.92	-1750.17	  408.97
     78.8700	  504.00	  539.20	-1781.45	  409.03
     78.9700	  568.00	  539.64	-1717.89	  409.09
     79.0700	  496.00	  540.27	-1790.52	  409.15
     79.1700	  524.00	  541.15	-1763.40	  409.21
     79.2700	  532.00	  542.15	-1756.40	  409.26
     79.3700	  506.00	  543.68	-1783.93	  409.32
     79.4700	  520.00	  545.64	-1771.89	  409.37
     79.5700	  545.00	  548.09	-1749.34	  409.43
     79.6700	  509.00	  551.12	-1788.37	  409.48
     79.7700	  505.00	  554.84	-1796.09	  409.53
     79.8700	  538.00	  559.38	-1767.63	  409.58
     79.9700	  541.00	  564.92	-1770.17	  409.62
     80.0700	  539.00	  571.69	-1778.94	  409.67
     80.1700	  550.00	  579.98	-1776.23	  409.72
     80.2700	  576.00	  590.08	-1760.33	  409.76
     80.3700	  530.00	  602.25	-1818.50	  409.80
     80.4700	  576.00	  616.56	-1786.81	  409.84
     80.5700	  631.00	  632.81	-1748.06	  409.89
     80.6700	  666.00	  650.45	-1730.70	  409.92
     80.7700	  621.00	  668.57	-1793.82	  409.96
     80.8700	  695.00	  685.93	-1737.18	  410.00
     80.9700	  621.00	  701.14	-1826.39	  410.03
     81.0700	  709.00	  712.94	-1750.19	  410.07
     81.1700	  718.00	  720.46	-1748.71	  410.10
     81.2700	  746.00	  723.19	-1723.44	  410.13
     81.3700	  751.00	  721.04	-1716.29	  410.16
     81.4700	  768.00	  714.31	-1692.56	  410.19
     81.5700	  779.00	  703.62	-1670.87	  410.21
     81.6700	  762.00	  689.82	-1674.07	  410.24
     81.7700	  691.00	  673.82	-1729.07	  410.26
     81.8700	  707.00	  656.61	-1695.86	  410.29
     81.9700	  756.00	  639.21	-1629.46	  410.31
     82.0700	  623.00	  622.49	-1745.74	  410.33
     82.1700	  681.00	  607.23	-1672.48	  410.35
     82.2700	  636.00	  593.83	-1704.08	  410.36
     82.3700	  615.00	  582.47	-1713.72	  410.38
     82.4700	  585.00	  573.18	-1734.43	  410.39
     82.5700	  603.00	  565.87	-1709.12	  410.41
     82.6700	  584.00	  560.46	-1722.71	  410.42
     82.7700	  565.00	  556.78	-1738.03	  410.43
     82.8700	  572.00	  554.68	-1728.93	  410.44
     82.9700	  521.00	  554.06	-1779.31	  410.45
     83.0700	  507.00	  554.80	-1794.05	  410.45
     83.1700	  573.00	  556.82	-1730.07	  410.46
     83.2700	  520.00	  560.02	-1786.27	  410.46
     83.3700	  524.00	  564.23	-1786.48	  410.46
     83.4700	  565.00	  569.23	-1750.48	  410.46
     83.5700	  546.00	  574.71	-1774.96	  410.46
     83.6700	  574.00	  580.25	-1752.50	  410.46
     83.7700	  533.00	  585.32	-1798.57	  410.45
     83.8700	  583.00	  589.34	-1752.59	  410.45
     83.9700	  550.00	  591.77	-1788.02	  410.44
     84.0700	  547.00	  592.18	-1791.43	  410.43
     84.1700	  574.00	  590.48	-1762.73	  410.42
     84.2700	  575.00	  586.92	-1758.17	  410.41
     84.3700	  610.00	  581.98	-1718.23	  410.40
     84.4700	  564.00	  576.23	-1758.48	  410.38
     84.5700	  516.00	  570.19	-1800.44	  410.37
     84.6700	  577.00	  564.31	-1733.56	  410.35
     84.7700	  551.00	  558.92	-1754.17	  410.33
     84.8700	  523.00	  554.22	-1777.47	  410.31
     84.9700	  502.00	  550.32	-1794.57	  410.29
     85.0700	  555.00	  547.24	-1738.49	  410.27
     85.1700	  526.00	  544.94	-1765.19	  410.24
     85.2700	  548.00	  543.33	-1741.58	  410.21
     85.3700	  518.00	  542.31	-1770.56	  410.19
     85.4700	  529.00	  541.79	-1759.04	  410.16
     85.5700	  526.00	  541.69	-1761.94	  410.13
     85.6700	  526.00	  541.95	-1762.20	  410.09
     85.7700	  540.00	  542.55	-1748.80	  410.06
     85.8700	  502.00	  543.48	-1787.73	  410.02
     85.9700	  511.00	  544.79	-1780.04	  409.99
     86.0700	  534.00	  546.53	-1758.78	  409.95
     86.1700	  547.00	  548.80	-1748.05	  409.91
     86.2700	  528.00	  551.70	-1769.95	  409.87
     86.3700	  566.00	  555.37	-1735.62	  409.82
     86.4700	  570.00	  559.92	-1736.17	  409.78
     86.5700	  576.00	  565.46	-1735.71	  409.73
     86.6700	  567.00	  572.02	-1751.27	  409.68
     86.7700	  610.00	  579.23	-1715.48	  409.64
     86.8700	  633.00	  587.52	-1700.77	  409.58
     86.9700	  658.00	  596.20	-1684.45	  409.53
     87.0700	  586.00	  604.77	-1765.02	  409.48
     87.1700	  651.00	  612.57	-1707.82	  409.42
     87.2700	  627.00	  618.89	-1738.14	  409.37
     87.3700	  643.00	  622.99	-1726.24	  409.31
     87.4700	  607.00	  624.33	-1763.58	  409.25
     87.5700	  676.00	  622.72	-1692.97	  409.18
     87.6700	  639.00	  618.43	-1725.68	  409.12
     87.7700	  613.00	  612.06	-1745.31	  409.06
     87.8700	  592.00	  604.45	-1758.70	  408.99
     87.9700	  633.00	  596.44	-1709.69	  408.92
     88.0700	  582.00	  588.79	-1753.04	  408.85
     88.1700	  602.00	  582.18	-1726.43	  408.78
     88.2700	  564.00	  577.10	-1759.35	  408.71
     88.3700	  562.00	  573.89	-1758.14	  408.63
     88.4700	  575.00	  572.73	-1743.98	  408.56
     88.5700	  574.00	  573.62	-1745.87	  408.48
     88.6700	  569.00	  576.42	-1753.67	  408.40
     88.7700	  592.00	  580.83	-1735.08	  408.32
     88.8700	  607.00	  586.43	-1725.68	  408.24
     88.9700	  585.00	  592.72	-1753.97	  408.16
     89.0700	  645.00	  599.08	-1700.33	  408.07
     89.1700	  623.00	  604.85	-1728.10	  407.98
     89.2700	  656.00	  609.34	-1699.59	  407.90
     89.3700	  580.00	  611.96	-1778.21	  407.81
     89.4700	  615.00	  612.29	-1743.54	  407.71
     89.5700	  596.00	  610.25	-1760.50	  407.62
     89.6700	  637.00	  606.08	-1715.33	  407.53
     89.7700	  557.00	  600.25	-1789.50	  407.43
     89.8700	  546.00	  593.35	-1793.60	  407.33
     89.9700	  577.00	  585.95	-1755.20	  407.23
     90.0700	  529.00	  578.55	-1795.80	  407.13
     90.1700	  564.00	  571.54	-1753.79	  407.03
     90.2700	  519.00	  565.21	-1792.46	  406.93
     90.3700	  565.00	  559.74	-1740.99	  406.82
     90.4700	  554.00	  555.20	-1747.45	  406.71
     90.5700	  527.00	  551.59	-1770.84	  406.61
     90.6700	  517.00	  548.84	-1778.09	  406.50
     90.7700	  482.00	  546.86	-1811.11	  406.38
     90.8700	  520.00	  545.53	-1771.78	  406.27
     90.9700	  502.00	  544.75	-1789.00	  406.16
     91.0700	  574.00	  544.44	-1716.69	  406.04
     91.1700	  492.00	  544.55	-1798.80	  405.92
     91.2700	  564.00	  545.06	-1727.31	  405.80
     91.3700	  504.00	  546.00	-1788.25	  405.68
     91.4700	  576.00	  547.43	-1717.68	  405.56
     91.5700	  513.00	  549.46	-1782.71	  405.44
     91.6700	  549.00	  552.24	-1749.49	  405.31
     91.7700	  532.00	  555.93	-1770.18	  405.18
     91.8700	  521.00	  560.74	-1785.99	  405.05
     91.9700	  529.00	  566.61	-1783.86	  404.92
     92.0700	  541.00	  574.17	-1779.42	  404.79
     92.1700	  578.00	  583.31	-1751.56	  404.66
     92.2700	  575.00	  594.06	-1765.31	  404.53
     92.3700	  621.00	  606.39	-1731.64	  404.39
     92.4700	  620.00	  620.11	-1746.36	  404.25
     92.5700	  632.00	  634.94	-1749.19	  404.11
     92.6700	  607.00	  650.46	-1789.71	  403.97
     92.7700	  662.00	  666.12	-1750.37	  403.83
     92.8700	  681.00	  681.31	-1746.56	  403.69
     92.9700	  740.00	  695.37	-1701.62	  403.54
     93.0700	  754.00	  707.78	-1700.03	  403.40
     93.1700	  777.00	  718.26	-1687.51	  403.25
     93.2700	  780.00	  726.92	-1693.17	  403.10
     93.3700	  788.00	  734.19	-1692.44	  402.95
     93.4700	  819.00	  740.74	-1667.99	  402.79
     93.5700	  849.00	  747.28	-1644.53	  402.64
     93.6700	  872.00	  754.46	-1628.71	  402.49
     93.7700	  819.00	  762.86	-1690.11	  402.33
     93.8700	  851.00	  772.98	-1668.23	  402.17
     93.9700	  854.00	  785.26	-1677.51	  402.01
     94.0700	  909.00	  799.97	-1637.22	  401.85
     94.1700	  835.00	  817.17	-1728.42	  401.69
     94.2700	  874.00	  836.49	-1708.74	  401.52
     94.3700	  870.00	  857.20	-1733.45	  401.36
     94.4700	  859.00	  878.04	-1765.29	  401.19
     94.5700	  926.00	  897.41	-1717.66	  401.02
     94.6700	  991.00	  913.39	-1668.64	  400.86
     94.7700	  900.00	  924.00	-1770.25	  400.68
     94.8700	  955.00	  927.55	-1718.80	  400.51
     94.9700	  928.00	  923.06	-1741.31	  400.34
     95.0700	  870.00	  910.56	-1786.81	  400.16
     95.1700	  901.00	  891.04	-1736.29	  399.99
     95.2700	  869.00	  866.24	-1743.49	  399.81
     95.3700	  840.00	  838.22	-1744.47	  399.63
     95.4700	  784.00	  809.12	-1771.37	  399.45
     95.5700	  710.00	  780.96	-1817.21	  399.27
     95.6700	  792.00	  755.62	-1709.87	  399.09
     95.7700	  705.00	  734.76	-1776.01	  398.90
     95.8700	  768.00	  719.85	-1698.10	  398.72
     95.9700	  690.00	  712.20	-1768.45	  398.53
     96.0700	  676.00	  712.92	-1783.17	  398.34
     96.1700	  694.00	  722.92	-1775.17	  398.15
     96.2700	  726.00	  742.92	-1763.17	  397.96
     96.3700	  739.00	  773.37	-1780.62	  397.77
     96.4700	  808.00	  814.36	-1752.61	  397.57
     96.5700	  827.00	  865.58	-1784.83	  397.38
     96.6700	  948.00	  926.19	-1724.44	  397.18
     96.7700	  980.00	  994.70	-1760.95	  396.99
     96.8700	 1034.00	 1068.97	-1781.22	  396.79
     96.9700	 1110.00	 1146.12	-1782.37	  396.59
     97.0700	 1220.00	 1222.63	-1748.88	  396.39
     97.1700	 1247.00	 1294.39	-1793.64	  396.19
     97.2700	 1369.00	 1356.90	-1734.15	  395.98
     97.3700	 1428.00	 1405.63	-1723.88	  395.78
     97.4700	 1451.00	 1436.66	-1731.91	  395.57
     97.5700	 1431.00	 1447.42	-1762.67	  395.37
     97.6700	 1417.00	 1437.24	-1766.49	  395.16
     97.7700	 1455.00	 1407.53	-1698.78	  394.95
     97.8700	 1372.00	 1361.33	-1735.58	  394.74
     97.9700	 1273.00	 1302.66	-1775.91	  394.53
     98.0700	 1226.00	 1235.93	-1756.18	  394.31
     98.1700	 1121.00	 1165.39	-1790.64	  394.10
     98.2700	 1090.00	 1095.00	-1751.25	  393.89
     98.3700	  986.00	 1028.20	-1788.45	  393.67
     98.4700	  992.00	  967.89	-1722.14	  393.45
     98.5700	  847.00	  916.39	-1815.64	  393.24
     98.6700	  834.00	  875.52	-1787.77	  393.02
     98.7700	  832.00	  846.64	-1760.89	  392.80
     98.8700	  760.00	  830.72	-1816.97	  392.58
     98.9700	  864.00	  828.44	-1710.69	  392.35
     99.0700	  816.00	  840.23	-1770.48	  392.13
     99.1700	  813.00	  866.30	-1799.55	  391.91
     99.2700	  908.00	  906.69	-1744.94	  391.68
     99.3700	  991.00	  961.21	-1716.46	  391.45
     99.4700	  952.00	 1029.37	-1823.62	  391.23
     99.5700	 1100.00	 1110.29	-1756.54	  391.00
     99.6700	 1215.00	 1202.60	-1733.85	  390.77
     99.7700	 1299.00	 1304.36	-1751.61	  390.54
     99.8700	 1479.00	 1412.98	-1680.23	  390.31
     99.9700	 1479.00	 1525.07	-1792.32	  390.08
    100.0700	 1588.00	 1636.64	-1794.89	  389.84
    100.1700	 1769.00	 1743.16	-1720.41	  389.61
    100.2700	 1863.00	 1840.02	-1723.27	  389.38
    100.3700	 1883.00	 1923.06	-1786.31	  389.14
    100.4700	 2082.00	 1988.89	-1653.14	  388.91
    100.5700	 2051.00	 2035.15	-1730.40	  388.67
    100.6700	 2024.00	 2060.36	-1782.61	  388.43
    100.7700	 2166.00	 2063.66	-1643.91	  388.19
    100.8700	 2144.00	 2044.88	-1647.13	  387.95
    100.9700	 2080.00	 2004.72	-1670.97	  387.71
    101.0700	 2030.00	 1945.11	-1661.36	  387.47
    101.1700	 1905.00	 1869.41	-1710.66	  387.23
    101.2700	 1736.00	 1782.11	-1792.36	  386.99
    101.3700	 1728.00	 1688.28	-1706.53	  386.74
    101.4700	 1612.00	 1593.04	-1727.29	  386.50
    101.5700	 1541.00	 1500.90	-1706.15	  386.25
    101.6700	 1353.00	 1415.58	-1808.83	  386.01
    101.7700	 1448.00	 1339.71	-1637.96	  385.76
    101.8700	 1269.00	 1274.86	-1752.11	  385.52
    101.9700	 1169.00	 1221.57	-1798.82	  385.27
    102.0700	 1147.00	 1179.35	-1778.60	  385.02
    102.1700	 1183.00	 1146.87	-1710.12	  384.77
    102.2700	 1120.00	 1122.09	-1748.34	  384.52
    102.3700	 1088.00	 1102.47	-1760.72	  384.27
    102.4700	 1057.00	 1085.27	-1774.52	  384.02
    102.5700	 1112.00	 1067.86	-1702.11	  383.77
    102.6700	 1068.00	 1048.07	-1726.32	  383.52
    102.7700	 1008.00	 1024.48	-1762.73	  383.27
    102.8700	 1009.00	  996.49	-1733.74	  383.02
    102.9700	  941.00	  964.32	-1769.57	  382.77
    103.0700	  898.00	  928.72	-1776.97	  382.51
    103.1700	  897.00	  890.80	-1740.05	  382.26
    103.2700	  870.00	  851.78	-1728.03	  382.00
    103.3700	  793.00	  812.87	-1766.12	  381.75
    103.4700	  784.00	  775.18	-1737.43	  381.49
    103.5700	  708.00	  739.65	-1777.90	  381.24
    103.6700	  709.00	  707.00	-1744.25	  380.98
    103.7700	  640.00	  677.75	-1784.00	  380.73
    103.8700	  687.00	  652.18	-1711.43	  380.47
    103.9700	  648.00	  630.38	-1728.63	  380.21
    104.0700	  637.00	  612.26	-1721.51	  379.96
    104.1700	  576.00	  597.60	-1767.85	  379.70
    104.2700	  574.00	  586.08	-1758.33	  379.44
    104.3700	  569.00	  577.33	-1754.58	  379.19
    104.4700	  580.00	  570.97	-1737.22	  378.93
    104.5700	  564.00	  566.62	-1748.87	  378.67
    104.6700	  563.00	  563.92	-1747.17	  378.41
    104.7700	  527.00	  562.54	-1781.79	  378.15
    104.8700	  550.00	  562.20	-1758.45	  377.89
    104.9700	  574.00	  562.65	-1734.90	  377.64
    105.0700	  529.00	  563.74	-1780.99	  377.38
    105.1700	  525.00	  565.28	-1786.53	  377.12
    105.2700	  533.00	  567.17	-1780.42	  376.86
    105.3700	  515.00	  569.36	-1800.61	  376.60
    105.4700	  566.00	  571.82	-1752.06	  376.34
    105.5700	  543.00	  574.57	-1777.82	  376.08
    105.6700	  577.00	  577.69	-1746.94	  375.82
    105.7700	  572.00	  581.29	-1755.54	  375.57
    105.8700	  505.00	  585.50	-1826.75	  375.31
    105.9700	  567.00	  590.45	-1769.70	  375.05
    106.0700	  609.00	  596.23	-1733.48	  374.79
    106.1700	  585.00	  602.91	-1764.16	  374.53
    106.2700	  595.00	  610.49	-1761.74	  374.27
    106.3700	  591.00	  618.89	-1774.14	  374.01
    106.4700	  652.00	  627.97	-1722.22	  373.76
    106.5700	  671.00	  637.54	-1712.79	  373.50
    106.6700	  619.00	  647.29	-1774.54	  373.24
    106.7700	  620.00	  656.91	-1783.16	  372.98
    106.8700	  602.00	  666.00	-1810.25	  372.73
    106.9700	  648.00	  674.16	-1772.41	  372.47
    107.0700	  634.00	  681.03	-1793.28	  372.21
    107.1700	  691.00	  686.28	-1741.53	  371.96
    107.2700	  630.00	  689.74	-1805.99	  371.70
    107.3700	  683.00	  691.37	-1754.62	  371.45
    107.4700	  697.00	  691.34	-1740.59	  371.19
    107.5700	  658.00	  689.94	-1778.19	  370.94
    107.6700	  683.00	  687.58	-1750.83	  370.68
    107.7700	  662.00	  684.70	-1768.95	  370.43
    107.8700	  696.00	  681.71	-1731.96	  370.18
    107.9700	  686.00	  678.98	-1739.23	  369.93
    108.0700	  674.00	  676.75	-1749.00	  369.67
    108.1700	  708.00	  675.20	-1713.45	  369.42
    108.2700	  647.00	  674.37	-1773.62	  369.17
    108.3700	  698.00	  674.19	-1722.44	  368.92
    108.4700	  699.00	  674.48	-1721.73	  368.67
    108.5700	  669.00	  674.99	-1752.24	  368.43
    108.6700	  686.00	  675.36	-1735.61	  368.18
    108.7700	  682.00	  675.23	-1739.48	  367.93
    108.8700	  690.00	  674.23	-1730.48	  367.68
    108.9700	  689.00	  672.05	-1729.30	  367.44
    109.0700	  701.00	  668.50	-1713.75	  367.19
    109.1700	  688.00	  663.49	-1721.74	  366.95
    109.2700	  668.00	  657.08	-1735.33	  366.71
    109.3700	  617.00	  649.46	-1778.71	  366.46
    109.4700	  670.00	  640.87	-1717.12	  366.22
    109.5700	  641.00	  631.61	-1736.86	  365.98
    109.6700	  635.00	  621.99	-1733.24	  365.74
    109.7700	  616.00	  612.30	-1742.55	  365.51
    109.8700	  616.00	  602.83	-1733.08	  365.27
    109.9700	  602.00	  593.79	-1738.04	  365.03
    110.0700	  631.00	  585.40	-1700.65	  364.80
    110.1700	  621.00	  577.79	-1703.04	  364.56
    110.2700	  588.00	  571.07	-1729.32	  364.33
    110.3700	  633.00	  565.28	-1678.53	  364.10
    110.4700	  518.00	  560.44	-1788.69	  363.87
    110.5700	  525.00	  556.53	-1777.78	  363.64
    110.6700	  577.00	  553.50	-1722.75	  363.41
    110.7700	  537.00	  551.27	-1760.52	  363.19
    110.8700	  530.00	  549.78	-1766.03	  362.96
    110.9700	  556.00	  548.93	-1739.18	  362.74
    111.0700	  555.00	  548.65	-1739.90	  362.51
    111.1700	  550.00	  548.85	-1745.10	  362.29
    111.2700	  518.00	  549.46	-1777.71	  362.07
    111.3700	  507.00	  550.43	-1789.68	  361.85
    111.4700	  573.00	  551.71	-1724.96	  361.64
    111.5700	  538.00	  553.25	-1761.50	  361.42
    111.6700	  570.00	  555.03	-1731.28	  361.21
    111.7700	  557.00	  557.02	-1746.27	  361.00
    111.8700	  503.00	  559.22	-1802.47	  360.79
    111.9700	  591.00	  561.62	-1716.87	  360.58
    112.0700	  535.00	  564.23	-1775.48	  360.37
    112.1700	  577.00	  567.06	-1736.31	  360.16
    112.2700	  580.00	  570.12	-1736.37	  359.96
    112.3700	  616.00	  573.46	-1703.71	  359.76
    112.4700	  537.00	  577.10	-1786.35	  359.56
    112.5700	  591.00	  581.11	-1736.36	  359.36
    112.6700	  625.00	  585.53	-1706.78	  359.16
    112.7700	  674.00	  590.46	-1662.71	  358.97
    112.8700	  635.00	  596.01	-1707.26	  358.78
    112.9700	  661.00	  602.32	-1687.57	  358.59
    113.0700	  687.00	  609.57	-1668.82	  358.40
    113.1700	  685.00	  618.01	-1679.26	  358.21
    113.2700	  711.00	  627.95	-1663.20	  358.03
    113.3700	  776.00	  639.78	-1610.03	  357.84
    113.4700	  777.00	  654.02	-1623.27	  357.66
    113.5700	  817.00	  671.27	-1600.52	  357.49
    113.6700	  845.00	  692.32	-1593.57	  357.31
    113.7700	  911.00	  718.11	-1553.36	  357.14
    113.8700	  878.00	  749.78	-1618.03	  356.96
    113.9700	  935.00	  788.66	-1599.91	  356.80
    114.0700	 1103.00	  836.31	-1479.56	  356.63
    114.1700	 1044.00	  894.50	-1596.75	  356.46
    114.2700	 1153.00	  965.18	-1558.43	  356.30
    114.3700	 1246.00	 1050.52	-1550.77	  356.14
    114.4700	 1334.00	 1152.78	-1565.03	  355.99
    114.5700	 1457.00	 1274.28	-1563.53	  355.83
    114.6700	 1624.00	 1417.28	-1539.53	  355.68
    114.7700	 1791.00	 1583.93	-1539.18	  355.53
    114.8700	 1818.00	 1776.12	-1704.37	  355.38
    114.9700	 2063.00	 1995.27	-1678.52	  355.24
    115.0700	 2374.00	 2242.22	-1614.47	  355.10
    115.1700	 2529.00	 2517.03	-1734.28	  354.96
    115.2700	 2770.00	 2818.98	-1795.23	  354.82
    115.3700	 3015.00	 3146.32	-1877.57	  354.69
    115.4700	 3358.00	 3496.12	-1884.37	  354.56
    115.5700	 3658.00	 3864.28	-1952.53	  354.43
    115.6700	 4038.00	 4245.45	-1953.70	  354.31
    115.7700	 4375.00	 4633.14	-2004.39	  354.19
    115.8700	 4776.00	 5019.73	-1989.98	  354.07
    115.9700	 5051.00	 5396.35	-2091.60	  353.95
    116.0700	 5645.00	 5753.27	-1854.52	  353.84
    116.1700	 6030.00	 6080.00	-1796.25	  353.73
    116.2700	 6264.00	 6365.87	-1848.12	  353.63
    116.3700	 6423.00	 6600.44	-1923.69	  353.52
    116.4700	 6764.00	 6774.19	-1756.44	  353.42
    116.5700	 6818.00	 6879.61	-1807.86	  353.33
    116.6700	 6933.00	 6911.94	-1725.19	  353.23
    116.7700	 6985.00	 6869.86	-1631.11	  353.14
    116.8700	 6838.00	 6755.56	-1663.81	  353.06
    116.9700	 6848.00	 6574.56	-1472.81	  352.98
    117.0700	 6362.00	 6334.91	-1719.16	  352.90
    117.1700	 6186.00	 6046.42	-1606.67	  352.82
    117.2700	 5694.00	 5719.60	-1771.85	  352.75
    117.3700	 5327.00	 5365.02	-1784.27	  352.68
    117.4700	 4995.00	 4992.93	-1744.18	  352.61
    117.5700	 4694.00	 4612.74	-1664.99	  352.55
    117.6700	 4262.00	 4232.93	-1717.18	  352.50
    117.7700	 3999.00	 3860.70	-1607.95	  352.44
    117.8700	 3633.00	 3502.07	-1615.32	  352.39
    117.9700	 3276.00	 3161.96	-1632.21	  352.35
    118.0700	 2944.00	 2844.01	-1646.26	  352.30
    118.1700	 2639.00	 2550.77	-1658.02	  352.26
    118.2700	 2307.00	 2283.64	-1722.89	  352.23
    118.3700	 2021.00	 2043.13	-1768.38	  352.20
    118.4700	 1703.00	 1829.02	-1872.27	  352.17
    118.5700	 1578.00	 1640.41	-1808.66	  352.15
    118.6700	 1397.00	 1475.91	-1825.16	  352.13
    118.7700	 1254.00	 1333.73	-1825.98	  352.12
    118.8700	 1093.00	 1211.83	-1865.08	  352.11
    118.9700	 1005.00	 1108.12	-1849.37	  352.11
    119.0700	  983.00	 1020.47	-1783.72	  352.10
    119.1700	  844.00	  946.80	-1849.05	  352.11
    119.2700	  800.00	  885.16	-1831.41	  352.12
    119.3700	  786.00	  833.75	-1794.00	  352.13
    119.4700	  744.00	  790.98	-1793.23	  352.15
    119.5700	  687.00	  755.44	-1814.69	  352.17
    119.6700	  685.00	  725.92	-1787.17	  352.19
    119.7700	  662.00	  701.39	-1785.64	  352.22
    119.8700	  630.00	  680.97	-1797.22	  352.26
    119.9700	  575.00	  663.96	-1835.21	  352.30
    120.0700	  610.00	  649.75	-1786.00	  352.34
    120.1700	  609.00	  637.88	-1775.13	  352.39
    120.2700	  572.00	  627.96	-1802.21	  352.45
    120.3700	  545.00	  619.68	-1820.93	  352.51
    120.4700	  542.00	  612.80	-1817.05	  352.57
    120.5700	  564.00	  607.13	-1789.38	  352.64
    120.6700	  583.00	  602.51	-1765.76	  352.72
    120.7700	  554.00	  598.82	-1791.07	  352.80
    120.8700	  522.00	  595.99	-1820.24	  352.88
    120.9700	  534.00	  593.94	-1806.19	  352.97
    121.0700	  627.00	  592.61	-1711.86	  353.07
    121.1700	  553.00	  591.96	-1785.21	  353.17
    121.2700	  550.00	  591.94	-1788.19	  353.27
    121.3700	  573.00	  592.52	-1765.77	  353.39
    121.4700	  567.00	  593.65	-1772.90	  353.50
    121.5700	  602.00	  595.29	-1739.54	  353.63
    121.6700	  601.00	  597.37	-1742.62	  353.75
    121.7700	  582.00	  599.85	-1764.10	  353.89
    121.8700	  582.00	  602.63	-1766.88	  354.03
    121.9700	  595.00	  605.67	-1756.92	  354.17
    122.0700	  606.00	  608.86	-1749.11	  354.32
    122.1700	  592.00	  612.10	-1766.35	  354.48
    122.2700	  603.00	  615.30	-1758.55	  354.64
    122.3700	  596.00	  618.34	-1768.59	  354.81
    122.4700	  641.00	  621.10	-1726.35	  354.99
    122.5700	  665.00	  623.50	-1704.75	  355.17
    122.6700	  666.00	  625.44	-1705.69	  355.35
    122.7700	  594.00	  626.83	-1779.08	  355.55
    122.8700	  635.00	  627.61	-1738.86	  355.75
    122.9700	  667.00	  627.74	-1706.99	  355.95
    123.0700	  614.00	  627.23	-1759.48	  356.16
    123.1700	  681.00	  626.08	-1691.33	  356.38
    123.2700	  678.00	  624.35	-1692.60	  356.60
    123.3700	  617.00	  622.07	-1751.32	  356.84
    123.4700	  631.00	  619.34	-1734.59	  357.07
    123.5700	  635.00	  616.21	-1727.46	  357.32
    123.6700	  635.00	  612.77	-1724.02	  357.57
    123.7700	  621.00	  609.10	-1734.35	  357.82
    123.8700	  659.00	  605.27	-1692.52	  358.09
    123.9700	  600.00	  601.37	-1747.62	  358.36
    124.0700	  599.00	  597.45	-1744.70	  358.64
    124.1700	  587.00	  593.57	-1752.82	  358.92
    124.2700	  641.00	  589.79	-1695.04	  359.21
    124.3700	  597.00	  586.16	-1735.41	  359.51
    124.4700	  582.00	  582.70	-1746.95	  359.82
    124.5700	  601.00	  579.44	-1724.69	  360.13
    124.6700	  633.00	  576.40	-1689.65	  360.45
    124.7700	  615.00	  573.61	-1704.86	  360.78
    124.8700	  580.00	  571.06	-1737.31	  361.11
    124.9700	  545.00	  478.82	-1680.07	  361.45
    125.0700	  558.00	  479.17	-1746.25	  361.80
    125.1700	  567.00	  479.52	-1746.25	  362.16
    125.2700	  576.00	  479.89	-1746.25	  362.52
    125.3700	  546.00	  480.26	-1746.25	  362.89
    125.4700	  549.00	  480.64	-1746.25	  363.27
    125.5700	  546.00	  481.03	-1746.25	  363.66
    125.6700	  542.00	  481.42	-1746.25	  364.05
    125.7700	  556.00	  481.82	-1746.25	  364.46
    125.8700	  537.00	  482.23	-1746.25	  364.87
    125.9700	  574.00	  482.65	-1746.25	  365.28
    126.0700	  590.00	  483.08	-1746.25	  365.71
    126.1700	  566.00	  483.51	-1746.25	  366.15
    126.2700	  591.00	  483.96	-1746.25	  366.59
    126.3700	  527.00	  484.41	-1746.25	  367.04
    126.4700	  579.00	  484.87	-1746.25	  367.50
    126.5700	  597.00	  485.33	-1746.25	  367.96
    126.6700	  568.00	  485.81	-1746.25	  368.44
    126.7700	  623.00	  486.29	-1746.25	  368.92
    126.8700	  617.00	  486.79	-1746.25	  369.42
    126.9700	  649.00	  487.29	-1746.25	  369.92
    127.0700	  649.00	  487.80	-1746.25	  370.43
    127.1700	  623.00	  488.31	-1746.25	  370.95
    127.2700	  626.00	  488.84	-1746.25	  371.47
    127.3700	  682.00	  489.38	-1746.25	  372.01
    127.4700	  704.00	  489.92	-1746.25	  372.55
    127.5700	  691.00	  490.48	-1746.25	  373.11
    127.6700	  713.00	  491.04	-1746.25	  373.67
    127.7700	  715.00	  491.61	-1746.25	  374.24
    127.8700	  684.00	  492.19	-1746.25	  374.82
    127.9700	  759.00	  492.78	-1746.25	  375.41
    128.0700	  762.00	  493.38	-1746.25	  376.01
    128.1700	  792.00	  493.99	-1746.25	  376.62
    128.2700	  703.00	  494.61	-1746.25	  377.24
    128.3700	  814.00	  495.24	-1746.25	  377.87
    128.4700	  819.00	  495.87	-1746.25	  378.50
    128.5700	    0.00	  496.52	-1746.25	  379.15
    128.6700	    0.00	  497.17	-1746.25	  379.81
     12.3040	        	        	        	        	       0	(  0  0  2)	  0  1
     24.8842	        	        	        	        	       0	(  0  0  4)	  0  1
     28.3327	        	        	        	        	       0	(  1  0  0)	  0  1
     29.0296	        	        	        	        	       0	(  1  0  1)	  0  1
     31.0348	        	        	        	        	       0	(  1  0  2)	  0  1
     34.1418	        	        	        	        	       0	(  1  0  3)	  0  1
     37.7802	        	        	        	        	       0	(  0  0  6)	  0  1
     38.1173	        	        	        	        	       0	(  1  0  4)	  0  1
     42.7656	        	        	        	        	       0	(  1  0  5)	  0  1
     47.9477	        	        	        	        	       0	(  1  0  6)	  0  1
     50.2703	        	        	        	        	       0	(  1  1  0)	  0  1
     51.1980	        	        	        	        	       0	(  0  0  8)	  0  1
     51.9925	        	        	        	        	       0	(  1  1  2)	  0  1
     53.5761	        	        	        	        	       0	(  1  0  7)	  0  1
     56.9381	        	        	        	        	       0	(  1  1  4)	  0  1
     58.7676	        	        	        	        	       0	(  2  0  0)	  0  1
     59.1590	        	        	        	        	       0	(  2  0  1)	  0  1
     59.6043	        	        	        	        	       0	(  1  0  8)	  0  1
     60.3239	        	        	        	        	       0	(  2  0  2)	  0  1
     62.2362	        	        	        	        	       0	(  2  0  3)	  0  1
     64.6294	        	        	        	        	       0	(  1  1  6)	  0  1
     64.8590	        	        	        	        	       0	(  2  0  4)	  0  1
     65.4222	        	        	        	        	       0	(  0  0 10)	  0  1
     66.0181	        	        	        	        	       0	(  1  0  9)	  0  1
     68.1517	        	        	        	        	       0	(  2  0  5)	  0  1
     72.0774	        	        	        	        	       0	(  2  0  6)	  0  1
     72.8315	        	        	        	        	       0	(  1  0 10)	  0  1
     74.6626	        	        	        	        	       0	(  1  1  8)	  0  1
     76.6094	        	        	        	        	       0	(  2  0  7)	  0  1
     80.0860	        	        	        	        	       0	(  1  0 11)	  0  1
     80.8963	        	        	        	        	       0	(  0  0 12)	  0  1
     81.0098	        	        	        	        	       0	(  2  1  0)	  0  1
     81.3496	        	        	        	        	       0	(  2  1  1)	  0  1
     81.7373	        	        	        	        	       0	(  2  0  8)	  0  1
     82.3669	        	        	        	        	       0	(  2  1  2)	  0  1
     84.0574	        	        	        	        	       0	(  2  1  3)	  0  1
     86.4159	        	        	        	        	       0	(  2  1  4)	  0  1
     86.9283	        	        	        	        	       0	(  1  1 10)	  0  1
     87.4726	        	        	        	        	       0	(  2  0  9)	  0  1
     87.8565	        	        	        	        	       0	(  1  0 12)	  0  1
     89.4402	        	        	        	        	       0	(  2  1  5)	  0  1
     93.1358	        	        	        	        	       0	(  2  1  6)	  0  1
     93.8568	        	        	        	        	       0	(  2  0 10)	  0  1
     94.8995	        	        	        	        	       0	(  3  0  0)	  0  1
     95.2367	        	        	        	        	       0	(  3  0  1)	  0  1
     96.2495	        	        	        	        	       0	(  3  0  2)	  0  1
     96.2653	        	        	        	        	       0	(  1  0 13)	  0  1
     97.5222	        	        	        	        	       0	(  2  1  7)	  0  1
     97.9420	        	        	        	        	       0	(  3  0  3)	  0  1
     98.4265	        	        	        	        	       0	(  0  0 14)	  0  1
    100.3238	        	        	        	        	       0	(  3  0  4)	  0  1
    100.9747	        	        	        	        	       0	(  2  0 11)	  0  1
    101.7906	        	        	        	        	       0	(  1  1 12)	  0  1
    102.6420	        	        	        	        	       0	(  2  1  8)	  0  1
    103.4139	        	        	        	        	       0	(  3  0  5)	  0  1
    105.5122	        	        	        	        	       0	(  1  0 14)	  0  1
    107.2470	        	        	        	        	       0	(  3  0  6)	  0  1
    108.5755	        	        	        	        	       0	(  2  1  9)	  0  1
    108.9811	        	        	        	        	       0	(  2  0 12)	  0  1
    111.8849	        	        	        	        	       0	(  3  0  7)	  0  1
    115.4683	        	        	        	        	       0	(  2  1 10)	  0  1
    115.9478	        	        	        	        	       0	(  1  0 15)	  0  1
    116.6266	        	        	        	        	       0	(  2  2  0)	  0  1
    117.4353	        	        	        	        	       0	(  3  0  8)	  0  1
    118.1411	        	        	        	        	       0	(  2  2  2)	  0  1
    118.1590	        	        	        	        	       0	(  2  0 13)	  0  1
    119.8984	        	        	        	        	       0	(  0  0 16)	  0  1
    120.6215	        	        	        	        	       0	(  1  1 14)	  0  1
    122.8245	        	        	        	        	       0	(  2  2  4)	  0  1
    123.5899	        	        	        	        	       0	(  2  1 11)	  0  1
    124.0913	        	        	        	        	       0	(  3  0  9)	  0  1
    124.6931	        	        	        	        	       0	(  3  1  0)	  0  1
    125.1031	        	        	        	        	       0	(  3  1  1)	  0  1
    126.3460	        	        	        	        	       0	(  3  1  2)	  0  1
    128.2790	        	        	        	        	       0	(  1  0 16)	  0  1
    128.4634	        	        	        	        	       0	(  3  1  3)	  0  1
    129.0794	        	        	        	        	       0	(  2  0 14)	  0  1
    131.2603	        	        	        	        	       0	(  2  2  6)	  0  1
    131.5380	        	        	        	        	       0	(  3  1  4)	  0  1
    132.2265	        	        	        	        	       0	(  3  0 10)	  0  1
    133.4943	        	        	        	        	       0	(  2  1 12)	  0  1
    135.7233	        	        	        	        	       0	(  3  1  5)	  0  1
    141.3163	        	        	        	        	       0	(  3  1  6)	  0  1
    142.6968	        	        	        	        	       0	(  3  0 11)	  0  1
    143.2023	        	        	        	        	       0	(  2  0 15)	  0  1
    144.4246	        	        	        	        	       0	(  1  0 17)	  0  1
    145.4868	        	        	        	        	       0	(  2  2  8)	  0  1
    146.6360	        	        	        	        	       0	(  2  1 13)	  0  1
    148.9861	        	        	        	        	       0	(  3  1  7)	  0  1
    149.5192	        	        	        	        	       0	(  1  1 16)	  0  1
    153.8897	        	        	        	        	       0	(  0  0 18)	  0  1
    158.5555	        	        	        	        	       0	(  3  0 12)	  0  1
    158.8662	        	        	        	        	       0	(  4  0  0)	  0  1
    159.8238	        	        	        	        	       0	(  4  0  1)	  0  1
    160.9747	        	        	        	        	       0	(  3  1  8)	  0  1
    163.0060	        	        	        	        	       0	(  4  0  2)	  0  1
    169.5351	        	        	        	        	       0	(  2  0 16)	  0  1
    170.3728	        	        	        	        	       0	(  4  0  3)	  0  1
    173.9452	        	        	        	        	       0	(  2  1 14)	  0  1
