MSG Master    CELL:    5.89278   5.89278  23.15968   90.0000   90.0000  120.0000   SPGR: P 63/m m c             TEMP:    673.75
  2   1280     2.52000     0.00000    -0.09505     0.00000     0.00000    0
    96    96     0     0     2
       0.00000      10.00000
     125.00000     130.00000
 2Theta	Yobs	Ycal	Yobs-Ycal	Backg	Posr	(hkl)	K
      0.7700	    0.00	  724.08	-1850.80	  603.64
      0.8700	    0.00	  723.33	-1850.80	  602.89
      0.9700	   42.00	  722.58	-1850.80	  602.14
      1.0700	   42.00	  721.84	-1850.80	  601.39
      1.1700	   45.00	  721.09	-1850.80	  600.64
      1.2700	   47.00	  720.34	-1850.80	  599.90
      1.3700	   43.00	  719.59	-1850.80	  599.15
      1.4700	  110.00	  718.85	-1850.80	  598.40
      1.5700	  294.00	  718.10	-1850.80	  597.65
      1.6700	  456.00	  717.35	-1850.80	  596.91
      1.7700	  575.00	  716.61	-1850.80	  596.16
      1.8700	  620.00	  715.86	-1850.80	  595.42
      1.9700	  774.00	  715.12	-1850.80	  594.67
      2.0700	  845.00	  714.37	-1850.80	  593.93
      2.1700	  758.00	  713.63	-1850.80	  593.18
      2.2700	  702.00	  712.89	-1850.80	  592.44
      2.3700	  771.00	  712.14	-1850.80	  591.70
      2.4700	  699.00	  711.40	-1850.80	  590.96
      2.5700	  694.00	  710.66	-1850.80	  590.21
      2.6700	  719.00	  709.92	-1850.80	  589.47
      2.7700	  616.00	  709.18	-1850.80	  588.73
      2.8700	  655.00	  708.44	-1850.80	  587.99
      2.9700	  650.00	  707.70	-1850.80	  587.25
      3.0700	  616.00	  706.96	-1850.80	  586.52
      3.1700	  616.00	  706.22	-1850.80	  585.78
      3.2700	  704.00	  705.48	-1850.80	  585.04
      3.3700	  817.00	  704.75	-1850.80	  584.30
      3.4700	 1025.00	  704.01	-1850.80	  583.57
      3.5700	 1073.00	  703.28	-1850.80	  582.83
      3.6700	 1274.00	  702.54	-1850.80	  582.10
      3.7700	 1338.00	  701.81	-1850.80	  581.36
      3.8700	 1401.00	  701.08	-1850.80	  580.63
      3.9700	 1461.00	  700.34	-1850.80	  579.90
      4.0700	 1594.00	  699.61	-1850.80	  579.17
      4.1700	 1619.00	  698.88	-1850.80	  578.44
      4.2700	 1578.00	  698.15	-1850.80	  577.71
      4.3700	 1560.00	  697.42	-1850.80	  576.98
      4.4700	 1552.00	  696.69	-1850.80	  576.25
      4.5700	 1479.00	  695.97	-1850.80	  575.52
      4.6700	 1394.00	  695.24	-1850.80	  574.80
      4.7700	 1382.00	  694.51	-1850.80	  574.07
      4.8700	 1237.00	  693.79	-1850.80	  573.35
      4.9700	 1274.00	  693.07	-1850.80	  572.62
      5.0700	 1238.00	  692.34	-1850.80	  571.90
      5.1700	 1224.00	  691.62	-1850.80	  571.18
      5.2700	 1231.00	  690.90	-1850.80	  570.45
      5.3700	 1166.00	  690.18	-1850.80	  569.73
      5.4700	 1093.00	  689.46	-1850.80	  569.02
      5.5700	 1149.00	  688.74	-1850.80	  568.30
      5.6700	 1049.00	  688.02	-1850.80	  567.58
      5.7700	 1036.00	  687.31	-1850.80	  566.86
      5.8700	 1069.00	  686.59	-1850.80	  566.15
      5.9700	 1007.00	  685.88	-1850.80	  565.43
      6.0700	  961.00	  685.16	-1850.80	  564.72
      6.1700	 1047.00	  684.45	-1850.80	  564.01
      6.2700	  958.00	  683.74	-1850.80	  563.30
      6.3700	  895.00	  683.03	-1850.80	  562.59
      6.4700	  924.00	  682.32	-1850.80	  561.88
      6.5700	  896.00	  681.61	-1850.80	  561.17
      6.6700	  935.00	  680.91	-1850.80	  560.46
      6.7700	  894.00	  680.20	-1850.80	  559.76
      6.8700	  844.00	  679.50	-1850.80	  559.05
      6.9700	  862.00	  678.79	-1850.80	  558.35
      7.0700	  779.00	  678.09	-1850.80	  557.65
      7.1700	  779.00	  677.39	-1850.80	  556.95
      7.2700	  837.00	  676.69	-1850.80	  556.25
      7.3700	  832.00	  675.99	-1850.80	  555.55
      7.4700	  791.00	  675.29	-1850.80	  554.85
      7.5700	  756.00	  674.60	-1850.80	  554.15
      7.6700	  804.00	  673.90	-1850.80	  553.46
      7.7700	  791.00	  673.21	-1850.80	  552.76
      7.8700	  810.00	  672.51	-1850.80	  552.07
      7.9700	  741.00	  671.82	-1850.80	  551.38
      8.0700	  759.00	  671.13	-1850.80	  550.69
      8.1700	  689.00	  670.44	-1850.80	  550.00
      8.2700	  802.00	  669.75	-1850.80	  549.31
      8.3700	  758.00	  669.07	-1850.80	  548.62
      8.4700	  668.00	  668.38	-1850.80	  547.94
      8.5700	  707.00	  667.70	-1850.80	  547.26
      8.6700	  749.00	  667.02	-1850.80	  546.57
      8.7700	  719.00	  666.34	-1850.80	  545.89
      8.8700	  765.00	  665.66	-1850.80	  545.21
      8.9700	  672.00	  664.98	-1850.80	  544.53
      9.0700	  703.00	  664.30	-1850.80	  543.85
      9.1700	  732.00	  663.62	-1850.80	  543.18
      9.2700	  721.00	  662.95	-1850.80	  542.50
      9.3700	  721.00	  662.28	-1850.80	  541.83
      9.4700	  738.00	  661.60	-1850.80	  541.16
      9.5700	  688.00	  660.93	-1850.80	  540.49
      9.6700	  657.00	  660.26	-1850.80	  539.82
      9.7700	  710.00	  659.60	-1850.80	  539.15
      9.8700	  717.00	  658.93	-1850.80	  538.49
      9.9700	  670.00	  658.26	-1850.80	  537.82
     10.0700	  703.00	  659.72	-1807.52	  537.16
     10.1700	  688.00	  659.29	-1822.09	  536.50
     10.2700	  704.00	  658.92	-1805.72	  535.84
     10.3700	  646.00	  658.61	-1863.41	  535.18
     10.4700	  647.00	  658.41	-1862.21	  534.52
     10.5700	  698.00	  658.35	-1811.15	  533.86
     10.6700	  681.00	  658.52	-1828.32	  533.21
     10.7700	  635.00	  659.00	-1874.80	  532.55
     10.8700	  667.00	  659.90	-1843.70	  531.90
     10.9700	  656.00	  661.30	-1856.10	  531.25
     11.0700	  684.00	  663.22	-1830.02	  530.60
     11.1700	  679.00	  665.68	-1837.48	  529.96
     11.2700	  660.00	  668.70	-1859.50	  529.31
     11.3700	  687.00	  672.35	-1836.15	  528.67
     11.4700	  638.00	  676.74	-1889.54	  528.03
     11.5700	  671.00	  682.06	-1861.86	  527.38
     11.6700	  720.00	  688.59	-1819.39	  526.75
     11.7700	  737.00	  696.66	-1810.46	  526.11
     11.8700	  706.00	  706.60	-1851.40	  525.47
     11.9700	  793.00	  718.35	-1776.15	  524.84
     12.0700	  827.00	  730.98	-1754.78	  524.20
     12.1700	  780.00	  742.00	-1812.80	  523.57
     12.2700	  736.00	  746.89	-1861.69	  522.94
     12.3700	  772.00	  740.42	-1819.22	  522.31
     12.4700	  765.00	  722.48	-1808.28	  521.69
     12.5700	  726.00	  700.56	-1825.36	  521.06
     12.6700	  678.00	  681.57	-1854.37	  520.44
     12.7700	  645.00	  667.72	-1873.52	  519.82
     12.8700	  633.00	  658.47	-1876.27	  519.20
     12.9700	  643.00	  652.53	-1860.33	  518.58
     13.0700	  633.00	  648.66	-1866.47	  517.96
     13.1700	  607.00	  645.94	-1889.74	  517.35
     13.2700	  620.00	  643.87	-1874.68	  516.74
     13.3700	  639.00	  642.19	-1853.99	  516.12
     13.4700	  619.00	  640.76	-1872.56	  515.51
     13.5700	  635.00	  639.51	-1855.31	  514.91
     13.6700	  613.00	  638.38	-1876.18	  514.30
     13.7700	  664.00	  637.35	-1824.15	  513.69
     13.8700	  620.00	  636.39	-1867.19	  513.09
     13.9700	  623.00	  635.49	-1863.29	  512.49
     14.0700	  597.00	  634.64	-1888.45	  511.89
     14.1700	  658.00	  633.83	-1826.63	  511.29
     14.2700	  562.00	  633.06	-1921.86	  510.70
     14.3700	  641.00	  632.30	-1842.10	  510.10
     14.4700	  618.00	  631.57	-1864.37	  509.51
     14.5700	  594.00	  630.86	-1887.66	  508.92
     14.6700	  672.00	  630.17	-1808.97	  508.33
     14.7700	  612.00	  629.48	-1868.29	  507.74
     14.8700	  591.00	  628.82	-1888.62	  507.15
     14.9700	  615.00	  628.16	-1863.96	  506.57
     15.0700	  623.00	  627.51	-1855.31	  505.99
     15.1700	  594.00	  626.87	-1883.67	  505.41
     15.2700	  625.00	  626.23	-1852.03	  504.83
     15.3700	  612.00	  625.61	-1864.41	  504.25
     15.4700	  611.00	  624.99	-1864.79	  503.68
     15.5700	  576.00	  624.38	-1899.18	  503.10
     15.6700	  630.00	  623.77	-1844.57	  502.53
     15.7700	  608.00	  623.16	-1865.96	  501.96
     15.8700	  582.00	  622.56	-1891.36	  501.40
     15.9700	  620.00	  621.97	-1852.77	  500.83
     16.0700	  627.00	  621.38	-1845.18	  500.27
     16.1700	  635.00	  620.79	-1836.59	  499.70
     16.2700	  621.00	  620.21	-1850.01	  499.14
     16.3700	  566.00	  619.63	-1904.43	  498.58
     16.4700	  627.00	  619.06	-1842.86	  498.03
     16.5700	  618.00	  618.48	-1851.28	  497.47
     16.6700	  608.00	  617.91	-1860.71	  496.92
     16.7700	  609.00	  617.35	-1859.15	  496.37
     16.8700	  625.00	  616.78	-1842.58	  495.82
     16.9700	  599.00	  616.22	-1868.02	  495.27
     17.0700	  652.00	  615.67	-1814.47	  494.73
     17.1700	  630.00	  615.11	-1835.91	  494.18
     17.2700	  582.00	  614.56	-1883.36	  493.64
     17.3700	  650.00	  614.01	-1814.81	  493.10
     17.4700	  645.00	  613.46	-1819.26	  492.56
     17.5700	  585.00	  612.92	-1878.72	  492.02
     17.6700	  586.00	  612.38	-1877.18	  491.49
     17.7700	  565.00	  611.84	-1897.64	  490.96
     17.8700	  643.00	  611.30	-1819.10	  490.43
     17.9700	  616.00	  610.77	-1845.57	  489.90
     18.0700	  595.00	  610.23	-1866.03	  489.37
     18.1700	  629.00	  610.65	-1832.45	  488.85
     18.2700	  627.00	  610.14	-1833.94	  488.32
     18.3700	  600.00	  610.20	-1861.00	  487.80
     18.4700	  563.00	  609.71	-1897.51	  487.28
     18.5700	  622.00	  609.22	-1838.02	  486.76
     18.6700	  618.00	  608.73	-1841.53	  486.25
     18.7700	  576.00	  608.25	-1883.05	  485.74
     18.8700	  600.00	  607.77	-1858.57	  485.22
     18.9700	  590.00	  607.30	-1868.10	  484.71
     19.0700	  596.00	  606.83	-1861.63	  484.21
     19.1700	  626.00	  606.36	-1831.16	  483.70
     19.2700	  603.00	  605.89	-1853.69	  483.20
     19.3700	  615.00	  605.43	-1841.23	  482.69
     19.4700	  578.00	  604.97	-1877.78	  482.19
     19.5700	  600.00	  604.52	-1855.32	  481.70
     19.6700	  559.00	  604.07	-1895.87	  481.20
     19.7700	  597.00	  603.68	-1857.48	  480.71
     19.8700	  604.00	  603.24	-1850.04	  480.21
     19.9700	  623.00	  602.80	-1830.60	  479.72
     20.0700	  604.00	  602.37	-1849.17	  479.23
     20.1700	  590.00	  601.94	-1862.74	  478.75
     20.2700	  552.00	  601.52	-1900.32	  478.26
     20.3700	  603.00	  601.10	-1848.90	  477.78
     20.4700	  612.00	  600.68	-1839.49	  477.30
     20.5700	  630.00	  600.28	-1821.08	  476.82
     20.6700	  593.00	  599.87	-1857.67	  476.34
     20.7700	  538.00	  599.47	-1912.27	  475.87
     20.8700	  631.00	  599.08	-1818.88	  475.40
     20.9700	  614.00	  598.69	-1835.49	  474.93
     21.0700	  602.00	  598.31	-1847.11	  474.46
     21.1700	  628.00	  597.94	-1820.74	  473.99
     21.2700	  594.00	  597.57	-1854.37	  473.53
     21.3700	  609.00	  597.20	-1839.00	  473.06
     21.4700	  551.00	  596.85	-1896.65	  472.60
     21.5700	  568.00	  596.50	-1879.30	  472.14
     21.6700	  561.00	  596.16	-1885.96	  471.69
     21.7700	  584.00	  595.83	-1862.63	  471.23
     21.8700	  592.00	  595.51	-1854.31	  470.78
     21.9700	  617.00	  595.20	-1829.00	  470.33
     22.0700	  617.00	  594.90	-1828.70	  469.88
     22.1700	  587.00	  594.79	-1858.59	  469.43
     22.2700	  590.00	  594.51	-1855.31	  468.98
     22.3700	  562.00	  594.25	-1883.05	  468.54
     22.4700	  592.00	  594.00	-1852.80	  468.10
     22.5700	  612.00	  593.77	-1832.57	  467.66
     22.6700	  576.00	  593.56	-1868.36	  467.22
     22.7700	  590.00	  593.36	-1854.16	  466.79
     22.8700	  559.00	  593.19	-1884.99	  466.35
     22.9700	  614.00	  593.04	-1829.84	  465.92
     23.0700	  575.00	  592.92	-1868.73	  465.49
     23.1700	  609.00	  592.84	-1834.64	  465.06
     23.2700	  633.00	  592.80	-1810.60	  464.64
     23.3700	  617.00	  592.80	-1826.60	  464.22
     23.4700	  613.00	  592.86	-1830.66	  463.79
     23.5700	  554.00	  592.99	-1889.79	  463.37
     23.6700	  565.00	  593.22	-1879.02	  462.96
     23.7700	  646.00	  593.58	-1798.38	  462.54
     23.8700	  596.00	  594.12	-1848.92	  462.13
     23.9700	  603.00	  594.89	-1842.69	  461.72
     24.0700	  592.00	  596.17	-1854.97	  461.31
     24.1700	  605.00	  598.16	-1843.96	  460.90
     24.2700	  636.00	  601.24	-1816.04	  460.49
     24.3700	  633.00	  605.86	-1823.66	  460.09
     24.4700	  629.00	  612.42	-1834.22	  459.69
     24.5700	  690.00	  621.10	-1781.90	  459.29
     24.6700	  678.00	  631.51	-1804.31	  458.89
     24.7700	  713.00	  642.38	-1780.18	  458.49
     24.8700	  735.00	  651.16	-1766.96	  458.10
     24.9700	  704.00	  654.09	-1800.89	  457.71
     25.0700	  702.00	  648.59	-1797.39	  457.32
     25.1700	  667.00	  637.09	-1820.89	  456.93
     25.2700	  655.00	  624.90	-1820.70	  456.54
     25.3700	  649.00	  615.12	-1816.92	  456.16
     25.4700	  610.00	  608.48	-1849.28	  455.78
     25.5700	  609.00	  604.53	-1846.33	  455.39
     25.6700	  633.00	  602.50	-1820.30	  455.02
     25.7700	  617.00	  601.72	-1835.52	  454.64
     25.8700	  618.00	  601.73	-1834.53	  454.27
     25.9700	  651.00	  602.28	-1802.08	  453.89
     26.0700	  628.00	  603.26	-1826.06	  453.52
     26.1700	  623.00	  604.63	-1832.43	  453.15
     26.2700	  604.00	  606.39	-1853.19	  452.79
     26.3700	  600.00	  608.58	-1859.38	  452.42
     26.4700	  620.00	  611.25	-1842.05	  452.06
     26.5700	  628.00	  614.47	-1837.27	  451.70
     26.6700	  709.00	  618.37	-1760.17	  451.34
     26.7700	  661.00	  623.07	-1812.87	  450.98
     26.8700	  615.00	  628.78	-1864.58	  450.63
     26.9700	  666.00	  635.77	-1820.57	  450.28
     27.0700	  613.00	  644.41	-1882.21	  449.93
     27.1700	  626.00	  655.23	-1880.03	  449.58
     27.2700	  722.00	  669.11	-1797.91	  449.23
     27.3700	  712.00	  687.54	-1826.34	  448.88
     27.4700	  711.00	  713.52	-1853.32	  448.54
     27.5700	  754.00	  753.05	-1849.85	  448.20
     27.6700	  767.00	  817.64	-1901.44	  447.86
     27.7700	  781.00	  927.25	-1997.05	  447.52
     27.8700	  852.00	 1111.69	-2110.49	  447.19
     27.9700	 1053.00	 1405.57	-2203.37	  446.85
     28.0700	 1525.00	 1831.32	-2157.12	  446.52
     28.1700	 2267.00	 2371.42	-1955.22	  446.19
     28.2700	 3270.00	 2935.62	-1516.42	  445.86
     28.3700	 3872.00	 3341.98	-1320.78	  445.54
     28.4700	 3893.00	 3370.39	-1328.19	  445.21
     28.5700	 3166.00	 2997.30	-1682.10	  444.89
     28.6700	 2312.00	 2515.06	-2053.86	  444.57
     28.7700	 2009.00	 2195.65	-2037.45	  444.25
     28.8700	 1926.00	 2111.70	-2036.50	  443.94
     28.9700	 2175.00	 2189.87	-1865.67	  443.62
     29.0700	 2423.00	 2275.20	-1703.00	  443.31
     29.1700	 2323.00	 2199.96	-1727.76	  443.00
     29.2700	 2021.00	 1914.18	-1743.98	  442.69
     29.3700	 1512.00	 1542.73	-1881.54	  442.38
     29.4700	 1204.00	 1217.99	-1864.79	  442.08
     29.5700	  952.00	  987.65	-1886.45	  441.78
     29.6700	  860.00	  844.86	-1835.66	  441.47
     29.7700	  754.00	  762.95	-1859.75	  441.18
     29.8700	  728.00	  716.14	-1838.94	  440.88
     29.9700	  721.00	  687.48	-1817.28	  440.58
     30.0700	  726.00	  668.21	-1793.01	  440.29
     30.1700	  711.00	  654.48	-1794.28	  440.00
     30.2700	  733.00	  644.72	-1762.52	  439.71
     30.3700	  675.00	  638.51	-1814.31	  439.42
     30.4700	  630.00	  636.22	-1857.02	  439.13
     30.5700	  706.00	  638.87	-1783.67	  438.85
     30.6700	  651.00	  647.83	-1847.63	  438.56
     30.7700	  692.00	  663.94	-1822.74	  438.28
     30.8700	  674.00	  686.13	-1862.93	  438.00
     30.9700	  731.00	  710.07	-1829.87	  437.73
     31.0700	  735.00	  727.54	-1843.34	  437.45
     31.1700	  717.00	  728.09	-1861.89	  437.18
     31.2700	  706.00	  707.60	-1852.40	  436.91
     31.3700	  709.00	  675.61	-1817.41	  436.64
     31.4700	  622.00	  644.75	-1873.55	  436.37
     31.5700	  612.00	  621.00	-1859.80	  436.10
     31.6700	  630.00	  605.02	-1825.82	  435.84
     31.7700	  598.00	  595.13	-1847.93	  435.58
     31.8700	  546.00	  589.15	-1893.95	  435.32
     31.9700	  591.00	  585.40	-1845.20	  435.06
     32.0700	  606.00	  582.85	-1827.65	  434.80
     32.1700	  580.00	  581.02	-1851.82	  434.54
     32.2700	  626.00	  579.66	-1804.46	  434.29
     32.3700	  609.00	  578.68	-1820.48	  434.04
     32.4700	  576.00	  578.02	-1852.82	  433.79
     32.5700	  628.00	  577.68	-1800.48	  433.54
     32.6700	  549.00	  577.65	-1879.45	  433.29
     32.7700	  606.00	  577.96	-1822.76	  433.05
     32.8700	  611.00	  578.70	-1818.50	  432.81
     32.9700	  610.00	  579.87	-1820.67	  432.57
     33.0700	  629.00	  581.65	-1803.45	  432.33
     33.1700	  634.00	  584.27	-1801.07	  432.09
     33.2700	  619.00	  588.16	-1819.96	  431.85
     33.3700	  628.00	  594.18	-1816.98	  431.62
     33.4700	  577.00	  603.97	-1877.77	  431.39
     33.5700	  663.00	  620.38	-1808.18	  431.16
     33.6700	  643.00	  647.77	-1855.57	  430.93
     33.7700	  699.00	  691.50	-1843.30	  430.70
     33.8700	  800.00	  755.72	-1806.52	  430.47
     33.9700	  844.00	  839.29	-1846.09	  430.25
     34.0700	 1026.00	  931.18	-1755.98	  430.03
     34.1700	 1128.00	 1007.97	-1730.77	  429.81
     34.2700	 1104.00	 1037.26	-1784.06	  429.59
     34.3700	  982.00	  998.29	-1867.09	  429.37
     34.4700	  950.00	  909.39	-1810.19	  429.16
     34.5700	  788.00	  810.38	-1873.18	  428.94
     34.6700	  776.00	  727.08	-1801.88	  428.73
     34.7700	  633.00	  667.20	-1885.00	  428.52
     34.8700	  650.00	  628.55	-1829.35	  428.31
     34.9700	  663.00	  605.26	-1793.06	  428.11
     35.0700	  602.00	  591.43	-1840.23	  427.90
     35.1700	  583.00	  582.85	-1850.65	  427.70
     35.2700	  628.00	  577.07	-1799.88	  427.50
     35.3700	  524.00	  572.85	-1899.66	  427.30
     35.4700	  574.00	  569.59	-1846.39	  427.10
     35.5700	  558.00	  566.98	-1859.78	  426.90
     35.6700	  546.00	  564.85	-1869.65	  426.71
     35.7700	  537.00	  563.08	-1876.88	  426.51
     35.8700	  560.00	  561.60	-1852.40	  426.32
     35.9700	  556.00	  560.35	-1855.15	  426.13
     36.0700	  536.00	  559.28	-1874.09	  425.94
     36.1700	  527.00	  558.38	-1882.18	  425.75
     36.2700	  584.00	  558.12	-1824.92	  425.57
     36.3700	  570.00	  557.49	-1838.29	  425.38
     36.4700	  545.00	  556.96	-1862.76	  425.20
     36.5700	  520.00	  556.55	-1887.35	  425.02
     36.6700	  581.00	  556.25	-1826.05	  424.84
     36.7700	  588.00	  556.06	-1818.86	  424.66
     36.8700	  547.00	  556.02	-1859.82	  424.49
     36.9700	  621.00	  556.14	-1785.94	  424.31
     37.0700	  549.00	  556.70	-1858.50	  424.14
     37.1700	  550.00	  557.38	-1858.18	  423.97
     37.2700	  558.00	  558.63	-1851.43	  423.80
     37.3700	  570.00	  560.70	-1841.50	  423.63
     37.4700	  588.00	  564.06	-1826.86	  423.47
     37.5700	  548.00	  569.29	-1872.09	  423.30
     37.6700	  586.00	  577.07	-1841.87	  423.14
     37.7700	  545.00	  587.92	-1893.72	  422.97
     37.8700	  577.00	  601.78	-1875.58	  422.81
     37.9700	  606.00	  617.56	-1862.36	  422.65
     38.0700	  599.00	  632.96	-1884.76	  422.50
     38.1700	  614.00	  644.44	-1881.24	  422.34
     38.2700	  620.00	  647.33	-1878.13	  422.19
     38.3700	  619.00	  638.71	-1870.51	  422.03
     38.4700	  618.00	  621.55	-1854.35	  421.88
     38.5700	  592.00	  602.30	-1861.10	  421.73
     38.6700	  585.00	  585.50	-1851.30	  421.58
     38.7700	  543.00	  571.94	-1879.74	  421.44
     38.8700	  511.00	  563.27	-1903.07	  421.29
     38.9700	  546.00	  557.72	-1862.52	  421.15
     39.0700	  524.00	  554.27	-1881.07	  421.00
     39.1700	  519.00	  552.09	-1883.89	  420.86
     39.2700	  544.00	  550.61	-1857.41	  420.72
     39.3700	  551.00	  549.53	-1849.34	  420.58
     39.4700	  532.00	  548.70	-1867.50	  420.45
     39.5700	  559.00	  548.02	-1839.82	  420.31
     39.6700	  559.00	  547.46	-1839.27	  420.18
     39.7700	  554.00	  546.99	-1843.79	  420.05
     39.8700	  543.00	  546.59	-1854.39	  419.91
     39.9700	  557.00	  546.25	-1840.05	  419.78
     40.0700	  540.00	  545.42	-1856.22	  419.66
     40.1700	  555.00	  545.18	-1840.98	  419.53
     40.2700	  528.00	  544.98	-1867.78	  419.40
     40.3700	  510.00	  545.35	-1886.15	  419.28
     40.4700	  505.00	  545.22	-1891.02	  419.15
     40.5700	  587.00	  545.11	-1808.92	  419.03
     40.6700	  537.00	  545.04	-1858.84	  418.91
     40.7700	  520.00	  545.01	-1875.81	  418.79
     40.8700	  518.00	  545.00	-1877.80	  418.68
     40.9700	  571.00	  545.03	-1824.83	  418.56
     41.0700	  550.00	  545.10	-1845.90	  418.44
     41.1700	  509.00	  545.22	-1887.02	  418.33
     41.2700	  540.00	  545.39	-1856.19	  418.22
     41.3700	  499.00	  545.62	-1897.42	  418.11
     41.4700	  536.00	  545.98	-1860.79	  418.00
     41.5700	  551.00	  546.39	-1846.20	  417.89
     41.6700	  525.00	  546.93	-1872.73	  417.78
     41.7700	  559.00	  547.65	-1839.45	  417.68
     41.8700	  528.00	  548.65	-1871.45	  417.57
     41.9700	  540.00	  550.09	-1860.89	  417.47
     42.0700	  539.00	  552.30	-1864.10	  417.37
     42.1700	  551.00	  555.84	-1855.64	  417.27
     42.2700	  581.00	  561.51	-1831.32	  417.17
     42.3700	  577.00	  570.38	-1844.18	  417.07
     42.4700	  544.00	  583.41	-1890.21	  416.97
     42.5700	  547.00	  601.01	-1904.81	  416.88
     42.6700	  585.00	  622.42	-1888.22	  416.78
     42.7700	  604.00	  644.15	-1890.95	  416.69
     42.8700	  620.00	  660.81	-1891.61	  416.59
     42.9700	  615.00	  665.72	-1901.52	  416.50
     43.0700	  581.00	  656.09	-1925.89	  416.41
     43.1700	  642.00	  636.28	-1845.08	  416.33
     43.2700	  561.00	  613.62	-1903.42	  416.24
     43.3700	  588.00	  593.42	-1856.22	  416.15
     43.4700	  560.00	  577.42	-1868.22	  416.07
     43.5700	  528.00	  566.06	-1888.86	  415.98
     43.6700	  557.00	  558.57	-1852.37	  415.90
     43.7700	  580.00	  553.88	-1824.68	  415.82
     43.8700	  564.00	  550.96	-1837.76	  415.74
     43.9700	  574.00	  549.11	-1825.91	  415.66
     44.0700	  548.00	  547.85	-1850.65	  415.58
     44.1700	  581.00	  546.95	-1816.75	  415.50
     44.2700	  537.00	  546.27	-1860.07	  415.43
     44.3700	  557.00	  545.75	-1839.55	  415.35
     44.4700	  583.00	  545.55	-1813.35	  415.28
     44.5700	  556.00	  545.24	-1840.04	  415.21
     44.6700	  567.00	  545.00	-1828.80	  415.13
     44.7700	  548.00	  544.82	-1847.62	  415.06
     44.8700	  546.00	  544.69	-1849.49	  415.00
     44.9700	  562.00	  544.61	-1833.41	  414.93
     45.0700	  576.00	  544.57	-1819.37	  414.86
     45.1700	  557.00	  544.57	-1838.37	  414.79
     45.2700	  553.00	  544.61	-1842.41	  414.73
     45.3700	  532.00	  544.68	-1863.48	  414.66
     45.4700	  545.00	  544.78	-1850.58	  414.60
     45.5700	  559.00	  544.99	-1836.79	  414.54
     45.6700	  526.00	  545.16	-1869.96	  414.48
     45.7700	  526.00	  545.35	-1870.15	  414.42
     45.8700	  514.00	  545.58	-1882.38	  414.36
     45.9700	  553.00	  545.85	-1843.65	  414.30
     46.0700	  536.00	  546.15	-1860.95	  414.24
     46.1700	  548.00	  546.58	-1849.38	  414.19
     46.2700	  571.00	  546.98	-1826.78	  414.13
     46.3700	  583.00	  547.44	-1815.24	  414.08
     46.4700	  538.00	  547.95	-1860.75	  414.02
     46.5700	  534.00	  548.37	-1865.17	  413.97
     46.6700	  544.00	  549.06	-1855.86	  413.92
     46.7700	  531.00	  549.85	-1869.65	  413.87
     46.8700	  557.00	  550.77	-1844.57	  413.82
     46.9700	  567.00	  551.89	-1835.69	  413.77
     47.0700	  557.00	  553.28	-1847.08	  413.73
     47.1700	  548.00	  555.10	-1857.90	  413.68
     47.2700	  585.00	  557.62	-1823.42	  413.63
     47.3700	  562.00	  561.27	-1850.07	  413.59
     47.4700	  582.00	  566.63	-1835.43	  413.54
     47.5700	  562.00	  574.38	-1863.18	  413.50
     47.6700	  580.00	  585.07	-1855.87	  413.46
     47.7700	  586.00	  598.89	-1863.69	  413.42
     47.8700	  607.00	  615.19	-1858.99	  413.38
     47.9700	  628.00	  632.07	-1854.87	  413.34
     48.0700	  670.00	  646.07	-1826.87	  413.30
     48.1700	  640.00	  652.96	-1863.76	  413.26
     48.2700	  668.00	  650.82	-1833.62	  413.22
     48.3700	  638.00	  640.60	-1853.40	  413.19
     48.4700	  585.00	  627.19	-1892.99	  413.15
     48.5700	  581.00	  614.42	-1884.22	  413.12
     48.6700	  614.00	  604.40	-1841.20	  413.08
     48.7700	  549.00	  597.95	-1899.75	  413.05
     48.8700	  642.00	  595.04	-1803.84	  413.02
     48.9700	  622.00	  595.29	-1824.09	  412.99
     49.0700	  563.00	  598.24	-1886.04	  412.96
     49.1700	  645.00	  603.63	-1809.43	  412.93
     49.2700	  582.00	  611.61	-1880.41	  412.90
     49.3700	  596.00	  623.03	-1877.83	  412.87
     49.4700	  634.00	  640.00	-1856.80	  412.84
     49.5700	  638.00	  667.02	-1879.82	  412.81
     49.6700	  689.00	  712.49	-1874.29	  412.79
     49.7700	  771.00	  790.02	-1869.82	  412.76
     49.8700	  892.00	  918.11	-1876.91	  412.74
     49.9700	 1157.00	 1116.15	-1809.95	  412.71
     50.0700	 1439.00	 1395.49	-1807.29	  412.69
     50.1700	 1806.00	 1747.35	-1792.15	  412.67
     50.2700	 2162.00	 2130.28	-1819.08	  412.64
     50.3700	 2511.00	 2462.73	-1802.53	  412.62
     50.4700	 2635.00	 2636.75	-1852.55	  412.60
     50.5700	 2669.00	 2576.47	-1758.27	  412.58
     50.6700	 2248.00	 2308.48	-1911.28	  412.56
     50.7700	 1891.00	 1937.95	-1897.75	  412.54
     50.8700	 1486.00	 1567.28	-1932.08	  412.53
     50.9700	 1147.00	 1257.11	-1960.91	  412.51
     51.0700	  966.00	 1029.87	-1914.67	  412.49
     51.1700	  827.00	  881.19	-1904.99	  412.48
     51.2700	  733.00	  792.55	-1910.35	  412.46
     51.3700	  728.00	  742.11	-1864.91	  412.45
     51.4700	  700.00	  711.50	-1862.30	  412.43
     51.5700	  648.00	  689.24	-1892.04	  412.42
     51.6700	  668.00	  670.36	-1853.16	  412.40
     51.7700	  656.00	  653.98	-1848.78	  412.39
     51.8700	  648.00	  640.37	-1843.18	  412.38
     51.9700	  645.00	  629.77	-1835.57	  412.37
     52.0700	  608.00	  621.95	-1864.75	  412.36
     52.1700	  621.00	  616.37	-1846.17	  412.35
     52.2700	  600.00	  612.36	-1863.16	  412.34
     52.3700	  673.00	  609.56	-1787.36	  412.33
     52.4700	  622.00	  608.03	-1836.83	  412.32
     52.5700	  637.00	  608.15	-1821.95	  412.31
     52.6700	  637.00	  610.51	-1824.31	  412.30
     52.7700	  654.00	  616.06	-1812.86	  412.29
     52.8700	  679.00	  626.32	-1798.12	  412.29
     52.9700	  663.00	  643.60	-1831.40	  412.28
     53.0700	  678.00	  670.97	-1843.77	  412.28
     53.1700	  746.00	  712.00	-1816.80	  412.27
     53.2700	  789.00	  769.84	-1831.64	  412.26
     53.3700	  817.00	  845.91	-1879.71	  412.26
     53.4700	  903.00	  938.23	-1886.03	  412.26
     53.5700	 1099.00	 1039.16	-1790.96	  412.25
     53.6700	 1171.00	 1133.83	-1813.63	  412.25
     53.7700	 1231.00	 1199.97	-1819.77	  412.25
     53.8700	 1329.00	 1215.72	-1737.52	  412.24
     53.9700	 1267.00	 1174.74	-1758.54	  412.24
     54.0700	 1106.00	 1092.19	-1836.99	  412.24
     54.1700	 1034.00	  992.26	-1809.06	  412.24
     54.2700	  946.00	  894.44	-1799.24	  412.24
     54.3700	  839.00	  809.87	-1821.67	  412.24
     54.4700	  732.00	  743.10	-1861.90	  412.24
     54.5700	  739.00	  694.24	-1806.04	  412.24
     54.6700	  649.00	  660.75	-1862.55	  412.24
     54.7700	  661.00	  639.07	-1828.87	  412.24
     54.8700	  650.00	  625.70	-1826.50	  412.24
     54.9700	  638.00	  617.84	-1830.64	  412.24
     55.0700	  659.00	  613.54	-1805.34	  412.25
     55.1700	  603.00	  611.61	-1859.41	  412.25
     55.2700	  644.00	  611.37	-1818.17	  412.25
     55.3700	  613.00	  612.51	-1850.31	  412.25
     55.4700	  639.00	  614.91	-1826.71	  412.26
     55.5700	  624.00	  618.60	-1845.40	  412.26
     55.6700	  649.00	  623.73	-1825.53	  412.26
     55.7700	  610.00	  630.63	-1871.43	  412.27
     55.8700	  632.00	  639.91	-1858.71	  412.27
     55.9700	  692.00	  652.73	-1811.53	  412.28
     56.0700	  641.00	  671.26	-1881.07	  412.28
     56.1700	  777.00	  699.29	-1773.09	  412.29
     56.2700	  793.00	  742.93	-1800.73	  412.29
     56.3700	  797.00	  811.11	-1864.91	  412.30
     56.4700	  887.00	  915.19	-1878.99	  412.31
     56.5700	 1035.00	 1066.98	-1882.78	  412.31
     56.6700	 1207.00	 1275.33	-1919.13	  412.32
     56.7700	 1528.00	 1540.91	-1863.71	  412.32
     56.8700	 1910.00	 1850.69	-1791.49	  412.33
     56.9700	 2244.00	 2172.47	-1779.27	  412.34
     57.0700	 2509.00	 2451.01	-1792.81	  412.35
     57.1700	 2626.00	 2615.10	-1839.90	  412.35
     57.2700	 2616.00	 2609.10	-1843.90	  412.36
     57.3700	 2377.00	 2435.15	-1908.95	  412.37
     57.4700	 2096.00	 2151.96	-1906.76	  412.38
     57.5700	 1794.00	 1831.34	-1888.14	  412.38
     57.6700	 1455.00	 1526.98	-1922.78	  412.39
     57.7700	 1211.00	 1269.40	-1909.20	  412.40
     57.8700	  977.00	 1070.39	-1944.19	  412.41
     57.9700	  838.00	  928.80	-1941.60	  412.42
     58.0700	  803.00	  836.22	-1884.02	  412.43
     58.1700	  757.00	  782.04	-1875.84	  412.43
     58.2700	  745.00	  757.17	-1862.97	  412.44
     58.3700	  744.00	  755.59	-1862.39	  412.45
     58.4700	  758.00	  774.35	-1867.16	  412.46
     58.5700	  807.00	  812.37	-1856.17	  412.47
     58.6700	  897.00	  868.73	-1822.53	  412.48
     58.7700	  924.00	  941.01	-1867.81	  412.49
     58.8700	 1006.00	 1023.57	-1868.37	  412.50
     58.9700	 1032.00	 1106.92	-1925.72	  412.51
     59.0700	 1170.00	 1179.81	-1860.61	  412.52
     59.1700	 1261.00	 1234.58	-1824.39	  412.53
     59.2700	 1332.00	 1269.16	-1787.96	  412.53
     59.3700	 1284.00	 1282.40	-1849.20	  412.54
     59.4700	 1258.00	 1272.62	-1865.42	  412.55
     59.5700	 1225.00	 1243.31	-1869.11	  412.56
     59.6700	 1213.00	 1205.88	-1843.68	  412.57
     59.7700	 1148.00	 1174.04	-1876.84	  412.58
     59.8700	 1136.00	 1157.72	-1872.52	  412.59
     59.9700	 1158.00	 1163.09	-1855.89	  412.60
     60.0700	 1216.00	 1194.78	-1829.58	  412.61
     60.1700	 1244.00	 1255.18	-1861.98	  412.62
     60.2700	 1377.00	 1340.62	-1814.42	  412.63
     60.3700	 1456.00	 1438.00	-1832.80	  412.64
     60.4700	 1615.00	 1524.16	-1759.96	  412.65
     60.5700	 1612.00	 1569.45	-1808.25	  412.66
     60.6700	 1542.00	 1550.49	-1859.29	  412.67
     60.7700	 1409.00	 1466.00	-1907.80	  412.68
     60.8700	 1395.00	 1337.25	-1793.05	  412.68
     60.9700	 1212.00	 1192.29	-1831.09	  412.69
     61.0700	 1101.00	 1053.65	-1803.45	  412.70
     61.1700	  953.00	  935.31	-1833.11	  412.71
     61.2700	  833.00	  843.85	-1861.65	  412.72
     61.3700	  827.00	  780.57	-1804.37	  412.73
     61.4700	  741.00	  743.66	-1853.46	  412.74
     61.5700	  769.00	  730.74	-1812.54	  412.74
     61.6700	  742.00	  740.35	-1849.15	  412.75
     61.7700	  843.00	  772.69	-1780.49	  412.76
     61.8700	  886.00	  829.06	-1793.86	  412.77
     61.9700	  934.00	  910.41	-1827.21	  412.78
     62.0700	 1018.00	 1015.33	-1848.13	  412.78
     62.1700	 1187.00	 1138.07	-1801.87	  412.79
     62.2700	 1320.00	 1266.80	-1797.60	  412.80
     62.3700	 1381.00	 1382.47	-1852.27	  412.81
     62.4700	 1487.00	 1460.34	-1824.14	  412.81
     62.5700	 1448.00	 1478.06	-1880.86	  412.82
     62.6700	 1439.00	 1429.38	-1841.18	  412.83
     62.7700	 1292.00	 1328.88	-1887.68	  412.83
     62.8700	 1091.00	 1201.60	-1961.40	  412.84
     62.9700	  957.00	 1070.24	-1964.04	  412.84
     63.0700	  940.00	  950.44	-1861.24	  412.85
     63.1700	  766.00	  850.67	-1935.47	  412.85
     63.2700	  669.00	  773.82	-1955.62	  412.86
     63.3700	  692.00	  718.66	-1877.46	  412.86
     63.4700	  658.00	  681.68	-1874.48	  412.87
     63.5700	  705.00	  658.67	-1804.47	  412.87
     63.6700	  667.00	  645.88	-1829.68	  412.88
     63.7700	  664.00	  640.74	-1827.55	  412.88
     63.8700	  632.00	  641.96	-1860.76	  412.89
     63.9700	  699.00	  649.50	-1801.30	  412.89
     64.0700	  732.00	  664.44	-1783.24	  412.89
     64.1700	  708.00	  688.60	-1831.40	  412.89
     64.2700	  713.00	  724.20	-1862.00	  412.90
     64.3700	  820.00	  773.22	-1804.02	  412.90
     64.4700	  872.00	  836.64	-1815.44	  412.90
     64.5700	  912.00	  913.58	-1852.39	  412.90
     64.6700	 1024.00	 1000.37	-1827.17	  412.90
     64.7700	 1109.00	 1089.14	-1830.94	  412.90
     64.8700	 1267.00	 1169.74	-1753.54	  412.91
     64.9700	 1314.00	 1228.79	-1765.59	  412.91
     65.0700	 1256.00	 1255.09	-1849.89	  412.91
     65.1700	 1297.00	 1244.41	-1798.21	  412.91
     65.2700	 1101.00	 1199.97	-1949.77	  412.90
     65.3700	 1067.00	 1131.52	-1915.32	  412.90
     65.4700	 1045.00	 1051.69	-1857.49	  412.90
     65.5700	  914.00	  971.50	-1908.30	  412.90
     65.6700	  859.00	  898.23	-1890.03	  412.90
     65.7700	  821.00	  834.83	-1864.63	  412.90
     65.8700	  759.00	  782.20	-1874.00	  412.89
     65.9700	  711.00	  739.82	-1879.62	  412.89
     66.0700	  714.00	  706.73	-1843.53	  412.89
     66.1700	  634.00	  681.67	-1898.47	  412.88
     66.2700	  699.00	  663.24	-1815.04	  412.88
     66.3700	  643.00	  650.10	-1857.90	  412.87
     66.4700	  633.00	  641.16	-1858.96	  412.87
     66.5700	  611.00	  635.63	-1875.43	  412.86
     66.6700	  636.00	  633.15	-1847.95	  412.85
     66.7700	  602.00	  633.05	-1881.85	  412.85
     66.8700	  624.00	  635.54	-1862.34	  412.84
     66.9700	  613.00	  640.70	-1878.50	  412.83
     67.0700	  655.00	  649.30	-1845.10	  412.83
     67.1700	  620.00	  662.73	-1893.53	  412.82
     67.2700	  664.00	  683.31	-1870.11	  412.81
     67.3700	  683.00	  714.59	-1882.39	  412.80
     67.4700	  785.00	  761.48	-1827.28	  412.79
     67.5700	  797.00	  830.09	-1883.89	  412.78
     67.6700	  906.00	  927.14	-1871.94	  412.77
     67.7700	 1099.00	 1058.62	-1810.42	  412.76
     67.8700	 1225.00	 1228.17	-1853.97	  412.74
     67.9700	 1441.00	 1434.78	-1844.58	  412.73
     68.0700	 1723.00	 1671.00	-1798.80	  412.72
     68.1700	 1912.00	 1920.79	-1859.59	  412.71
     68.2700	 2160.00	 2158.39	-1849.19	  412.69
     68.3700	 2306.00	 2348.65	-1893.45	  412.68
     68.4700	 2495.00	 2453.09	-1808.89	  412.66
     68.5700	 2377.00	 2445.68	-1919.48	  412.65
     68.6700	 2361.00	 2328.33	-1818.13	  412.63
     68.7700	 2179.00	 2129.77	-1801.57	  412.62
     68.8700	 1911.00	 1888.65	-1828.45	  412.60
     68.9700	 1627.00	 1639.29	-1863.09	  412.58
     69.0700	 1423.00	 1406.09	-1833.89	  412.56
     69.1700	 1105.00	 1203.88	-1949.68	  412.54
     69.2700	  993.00	 1039.21	-1897.01	  412.53
     69.3700	  825.00	  912.30	-1938.10	  412.51
     69.4700	  817.00	  819.17	-1852.97	  412.49
     69.5700	  778.00	  753.54	-1826.34	  412.46
     69.6700	  721.00	  708.74	-1838.54	  412.44
     69.7700	  664.00	  678.73	-1865.53	  412.42
     69.8700	  678.00	  658.73	-1831.53	  412.40
     69.9700	  621.00	  645.28	-1875.08	  412.38
     70.0700	  611.00	  636.07	-1875.87	  412.35
     70.1700	  649.00	  629.67	-1831.47	  412.33
     70.2700	  629.00	  625.22	-1847.02	  412.30
     70.3700	  646.00	  622.26	-1827.06	  412.28
     70.4700	  613.00	  620.55	-1858.35	  412.25
     70.5700	  620.00	  620.00	-1850.80	  412.22
     70.6700	  610.00	  620.65	-1861.45	  412.20
     70.7700	  662.00	  622.50	-1811.30	  412.17
     70.8700	  622.00	  626.31	-1855.11	  412.14
     70.9700	  630.00	  632.55	-1853.35	  412.11
     71.0700	  662.00	  642.33	-1831.13	  412.08
     71.1700	  660.00	  657.32	-1848.12	  412.05
     71.2700	  701.00	  679.89	-1829.69	  412.02
     71.3700	  702.00	  713.16	-1861.96	  411.99
     71.4700	  730.00	  760.86	-1881.66	  411.95
     71.5700	  837.00	  826.98	-1840.78	  411.92
     71.6700	  892.00	  915.94	-1874.74	  411.89
     71.7700	 1025.00	 1028.20	-1854.00	  411.85
     71.8700	 1132.00	 1164.34	-1883.14	  411.82
     71.9700	 1349.00	 1320.57	-1822.37	  411.78
     72.0700	 1569.00	 1488.66	-1770.47	  411.75
     72.1700	 1621.00	 1655.22	-1885.02	  411.71
     72.2700	 1758.00	 1801.29	-1894.09	  411.67
     72.3700	 1951.00	 1904.13	-1803.93	  411.63
     72.4700	 1862.00	 1943.19	-1931.99	  411.59
     72.5700	 1884.00	 1909.46	-1876.26	  411.55
     72.6700	 1809.00	 1810.64	-1852.44	  411.51
     72.7700	 1667.00	 1666.71	-1850.51	  411.47
     72.8700	 1399.00	 1500.50	-1952.30	  411.43
     72.9700	 1341.00	 1331.36	-1841.16	  411.39
     73.0700	 1169.00	 1173.10	-1854.90	  411.34
     73.1700	 1070.00	 1034.25	-1815.05	  411.30
     73.2700	  941.00	  918.88	-1828.69	  411.25
     73.3700	  816.00	  827.51	-1862.31	  411.21
     73.4700	  810.00	  758.13	-1798.93	  411.16
     73.5700	  709.00	  707.31	-1849.11	  411.12
     73.6700	  637.00	  671.14	-1884.94	  411.07
     73.7700	  695.00	  645.92	-1801.72	  411.02
     73.8700	  621.00	  628.53	-1858.33	  410.97
     73.9700	  581.00	  616.58	-1886.38	  410.92
     74.0700	  591.00	  608.41	-1868.21	  410.87
     74.1700	  627.00	  602.89	-1826.69	  410.82
     74.2700	  630.00	  598.81	-1819.61	  410.77
     74.3700	  611.00	  596.78	-1836.58	  410.71
     74.4700	  609.00	  595.95	-1837.75	  410.66
     74.5700	  648.00	  596.07	-1798.87	  410.61
     74.6700	  609.00	  596.87	-1838.67	  410.55
     74.7700	  646.00	  598.04	-1802.84	  410.49
     74.8700	  621.00	  599.19	-1828.99	  410.44
     74.9700	  648.00	  599.92	-1802.72	  410.38
     75.0700	  696.00	  599.83	-1754.63	  410.32
     75.1700	  648.00	  598.75	-1801.55	  410.26
     75.2700	  644.00	  596.79	-1803.59	  410.20
     75.3700	  656.00	  594.37	-1789.17	  410.14
     75.4700	  683.00	  591.96	-1759.76	  410.08
     75.5700	  676.00	  590.27	-1765.07	  410.02
     75.6700	  637.00	  589.85	-1803.65	  409.96
     75.7700	  640.00	  591.32	-1802.12	  409.89
     75.8700	  648.00	  595.35	-1798.15	  409.83
     75.9700	  653.00	  602.63	-1800.43	  409.77
     76.0700	  645.00	  613.81	-1819.61	  409.70
     76.1700	  643.00	  629.45	-1837.25	  409.63
     76.2700	  662.00	  649.75	-1838.55	  409.57
     76.3700	  668.00	  674.84	-1857.64	  409.50
     76.4700	  721.00	  704.01	-1833.82	  409.43
     76.5700	  754.00	  736.03	-1832.83	  409.36
     76.6700	  771.00	  768.87	-1848.67	  409.29
     76.7700	  782.00	  799.66	-1868.46	  409.22
     76.8700	  781.00	  824.81	-1894.61	  409.14
     76.9700	  875.00	  840.45	-1816.25	  409.07
     77.0700	  856.00	  843.63	-1838.44	  409.00
     77.1700	  806.00	  833.64	-1878.44	  408.92
     77.2700	  765.00	  812.35	-1898.15	  408.85
     77.3700	  786.00	  783.28	-1848.08	  408.77
     77.4700	  705.00	  750.27	-1896.07	  408.69
     77.5700	  715.00	  716.58	-1852.38	  408.62
     77.6700	  658.00	  684.62	-1877.42	  408.54
     77.7700	  635.00	  656.01	-1871.81	  408.46
     77.8700	  584.00	  631.61	-1898.41	  408.38
     77.9700	  598.00	  611.69	-1864.49	  408.30
     78.0700	  616.00	  595.85	-1830.65	  408.22
     78.1700	  618.00	  584.00	-1816.80	  408.13
     78.2700	  572.00	  575.28	-1854.08	  408.05
     78.3700	  610.00	  569.03	-1809.83	  407.97
     78.4700	  570.00	  564.62	-1845.42	  407.88
     78.5700	  577.00	  561.50	-1835.30	  407.79
     78.6700	  536.00	  559.37	-1874.17	  407.71
     78.7700	  552.00	  557.91	-1856.71	  407.62
     78.8700	  568.00	  556.92	-1839.72	  407.53
     78.9700	  517.00	  556.28	-1890.08	  407.44
     79.0700	  566.00	  555.93	-1840.73	  407.35
     79.1700	  550.00	  555.84	-1856.64	  407.26
     79.2700	  570.00	  555.99	-1836.79	  407.17
     79.3700	  590.00	  556.42	-1817.22	  407.08
     79.4700	  544.00	  557.15	-1863.95	  406.98
     79.5700	  565.00	  558.23	-1844.03	  406.89
     79.6700	  551.00	  559.75	-1859.55	  406.80
     79.7700	  572.00	  561.80	-1840.61	  406.70
     79.8700	  584.00	  564.57	-1831.37	  406.60
     79.9700	  547.00	  568.27	-1872.07	  406.51
     80.0700	  555.00	  573.23	-1869.03	  406.41
     80.1700	  610.00	  579.90	-1820.71	  406.31
     80.2700	  631.00	  588.85	-1808.65	  406.21
     80.3700	  617.00	  600.75	-1834.55	  406.11
     80.4700	  624.00	  616.37	-1843.18	  406.01
     80.5700	  640.00	  636.53	-1847.33	  405.90
     80.6700	  655.00	  661.95	-1857.75	  405.80
     80.7700	  699.00	  692.96	-1844.76	  405.70
     80.8700	  741.00	  730.12	-1839.93	  405.59
     80.9700	  820.00	  772.76	-1803.56	  405.49
     81.0700	  841.00	  819.62	-1829.42	  405.38
     81.1700	  875.00	  868.52	-1844.32	  405.27
     81.2700	  893.00	  916.40	-1874.20	  405.17
     81.3700	 1008.00	  959.56	-1802.36	  405.06
     81.4700	 1007.00	  994.33	-1838.13	  404.95
     81.5700	  995.00	 1017.96	-1873.76	  404.84
     81.6700	  990.00	 1029.12	-1889.92	  404.73
     81.7700	 1022.00	 1027.79	-1856.59	  404.61
     81.8700	  999.00	 1015.02	-1866.82	  404.50
     81.9700	  961.00	  992.67	-1882.47	  404.39
     82.0700	  963.00	  963.14	-1850.94	  404.27
     82.1700	  962.00	  928.82	-1817.62	  404.16
     82.2700	  893.00	  891.89	-1849.69	  404.04
     82.3700	  839.00	  854.27	-1866.08	  403.92
     82.4700	  808.00	  817.67	-1860.47	  403.81
     82.5700	  743.00	  783.33	-1891.13	  403.69
     82.6700	  734.00	  751.92	-1868.72	  403.57
     82.7700	  686.00	  723.54	-1888.34	  403.45
     82.8700	  687.00	  697.98	-1861.78	  403.33
     82.9700	  659.00	  675.03	-1866.83	  403.21
     83.0700	  632.00	  654.65	-1873.45	  403.08
     83.1700	  658.00	  636.91	-1829.71	  402.96
     83.2700	  642.00	  621.92	-1830.72	  402.84
     83.3700	  597.00	  609.75	-1863.55	  402.71
     83.4700	  593.00	  600.42	-1858.22	  402.58
     83.5700	  646.00	  593.88	-1798.68	  402.46
     83.6700	  546.00	  590.01	-1894.81	  402.33
     83.7700	  559.00	  588.58	-1880.39	  402.20
     83.8700	  569.00	  589.29	-1871.09	  402.07
     83.9700	  583.00	  591.72	-1859.52	  401.94
     84.0700	  578.00	  595.35	-1868.15	  401.81
     84.1700	  595.00	  599.55	-1855.35	  401.68
     84.2700	  613.00	  603.64	-1841.44	  401.55
     84.3700	  569.00	  606.79	-1888.59	  401.42
     84.4700	  600.00	  608.45	-1859.26	  401.28
     84.5700	  564.00	  607.99	-1894.79	  401.15
     84.6700	  570.00	  605.45	-1886.25	  401.01
     84.7700	  622.00	  600.98	-1829.78	  400.88
     84.8700	  580.00	  595.11	-1865.91	  400.74
     84.9700	  596.00	  588.44	-1843.24	  400.61
     85.0700	  528.00	  581.54	-1904.34	  400.47
     85.1700	  505.00	  574.89	-1920.69	  400.33
     85.2700	  572.00	  568.86	-1847.66	  400.19
     85.3700	  558.00	  563.71	-1856.51	  400.05
     85.4700	  560.00	  559.62	-1850.42	  399.91
     85.5700	  568.00	  556.67	-1839.47	  399.77
     85.6700	  571.00	  554.90	-1834.71	  399.62
     85.7700	  583.00	  554.32	-1822.12	  399.48
     85.8700	  538.00	  554.88	-1867.68	  399.34
     85.9700	  613.00	  556.56	-1794.36	  399.19
     86.0700	  578.00	  559.31	-1832.11	  399.05
     86.1700	  617.00	  563.07	-1796.87	  398.90
     86.2700	  562.00	  567.79	-1856.59	  398.75
     86.3700	  576.00	  573.37	-1848.17	  398.61
     86.4700	  582.00	  579.69	-1848.49	  398.46
     86.5700	  592.00	  586.65	-1845.45	  398.31
     86.6700	  619.00	  594.06	-1825.86	  398.16
     86.7700	  632.00	  601.72	-1820.52	  398.01
     86.8700	  625.00	  609.46	-1835.26	  397.86
     86.9700	  614.00	  617.21	-1854.01	  397.71
     87.0700	  637.00	  625.02	-1838.82	  397.55
     87.1700	  669.00	  633.07	-1814.87	  397.40
     87.2700	  623.00	  641.58	-1869.38	  397.25
     87.3700	  627.00	  650.65	-1874.45	  397.09
     87.4700	  600.00	  660.19	-1910.99	  396.94
     87.5700	  672.00	  669.87	-1848.67	  396.78
     87.6700	  681.00	  679.11	-1848.91	  396.62
     87.7700	  647.00	  687.08	-1890.88	  396.47
     87.8700	  676.00	  692.78	-1867.58	  396.31
     87.9700	  656.00	  695.29	-1890.09	  396.15
     88.0700	  678.00	  693.99	-1866.79	  395.99
     88.1700	  626.00	  688.81	-1913.61	  395.83
     88.2700	  698.00	  680.23	-1833.03	  395.67
     88.3700	  663.00	  669.11	-1856.91	  395.51
     88.4700	  672.00	  656.48	-1835.28	  395.35
     88.5700	  600.00	  643.31	-1894.11	  395.19
     88.6700	  643.00	  630.48	-1838.28	  395.03
     88.7700	  623.00	  618.73	-1846.53	  394.86
     88.8700	  589.00	  608.59	-1870.39	  394.70
     88.9700	  545.00	  600.02	-1905.82	  394.53
     89.0700	  645.00	  594.06	-1799.86	  394.37
     89.1700	  607.00	  590.28	-1834.08	  394.20
     89.2700	  606.00	  588.55	-1833.35	  394.04
     89.3700	  641.00	  588.56	-1798.36	  393.87
     89.4700	  575.00	  589.94	-1865.74	  393.70
     89.5700	  634.00	  592.18	-1808.98	  393.54
     89.6700	  602.00	  594.75	-1843.55	  393.37
     89.7700	  645.00	  597.04	-1802.84	  393.20
     89.8700	  652.00	  598.51	-1797.31	  393.03
     89.9700	  656.00	  598.69	-1793.49	  392.86
     90.0700	  612.00	  597.34	-1836.14	  392.69
     90.1700	  610.00	  594.47	-1835.27	  392.52
     90.2700	  619.00	  590.30	-1822.10	  392.34
     90.3700	  651.00	  585.22	-1785.02	  392.17
     90.4700	  609.00	  579.61	-1821.41	  392.00
     90.5700	  560.00	  573.85	-1864.65	  391.83
     90.6700	  542.00	  568.25	-1877.05	  391.65
     90.7700	  538.00	  563.04	-1875.84	  391.48
     90.8700	  547.00	  558.40	-1862.20	  391.30
     90.9700	  543.00	  554.42	-1862.22	  391.13
     91.0700	  550.00	  551.15	-1851.95	  390.95
     91.1700	  560.00	  548.59	-1839.39	  390.78
     91.2700	  569.00	  546.71	-1828.51	  390.60
     91.3700	  502.00	  545.46	-1894.26	  390.43
     91.4700	  508.00	  544.79	-1887.59	  390.25
     91.5700	  584.00	  544.66	-1811.46	  390.07
     91.6700	  494.00	  545.05	-1901.85	  389.89
     91.7700	  561.00	  545.98	-1835.78	  389.71
     91.8700	  535.00	  547.49	-1863.29	  389.53
     91.9700	  551.00	  549.68	-1849.48	  389.36
     92.0700	  562.00	  552.67	-1841.47	  389.18
     92.1700	  525.00	  556.64	-1882.44	  389.00
     92.2700	  531.00	  561.77	-1881.57	  388.81
     92.3700	  576.00	  568.29	-1843.09	  388.63
     92.4700	  579.00	  576.42	-1848.22	  388.45
     92.5700	  586.00	  586.36	-1851.16	  388.27
     92.6700	  597.00	  598.28	-1852.08	  388.09
     92.7700	  596.00	  612.27	-1867.07	  387.91
     92.8700	  603.00	  628.35	-1876.15	  387.72
     92.9700	  582.00	  646.41	-1915.21	  387.54
     93.0700	  650.00	  666.21	-1867.01	  387.36
     93.1700	  672.00	  687.37	-1866.17	  387.18
     93.2700	  661.00	  709.35	-1899.15	  386.99
     93.3700	  668.00	  731.45	-1914.25	  386.81
     93.4700	  734.00	  752.88	-1869.68	  386.62
     93.5700	  754.00	  772.79	-1869.59	  386.44
     93.6700	  764.00	  790.54	-1877.34	  386.25
     93.7700	  784.00	  805.82	-1872.62	  386.07
     93.8700	  792.00	  818.76	-1877.56	  385.88
     93.9700	  769.00	  829.85	-1911.65	  385.70
     94.0700	  786.00	  839.76	-1904.56	  385.51
     94.1700	  790.00	  849.08	-1909.88	  385.33
     94.2700	  830.00	  858.26	-1879.06	  385.14
     94.3700	  838.00	  867.25	-1880.05	  384.95
     94.4700	  857.00	  876.85	-1870.65	  384.77
     94.5700	  906.00	  886.90	-1831.71	  384.58
     94.6700	  879.00	  897.64	-1869.44	  384.39
     94.7700	  952.00	  909.22	-1808.02	  384.21
     94.8700	  954.00	  921.64	-1818.44	  384.02
     94.9700	  958.00	  934.52	-1827.32	  383.83
     95.0700	  955.00	  947.05	-1842.85	  383.64
     95.1700	 1046.00	  958.02	-1762.82	  383.46
     95.2700	 1001.00	  965.90	-1815.70	  383.27
     95.3700	  965.00	  969.08	-1854.88	  383.08
     95.4700	  967.00	  966.19	-1849.99	  382.89
     95.5700	  971.00	  956.52	-1836.32	  382.71
     95.6700	  961.00	  940.22	-1830.02	  382.52
     95.7700	  922.00	  918.31	-1847.11	  382.33
     95.8700	  847.00	  892.39	-1896.19	  382.14
     95.9700	  900.00	  864.40	-1815.20	  381.95
     96.0700	  826.00	  836.33	-1861.13	  381.77
     96.1700	  818.00	  810.09	-1842.89	  381.58
     96.2700	  832.00	  787.42	-1806.22	  381.39
     96.3700	  747.00	  769.91	-1873.71	  381.20
     96.4700	  814.00	  758.92	-1795.72	  381.01
     96.5700	  749.00	  755.63	-1857.43	  380.82
     96.6700	  744.00	  760.99	-1867.79	  380.64
     96.7700	  836.00	  775.74	-1790.54	  380.45
     96.8700	  793.00	  800.39	-1858.19	  380.26
     96.9700	  788.00	  835.19	-1897.99	  380.07
     97.0700	  833.00	  880.08	-1897.88	  379.89
     97.1700	  914.00	  934.65	-1871.45	  379.70
     97.2700	 1027.00	  998.04	-1821.84	  379.51
     97.3700	 1015.00	 1068.94	-1904.74	  379.32
     97.4700	 1150.00	 1145.44	-1846.24	  379.14
     97.5700	 1189.00	 1225.02	-1886.83	  378.95
     97.6700	 1327.00	 1304.58	-1828.38	  378.76
     97.7700	 1368.00	 1380.39	-1863.19	  378.57
     97.8700	 1391.00	 1448.25	-1908.05	  378.39
     97.9700	 1489.00	 1503.71	-1865.51	  378.20
     98.0700	 1515.00	 1542.67	-1878.47	  378.02
     98.1700	 1623.00	 1562.05	-1789.85	  377.83
     98.2700	 1523.00	 1560.49	-1888.29	  377.64
     98.3700	 1537.00	 1538.68	-1852.48	  377.46
     98.4700	 1503.00	 1499.09	-1846.89	  377.27
     98.5700	 1355.00	 1445.40	-1941.20	  377.09
     98.6700	 1372.00	 1381.82	-1860.62	  376.90
     98.7700	 1300.00	 1312.53	-1863.33	  376.72
     98.8700	 1192.00	 1241.45	-1900.25	  376.54
     98.9700	 1181.00	 1172.06	-1841.86	  376.35
     99.0700	 1122.00	 1107.35	-1836.15	  376.17
     99.1700	 1052.00	 1049.81	-1848.61	  375.99
     99.2700	 1006.00	 1001.49	-1846.29	  375.80
     99.3700	 1010.00	  964.01	-1804.81	  375.62
     99.4700	  906.00	  938.65	-1883.45	  375.44
     99.5700	  962.00	  926.33	-1815.13	  375.26
     99.6700	 1001.00	  927.66	-1777.47	  375.08
     99.7700	  980.00	  942.95	-1813.75	  374.90
     99.8700	  983.00	  972.22	-1840.02	  374.72
     99.9700	 1092.00	 1015.22	-1774.02	  374.54
    100.0700	 1072.00	 1071.39	-1850.19	  374.36
    100.1700	 1135.00	 1139.81	-1855.61	  374.18
    100.2700	 1217.00	 1219.16	-1852.96	  374.00
    100.3700	 1329.00	 1307.70	-1829.50	  373.82
    100.4700	 1456.00	 1403.13	-1797.93	  373.64
    100.5700	 1527.00	 1502.66	-1826.46	  373.47
    100.6700	 1610.00	 1602.97	-1843.77	  373.29
    100.7700	 1662.00	 1700.26	-1889.06	  373.12
    100.8700	 1917.00	 1790.86	-1724.66	  372.94
    100.9700	 1874.00	 1871.16	-1847.96	  372.77
    101.0700	 1960.00	 1938.30	-1829.10	  372.59
    101.1700	 1915.00	 1990.27	-1926.07	  372.42
    101.2700	 1984.00	 2025.85	-1892.65	  372.25
    101.3700	 2071.00	 2044.34	-1824.14	  372.08
    101.4700	 2051.00	 2045.33	-1845.13	  371.91
    101.5700	 2002.00	 2028.76	-1877.56	  371.74
    101.6700	 2071.00	 1995.13	-1774.93	  371.57
    101.7700	 1945.00	 1945.95	-1851.75	  371.40
    101.8700	 1956.00	 1883.80	-1778.60	  371.23
    101.9700	 1783.00	 1812.27	-1880.07	  371.06
    102.0700	 1716.00	 1735.42	-1870.22	  370.90
    102.1700	 1662.00	 1657.28	-1846.08	  370.73
    102.2700	 1560.00	 1581.42	-1872.22	  370.56
    102.3700	 1579.00	 1510.62	-1782.42	  370.40
    102.4700	 1481.00	 1446.87	-1816.67	  370.24
    102.5700	 1440.00	 1391.23	-1802.03	  370.07
    102.6700	 1302.00	 1344.02	-1892.82	  369.91
    102.7700	 1267.00	 1304.84	-1888.64	  369.75
    102.8700	 1288.00	 1272.61	-1835.41	  369.59
    102.9700	 1254.00	 1245.73	-1842.53	  369.43
    103.0700	 1284.00	 1222.19	-1788.99	  369.28
    103.1700	 1197.00	 1199.80	-1853.60	  369.12
    103.2700	 1090.00	 1176.47	-1937.27	  368.96
    103.3700	 1182.00	 1150.51	-1819.31	  368.81
    103.4700	 1100.00	 1120.87	-1871.67	  368.65
    103.5700	 1079.00	 1087.20	-1859.01	  368.50
    103.6700	 1074.00	 1049.88	-1826.68	  368.35
    103.7700	 1000.00	 1009.70	-1860.50	  368.20
    103.8700	  927.00	  967.70	-1891.50	  368.05
    103.9700	  939.00	  924.99	-1836.79	  367.90
    104.0700	  851.00	  882.62	-1882.42	  367.75
    104.1700	  864.00	  841.54	-1828.34	  367.61
    104.2700	  824.00	  802.51	-1829.31	  367.46
    104.3700	  796.00	  766.16	-1820.96	  367.32
    104.4700	  716.00	  732.92	-1867.72	  367.18
    104.5700	  740.00	  703.09	-1813.89	  367.03
    104.6700	  722.00	  676.79	-1805.59	  366.89
    104.7700	  707.00	  654.00	-1797.80	  366.75
    104.8700	  703.00	  634.58	-1782.38	  366.62
    104.9700	  661.00	  618.31	-1808.11	  366.48
    105.0700	  636.00	  604.93	-1819.73	  366.34
    105.1700	  568.00	  594.11	-1876.91	  366.21
    105.2700	  641.00	  585.55	-1795.35	  366.08
    105.3700	  626.00	  578.93	-1803.73	  365.95
    105.4700	  633.00	  573.98	-1791.78	  365.82
    105.5700	  616.00	  570.44	-1805.24	  365.69
    105.6700	  592.00	  568.18	-1826.98	  365.56
    105.7700	  617.00	  567.03	-1800.83	  365.44
    105.8700	  577.00	  566.89	-1840.69	  365.31
    105.9700	  603.00	  567.70	-1815.50	  365.19
    106.0700	  587.00	  569.44	-1833.24	  365.07
    106.1700	  604.00	  572.13	-1818.93	  364.95
    106.2700	  586.00	  575.77	-1840.57	  364.83
    106.3700	  565.00	  580.47	-1866.27	  364.71
    106.4700	  587.00	  586.28	-1850.08	  364.60
    106.5700	  572.00	  593.24	-1872.04	  364.49
    106.6700	  550.00	  601.40	-1902.20	  364.37
    106.7700	  614.00	  610.78	-1847.58	  364.26
    106.8700	  655.00	  621.35	-1817.15	  364.16
    106.9700	  666.00	  633.03	-1817.83	  364.05
    107.0700	  652.00	  645.69	-1844.49	  363.94
    107.1700	  683.00	  659.13	-1826.93	  363.84
    107.2700	  664.00	  673.10	-1859.90	  363.74
    107.3700	  734.00	  687.26	-1804.06	  363.64
    107.4700	  658.00	  701.23	-1894.03	  363.54
    107.5700	  714.00	  714.60	-1851.40	  363.44
    107.6700	  666.00	  726.89	-1911.69	  363.35
    107.7700	  728.00	  737.66	-1860.46	  363.26
    107.8700	  720.00	  746.49	-1877.29	  363.17
    107.9700	  719.00	  753.12	-1884.92	  363.08
    108.0700	  788.00	  757.44	-1820.24	  362.99
    108.1700	  739.00	  759.49	-1871.29	  362.91
    108.2700	  695.00	  759.63	-1915.43	  362.82
    108.3700	  739.00	  758.25	-1870.05	  362.74
    108.4700	  741.00	  755.84	-1865.64	  362.66
    108.5700	  721.00	  752.92	-1882.72	  362.59
    108.6700	  721.00	  749.93	-1879.73	  362.51
    108.7700	  698.00	  747.25	-1900.05	  362.44
    108.8700	  746.00	  745.14	-1849.94	  362.37
    108.9700	  687.00	  743.75	-1907.55	  362.30
    109.0700	  702.00	  743.11	-1891.91	  362.23
    109.1700	  714.00	  743.14	-1879.94	  362.17
    109.2700	  716.00	  743.63	-1878.43	  362.11
    109.3700	  682.00	  744.28	-1913.08	  362.05
    109.4700	  745.00	  744.70	-1850.50	  361.99
    109.5700	  737.00	  744.47	-1858.27	  361.93
    109.6700	  721.00	  743.17	-1872.97	  361.88
    109.7700	  746.00	  740.44	-1845.24	  361.83
    109.8700	  669.00	  736.05	-1917.85	  361.78
    109.9700	  711.00	  729.90	-1869.70	  361.73
    110.0700	  698.00	  722.07	-1874.87	  361.69
    110.1700	  668.00	  712.77	-1895.57	  361.65
    110.2700	  690.00	  702.29	-1863.09	  361.61
    110.3700	  692.00	  690.97	-1849.77	  361.57
    110.4700	  670.00	  679.15	-1859.95	  361.54
    110.5700	  655.00	  667.19	-1862.99	  361.51
    110.6700	  668.00	  655.38	-1838.18	  361.48
    110.7700	  676.00	  643.97	-1818.77	  361.45
    110.8700	  593.00	  633.18	-1890.98	  361.43
    110.9700	  580.00	  623.21	-1894.01	  361.41
    111.0700	  599.00	  614.17	-1865.97	  361.39
    111.1700	  636.00	  606.16	-1820.96	  361.37
    111.2700	  597.00	  599.23	-1853.03	  361.36
    111.3700	  615.00	  593.40	-1829.20	  361.35
    111.4700	  614.00	  588.64	-1825.44	  361.34
    111.5700	  596.00	  584.92	-1839.72	  361.33
    111.6700	  604.00	  582.17	-1828.97	  361.33
    111.7700	  576.00	  580.31	-1855.11	  361.33
    111.8700	  605.00	  579.25	-1825.05	  361.34
    111.9700	  628.00	  578.89	-1801.69	  361.34
    112.0700	  587.00	  579.14	-1842.94	  361.35
    112.1700	  560.00	  579.91	-1870.71	  361.36
    112.2700	  569.00	  581.09	-1862.89	  361.38
    112.3700	  625.00	  582.62	-1808.42	  361.39
    112.4700	  537.00	  584.42	-1898.22	  361.42
    112.5700	  569.00	  586.43	-1868.23	  361.44
    112.6700	  594.00	  588.60	-1845.40	  361.47
    112.7700	  587.00	  590.90	-1854.70	  361.50
    112.8700	  585.00	  593.34	-1859.14	  361.53
    112.9700	  571.00	  595.91	-1875.71	  361.56
    113.0700	  576.00	  598.63	-1873.43	  361.60
    113.1700	  608.00	  601.56	-1844.36	  361.65
    113.2700	  584.00	  604.75	-1871.55	  361.69
    113.3700	  571.00	  608.26	-1888.06	  361.74
    113.4700	  559.00	  612.17	-1903.97	  361.79
    113.5700	  603.00	  616.58	-1864.38	  361.85
    113.6700	  613.00	  621.62	-1859.42	  361.91
    113.7700	  570.00	  627.43	-1908.23	  361.97
    113.8700	  581.00	  634.21	-1904.01	  362.03
    113.9700	  628.00	  642.21	-1865.01	  362.10
    114.0700	  674.00	  651.71	-1828.51	  362.17
    114.1700	  642.00	  663.14	-1871.94	  362.25
    114.2700	  684.00	  676.96	-1843.76	  362.33
    114.3700	  651.00	  693.80	-1893.60	  362.41
    114.4700	  705.00	  714.41	-1860.21	  362.50
    114.5700	  732.00	  739.73	-1858.53	  362.59
    114.6700	  754.00	  770.86	-1867.66	  362.68
    114.7700	  753.00	  809.14	-1906.94	  362.78
    114.8700	  862.00	  856.10	-1844.90	  362.88
    114.9700	  905.00	  913.51	-1859.31	  362.98
    115.0700	  994.00	  983.34	-1840.14	  363.09
    115.1700	 1115.00	 1067.79	-1803.59	  363.20
    115.2700	 1224.00	 1169.16	-1795.96	  363.32
    115.3700	 1283.00	 1289.84	-1857.64	  363.44
    115.4700	 1543.00	 1432.23	-1740.03	  363.56
    115.5700	 1642.00	 1598.62	-1807.42	  363.69
    115.6700	 1906.00	 1791.11	-1735.91	  363.82
    115.7700	 2203.00	 2011.36	-1659.16	  363.95
    115.8700	 2466.00	 2260.53	-1645.33	  364.09
    115.9700	 2672.00	 2539.03	-1717.83	  364.23
    116.0700	 2921.00	 2846.51	-1776.31	  364.38
    116.1700	 3251.00	 3181.68	-1781.48	  364.53
    116.2700	 3683.00	 3542.01	-1709.81	  364.69
    116.3700	 4103.00	 3923.88	-1671.68	  364.85
    116.4700	 4406.00	 4322.32	-1767.12	  365.01
    116.5700	 4652.00	 4731.24	-1930.04	  365.18
    116.6700	 5063.00	 5143.39	-1931.19	  365.35
    116.7700	 5444.00	 5550.18	-1956.98	  365.52
    116.8700	 5865.00	 5942.06	-1927.86	  365.70
    116.9700	 6229.00	 6308.59	-1930.39	  365.89
    117.0700	 6457.00	 6638.95	-2032.75	  366.08
    117.1700	 6936.00	 6922.21	-1837.01	  366.27
    117.2700	 7023.00	 7147.98	-1975.78	  366.47
    117.3700	 7184.00	 7307.31	-1974.11	  366.67
    117.4700	 7317.00	 7393.56	-1927.36	  366.88
    117.5700	 7123.00	 7403.20	-2131.00	  367.09
    117.6700	 7212.00	 7336.19	-1974.99	  367.30
    117.7700	 7103.00	 7196.03	-1943.83	  367.52
    117.8700	 6785.00	 6989.27	-2055.07	  367.75
    117.9700	 6477.00	 6724.80	-2098.60	  367.98
    118.0700	 6373.00	 6412.83	-1890.63	  368.21
    118.1700	 5859.00	 6064.11	-2055.91	  368.45
    118.2700	 5567.00	 5689.40	-1973.20	  368.69
    118.3700	 5301.00	 5298.90	-1848.70	  368.94
    118.4700	 4956.00	 4901.99	-1796.79	  369.19
    118.5700	 4609.00	 4506.92	-1748.72	  369.45
    118.6700	 4247.00	 4120.72	-1724.52	  369.71
    118.7700	 3919.00	 3749.36	-1681.16	  369.98
    118.8700	 3582.00	 3397.50	-1666.30	  370.25
    118.9700	 3214.00	 3068.63	-1705.43	  370.53
    119.0700	 2882.00	 2765.02	-1733.82	  370.81
    119.1700	 2589.00	 2487.92	-1749.72	  371.10
    119.2700	 2364.00	 2237.79	-1724.59	  371.39
    119.3700	 2190.00	 2014.28	-1675.08	  371.69
    119.4700	 1933.00	 1816.47	-1734.27	  371.99
    119.5700	 1720.00	 1642.91	-1773.71	  372.30
    119.6700	 1568.00	 1491.80	-1774.60	  372.61
    119.7700	 1427.00	 1361.21	-1785.01	  372.93
    119.8700	 1357.00	 1249.05	-1742.85	  373.26
    119.9700	 1272.00	 1153.23	-1732.03	  373.59
    120.0700	 1191.00	 1071.69	-1731.49	  373.92
    120.1700	 1088.00	 1002.51	-1765.31	  374.26
    120.2700	  984.00	  943.95	-1810.75	  374.60
    120.3700	  965.00	  894.42	-1780.22	  374.96
    120.4700	  894.00	  852.53	-1809.33	  375.31
    120.5700	  828.00	  817.10	-1839.90	  375.67
    120.6700	  840.00	  787.08	-1797.88	  376.04
    120.7700	  799.00	  761.65	-1813.45	  376.41
    120.8700	  798.00	  740.07	-1792.87	  376.79
    120.9700	  744.00	  721.78	-1828.58	  377.18
    121.0700	  732.00	  706.29	-1825.09	  377.57
    121.1700	  728.00	  693.22	-1816.02	  377.96
    121.2700	  679.00	  682.25	-1854.05	  378.36
    121.3700	  671.00	  673.13	-1852.93	  378.77
    121.4700	  629.00	  665.64	-1887.44	  379.18
    121.5700	  648.00	  659.63	-1862.43	  379.60
    121.6700	  653.00	  654.95	-1852.75	  380.03
    121.7700	  644.00	  651.48	-1858.28	  380.46
    121.8700	  646.00	  649.13	-1853.93	  380.89
    121.9700	  650.00	  647.82	-1848.62	  381.34
    122.0700	  635.00	  647.47	-1863.27	  381.79
    122.1700	  625.00	  648.00	-1873.80	  382.24
    122.2700	  622.00	  649.36	-1878.16	  382.70
    122.3700	  664.00	  651.49	-1838.29	  383.17
    122.4700	  636.00	  654.30	-1869.10	  383.64
    122.5700	  672.00	  657.73	-1836.54	  384.12
    122.6700	  631.00	  661.72	-1881.52	  384.61
    122.7700	  651.00	  666.16	-1865.96	  385.10
    122.8700	  679.00	  670.99	-1842.79	  385.60
    122.9700	  699.00	  676.09	-1827.89	  386.11
    123.0700	  656.00	  681.38	-1876.18	  386.62
    123.1700	  665.00	  686.73	-1872.53	  387.14
    123.2700	  678.00	  692.04	-1864.84	  387.66
    123.3700	  670.00	  697.20	-1878.00	  388.20
    123.4700	  709.00	  702.08	-1843.88	  388.73
    123.5700	  741.00	  706.57	-1816.37	  389.28
    123.6700	  715.00	  710.59	-1846.39	  389.83
    123.7700	  662.00	  714.04	-1902.84	  390.39
    123.8700	  678.00	  716.88	-1889.68	  390.95
    123.9700	  702.00	  719.08	-1867.88	  391.53
    124.0700	  642.00	  720.64	-1929.44	  392.11
    124.1700	  705.00	  721.59	-1867.39	  392.69
    124.2700	  719.00	  721.97	-1853.77	  393.29
    124.3700	  746.00	  721.85	-1826.65	  393.89
    124.4700	  692.00	  721.27	-1880.07	  394.49
    124.5700	  732.00	  720.35	-1839.15	  395.11
    124.6700	  666.00	  719.13	-1903.93	  395.73
    124.7700	  698.00	  717.68	-1870.48	  396.36
    124.8700	  660.00	  716.04	-1906.84	  396.99
    124.9700	  661.00	  518.08	-1707.88	  397.64
    125.0700	  698.00	  518.73	-1850.80	  398.29
    125.1700	  768.00	  519.39	-1850.80	  398.94
    125.2700	  703.00	  520.05	-1850.80	  399.61
    125.3700	  639.00	  520.72	-1850.80	  400.28
    125.4700	  707.00	  521.40	-1850.80	  400.96
    125.5700	  677.00	  522.09	-1850.80	  401.65
    125.6700	  645.00	  522.79	-1850.80	  402.34
    125.7700	  654.00	  523.49	-1850.80	  403.05
    125.8700	  657.00	  524.20	-1850.80	  403.76
    125.9700	  668.00	  524.92	-1850.80	  404.47
    126.0700	  659.00	  525.64	-1850.80	  405.20
    126.1700	  663.00	  526.38	-1850.80	  405.93
    126.2700	  604.00	  527.12	-1850.80	  406.67
    126.3700	  670.00	  527.87	-1850.80	  407.42
    126.4700	  663.00	  528.62	-1850.80	  408.18
    126.5700	  642.00	  529.39	-1850.80	  408.95
    126.6700	  626.00	  530.16	-1850.80	  409.72
    126.7700	  622.00	  530.94	-1850.80	  410.50
    126.8700	  544.00	  531.73	-1850.80	  411.29
    126.9700	  589.00	  532.53	-1850.80	  412.09
    127.0700	  598.00	  533.33	-1850.80	  412.89
    127.1700	  605.00	  534.15	-1850.80	  413.70
    127.2700	  614.00	  534.97	-1850.80	  414.53
    127.3700	  599.00	  535.80	-1850.80	  415.36
    127.4700	  556.00	  536.64	-1850.80	  416.20
    127.5700	  557.00	  537.49	-1850.80	  417.04
    127.6700	  602.00	  538.34	-1850.80	  417.90
    127.7700	  590.00	  539.21	-1850.80	  418.76
    127.8700	  589.00	  540.08	-1850.80	  419.63
    127.9700	  619.00	  540.96	-1850.80	  420.52
    128.0700	  628.00	  541.85	-1850.80	  421.40
    128.1700	  683.00	  542.75	-1850.80	  422.30
    128.2700	  672.00	  543.65	-1850.80	  423.21
    128.3700	  646.00	  544.57	-1850.80	  424.13
    128.4700	  672.00	  545.49	-1850.80	  425.05
    128.5700	    0.00	  546.43	-1850.80	  425.98
    128.6700	    0.00	  547.37	-1850.80	  426.93
     12.3984	        	        	        	        	       0	(  0  0  2)	  0  1
     12.3984	        	        	        	        	    -462	(  0  0  2)	  0  1
     25.0435	        	        	        	        	       0	(  0  0  4)	  0  1
     25.0435	        	        	        	        	    -462	(  0  0  4)	  0  1
     28.4932	        	        	        	        	       0	(  1  0  0)	  0  1
     28.4932	        	        	        	        	    -462	(  1  0  0)	  0  1
     29.1942	        	        	        	        	       0	(  1  0  1)	  0  1
     29.1942	        	        	        	        	    -462	(  1  0  1)	  0  1
     31.2112	        	        	        	        	       0	(  1  0  2)	  0  1
     31.2112	        	        	        	        	    -462	(  1  0  2)	  0  1
     34.3364	        	        	        	        	       0	(  1  0  3)	  0  1
     34.3364	        	        	        	        	    -462	(  1  0  3)	  0  1
     38.0094	        	        	        	        	       0	(  0  0  6)	  0  1
     38.0094	        	        	        	        	    -462	(  0  0  6)	  0  1
     38.3353	        	        	        	        	       0	(  1  0  4)	  0  1
     38.3353	        	        	        	        	    -462	(  1  0  4)	  0  1
     43.0113	        	        	        	        	       0	(  1  0  5)	  0  1
     43.0113	        	        	        	        	    -462	(  1  0  5)	  0  1
     48.2251	        	        	        	        	       0	(  1  0  6)	  0  1
     48.2251	        	        	        	        	    -462	(  1  0  6)	  0  1
     50.5411	        	        	        	        	       0	(  1  1  0)	  0  1
     50.5411	        	        	        	        	    -462	(  1  1  0)	  0  1
     51.5060	        	        	        	        	       0	(  0  0  8)	  0  1
     51.5060	        	        	        	        	    -462	(  0  0  8)	  0  1
     52.2747	        	        	        	        	       0	(  1  1  2)	  0  1
     52.2747	        	        	        	        	    -462	(  1  1  2)	  0  1
     53.8890	        	        	        	        	       0	(  1  0  7)	  0  1
     53.8890	        	        	        	        	    -462	(  1  0  7)	  0  1
     57.2536	        	        	        	        	       0	(  1  1  4)	  0  1
     57.2536	        	        	        	        	    -462	(  1  1  4)	  0  1
     59.0862	        	        	        	        	       0	(  2  0  0)	  0  1
     59.0862	        	        	        	        	    -462	(  2  0  0)	  0  1
     59.4803	        	        	        	        	       0	(  2  0  1)	  0  1
     59.4803	        	        	        	        	    -462	(  2  0  1)	  0  1
     59.9569	        	        	        	        	       0	(  1  0  8)	  0  1
     59.9569	        	        	        	        	    -462	(  1  0  8)	  0  1
     60.6534	        	        	        	        	       0	(  2  0  2)	  0  1
     60.6534	        	        	        	        	    -462	(  2  0  2)	  0  1
     62.5794	        	        	        	        	       0	(  2  0  3)	  0  1
     62.5794	        	        	        	        	    -462	(  2  0  3)	  0  1
     64.9990	        	        	        	        	       0	(  1  1  6)	  0  1
     64.9990	        	        	        	        	    -462	(  1  1  6)	  0  1
     65.2213	        	        	        	        	       0	(  2  0  4)	  0  1
     65.2213	        	        	        	        	    -462	(  2  0  4)	  0  1
     65.8244	        	        	        	        	       0	(  0  0 10)	  0  1
     65.8244	        	        	        	        	    -462	(  0  0 10)	  0  1
     66.4157	        	        	        	        	       0	(  1  0  9)	  0  1
     66.4157	        	        	        	        	    -462	(  1  0  9)	  0  1
     68.5387	        	        	        	        	       0	(  2  0  5)	  0  1
     68.5387	        	        	        	        	    -462	(  2  0  5)	  0  1
     72.4947	        	        	        	        	       0	(  2  0  6)	  0  1
     72.4947	        	        	        	        	    -462	(  2  0  6)	  0  1
     73.2803	        	        	        	        	       0	(  1  0 10)	  0  1
     73.2803	        	        	        	        	    -462	(  1  0 10)	  0  1
     75.1091	        	        	        	        	       0	(  1  1  8)	  0  1
     75.1091	        	        	        	        	    -462	(  1  1  8)	  0  1
     77.0635	        	        	        	        	       0	(  2  0  7)	  0  1
     77.0635	        	        	        	        	    -462	(  2  0  7)	  0  1
     80.5944	        	        	        	        	       0	(  1  0 11)	  0  1
     80.5944	        	        	        	        	    -462	(  1  0 11)	  0  1
     81.4200	        	        	        	        	       0	(  0  0 12)	  0  1
     81.4200	        	        	        	        	    -462	(  0  0 12)	  0  1
     81.4769	        	        	        	        	       0	(  2  1  0)	  0  1
     81.4769	        	        	        	        	    -462	(  2  1  0)	  0  1
     81.8197	        	        	        	        	       0	(  2  1  1)	  0  1
     81.8197	        	        	        	        	    -462	(  2  1  1)	  0  1
     82.2355	        	        	        	        	       0	(  2  0  8)	  0  1
     82.2355	        	        	        	        	    -462	(  2  0  8)	  0  1
     82.8462	        	        	        	        	       0	(  2  1  2)	  0  1
     82.8462	        	        	        	        	    -462	(  2  1  2)	  0  1
     84.5521	        	        	        	        	       0	(  2  1  3)	  0  1
     84.5521	        	        	        	        	    -462	(  2  1  3)	  0  1
     86.9328	        	        	        	        	       0	(  2  1  4)	  0  1
     86.9328	        	        	        	        	    -462	(  2  1  4)	  0  1
     87.4827	        	        	        	        	       0	(  1  1 10)	  0  1
     87.4827	        	        	        	        	    -462	(  1  1 10)	  0  1
     88.0241	        	        	        	        	       0	(  2  0  9)	  0  1
     88.0241	        	        	        	        	    -462	(  2  0  9)	  0  1
     88.4363	        	        	        	        	       0	(  1  0 12)	  0  1
     88.4363	        	        	        	        	    -462	(  1  0 12)	  0  1
     89.9868	        	        	        	        	       0	(  2  1  5)	  0  1
     89.9868	        	        	        	        	    -462	(  2  1  5)	  0  1
     93.7206	        	        	        	        	       0	(  2  1  6)	  0  1
     93.7206	        	        	        	        	    -462	(  2  1  6)	  0  1
     94.4737	        	        	        	        	       0	(  2  0 10)	  0  1
     94.4737	        	        	        	        	    -462	(  2  0 10)	  0  1
     95.4870	        	        	        	        	       0	(  3  0  0)	  0  1
     95.4870	        	        	        	        	    -462	(  3  0  0)	  0  1
     95.8279	        	        	        	        	       0	(  3  0  1)	  0  1
     95.8279	        	        	        	        	    -462	(  3  0  1)	  0  1
     96.8519	        	        	        	        	       0	(  3  0  2)	  0  1
     96.8519	        	        	        	        	    -462	(  3  0  2)	  0  1
     96.9335	        	        	        	        	       0	(  1  0 13)	  0  1
     96.9335	        	        	        	        	    -462	(  1  0 13)	  0  1
     98.1556	        	        	        	        	       0	(  2  1  7)	  0  1
     98.1556	        	        	        	        	    -462	(  2  1  7)	  0  1
     98.5637	        	        	        	        	       0	(  3  0  3)	  0  1
     98.5637	        	        	        	        	    -462	(  3  0  3)	  0  1
     99.1281	        	        	        	        	       0	(  0  0 14)	  0  1
     99.1281	        	        	        	        	    -462	(  0  0 14)	  0  1
    100.9738	        	        	        	        	       0	(  3  0  4)	  0  1
    100.9738	        	        	        	        	    -462	(  3  0  4)	  0  1
    101.6742	        	        	        	        	       0	(  2  0 11)	  0  1
    101.6742	        	        	        	        	    -462	(  2  0 11)	  0  1
    102.5087	        	        	        	        	       0	(  1  1 12)	  0  1
    102.5087	        	        	        	        	    -462	(  1  1 12)	  0  1
    103.3375	        	        	        	        	       0	(  2  1  8)	  0  1
    103.3375	        	        	        	        	    -462	(  2  1  8)	  0  1
    104.1025	        	        	        	        	       0	(  3  0  5)	  0  1
    104.1025	        	        	        	        	    -462	(  3  0  5)	  0  1
    106.2965	        	        	        	        	       0	(  1  0 14)	  0  1
    106.2965	        	        	        	        	    -462	(  1  0 14)	  0  1
    107.9873	        	        	        	        	       0	(  3  0  6)	  0  1
    107.9873	        	        	        	        	    -462	(  3  0  6)	  0  1
    109.3521	        	        	        	        	       0	(  2  1  9)	  0  1
    109.3521	        	        	        	        	    -462	(  2  1  9)	  0  1
    109.7896	        	        	        	        	       0	(  2  0 12)	  0  1
    109.7896	        	        	        	        	    -462	(  2  0 12)	  0  1
    112.6941	        	        	        	        	       0	(  3  0  7)	  0  1
    112.6941	        	        	        	        	    -462	(  3  0  7)	  0  1
    116.3547	        	        	        	        	       0	(  2  1 10)	  0  1
    116.3547	        	        	        	        	    -462	(  2  1 10)	  0  1
    116.8974	        	        	        	        	       0	(  1  0 15)	  0  1
    116.8974	        	        	        	        	    -462	(  1  0 15)	  0  1
    117.4876	        	        	        	        	       0	(  2  2  0)	  0  1
    117.4876	        	        	        	        	    -462	(  2  2  0)	  0  1
    118.3384	        	        	        	        	       0	(  3  0  8)	  0  1
    118.3384	        	        	        	        	    -462	(  3  0  8)	  0  1
    119.0294	        	        	        	        	       0	(  2  2  2)	  0  1
    119.0294	        	        	        	        	    -462	(  2  2  2)	  0  1
    119.1222	        	        	        	        	       0	(  2  0 13)	  0  1
    119.1222	        	        	        	        	    -462	(  2  0 13)	  0  1
    120.9337	        	        	        	        	       0	(  0  0 16)	  0  1
    120.9337	        	        	        	        	    -462	(  0  0 16)	  0  1
    121.6431	        	        	        	        	       0	(  1  1 14)	  0  1
    121.6431	        	        	        	        	    -462	(  1  1 14)	  0  1
    123.8049	        	        	        	        	       0	(  2  2  4)	  0  1
    123.8049	        	        	        	        	    -462	(  2  2  4)	  0  1
    124.6363	        	        	        	        	       0	(  2  1 11)	  0  1
    124.6363	        	        	        	        	    -462	(  2  1 11)	  0  1
    125.1290	        	        	        	        	       0	(  3  0  9)	  0  1
    125.1290	        	        	        	        	    -462	(  3  0  9)	  0  1
    125.7042	        	        	        	        	       0	(  3  1  0)	  0  1
    125.7042	        	        	        	        	    -462	(  3  1  0)	  0  1
    126.1235	        	        	        	        	       0	(  3  1  1)	  0  1
    126.1235	        	        	        	        	    -462	(  3  1  1)	  0  1
    127.3952	        	        	        	        	       0	(  3  1  2)	  0  1
    127.3952	        	        	        	        	    -462	(  3  1  2)	  0  1
    129.5022	        	        	        	        	       0	(  1  0 16)	  0  1
    129.5022	        	        	        	        	    -462	(  1  0 16)	  0  1
    129.5646	        	        	        	        	       0	(  3  1  3)	  0  1
    129.5646	        	        	        	        	    -462	(  3  1  3)	  0  1
    130.2927	        	        	        	        	       0	(  2  0 14)	  0  1
    130.2927	        	        	        	        	    -462	(  2  0 14)	  0  1
    132.4478	        	        	        	        	       0	(  2  2  6)	  0  1
    132.4478	        	        	        	        	    -462	(  2  2  6)	  0  1
    132.7224	        	        	        	        	       0	(  3  1  4)	  0  1
    132.7224	        	        	        	        	    -462	(  3  1  4)	  0  1
    133.4758	        	        	        	        	       0	(  3  0 10)	  0  1
    133.4758	        	        	        	        	    -462	(  3  0 10)	  0  1
    134.8059	        	        	        	        	       0	(  2  1 12)	  0  1
    134.8059	        	        	        	        	    -462	(  2  1 12)	  0  1
    137.0386	        	        	        	        	       0	(  3  1  5)	  0  1
    137.0386	        	        	        	        	    -462	(  3  1  5)	  0  1
    142.8502	        	        	        	        	       0	(  3  1  6)	  0  1
    142.8502	        	        	        	        	    -462	(  3  1  6)	  0  1
    144.3508	        	        	        	        	       0	(  3  0 11)	  0  1
    144.3508	        	        	        	        	    -462	(  3  0 11)	  0  1
    144.9528	        	        	        	        	       0	(  2  0 15)	  0  1
    144.9528	        	        	        	        	    -462	(  2  0 15)	  0  1
    146.2862	        	        	        	        	       0	(  1  0 17)	  0  1
    146.2862	        	        	        	        	    -462	(  1  0 17)	  0  1
    147.2458	        	        	        	        	       0	(  2  2  8)	  0  1
    147.2458	        	        	        	        	    -462	(  2  2  8)	  0  1
    148.5410	        	        	        	        	       0	(  2  1 13)	  0  1
    148.5410	        	        	        	        	    -462	(  2  1 13)	  0  1
    150.9520	        	        	        	        	       0	(  3  1  7)	  0  1
    150.9520	        	        	        	        	    -462	(  3  1  7)	  0  1
    151.6955	        	        	        	        	       0	(  1  1 16)	  0  1
    151.6955	        	        	        	        	    -462	(  1  1 16)	  0  1
    156.5424	        	        	        	        	       0	(  0  0 18)	  0  1
    156.5424	        	        	        	        	    -462	(  0  0 18)	  0  1
    161.6592	        	        	        	        	       0	(  3  0 12)	  0  1
    161.6592	        	        	        	        	    -462	(  3  0 12)	  0  1
    161.8398	        	        	        	        	       0	(  4  0  0)	  0  1
    161.8398	        	        	        	        	    -462	(  4  0  0)	  0  1
    162.9677	        	        	        	        	       0	(  4  0  1)	  0  1
    162.9677	        	        	        	        	    -462	(  4  0  1)	  0  1
    164.4444	        	        	        	        	       0	(  3  1  8)	  0  1
    164.4444	        	        	        	        	    -462	(  3  1  8)	  0  1
    166.9084	        	        	        	        	       0	(  4  0  2)	  0  1
    166.9084	        	        	        	        	    -462	(  4  0  2)	  0  1
