MSG Master    CELL:    5.91114   5.91114  23.23385   90.0000   90.0000  120.0000   SPGR: P 63/m m c             TEMP:    938.95
  1   1280     2.52000     0.00000    -0.13409     0.00000     0.00000    0
    98     0     2
       0.00000      10.00000
     125.00000     130.00000
 2Theta	Yobs	Ycal	Yobs-Ycal	Backg	Posr	(hkl)	K
      0.7700	    0.00	  463.16	-1738.25	  352.58
      0.8700	    0.00	  464.78	-1738.25	  354.20
      0.9700	   46.00	  466.39	-1738.25	  355.81
      1.0700	   48.00	  467.97	-1738.25	  357.39
      1.1700	   40.00	  469.54	-1738.25	  358.96
      1.2700	   37.00	  471.09	-1738.25	  360.51
      1.3700	   39.00	  472.63	-1738.25	  362.05
      1.4700	   97.00	  474.14	-1738.25	  363.56
      1.5700	  291.00	  475.64	-1738.25	  365.06
      1.6700	  478.00	  477.13	-1738.25	  366.54
      1.7700	  559.00	  478.59	-1738.25	  368.01
      1.8700	  677.00	  480.04	-1738.25	  369.46
      1.9700	  711.00	  481.47	-1738.25	  370.89
      2.0700	  750.00	  482.89	-1738.25	  372.30
      2.1700	  778.00	  484.28	-1738.25	  373.70
      2.2700	  771.00	  485.66	-1738.25	  375.08
      2.3700	  744.00	  487.03	-1738.25	  376.45
      2.4700	  673.00	  488.38	-1738.25	  377.80
      2.5700	  711.00	  489.71	-1738.25	  379.13
      2.6700	  700.00	  491.03	-1738.25	  380.45
      2.7700	  642.00	  492.33	-1738.25	  381.75
      2.8700	  651.00	  493.61	-1738.25	  383.03
      2.9700	  583.00	  494.88	-1738.25	  384.30
      3.0700	  630.00	  496.14	-1738.25	  385.55
      3.1700	  596.00	  497.37	-1738.25	  386.79
      3.2700	  721.00	  498.60	-1738.25	  388.01
      3.3700	  783.00	  499.80	-1738.25	  389.22
      3.4700	  823.00	  500.99	-1738.25	  390.41
      3.5700	  876.00	  502.17	-1738.25	  391.59
      3.6700	  937.00	  503.33	-1738.25	  392.75
      3.7700	 1020.00	  504.48	-1738.25	  393.90
      3.8700	 1100.00	  505.61	-1738.25	  395.03
      3.9700	 1129.00	  506.73	-1738.25	  396.15
      4.0700	 1136.00	  507.83	-1738.25	  397.25
      4.1700	 1180.00	  508.92	-1738.25	  398.33
      4.2700	 1269.00	  509.99	-1738.25	  399.41
      4.3700	 1207.00	  511.05	-1738.25	  400.47
      4.4700	 1136.00	  512.09	-1738.25	  401.51
      4.5700	 1175.00	  513.12	-1738.25	  402.54
      4.6700	 1059.00	  514.14	-1738.25	  403.56
      4.7700	  968.00	  515.14	-1738.25	  404.56
      4.8700	 1036.00	  516.13	-1738.25	  405.55
      4.9700	 1012.00	  517.10	-1738.25	  406.52
      5.0700	 1011.00	  518.06	-1738.25	  407.48
      5.1700	  982.00	  519.01	-1738.25	  408.43
      5.2700	  960.00	  519.94	-1738.25	  409.36
      5.3700	  866.00	  520.86	-1738.25	  410.28
      5.4700	  967.00	  521.77	-1738.25	  411.19
      5.5700	  862.00	  522.66	-1738.25	  412.08
      5.6700	  931.00	  523.54	-1738.25	  412.96
      5.7700	  875.00	  524.41	-1738.25	  413.83
      5.8700	  854.00	  525.26	-1738.25	  414.68
      5.9700	  797.00	  526.11	-1738.25	  415.52
      6.0700	  795.00	  526.93	-1738.25	  416.35
      6.1700	  790.00	  527.75	-1738.25	  417.17
      6.2700	  776.00	  528.55	-1738.25	  417.97
      6.3700	  698.00	  529.34	-1738.25	  418.76
      6.4700	  818.00	  530.12	-1738.25	  419.54
      6.5700	  756.00	  530.89	-1738.25	  420.30
      6.6700	  731.00	  531.64	-1738.25	  421.06
      6.7700	  767.00	  532.38	-1738.25	  421.80
      6.8700	  729.00	  533.11	-1738.25	  422.53
      6.9700	  718.00	  533.83	-1738.25	  423.24
      7.0700	  722.00	  534.53	-1738.25	  423.95
      7.1700	  691.00	  535.22	-1738.25	  424.64
      7.2700	  656.00	  535.91	-1738.25	  425.32
      7.3700	  661.00	  536.58	-1738.25	  425.99
      7.4700	  640.00	  537.23	-1738.25	  426.65
      7.5700	  662.00	  537.88	-1738.25	  427.30
      7.6700	  661.00	  538.52	-1738.25	  427.93
      7.7700	  647.00	  539.14	-1738.25	  428.56
      7.8700	  646.00	  539.75	-1738.25	  429.17
      7.9700	  645.00	  540.35	-1738.25	  429.77
      8.0700	  617.00	  540.94	-1738.25	  430.36
      8.1700	  656.00	  541.52	-1738.25	  430.94
      8.2700	  601.00	  542.09	-1738.25	  431.51
      8.3700	  663.00	  542.65	-1738.25	  432.07
      8.4700	  580.00	  543.20	-1738.25	  432.61
      8.5700	  639.00	  543.73	-1738.25	  433.15
      8.6700	  651.00	  544.26	-1738.25	  433.68
      8.7700	  605.00	  544.77	-1738.25	  434.19
      8.8700	  637.00	  545.28	-1738.25	  434.70
      8.9700	  606.00	  545.77	-1738.25	  435.19
      9.0700	  614.00	  546.26	-1738.25	  435.67
      9.1700	  597.00	  546.73	-1738.25	  436.15
      9.2700	  634.00	  547.19	-1738.25	  436.61
      9.3700	  581.00	  547.65	-1738.25	  437.07
      9.4700	  605.00	  548.09	-1738.25	  437.51
      9.5700	  594.00	  548.53	-1738.25	  437.94
      9.6700	  575.00	  548.95	-1738.25	  438.37
      9.7700	  565.00	  549.37	-1738.25	  438.78
      9.8700	  622.00	  549.77	-1738.25	  439.19
      9.9700	  585.00	  550.17	-1738.25	  439.58
     10.0700	  566.00	  552.26	-1724.51	  439.97
     10.1700	  592.00	  552.82	-1699.07	  440.35
     10.2700	  583.00	  553.42	-1708.67	  440.71
     10.3700	  584.00	  554.08	-1708.33	  441.07
     10.4700	  540.00	  554.82	-1753.07	  441.42
     10.5700	  547.00	  555.73	-1746.98	  441.76
     10.6700	  596.00	  556.86	-1699.11	  442.09
     10.7700	  596.00	  558.34	-1700.59	  442.41
     10.8700	  584.00	  560.21	-1714.46	  442.72
     10.9700	  545.00	  562.52	-1755.77	  443.03
     11.0700	  558.00	  565.25	-1745.50	  443.32
     11.1700	  589.00	  568.42	-1717.67	  443.61
     11.2700	  597.00	  572.06	-1713.31	  443.89
     11.3700	  607.00	  576.27	-1707.52	  444.16
     11.4700	  595.00	  581.19	-1724.44	  444.42
     11.5700	  629.00	  587.05	-1696.30	  444.67
     11.6700	  595.00	  594.19	-1737.44	  444.92
     11.7700	  594.00	  603.05	-1747.30	  445.15
     11.8700	  629.00	  613.95	-1723.20	  445.38
     11.9700	  658.00	  626.53	-1706.78	  445.60
     12.0700	  636.00	  638.92	-1741.17	  445.81
     12.1700	  704.00	  646.93	-1681.18	  446.02
     12.2700	  653.00	  644.66	-1729.91	  446.21
     12.3700	  635.00	  629.82	-1733.07	  446.40
     12.4700	  566.00	  609.40	-1781.65	  446.58
     12.5700	  639.00	  591.64	-1690.89	  446.75
     12.6700	  571.00	  579.34	-1746.59	  446.92
     12.7700	  572.00	  571.89	-1738.14	  447.08
     12.8700	  565.00	  567.71	-1740.96	  447.23
     12.9700	  565.00	  565.37	-1738.62	  447.37
     13.0700	  557.00	  563.97	-1745.22	  447.51
     13.1700	  546.00	  563.06	-1755.31	  447.64
     13.2700	  537.00	  562.41	-1763.66	  447.76
     13.3700	  551.00	  561.94	-1749.19	  447.87
     13.4700	  583.00	  561.58	-1716.83	  447.98
     13.5700	  567.00	  561.31	-1732.56	  448.08
     13.6700	  533.00	  561.10	-1766.35	  448.17
     13.7700	  536.00	  560.94	-1763.19	  448.26
     13.8700	  533.00	  560.82	-1766.07	  448.34
     13.9700	  548.00	  560.72	-1750.97	  448.41
     14.0700	  574.00	  560.66	-1724.91	  448.48
     14.1700	  540.00	  560.60	-1758.85	  448.54
     14.2700	  564.00	  560.54	-1734.79	  448.59
     14.3700	  548.00	  560.49	-1750.74	  448.64
     14.4700	  602.00	  560.45	-1696.70	  448.68
     14.5700	  571.00	  560.41	-1727.66	  448.71
     14.6700	  499.00	  560.38	-1799.63	  448.74
     14.7700	  563.00	  560.34	-1735.59	  448.76
     14.8700	  590.00	  560.31	-1708.56	  448.78
     14.9700	  537.00	  560.27	-1761.52	  448.79
     15.0700	  515.00	  560.23	-1783.48	  448.79
     15.1700	  561.00	  560.19	-1737.44	  448.79
     15.2700	  554.00	  560.15	-1744.40	  448.78
     15.3700	  537.00	  560.11	-1761.36	  448.77
     15.4700	  559.00	  560.06	-1739.31	  448.75
     15.5700	  549.00	  560.01	-1749.26	  448.72
     15.6700	  552.00	  559.96	-1746.21	  448.69
     15.7700	  478.00	  559.90	-1820.15	  448.65
     15.8700	  511.00	  559.84	-1787.09	  448.61
     15.9700	  532.00	  559.77	-1766.02	  448.56
     16.0700	  540.00	  559.70	-1757.95	  448.51
     16.1700	  524.00	  559.63	-1773.88	  448.45
     16.2700	  593.00	  559.55	-1704.80	  448.38
     16.3700	  552.00	  559.47	-1745.72	  448.31
     16.4700	  540.00	  559.38	-1757.63	  448.24
     16.5700	  530.00	  559.29	-1767.54	  448.16
     16.6700	  565.00	  559.20	-1732.45	  448.08
     16.7700	  562.00	  559.10	-1735.35	  447.99
     16.8700	  570.00	  559.00	-1727.25	  447.89
     16.9700	  531.00	  558.89	-1766.14	  447.79
     17.0700	  539.00	  558.78	-1758.03	  447.69
     17.1700	  582.00	  558.66	-1714.91	  447.58
     17.2700	  573.00	  558.54	-1723.79	  447.46
     17.3700	  540.00	  558.42	-1756.67	  447.35
     17.4700	  548.00	  558.29	-1748.54	  447.22
     17.5700	  551.00	  558.16	-1745.41	  447.09
     17.6700	  561.00	  558.02	-1735.27	  446.96
     17.7700	  562.00	  557.98	-1734.23	  446.82
     17.8700	  528.00	  557.84	-1768.09	  446.68
     17.9700	  527.00	  557.69	-1768.94	  446.54
     18.0700	  510.00	  557.54	-1785.79	  446.39
     18.1700	  530.00	  557.39	-1765.64	  446.23
     18.2700	  572.00	  557.33	-1723.58	  446.08
     18.3700	  546.00	  557.17	-1749.42	  445.91
     18.4700	  600.00	  557.01	-1695.26	  445.75
     18.5700	  544.00	  556.84	-1751.09	  445.58
     18.6700	  576.00	  556.67	-1718.92	  445.40
     18.7700	  567.00	  556.50	-1727.75	  445.22
     18.8700	  566.00	  556.32	-1728.57	  445.04
     18.9700	  548.00	  556.14	-1746.39	  444.85
     19.0700	  543.00	  555.96	-1751.21	  444.66
     19.1700	  546.00	  555.77	-1748.02	  444.47
     19.2700	  583.00	  555.58	-1710.83	  444.27
     19.3700	  548.00	  555.38	-1745.63	  444.07
     19.4700	  541.00	  555.19	-1752.44	  443.87
     19.5700	  558.00	  554.99	-1735.24	  443.66
     19.6700	  540.00	  554.79	-1753.04	  443.45
     19.7700	  516.00	  554.58	-1776.83	  443.23
     19.8700	  570.00	  554.40	-1722.65	  443.01
     19.9700	  528.00	  554.19	-1764.44	  442.79
     20.0700	  553.00	  553.98	-1739.23	  442.57
     20.1700	  554.00	  553.77	-1738.02	  442.34
     20.2700	  603.00	  553.55	-1688.80	  442.11
     20.3700	  519.00	  553.33	-1772.58	  441.87
     20.4700	  517.00	  553.11	-1774.36	  441.63
     20.5700	  558.00	  552.88	-1733.13	  441.39
     20.6700	  542.00	  552.66	-1748.91	  441.15
     20.7700	  533.00	  552.43	-1757.68	  440.90
     20.8700	  579.00	  552.20	-1711.45	  440.65
     20.9700	  552.00	  551.97	-1738.22	  440.40
     21.0700	  549.00	  551.74	-1740.99	  440.15
     21.1700	  512.00	  551.50	-1777.75	  439.89
     21.2700	  517.00	  551.27	-1772.52	  439.63
     21.3700	  562.00	  551.03	-1727.28	  439.36
     21.4700	  521.00	  550.80	-1768.05	  439.10
     21.5700	  548.00	  550.56	-1740.81	  438.83
     21.6700	  576.00	  550.33	-1712.58	  438.56
     21.7700	  552.00	  550.09	-1736.34	  438.28
     21.8700	  569.00	  549.86	-1719.11	  438.01
     21.9700	  541.00	  549.62	-1746.87	  437.73
     22.0700	  543.00	  549.39	-1744.64	  437.45
     22.1700	  551.00	  549.16	-1736.41	  437.16
     22.2700	  546.00	  548.94	-1741.19	  436.88
     22.3700	  524.00	  548.71	-1762.96	  436.59
     22.4700	  530.00	  548.65	-1756.90	  436.30
     22.5700	  527.00	  548.44	-1759.69	  436.01
     22.6700	  557.00	  548.24	-1729.49	  435.71
     22.7700	  537.00	  548.00	-1749.25	  435.41
     22.8700	  538.00	  547.82	-1748.07	  435.12
     22.9700	  546.00	  547.66	-1739.91	  434.82
     23.0700	  519.00	  547.51	-1766.76	  434.51
     23.1700	  562.00	  547.39	-1723.64	  434.21
     23.2700	  516.00	  547.30	-1769.55	  433.90
     23.3700	  565.00	  547.24	-1720.49	  433.59
     23.4700	  548.00	  547.24	-1737.49	  433.28
     23.5700	  555.00	  547.31	-1730.56	  432.97
     23.6700	  563.00	  547.48	-1722.73	  432.66
     23.7700	  537.00	  547.81	-1749.06	  432.34
     23.8700	  560.00	  548.41	-1726.66	  432.02
     23.9700	  553.00	  549.45	-1734.70	  431.71
     24.0700	  568.00	  551.26	-1721.51	  431.38
     24.1700	  536.00	  554.28	-1756.53	  431.06
     24.2700	  527.00	  559.09	-1770.34	  430.74
     24.3700	  561.00	  566.25	-1743.50	  430.41
     24.4700	  599.00	  576.05	-1715.30	  430.09
     24.5700	  565.00	  588.12	-1761.37	  429.76
     24.6700	  611.00	  600.76	-1728.01	  429.43
     24.7700	  654.00	  610.37	-1694.62	  429.10
     24.8700	  646.00	  611.72	-1703.97	  428.77
     24.9700	  585.00	  602.11	-1755.36	  428.44
     25.0700	  613.00	  586.32	-1711.57	  428.10
     25.1700	  544.00	  571.29	-1765.54	  427.77
     25.2700	  557.00	  560.12	-1741.37	  427.43
     25.3700	  604.00	  552.92	-1687.17	  427.09
     25.4700	  560.00	  548.65	-1726.90	  426.76
     25.5700	  552.00	  546.16	-1732.41	  426.42
     25.6700	  515.00	  544.63	-1767.88	  426.07
     25.7700	  566.00	  543.61	-1715.86	  425.73
     25.8700	  556.00	  542.87	-1725.12	  425.39
     25.9700	  590.00	  542.31	-1690.56	  425.05
     26.0700	  574.00	  541.89	-1706.14	  424.70
     26.1700	  590.00	  541.59	-1689.84	  424.36
     26.2700	  546.00	  541.39	-1733.64	  424.01
     26.3700	  583.00	  541.29	-1696.54	  423.66
     26.4700	  562.00	  541.29	-1717.54	  423.32
     26.5700	  544.00	  541.40	-1735.65	  422.97
     26.6700	  596.00	  541.64	-1683.89	  422.62
     26.7700	  562.00	  542.02	-1718.27	  422.27
     26.8700	  562.00	  542.57	-1718.82	  421.92
     26.9700	  575.00	  543.35	-1706.60	  421.57
     27.0700	  572.00	  544.42	-1710.67	  421.22
     27.1700	  546.00	  545.91	-1738.16	  420.87
     27.2700	  563.00	  548.02	-1723.27	  420.51
     27.3700	  576.00	  551.17	-1713.42	  420.16
     27.4700	  562.00	  556.15	-1732.40	  419.81
     27.5700	  572.00	  564.38	-1730.63	  419.45
     27.6700	  592.00	  578.19	-1724.44	  419.10
     27.7700	  578.00	  600.68	-1760.93	  418.75
     27.8700	  622.00	  634.92	-1751.17	  418.39
     27.9700	  677.00	  681.87	-1743.12	  418.04
     28.0700	  738.00	  737.80	-1738.05	  417.68
     28.1700	  810.00	  791.71	-1719.96	  417.33
     28.2700	  891.00	  824.82	-1672.07	  416.97
     28.3700	  901.00	  820.16	-1657.41	  416.61
     28.4700	  841.00	  786.93	-1684.18	  416.26
     28.5700	  787.00	  757.12	-1708.37	  415.90
     28.6700	  752.00	  751.36	-1737.61	  415.55
     28.7700	  756.00	  770.06	-1752.31	  415.19
     28.8700	  791.00	  798.58	-1745.83	  414.83
     28.9700	  824.00	  812.45	-1726.70	  414.48
     29.0700	  827.00	  789.58	-1700.83	  414.12
     29.1700	  711.00	  733.78	-1761.03	  413.76
     29.2700	  665.00	  671.34	-1744.59	  413.41
     29.3700	  622.00	  620.77	-1737.02	  413.05
     29.4700	  624.00	  586.66	-1700.91	  412.70
     29.5700	  548.00	  566.18	-1756.43	  412.34
     29.6700	  657.00	  554.65	-1635.90	  411.99
     29.7700	  598.00	  548.07	-1688.32	  411.63
     29.8700	  543.00	  544.06	-1739.31	  411.27
     29.9700	  619.00	  541.50	-1660.75	  410.92
     30.0700	  608.00	  539.94	-1670.19	  410.56
     30.1700	  567.00	  539.38	-1710.62	  410.21
     30.2700	  591.00	  540.07	-1687.32	  409.86
     30.3700	  557.00	  542.65	-1723.90	  409.50
     30.4700	  606.00	  548.04	-1680.29	  409.15
     30.5700	  547.00	  557.22	-1748.47	  408.80
     30.6700	  550.00	  570.51	-1758.76	  408.44
     30.7700	  572.00	  586.66	-1752.91	  408.09
     30.8700	  623.00	  602.08	-1717.33	  407.74
     30.9700	  582.00	  610.75	-1767.00	  407.39
     31.0700	  598.00	  606.70	-1746.95	  407.04
     31.1700	  586.00	  590.77	-1743.02	  406.69
     31.2700	  546.00	  571.06	-1763.31	  406.34
     31.3700	  543.00	  554.16	-1749.41	  405.99
     31.4700	  567.00	  542.18	-1713.43	  405.64
     31.5700	  509.00	  534.71	-1763.96	  405.29
     31.6700	  518.00	  530.39	-1750.64	  404.95
     31.7700	  562.00	  527.91	-1704.16	  404.60
     31.8700	  510.00	  526.41	-1754.66	  404.25
     31.9700	  524.00	  525.44	-1739.69	  403.91
     32.0700	  547.00	  524.79	-1716.04	  403.56
     32.1700	  553.00	  524.38	-1709.63	  403.22
     32.2700	  538.00	  524.17	-1724.42	  402.88
     32.3700	  522.00	  524.16	-1740.41	  402.54
     32.4700	  542.00	  524.34	-1720.59	  402.19
     32.5700	  524.00	  524.75	-1739.00	  401.85
     32.6700	  548.00	  525.42	-1715.67	  401.51
     32.7700	  560.00	  526.39	-1704.64	  401.18
     32.8700	  563.00	  527.77	-1703.02	  400.84
     32.9700	  523.00	  529.70	-1744.95	  400.50
     33.0700	  568.00	  532.43	-1702.68	  400.16
     33.1700	  561.00	  536.47	-1713.72	  399.83
     33.2700	  532.00	  542.83	-1749.08	  399.49
     33.3700	  571.00	  553.46	-1720.71	  399.16
     33.4700	  548.00	  571.72	-1761.97	  398.83
     33.5700	  636.00	  602.49	-1704.74	  398.50
     33.6700	  628.00	  651.16	-1761.41	  398.17
     33.7700	  683.00	  720.49	-1775.74	  397.84
     33.8700	  825.00	  805.62	-1718.87	  397.51
     33.9700	  987.00	  890.15	-1641.40	  397.18
     34.0700	 1036.00	  945.48	-1647.73	  396.86
     34.1700	 1001.00	  941.16	-1678.41	  396.53
     34.2700	  947.00	  874.37	-1665.62	  396.21
     34.3700	  824.00	  779.67	-1693.92	  395.89
     34.4700	  691.00	  691.81	-1739.06	  395.56
     34.5700	  612.00	  625.73	-1751.98	  395.24
     34.6700	  652.00	  582.38	-1668.63	  394.92
     34.7700	  561.00	  556.47	-1733.72	  394.61
     34.8700	  552.00	  541.59	-1727.84	  394.29
     34.9700	  572.00	  532.77	-1699.02	  393.97
     35.0700	  505.00	  527.07	-1760.32	  393.66
     35.1700	  532.00	  523.01	-1729.26	  393.35
     35.2700	  508.00	  519.90	-1750.15	  393.04
     35.3700	  517.00	  517.41	-1738.66	  392.72
     35.4700	  516.00	  515.37	-1737.62	  392.42
     35.5700	  500.00	  513.65	-1751.90	  392.11
     35.6700	  550.00	  512.20	-1700.45	  391.80
     35.7700	  447.00	  511.38	-1802.63	  391.50
     35.8700	  483.00	  510.30	-1765.55	  391.19
     35.9700	  500.00	  509.34	-1747.59	  390.89
     36.0700	  519.00	  508.49	-1727.74	  390.59
     36.1700	  505.00	  507.73	-1740.98	  390.29
     36.2700	  475.00	  507.04	-1770.29	  389.99
     36.3700	  532.00	  506.43	-1712.68	  389.69
     36.4700	  475.00	  505.87	-1769.12	  389.40
     36.5700	  497.00	  505.38	-1746.63	  389.11
     36.6700	  482.00	  504.95	-1761.20	  388.81
     36.7700	  517.00	  504.60	-1725.85	  388.52
     36.8700	  512.00	  504.34	-1730.59	  388.23
     36.9700	  509.00	  504.25	-1733.50	  387.94
     37.0700	  524.00	  504.42	-1718.67	  387.66
     37.1700	  494.00	  505.01	-1749.26	  387.37
     37.2700	  483.00	  506.22	-1761.47	  387.09
     37.3700	  494.00	  508.23	-1752.48	  386.81
     37.4700	  522.00	  511.02	-1727.27	  386.53
     37.5700	  494.00	  514.22	-1758.47	  386.25
     37.6700	  507.00	  516.99	-1748.24	  385.97
     37.7700	  495.00	  518.30	-1761.55	  385.70
     37.8700	  519.00	  516.93	-1736.18	  385.42
     37.9700	  526.00	  513.55	-1725.80	  385.15
     38.0700	  492.00	  509.54	-1755.79	  384.88
     38.1700	  460.00	  505.92	-1784.17	  384.61
     38.2700	  498.00	  503.11	-1743.36	  384.34
     38.3700	  542.00	  501.11	-1697.36	  384.08
     38.4700	  488.00	  499.75	-1750.00	  383.81
     38.5700	  500.00	  498.83	-1737.08	  383.55
     38.6700	  501.00	  498.17	-1735.42	  383.29
     38.7700	  522.00	  497.66	-1713.91	  383.03
     38.8700	  489.00	  497.23	-1746.48	  382.77
     38.9700	  473.00	  496.85	-1762.10	  382.51
     39.0700	  486.00	  496.41	-1748.66	  382.26
     39.1700	  465.00	  496.09	-1769.34	  382.01
     39.2700	  470.00	  495.79	-1764.04	  381.76
     39.3700	  488.00	  495.51	-1745.76	  381.51
     39.4700	  465.00	  495.25	-1768.50	  381.26
     39.5700	  522.00	  495.00	-1711.25	  381.02
     39.6700	  467.00	  494.77	-1766.02	  380.77
     39.7700	  458.00	  494.55	-1774.80	  380.53
     39.8700	  473.00	  494.34	-1759.59	  380.29
     39.9700	  520.00	  494.05	-1712.30	  380.05
     40.0700	  465.00	  493.87	-1767.12	  379.81
     40.1700	  499.00	  493.70	-1732.95	  379.58
     40.2700	  501.00	  493.55	-1730.80	  379.35
     40.3700	  515.00	  493.41	-1716.66	  379.11
     40.4700	  481.00	  493.81	-1751.06	  378.88
     40.5700	  462.00	  493.72	-1769.97	  378.66
     40.6700	  474.00	  493.65	-1757.90	  378.43
     40.7700	  521.00	  493.60	-1710.85	  378.21
     40.8700	  478.00	  493.59	-1753.84	  377.98
     40.9700	  493.00	  493.61	-1738.86	  377.76
     41.0700	  475.00	  493.68	-1756.93	  377.54
     41.1700	  493.00	  493.79	-1739.04	  377.33
     41.2700	  479.00	  493.98	-1753.23	  377.11
     41.3700	  498.00	  494.24	-1734.49	  376.90
     41.4700	  507.00	  494.61	-1725.86	  376.69
     41.5700	  493.00	  495.13	-1740.38	  376.48
     41.6700	  504.00	  495.87	-1730.12	  376.27
     41.7700	  456.00	  496.96	-1779.21	  376.07
     41.8700	  492.00	  498.67	-1744.92	  375.86
     41.9700	  456.00	  501.53	-1783.78	  375.66
     42.0700	  505.00	  506.42	-1739.67	  375.46
     42.1700	  530.00	  514.54	-1722.79	  375.26
     42.2700	  512.00	  527.25	-1753.50	  375.07
     42.3700	  524.00	  545.33	-1759.58	  374.87
     42.4700	  545.00	  568.41	-1761.66	  374.68
     42.5700	  563.00	  593.47	-1768.72	  374.49
     42.6700	  601.00	  614.33	-1751.58	  374.30
     42.7700	  646.00	  622.93	-1715.18	  374.11
     42.8700	  564.00	  614.50	-1788.75	  373.93
     42.9700	  571.00	  592.91	-1760.16	  373.74
     43.0700	  545.00	  567.19	-1760.44	  373.56
     43.1700	  502.00	  543.60	-1779.85	  373.38
     43.2700	  513.00	  525.29	-1750.54	  373.21
     43.3700	  493.00	  512.59	-1757.84	  373.03
     43.4700	  505.00	  504.57	-1737.82	  372.86
     43.5700	  481.00	  499.69	-1756.94	  372.69
     43.6700	  500.00	  496.75	-1735.00	  372.52
     43.7700	  467.00	  494.90	-1766.15	  372.35
     43.8700	  501.00	  493.64	-1730.89	  372.18
     43.9700	  492.00	  492.71	-1738.96	  372.02
     44.0700	  477.00	  491.99	-1753.24	  371.86
     44.1700	  522.00	  491.42	-1707.67	  371.70
     44.2700	  471.00	  490.95	-1758.20	  371.54
     44.3700	  535.00	  490.77	-1694.02	  371.38
     44.4700	  517.00	  490.46	-1711.71	  371.23
     44.5700	  467.00	  490.21	-1761.46	  371.08
     44.6700	  511.00	  490.00	-1717.25	  370.93
     44.7700	  522.00	  489.84	-1706.09	  370.78
     44.8700	  457.00	  489.72	-1770.97	  370.63
     44.9700	  475.00	  489.63	-1752.88	  370.49
     45.0700	  477.00	  489.57	-1750.82	  370.35
     45.1700	  494.00	  489.55	-1733.80	  370.20
     45.2700	  486.00	  489.55	-1741.80	  370.07
     45.3700	  565.00	  489.58	-1662.83	  369.93
     45.4700	  471.00	  489.64	-1756.89	  369.79
     45.5700	  452.00	  489.73	-1775.98	  369.66
     45.6700	  510.00	  489.85	-1718.10	  369.53
     45.7700	  514.00	  490.00	-1714.25	  369.40
     45.8700	  492.00	  490.25	-1736.50	  369.27
     45.9700	  485.00	  490.32	-1743.57	  369.15
     46.0700	  511.00	  490.59	-1717.84	  369.03
     46.1700	  473.00	  490.95	-1756.20	  368.90
     46.2700	  502.00	  491.32	-1727.57	  368.79
     46.3700	  480.00	  491.74	-1749.99	  368.67
     46.4700	  488.00	  492.24	-1742.49	  368.55
     46.5700	  497.00	  492.81	-1734.06	  368.44
     46.6700	  526.00	  493.50	-1705.75	  368.33
     46.7700	  503.00	  494.31	-1729.56	  368.22
     46.8700	  516.00	  495.33	-1717.58	  368.11
     46.9700	  499.00	  496.65	-1735.90	  368.00
     47.0700	  493.00	  498.49	-1743.74	  367.90
     47.1700	  509.00	  501.20	-1730.45	  367.80
     47.2700	  509.00	  505.32	-1734.57	  367.70
     47.3700	  502.00	  511.50	-1747.75	  367.60
     47.4700	  535.00	  520.38	-1723.63	  367.50
     47.5700	  523.00	  532.25	-1747.50	  367.41
     47.6700	  535.00	  546.60	-1749.85	  367.32
     47.7700	  565.00	  561.70	-1734.95	  367.22
     47.8700	  558.00	  574.34	-1754.59	  367.14
     47.9700	  584.00	  580.51	-1734.76	  367.05
     48.0700	  518.00	  578.01	-1798.26	  366.96
     48.1700	  581.00	  568.68	-1725.93	  366.88
     48.2700	  575.00	  556.74	-1719.99	  366.80
     48.3700	  526.00	  546.13	-1758.38	  366.72
     48.4700	  538.00	  537.91	-1738.16	  366.64
     48.5700	  509.00	  533.11	-1762.36	  366.57
     48.6700	  540.00	  531.58	-1729.83	  366.49
     48.7700	  555.00	  532.85	-1716.10	  366.42
     48.8700	  544.00	  536.47	-1730.72	  366.35
     48.9700	  542.00	  542.23	-1738.48	  366.28
     49.0700	  529.00	  550.37	-1759.62	  366.21
     49.1700	  535.00	  561.84	-1765.09	  366.15
     49.2700	  534.00	  578.80	-1783.05	  366.09
     49.3700	  576.00	  605.58	-1767.83	  366.03
     49.4700	  639.00	  649.83	-1749.08	  365.97
     49.5700	  678.00	  723.38	-1783.63	  365.91
     49.6700	  739.00	  841.47	-1840.72	  365.85
     49.7700	  980.00	 1018.93	-1777.18	  365.80
     49.8700	 1209.00	 1262.97	-1792.22	  365.75
     49.9700	 1452.00	 1563.64	-1849.89	  365.70
     50.0700	 1902.00	 1883.88	-1720.13	  365.65
     50.1700	 2223.00	 2154.17	-1669.42	  365.60
     50.2700	 2363.00	 2285.18	-1660.43	  365.56
     50.3700	 2279.00	 2219.46	-1678.71	  365.52
     50.4700	 2082.00	 1985.65	-1641.90	  365.47
     50.5700	 1628.00	 1673.18	-1783.43	  365.43
     50.6700	 1248.00	 1364.10	-1854.35	  365.40
     50.7700	 1022.00	 1106.11	-1822.36	  365.36
     50.8700	  783.00	  916.28	-1871.53	  365.33
     50.9700	  747.00	  791.14	-1782.39	  365.29
     51.0700	  649.00	  715.12	-1804.37	  365.26
     51.1700	  656.00	  670.45	-1752.70	  365.23
     51.2700	  610.00	  641.77	-1770.02	  365.21
     51.3700	  612.00	  619.51	-1745.76	  365.18
     51.4700	  557.00	  600.01	-1781.26	  365.16
     51.5700	  575.00	  582.90	-1746.15	  365.14
     51.6700	  587.00	  568.59	-1719.84	  365.11
     51.7700	  545.00	  557.37	-1750.62	  365.10
     51.8700	  565.00	  549.11	-1722.36	  365.08
     51.9700	  564.00	  543.48	-1717.73	  365.06
     52.0700	  539.00	  540.01	-1739.26	  365.05
     52.1700	  548.00	  538.30	-1728.55	  365.04
     52.2700	  582.00	  538.12	-1694.37	  365.03
     52.3700	  540.00	  539.47	-1737.72	  365.02
     52.4700	  582.00	  542.72	-1698.97	  365.01
     52.5700	  611.00	  548.71	-1675.96	  365.01
     52.6700	  586.00	  559.09	-1711.34	  365.00
     52.7700	  575.00	  576.56	-1739.81	  365.00
     52.8700	  613.00	  604.96	-1730.21	  365.00
     52.9700	  657.00	  648.87	-1730.12	  365.00
     53.0700	  725.00	  712.45	-1725.70	  365.00
     53.1700	  823.00	  797.57	-1712.82	  365.01
     53.2700	  929.00	  901.36	-1710.61	  365.01
     53.3700	 1000.00	 1013.73	-1751.98	  365.02
     53.4700	 1125.00	 1115.26	-1728.51	  365.03
     53.5700	 1192.00	 1178.80	-1725.05	  365.04
     53.6700	 1175.00	 1181.09	-1744.34	  365.05
     53.7700	 1100.00	 1120.91	-1759.16	  365.06
     53.8700	 1017.00	 1020.65	-1741.90	  365.08
     53.9700	  871.00	  908.41	-1775.66	  365.09
     54.0700	  766.00	  804.29	-1776.54	  365.11
     54.1700	  711.00	  718.76	-1746.01	  365.13
     54.2700	  618.00	  654.88	-1775.13	  365.15
     54.3700	  598.00	  610.94	-1751.19	  365.17
     54.4700	  626.00	  582.76	-1695.01	  365.20
     54.5700	  582.00	  565.72	-1721.97	  365.22
     54.6700	  571.00	  555.89	-1723.14	  365.25
     54.7700	  506.00	  550.52	-1782.77	  365.28
     54.8700	  575.00	  547.90	-1711.15	  365.31
     54.9700	  532.00	  547.09	-1753.34	  365.34
     55.0700	  559.00	  547.64	-1726.89	  365.37
     55.1700	  616.00	  549.35	-1671.60	  365.41
     55.2700	  556.00	  552.20	-1734.45	  365.44
     55.3700	  584.00	  556.25	-1710.50	  365.48
     55.4700	  555.00	  561.70	-1744.95	  365.52
     55.5700	  562.00	  568.92	-1745.17	  365.56
     55.6700	  583.00	  578.58	-1733.83	  365.60
     55.7700	  583.00	  592.04	-1747.29	  365.64
     55.8700	  626.00	  611.75	-1724.00	  365.68
     55.9700	  636.00	  642.12	-1744.37	  365.73
     56.0700	  617.00	  690.23	-1811.48	  365.77
     56.1700	  731.00	  766.24	-1773.49	  365.82
     56.2700	  809.00	  882.89	-1812.14	  365.87
     56.3700	 1000.00	 1052.69	-1790.94	  365.92
     56.4700	 1262.00	 1283.62	-1759.87	  365.97
     56.5700	 1447.00	 1573.01	-1864.26	  366.02
     56.6700	 1869.00	 1901.40	-1770.65	  366.08
     56.7700	 2176.00	 2226.94	-1789.19	  366.13
     56.8700	 2470.00	 2483.70	-1751.95	  366.19
     56.9700	 2532.00	 2596.87	-1803.12	  366.25
     57.0700	 2412.00	 2525.04	-1851.29	  366.31
     57.1700	 2329.00	 2294.98	-1704.23	  366.37
     57.2700	 1980.00	 1979.42	-1737.67	  366.43
     57.3700	 1607.00	 1649.42	-1780.67	  366.49
     57.4700	 1305.00	 1352.28	-1785.53	  366.55
     57.5700	 1085.00	 1111.91	-1765.16	  366.62
     57.6700	  961.00	  934.19	-1711.44	  366.68
     57.7700	  749.00	  813.33	-1802.58	  366.75
     57.8700	  739.00	  738.12	-1737.37	  366.82
     57.9700	  720.00	  696.89	-1715.14	  366.89
     58.0700	  696.00	  680.64	-1722.89	  366.96
     58.1700	  722.00	  683.86	-1700.11	  367.03
     58.2700	  763.00	  704.06	-1679.31	  367.10
     58.3700	  757.00	  740.40	-1721.65	  367.18
     58.4700	  811.00	  792.20	-1719.45	  367.25
     58.5700	  904.00	  857.39	-1691.64	  367.33
     58.6700	  981.00	  931.24	-1688.49	  367.40
     58.7700	 1103.00	 1006.12	-1641.37	  367.48
     58.8700	 1172.00	 1074.03	-1640.28	  367.56
     58.9700	 1217.00	 1129.87	-1651.12	  367.64
     59.0700	 1325.00	 1170.41	-1583.66	  367.72
     59.1700	 1403.00	 1191.15	-1526.40	  367.80
     59.2700	 1329.00	 1189.45	-1598.70	  367.89
     59.3700	 1306.00	 1170.67	-1602.92	  367.97
     59.4700	 1245.00	 1146.83	-1640.08	  368.06
     59.5700	 1242.00	 1129.09	-1625.34	  368.14
     59.6700	 1151.00	 1124.48	-1711.73	  368.23
     59.7700	 1230.00	 1138.21	-1646.46	  368.32
     59.8700	 1277.00	 1175.56	-1636.81	  368.41
     59.9700	 1349.00	 1238.70	-1627.95	  368.50
     60.0700	 1360.00	 1321.75	-1700.00	  368.59
     60.1700	 1429.00	 1408.31	-1717.56	  368.68
     60.2700	 1481.00	 1472.29	-1729.54	  368.77
     60.3700	 1575.00	 1485.54	-1648.79	  368.86
     60.4700	 1518.00	 1433.73	-1653.98	  368.96
     60.5700	 1369.00	 1326.98	-1696.23	  369.05
     60.6700	 1268.00	 1190.94	-1661.19	  369.15
     60.7700	 1099.00	 1050.97	-1690.22	  369.24
     60.8700	  894.00	  924.79	-1769.04	  369.34
     60.9700	  777.00	  822.22	-1783.47	  369.44
     61.0700	  741.00	  746.91	-1744.16	  369.54
     61.1700	  708.00	  698.38	-1728.63	  369.64
     61.2700	  726.00	  674.50	-1686.75	  369.74
     61.3700	  654.00	  673.38	-1757.63	  369.84
     61.4700	  671.00	  694.63	-1761.88	  369.94
     61.5700	  731.00	  739.32	-1746.57	  370.04
     61.6700	  779.00	  808.93	-1768.18	  370.14
     61.7700	  910.00	  903.53	-1731.78	  370.25
     61.8700	 1023.00	 1019.57	-1734.82	  370.35
     61.9700	 1093.00	 1148.06	-1793.31	  370.46
     62.0700	 1237.00	 1272.96	-1774.21	  370.56
     62.1700	 1252.00	 1371.17	-1857.42	  370.67
     62.2700	 1312.00	 1417.30	-1843.55	  370.78
     62.3700	 1365.00	 1396.30	-1769.55	  370.88
     62.4700	 1216.00	 1314.39	-1836.64	  370.99
     62.5700	 1131.00	 1194.33	-1801.58	  371.10
     62.6700	  984.00	 1061.32	-1815.57	  371.21
     62.7700	  861.00	  934.38	-1811.63	  371.32
     62.8700	  769.00	  825.05	-1794.30	  371.43
     62.9700	  722.00	  738.32	-1754.57	  371.54
     63.0700	  605.00	  674.34	-1807.59	  371.65
     63.1700	  627.00	  630.13	-1741.38	  371.76
     63.2700	  565.00	  601.38	-1774.63	  371.88
     63.3700	  554.00	  583.90	-1768.15	  371.99
     63.4700	  557.00	  574.33	-1755.58	  372.10
     63.5700	  547.00	  570.62	-1761.87	  372.22
     63.6700	  587.00	  571.93	-1723.18	  372.33
     63.7700	  613.00	  578.44	-1703.69	  372.45
     63.8700	  600.00	  591.15	-1729.40	  372.56
     63.9700	  655.00	  611.48	-1694.73	  372.68
     64.0700	  657.00	  640.86	-1722.11	  372.79
     64.1700	  743.00	  680.12	-1675.37	  372.91
     64.2700	  741.00	  728.91	-1726.16	  373.03
     64.3700	  814.00	  785.03	-1709.28	  373.14
     64.4700	  907.00	  843.69	-1674.94	  373.26
     64.5700	  992.00	  897.56	-1643.81	  373.38
     64.6700	 1033.00	  937.62	-1642.87	  373.50
     64.7700	 1034.00	  956.19	-1660.44	  373.62
     64.8700	 1049.00	  950.43	-1639.68	  373.73
     64.9700	  919.00	  922.64	-1741.89	  373.85
     65.0700	  870.00	  880.43	-1748.68	  373.97
     65.1700	  833.00	  831.57	-1736.82	  374.09
     65.2700	  751.00	  782.78	-1770.03	  374.21
     65.3700	  729.00	  738.47	-1747.72	  374.33
     65.4700	  726.00	  700.26	-1712.51	  374.45
     65.5700	  648.00	  668.03	-1758.28	  374.57
     65.6700	  661.00	  641.15	-1718.40	  374.69
     65.7700	  607.00	  619.17	-1750.42	  374.81
     65.8700	  605.00	  601.74	-1734.99	  374.93
     65.9700	  576.00	  588.39	-1750.64	  375.06
     66.0700	  563.00	  578.63	-1753.88	  375.18
     66.1700	  582.00	  571.98	-1728.23	  375.30
     66.2700	  549.00	  568.06	-1757.31	  375.42
     66.3700	  538.00	  566.53	-1766.78	  375.54
     66.4700	  549.00	  567.33	-1756.58	  375.66
     66.5700	  530.00	  570.17	-1778.42	  375.78
     66.6700	  571.00	  575.12	-1742.37	  375.91
     66.7700	  610.00	  582.86	-1711.11	  376.03
     66.8700	  555.00	  594.51	-1777.76	  376.15
     66.9700	  621.00	  612.09	-1729.34	  376.27
     67.0700	  633.00	  638.79	-1744.04	  376.39
     67.1700	  663.00	  679.23	-1754.48	  376.52
     67.2700	  707.00	  739.54	-1770.79	  376.64
     67.3700	  773.00	  826.56	-1791.81	  376.76
     67.4700	  982.00	  947.16	-1703.41	  376.88
     67.5700	 1084.00	 1106.12	-1760.37	  377.00
     67.6700	 1338.00	 1303.98	-1704.23	  377.13
     67.7700	 1548.00	 1534.78	-1725.03	  377.25
     67.8700	 1756.00	 1784.07	-1766.32	  377.37
     67.9700	 2103.00	 2027.29	-1662.54	  377.49
     68.0700	 2285.00	 2229.83	-1683.08	  377.61
     68.1700	 2324.00	 2352.04	-1766.29	  377.73
     68.2700	 2317.00	 2363.77	-1785.02	  377.85
     68.3700	 2311.00	 2261.83	-1689.08	  377.98
     68.4700	 2073.00	 2072.21	-1737.46	  378.10
     68.5700	 1815.00	 1834.24	-1757.49	  378.22
     68.6700	 1610.00	 1584.31	-1712.56	  378.34
     68.7700	 1364.00	 1348.85	-1723.10	  378.46
     68.8700	 1136.00	 1144.26	-1746.51	  378.58
     68.9700	  926.00	  978.01	-1790.26	  378.70
     69.0700	  820.00	  850.70	-1768.95	  378.82
     69.1700	  762.00	  758.10	-1734.35	  378.94
     69.2700	  701.00	  693.67	-1730.92	  379.05
     69.3700	  666.00	  650.31	-1722.56	  379.17
     69.4700	  634.00	  621.74	-1725.99	  379.29
     69.5700	  601.00	  602.84	-1740.09	  379.41
     69.6700	  596.00	  590.43	-1732.68	  379.53
     69.7700	  555.00	  582.05	-1765.30	  379.65
     69.8700	  569.00	  576.27	-1745.52	  379.76
     69.9700	  559.00	  572.29	-1751.54	  379.88
     70.0700	  548.00	  569.66	-1759.91	  380.00
     70.1700	  580.00	  568.16	-1726.41	  380.11
     70.2700	  584.00	  567.70	-1721.95	  380.23
     70.3700	  554.00	  568.30	-1752.55	  380.34
     70.4700	  556.00	  570.12	-1752.37	  380.46
     70.5700	  589.00	  573.48	-1722.73	  380.57
     70.6700	  542.00	  578.98	-1775.23	  380.69
     70.7700	  606.00	  587.64	-1719.89	  380.80
     70.8700	  629.00	  601.04	-1710.29	  380.91
     70.9700	  582.00	  621.53	-1777.78	  381.03
     71.0700	  588.00	  653.18	-1803.43	  381.14
     71.1700	  677.00	  698.13	-1759.38	  381.25
     71.2700	  739.00	  761.59	-1760.84	  381.36
     71.3700	  872.00	  847.57	-1713.82	  381.47
     71.4700	  966.00	  958.70	-1730.95	  381.58
     71.5700	 1007.00	 1095.12	-1826.37	  381.69
     71.6700	 1272.00	 1253.10	-1719.35	  381.80
     71.7700	 1377.00	 1424.09	-1785.34	  381.91
     71.8700	 1599.00	 1594.03	-1733.28	  382.02
     71.9700	 1684.00	 1743.04	-1797.29	  382.12
     72.0700	 1865.00	 1847.38	-1720.63	  382.23
     72.1700	 1816.00	 1885.71	-1807.96	  382.33
     72.2700	 1814.00	 1848.99	-1773.24	  382.44
     72.3700	 1724.00	 1745.83	-1760.08	  382.54
     72.4700	 1684.00	 1597.42	-1651.67	  382.65
     72.5700	 1425.00	 1427.51	-1740.76	  382.75
     72.6700	 1269.00	 1256.06	-1725.31	  382.85
     72.7700	 1126.00	 1097.29	-1709.54	  382.96
     72.8700	  968.00	  959.72	-1729.97	  383.06
     72.9700	  857.00	  847.13	-1728.38	  383.16
     73.0700	  800.00	  759.45	-1697.70	  383.26
     73.1700	  683.00	  694.13	-1749.38	  383.36
     73.2700	  712.00	  647.23	-1673.48	  383.46
     73.3700	  694.00	  614.49	-1658.74	  383.55
     73.4700	  653.00	  592.03	-1677.28	  383.65
     73.5700	  648.00	  576.18	-1666.43	  383.75
     73.6700	  588.00	  565.66	-1715.91	  383.84
     73.7700	  603.00	  558.35	-1693.60	  383.94
     73.8700	  568.00	  553.24	-1723.49	  384.03
     73.9700	  594.00	  549.70	-1693.95	  384.12
     74.0700	  526.00	  547.35	-1759.60	  384.21
     74.1700	  555.00	  545.93	-1729.18	  384.31
     74.2700	  584.00	  545.23	-1699.48	  384.40
     74.3700	  575.00	  545.05	-1708.30	  384.48
     74.4700	  669.00	  545.17	-1614.42	  384.57
     74.5700	  608.00	  545.32	-1675.57	  384.66
     74.6700	  651.00	  545.22	-1632.47	  384.75
     74.7700	  595.00	  544.63	-1687.88	  384.83
     74.8700	  616.00	  543.45	-1665.70	  384.92
     74.9700	  666.00	  541.78	-1614.03	  385.00
     75.0700	  600.00	  539.89	-1678.14	  385.08
     75.1700	  593.00	  538.12	-1683.37	  385.17
     75.2700	  586.00	  536.82	-1689.07	  385.25
     75.3700	  594.00	  536.37	-1680.62	  385.33
     75.4700	  594.00	  537.16	-1681.41	  385.41
     75.5700	  521.00	  539.62	-1756.87	  385.48
     75.6700	  607.00	  544.15	-1675.40	  385.56
     75.7700	  560.00	  551.30	-1729.55	  385.64
     75.8700	  601.00	  561.37	-1698.62	  385.71
     75.9700	  604.00	  574.57	-1708.82	  385.79
     76.0700	  615.00	  590.83	-1714.08	  385.86
     76.1700	  603.00	  609.68	-1744.93	  385.93
     76.2700	  660.00	  630.14	-1708.39	  386.00
     76.3700	  613.00	  650.93	-1776.18	  386.07
     76.4700	  662.00	  669.97	-1746.22	  386.14
     76.5700	  646.00	  684.81	-1777.06	  386.21
     76.6700	  658.00	  692.99	-1773.24	  386.27
     76.7700	  673.00	  692.88	-1758.13	  386.34
     76.8700	  658.00	  684.44	-1764.69	  386.40
     76.9700	  674.00	  669.27	-1733.52	  386.47
     77.0700	  646.00	  649.81	-1742.06	  386.53
     77.1700	  621.00	  628.45	-1745.70	  386.59
     77.2700	  632.00	  607.29	-1713.54	  386.65
     77.3700	  540.00	  587.70	-1785.95	  386.71
     77.4700	  575.00	  570.59	-1733.84	  386.76
     77.5700	  506.00	  556.37	-1788.62	  386.82
     77.6700	  555.00	  545.07	-1728.32	  386.88
     77.7700	  559.00	  536.25	-1715.50	  386.93
     77.8700	  524.00	  529.90	-1744.15	  386.98
     77.9700	  526.00	  525.37	-1737.62	  387.03
     78.0700	  463.00	  522.21	-1797.46	  387.08
     78.1700	  485.00	  520.04	-1773.29	  387.13
     78.2700	  498.00	  518.55	-1758.80	  387.18
     78.3700	  508.00	  517.54	-1747.79	  387.22
     78.4700	  520.00	  516.85	-1735.10	  387.27
     78.5700	  503.00	  516.39	-1751.64	  387.31
     78.6700	  495.00	  516.11	-1759.36	  387.35
     78.7700	  555.00	  515.99	-1699.24	  387.40
     78.8700	  496.00	  516.01	-1758.26	  387.44
     78.9700	  498.00	  516.19	-1756.44	  387.47
     79.0700	  502.00	  516.55	-1752.80	  387.51
     79.1700	  467.00	  517.11	-1788.36	  387.55
     79.2700	  481.00	  517.92	-1775.17	  387.58
     79.3700	  504.00	  519.01	-1753.26	  387.61
     79.4700	  500.00	  520.44	-1758.69	  387.65
     79.5700	  539.00	  522.24	-1721.49	  387.68
     79.6700	  519.00	  524.49	-1743.74	  387.70
     79.7700	  494.00	  527.26	-1771.51	  387.73
     79.8700	  513.00	  530.65	-1755.90	  387.76
     79.9700	  515.00	  534.75	-1758.00	  387.78
     80.0700	  519.00	  539.70	-1758.95	  387.81
     80.1700	  569.00	  545.66	-1714.91	  387.83
     80.2700	  572.00	  552.83	-1719.08	  387.85
     80.3700	  552.00	  561.26	-1747.51	  387.87
     80.4700	  516.00	  571.61	-1793.86	  387.88
     80.5700	  550.00	  583.84	-1772.09	  387.90
     80.6700	  585.00	  597.97	-1751.22	  387.92
     80.7700	  586.00	  613.74	-1765.99	  387.93
     80.8700	  613.00	  630.61	-1755.86	  387.94
     80.9700	  696.00	  647.72	-1689.97	  387.95
     81.0700	  694.00	  664.03	-1708.28	  387.96
     81.1700	  698.00	  678.51	-1718.76	  387.97
     81.2700	  692.00	  690.33	-1736.58	  387.97
     81.3700	  752.00	  698.91	-1685.16	  387.98
     81.4700	  700.00	  703.90	-1742.15	  387.98
     81.5700	  760.00	  705.12	-1683.37	  387.98
     81.6700	  748.00	  702.57	-1692.82	  387.98
     81.7700	  753.00	  696.33	-1681.58	  387.98
     81.8700	  692.00	  686.62	-1732.87	  387.98
     81.9700	  711.00	  673.89	-1701.14	  387.97
     82.0700	  672.00	  658.96	-1725.21	  387.97
     82.1700	  681.00	  642.86	-1700.11	  387.96
     82.2700	  679.00	  626.56	-1685.81	  387.95
     82.3700	  647.00	  610.81	-1702.06	  387.94
     82.4700	  608.00	  596.10	-1726.35	  387.93
     82.5700	  555.00	  582.75	-1766.00	  387.91
     82.6700	  623.00	  570.99	-1686.24	  387.90
     82.7700	  556.00	  561.01	-1743.26	  387.88
     82.8700	  539.00	  552.90	-1752.15	  387.86
     82.9700	  549.00	  546.72	-1735.97	  387.84
     83.0700	  553.00	  542.44	-1727.69	  387.82
     83.1700	  569.00	  539.99	-1709.24	  387.80
     83.2700	  517.00	  539.27	-1760.52	  387.77
     83.3700	  493.00	  540.13	-1785.38	  387.74
     83.4700	  530.00	  542.36	-1750.61	  387.72
     83.5700	  490.00	  545.64	-1793.89	  387.69
     83.6700	  522.00	  549.76	-1766.01	  387.66
     83.7700	  545.00	  554.22	-1747.47	  387.62
     83.8700	  567.00	  558.59	-1729.84	  387.59
     83.9700	  539.00	  562.28	-1761.53	  387.55
     84.0700	  521.00	  564.73	-1781.98	  387.51
     84.1700	  531.00	  565.50	-1772.75	  387.47
     84.2700	  554.00	  564.37	-1748.62	  387.43
     84.3700	  554.00	  561.46	-1745.71	  387.39
     84.4700	  595.00	  557.14	-1700.39	  387.35
     84.5700	  537.00	  551.93	-1753.18	  387.30
     84.6700	  539.00	  546.31	-1745.56	  387.25
     84.7700	  546.00	  540.69	-1732.94	  387.20
     84.8700	  486.00	  535.39	-1787.64	  387.15
     84.9700	  534.00	  530.65	-1734.90	  387.10
     85.0700	  532.00	  526.60	-1732.85	  387.04
     85.1700	  526.00	  523.28	-1735.53	  386.99
     85.2700	  548.00	  520.67	-1710.92	  386.93
     85.3700	  496.00	  518.73	-1760.98	  386.87
     85.4700	  535.00	  517.37	-1720.62	  386.81
     85.5700	  543.00	  516.52	-1711.77	  386.75
     85.6700	  493.00	  516.11	-1761.36	  386.68
     85.7700	  519.00	  516.09	-1735.34	  386.62
     85.8700	  505.00	  516.45	-1749.70	  386.55
     85.9700	  486.00	  517.23	-1769.48	  386.48
     86.0700	  515.00	  518.49	-1741.74	  386.41
     86.1700	  508.00	  520.33	-1750.58	  386.34
     86.2700	  484.00	  522.90	-1777.15	  386.26
     86.3700	  534.00	  526.34	-1730.59	  386.19
     86.4700	  492.00	  530.83	-1777.08	  386.11
     86.5700	  548.00	  536.53	-1726.78	  386.03
     86.6700	  520.00	  543.55	-1761.80	  385.95
     86.7700	  559.00	  551.93	-1731.18	  385.86
     86.8700	  578.00	  561.63	-1721.88	  385.78
     86.9700	  611.00	  572.44	-1699.69	  385.69
     87.0700	  592.00	  584.04	-1730.29	  385.61
     87.1700	  602.00	  595.91	-1732.16	  385.52
     87.2700	  620.00	  607.37	-1725.62	  385.42
     87.3700	  576.00	  617.58	-1779.83	  385.33
     87.4700	  640.00	  625.61	-1723.86	  385.24
     87.5700	  619.00	  630.60	-1749.85	  385.14
     87.6700	  635.00	  631.97	-1735.22	  385.04
     87.7700	  621.00	  629.63	-1746.88	  384.94
     87.8700	  685.00	  624.01	-1677.26	  384.84
     87.9700	  635.00	  615.93	-1719.18	  384.74
     88.0700	  617.00	  606.36	-1727.61	  384.63
     88.1700	  618.00	  595.84	-1716.09	  384.53
     88.2700	  639.00	  586.03	-1685.28	  384.42
     88.3700	  555.00	  577.22	-1760.47	  384.31
     88.4700	  565.00	  569.95	-1743.20	  384.20
     88.5700	  568.00	  564.58	-1734.83	  384.08
     88.6700	  566.00	  561.28	-1733.53	  383.97
     88.7700	  615.00	  560.06	-1683.31	  383.85
     88.8700	  598.00	  560.74	-1700.99	  383.73
     88.9700	  537.00	  563.04	-1764.29	  383.61
     89.0700	  543.00	  566.52	-1761.77	  383.49
     89.1700	  612.00	  570.68	-1696.93	  383.37
     89.2700	  601.00	  574.93	-1712.18	  383.24
     89.3700	  614.00	  578.61	-1702.86	  383.12
     89.4700	  620.00	  581.13	-1699.38	  382.99
     89.5700	  591.00	  581.99	-1729.24	  382.86
     89.6700	  618.00	  580.91	-1701.16	  382.73
     89.7700	  553.00	  577.94	-1763.19	  382.59
     89.8700	  549.00	  573.37	-1762.62	  382.46
     89.9700	  552.00	  567.66	-1753.91	  382.32
     90.0700	  553.00	  561.29	-1746.54	  382.18
     90.1700	  547.00	  554.71	-1745.96	  382.04
     90.2700	  535.00	  548.28	-1751.53	  381.90
     90.3700	  540.00	  542.30	-1740.55	  381.76
     90.4700	  480.00	  536.96	-1795.21	  381.61
     90.5700	  525.00	  532.37	-1745.62	  381.46
     90.6700	  479.00	  528.59	-1787.84	  381.32
     90.7700	  509.00	  525.61	-1754.86	  381.17
     90.8700	  472.00	  523.37	-1789.62	  381.02
     90.9700	  480.00	  521.81	-1780.06	  380.86
     91.0700	  502.00	  520.85	-1757.10	  380.71
     91.1700	  521.00	  520.44	-1737.69	  380.55
     91.2700	  522.00	  520.51	-1736.76	  380.39
     91.3700	  523.00	  521.07	-1736.32	  380.23
     91.4700	  464.00	  522.13	-1796.38	  380.07
     91.5700	  510.00	  523.75	-1752.00	  379.91
     91.6700	  490.00	  526.03	-1774.28	  379.75
     91.7700	  489.00	  529.10	-1778.35	  379.58
     91.8700	  527.00	  533.11	-1744.36	  379.41
     91.9700	  479.00	  538.26	-1797.51	  379.24
     92.0700	  499.00	  544.72	-1783.97	  379.07
     92.1700	  498.00	  552.68	-1792.93	  378.90
     92.2700	  523.00	  562.29	-1777.54	  378.73
     92.3700	  571.00	  573.63	-1740.88	  378.55
     92.4700	  517.00	  586.74	-1807.99	  378.38
     92.5700	  605.00	  601.53	-1734.78	  378.20
     92.6700	  606.00	  617.84	-1750.09	  378.02
     92.7700	  600.00	  635.35	-1773.60	  377.84
     92.8700	  690.00	  653.63	-1701.88	  377.65
     92.9700	  649.00	  672.11	-1761.36	  377.47
     93.0700	  672.00	  690.13	-1756.38	  377.28
     93.1700	  726.00	  707.04	-1719.29	  377.10
     93.2700	  723.00	  722.31	-1737.56	  376.91
     93.3700	  767.00	  735.73	-1706.98	  376.72
     93.4700	  764.00	  747.12	-1721.37	  376.53
     93.5700	  752.00	  757.45	-1743.70	  376.33
     93.6700	  716.00	  766.88	-1789.13	  376.14
     93.7700	  798.00	  775.86	-1716.11	  375.94
     93.8700	  860.00	  784.68	-1662.93	  375.75
     93.9700	  799.00	  793.59	-1732.84	  375.55
     94.0700	  871.00	  802.85	-1670.10	  375.35
     94.1700	  851.00	  812.79	-1700.04	  375.15
     94.2700	  799.00	  823.75	-1763.00	  374.94
     94.3700	  862.00	  835.87	-1712.12	  374.74
     94.4700	  865.00	  849.03	-1722.28	  374.53
     94.5700	  886.00	  862.67	-1714.92	  374.33
     94.6700	  945.00	  875.82	-1669.07	  374.12
     94.7700	  897.00	  887.12	-1728.37	  373.91
     94.8700	  942.00	  894.99	-1691.24	  373.70
     94.9700	  952.00	  897.86	-1684.11	  373.48
     95.0700	  867.00	  894.55	-1765.80	  373.27
     95.1700	  907.00	  884.60	-1715.85	  373.06
     95.2700	  892.00	  868.45	-1714.70	  372.84
     95.3700	  896.00	  847.30	-1689.55	  372.62
     95.4700	  832.00	  822.83	-1729.08	  372.40
     95.5700	  774.00	  796.92	-1761.17	  372.18
     95.6700	  721.00	  771.42	-1788.67	  371.96
     95.7700	  736.00	  748.08	-1750.33	  371.74
     95.8700	  767.00	  728.47	-1699.72	  371.52
     95.9700	  722.00	  714.02	-1730.27	  371.29
     96.0700	  733.00	  705.98	-1711.23	  371.07
     96.1700	  715.00	  705.42	-1728.67	  370.84
     96.2700	  706.00	  713.23	-1745.48	  370.61
     96.3700	  711.00	  730.10	-1757.35	  370.38
     96.4700	  779.00	  756.52	-1715.77	  370.15
     96.5700	  804.00	  792.67	-1726.92	  369.92
     96.6700	  901.00	  838.42	-1675.67	  369.69
     96.7700	  894.00	  893.22	-1737.47	  369.45
     96.8700	  930.00	  956.08	-1764.33	  369.22
     96.9700	  970.00	 1025.45	-1793.70	  368.98
     97.0700	 1047.00	 1099.22	-1790.47	  368.74
     97.1700	 1103.00	 1174.66	-1809.91	  368.50
     97.2700	 1239.00	 1248.43	-1747.68	  368.27
     97.3700	 1316.00	 1316.66	-1738.91	  368.03
     97.4700	 1395.00	 1375.13	-1718.38	  367.78
     97.5700	 1350.00	 1419.65	-1807.90	  367.54
     97.6700	 1407.00	 1446.69	-1777.94	  367.30
     97.7700	 1459.00	 1454.12	-1733.37	  367.05
     97.8700	 1449.00	 1441.69	-1730.94	  366.81
     97.9700	 1344.00	 1411.10	-1805.35	  366.56
     98.0700	 1334.00	 1365.47	-1769.72	  366.32
     98.1700	 1263.00	 1308.73	-1783.98	  366.07
     98.2700	 1285.00	 1245.00	-1698.25	  365.82
     98.3700	 1167.00	 1178.20	-1749.45	  365.57
     98.4700	 1093.00	 1111.91	-1757.16	  365.32
     98.5700	  974.00	 1049.20	-1813.45	  365.07
     98.6700	  997.00	  992.68	-1733.93	  364.82
     98.7700	  988.00	  944.50	-1694.75	  364.57
     98.8700	  909.00	  906.35	-1735.60	  364.31
     98.9700	  856.00	  879.59	-1761.84	  364.06
     99.0700	  841.00	  865.21	-1762.46	  363.80
     99.1700	  860.00	  863.89	-1742.14	  363.55
     99.2700	  868.00	  876.05	-1746.30	  363.29
     99.3700	  918.00	  901.85	-1722.10	  363.03
     99.4700	  947.00	  941.18	-1732.43	  362.78
     99.5700	 1014.00	  993.65	-1717.90	  362.52
     99.6700	 1053.00	 1058.50	-1743.75	  362.26
     99.7700	 1103.00	 1134.74	-1769.99	  362.00
     99.8700	 1185.00	 1220.80	-1774.05	  361.74
     99.9700	 1332.00	 1314.64	-1720.89	  361.48
    100.0700	 1376.00	 1413.63	-1775.88	  361.22
    100.1700	 1507.00	 1514.58	-1745.83	  360.96
    100.2700	 1627.00	 1613.83	-1725.08	  360.69
    100.3700	 1797.00	 1707.43	-1648.68	  360.43
    100.4700	 1874.00	 1791.56	-1655.81	  360.17
    100.5700	 1845.00	 1862.95	-1756.20	  359.90
    100.6700	 1918.00	 1919.22	-1739.47	  359.64
    100.7700	 1977.00	 1958.82	-1720.07	  359.37
    100.8700	 2030.00	 1980.84	-1689.09	  359.11
    100.9700	 1979.00	 1984.74	-1743.99	  358.84
    101.0700	 2017.00	 1970.33	-1691.58	  358.58
    101.1700	 1928.00	 1938.03	-1748.28	  358.31
    101.2700	 1833.00	 1889.19	-1794.44	  358.05
    101.3700	 1843.00	 1826.35	-1721.60	  357.78
    101.4700	 1730.00	 1753.14	-1761.39	  357.51
    101.5700	 1666.00	 1673.81	-1746.06	  357.25
    101.6700	 1541.00	 1592.65	-1789.90	  356.98
    101.7700	 1572.00	 1513.48	-1679.73	  356.71
    101.8700	 1447.00	 1439.43	-1730.68	  356.45
    101.9700	 1451.00	 1372.72	-1659.97	  356.18
    102.0700	 1342.00	 1314.68	-1710.93	  355.91
    102.1700	 1271.00	 1265.75	-1733.00	  355.64
    102.2700	 1225.00	 1225.59	-1738.84	  355.37
    102.3700	 1291.00	 1193.17	-1640.42	  355.11
    102.4700	 1156.00	 1166.84	-1749.09	  354.84
    102.5700	 1139.00	 1144.51	-1743.76	  354.57
    102.6700	 1025.00	 1123.87	-1837.12	  354.30
    102.7700	 1143.00	 1102.69	-1697.94	  354.04
    102.8700	 1087.00	 1079.10	-1730.35	  353.77
    102.9700	 1030.00	 1051.91	-1760.16	  353.50
    103.0700	  984.00	 1020.68	-1774.93	  353.23
    103.1700	  987.00	  985.68	-1736.93	  352.97
    103.2700	  926.00	  947.66	-1759.91	  352.70
    103.3700	  929.00	  907.67	-1716.92	  352.43
    103.4700	  853.00	  866.83	-1752.08	  352.16
    103.5700	  797.00	  826.21	-1767.46	  351.90
    103.6700	  795.00	  786.79	-1730.04	  351.63
    103.7700	  802.00	  749.37	-1685.62	  351.37
    103.8700	  715.00	  714.59	-1737.84	  351.10
    103.9700	  711.00	  682.91	-1710.16	  350.84
    104.0700	  633.00	  654.63	-1759.88	  350.57
    104.1700	  639.00	  629.86	-1729.11	  350.31
    104.2700	  637.00	  608.56	-1709.81	  350.04
    104.3700	  588.00	  590.57	-1740.82	  349.78
    104.4700	  585.00	  575.65	-1728.90	  349.52
    104.5700	  559.00	  563.50	-1742.75	  349.26
    104.6700	  577.00	  553.80	-1715.05	  348.99
    104.7700	  583.00	  546.20	-1701.45	  348.73
    104.8700	  560.00	  540.39	-1718.64	  348.47
    104.9700	  557.00	  536.09	-1717.34	  348.21
    105.0700	  513.00	  533.05	-1758.30	  347.95
    105.1700	  548.00	  531.06	-1721.31	  347.70
    105.2700	  613.00	  529.97	-1655.22	  347.44
    105.3700	  478.00	  529.67	-1789.92	  347.18
    105.4700	  555.00	  530.06	-1713.31	  346.93
    105.5700	  507.00	  531.13	-1762.38	  346.67
    105.6700	  557.00	  532.86	-1714.11	  346.42
    105.7700	  511.00	  535.25	-1762.50	  346.16
    105.8700	  560.00	  538.34	-1716.59	  345.91
    105.9700	  555.00	  542.17	-1725.42	  345.66
    106.0700	  539.00	  546.81	-1746.06	  345.41
    106.1700	  539.00	  552.29	-1751.54	  345.16
    106.2700	  559.00	  558.63	-1737.88	  344.91
    106.3700	  534.00	  565.83	-1770.08	  344.67
    106.4700	  572.00	  573.83	-1740.08	  344.42
    106.5700	  565.00	  582.55	-1755.80	  344.17
    106.6700	  616.00	  591.84	-1714.09	  343.93
    106.7700	  607.00	  601.52	-1732.77	  343.69
    106.8700	  610.00	  611.34	-1739.59	  343.45
    106.9700	  600.00	  621.06	-1759.31	  343.21
    107.0700	  655.00	  630.36	-1713.61	  342.97
    107.1700	  605.00	  638.91	-1772.16	  342.73
    107.2700	  616.00	  646.42	-1768.67	  342.50
    107.3700	  644.00	  652.63	-1746.88	  342.26
    107.4700	  682.00	  657.39	-1713.64	  342.03
    107.5700	  689.00	  660.70	-1709.95	  341.80
    107.6700	  676.00	  662.68	-1724.93	  341.57
    107.7700	  688.00	  663.61	-1713.86	  341.34
    107.8700	  692.00	  663.82	-1710.07	  341.12
    107.9700	  645.00	  663.70	-1756.95	  340.89
    108.0700	  648.00	  663.60	-1753.85	  340.67
    108.1700	  639.00	  663.81	-1763.06	  340.45
    108.2700	  698.00	  664.55	-1704.80	  340.23
    108.3700	  703.00	  665.93	-1701.18	  340.01
    108.4700	  689.00	  667.98	-1717.23	  339.79
    108.5700	  648.00	  670.59	-1760.84	  339.58
    108.6700	  694.00	  673.57	-1717.82	  339.37
    108.7700	  689.00	  676.64	-1725.89	  339.16
    108.8700	  664.00	  679.44	-1753.69	  338.95
    108.9700	  661.00	  681.56	-1758.81	  338.74
    109.0700	  650.00	  682.57	-1770.82	  338.54
    109.1700	  676.00	  682.10	-1744.35	  338.34
    109.2700	  729.00	  679.86	-1689.11	  338.14
    109.3700	  696.00	  675.72	-1717.97	  337.94
    109.4700	  658.00	  669.71	-1749.96	  337.75
    109.5700	  656.00	  662.00	-1744.25	  337.55
    109.6700	  643.00	  652.87	-1748.12	  337.36
    109.7700	  679.00	  642.67	-1701.92	  337.17
    109.8700	  637.00	  631.77	-1733.02	  336.99
    109.9700	  591.00	  620.50	-1767.75	  336.80
    110.0700	  589.00	  609.22	-1758.47	  336.62
    110.1700	  618.00	  598.22	-1718.47	  336.45
    110.2700	  619.00	  587.73	-1706.98	  336.27
    110.3700	  556.00	  577.95	-1760.20	  336.10
    110.4700	  620.00	  569.03	-1687.28	  335.93
    110.5700	  592.00	  561.09	-1707.34	  335.76
    110.6700	  562.00	  554.18	-1730.43	  335.59
    110.7700	  528.00	  548.32	-1758.57	  335.43
    110.8700	  564.00	  543.50	-1717.75	  335.27
    110.9700	  528.00	  539.67	-1749.92	  335.11
    111.0700	  495.00	  536.79	-1780.04	  334.96
    111.1700	  575.00	  534.76	-1698.01	  334.81
    111.2700	  512.00	  533.51	-1759.76	  334.66
    111.3700	  543.00	  532.95	-1728.20	  334.52
    111.4700	  561.00	  532.98	-1710.23	  334.38
    111.5700	  521.00	  533.52	-1750.77	  334.24
    111.6700	  551.00	  534.51	-1721.76	  334.10
    111.7700	  522.00	  535.87	-1752.12	  333.97
    111.8700	  524.00	  537.55	-1751.80	  333.84
    111.9700	  516.00	  539.50	-1761.75	  333.72
    112.0700	  552.00	  541.69	-1727.94	  333.60
    112.1700	  523.00	  544.10	-1759.35	  333.48
    112.2700	  575.00	  546.71	-1709.96	  333.36
    112.3700	  553.00	  549.54	-1734.79	  333.25
    112.4700	  576.00	  552.60	-1714.85	  333.14
    112.5700	  555.00	  555.93	-1739.18	  333.04
    112.6700	  543.00	  559.56	-1754.81	  332.94
    112.7700	  562.00	  563.55	-1739.80	  332.84
    112.8700	  583.00	  567.97	-1723.22	  332.75
    112.9700	  539.00	  572.92	-1772.17	  332.66
    113.0700	  597.00	  578.49	-1719.74	  332.57
    113.1700	  595.00	  584.84	-1728.09	  332.49
    113.2700	  594.00	  592.16	-1736.41	  332.41
    113.3700	  609.00	  600.67	-1729.92	  332.34
    113.4700	  599.00	  610.68	-1749.93	  332.27
    113.5700	  635.00	  622.57	-1725.82	  332.20
    113.6700	  677.00	  636.84	-1698.09	  332.14
    113.7700	  649.00	  654.06	-1743.31	  332.09
    113.8700	  727.00	  675.01	-1686.26	  332.03
    113.9700	  759.00	  700.55	-1679.80	  331.98
    114.0700	  723.00	  731.80	-1747.05	  331.94
    114.1700	  819.00	  770.03	-1689.28	  331.90
    114.2700	  841.00	  816.70	-1713.95	  331.86
    114.3700	  863.00	  873.52	-1748.77	  331.83
    114.4700	  988.00	  942.36	-1692.61	  331.81
    114.5700	 1047.00	 1025.28	-1716.53	  331.79
    114.6700	 1132.00	 1124.45	-1730.70	  331.77
    114.7700	 1245.00	 1242.08	-1735.33	  331.76
    114.8700	 1416.00	 1380.43	-1702.68	  331.75
    114.9700	 1603.00	 1541.54	-1676.79	  331.75
    115.0700	 1840.00	 1727.31	-1625.56	  331.75
    115.1700	 1990.00	 1939.16	-1687.41	  331.76
    115.2700	 2230.00	 2178.04	-1686.29	  331.77
    115.3700	 2536.00	 2444.29	-1646.54	  331.79
    115.4700	 2770.00	 2737.28	-1705.53	  331.81
    115.5700	 3199.00	 3055.63	-1594.88	  331.84
    115.6700	 3454.00	 3396.80	-1681.05	  331.87
    115.7700	 3711.00	 3757.10	-1784.35	  331.91
    115.8700	 4126.00	 4131.87	-1744.12	  331.95
    115.9700	 4461.00	 4515.02	-1792.27	  332.00
    116.0700	 4830.00	 4899.56	-1807.81	  332.06
    116.1700	 5212.00	 5277.24	-1803.49	  332.12
    116.2700	 5468.00	 5638.81	-1909.06	  332.18
    116.3700	 5990.00	 5974.42	-1722.67	  332.25
    116.4700	 6181.00	 6273.55	-1830.80	  332.33
    116.5700	 6526.00	 6525.87	-1738.12	  332.41
    116.6700	 6630.00	 6721.65	-1829.90	  332.50
    116.7700	 6692.00	 6852.71	-1898.96	  332.60
    116.8700	 6834.00	 6913.36	-1817.61	  332.70
    116.9700	 6953.00	 6900.98	-1686.23	  332.80
    117.0700	 6720.00	 6816.44	-1834.69	  332.91
    117.1700	 6598.00	 6663.98	-1804.23	  333.03
    117.2700	 6345.00	 6450.67	-1843.92	  333.16
    117.3700	 6152.00	 6185.42	-1771.67	  333.29
    117.4700	 5752.00	 5878.38	-1864.63	  333.43
    117.5700	 5423.00	 5539.87	-1855.12	  333.57
    117.6700	 5159.00	 5180.03	-1759.28	  333.72
    117.7700	 4763.00	 4808.40	-1783.65	  333.88
    117.8700	 4541.00	 4433.41	-1630.66	  334.04
    117.9700	 4108.00	 4062.67	-1692.92	  334.21
    118.0700	 3848.00	 3702.43	-1592.68	  334.39
    118.1700	 3488.00	 3357.92	-1608.17	  334.57
    118.2700	 3165.00	 3033.22	-1606.47	  334.76
    118.3700	 2788.00	 2731.15	-1681.40	  334.96
    118.4700	 2538.00	 2453.66	-1653.91	  335.16
    118.5700	 2249.00	 2201.64	-1690.89	  335.37
    118.6700	 1991.00	 1975.27	-1722.52	  335.59
    118.7700	 1735.00	 1774.04	-1777.29	  335.81
    118.8700	 1589.00	 1596.84	-1746.09	  336.05
    118.9700	 1454.00	 1442.22	-1726.47	  336.29
    119.0700	 1294.00	 1308.37	-1752.62	  336.53
    119.1700	 1155.00	 1193.39	-1776.64	  336.79
    119.2700	 1123.00	 1095.25	-1710.50	  337.05
    119.3700	  992.00	 1011.93	-1758.18	  337.32
    119.4700	  876.00	  941.52	-1803.77	  337.59
    119.5700	  828.00	  882.19	-1792.44	  337.88
    119.6700	  824.00	  832.33	-1746.58	  338.17
    119.7700	  754.00	  790.48	-1774.73	  338.47
    119.8700	  759.00	  755.34	-1734.59	  338.78
    119.9700	  676.00	  725.82	-1788.07	  339.09
    120.0700	  736.00	  700.99	-1703.24	  339.42
    120.1700	  646.00	  680.08	-1772.33	  339.75
    120.2700	  658.00	  662.44	-1742.69	  340.09
    120.3700	  616.00	  647.55	-1769.80	  340.44
    120.4700	  589.00	  634.97	-1784.22	  340.80
    120.5700	  631.00	  624.36	-1731.61	  341.16
    120.6700	  575.00	  615.45	-1778.70	  341.53
    120.7700	  593.00	  608.01	-1753.26	  341.92
    120.8700	  565.00	  601.87	-1775.12	  342.31
    120.9700	  565.00	  596.87	-1770.12	  342.71
    121.0700	  572.00	  592.90	-1759.15	  343.11
    121.1700	  563.00	  589.88	-1765.13	  343.53
    121.2700	  593.00	  587.71	-1732.96	  343.96
    121.3700	  541.00	  586.33	-1783.58	  344.39
    121.4700	  542.00	  585.68	-1781.93	  344.83
    121.5700	  553.00	  585.70	-1770.95	  345.29
    121.6700	  593.00	  586.34	-1731.59	  345.75
    121.7700	  568.00	  587.54	-1757.79	  346.22
    121.8700	  580.00	  589.25	-1747.50	  346.70
    121.9700	  563.00	  591.40	-1766.65	  347.19
    122.0700	  635.00	  593.92	-1697.17	  347.69
    122.1700	  578.00	  596.75	-1757.00	  348.20
    122.2700	  616.00	  599.81	-1722.06	  348.72
    122.3700	  577.00	  603.01	-1764.26	  349.24
    122.4700	  655.00	  606.27	-1689.52	  349.78
    122.5700	  589.00	  609.48	-1758.73	  350.33
    122.6700	  642.00	  612.55	-1708.80	  350.89
    122.7700	  633.00	  615.38	-1720.63	  351.46
    122.8700	  639.00	  617.88	-1717.13	  352.03
    122.9700	  677.00	  619.97	-1681.22	  352.62
    123.0700	  609.00	  621.58	-1750.83	  353.22
    123.1700	  602.00	  622.66	-1758.91	  353.83
    123.2700	  670.00	  623.17	-1691.42	  354.45
    123.3700	  657.00	  623.13	-1704.38	  355.08
    123.4700	  664.00	  622.53	-1696.78	  355.72
    123.5700	  657.00	  621.44	-1702.69	  356.37
    123.6700	  607.00	  619.89	-1751.14	  357.03
    123.7700	  627.00	  617.94	-1729.19	  357.70
    123.8700	  597.00	  615.66	-1756.91	  358.38
    123.9700	  664.00	  613.10	-1687.35	  359.08
    124.0700	  653.00	  610.33	-1695.58	  359.78
    124.1700	  632.00	  607.42	-1713.67	  360.50
    124.2700	  600.00	  604.42	-1742.67	  361.23
    124.3700	  603.00	  601.40	-1736.65	  361.96
    124.4700	  603.00	  598.40	-1733.65	  362.71
    124.5700	  577.00	  595.47	-1756.72	  363.48
    124.6700	  573.00	  592.64	-1757.89	  364.25
    124.7700	  561.00	  589.94	-1767.19	  365.03
    124.8700	  595.00	  587.42	-1730.67	  365.83
    124.9700	  614.00	  477.22	-1601.47	  366.64
    125.0700	  580.00	  478.04	-1738.25	  367.46
    125.1700	  568.00	  478.87	-1738.25	  368.29
    125.2700	  543.00	  479.72	-1738.25	  369.13
    125.3700	  529.00	  480.57	-1738.25	  369.99
    125.4700	  540.00	  481.44	-1738.25	  370.86
    125.5700	  548.00	  482.32	-1738.25	  371.74
    125.6700	  541.00	  483.22	-1738.25	  372.63
    125.7700	  552.00	  484.12	-1738.25	  373.54
    125.8700	  549.00	  485.04	-1738.25	  374.46
    125.9700	  508.00	  485.97	-1738.25	  375.39
    126.0700	  541.00	  486.91	-1738.25	  376.33
    126.1700	  600.00	  487.87	-1738.25	  377.29
    126.2700	  544.00	  488.84	-1738.25	  378.26
    126.3700	  569.00	  489.82	-1738.25	  379.24
    126.4700	  574.00	  490.82	-1738.25	  380.24
    126.5700	  575.00	  491.83	-1738.25	  381.25
    126.6700	  579.00	  492.85	-1738.25	  382.27
    126.7700	  626.00	  493.89	-1738.25	  383.30
    126.8700	  579.00	  494.94	-1738.25	  384.35
    126.9700	  574.00	  496.00	-1738.25	  385.42
    127.0700	  601.00	  497.07	-1738.25	  386.49
    127.1700	  580.00	  498.16	-1738.25	  387.58
    127.2700	  580.00	  499.27	-1738.25	  388.69
    127.3700	  628.00	  500.39	-1738.25	  389.80
    127.4700	  629.00	  501.52	-1738.25	  390.94
    127.5700	  651.00	  502.66	-1738.25	  392.08
    127.6700	  641.00	  503.82	-1738.25	  393.24
    127.7700	  655.00	  505.00	-1738.25	  394.42
    127.8700	  624.00	  506.19	-1738.25	  395.61
    127.9700	  664.00	  507.39	-1738.25	  396.81
    128.0700	  674.00	  508.61	-1738.25	  398.03
    128.1700	  732.00	  509.84	-1738.25	  399.26
    128.2700	  692.00	  511.09	-1738.25	  400.51
    128.3700	  756.00	  512.35	-1738.25	  401.77
    128.4700	  742.00	  513.63	-1738.25	  403.05
    128.5700	    0.00	  514.92	-1738.25	  404.34
    128.6700	    0.00	  516.23	-1738.25	  405.65
     12.3193	        	        	        	        	       0	(  0  0  2)	  0  1
     24.9228	        	        	        	        	       0	(  0  0  4)	  0  1
     28.3635	        	        	        	        	       0	(  1  0  0)	  0  1
     29.0620	        	        	        	        	       0	(  1  0  1)	  0  1
     31.0720	        	        	        	        	       0	(  1  0  2)	  0  1
     34.1861	        	        	        	        	       0	(  1  0  3)	  0  1
     37.8440	        	        	        	        	       0	(  0  0  6)	  0  1
     38.1707	        	        	        	        	       0	(  1  0  4)	  0  1
     42.8295	        	        	        	        	       0	(  1  0  5)	  0  1
     48.0235	        	        	        	        	       0	(  1  0  6)	  0  1
     50.3337	        	        	        	        	       0	(  1  1  0)	  0  1
     51.2901	        	        	        	        	       0	(  0  0  8)	  0  1
     52.0603	        	        	        	        	       0	(  1  1  2)	  0  1
     53.6651	        	        	        	        	       0	(  1  0  7)	  0  1
     57.0187	        	        	        	        	       0	(  1  1  4)	  0  1
     58.8450	        	        	        	        	       0	(  2  0  0)	  0  1
     59.2375	        	        	        	        	       0	(  2  0  1)	  0  1
     59.7079	        	        	        	        	       0	(  1  0  8)	  0  1
     60.4055	        	        	        	        	       0	(  2  0  2)	  0  1
     62.3231	        	        	        	        	       0	(  2  0  3)	  0  1
     64.7305	        	        	        	        	       0	(  1  1  6)	  0  1
     64.9532	        	        	        	        	       0	(  2  0  4)	  0  1
     65.5482	        	        	        	        	       0	(  0  0 10)	  0  1
     66.1381	        	        	        	        	       0	(  1  0  9)	  0  1
     68.2552	        	        	        	        	       0	(  2  0  5)	  0  1
     72.1921	        	        	        	        	       0	(  2  0  6)	  0  1
     72.9700	        	        	        	        	       0	(  1  0 10)	  0  1
     74.7922	        	        	        	        	       0	(  1  1  8)	  0  1
     76.7377	        	        	        	        	       0	(  2  0  7)	  0  1
     80.2460	        	        	        	        	       0	(  1  0 11)	  0  1
     81.0659	        	        	        	        	       0	(  0  0 12)	  0  1
     81.1310	        	        	        	        	       0	(  2  1  0)	  0  1
     81.4718	        	        	        	        	       0	(  2  1  1)	  0  1
     81.8817	        	        	        	        	       0	(  2  0  8)	  0  1
     82.4926	        	        	        	        	       0	(  2  1  2)	  0  1
     84.1887	        	        	        	        	       0	(  2  1  3)	  0  1
     86.5552	        	        	        	        	       0	(  2  1  4)	  0  1
     87.0970	        	        	        	        	       0	(  1  1 10)	  0  1
     87.6363	        	        	        	        	       0	(  2  0  9)	  0  1
     88.0422	        	        	        	        	       0	(  1  0 12)	  0  1
     89.5902	        	        	        	        	       0	(  2  1  5)	  0  1
     93.2995	        	        	        	        	       0	(  2  1  6)	  0  1
     94.0438	        	        	        	        	       0	(  2  0 10)	  0  1
     95.0561	        	        	        	        	       0	(  3  0  0)	  0  1
     95.3946	        	        	        	        	       0	(  3  0  1)	  0  1
     96.4113	        	        	        	        	       0	(  3  0  2)	  0  1
     96.4826	        	        	        	        	       0	(  1  0 13)	  0  1
     97.7030	        	        	        	        	       0	(  2  1  7)	  0  1
     98.1106	        	        	        	        	       0	(  3  0  3)	  0  1
     98.6597	        	        	        	        	       0	(  0  0 14)	  0  1
    100.5023	        	        	        	        	       0	(  3  0  4)	  0  1
    101.1911	        	        	        	        	       0	(  2  0 11)	  0  1
    102.0176	        	        	        	        	       0	(  1  1 12)	  0  1
    102.8445	        	        	        	        	       0	(  2  1  8)	  0  1
    103.6057	        	        	        	        	       0	(  3  0  5)	  0  1
    105.7708	        	        	        	        	       0	(  1  0 14)	  0  1
    107.4566	        	        	        	        	       0	(  3  0  6)	  0  1
    108.8062	        	        	        	        	       0	(  2  1  9)	  0  1
    109.2357	        	        	        	        	       0	(  2  0 12)	  0  1
    112.1180	        	        	        	        	       0	(  3  0  7)	  0  1
    115.7366	        	        	        	        	       0	(  2  1 10)	  0  1
    116.2650	        	        	        	        	       0	(  1  0 15)	  0  1
    116.8633	        	        	        	        	       0	(  2  2  0)	  0  1
    117.7000	        	        	        	        	       0	(  3  0  8)	  0  1
    118.3867	        	        	        	        	       0	(  2  2  2)	  0  1
    118.4674	        	        	        	        	       0	(  2  0 13)	  0  1
    120.2505	        	        	        	        	       0	(  0  0 16)	  0  1
    120.9548	        	        	        	        	       0	(  1  1 14)	  0  1
    123.1001	        	        	        	        	       0	(  2  2  4)	  0  1
    123.9123	        	        	        	        	       0	(  2  1 11)	  0  1
    124.4008	        	        	        	        	       0	(  3  0  9)	  0  1
    124.9734	        	        	        	        	       0	(  3  1  0)	  0  1
    125.3864	        	        	        	        	       0	(  3  1  1)	  0  1
    126.6385	        	        	        	        	       0	(  3  1  2)	  0  1
    128.6924	        	        	        	        	       0	(  1  0 16)	  0  1
    128.7723	        	        	        	        	       0	(  3  1  3)	  0  1
    129.4737	        	        	        	        	       0	(  2  0 14)	  0  1
    131.6022	        	        	        	        	       0	(  2  2  6)	  0  1
    131.8732	        	        	        	        	       0	(  3  1  4)	  0  1
    132.6054	        	        	        	        	       0	(  3  0 10)	  0  1
    133.9052	        	        	        	        	       0	(  2  1 12)	  0  1
    136.0993	        	        	        	        	       0	(  3  1  5)	  0  1
    141.7595	        	        	        	        	       0	(  3  1  6)	  0  1
    143.2056	        	        	        	        	       0	(  3  0 11)	  0  1
    143.7774	        	        	        	        	       0	(  2  0 15)	  0  1
    145.0581	        	        	        	        	       0	(  1  0 17)	  0  1
    146.0058	        	        	        	        	       0	(  2  2  8)	  0  1
    147.2393	        	        	        	        	       0	(  2  1 13)	  0  1
    149.5587	        	        	        	        	       0	(  3  1  7)	  0  1
    150.2421	        	        	        	        	       0	(  1  1 16)	  0  1
    154.7945	        	        	        	        	       0	(  0  0 18)	  0  1
    159.4978	        	        	        	        	       0	(  3  0 12)	  0  1
    159.6836	        	        	        	        	       0	(  4  0  0)	  0  1
    160.6843	        	        	        	        	       0	(  4  0  1)	  0  1
    161.9600	        	        	        	        	       0	(  3  1  8)	  0  1
    164.0470	        	        	        	        	       0	(  4  0  2)	  0  1
    171.9419	        	        	        	        	       0	(  2  0 16)	  0  1
    172.4069	        	        	        	        	       0	(  4  0  3)	  0  1
