MSG Master    CELL:    5.91930   5.91930  23.27260   90.0000   90.0000  120.0000   SPGR: P 63/m m c             TEMP:   1074.85
  1   1280     2.52000     0.00000    -0.12314     0.00000     0.00000    0
    99     0     2
       0.00000      10.00000
     125.00000     130.00000
 2Theta	Yobs	Ycal	Yobs-Ycal	Backg	Posr	(hkl)	K
      0.7700	    0.00	  558.98	-1740.43	  440.95
      0.8700	    0.00	  559.55	-1740.43	  441.51
      0.9700	   43.00	  560.10	-1740.43	  442.07
      1.0700	   46.00	  560.65	-1740.43	  442.61
      1.1700	   50.00	  561.19	-1740.43	  443.15
      1.2700	   52.00	  561.71	-1740.43	  443.68
      1.3700	   60.00	  562.23	-1740.43	  444.20
      1.4700	  111.00	  562.74	-1740.43	  444.71
      1.5700	  312.00	  563.24	-1740.43	  445.21
      1.6700	  437.00	  563.73	-1740.43	  445.70
      1.7700	  575.00	  564.21	-1740.43	  446.18
      1.8700	  633.00	  564.69	-1740.43	  446.65
      1.9700	  743.00	  565.15	-1740.43	  447.12
      2.0700	  759.00	  565.61	-1740.43	  447.57
      2.1700	  829.00	  566.05	-1740.43	  448.02
      2.2700	  752.00	  566.49	-1740.43	  448.46
      2.3700	  772.00	  566.92	-1740.43	  448.89
      2.4700	  784.00	  567.34	-1740.43	  449.31
      2.5700	  683.00	  567.75	-1740.43	  449.72
      2.6700	  658.00	  568.16	-1740.43	  450.12
      2.7700	  666.00	  568.55	-1740.43	  450.52
      2.8700	  603.00	  568.94	-1740.43	  450.90
      2.9700	  669.00	  569.32	-1740.43	  451.28
      3.0700	  632.00	  569.69	-1740.43	  451.65
      3.1700	  597.00	  570.05	-1740.43	  452.02
      3.2700	  610.00	  570.40	-1740.43	  452.37
      3.3700	  666.00	  570.75	-1740.43	  452.72
      3.4700	  737.00	  571.09	-1740.43	  453.05
      3.5700	  805.00	  571.42	-1740.43	  453.38
      3.6700	  860.00	  571.74	-1740.43	  453.71
      3.7700	  942.00	  572.06	-1740.43	  454.02
      3.8700	  997.00	  572.36	-1740.43	  454.33
      3.9700	 1015.00	  572.66	-1740.43	  454.63
      4.0700	 1048.00	  572.96	-1740.43	  454.92
      4.1700	 1055.00	  573.24	-1740.43	  455.20
      4.2700	 1071.00	  573.52	-1740.43	  455.48
      4.3700	 1101.00	  573.79	-1740.43	  455.75
      4.4700	 1042.00	  574.05	-1740.43	  456.01
      4.5700	 1044.00	  574.30	-1740.43	  456.27
      4.6700	  967.00	  574.55	-1740.43	  456.51
      4.7700	  960.00	  574.79	-1740.43	  456.76
      4.8700	 1005.00	  575.02	-1740.43	  456.99
      4.9700	  942.00	  575.25	-1740.43	  457.21
      5.0700	  919.00	  575.47	-1740.43	  457.43
      5.1700	  946.00	  575.68	-1740.43	  457.64
      5.2700	  862.00	  575.88	-1740.43	  457.85
      5.3700	  848.00	  576.08	-1740.43	  458.05
      5.4700	  870.00	  576.27	-1740.43	  458.24
      5.5700	  886.00	  576.46	-1740.43	  458.42
      5.6700	  861.00	  576.64	-1740.43	  458.60
      5.7700	  838.00	  576.81	-1740.43	  458.77
      5.8700	  828.00	  576.97	-1740.43	  458.94
      5.9700	  834.00	  577.13	-1740.43	  459.10
      6.0700	  842.00	  577.28	-1740.43	  459.25
      6.1700	  747.00	  577.43	-1740.43	  459.39
      6.2700	  822.00	  577.57	-1740.43	  459.53
      6.3700	  758.00	  577.70	-1740.43	  459.66
      6.4700	  760.00	  577.83	-1740.43	  459.79
      6.5700	  723.00	  577.95	-1740.43	  459.91
      6.6700	  723.00	  578.06	-1740.43	  460.02
      6.7700	  725.00	  578.17	-1740.43	  460.13
      6.8700	  746.00	  578.27	-1740.43	  460.23
      6.9700	  708.00	  578.36	-1740.43	  460.33
      7.0700	  729.00	  578.45	-1740.43	  460.42
      7.1700	  704.00	  578.54	-1740.43	  460.50
      7.2700	  670.00	  578.62	-1740.43	  460.58
      7.3700	  739.00	  578.69	-1740.43	  460.65
      7.4700	  637.00	  578.76	-1740.43	  460.72
      7.5700	  639.00	  578.82	-1740.43	  460.78
      7.6700	  631.00	  578.87	-1740.43	  460.84
      7.7700	  679.00	  578.92	-1740.43	  460.89
      7.8700	  672.00	  578.97	-1740.43	  460.93
      7.9700	  661.00	  579.00	-1740.43	  460.97
      8.0700	  666.00	  579.04	-1740.43	  461.00
      8.1700	  631.00	  579.07	-1740.43	  461.03
      8.2700	  634.00	  579.09	-1740.43	  461.05
      8.3700	  589.00	  579.11	-1740.43	  461.07
      8.4700	  640.00	  579.12	-1740.43	  461.08
      8.5700	  644.00	  579.12	-1740.43	  461.09
      8.6700	  642.00	  579.13	-1740.43	  461.09
      8.7700	  621.00	  579.12	-1740.43	  461.09
      8.8700	  568.00	  579.11	-1740.43	  461.08
      8.9700	  644.00	  579.10	-1740.43	  461.07
      9.0700	  637.00	  579.08	-1740.43	  461.05
      9.1700	  639.00	  579.06	-1740.43	  461.02
      9.2700	  629.00	  579.03	-1740.43	  461.00
      9.3700	  603.00	  579.00	-1740.43	  460.96
      9.4700	  597.00	  578.96	-1740.43	  460.92
      9.5700	  585.00	  578.92	-1740.43	  460.88
      9.6700	  616.00	  578.87	-1740.43	  460.83
      9.7700	  614.00	  578.82	-1740.43	  460.78
      9.8700	  608.00	  578.76	-1740.43	  460.73
      9.9700	  575.00	  578.70	-1740.43	  460.67
     10.0700	  581.00	  579.41	-1738.83	  460.60
     10.1700	  600.00	  579.42	-1719.85	  460.53
     10.2700	  587.00	  579.44	-1732.87	  460.46
     10.3700	  555.00	  579.50	-1764.92	  460.38
     10.4700	  619.00	  579.60	-1701.03	  460.29
     10.5700	  606.00	  579.81	-1714.23	  460.21
     10.6700	  577.00	  580.22	-1743.64	  460.12
     10.7700	  589.00	  580.94	-1732.37	  460.02
     10.8700	  628.00	  582.05	-1694.47	  459.92
     10.9700	  620.00	  583.54	-1703.96	  459.82
     11.0700	  550.00	  585.37	-1775.80	  459.71
     11.1700	  642.00	  587.54	-1685.96	  459.60
     11.2700	  604.00	  590.08	-1726.50	  459.48
     11.3700	  593.00	  593.06	-1740.49	  459.36
     11.4700	  582.00	  596.62	-1755.04	  459.24
     11.5700	  621.00	  600.95	-1720.37	  459.11
     11.6700	  621.00	  606.39	-1725.82	  458.98
     11.7700	  632.00	  613.54	-1721.97	  458.85
     11.8700	  642.00	  623.35	-1721.77	  458.71
     11.9700	  683.00	  636.54	-1693.97	  458.57
     12.0700	  641.00	  651.72	-1751.15	  458.42
     12.1700	  677.00	  662.81	-1726.24	  458.27
     12.2700	  729.00	  659.91	-1671.34	  458.12
     12.3700	  636.00	  639.58	-1744.01	  457.96
     12.4700	  627.00	  614.31	-1727.73	  457.80
     12.5700	  574.00	  595.77	-1762.20	  457.64
     12.6700	  571.00	  585.75	-1755.18	  457.47
     12.7700	  586.00	  581.25	-1735.67	  457.30
     12.8700	  558.00	  579.22	-1761.64	  457.13
     12.9700	  547.00	  578.09	-1771.51	  456.95
     13.0700	  579.00	  577.30	-1738.73	  456.77
     13.1700	  615.00	  576.69	-1702.11	  456.59
     13.2700	  570.00	  576.18	-1746.61	  456.41
     13.3700	  596.00	  575.75	-1720.17	  456.22
     13.4700	  526.00	  575.36	-1789.79	  456.02
     13.5700	  539.00	  575.02	-1776.44	  455.83
     13.6700	  562.00	  574.69	-1753.12	  455.63
     13.7700	  541.00	  574.39	-1773.82	  455.43
     13.8700	  604.00	  574.10	-1710.53	  455.23
     13.9700	  584.00	  573.82	-1730.25	  455.02
     14.0700	  553.00	  573.55	-1760.98	  454.81
     14.1700	  558.00	  573.29	-1755.72	  454.60
     14.2700	  587.00	  573.03	-1726.46	  454.38
     14.3700	  534.00	  572.77	-1779.20	  454.17
     14.4700	  548.00	  572.52	-1764.94	  453.95
     14.5700	  598.00	  572.27	-1714.69	  453.72
     14.6700	  540.00	  572.01	-1772.44	  453.50
     14.7700	  529.00	  571.76	-1783.19	  453.27
     14.8700	  582.00	  571.51	-1729.94	  453.04
     14.9700	  572.00	  571.26	-1739.68	  452.81
     15.0700	  520.00	  571.01	-1791.43	  452.57
     15.1700	  589.00	  570.75	-1722.18	  452.33
     15.2700	  548.00	  570.50	-1762.92	  452.09
     15.3700	  567.00	  570.24	-1743.67	  451.85
     15.4700	  534.00	  569.99	-1776.41	  451.61
     15.5700	  534.00	  569.73	-1776.16	  451.36
     15.6700	  576.00	  569.47	-1733.90	  451.11
     15.7700	  585.00	  569.21	-1724.64	  450.86
     15.8700	  553.00	  568.95	-1756.37	  450.60
     15.9700	  549.00	  568.68	-1760.11	  450.35
     16.0700	  568.00	  568.42	-1740.85	  450.09
     16.1700	  518.00	  568.15	-1790.58	  449.83
     16.2700	  576.00	  567.91	-1732.34	  449.57
     16.3700	  547.00	  567.64	-1761.07	  449.30
     16.4700	  596.00	  567.37	-1711.80	  449.04
     16.5700	  563.00	  567.10	-1744.53	  448.77
     16.6700	  577.00	  566.83	-1730.25	  448.50
     16.7700	  539.00	  566.55	-1767.98	  448.23
     16.8700	  544.00	  566.27	-1762.70	  447.96
     16.9700	  539.00	  566.00	-1767.42	  447.68
     17.0700	  544.00	  565.72	-1762.14	  447.40
     17.1700	  564.00	  565.44	-1741.86	  447.12
     17.2700	  573.00	  565.15	-1732.58	  446.84
     17.3700	  587.00	  564.87	-1718.30	  446.56
     17.4700	  575.00	  564.58	-1730.01	  446.28
     17.5700	  592.00	  564.30	-1712.72	  445.99
     17.6700	  588.00	  564.01	-1716.44	  445.71
     17.7700	  566.00	  563.72	-1738.15	  445.42
     17.8700	  525.00	  563.43	-1778.85	  445.13
     17.9700	  580.00	  563.24	-1723.66	  444.84
     18.0700	  579.00	  562.95	-1724.37	  444.54
     18.1700	  550.00	  562.65	-1753.08	  444.25
     18.2700	  551.00	  562.36	-1751.79	  443.95
     18.3700	  512.00	  562.06	-1790.49	  443.66
     18.4700	  543.00	  561.77	-1759.19	  443.36
     18.5700	  553.00	  561.47	-1748.90	  443.06
     18.6700	  563.00	  561.17	-1738.60	  442.76
     18.7700	  535.00	  560.87	-1766.30	  442.45
     18.8700	  594.00	  560.66	-1707.08	  442.15
     18.9700	  544.00	  560.36	-1756.79	  441.85
     19.0700	  551.00	  560.06	-1749.48	  441.54
     19.1700	  579.00	  559.76	-1721.18	  441.23
     19.2700	  579.00	  559.46	-1720.88	  440.93
     19.3700	  539.00	  559.15	-1760.58	  440.62
     19.4700	  586.00	  558.85	-1713.28	  440.31
     19.5700	  561.00	  558.55	-1737.97	  440.00
     19.6700	  567.00	  558.24	-1731.67	  439.68
     19.7700	  577.00	  557.94	-1721.36	  439.37
     19.8700	  553.00	  557.63	-1745.06	  439.06
     19.9700	  547.00	  557.32	-1750.75	  438.74
     20.0700	  551.00	  557.02	-1746.44	  438.43
     20.1700	  510.00	  556.71	-1787.14	  438.11
     20.2700	  556.00	  556.40	-1740.83	  437.79
     20.3700	  505.00	  556.10	-1791.52	  437.47
     20.4700	  551.00	  555.79	-1745.21	  437.15
     20.5700	  540.00	  555.45	-1755.88	  436.84
     20.6700	  565.00	  555.14	-1730.57	  436.51
     20.7700	  539.00	  554.84	-1756.26	  436.19
     20.8700	  593.00	  554.53	-1701.96	  435.87
     20.9700	  542.00	  554.26	-1752.69	  435.55
     21.0700	  587.00	  553.96	-1707.38	  435.23
     21.1700	  564.00	  553.65	-1730.08	  434.90
     21.2700	  546.00	  553.35	-1747.77	  434.58
     21.3700	  594.00	  553.04	-1699.47	  434.25
     21.4700	  515.00	  552.74	-1778.17	  433.93
     21.5700	  599.00	  552.44	-1693.87	  433.60
     21.6700	  552.00	  552.14	-1740.56	  433.28
     21.7700	  582.00	  551.84	-1710.26	  432.95
     21.8700	  540.00	  551.54	-1751.97	  432.62
     21.9700	  545.00	  551.24	-1746.67	  432.30
     22.0700	  574.00	  550.95	-1717.38	  431.97
     22.1700	  567.00	  550.66	-1724.09	  431.64
     22.2700	  525.00	  550.37	-1765.80	  431.31
     22.3700	  516.00	  550.09	-1774.51	  430.98
     22.4700	  552.00	  549.80	-1738.23	  430.66
     22.5700	  553.00	  549.53	-1736.95	  430.33
     22.6700	  580.00	  549.26	-1709.68	  430.00
     22.7700	  555.00	  548.99	-1734.42	  429.67
     22.8700	  510.00	  548.74	-1779.16	  429.34
     22.9700	  531.00	  548.49	-1757.92	  429.01
     23.0700	  557.00	  548.26	-1731.69	  428.68
     23.1700	  514.00	  548.04	-1774.47	  428.35
     23.2700	  541.00	  547.84	-1747.27	  428.02
     23.3700	  569.00	  547.67	-1719.09	  427.69
     23.4700	  538.00	  547.53	-1749.95	  427.36
     23.5700	  562.00	  547.43	-1725.86	  427.03
     23.6700	  551.00	  547.40	-1736.83	  426.70
     23.7700	  582.00	  547.61	-1706.03	  426.37
     23.8700	  553.00	  547.88	-1735.31	  426.04
     23.9700	  555.00	  548.58	-1734.01	  425.71
     24.0700	  563.00	  550.10	-1727.53	  425.38
     24.1700	  569.00	  553.11	-1724.54	  425.05
     24.2700	  580.00	  558.44	-1718.87	  424.72
     24.3700	  575.00	  567.05	-1732.47	  424.39
     24.4700	  578.00	  579.98	-1742.41	  424.06
     24.5700	  629.00	  597.61	-1709.04	  423.73
     24.6700	  595.00	  617.33	-1762.75	  423.40
     24.7700	  625.00	  631.36	-1746.79	  423.07
     24.8700	  618.00	  628.97	-1751.39	  422.74
     24.9700	  601.00	  608.28	-1747.71	  422.41
     25.0700	  616.00	  582.69	-1707.12	  422.08
     25.1700	  551.00	  563.46	-1752.89	  421.76
     25.2700	  577.00	  552.65	-1716.08	  421.43
     25.3700	  551.00	  547.62	-1737.05	  421.10
     25.4700	  539.00	  545.37	-1746.79	  420.77
     25.5700	  534.00	  544.18	-1750.61	  420.45
     25.6700	  536.00	  543.41	-1747.84	  420.12
     25.7700	  508.00	  542.85	-1775.28	  419.80
     25.8700	  529.00	  542.43	-1753.86	  419.47
     25.9700	  544.00	  542.11	-1738.53	  419.15
     26.0700	  526.00	  541.87	-1756.30	  418.82
     26.1700	  548.00	  541.71	-1734.14	  418.50
     26.2700	  563.00	  541.63	-1719.06	  418.18
     26.3700	  571.00	  541.62	-1711.05	  417.85
     26.4700	  558.00	  541.70	-1724.13	  417.53
     26.5700	  592.00	  541.87	-1690.30	  417.21
     26.6700	  524.00	  542.16	-1758.58	  416.89
     26.7700	  526.00	  542.58	-1757.00	  416.57
     26.8700	  521.00	  543.17	-1762.60	  416.25
     26.9700	  542.00	  543.99	-1742.41	  415.93
     27.0700	  559.00	  545.10	-1726.53	  415.61
     27.1700	  561.00	  546.65	-1726.07	  415.29
     27.2700	  566.00	  548.87	-1723.30	  414.97
     27.3700	  550.00	  552.27	-1742.69	  414.66
     27.4700	  581.00	  557.79	-1717.22	  414.34
     27.5700	  585.00	  567.18	-1722.61	  414.03
     27.6700	  568.00	  583.17	-1755.59	  413.71
     27.7700	  573.00	  609.30	-1776.73	  413.40
     27.8700	  612.00	  648.69	-1777.12	  413.09
     27.9700	  620.00	  701.56	-1821.99	  412.77
     28.0700	  782.00	  762.00	-1720.43	  412.46
     28.1700	  914.00	  815.13	-1641.55	  412.15
     28.2700	  969.00	  838.37	-1609.80	  411.84
     28.3700	  938.00	  817.99	-1620.41	  411.53
     28.4700	  792.00	  774.80	-1723.23	  411.22
     28.5700	  711.00	  744.41	-1773.83	  410.92
     28.6700	  687.00	  743.48	-1796.90	  410.61
     28.7700	  745.00	  767.58	-1763.01	  410.31
     28.8700	  787.00	  796.79	-1750.22	  410.00
     28.9700	  812.00	  802.61	-1731.04	  409.70
     29.0700	  768.00	  766.35	-1738.77	  409.40
     29.1700	  683.00	  703.13	-1760.56	  409.09
     29.2700	  681.00	  642.33	-1701.75	  408.79
     29.3700	  597.00	  598.28	-1741.70	  408.49
     29.4700	  607.00	  571.62	-1705.04	  408.19
     29.5700	  676.00	  557.23	-1621.66	  407.90
     29.6700	  628.00	  549.68	-1662.11	  407.60
     29.7700	  596.00	  545.45	-1689.87	  407.30
     29.8700	  564.00	  542.85	-1719.28	  407.01
     29.9700	  603.00	  541.25	-1678.68	  406.72
     30.0700	  558.00	  540.50	-1722.93	  406.42
     30.1700	  550.00	  540.80	-1731.22	  406.13
     30.2700	  532.00	  542.74	-1751.17	  405.84
     30.3700	  597.00	  547.52	-1690.95	  405.55
     30.4700	  595.00	  556.97	-1702.39	  405.27
     30.5700	  571.00	  573.02	-1742.45	  404.98
     30.6700	  517.00	  596.30	-1819.73	  404.69
     30.7700	  640.00	  624.05	-1724.47	  404.41
     30.8700	  643.00	  648.51	-1745.94	  404.12
     30.9700	  629.00	  657.69	-1769.12	  403.84
     31.0700	  610.00	  643.07	-1773.50	  403.56
     31.1700	  547.00	  612.26	-1805.69	  403.28
     31.2700	  590.00	  580.97	-1731.40	  403.00
     31.3700	  555.00	  557.78	-1743.20	  402.72
     31.4700	  551.00	  543.67	-1733.09	  402.45
     31.5700	  565.00	  536.15	-1711.57	  402.17
     31.6700	  582.00	  532.31	-1690.73	  401.90
     31.7700	  575.00	  530.20	-1695.63	  401.63
     31.8700	  558.00	  528.89	-1711.31	  401.36
     31.9700	  519.00	  527.98	-1749.40	  401.09
     32.0700	  528.00	  527.33	-1739.75	  400.82
     32.1700	  504.00	  526.88	-1763.31	  400.55
     32.2700	  542.00	  526.60	-1725.03	  400.28
     32.3700	  546.00	  526.49	-1720.91	  400.02
     32.4700	  509.00	  526.53	-1757.96	  399.76
     32.5700	  556.00	  526.75	-1711.18	  399.49
     32.6700	  530.00	  527.17	-1737.60	  399.23
     32.7700	  570.00	  527.84	-1698.26	  398.97
     32.8700	  581.00	  528.82	-1688.24	  398.71
     32.9700	  536.00	  530.22	-1734.65	  398.46
     33.0700	  557.00	  532.26	-1715.69	  398.20
     33.1700	  531.00	  535.39	-1744.82	  397.95
     33.2700	  556.00	  540.64	-1725.07	  397.70
     33.3700	  506.00	  550.28	-1784.70	  397.45
     33.4700	  569.00	  568.70	-1740.13	  397.20
     33.5700	  583.00	  602.99	-1760.42	  396.95
     33.6700	  665.00	  661.42	-1736.85	  396.70
     33.7700	  733.00	  748.10	-1755.53	  396.46
     33.8700	  849.00	  854.12	-1745.55	  396.21
     33.9700	 1061.00	  951.51	-1630.94	  395.97
     34.0700	 1075.00	  996.59	-1662.01	  395.73
     34.1700	 1008.00	  955.85	-1688.28	  395.49
     34.2700	  926.00	  849.94	-1664.36	  395.25
     34.3700	  749.00	  734.34	-1725.77	  395.01
     34.4700	  665.00	  644.33	-1719.76	  394.78
     34.5700	  579.00	  587.60	-1749.02	  394.54
     34.6700	  559.00	  556.91	-1738.34	  394.31
     34.7700	  560.00	  541.56	-1721.99	  394.08
     34.8700	  533.00	  533.62	-1741.05	  393.85
     34.9700	  546.00	  528.91	-1723.34	  393.63
     35.0700	  544.00	  525.68	-1722.10	  393.40
     35.1700	  514.00	  523.24	-1749.67	  393.17
     35.2700	  507.00	  521.33	-1754.76	  392.95
     35.3700	  543.00	  519.77	-1717.20	  392.73
     35.4700	  526.00	  518.48	-1732.91	  392.51
     35.5700	  503.00	  517.39	-1754.81	  392.29
     35.6700	  534.00	  516.45	-1722.88	  392.08
     35.7700	  497.00	  515.64	-1759.07	  391.86
     35.8700	  570.00	  514.93	-1685.36	  391.65
     35.9700	  504.00	  514.78	-1751.21	  391.43
     36.0700	  505.00	  514.22	-1749.65	  391.22
     36.1700	  491.00	  513.72	-1763.15	  391.02
     36.2700	  497.00	  513.27	-1756.69	  390.81
     36.3700	  508.00	  512.86	-1745.28	  390.60
     36.4700	  479.00	  512.49	-1773.91	  390.40
     36.5700	  530.00	  512.15	-1722.58	  390.20
     36.6700	  534.00	  511.86	-1718.29	  389.99
     36.7700	  516.00	  511.61	-1736.04	  389.80
     36.8700	  534.00	  511.42	-1717.85	  389.60
     36.9700	  516.00	  511.34	-1735.77	  389.40
     37.0700	  526.00	  511.48	-1725.90	  389.21
     37.1700	  525.00	  512.03	-1727.46	  389.01
     37.2700	  518.00	  513.34	-1735.76	  388.82
     37.3700	  524.00	  515.72	-1732.15	  388.63
     37.4700	  529.00	  519.29	-1730.72	  388.45
     37.5700	  553.00	  523.56	-1710.99	  388.26
     37.6700	  516.00	  527.38	-1751.81	  388.08
     37.7700	  502.00	  529.33	-1767.75	  387.89
     37.8700	  485.00	  528.85	-1784.27	  387.71
     37.9700	  533.00	  526.73	-1734.16	  387.53
     38.0700	  518.00	  523.68	-1746.11	  387.35
     38.1700	  517.00	  519.90	-1743.32	  387.18
     38.2700	  527.00	  516.00	-1729.42	  387.00
     38.3700	  531.00	  512.70	-1722.13	  386.83
     38.4700	  547.00	  510.32	-1703.75	  386.66
     38.5700	  519.00	  508.78	-1730.21	  386.49
     38.6700	  499.00	  507.76	-1749.18	  386.32
     38.7700	  483.00	  507.19	-1764.62	  386.16
     38.8700	  477.00	  506.81	-1770.24	  385.99
     38.9700	  538.00	  506.52	-1708.95	  385.83
     39.0700	  496.00	  506.28	-1750.70	  385.67
     39.1700	  521.00	  505.98	-1725.40	  385.51
     39.2700	  484.00	  505.78	-1762.21	  385.35
     39.3700	  511.00	  505.60	-1735.03	  385.20
     39.4700	  498.00	  505.43	-1747.86	  385.04
     39.5700	  469.00	  505.28	-1776.71	  384.89
     39.6700	  522.00	  505.26	-1723.68	  384.74
     39.7700	  538.00	  505.13	-1707.55	  384.59
     39.8700	  523.00	  505.01	-1722.43	  384.44
     39.9700	  515.00	  504.89	-1730.32	  384.30
     40.0700	  504.00	  504.79	-1741.22	  384.15
     40.1700	  512.00	  504.70	-1733.13	  384.01
     40.2700	  510.00	  504.62	-1735.04	  383.87
     40.3700	  496.00	  504.55	-1748.98	  383.73
     40.4700	  475.00	  504.49	-1769.92	  383.59
     40.5700	  521.00	  504.45	-1723.88	  383.46
     40.6700	  471.00	  504.43	-1773.86	  383.32
     40.7700	  493.00	  504.42	-1751.85	  383.19
     40.8700	  468.00	  504.44	-1776.87	  383.06
     40.9700	  492.00	  504.49	-1752.91	  382.93
     41.0700	  477.00	  504.56	-1767.99	  382.81
     41.1700	  489.00	  504.68	-1756.10	  382.68
     41.2700	  543.00	  504.81	-1702.23	  382.56
     41.3700	  487.00	  505.04	-1758.46	  382.44
     41.4700	  527.00	  505.35	-1718.77	  382.32
     41.5700	  538.00	  506.19	-1708.62	  382.20
     41.6700	  536.00	  506.79	-1711.22	  382.08
     41.7700	  469.00	  507.69	-1779.12	  381.97
     41.8700	  470.00	  509.19	-1779.61	  381.85
     41.9700	  469.00	  511.96	-1783.39	  381.74
     42.0700	  486.00	  517.36	-1771.79	  381.63
     42.1700	  493.00	  527.57	-1775.00	  381.53
     42.2700	  532.00	  545.20	-1753.63	  381.42
     42.3700	  533.00	  571.88	-1779.31	  381.32
     42.4700	  567.00	  605.72	-1779.14	  381.21
     42.5700	  598.00	  639.56	-1781.98	  381.11
     42.6700	  587.00	  661.33	-1814.75	  381.01
     42.7700	  609.00	  659.83	-1791.25	  380.91
     42.8700	  626.00	  634.91	-1749.33	  380.82
     42.9700	  565.00	  599.22	-1774.64	  380.72
     43.0700	  555.00	  565.47	-1750.90	  380.63
     43.1700	  512.00	  540.11	-1768.53	  380.54
     43.2700	  512.00	  524.01	-1752.44	  380.45
     43.3700	  502.00	  515.07	-1753.50	  380.36
     43.4700	  474.00	  510.49	-1776.91	  380.28
     43.5700	  536.00	  508.13	-1712.56	  380.19
     43.6700	  526.00	  506.81	-1721.24	  380.11
     43.7700	  515.00	  506.14	-1731.56	  380.03
     43.8700	  530.00	  505.53	-1715.95	  379.95
     43.9700	  530.00	  505.07	-1715.49	  379.88
     44.0700	  485.00	  504.75	-1760.17	  379.80
     44.1700	  508.00	  504.47	-1736.90	  379.73
     44.2700	  488.00	  504.27	-1756.69	  379.65
     44.3700	  512.00	  504.11	-1732.53	  379.58
     44.4700	  515.00	  503.99	-1729.42	  379.51
     44.5700	  499.00	  503.78	-1745.21	  379.45
     44.6700	  507.00	  503.74	-1737.16	  379.38
     44.7700	  529.00	  503.72	-1715.15	  379.32
     44.8700	  542.00	  503.73	-1702.15	  379.26
     44.9700	  517.00	  503.76	-1727.19	  379.20
     45.0700	  480.00	  503.81	-1764.24	  379.14
     45.1700	  509.00	  503.89	-1735.31	  379.08
     45.2700	  516.00	  504.17	-1728.59	  379.02
     45.3700	  494.00	  504.29	-1750.71	  378.97
     45.4700	  507.00	  504.43	-1737.86	  378.92
     45.5700	  502.00	  504.60	-1743.02	  378.87
     45.6700	  517.00	  504.79	-1728.21	  378.82
     45.7700	  498.00	  505.00	-1747.43	  378.77
     45.8700	  497.00	  505.25	-1748.67	  378.72
     45.9700	  534.00	  505.52	-1711.95	  378.68
     46.0700	  563.00	  505.83	-1683.26	  378.64
     46.1700	  469.00	  506.18	-1777.60	  378.60
     46.2700	  517.00	  506.56	-1729.99	  378.56
     46.3700	  502.00	  507.00	-1745.43	  378.52
     46.4700	  494.00	  507.49	-1753.92	  378.49
     46.5700	  495.00	  508.05	-1753.48	  378.45
     46.6700	  525.00	  508.69	-1724.12	  378.42
     46.7700	  523.00	  509.44	-1726.87	  378.39
     46.8700	  540.00	  510.35	-1710.77	  378.36
     46.9700	  534.00	  511.52	-1717.94	  378.33
     47.0700	  533.00	  513.20	-1720.62	  378.30
     47.1700	  546.00	  515.90	-1710.32	  378.28
     47.2700	  513.00	  520.41	-1747.83	  378.25
     47.3700	  534.00	  527.96	-1734.38	  378.23
     47.4700	  552.00	  539.52	-1727.95	  378.21
     47.5700	  534.00	  555.42	-1761.84	  378.19
     47.6700	  600.00	  574.12	-1714.55	  378.18
     47.7700	  581.00	  591.78	-1751.20	  378.16
     47.8700	  567.00	  602.75	-1776.17	  378.15
     47.9700	  638.00	  602.52	-1704.95	  378.14
     48.0700	  578.00	  591.87	-1754.30	  378.13
     48.1700	  592.00	  576.40	-1724.82	  378.12
     48.2700	  532.00	  561.60	-1770.02	  378.11
     48.3700	  537.00	  550.73	-1754.15	  378.10
     48.4700	  528.00	  544.69	-1757.12	  378.10
     48.5700	  539.00	  542.94	-1744.37	  378.09
     48.6700	  554.00	  544.41	-1730.84	  378.09
     48.7700	  532.00	  548.21	-1756.63	  378.09
     48.8700	  537.00	  553.89	-1757.32	  378.09
     48.9700	  539.00	  561.55	-1762.98	  378.10
     49.0700	  524.00	  571.87	-1788.29	  378.10
     49.1700	  567.00	  586.54	-1759.96	  378.11
     49.2700	  647.00	  609.08	-1702.51	  378.11
     49.3700	  652.00	  646.21	-1734.63	  378.12
     49.4700	  717.00	  709.22	-1732.65	  378.13
     49.5700	  787.00	  814.67	-1768.09	  378.15
     49.6700	  889.00	  980.45	-1831.88	  378.16
     49.7700	 1176.00	 1220.79	-1785.21	  378.17
     49.8700	 1456.00	 1534.18	-1818.61	  378.19
     49.9700	 1912.00	 1891.62	-1720.05	  378.21
     50.0700	 2225.00	 2227.42	-1742.84	  378.23
     50.1700	 2516.00	 2443.44	-1667.87	  378.25
     50.2700	 2576.00	 2451.27	-1615.69	  378.27
     50.3700	 2270.00	 2245.03	-1715.46	  378.29
     50.4700	 1932.00	 1911.27	-1719.70	  378.32
     50.5700	 1419.00	 1553.68	-1875.11	  378.34
     50.6700	 1040.00	 1241.32	-1941.74	  378.37
     50.7700	  861.00	 1004.57	-1884.00	  378.40
     50.8700	  719.00	  845.22	-1866.65	  378.43
     50.9700	  666.00	  748.14	-1822.56	  378.46
     51.0700	  615.00	  692.12	-1817.55	  378.49
     51.1700	  615.00	  657.93	-1783.35	  378.53
     51.2700	  584.00	  632.75	-1789.18	  378.56
     51.3700	  576.00	  611.19	-1775.62	  378.60
     51.4700	  617.00	  592.46	-1715.89	  378.64
     51.5700	  522.00	  577.08	-1795.51	  378.68
     51.6700	  562.00	  565.38	-1743.80	  378.72
     51.7700	  570.00	  557.07	-1727.50	  378.76
     51.8700	  547.00	  551.46	-1744.88	  378.80
     51.9700	  521.00	  547.74	-1767.16	  378.85
     52.0700	  555.00	  545.30	-1730.73	  378.89
     52.1700	  585.00	  543.83	-1699.25	  378.94
     52.2700	  518.00	  543.45	-1765.88	  378.99
     52.3700	  511.00	  543.85	-1773.28	  379.04
     52.4700	  557.00	  545.65	-1729.07	  379.09
     52.5700	  530.00	  549.81	-1760.24	  379.14
     52.6700	  573.00	  558.43	-1725.85	  379.20
     52.7700	  602.00	  575.35	-1713.78	  379.25
     52.8700	  642.00	  606.66	-1705.08	  379.31
     52.9700	  687.00	  659.97	-1713.39	  379.36
     53.0700	  880.00	  741.87	-1602.30	  379.42
     53.1700	  925.00	  853.49	-1668.92	  379.48
     53.2700	 1042.00	  985.37	-1683.80	  379.54
     53.3700	 1098.00	 1114.36	-1756.79	  379.60
     53.4700	 1218.00	 1205.35	-1727.78	  379.67
     53.5700	 1165.00	 1224.15	-1799.58	  379.73
     53.6700	 1108.00	 1161.99	-1794.42	  379.80
     53.7700	 1004.00	 1044.50	-1780.93	  379.87
     53.8700	  863.00	  909.79	-1787.22	  379.93
     53.9700	  715.00	  787.28	-1812.71	  380.00
     54.0700	  726.00	  692.22	-1706.64	  380.07
     54.1700	  623.00	  627.44	-1744.87	  380.14
     54.2700	  566.00	  588.02	-1762.44	  380.22
     54.3700	  547.00	  566.20	-1759.62	  380.29
     54.4700	  560.00	  554.93	-1735.36	  380.36
     54.5700	  583.00	  549.44	-1706.87	  380.44
     54.6700	  582.00	  546.92	-1705.34	  380.52
     54.7700	  567.00	  546.00	-1719.42	  380.60
     54.8700	  530.00	  546.09	-1756.51	  380.67
     54.9700	  555.00	  546.95	-1732.38	  380.75
     55.0700	  524.00	  548.53	-1764.95	  380.84
     55.1700	  576.00	  550.81	-1715.24	  380.92
     55.2700	  571.00	  553.90	-1723.33	  381.00
     55.3700	  551.00	  557.86	-1747.29	  381.09
     55.4700	  550.00	  562.93	-1753.35	  381.17
     55.5700	  566.00	  569.46	-1743.89	  381.26
     55.6700	  602.00	  578.24	-1716.67	  381.34
     55.7700	  620.00	  590.83	-1711.25	  381.43
     55.8700	  597.00	  610.41	-1753.84	  381.52
     55.9700	  644.00	  642.98	-1739.41	  381.61
     56.0700	  691.00	  698.66	-1748.09	  381.70
     56.1700	  672.00	  792.26	-1860.69	  381.80
     56.2700	  902.00	  941.66	-1780.08	  381.89
     56.3700	 1083.00	 1162.65	-1820.07	  381.98
     56.4700	 1372.00	 1460.55	-1828.98	  382.08
     56.5700	 1742.00	 1820.13	-1818.56	  382.17
     56.6700	 2105.00	 2197.85	-1833.28	  382.27
     56.7700	 2426.00	 2519.46	-1833.89	  382.37
     56.8700	 2587.00	 2693.24	-1846.67	  382.47
     56.9700	 2598.00	 2655.12	-1797.55	  382.57
     57.0700	 2360.00	 2419.79	-1800.21	  382.67
     57.1700	 2095.00	 2068.97	-1714.40	  382.77
     57.2700	 1683.00	 1692.64	-1750.07	  382.87
     57.3700	 1283.00	 1354.73	-1812.16	  382.97
     57.4700	 1041.00	 1087.80	-1787.23	  383.08
     57.5700	  857.00	  898.74	-1782.17	  383.18
     57.6700	  815.00	  777.68	-1703.11	  383.29
     57.7700	  713.00	  707.94	-1735.36	  383.39
     57.8700	  685.00	  673.65	-1729.08	  383.50
     57.9700	  670.00	  663.63	-1734.05	  383.61
     58.0700	  707.00	  671.96	-1705.38	  383.72
     58.1700	  705.00	  696.74	-1732.16	  383.83
     58.2700	  775.00	  738.15	-1703.57	  383.94
     58.3700	  849.00	  796.56	-1687.98	  384.05
     58.4700	  984.00	  870.80	-1627.22	  384.16
     58.5700	 1093.00	  956.59	-1604.01	  384.27
     58.6700	 1235.00	 1045.75	-1551.18	  384.39
     58.7700	 1413.00	 1128.51	-1455.94	  384.50
     58.8700	 1551.00	 1197.70	-1387.12	  384.61
     58.9700	 1523.00	 1248.97	-1466.39	  384.73
     59.0700	 1591.00	 1276.71	-1426.14	  384.85
     59.1700	 1574.00	 1275.81	-1442.24	  384.96
     59.2700	 1423.00	 1249.78	-1567.21	  385.08
     59.3700	 1409.00	 1211.52	-1542.94	  385.20
     59.4700	 1171.00	 1174.79	-1744.21	  385.32
     59.5700	 1112.00	 1149.02	-1777.44	  385.44
     59.6700	 1172.00	 1141.76	-1710.19	  385.56
     59.7700	 1158.00	 1161.28	-1743.71	  385.68
     59.8700	 1274.00	 1212.92	-1679.35	  385.80
     59.9700	 1318.00	 1292.92	-1715.35	  385.92
     60.0700	 1402.00	 1385.30	-1723.73	  386.04
     60.1700	 1575.00	 1462.44	-1627.87	  386.16
     60.2700	 1576.00	 1491.70	-1656.12	  386.29
     60.3700	 1482.00	 1452.22	-1710.65	  386.41
     60.4700	 1449.00	 1349.78	-1641.20	  386.54
     60.5700	 1235.00	 1210.59	-1716.02	  386.66
     60.6700	 1141.00	 1063.34	-1662.77	  386.79
     60.7700	  912.00	  929.20	-1757.62	  386.91
     60.8700	  783.00	  820.21	-1777.63	  387.04
     60.9700	  706.00	  740.59	-1775.02	  387.17
     61.0700	  648.00	  689.35	-1781.78	  387.29
     61.1700	  594.00	  663.24	-1809.67	  387.42
     61.2700	  618.00	  659.59	-1782.02	  387.55
     61.3700	  621.00	  677.97	-1797.40	  387.68
     61.4700	  668.00	  720.43	-1792.85	  387.81
     61.5700	  751.00	  790.26	-1779.68	  387.94
     61.6700	  814.00	  889.57	-1816.00	  388.07
     61.7700	  917.00	 1016.28	-1839.71	  388.20
     61.8700	 1081.00	 1161.40	-1820.82	  388.33
     61.9700	 1259.00	 1307.13	-1788.56	  388.46
     62.0700	 1312.00	 1426.94	-1855.36	  388.60
     62.1700	 1462.00	 1490.37	-1768.80	  388.73
     62.2700	 1414.00	 1476.88	-1803.31	  388.86
     62.3700	 1289.00	 1390.44	-1841.86	  388.99
     62.4700	 1155.00	 1256.52	-1841.95	  389.13
     62.5700	 1063.00	 1105.50	-1782.92	  389.26
     62.6700	  857.00	  961.29	-1844.71	  389.40
     62.7700	  757.00	  838.58	-1822.01	  389.53
     62.8700	  686.00	  743.51	-1797.94	  389.67
     62.9700	  684.00	  675.67	-1732.09	  389.80
     63.0700	  541.00	  630.63	-1830.06	  389.94
     63.1700	  579.00	  602.57	-1763.99	  390.07
     63.2700	  525.00	  586.06	-1801.48	  390.21
     63.3700	  540.00	  577.06	-1777.49	  390.34
     63.4700	  585.00	  573.18	-1728.61	  390.48
     63.5700	  595.00	  573.49	-1718.92	  390.62
     63.6700	  607.00	  578.35	-1711.78	  390.75
     63.7700	  619.00	  589.14	-1710.56	  390.89
     63.8700	  631.00	  607.92	-1717.34	  391.03
     63.9700	  672.00	  636.94	-1705.37	  391.17
     64.0700	  734.00	  677.81	-1684.23	  391.30
     64.1700	  746.00	  730.46	-1724.89	  391.44
     64.2700	  829.00	  792.27	-1703.70	  391.58
     64.3700	  905.00	  857.29	-1692.71	  391.72
     64.4700	  976.00	  916.23	-1680.65	  391.86
     64.5700	 1032.00	  957.43	-1665.86	  391.99
     64.6700	 1080.00	  972.89	-1633.32	  392.13
     64.7700	 1079.00	  959.62	-1621.04	  392.27
     64.8700	 1001.00	  922.29	-1661.72	  392.41
     64.9700	  937.00	  869.78	-1673.20	  392.55
     65.0700	  910.00	  811.97	-1642.40	  392.69
     65.1700	  743.00	  757.00	-1754.43	  392.83
     65.2700	  735.00	  709.58	-1715.00	  392.97
     65.3700	  682.00	  671.12	-1729.55	  393.11
     65.4700	  669.00	  640.91	-1712.33	  393.24
     65.5700	  603.00	  617.52	-1754.94	  393.38
     65.6700	  629.00	  599.66	-1711.09	  393.52
     65.7700	  580.00	  586.29	-1746.72	  393.66
     65.8700	  548.00	  576.61	-1769.03	  393.80
     65.9700	  580.00	  569.98	-1730.40	  393.94
     66.0700	  582.00	  565.89	-1724.31	  394.08
     66.1700	  554.00	  563.90	-1750.32	  394.22
     66.2700	  549.00	  563.63	-1755.05	  394.36
     66.3700	  555.00	  564.79	-1750.22	  394.50
     66.4700	  536.00	  567.23	-1771.66	  394.64
     66.5700	  556.00	  571.00	-1755.43	  394.78
     66.6700	  577.00	  576.57	-1740.00	  394.91
     66.7700	  544.00	  584.59	-1781.02	  395.05
     66.8700	  590.00	  596.85	-1747.27	  395.19
     66.9700	  594.00	  616.25	-1762.68	  395.33
     67.0700	  625.00	  647.47	-1762.90	  395.47
     67.1700	  652.00	  697.20	-1785.63	  395.61
     67.2700	  778.00	  774.04	-1736.46	  395.74
     67.3700	  880.00	  887.32	-1747.74	  395.88
     67.4700	 1037.00	 1044.86	-1748.28	  396.02
     67.5700	 1326.00	 1249.83	-1664.26	  396.16
     67.6700	 1433.00	 1496.66	-1804.09	  396.30
     67.7700	 1766.00	 1769.33	-1743.75	  396.43
     67.8700	 2081.00	 2038.77	-1698.20	  396.57
     67.9700	 2295.00	 2264.25	-1709.68	  396.71
     68.0700	 2442.00	 2399.84	-1698.26	  396.84
     68.1700	 2474.00	 2410.96	-1677.39	  396.98
     68.2700	 2271.00	 2294.53	-1763.96	  397.12
     68.3700	 2073.00	 2081.02	-1748.45	  397.25
     68.4700	 1724.00	 1816.04	-1832.47	  397.39
     68.5700	 1549.00	 1541.87	-1733.29	  397.52
     68.6700	 1298.00	 1289.71	-1732.14	  397.66
     68.7700	 1058.00	 1077.73	-1760.16	  397.79
     68.8700	  890.00	  912.89	-1763.31	  397.93
     68.9700	  803.00	  793.31	-1730.74	  398.06
     69.0700	  754.00	  711.61	-1698.03	  398.20
     69.1700	  629.00	  658.55	-1769.97	  398.33
     69.2700	  648.00	  625.31	-1717.74	  398.46
     69.3700	  640.00	  604.84	-1705.26	  398.59
     69.4700	  633.00	  592.14	-1699.57	  398.73
     69.5700	  594.00	  584.04	-1730.47	  398.86
     69.6700	  550.00	  578.65	-1769.08	  398.99
     69.7700	  573.00	  574.94	-1742.37	  399.12
     69.8700	  593.00	  572.38	-1719.80	  399.25
     69.9700	  603.00	  570.68	-1708.10	  399.38
     70.0700	  553.00	  569.71	-1757.14	  399.51
     70.1700	  585.00	  569.43	-1724.86	  399.64
     70.2700	  571.00	  569.87	-1739.30	  399.77
     70.3700	  612.00	  571.09	-1699.51	  399.90
     70.4700	  508.00	  573.32	-1805.75	  400.03
     70.5700	  536.00	  577.03	-1781.46	  400.16
     70.6700	  611.00	  583.05	-1712.47	  400.28
     70.7700	  613.00	  592.82	-1720.25	  400.41
     70.8700	  615.00	  608.72	-1734.15	  400.54
     70.9700	  613.00	  634.23	-1761.66	  400.66
     71.0700	  673.00	  674.10	-1741.53	  400.79
     71.1700	  758.00	  734.05	-1716.48	  400.91
     71.2700	  817.00	  819.96	-1743.39	  401.04
     71.3700	  843.00	  936.37	-1833.79	  401.16
     71.4700	 1058.00	 1085.44	-1767.87	  401.28
     71.5700	 1287.00	 1261.61	-1715.04	  401.41
     71.6700	 1374.00	 1455.15	-1821.57	  401.53
     71.7700	 1544.00	 1648.09	-1844.52	  401.65
     71.8700	 1806.00	 1815.62	-1750.04	  401.77
     71.9700	 1935.00	 1929.15	-1734.58	  401.89
     72.0700	 1911.00	 1964.49	-1793.91	  402.01
     72.1700	 1909.00	 1913.29	-1744.72	  402.13
     72.2700	 1765.00	 1788.09	-1763.52	  402.25
     72.3700	 1683.00	 1614.52	-1671.94	  402.36
     72.4700	 1513.00	 1421.59	-1649.02	  402.48
     72.5700	 1337.00	 1232.26	-1635.69	  402.60
     72.6700	 1192.00	 1062.65	-1611.08	  402.71
     72.7700	 1045.00	  921.52	-1616.95	  402.83
     72.8700	  960.00	  811.32	-1591.75	  402.94
     72.9700	  901.00	  729.86	-1569.29	  403.06
     73.0700	  777.00	  672.38	-1635.81	  403.17
     73.1700	  752.00	  633.23	-1621.65	  403.28
     73.2700	  717.00	  607.16	-1630.59	  403.39
     73.3700	  670.00	  589.95	-1660.37	  403.50
     73.4700	  646.00	  578.50	-1672.92	  403.61
     73.5700	  624.00	  570.78	-1687.21	  403.72
     73.6700	  532.00	  565.54	-1773.97	  403.83
     73.7700	  585.00	  562.02	-1717.45	  403.94
     73.8700	  599.00	  559.80	-1701.23	  404.04
     73.9700	  574.00	  558.61	-1725.03	  404.15
     74.0700	  547.00	  558.25	-1751.67	  404.26
     74.1700	  576.00	  558.53	-1722.96	  404.36
     74.2700	  629.00	  559.25	-1670.68	  404.46
     74.3700	  622.00	  560.14	-1678.57	  404.57
     74.4700	  596.00	  560.89	-1705.32	  404.67
     74.5700	  614.00	  561.20	-1687.63	  404.77
     74.6700	  605.00	  560.81	-1696.24	  404.87
     74.7700	  611.00	  559.66	-1689.08	  404.97
     74.8700	  639.00	  557.89	-1659.32	  405.07
     74.9700	  637.00	  555.80	-1659.23	  405.16
     75.0700	  612.00	  553.76	-1682.18	  405.26
     75.1700	  552.00	  552.02	-1740.44	  405.36
     75.2700	  598.00	  551.14	-1693.57	  405.45
     75.3700	  610.00	  551.44	-1681.86	  405.55
     75.4700	  582.00	  553.33	-1711.76	  405.64
     75.5700	  573.00	  557.22	-1724.65	  405.73
     75.6700	  555.00	  563.84	-1749.27	  405.82
     75.7700	  559.00	  573.57	-1754.99	  405.91
     75.8700	  578.00	  586.72	-1749.14	  406.00
     75.9700	  587.00	  603.29	-1756.72	  406.09
     76.0700	  659.00	  622.80	-1704.23	  406.18
     76.1700	  620.00	  644.15	-1764.57	  406.27
     76.2700	  698.00	  665.59	-1708.01	  406.35
     76.3700	  670.00	  684.78	-1755.20	  406.44
     76.4700	  687.00	  699.00	-1752.43	  406.52
     76.5700	  699.00	  705.74	-1747.17	  406.60
     76.6700	  671.00	  703.60	-1773.02	  406.68
     76.7700	  663.00	  693.00	-1770.43	  406.76
     76.8700	  678.00	  675.96	-1738.39	  406.84
     76.9700	  643.00	  655.02	-1752.44	  406.92
     77.0700	  564.00	  633.10	-1809.53	  407.00
     77.1700	  571.00	  612.12	-1781.54	  407.08
     77.2700	  561.00	  593.48	-1772.91	  407.15
     77.3700	  549.00	  577.97	-1769.39	  407.22
     77.4700	  521.00	  565.79	-1785.22	  407.30
     77.5700	  521.00	  556.72	-1776.15	  407.37
     77.6700	  554.00	  550.29	-1736.71	  407.44
     77.7700	  504.00	  545.91	-1782.34	  407.51
     77.8700	  506.00	  543.03	-1777.46	  407.58
     77.9700	  553.00	  541.19	-1728.62	  407.65
     78.0700	  533.00	  540.03	-1747.46	  407.71
     78.1700	  540.00	  539.30	-1739.73	  407.78
     78.2700	  526.00	  538.85	-1753.27	  407.84
     78.3700	  520.00	  538.57	-1759.00	  407.91
     78.4700	  540.00	  538.42	-1738.85	  407.97
     78.5700	  489.00	  538.37	-1789.80	  408.03
     78.6700	  510.00	  538.42	-1768.85	  408.09
     78.7700	  520.00	  538.57	-1759.00	  408.15
     78.8700	  486.00	  538.85	-1793.27	  408.21
     78.9700	  506.00	  539.28	-1773.70	  408.26
     79.0700	  519.00	  539.91	-1761.34	  408.32
     79.1700	  554.00	  540.79	-1727.22	  408.37
     79.2700	  526.00	  541.81	-1756.23	  408.42
     79.3700	  541.00	  543.38	-1742.80	  408.47
     79.4700	  570.00	  545.38	-1715.81	  408.52
     79.5700	  541.00	  547.91	-1747.33	  408.57
     79.6700	  564.00	  551.02	-1727.45	  408.62
     79.7700	  513.00	  554.83	-1782.25	  408.67
     79.8700	  510.00	  559.46	-1789.89	  408.71
     79.9700	  572.00	  565.09	-1733.51	  408.76
     80.0700	  559.00	  571.92	-1753.34	  408.80
     80.1700	  572.00	  580.22	-1748.65	  408.84
     80.2700	  575.00	  590.31	-1755.74	  408.88
     80.3700	  542.00	  602.43	-1800.86	  408.92
     80.4700	  621.00	  616.69	-1736.11	  408.96
     80.5700	  594.00	  632.90	-1779.33	  409.00
     80.6700	  595.00	  650.55	-1795.98	  409.03
     80.7700	  670.00	  668.73	-1739.16	  409.06
     80.8700	  659.00	  686.21	-1767.64	  409.10
     80.9700	  637.00	  701.57	-1805.00	  409.13
     81.0700	  718.00	  713.55	-1735.98	  409.16
     81.1700	  729.00	  721.20	-1732.62	  409.19
     81.2700	  725.00	  723.97	-1739.40	  409.21
     81.3700	  733.00	  721.74	-1729.17	  409.24
     81.4700	  779.00	  714.82	-1676.24	  409.27
     81.5700	  744.00	  703.90	-1700.32	  409.29
     81.6700	  771.00	  689.90	-1659.33	  409.31
     81.7700	  693.00	  673.81	-1721.24	  409.33
     81.8700	  646.00	  656.62	-1751.05	  409.35
     81.9700	  647.00	  639.34	-1732.76	  409.37
     82.0700	  677.00	  622.79	-1686.22	  409.39
     82.1700	  644.00	  607.74	-1704.16	  409.40
     82.2700	  628.00	  594.51	-1706.94	  409.42
     82.3700	  627.00	  583.27	-1696.70	  409.43
     82.4700	  545.00	  574.02	-1769.45	  409.44
     82.5700	  620.00	  566.67	-1687.09	  409.45
     82.6700	  604.00	  561.14	-1697.57	  409.46
     82.7700	  604.00	  557.29	-1693.71	  409.46
     82.8700	  542.00	  554.98	-1753.40	  409.47
     82.9700	  591.00	  554.10	-1703.53	  409.47
     83.0700	  572.00	  554.58	-1723.01	  409.48
     83.1700	  545.00	  556.33	-1751.75	  409.48
     83.2700	  580.00	  559.24	-1719.66	  409.48
     83.3700	  538.00	  563.16	-1765.59	  409.48
     83.4700	  555.00	  567.88	-1753.31	  409.48
     83.5700	  487.00	  573.08	-1826.50	  409.47
     83.6700	  531.00	  578.33	-1787.76	  409.47
     83.7700	  582.00	  583.15	-1741.58	  409.46
     83.8700	  540.00	  586.96	-1787.39	  409.45
     83.9700	  536.00	  589.22	-1793.65	  409.44
     84.0700	  566.00	  589.55	-1763.98	  409.43
     84.1700	  578.00	  587.85	-1750.28	  409.42
     84.2700	  551.00	  584.37	-1773.80	  409.40
     84.3700	  554.00	  579.58	-1766.00	  409.39
     84.4700	  530.00	  574.02	-1784.44	  409.37
     84.5700	  552.00	  568.20	-1756.62	  409.35
     84.6700	  574.00	  562.54	-1728.97	  409.33
     84.7700	  592.00	  557.36	-1705.79	  409.31
     84.8700	  573.00	  552.85	-1720.28	  409.29
     84.9700	  522.00	  549.12	-1767.55	  409.26
     85.0700	  518.00	  546.18	-1768.61	  409.24
     85.1700	  507.00	  543.99	-1777.42	  409.21
     85.2700	  537.00	  542.46	-1745.89	  409.18
     85.3700	  551.00	  541.50	-1730.93	  409.15
     85.4700	  501.00	  541.02	-1780.44	  409.12
     85.5700	  550.00	  540.94	-1731.36	  409.08
     85.6700	  533.00	  541.20	-1748.63	  409.05
     85.7700	  520.00	  541.80	-1762.22	  409.01
     85.8700	  549.00	  542.72	-1734.15	  408.98
     85.9700	  518.00	  544.02	-1766.44	  408.94
     86.0700	  562.00	  545.74	-1724.17	  408.90
     86.1700	  529.00	  548.00	-1759.43	  408.85
     86.2700	  532.00	  550.90	-1759.33	  408.81
     86.3700	  495.00	  554.58	-1800.01	  408.77
     86.4700	  568.00	  559.17	-1731.59	  408.72
     86.5700	  578.00	  564.77	-1727.19	  408.67
     86.6700	  580.00	  571.43	-1731.86	  408.62
     86.7700	  613.00	  579.09	-1706.52	  408.57
     86.8700	  595.00	  587.24	-1732.67	  408.52
     86.9700	  601.00	  596.13	-1735.56	  408.46
     87.0700	  612.00	  604.94	-1733.36	  408.41
     87.1700	  643.00	  612.99	-1710.42	  408.35
     87.2700	  671.00	  619.56	-1688.99	  408.29
     87.3700	  674.00	  623.90	-1690.33	  408.23
     87.4700	  660.00	  625.43	-1705.86	  408.17
     87.5700	  634.00	  623.93	-1730.36	  408.11
     87.6700	  651.00	  619.63	-1709.06	  408.04
     87.7700	  657.00	  613.14	-1696.57	  407.97
     87.8700	  620.00	  605.28	-1725.71	  407.91
     87.9700	  665.00	  596.92	-1672.35	  407.84
     88.0700	  589.00	  588.85	-1740.28	  407.77
     88.1700	  601.00	  581.74	-1721.17	  407.69
     88.2700	  582.00	  576.12	-1734.54	  407.62
     88.3700	  555.00	  572.32	-1757.74	  407.55
     88.4700	  543.00	  570.51	-1767.94	  407.47
     88.5700	  620.00	  570.71	-1691.14	  407.39
     88.6700	  599.00	  572.77	-1714.20	  407.31
     88.7700	  581.00	  576.40	-1735.83	  407.23
     88.8700	  622.00	  581.21	-1699.64	  407.15
     88.9700	  605.00	  586.70	-1722.13	  407.06
     89.0700	  590.00	  592.31	-1742.74	  406.98
     89.1700	  632.00	  597.42	-1705.85	  406.89
     89.2700	  591.00	  601.41	-1750.84	  406.80
     89.3700	  573.00	  603.72	-1771.15	  406.71
     89.4700	  617.00	  603.98	-1727.41	  406.62
     89.5700	  569.00	  602.12	-1773.55	  406.52
     89.6700	  583.00	  598.35	-1755.78	  406.43
     89.7700	  567.00	  593.10	-1766.53	  406.33
     89.8700	  615.00	  586.89	-1712.32	  406.23
     89.9700	  517.00	  580.24	-1803.67	  406.13
     90.0700	  519.00	  573.60	-1795.02	  406.03
     90.1700	  515.00	  567.32	-1792.74	  405.93
     90.2700	  500.00	  561.66	-1802.08	  405.83
     90.3700	  545.00	  556.78	-1752.20	  405.72
     90.4700	  528.00	  552.74	-1765.16	  405.61
     90.5700	  521.00	  549.54	-1768.97	  405.51
     90.6700	  571.00	  547.12	-1716.55	  405.40
     90.7700	  499.00	  545.40	-1786.82	  405.28
     90.8700	  549.00	  544.26	-1735.69	  405.17
     90.9700	  486.00	  543.63	-1798.06	  405.06
     91.0700	  513.00	  543.43	-1770.85	  404.94
     91.1700	  533.00	  543.61	-1751.04	  404.82
     91.2700	  543.00	  544.18	-1741.61	  404.70
     91.3700	  505.00	  545.17	-1780.59	  404.58
     91.4700	  542.00	  546.64	-1745.07	  404.46
     91.5700	  512.00	  548.73	-1777.15	  404.34
     91.6700	  554.00	  551.57	-1737.99	  404.21
     91.7700	  544.00	  555.35	-1751.77	  404.09
     91.8700	  516.00	  560.26	-1784.68	  403.96
     91.9700	  602.00	  566.27	-1704.70	  403.83
     92.0700	  528.00	  574.01	-1786.43	  403.70
     92.1700	  587.00	  583.36	-1736.78	  403.57
     92.2700	  609.00	  594.36	-1725.79	  403.43
     92.3700	  606.00	  606.97	-1741.39	  403.30
     92.4700	  655.00	  620.98	-1706.41	  403.16
     92.5700	  643.00	  636.11	-1733.53	  403.03
     92.6700	  671.00	  651.90	-1721.32	  402.89
     92.7700	  633.00	  667.79	-1775.22	  402.75
     92.8700	  703.00	  683.14	-1720.56	  402.60
     92.9700	  774.00	  697.28	-1663.71	  402.46
     93.0700	  764.00	  709.68	-1686.10	  402.32
     93.1700	  759.00	  720.05	-1701.48	  402.17
     93.2700	  759.00	  728.53	-1709.96	  402.02
     93.3700	  821.00	  735.59	-1655.02	  401.87
     93.4700	  774.00	  741.94	-1708.36	  401.72
     93.5700	  860.00	  748.31	-1628.73	  401.57
     93.6700	  792.00	  755.40	-1703.82	  401.42
     93.7700	  832.00	  763.81	-1672.23	  401.26
     93.8700	  831.00	  774.05	-1683.47	  401.11
     93.9700	  819.00	  786.52	-1707.95	  400.95
     94.0700	  833.00	  801.50	-1708.92	  400.79
     94.1700	  869.00	  818.97	-1690.39	  400.63
     94.2700	  902.00	  838.57	-1677.00	  400.47
     94.3700	  874.00	  859.51	-1725.94	  400.30
     94.4700	  930.00	  880.54	-1690.97	  400.14
     94.5700	  919.00	  900.00	-1721.42	  399.98
     94.6700	  962.00	  915.96	-1694.38	  399.81
     94.7700	  951.00	  926.43	-1715.85	  399.64
     94.8700	  912.00	  929.75	-1758.17	  399.47
     94.9700	  950.00	  924.96	-1715.38	  399.30
     95.0700	  939.00	  912.12	-1713.55	  399.13
     95.1700	  857.00	  892.27	-1775.70	  398.95
     95.2700	  830.00	  867.17	-1777.59	  398.78
     95.3700	  812.00	  838.86	-1767.29	  398.60
     95.4700	  819.00	  809.50	-1730.93	  398.43
     95.5700	  756.00	  781.12	-1765.54	  398.25
     95.6700	  771.00	  755.58	-1725.01	  398.07
     95.7700	  694.00	  734.58	-1781.00	  397.89
     95.8700	  720.00	  719.58	-1740.00	  397.71
     95.9700	  688.00	  711.91	-1764.33	  397.52
     96.0700	  669.00	  712.69	-1784.12	  397.34
     96.1700	  672.00	  722.88	-1791.30	  397.15
     96.2700	  759.00	  743.22	-1724.64	  396.96
     96.3700	  734.00	  774.18	-1780.61	  396.78
     96.4700	  768.00	  815.91	-1788.34	  396.59
     96.5700	  846.00	  868.10	-1762.53	  396.40
     96.6700	  943.00	  929.91	-1727.34	  396.20
     96.7700	  988.00	  999.87	-1752.30	  396.01
     96.8700	 1044.00	 1075.78	-1772.21	  395.82
     96.9700	 1183.00	 1154.72	-1712.15	  395.62
     97.0700	 1235.00	 1233.07	-1738.49	  395.42
     97.1700	 1398.00	 1306.61	-1649.03	  395.23
     97.2700	 1272.00	 1370.75	-1839.17	  395.03
     97.3700	 1352.00	 1420.84	-1809.27	  394.83
     97.4700	 1393.00	 1452.87	-1800.30	  394.63
     97.5700	 1479.00	 1464.16	-1725.59	  394.43
     97.6700	 1479.00	 1454.01	-1715.44	  394.22
     97.7700	 1437.00	 1423.81	-1727.24	  394.02
     97.8700	 1343.00	 1376.66	-1774.08	  393.81
     97.9700	 1322.00	 1316.64	-1735.07	  393.61
     98.0700	 1256.00	 1248.31	-1732.74	  393.40
     98.1700	 1154.00	 1176.03	-1762.46	  393.19
     98.2700	 1152.00	 1103.85	-1692.27	  392.98
     98.3700	 1029.00	 1035.31	-1746.74	  392.77
     98.4700	  944.00	  973.39	-1769.82	  392.56
     98.5700	  840.00	  920.46	-1820.89	  392.35
     98.6700	  889.00	  878.35	-1729.77	  392.13
     98.7700	  798.00	  848.38	-1790.81	  391.92
     98.8700	  796.00	  831.54	-1775.97	  391.70
     98.9700	  816.00	  828.46	-1752.89	  391.49
     99.0700	  781.00	  839.54	-1798.97	  391.27
     99.1700	  834.00	  864.95	-1771.38	  391.05
     99.2700	  872.00	  904.70	-1773.12	  390.83
     99.3700	  926.00	  958.55	-1772.98	  390.61
     99.4700	  999.00	 1025.99	-1767.42	  390.39
     99.5700	 1076.00	 1106.12	-1770.55	  390.17
     99.6700	 1178.00	 1197.57	-1760.00	  389.95
     99.7700	 1288.00	 1298.41	-1750.84	  389.72
     99.8700	 1401.00	 1406.05	-1745.48	  389.50
     99.9700	 1484.00	 1517.18	-1773.60	  389.27
    100.0700	 1683.00	 1627.82	-1685.24	  389.05
    100.1700	 1738.00	 1733.52	-1735.95	  388.82
    100.2700	 1979.00	 1829.77	-1591.19	  388.59
    100.3700	 1864.00	 1912.48	-1788.90	  388.36
    100.4700	 1970.00	 1978.35	-1748.78	  388.13
    100.5700	 2038.00	 2025.12	-1727.54	  387.90
    100.6700	 2221.00	 2051.32	-1570.74	  387.67
    100.7700	 2119.00	 2056.10	-1677.52	  387.44
    100.8700	 2086.00	 2039.21	-1693.63	  387.21
    100.9700	 2081.00	 2001.21	-1660.64	  386.98
    101.0700	 1968.00	 1943.85	-1716.28	  386.74
    101.1700	 1854.00	 1870.27	-1756.70	  386.51
    101.2700	 1805.00	 1784.79	-1720.21	  386.28
    101.3700	 1752.00	 1692.39	-1680.82	  386.04
    101.4700	 1601.00	 1598.17	-1737.60	  385.80
    101.5700	 1480.00	 1506.67	-1767.09	  385.57
    101.6700	 1408.00	 1421.66	-1754.08	  385.33
    101.7700	 1353.00	 1345.89	-1733.32	  385.09
    101.8700	 1278.00	 1281.00	-1743.43	  384.85
    101.9700	 1256.00	 1227.61	-1712.04	  384.61
    102.0700	 1166.00	 1185.29	-1759.71	  384.37
    102.1700	 1115.00	 1152.75	-1778.17	  384.13
    102.2700	 1146.00	 1127.97	-1722.40	  383.89
    102.3700	 1125.00	 1108.41	-1723.83	  383.65
    102.4700	 1124.00	 1091.31	-1707.74	  383.41
    102.5700	 1047.00	 1074.01	-1767.43	  383.17
    102.6700	 1052.00	 1054.29	-1742.72	  382.93
    102.7700	 1013.00	 1030.70	-1758.13	  382.68
    102.8700	  989.00	 1002.61	-1754.04	  382.44
    102.9700	  951.00	  970.21	-1759.64	  382.20
    103.0700	  946.00	  934.27	-1728.70	  381.95
    103.1700	  847.00	  895.90	-1789.33	  381.71
    103.2700	  927.00	  856.34	-1669.77	  381.46
    103.3700	  850.00	  816.85	-1707.27	  381.22
    103.4700	  855.00	  778.54	-1663.97	  380.97
    103.5700	  743.00	  742.40	-1739.83	  380.73
    103.6700	  722.00	  709.18	-1727.61	  380.48
    103.7700	  654.00	  679.40	-1765.82	  380.24
    103.8700	  645.00	  653.35	-1748.78	  379.99
    103.9700	  642.00	  631.15	-1729.57	  379.74
    104.0700	  610.00	  612.69	-1743.12	  379.50
    104.1700	  614.00	  597.76	-1724.19	  379.25
    104.2700	  559.00	  586.04	-1767.46	  379.00
    104.3700	  555.00	  577.15	-1762.57	  378.76
    104.4700	  529.00	  570.70	-1782.12	  378.51
    104.5700	  528.00	  566.30	-1778.72	  378.26
    104.6700	  563.00	  563.59	-1741.02	  378.01
    104.7700	  562.00	  562.24	-1740.67	  377.77
    104.8700	  555.00	  561.96	-1747.39	  377.52
    104.9700	  569.00	  562.53	-1733.96	  377.27
    105.0700	  552.00	  563.74	-1752.17	  377.02
    105.1700	  540.00	  565.44	-1765.86	  376.77
    105.2700	  540.00	  567.50	-1767.92	  376.53
    105.3700	  522.00	  569.87	-1788.30	  376.28
    105.4700	  552.00	  572.52	-1760.95	  376.03
    105.5700	  572.00	  575.47	-1743.90	  375.78
    105.6700	  540.00	  578.78	-1779.21	  375.54
    105.7700	  594.00	  582.56	-1728.99	  375.29
    105.8700	  569.00	  586.93	-1758.36	  375.04
    105.9700	  548.00	  592.03	-1784.45	  374.80
    106.0700	  564.00	  597.95	-1774.37	  374.55
    106.1700	  533.00	  604.75	-1812.18	  374.30
    106.2700	  582.00	  612.44	-1770.87	  374.06
    106.3700	  596.00	  620.95	-1765.38	  373.81
    106.4700	  671.00	  630.13	-1699.56	  373.56
    106.5700	  601.00	  639.78	-1779.21	  373.32
    106.6700	  604.00	  649.61	-1786.03	  373.07
    106.7700	  605.00	  659.26	-1794.69	  372.83
    106.8700	  584.00	  668.36	-1824.79	  372.59
    106.9700	  677.00	  676.49	-1739.92	  372.34
    107.0700	  661.00	  683.27	-1762.70	  372.10
    107.1700	  683.00	  688.39	-1745.81	  371.85
    107.2700	  689.00	  691.64	-1743.07	  371.61
    107.3700	  669.00	  693.02	-1764.45	  371.37
    107.4700	  666.00	  692.68	-1767.11	  371.13
    107.5700	  667.00	  690.95	-1764.37	  370.89
    107.6700	  634.00	  688.22	-1794.65	  370.65
    107.7700	  658.00	  684.97	-1767.39	  370.41
    107.8700	  690.00	  681.61	-1732.04	  370.17
    107.9700	  680.00	  678.53	-1738.95	  369.93
    108.0700	  679.00	  675.99	-1737.42	  369.69
    108.1700	  732.00	  674.18	-1682.61	  369.45
    108.2700	  692.00	  673.14	-1721.57	  369.22
    108.3700	  663.00	  672.83	-1750.26	  368.98
    108.4700	  651.00	  673.07	-1762.50	  368.75
    108.5700	  699.00	  673.60	-1715.03	  368.51
    108.6700	  699.00	  674.08	-1715.51	  368.28
    108.7700	  657.00	  674.13	-1757.56	  368.05
    108.8700	  682.00	  673.37	-1731.80	  367.81
    108.9700	  684.00	  671.50	-1727.93	  367.58
    109.0700	  677.00	  668.27	-1731.70	  367.35
    109.1700	  639.00	  663.59	-1765.02	  367.12
    109.2700	  704.00	  657.51	-1693.93	  366.90
    109.3700	  650.00	  650.17	-1740.59	  366.67
    109.4700	  682.00	  641.82	-1700.25	  366.44
    109.5700	  635.00	  632.75	-1738.18	  366.22
    109.6700	  615.00	  623.28	-1748.70	  365.99
    109.7700	  606.00	  613.69	-1748.12	  365.77
    109.8700	  598.00	  604.28	-1746.71	  365.55
    109.9700	  642.00	  595.29	-1693.71	  365.33
    110.0700	  563.00	  586.91	-1764.34	  365.11
    110.1700	  595.00	  579.30	-1724.73	  364.89
    110.2700	  618.00	  572.58	-1695.00	  364.67
    110.3700	  578.00	  566.79	-1729.22	  364.46
    110.4700	  529.00	  561.96	-1773.38	  364.24
    110.5700	  554.00	  558.06	-1744.48	  364.03
    110.6700	  591.00	  555.05	-1704.47	  363.82
    110.7700	  569.00	  552.86	-1724.29	  363.61
    110.8700	  541.00	  551.41	-1750.84	  363.40
    110.9700	  569.00	  550.62	-1722.05	  363.19
    111.0700	  574.00	  550.40	-1716.83	  362.98
    111.1700	  541.00	  550.67	-1750.10	  362.78
    111.2700	  555.00	  551.37	-1736.79	  362.58
    111.3700	  546.00	  552.42	-1746.84	  362.38
    111.4700	  604.00	  553.77	-1690.20	  362.18
    111.5700	  564.00	  555.39	-1731.82	  361.98
    111.6700	  518.00	  557.25	-1779.68	  361.78
    111.7700	  562.00	  559.31	-1737.74	  361.59
    111.8700	  559.00	  561.58	-1743.01	  361.39
    111.9700	  593.00	  564.04	-1711.46	  361.20
    112.0700	  543.00	  566.70	-1764.13	  361.01
    112.1700	  564.00	  569.57	-1746.00	  360.82
    112.2700	  542.00	  572.69	-1771.11	  360.64
    112.3700	  570.00	  576.06	-1746.49	  360.45
    112.4700	  568.00	  579.75	-1752.18	  360.27
    112.5700	  619.00	  583.80	-1705.22	  360.09
    112.6700	  607.00	  588.28	-1721.70	  359.91
    112.7700	  644.00	  593.27	-1689.70	  359.73
    112.8700	  660.00	  598.90	-1679.33	  359.56
    112.9700	  649.00	  605.31	-1696.73	  359.39
    113.0700	  665.00	  612.69	-1688.12	  359.22
    113.1700	  689.00	  621.29	-1672.71	  359.05
    113.2700	  752.00	  631.44	-1619.86	  358.88
    113.3700	  756.00	  643.54	-1627.97	  358.72
    113.4700	  794.00	  658.11	-1604.54	  358.56
    113.5700	  820.00	  675.79	-1596.22	  358.40
    113.6700	  870.00	  697.39	-1567.82	  358.24
    113.7700	  889.00	  723.87	-1575.30	  358.09
    113.8700	 1009.00	  756.40	-1487.82	  357.93
    113.9700	  937.00	  796.33	-1599.75	  357.78
    114.0700	 1033.00	  845.26	-1552.69	  357.64
    114.1700	 1135.00	  905.01	-1510.44	  357.49
    114.2700	 1159.00	  977.57	-1559.00	  357.35
    114.3700	 1255.00	 1065.12	-1550.54	  357.21
    114.4700	 1356.00	 1169.93	-1554.35	  357.07
    114.5700	 1507.00	 1294.36	-1527.78	  356.93
    114.6700	 1623.00	 1440.72	-1558.15	  356.80
    114.7700	 1749.00	 1611.14	-1602.56	  356.67
    114.8700	 1931.00	 1807.44	-1616.87	  356.55
    114.9700	 2161.00	 2031.00	-1610.42	  356.42
    115.0700	 2297.00	 2282.61	-1726.04	  356.30
    115.1700	 2612.00	 2562.37	-1690.80	  356.18
    115.2700	 2934.00	 2869.35	-1675.78	  356.07
    115.3700	 3178.00	 3201.66	-1764.08	  355.95
    115.4700	 3449.00	 3556.18	-1847.61	  355.84
    115.5700	 3748.00	 3928.73	-1921.16	  355.74
    115.6700	 4079.00	 4313.91	-1975.33	  355.63
    115.7700	 4497.00	 4704.95	-1948.37	  355.53
    115.8700	 4776.00	 5093.96	-2058.39	  355.43
    115.9700	 5153.00	 5471.94	-2059.37	  355.34
    116.0700	 5694.00	 5829.04	-1875.47	  355.25
    116.1700	 5913.00	 6154.75	-1982.18	  355.16
    116.2700	 6372.00	 6438.20	-1806.63	  355.07
    116.3700	 6671.00	 6668.90	-1738.32	  354.99
    116.4700	 6749.00	 6837.44	-1828.86	  354.91
    116.5700	 6944.00	 6936.53	-1732.96	  354.84
    116.6700	 6912.00	 6961.70	-1790.13	  354.77
    116.7700	 6887.00	 6911.93	-1765.36	  354.70
    116.8700	 6800.00	 6789.81	-1730.24	  354.63
    116.9700	 6693.00	 6601.22	-1648.65	  354.57
    117.0700	 6344.00	 6354.48	-1750.91	  354.52
    117.1700	 6147.00	 6059.49	-1652.92	  354.46
    117.2700	 5658.00	 5726.95	-1809.38	  354.41
    117.3700	 5326.00	 5367.56	-1781.99	  354.36
    117.4700	 5062.00	 4991.59	-1670.02	  354.32
    117.5700	 4630.00	 4608.39	-1718.82	  354.28
    117.6700	 4417.00	 4226.26	-1549.69	  354.25
    117.7700	 4078.00	 3852.47	-1514.90	  354.21
    117.8700	 3716.00	 3493.03	-1517.45	  354.19
    117.9700	 3297.00	 3152.72	-1596.15	  354.16
    118.0700	 3012.00	 2835.06	-1563.48	  354.14
    118.1700	 2601.00	 2542.38	-1681.81	  354.13
    118.2700	 2323.00	 2276.12	-1693.54	  354.12
    118.3700	 2046.00	 2036.70	-1731.12	  354.11
    118.4700	 1761.00	 1823.81	-1803.24	  354.10
    118.5700	 1529.00	 1636.45	-1847.87	  354.10
    118.6700	 1392.00	 1473.11	-1821.54	  354.11
    118.7700	 1239.00	 1332.03	-1833.45	  354.12
    118.8700	 1067.00	 1211.15	-1884.57	  354.13
    118.9700	  977.00	 1108.36	-1871.78	  354.15
    119.0700	  945.00	 1021.48	-1816.91	  354.17
    119.1700	  832.00	  948.45	-1856.88	  354.20
    119.2700	  826.00	  887.33	-1801.76	  354.23
    119.3700	  748.00	  836.34	-1828.77	  354.27
    119.4700	  754.00	  793.90	-1780.33	  354.31
    119.5700	  696.00	  758.62	-1803.04	  354.35
    119.6700	  594.00	  729.28	-1875.71	  354.40
    119.7700	  656.00	  704.89	-1789.31	  354.46
    119.8700	  620.00	  684.57	-1805.00	  354.51
    119.9700	  590.00	  667.63	-1818.06	  354.58
    120.0700	  547.00	  653.48	-1846.91	  354.65
    120.1700	  602.00	  641.66	-1780.08	  354.72
    120.2700	  565.00	  631.77	-1807.20	  354.80
    120.3700	  537.00	  623.52	-1826.94	  354.88
    120.4700	  598.00	  616.66	-1759.09	  354.97
    120.5700	  560.00	  611.00	-1791.43	  355.07
    120.6700	  583.00	  606.39	-1763.82	  355.16
    120.7700	  489.00	  602.72	-1854.14	  355.27
    120.8700	  622.00	  599.88	-1718.31	  355.38
    120.9700	  581.00	  597.82	-1757.25	  355.49
    121.0700	  574.00	  596.47	-1762.90	  355.61
    121.1700	  554.00	  595.79	-1782.22	  355.74
    121.2700	  570.00	  595.74	-1766.17	  355.87
    121.3700	  573.00	  596.27	-1763.70	  356.01
    121.4700	  593.00	  597.35	-1744.77	  356.15
    121.5700	  576.00	  598.92	-1763.34	  356.29
    121.6700	  573.00	  600.93	-1768.36	  356.45
    121.7700	  595.00	  603.33	-1748.75	  356.61
    121.8700	  614.00	  606.01	-1732.44	  356.77
    121.9700	  576.00	  608.95	-1773.38	  356.94
    122.0700	  625.00	  612.04	-1727.46	  357.12
    122.1700	  606.00	  615.17	-1749.60	  357.30
    122.2700	  625.00	  618.25	-1733.68	  357.49
    122.3700	  678.00	  621.17	-1683.60	  357.68
    122.4700	  637.00	  623.82	-1727.25	  357.88
    122.5700	  617.00	  626.10	-1749.53	  358.09
    122.6700	  663.00	  627.92	-1705.35	  358.30
    122.7700	  659.00	  629.20	-1710.63	  358.52
    122.8700	  659.00	  629.88	-1711.31	  358.74
    122.9700	  645.00	  629.93	-1725.36	  358.97
    123.0700	  652.00	  629.35	-1717.77	  359.21
    123.1700	  666.00	  628.14	-1702.57	  359.45
    123.2700	  594.00	  626.37	-1772.80	  359.70
    123.3700	  645.00	  624.08	-1719.51	  359.96
    123.4700	  628.00	  621.34	-1733.77	  360.22
    123.5700	  655.00	  618.24	-1703.66	  360.49
    123.6700	  627.00	  614.83	-1728.26	  360.77
    123.7700	  655.00	  611.21	-1696.64	  361.05
    123.8700	  654.00	  607.45	-1693.87	  361.34
    123.9700	  638.00	  603.61	-1706.04	  361.64
    124.0700	  638.00	  599.77	-1702.19	  361.94
    124.1700	  578.00	  595.98	-1758.40	  362.25
    124.2700	  623.00	  592.28	-1709.71	  362.57
    124.3700	  601.00	  588.73	-1728.16	  362.90
    124.4700	  632.00	  585.36	-1693.79	  363.23
    124.5700	  626.00	  582.19	-1696.62	  363.57
    124.6700	  623.00	  579.24	-1696.67	  363.91
    124.7700	  583.00	  576.54	-1733.96	  364.27
    124.8700	  566.00	  574.08	-1748.51	  364.63
    124.9700	  591.00	  483.03	-1632.46	  365.00
    125.0700	  578.00	  483.41	-1740.43	  365.37
    125.1700	  543.00	  483.79	-1740.43	  365.75
    125.2700	  577.00	  484.18	-1740.43	  366.15
    125.3700	  566.00	  484.58	-1740.43	  366.54
    125.4700	  597.00	  484.98	-1740.43	  366.95
    125.5700	  542.00	  485.40	-1740.43	  367.36
    125.6700	  632.00	  485.82	-1740.43	  367.78
    125.7700	  552.00	  486.25	-1740.43	  368.21
    125.8700	  551.00	  486.69	-1740.43	  368.65
    125.9700	  660.00	  487.13	-1740.43	  369.10
    126.0700	  564.00	  487.59	-1740.43	  369.55
    126.1700	  552.00	  488.05	-1740.43	  370.01
    126.2700	  581.00	  488.52	-1740.43	  370.48
    126.3700	  604.00	  488.99	-1740.43	  370.96
    126.4700	  616.00	  489.48	-1740.43	  371.45
    126.5700	  566.00	  489.97	-1740.43	  371.94
    126.6700	  639.00	  490.48	-1740.43	  372.44
    126.7700	  612.00	  490.99	-1740.43	  372.95
    126.8700	  617.00	  491.51	-1740.43	  373.47
    126.9700	  631.00	  492.04	-1740.43	  374.00
    127.0700	  667.00	  492.57	-1740.43	  374.54
    127.1700	  647.00	  493.12	-1740.43	  375.08
    127.2700	  676.00	  493.67	-1740.43	  375.64
    127.3700	  648.00	  494.24	-1740.43	  376.20
    127.4700	  681.00	  494.81	-1740.43	  376.77
    127.5700	  660.00	  495.39	-1740.43	  377.36
    127.6700	  697.00	  495.98	-1740.43	  377.95
    127.7700	  716.00	  496.58	-1740.43	  378.55
    127.8700	  698.00	  497.19	-1740.43	  379.15
    127.9700	  681.00	  497.81	-1740.43	  379.77
    128.0700	  747.00	  498.43	-1740.43	  380.40
    128.1700	  759.00	  499.07	-1740.43	  381.03
    128.2700	  757.00	  499.71	-1740.43	  381.68
    128.3700	  789.00	  500.37	-1740.43	  382.34
    128.4700	  833.00	  501.03	-1740.43	  383.00
    128.5700	    0.00	  501.71	-1740.43	  383.67
    128.6700	    0.00	  502.39	-1740.43	  384.36
     12.3095	        	        	        	        	       0	(  0  0  2)	  0  1
     24.8916	        	        	        	        	       0	(  0  0  4)	  0  1
     28.3343	        	        	        	        	       0	(  1  0  0)	  0  1
     29.0315	        	        	        	        	       0	(  1  0  1)	  0  1
     31.0374	        	        	        	        	       0	(  1  0  2)	  0  1
     34.1454	        	        	        	        	       0	(  1  0  3)	  0  1
     37.7896	        	        	        	        	       0	(  0  0  6)	  0  1
     38.1220	        	        	        	        	       0	(  1  0  4)	  0  1
     42.7715	        	        	        	        	       0	(  1  0  5)	  0  1
     47.9549	        	        	        	        	       0	(  1  0  6)	  0  1
     50.2702	        	        	        	        	       0	(  1  1  0)	  0  1
     51.2097	        	        	        	        	       0	(  0  0  8)	  0  1
     51.9930	        	        	        	        	       0	(  1  1  2)	  0  1
     53.5846	        	        	        	        	       0	(  1  0  7)	  0  1
     56.9402	        	        	        	        	       0	(  1  1  4)	  0  1
     58.7668	        	        	        	        	       0	(  2  0  0)	  0  1
     59.1583	        	        	        	        	       0	(  2  0  1)	  0  1
     59.6141	        	        	        	        	       0	(  1  0  8)	  0  1
     60.3235	        	        	        	        	       0	(  2  0  2)	  0  1
     62.2365	        	        	        	        	       0	(  2  0  3)	  0  1
     64.6337	        	        	        	        	       0	(  1  1  6)	  0  1
     64.8601	        	        	        	        	       0	(  2  0  4)	  0  1
     65.4367	        	        	        	        	       0	(  0  0 10)	  0  1
     66.0295	        	        	        	        	       0	(  1  0  9)	  0  1
     68.1539	        	        	        	        	       0	(  2  0  5)	  0  1
     72.0807	        	        	        	        	       0	(  2  0  6)	  0  1
     72.8444	        	        	        	        	       0	(  1  0 10)	  0  1
     74.6698	        	        	        	        	       0	(  1  1  8)	  0  1
     76.6141	        	        	        	        	       0	(  2  0  7)	  0  1
     80.1007	        	        	        	        	       0	(  1  0 11)	  0  1
     80.9143	        	        	        	        	       0	(  0  0 12)	  0  1
     81.0066	        	        	        	        	       0	(  2  1  0)	  0  1
     81.3464	        	        	        	        	       0	(  2  1  1)	  0  1
     81.7434	        	        	        	        	       0	(  2  0  8)	  0  1
     82.3641	        	        	        	        	       0	(  2  1  2)	  0  1
     84.0551	        	        	        	        	       0	(  2  1  3)	  0  1
     86.4143	        	        	        	        	       0	(  2  1  4)	  0  1
     86.9389	        	        	        	        	       0	(  1  1 10)	  0  1
     87.4803	        	        	        	        	       0	(  2  0  9)	  0  1
     87.8734	        	        	        	        	       0	(  1  0 12)	  0  1
     89.4395	        	        	        	        	       0	(  2  1  5)	  0  1
     93.1362	        	        	        	        	       0	(  2  1  6)	  0  1
     93.8664	        	        	        	        	       0	(  2  0 10)	  0  1
     94.8944	        	        	        	        	       0	(  3  0  0)	  0  1
     95.2317	        	        	        	        	       0	(  3  0  1)	  0  1
     96.2447	        	        	        	        	       0	(  3  0  2)	  0  1
     96.2847	        	        	        	        	       0	(  1  0 13)	  0  1
     97.5239	        	        	        	        	       0	(  2  1  7)	  0  1
     97.9377	        	        	        	        	       0	(  3  0  3)	  0  1
     98.4496	        	        	        	        	       0	(  0  0 14)	  0  1
    100.3202	        	        	        	        	       0	(  3  0  4)	  0  1
    100.9865	        	        	        	        	       0	(  2  0 11)	  0  1
    101.8058	        	        	        	        	       0	(  1  1 12)	  0  1
    102.6451	        	        	        	        	       0	(  2  1  8)	  0  1
    103.4110	        	        	        	        	       0	(  3  0  5)	  0  1
    105.5348	        	        	        	        	       0	(  1  0 14)	  0  1
    107.2452	        	        	        	        	       0	(  3  0  6)	  0  1
    108.5804	        	        	        	        	       0	(  2  1  9)	  0  1
    108.9956	        	        	        	        	       0	(  2  0 12)	  0  1
    111.8843	        	        	        	        	       0	(  3  0  7)	  0  1
    115.4753	        	        	        	        	       0	(  2  1 10)	  0  1
    115.9749	        	        	        	        	       0	(  1  0 15)	  0  1
    116.6172	        	        	        	        	       0	(  2  2  0)	  0  1
    117.4361	        	        	        	        	       0	(  3  0  8)	  0  1
    118.1320	        	        	        	        	       0	(  2  2  2)	  0  1
    118.1771	        	        	        	        	       0	(  2  0 13)	  0  1
    119.9311	        	        	        	        	       0	(  0  0 16)	  0  1
    120.6441	        	        	        	        	       0	(  1  1 14)	  0  1
    122.8161	        	        	        	        	       0	(  2  2  4)	  0  1
    123.5996	        	        	        	        	       0	(  2  1 11)	  0  1
    124.0939	        	        	        	        	       0	(  3  0  9)	  0  1
    124.6813	        	        	        	        	       0	(  3  1  0)	  0  1
    125.0914	        	        	        	        	       0	(  3  1  1)	  0  1
    126.3344	        	        	        	        	       0	(  3  1  2)	  0  1
    128.3135	        	        	        	        	       0	(  1  0 16)	  0  1
    128.4520	        	        	        	        	       0	(  3  1  3)	  0  1
    129.1029	        	        	        	        	       0	(  2  0 14)	  0  1
    131.2531	        	        	        	        	       0	(  2  2  6)	  0  1
    131.5268	        	        	        	        	       0	(  3  1  4)	  0  1
    132.2316	        	        	        	        	       0	(  3  0 10)	  0  1
    133.5081	        	        	        	        	       0	(  2  1 12)	  0  1
    135.7123	        	        	        	        	       0	(  3  1  5)	  0  1
    141.3053	        	        	        	        	       0	(  3  1  6)	  0  1
    142.7056	        	        	        	        	       0	(  3  0 11)	  0  1
    143.2364	        	        	        	        	       0	(  2  0 15)	  0  1
    144.4755	        	        	        	        	       0	(  1  0 17)	  0  1
    145.4809	        	        	        	        	       0	(  2  2  8)	  0  1
    146.6574	        	        	        	        	       0	(  2  1 13)	  0  1
    148.9745	        	        	        	        	       0	(  3  1  7)	  0  1
    149.5668	        	        	        	        	       0	(  1  1 16)	  0  1
    153.9660	        	        	        	        	       0	(  0  0 18)	  0  1
    158.5739	        	        	        	        	       0	(  3  0 12)	  0  1
    158.8263	        	        	        	        	       0	(  4  0  0)	  0  1
    159.7823	        	        	        	        	       0	(  4  0  1)	  0  1
    160.9586	        	        	        	        	       0	(  3  1  8)	  0  1
    162.9573	        	        	        	        	       0	(  4  0  2)	  0  1
    169.6576	        	        	        	        	       0	(  2  0 16)	  0  1
    170.2876	        	        	        	        	       0	(  4  0  3)	  0  1
    174.0699	        	        	        	        	       0	(  2  1 14)	  0  1
