MSG Master    CELL:    5.89703   5.89703  23.16695   90.0000   90.0000  120.0000   SPGR: P 63/m m c             TEMP:    747.15
  1   1280     2.52000     0.00000    -0.13343     0.00000     0.00000    0
    96     0     2
       0.00000      10.00000
     125.00000     130.00000
 2Theta	Yobs	Ycal	Yobs-Ycal	Backg	Posr	(hkl)	K
      0.7700	    0.00	  468.22	-1796.75	  353.69
      0.8700	    0.00	  470.75	-1796.75	  356.22
      0.9700	   37.00	  473.24	-1796.75	  358.71
      1.0700	   44.00	  475.71	-1796.75	  361.18
      1.1700	   26.00	  478.16	-1796.75	  363.63
      1.2700	   38.00	  480.58	-1796.75	  366.05
      1.3700	   51.00	  482.98	-1796.75	  368.45
      1.4700	  102.00	  485.35	-1796.75	  370.82
      1.5700	  318.00	  487.69	-1796.75	  373.16
      1.6700	  476.00	  490.02	-1796.75	  375.49
      1.7700	  535.00	  492.31	-1796.75	  377.78
      1.8700	  665.00	  494.59	-1796.75	  380.06
      1.9700	  724.00	  496.84	-1796.75	  382.31
      2.0700	  797.00	  499.06	-1796.75	  384.53
      2.1700	  791.00	  501.27	-1796.75	  386.74
      2.2700	  748.00	  503.45	-1796.75	  388.91
      2.3700	  689.00	  505.60	-1796.75	  391.07
      2.4700	  688.00	  507.73	-1796.75	  393.20
      2.5700	  716.00	  509.84	-1796.75	  395.31
      2.6700	  659.00	  511.93	-1796.75	  397.40
      2.7700	  665.00	  513.99	-1796.75	  399.46
      2.8700	  637.00	  516.03	-1796.75	  401.50
      2.9700	  636.00	  518.05	-1796.75	  403.52
      3.0700	  586.00	  520.04	-1796.75	  405.51
      3.1700	  610.00	  522.01	-1796.75	  407.48
      3.2700	  716.00	  523.96	-1796.75	  409.43
      3.3700	  838.00	  525.89	-1796.75	  411.36
      3.4700	  945.00	  527.80	-1796.75	  413.27
      3.5700	 1117.00	  529.68	-1796.75	  415.15
      3.6700	 1269.00	  531.55	-1796.75	  417.02
      3.7700	 1272.00	  533.39	-1796.75	  418.86
      3.8700	 1440.00	  535.21	-1796.75	  420.68
      3.9700	 1466.00	  537.00	-1796.75	  422.47
      4.0700	 1517.00	  538.78	-1796.75	  424.25
      4.1700	 1582.00	  540.54	-1796.75	  426.01
      4.2700	 1554.00	  542.27	-1796.75	  427.74
      4.3700	 1612.00	  543.99	-1796.75	  429.46
      4.4700	 1525.00	  545.68	-1796.75	  431.15
      4.5700	 1460.00	  547.36	-1796.75	  432.83
      4.6700	 1406.00	  549.01	-1796.75	  434.48
      4.7700	 1378.00	  550.64	-1796.75	  436.11
      4.8700	 1358.00	  552.26	-1796.75	  437.73
      4.9700	 1257.00	  553.85	-1796.75	  439.32
      5.0700	 1204.00	  555.42	-1796.75	  440.89
      5.1700	 1203.00	  556.97	-1796.75	  442.44
      5.2700	 1215.00	  558.51	-1796.75	  443.98
      5.3700	 1143.00	  560.02	-1796.75	  445.49
      5.4700	 1055.00	  561.52	-1796.75	  446.99
      5.5700	 1148.00	  562.99	-1796.75	  448.46
      5.6700	 1106.00	  564.45	-1796.75	  449.92
      5.7700	 1070.00	  565.89	-1796.75	  451.36
      5.8700	 1005.00	  567.31	-1796.75	  452.78
      5.9700	 1048.00	  568.71	-1796.75	  454.18
      6.0700	  980.00	  570.09	-1796.75	  455.56
      6.1700	  999.00	  571.45	-1796.75	  456.92
      6.2700	  924.00	  572.80	-1796.75	  458.27
      6.3700	  908.00	  574.12	-1796.75	  459.59
      6.4700	  901.00	  575.43	-1796.75	  460.90
      6.5700	  953.00	  576.72	-1796.75	  462.19
      6.6700	  887.00	  578.00	-1796.75	  463.47
      6.7700	  867.00	  579.25	-1796.75	  464.72
      6.8700	  845.00	  580.49	-1796.75	  465.96
      6.9700	  851.00	  581.71	-1796.75	  467.18
      7.0700	  801.00	  582.91	-1796.75	  468.38
      7.1700	  814.00	  584.10	-1796.75	  469.57
      7.2700	  834.00	  585.26	-1796.75	  470.73
      7.3700	  828.00	  586.41	-1796.75	  471.88
      7.4700	  804.00	  587.55	-1796.75	  473.02
      7.5700	  727.00	  588.67	-1796.75	  474.14
      7.6700	  794.00	  589.77	-1796.75	  475.24
      7.7700	  737.00	  590.85	-1796.75	  476.32
      7.8700	  687.00	  591.92	-1796.75	  477.39
      7.9700	  758.00	  592.97	-1796.75	  478.44
      8.0700	  712.00	  594.00	-1796.75	  479.47
      8.1700	  684.00	  595.02	-1796.75	  480.49
      8.2700	  707.00	  596.03	-1796.75	  481.50
      8.3700	  700.00	  597.01	-1796.75	  482.48
      8.4700	  729.00	  597.98	-1796.75	  483.45
      8.5700	  741.00	  598.94	-1796.75	  484.41
      8.6700	  712.00	  599.88	-1796.75	  485.35
      8.7700	  726.00	  600.81	-1796.75	  486.28
      8.8700	  703.00	  601.72	-1796.75	  487.18
      8.9700	  675.00	  602.61	-1796.75	  488.08
      9.0700	  708.00	  603.49	-1796.75	  488.96
      9.1700	  619.00	  604.35	-1796.75	  489.82
      9.2700	  686.00	  605.20	-1796.75	  490.67
      9.3700	  676.00	  606.04	-1796.75	  491.51
      9.4700	  679.00	  606.86	-1796.75	  492.33
      9.5700	  710.00	  607.66	-1796.75	  493.13
      9.6700	  672.00	  608.45	-1796.75	  493.92
      9.7700	  656.00	  609.23	-1796.75	  494.70
      9.8700	  680.00	  609.99	-1796.75	  495.46
      9.9700	  665.00	  610.74	-1796.75	  496.21
     10.0700	  670.00	  613.35	-1740.10	  496.94
     10.1700	  709.00	  614.29	-1702.04	  497.66
     10.2700	  678.00	  615.26	-1734.01	  498.37
     10.3700	  678.00	  616.29	-1735.04	  499.06
     10.4700	  688.00	  617.41	-1726.16	  499.74
     10.5700	  621.00	  618.67	-1794.42	  500.41
     10.6700	  681.00	  620.16	-1735.91	  501.06
     10.7700	  638.00	  621.98	-1780.73	  501.70
     10.8700	  696.00	  624.21	-1724.96	  502.32
     10.9700	  678.00	  626.91	-1745.66	  502.94
     11.0700	  668.00	  630.09	-1758.84	  503.54
     11.1700	  669.00	  633.75	-1761.50	  504.12
     11.2700	  635.00	  637.94	-1799.69	  504.70
     11.3700	  672.00	  642.72	-1767.47	  505.26
     11.4700	  664.00	  648.24	-1780.99	  505.81
     11.5700	  630.00	  654.71	-1821.46	  506.34
     11.6700	  686.00	  662.44	-1773.19	  506.87
     11.7700	  698.00	  671.83	-1770.58	  507.38
     11.8700	  719.00	  683.19	-1760.94	  507.88
     11.9700	  768.00	  696.33	-1725.08	  508.37
     12.0700	  723.00	  709.84	-1783.59	  508.84
     12.1700	  717.00	  720.37	-1800.12	  509.31
     12.2700	  725.00	  722.45	-1794.20	  509.76
     12.3700	  750.00	  711.73	-1758.48	  510.20
     12.4700	  753.00	  691.90	-1735.65	  510.63
     12.5700	  699.00	  671.87	-1769.62	  511.04
     12.6700	  638.00	  656.58	-1815.33	  511.45
     12.7700	  602.00	  646.56	-1841.31	  511.84
     12.8700	  633.00	  640.60	-1804.35	  512.23
     12.9700	  600.00	  637.23	-1833.98	  512.60
     13.0700	  629.00	  635.31	-1803.06	  512.96
     13.1700	  654.00	  634.15	-1776.90	  513.31
     13.2700	  611.00	  633.41	-1819.16	  513.65
     13.3700	  675.00	  632.93	-1754.68	  513.98
     13.4700	  679.00	  632.62	-1750.37	  514.29
     13.5700	  657.00	  632.46	-1772.21	  514.60
     13.6700	  607.00	  632.35	-1822.10	  514.90
     13.7700	  627.00	  632.30	-1802.05	  515.18
     13.8700	  587.00	  632.30	-1842.05	  515.46
     13.9700	  664.00	  632.34	-1765.09	  515.72
     14.0700	  637.00	  632.39	-1792.15	  515.98
     14.1700	  618.00	  632.47	-1811.22	  516.23
     14.2700	  616.00	  632.56	-1813.31	  516.46
     14.3700	  638.00	  632.66	-1791.41	  516.69
     14.4700	  622.00	  632.77	-1807.52	  516.90
     14.5700	  612.00	  632.88	-1817.63	  517.11
     14.6700	  570.00	  632.99	-1859.74	  517.31
     14.7700	  644.00	  633.10	-1785.85	  517.49
     14.8700	  591.00	  633.21	-1838.96	  517.67
     14.9700	  575.00	  633.32	-1855.07	  517.84
     15.0700	  603.00	  633.43	-1827.18	  518.00
     15.1700	  624.00	  633.53	-1806.28	  518.15
     15.2700	  589.00	  633.63	-1841.38	  518.29
     15.3700	  661.00	  633.72	-1769.47	  518.42
     15.4700	  633.00	  633.81	-1797.56	  518.54
     15.5700	  602.00	  633.89	-1828.64	  518.66
     15.6700	  586.00	  633.96	-1844.71	  518.76
     15.7700	  591.00	  634.03	-1839.78	  518.86
     15.8700	  593.00	  634.10	-1837.85	  518.95
     15.9700	  594.00	  634.15	-1836.90	  519.03
     16.0700	  603.00	  634.20	-1827.95	  519.10
     16.1700	  629.00	  634.25	-1802.00	  519.16
     16.2700	  593.00	  634.28	-1838.03	  519.22
     16.3700	  633.00	  634.31	-1798.06	  519.26
     16.4700	  616.00	  634.34	-1815.09	  519.30
     16.5700	  608.00	  634.35	-1823.10	  519.33
     16.6700	  581.00	  634.36	-1850.11	  519.35
     16.7700	  584.00	  634.37	-1847.12	  519.37
     16.8700	  618.00	  634.36	-1813.11	  519.38
     16.9700	  633.00	  634.35	-1798.10	  519.38
     17.0700	  606.00	  634.33	-1825.08	  519.37
     17.1700	  589.00	  634.31	-1842.06	  519.35
     17.2700	  602.00	  634.28	-1829.03	  519.33
     17.3700	  549.00	  634.37	-1882.12	  519.30
     17.4700	  601.00	  634.33	-1830.08	  519.26
     17.5700	  618.00	  634.28	-1813.03	  519.21
     17.6700	  590.00	  634.23	-1840.98	  519.16
     17.7700	  631.00	  634.16	-1799.91	  519.10
     17.8700	  578.00	  634.25	-1853.00	  519.04
     17.9700	  641.00	  634.18	-1789.93	  518.96
     18.0700	  614.00	  634.10	-1816.85	  518.88
     18.1700	  624.00	  634.02	-1806.77	  518.79
     18.2700	  607.00	  633.93	-1823.68	  518.70
     18.3700	  627.00	  633.83	-1803.58	  518.60
     18.4700	  575.00	  633.73	-1855.48	  518.49
     18.5700	  619.00	  633.62	-1811.37	  518.38
     18.6700	  594.00	  633.51	-1836.26	  518.26
     18.7700	  627.00	  633.39	-1803.14	  518.13
     18.8700	  630.00	  633.26	-1800.01	  518.00
     18.9700	  621.00	  633.13	-1808.88	  517.86
     19.0700	  593.00	  633.00	-1836.75	  517.72
     19.1700	  631.00	  632.85	-1798.60	  517.57
     19.2700	  599.00	  632.71	-1830.46	  517.41
     19.3700	  592.00	  632.55	-1837.30	  517.25
     19.4700	  575.00	  632.45	-1854.20	  517.08
     19.5700	  610.00	  632.28	-1819.03	  516.90
     19.6700	  613.00	  632.12	-1815.87	  516.72
     19.7700	  627.00	  631.95	-1801.70	  516.54
     19.8700	  610.00	  631.77	-1818.52	  516.35
     19.9700	  560.00	  631.59	-1868.34	  516.15
     20.0700	  550.00	  631.40	-1878.15	  515.95
     20.1700	  600.00	  631.21	-1827.96	  515.74
     20.2700	  590.00	  631.02	-1837.77	  515.53
     20.3700	  620.00	  630.82	-1807.57	  515.31
     20.4700	  609.00	  630.62	-1818.37	  515.08
     20.5700	  625.00	  630.41	-1802.17	  514.86
     20.6700	  603.00	  630.21	-1823.96	  514.62
     20.7700	  581.00	  629.99	-1845.74	  514.38
     20.8700	  614.00	  629.78	-1812.53	  514.14
     20.9700	  549.00	  629.56	-1877.31	  513.89
     21.0700	  572.00	  629.33	-1854.08	  513.64
     21.1700	  615.00	  629.11	-1810.86	  513.38
     21.2700	  625.00	  628.88	-1800.63	  513.12
     21.3700	  597.00	  628.65	-1828.40	  512.85
     21.4700	  577.00	  628.42	-1848.17	  512.58
     21.5700	  608.00	  628.19	-1816.94	  512.30
     21.6700	  595.00	  627.95	-1829.70	  512.02
     21.7700	  620.00	  627.72	-1804.47	  511.74
     21.8700	  586.00	  627.48	-1838.23	  511.45
     21.9700	  594.00	  627.24	-1829.99	  511.16
     22.0700	  617.00	  627.16	-1806.91	  510.86
     22.1700	  574.00	  626.93	-1849.68	  510.56
     22.2700	  611.00	  626.70	-1812.45	  510.25
     22.3700	  582.00	  626.47	-1841.22	  509.94
     22.4700	  616.00	  626.25	-1807.00	  509.63
     22.5700	  648.00	  626.04	-1774.79	  509.31
     22.6700	  648.00	  625.83	-1774.58	  508.99
     22.7700	  622.00	  625.63	-1800.38	  508.66
     22.8700	  614.00	  625.44	-1808.19	  508.34
     22.9700	  609.00	  625.27	-1813.02	  508.00
     23.0700	  623.00	  625.11	-1798.86	  507.67
     23.1700	  591.00	  624.98	-1830.73	  507.33
     23.2700	  629.00	  624.88	-1792.63	  506.98
     23.3700	  655.00	  624.77	-1766.52	  506.64
     23.4700	  620.00	  624.76	-1801.51	  506.29
     23.5700	  633.00	  624.82	-1788.57	  505.94
     23.6700	  676.00	  624.97	-1745.72	  505.58
     23.7700	  622.00	  625.26	-1800.01	  505.22
     23.8700	  621.00	  625.78	-1801.53	  504.86
     23.9700	  602.00	  626.65	-1821.40	  504.49
     24.0700	  642.00	  628.13	-1782.88	  504.12
     24.1700	  623.00	  630.57	-1804.32	  503.75
     24.2700	  684.00	  634.50	-1747.25	  503.38
     24.3700	  604.00	  640.52	-1833.27	  503.00
     24.4700	  670.00	  649.08	-1775.83	  502.62
     24.5700	  660.00	  660.22	-1796.97	  502.24
     24.6700	  629.00	  673.13	-1840.88	  501.85
     24.7700	  756.00	  685.58	-1726.33	  501.46
     24.8700	  742.00	  693.43	-1748.18	  501.07
     24.9700	  673.00	  691.78	-1815.53	  500.68
     25.0700	  706.00	  679.80	-1770.55	  500.28
     25.1700	  701.00	  663.43	-1759.18	  499.88
     25.2700	  650.00	  648.72	-1795.47	  499.48
     25.3700	  638.00	  637.88	-1796.63	  499.08
     25.4700	  658.00	  630.79	-1769.54	  498.67
     25.5700	  661.00	  626.46	-1762.21	  498.26
     25.6700	  695.00	  623.84	-1725.59	  497.85
     25.7700	  646.00	  622.20	-1772.95	  497.44
     25.8700	  668.00	  621.10	-1749.85	  497.03
     25.9700	  673.00	  620.33	-1744.08	  496.61
     26.0700	  672.00	  619.77	-1744.52	  496.19
     26.1700	  662.00	  619.38	-1754.13	  495.77
     26.2700	  626.00	  619.15	-1789.90	  495.35
     26.3700	  696.00	  619.04	-1719.79	  494.92
     26.4700	  654.00	  619.08	-1761.83	  494.50
     26.5700	  715.00	  619.25	-1701.00	  494.07
     26.6700	  676.00	  619.59	-1740.34	  493.64
     26.7700	  686.00	  620.11	-1730.86	  493.21
     26.8700	  681.00	  620.85	-1736.60	  492.78
     26.9700	  668.00	  621.86	-1750.61	  492.34
     27.0700	  683.00	  623.22	-1736.97	  491.91
     27.1700	  693.00	  625.05	-1728.80	  491.47
     27.2700	  753.00	  627.55	-1671.30	  491.03
     27.3700	  724.00	  631.07	-1703.82	  490.59
     27.4700	  778.00	  636.31	-1655.06	  490.15
     27.5700	  771.00	  644.52	-1670.27	  489.70
     27.6700	  758.00	  657.81	-1696.56	  489.26
     27.7700	  789.00	  679.35	-1687.10	  488.81
     27.8700	  746.00	  712.97	-1763.72	  488.37
     27.9700	  839.00	  761.53	-1719.28	  487.92
     28.0700	  842.00	  824.40	-1779.15	  487.47
     28.1700	  929.00	  894.59	-1762.34	  487.02
     28.2700	 1051.00	  956.46	-1702.21	  486.57
     28.3700	 1104.00	  987.37	-1680.12	  486.11
     28.4700	 1110.00	  974.80	-1661.55	  485.66
     28.5700	 1017.00	  941.13	-1720.88	  485.21
     28.6700	  948.00	  923.03	-1771.78	  484.75
     28.7700	  944.00	  936.98	-1789.73	  484.30
     28.8700	 1022.00	  976.35	-1751.10	  483.84
     28.9700	  995.00	 1017.15	-1818.90	  483.38
     29.0700	  986.00	 1025.09	-1835.84	  482.92
     29.1700	  989.00	  977.18	-1784.93	  482.46
     29.2700	  954.00	  890.78	-1733.53	  482.00
     29.3700	  838.00	  802.85	-1761.60	  481.54
     29.4700	  836.00	  733.96	-1694.71	  481.08
     29.5700	  808.00	  687.60	-1676.35	  480.62
     29.6700	  703.00	  659.38	-1753.13	  480.16
     29.7700	  742.00	  643.03	-1697.78	  479.70
     29.8700	  742.00	  633.44	-1688.19	  479.23
     29.9700	  726.00	  627.54	-1698.29	  478.77
     30.0700	  690.00	  623.82	-1730.57	  478.31
     30.1700	  766.00	  621.73	-1652.48	  477.84
     30.2700	  708.00	  621.30	-1710.05	  477.38
     30.3700	  675.00	  623.05	-1744.80	  476.92
     30.4700	  691.00	  627.92	-1733.67	  476.45
     30.5700	  671.00	  637.26	-1763.01	  475.99
     30.6700	  639.00	  652.16	-1809.91	  475.52
     30.7700	  687.00	  672.52	-1782.27	  475.06
     30.8700	  740.00	  695.79	-1752.54	  474.59
     30.9700	  712.00	  716.22	-1800.97	  474.13
     31.0700	  773.00	  725.07	-1748.82	  473.66
     31.1700	  713.00	  715.40	-1799.15	  473.20
     31.2700	  637.00	  690.92	-1850.67	  472.73
     31.3700	  674.00	  663.08	-1785.83	  472.27
     31.4700	  675.00	  639.73	-1761.48	  471.80
     31.5700	  661.00	  623.12	-1758.87	  471.34
     31.6700	  600.00	  612.49	-1809.24	  470.87
     31.7700	  597.00	  606.09	-1805.84	  470.41
     31.8700	  623.00	  602.23	-1775.98	  469.94
     31.9700	  633.00	  599.78	-1763.53	  469.48
     32.0700	  602.00	  598.11	-1792.86	  469.02
     32.1700	  637.00	  596.91	-1756.66	  468.55
     32.2700	  602.00	  596.04	-1790.79	  468.09
     32.3700	  635.00	  595.45	-1757.20	  467.63
     32.4700	  662.00	  595.10	-1729.85	  467.16
     32.5700	  607.00	  595.01	-1784.76	  466.70
     32.6700	  595.00	  595.16	-1796.91	  466.24
     32.7700	  585.00	  595.62	-1807.37	  465.78
     32.8700	  591.00	  596.42	-1802.17	  465.32
     32.9700	  645.00	  597.66	-1749.41	  464.86
     33.0700	  620.00	  599.52	-1776.27	  464.40
     33.1700	  606.00	  602.24	-1792.99	  463.95
     33.2700	  608.00	  606.40	-1795.15	  463.49
     33.3700	  629.00	  613.04	-1780.79	  463.03
     33.4700	  663.00	  624.11	-1757.86	  462.57
     33.5700	  645.00	  642.69	-1794.44	  462.12
     33.6700	  649.00	  672.95	-1820.70	  461.66
     33.7700	  661.00	  718.98	-1854.73	  461.21
     33.8700	  744.00	  781.99	-1834.74	  460.76
     33.9700	  884.00	  856.52	-1769.27	  460.31
     34.0700	 1014.00	  927.50	-1710.25	  459.85
     34.1700	 1049.00	  970.35	-1718.10	  459.40
     34.2700	 1063.00	  961.03	-1694.78	  458.95
     34.3700	  951.00	  900.58	-1746.33	  458.51
     34.4700	  846.00	  818.70	-1769.45	  458.06
     34.5700	  735.00	  743.08	-1804.83	  457.61
     34.6700	  687.00	  685.39	-1795.14	  457.17
     34.7700	  609.00	  646.44	-1834.19	  456.72
     34.8700	  649.00	  622.23	-1769.98	  456.28
     34.9700	  606.00	  607.71	-1798.46	  455.84
     35.0700	  606.00	  598.80	-1789.55	  455.39
     35.1700	  588.00	  592.92	-1801.67	  454.95
     35.2700	  565.00	  588.69	-1820.44	  454.51
     35.3700	  603.00	  585.42	-1779.17	  454.08
     35.4700	  594.00	  583.28	-1786.03	  453.64
     35.5700	  547.00	  581.09	-1830.84	  453.20
     35.6700	  508.00	  579.23	-1867.98	  452.77
     35.7700	  577.00	  577.63	-1797.38	  452.34
     35.8700	  579.00	  576.23	-1793.98	  451.91
     35.9700	  585.00	  575.00	-1786.75	  451.48
     36.0700	  529.00	  573.89	-1841.64	  451.05
     36.1700	  574.00	  572.90	-1795.65	  450.62
     36.2700	  515.00	  571.99	-1853.74	  450.19
     36.3700	  567.00	  571.17	-1800.92	  449.77
     36.4700	  549.00	  570.42	-1818.17	  449.34
     36.5700	  539.00	  569.70	-1827.45	  448.92
     36.6700	  552.00	  569.08	-1813.83	  448.50
     36.7700	  526.00	  568.53	-1839.28	  448.08
     36.8700	  570.00	  568.05	-1794.80	  447.66
     36.9700	  560.00	  567.68	-1804.43	  447.25
     37.0700	  570.00	  567.47	-1794.22	  446.83
     37.1700	  569.00	  567.52	-1795.27	  446.42
     37.2700	  551.00	  567.95	-1813.70	  446.01
     37.3700	  539.00	  569.14	-1826.89	  445.60
     37.4700	  552.00	  570.86	-1815.61	  445.19
     37.5700	  536.00	  573.33	-1834.08	  444.78
     37.6700	  547.00	  576.30	-1826.05	  444.38
     37.7700	  543.00	  579.15	-1832.90	  443.98
     37.8700	  568.00	  580.88	-1809.63	  443.57
     37.9700	  588.00	  580.63	-1789.38	  443.17
     38.0700	  574.00	  578.46	-1801.21	  442.78
     38.1700	  548.00	  575.25	-1824.00	  442.38
     38.2700	  526.00	  571.70	-1842.45	  441.98
     38.3700	  557.00	  568.27	-1808.02	  441.59
     38.4700	  607.00	  565.30	-1755.05	  441.20
     38.5700	  518.00	  562.95	-1841.70	  440.81
     38.6700	  582.00	  561.19	-1775.94	  440.42
     38.7700	  560.00	  559.90	-1796.65	  440.03
     38.8700	  523.00	  558.93	-1832.68	  439.65
     38.9700	  562.00	  558.16	-1792.91	  439.27
     39.0700	  518.00	  557.58	-1836.33	  438.89
     39.1700	  471.00	  557.03	-1882.78	  438.51
     39.2700	  560.00	  556.52	-1793.27	  438.13
     39.3700	  528.00	  556.05	-1824.80	  437.76
     39.4700	  554.00	  555.48	-1798.23	  437.38
     39.5700	  506.00	  555.05	-1845.80	  437.01
     39.6700	  506.00	  554.65	-1845.40	  436.64
     39.7700	  561.00	  554.26	-1790.01	  436.28
     39.8700	  565.00	  553.89	-1785.64	  435.91
     39.9700	  536.00	  553.53	-1814.28	  435.55
     40.0700	  539.00	  553.18	-1810.93	  435.19
     40.1700	  502.00	  553.40	-1848.15	  434.83
     40.2700	  553.00	  553.09	-1796.84	  434.47
     40.3700	  523.00	  552.79	-1826.54	  434.11
     40.4700	  597.00	  552.35	-1752.10	  433.76
     40.5700	  550.00	  552.08	-1798.83	  433.41
     40.6700	  523.00	  551.83	-1825.58	  433.06
     40.7700	  515.00	  551.59	-1833.34	  432.71
     40.8700	  537.00	  551.38	-1811.13	  432.37
     40.9700	  580.00	  551.19	-1767.94	  432.02
     41.0700	  545.00	  551.03	-1802.78	  431.68
     41.1700	  515.00	  550.89	-1832.64	  431.34
     41.2700	  542.00	  550.80	-1805.55	  431.01
     41.3700	  564.00	  550.75	-1783.50	  430.67
     41.4700	  501.00	  550.77	-1846.52	  430.34
     41.5700	  509.00	  550.86	-1838.61	  430.01
     41.6700	  527.00	  551.05	-1820.80	  429.68
     41.7700	  456.00	  551.49	-1892.24	  429.35
     41.8700	  590.00	  552.07	-1758.82	  429.03
     41.9700	  569.00	  553.16	-1780.91	  428.71
     42.0700	  553.00	  554.86	-1798.61	  428.39
     42.1700	  599.00	  557.77	-1755.52	  428.07
     42.2700	  540.00	  562.57	-1819.32	  427.75
     42.3700	  615.00	  570.02	-1751.77	  427.44
     42.4700	  545.00	  580.64	-1832.39	  427.13
     42.5700	  581.00	  594.27	-1810.02	  426.82
     42.6700	  614.00	  609.40	-1792.15	  426.51
     42.7700	  610.00	  622.98	-1809.73	  426.21
     42.8700	  606.00	  629.88	-1820.63	  425.91
     42.9700	  624.00	  626.78	-1799.53	  425.61
     43.0700	  583.00	  614.92	-1828.67	  425.31
     43.1700	  615.00	  599.19	-1780.94	  425.02
     43.2700	  616.00	  583.99	-1764.74	  424.72
     43.3700	  577.00	  571.55	-1791.30	  424.43
     43.4700	  526.00	  562.43	-1833.18	  424.14
     43.5700	  499.00	  556.28	-1854.03	  423.86
     43.6700	  552.00	  552.34	-1797.09	  423.57
     43.7700	  531.00	  549.85	-1815.60	  423.29
     43.8700	  520.00	  548.24	-1824.99	  423.01
     43.9700	  539.00	  547.12	-1804.87	  422.73
     44.0700	  521.00	  546.50	-1822.25	  422.46
     44.1700	  539.00	  545.84	-1803.59	  422.19
     44.2700	  571.00	  545.30	-1771.05	  421.92
     44.3700	  515.00	  544.85	-1826.60	  421.65
     44.4700	  564.00	  544.46	-1777.21	  421.38
     44.5700	  578.00	  544.14	-1762.89	  421.12
     44.6700	  519.00	  543.86	-1821.61	  420.86
     44.7700	  562.00	  543.62	-1778.37	  420.60
     44.8700	  577.00	  543.42	-1763.17	  420.34
     44.9700	  557.00	  543.26	-1783.01	  420.09
     45.0700	  573.00	  543.12	-1766.87	  419.84
     45.1700	  548.00	  543.02	-1791.77	  419.59
     45.2700	  576.00	  542.94	-1763.69	  419.34
     45.3700	  552.00	  542.90	-1787.65	  419.10
     45.4700	  551.00	  542.96	-1788.71	  418.86
     45.5700	  546.00	  542.97	-1793.72	  418.62
     45.6700	  544.00	  543.01	-1795.76	  418.38
     45.7700	  514.00	  543.14	-1825.89	  418.14
     45.8700	  500.00	  543.25	-1840.00	  417.91
     45.9700	  541.00	  543.40	-1799.15	  417.68
     46.0700	  545.00	  543.59	-1795.34	  417.45
     46.1700	  501.00	  543.83	-1839.58	  417.23
     46.2700	  547.00	  544.12	-1793.87	  417.00
     46.3700	  530.00	  544.47	-1811.22	  416.78
     46.4700	  554.00	  544.89	-1787.64	  416.56
     46.5700	  551.00	  545.25	-1791.00	  416.35
     46.6700	  543.00	  545.84	-1799.59	  416.13
     46.7700	  565.00	  546.57	-1778.32	  415.92
     46.8700	  551.00	  547.45	-1793.20	  415.71
     46.9700	  545.00	  548.55	-1800.30	  415.50
     47.0700	  553.00	  550.00	-1793.75	  415.30
     47.1700	  545.00	  552.01	-1803.76	  415.10
     47.2700	  552.00	  554.95	-1799.70	  414.90
     47.3700	  603.00	  559.34	-1753.09	  414.70
     47.4700	  508.00	  565.88	-1854.63	  414.50
     47.5700	  610.00	  575.25	-1762.00	  414.31
     47.6700	  608.00	  587.89	-1776.64	  414.12
     47.7700	  610.00	  603.53	-1790.28	  413.93
     47.8700	  625.00	  620.80	-1792.55	  413.75
     47.9700	  619.00	  637.16	-1814.91	  413.56
     48.0700	  672.00	  647.43	-1772.18	  413.38
     48.1700	  619.00	  648.42	-1826.17	  413.20
     48.2700	  602.00	  640.34	-1835.09	  413.03
     48.3700	  614.00	  627.25	-1810.00	  412.85
     48.4700	  624.00	  613.65	-1786.40	  412.68
     48.5700	  577.00	  602.35	-1822.10	  412.51
     48.6700	  559.00	  594.63	-1832.38	  412.35
     48.7700	  554.00	  590.69	-1833.44	  412.18
     48.8700	  588.00	  590.21	-1798.96	  412.02
     48.9700	  624.00	  592.69	-1765.44	  411.86
     49.0700	  551.00	  597.80	-1843.55	  411.70
     49.1700	  594.00	  605.62	-1808.37	  411.55
     49.2700	  539.00	  616.90	-1874.65	  411.39
     49.3700	  620.00	  633.52	-1810.27	  411.24
     49.4700	  629.00	  659.24	-1826.99	  411.09
     49.5700	  637.00	  700.72	-1860.47	  410.95
     49.6700	  744.00	  768.12	-1820.87	  410.80
     49.7700	  735.00	  874.72	-1936.47	  410.66
     49.8700	  980.00	 1034.02	-1850.77	  410.52
     49.9700	 1132.00	 1254.18	-1918.93	  410.39
     50.0700	 1517.00	 1530.22	-1809.97	  410.25
     50.1700	 1814.00	 1835.28	-1818.03	  410.12
     50.2700	 2204.00	 2113.64	-1706.39	  409.99
     50.3700	 2396.00	 2284.79	-1685.54	  409.86
     50.4700	 2314.00	 2280.23	-1762.98	  409.74
     50.5700	 2191.00	 2100.97	-1706.72	  409.61
     50.6700	 1858.00	 1818.56	-1757.31	  409.49
     50.7700	 1523.00	 1516.18	-1789.93	  409.37
     50.8700	 1153.00	 1248.48	-1892.23	  409.26
     50.9700	  954.00	 1039.99	-1882.74	  409.14
     51.0700	  824.00	  893.80	-1866.55	  409.03
     51.1700	  734.00	  800.05	-1862.80	  408.92
     51.2700	  696.00	  743.30	-1844.05	  408.81
     51.3700	  691.00	  708.33	-1814.08	  408.71
     51.4700	  648.00	  683.61	-1832.36	  408.60
     51.5700	  627.00	  663.02	-1832.77	  408.50
     51.6700	  624.00	  644.78	-1817.53	  408.40
     51.7700	  624.00	  628.99	-1801.74	  408.31
     51.8700	  602.00	  615.98	-1810.73	  408.21
     51.9700	  616.00	  605.87	-1786.62	  408.12
     52.0700	  636.00	  598.49	-1759.24	  408.03
     52.1700	  616.00	  593.54	-1774.29	  407.94
     52.2700	  595.00	  590.63	-1792.38	  407.86
     52.3700	  583.00	  589.48	-1803.23	  407.77
     52.4700	  603.00	  589.95	-1783.70	  407.69
     52.5700	  628.00	  592.21	-1760.96	  407.61
     52.6700	  578.00	  596.79	-1815.54	  407.53
     52.7700	  632.00	  604.86	-1769.61	  407.46
     52.8700	  603.00	  618.35	-1812.10	  407.39
     52.9700	  672.00	  640.11	-1764.86	  407.31
     53.0700	  672.00	  673.75	-1798.50	  407.25
     53.1700	  735.00	  722.98	-1784.73	  407.18
     53.2700	  833.00	  790.34	-1754.09	  407.11
     53.3700	  910.00	  875.60	-1762.35	  407.05
     53.4700	 1008.00	  973.60	-1762.35	  406.99
     53.5700	 1101.00	 1072.33	-1768.08	  406.93
     53.6700	 1190.00	 1151.74	-1758.49	  406.88
     53.7700	 1257.00	 1187.93	-1727.68	  406.82
     53.8700	 1267.00	 1166.96	-1696.71	  406.77
     53.9700	 1070.00	 1096.90	-1823.65	  406.72
     54.0700	 1016.00	 1001.02	-1781.77	  406.67
     54.1700	 1022.00	  901.63	-1676.38	  406.62
     54.2700	  806.00	  812.91	-1803.66	  406.58
     54.3700	  754.00	  741.45	-1784.20	  406.54
     54.4700	  674.00	  688.50	-1811.25	  406.50
     54.5700	  635.00	  652.04	-1813.79	  406.46
     54.6700	  638.00	  628.48	-1787.23	  406.42
     54.7700	  653.00	  614.07	-1757.82	  406.39
     54.8700	  673.00	  605.73	-1729.48	  406.35
     54.9700	  647.00	  601.27	-1751.02	  406.32
     55.0700	  569.00	  599.33	-1827.08	  406.29
     55.1700	  630.00	  599.15	-1765.90	  406.27
     55.2700	  600.00	  600.37	-1797.12	  406.24
     55.3700	  594.00	  602.85	-1805.60	  406.22
     55.4700	  608.00	  606.62	-1795.37	  406.20
     55.5700	  598.00	  611.80	-1810.55	  406.18
     55.6700	  611.00	  618.71	-1804.46	  406.16
     55.7700	  600.00	  627.92	-1824.67	  406.14
     55.8700	  646.00	  640.49	-1791.24	  406.13
     55.9700	  645.00	  658.39	-1810.14	  406.12
     56.0700	  668.00	  685.04	-1813.79	  406.11
     56.1700	  728.00	  726.03	-1794.78	  406.10
     56.2700	  690.00	  789.52	-1896.27	  406.09
     56.3700	  836.00	  886.08	-1846.83	  406.08
     56.4700	 1006.00	 1027.14	-1817.89	  406.08
     56.5700	 1172.00	 1221.87	-1846.62	  406.08
     56.6700	 1497.00	 1472.59	-1772.34	  406.08
     56.7700	 1691.00	 1769.76	-1875.51	  406.08
     56.8700	 2109.00	 2086.35	-1774.10	  406.08
     56.9700	 2365.00	 2373.55	-1805.30	  406.09
     57.0700	 2561.00	 2563.87	-1799.62	  406.10
     57.1700	 2596.00	 2596.26	-1797.01	  406.11
     57.2700	 2468.00	 2458.61	-1787.36	  406.12
     57.3700	 2128.00	 2198.86	-1867.61	  406.13
     57.4700	 1831.00	 1887.68	-1853.43	  406.14
     57.5700	 1560.00	 1582.19	-1818.94	  406.16
     57.6700	 1204.00	 1316.75	-1909.50	  406.17
     57.7700	 1091.00	 1106.47	-1812.22	  406.19
     57.8700	  924.00	  952.89	-1825.64	  406.21
     57.9700	  795.00	  849.23	-1850.98	  406.23
     58.0700	  825.00	  785.34	-1757.09	  406.26
     58.1700	  726.00	  751.52	-1822.27	  406.28
     58.2700	  771.00	  740.46	-1766.21	  406.31
     58.3700	  756.00	  747.79	-1788.54	  406.33
     58.4700	  792.00	  771.38	-1776.13	  406.36
     58.5700	  865.00	  810.19	-1741.94	  406.39
     58.6700	  815.00	  862.88	-1844.63	  406.43
     58.7700	  922.00	  926.48	-1801.23	  406.46
     58.8700	 1053.00	  995.35	-1739.10	  406.50
     58.9700	 1049.00	 1062.10	-1809.85	  406.53
     59.0700	 1205.00	 1120.35	-1712.10	  406.57
     59.1700	 1229.00	 1166.38	-1734.13	  406.61
     59.2700	 1236.00	 1196.56	-1757.31	  406.65
     59.3700	 1283.00	 1206.73	-1720.48	  406.69
     59.4700	 1325.00	 1197.41	-1669.16	  406.74
     59.5700	 1266.00	 1177.42	-1708.17	  406.78
     59.6700	 1233.00	 1159.15	-1722.90	  406.83
     59.7700	 1202.00	 1152.04	-1746.79	  406.88
     59.8700	 1182.00	 1161.43	-1776.18	  406.92
     59.9700	 1186.00	 1190.85	-1801.60	  406.98
     60.0700	 1282.00	 1242.96	-1757.71	  407.03
     60.1700	 1330.00	 1316.34	-1783.09	  407.08
     60.2700	 1419.00	 1401.69	-1779.44	  407.13
     60.3700	 1542.00	 1480.00	-1734.75	  407.19
     60.4700	 1558.00	 1525.08	-1763.83	  407.25
     60.5700	 1539.00	 1513.97	-1771.72	  407.30
     60.6700	 1545.00	 1442.02	-1693.77	  407.36
     60.7700	 1361.00	 1326.07	-1761.82	  407.42
     60.8700	 1199.00	 1191.56	-1789.31	  407.49
     60.9700	 1118.00	 1059.92	-1738.67	  407.55
     61.0700	  906.00	  944.90	-1835.65	  407.61
     61.1700	  816.00	  853.63	-1834.38	  407.68
     61.2700	  814.00	  788.30	-1771.05	  407.74
     61.3700	  781.00	  748.18	-1763.93	  407.81
     61.4700	  764.00	  731.53	-1764.28	  407.88
     61.5700	  763.00	  737.11	-1770.86	  407.95
     61.6700	  774.00	  764.85	-1787.60	  408.02
     61.7700	  837.00	  815.55	-1775.30	  408.09
     61.8700	  880.00	  889.81	-1806.56	  408.16
     61.9700	  991.00	  986.31	-1792.06	  408.24
     62.0700	 1072.00	 1100.08	-1824.83	  408.31
     62.1700	 1124.00	 1220.93	-1893.68	  408.39
     62.2700	 1265.00	 1332.09	-1863.84	  408.46
     62.3700	 1336.00	 1411.03	-1871.78	  408.54
     62.4700	 1290.00	 1435.98	-1942.73	  408.62
     62.5700	 1370.00	 1398.40	-1825.15	  408.70
     62.6700	 1226.00	 1309.41	-1880.16	  408.78
     62.7700	 1126.00	 1191.70	-1862.45	  408.86
     62.8700	 1032.00	 1067.06	-1831.81	  408.94
     62.9700	  918.00	  950.89	-1829.64	  409.03
     63.0700	  804.00	  852.07	-1844.82	  409.11
     63.1700	  751.00	  774.08	-1819.83	  409.20
     63.2700	  671.00	  716.51	-1842.26	  409.28
     63.3700	  670.00	  676.55	-1803.30	  409.37
     63.4700	  665.00	  650.54	-1782.29	  409.45
     63.5700	  622.00	  634.88	-1809.63	  409.54
     63.6700	  648.00	  626.88	-1775.63	  409.63
     63.7700	  619.00	  624.94	-1802.69	  409.72
     63.8700	  618.00	  628.58	-1807.33	  409.81
     63.9700	  642.00	  638.34	-1793.09	  409.90
     64.0700	  681.00	  655.28	-1771.03	  409.99
     64.1700	  690.00	  680.92	-1787.67	  410.09
     64.2700	  752.00	  716.56	-1761.31	  410.18
     64.3700	  794.00	  762.76	-1765.51	  410.27
     64.4700	  893.00	  818.64	-1722.39	  410.37
     64.5700	  960.00	  881.30	-1718.05	  410.46
     64.6700	 1030.00	  945.18	-1711.93	  410.56
     64.7700	 1099.00	 1002.07	-1699.82	  410.66
     64.8700	 1104.00	 1041.89	-1734.64	  410.75
     64.9700	 1116.00	 1057.09	-1737.84	  410.85
     65.0700	 1069.00	 1045.61	-1773.36	  410.95
     65.1700	 1021.00	 1011.36	-1787.11	  411.05
     65.2700	  945.00	  962.17	-1813.92	  411.15
     65.3700	  875.00	  906.86	-1828.61	  411.25
     65.4700	  861.00	  852.22	-1787.97	  411.35
     65.5700	  773.00	  803.59	-1827.34	  411.45
     65.6700	  799.00	  762.06	-1759.81	  411.55
     65.7700	  735.00	  727.41	-1789.16	  411.65
     65.8700	  731.00	  698.99	-1764.74	  411.75
     65.9700	  679.00	  675.79	-1793.54	  411.85
     66.0700	  615.00	  657.57	-1839.32	  411.96
     66.1700	  640.00	  643.55	-1800.30	  412.06
     66.2700	  603.00	  633.28	-1827.03	  412.16
     66.3700	  616.00	  626.25	-1807.00	  412.27
     66.4700	  608.00	  622.06	-1810.81	  412.37
     66.5700	  591.00	  620.40	-1826.15	  412.47
     66.6700	  621.00	  621.20	-1796.95	  412.58
     66.7700	  596.00	  624.28	-1825.03	  412.68
     66.8700	  637.00	  629.98	-1789.73	  412.79
     66.9700	  661.00	  638.96	-1774.71	  412.90
     67.0700	  669.00	  652.53	-1780.28	  413.00
     67.1700	  639.00	  672.89	-1830.64	  413.11
     67.2700	  655.00	  703.37	-1845.12	  413.21
     67.3700	  795.00	  748.66	-1750.41	  413.32
     67.4700	  801.00	  814.45	-1810.20	  413.43
     67.5700	  888.00	  907.20	-1815.95	  413.53
     67.6700	 1010.00	 1032.79	-1819.54	  413.64
     67.7700	 1155.00	 1194.92	-1836.67	  413.75
     67.8700	 1331.00	 1393.24	-1858.99	  413.85
     67.9700	 1600.00	 1621.23	-1817.98	  413.96
     68.0700	 1814.00	 1864.53	-1847.28	  414.07
     68.1700	 2163.00	 2099.38	-1733.13	  414.18
     68.2700	 2299.00	 2292.65	-1790.40	  414.28
     68.3700	 2361.00	 2406.87	-1842.62	  414.39
     68.4700	 2409.00	 2414.10	-1801.85	  414.50
     68.5700	 2324.00	 2312.47	-1785.22	  414.61
     68.6700	 2167.00	 2127.29	-1757.04	  414.71
     68.7700	 1898.00	 1895.88	-1794.63	  414.82
     68.8700	 1644.00	 1652.43	-1805.18	  414.93
     68.9700	 1382.00	 1421.92	-1836.67	  415.04
     69.0700	 1167.00	 1219.79	-1849.54	  415.14
     69.1700	  975.00	 1053.42	-1875.17	  415.25
     69.2700	  905.00	  923.82	-1815.57	  415.36
     69.3700	  790.00	  827.68	-1834.43	  415.46
     69.4700	  762.00	  759.25	-1794.00	  415.57
     69.5700	  750.00	  712.16	-1758.91	  415.68
     69.6700	  675.00	  680.40	-1802.15	  415.78
     69.7700	  691.00	  659.16	-1764.91	  415.89
     69.8700	  656.00	  644.88	-1785.63	  416.00
     69.9700	  643.00	  635.15	-1788.90	  416.10
     70.0700	  623.00	  628.41	-1802.16	  416.21
     70.1700	  643.00	  623.75	-1777.50	  416.31
     70.2700	  627.00	  620.65	-1790.40	  416.42
     70.3700	  589.00	  618.67	-1826.42	  416.52
     70.4700	  660.00	  619.02	-1755.77	  416.63
     70.5700	  585.00	  619.60	-1831.35	  416.73
     70.6700	  635.00	  621.55	-1783.30	  416.84
     70.7700	  678.00	  625.22	-1743.97	  416.94
     70.8700	  610.00	  631.23	-1817.98	  417.04
     70.9700	  600.00	  640.63	-1837.38	  417.15
     71.0700	  675.00	  654.99	-1776.74	  417.25
     71.1700	  682.00	  676.58	-1791.33	  417.35
     71.2700	  692.00	  708.38	-1813.13	  417.45
     71.3700	  734.00	  754.02	-1816.77	  417.55
     71.4700	  770.00	  817.38	-1844.13	  417.65
     71.5700	  901.00	  902.04	-1797.79	  417.75
     71.6700	  974.00	 1010.33	-1833.08	  417.85
     71.7700	 1177.00	 1142.24	-1761.99	  417.95
     71.8700	 1272.00	 1294.55	-1819.30	  418.05
     71.9700	 1501.00	 1459.65	-1755.40	  418.15
     72.0700	 1581.00	 1624.99	-1840.74	  418.25
     72.1700	 1701.00	 1772.51	-1868.26	  418.34
     72.2700	 1802.00	 1880.03	-1874.78	  418.44
     72.3700	 1870.00	 1926.65	-1853.40	  418.54
     72.4700	 1811.00	 1901.74	-1887.49	  418.63
     72.5700	 1748.00	 1811.10	-1859.85	  418.73
     72.6700	 1581.00	 1673.52	-1889.27	  418.82
     72.7700	 1531.00	 1511.59	-1777.34	  418.91
     72.8700	 1307.00	 1344.82	-1834.57	  419.01
     72.9700	 1219.00	 1187.42	-1765.17	  419.10
     73.0700	 1085.00	 1048.27	-1760.02	  419.19
     73.1700	  905.00	  931.79	-1823.54	  419.28
     73.2700	  808.00	  838.80	-1827.55	  419.37
     73.3700	  750.00	  767.55	-1814.30	  419.46
     73.4700	  774.00	  714.87	-1737.62	  419.55
     73.5700	  718.00	  676.98	-1755.73	  419.63
     73.6700	  688.00	  650.22	-1758.97	  419.72
     73.7700	  629.00	  631.47	-1799.22	  419.81
     73.8700	  659.00	  618.28	-1756.03	  419.89
     73.9700	  630.00	  608.91	-1775.66	  419.98
     74.0700	  610.00	  602.17	-1788.92	  420.06
     74.1700	  633.00	  597.28	-1761.03	  420.14
     74.2700	  652.00	  593.77	-1738.52	  420.22
     74.3700	  631.00	  590.78	-1756.53	  420.30
     74.4700	  632.00	  589.14	-1753.89	  420.38
     74.5700	  697.00	  588.11	-1687.86	  420.46
     74.6700	  629.00	  587.50	-1755.25	  420.54
     74.7700	  629.00	  587.09	-1754.84	  420.62
     74.8700	  682.00	  586.63	-1701.38	  420.69
     74.9700	  674.00	  585.92	-1708.67	  420.77
     75.0700	  664.00	  584.83	-1717.58	  420.84
     75.1700	  681.00	  583.40	-1699.15	  420.92
     75.2700	  662.00	  581.80	-1716.55	  420.99
     75.3700	  672.00	  580.30	-1705.05	  421.06
     75.4700	  653.00	  579.23	-1722.98	  421.13
     75.5700	  637.00	  578.92	-1738.67	  421.20
     75.6700	  637.00	  579.72	-1739.47	  421.27
     75.7700	  587.00	  582.02	-1791.77	  421.34
     75.8700	  636.00	  586.24	-1746.99	  421.40
     75.9700	  620.00	  592.78	-1769.53	  421.47
     76.0700	  612.00	  602.00	-1786.75	  421.53
     76.1700	  601.00	  614.04	-1809.79	  421.59
     76.2700	  611.00	  629.02	-1814.77	  421.65
     76.3700	  673.00	  646.55	-1770.30	  421.71
     76.4700	  689.00	  665.92	-1773.67	  421.77
     76.5700	  728.00	  685.93	-1754.68	  421.83
     76.6700	  696.00	  704.90	-1805.65	  421.89
     76.7700	  723.00	  720.65	-1794.40	  421.94
     76.8700	  724.00	  730.70	-1803.45	  422.00
     76.9700	  772.00	  733.36	-1758.11	  422.05
     77.0700	  718.00	  727.92	-1806.67	  422.10
     77.1700	  718.00	  715.40	-1794.16	  422.15
     77.2700	  698.00	  697.92	-1796.67	  422.20
     77.3700	  684.00	  677.82	-1790.57	  422.25
     77.4700	  643.00	  657.14	-1810.89	  422.30
     77.5700	  605.00	  637.43	-1829.18	  422.34
     77.6700	  611.00	  619.70	-1805.45	  422.38
     77.7700	  587.00	  604.52	-1814.27	  422.43
     77.8700	  590.00	  592.07	-1798.82	  422.47
     77.9700	  573.00	  582.27	-1806.02	  422.51
     78.0700	  582.00	  574.81	-1789.56	  422.55
     78.1700	  586.00	  569.25	-1780.00	  422.58
     78.2700	  579.00	  565.27	-1783.02	  422.62
     78.3700	  557.00	  562.44	-1802.19	  422.65
     78.4700	  569.00	  560.23	-1787.98	  422.69
     78.5700	  536.00	  558.82	-1819.57	  422.72
     78.6700	  556.00	  557.81	-1798.56	  422.75
     78.7700	  558.00	  557.08	-1795.83	  422.78
     78.8700	  546.00	  556.56	-1807.31	  422.80
     78.9700	  552.00	  556.19	-1800.94	  422.83
     79.0700	  573.00	  555.95	-1779.70	  422.85
     79.1700	  552.00	  555.83	-1800.58	  422.88
     79.2700	  539.00	  555.84	-1813.59	  422.90
     79.3700	  564.00	  555.97	-1788.72	  422.92
     79.4700	  572.00	  556.24	-1780.99	  422.93
     79.5700	  561.00	  556.68	-1792.43	  422.95
     79.6700	  559.00	  557.31	-1795.06	  422.97
     79.7700	  527.00	  558.16	-1827.91	  422.98
     79.8700	  591.00	  559.26	-1765.01	  422.99
     79.9700	  562.00	  560.68	-1795.43	  423.00
     80.0700	  578.00	  562.46	-1781.21	  423.01
     80.1700	  540.00	  564.69	-1821.44	  423.02
     80.2700	  548.00	  567.43	-1816.18	  423.02
     80.3700	  585.00	  570.79	-1782.54	  423.03
     80.4700	  591.00	  574.87	-1780.62	  423.03
     80.5700	  599.00	  579.80	-1777.55	  423.03
     80.6700	  602.00	  585.70	-1780.45	  423.03
     80.7700	  610.00	  592.71	-1779.46	  423.02
     80.8700	  636.00	  600.91	-1761.66	  423.02
     80.9700	  626.00	  610.31	-1781.06	  423.01
     81.0700	  652.00	  620.56	-1765.31	  423.00
     81.1700	  655.00	  631.82	-1773.57	  422.99
     81.2700	  712.00	  643.49	-1728.24	  422.98
     81.3700	  730.00	  655.16	-1721.91	  422.97
     81.4700	  811.00	  666.48	-1652.23	  422.96
     81.5700	  742.00	  677.21	-1731.96	  422.94
     81.6700	  698.00	  687.14	-1785.89	  422.92
     81.7700	  754.00	  696.00	-1738.75	  422.90
     81.8700	  728.00	  703.39	-1772.14	  422.88
     81.9700	  766.00	  708.75	-1739.50	  422.85
     82.0700	  730.00	  711.48	-1778.23	  422.83
     82.1700	  747.00	  711.12	-1760.87	  422.80
     82.2700	  760.00	  707.61	-1744.36	  422.77
     82.3700	  749.00	  701.34	-1749.09	  422.74
     82.4700	  660.00	  692.90	-1829.65	  422.71
     82.5700	  666.00	  682.84	-1813.59	  422.68
     82.6700	  660.00	  671.57	-1808.32	  422.64
     82.7700	  638.00	  659.44	-1818.19	  422.60
     82.8700	  608.00	  646.89	-1835.64	  422.56
     82.9700	  629.00	  634.50	-1802.25	  422.52
     83.0700	  592.00	  622.85	-1827.60	  422.48
     83.1700	  615.00	  612.48	-1794.23	  422.43
     83.2700	  575.00	  603.78	-1825.53	  422.38
     83.3700	  595.00	  596.96	-1798.71	  422.33
     83.4700	  613.00	  592.15	-1775.90	  422.28
     83.5700	  533.00	  589.32	-1853.07	  422.23
     83.6700	  600.00	  588.33	-1785.08	  422.17
     83.7700	  604.00	  588.97	-1781.72	  422.12
     83.8700	  583.00	  590.92	-1804.67	  422.06
     83.9700	  640.00	  593.78	-1750.53	  422.00
     84.0700	  552.00	  597.05	-1841.80	  421.93
     84.1700	  563.00	  600.19	-1833.94	  421.87
     84.2700	  598.00	  602.63	-1801.38	  421.80
     84.3700	  593.00	  603.83	-1807.58	  421.73
     84.4700	  600.00	  603.36	-1800.11	  421.66
     84.5700	  553.00	  601.25	-1845.00	  421.59
     84.6700	  589.00	  597.74	-1805.49	  421.52
     84.7700	  596.00	  593.17	-1793.92	  421.44
     84.8700	  582.00	  588.01	-1802.76	  421.36
     84.9700	  515.00	  582.67	-1864.42	  421.28
     85.0700	  591.00	  577.49	-1783.24	  421.20
     85.1700	  558.00	  572.72	-1811.47	  421.12
     85.2700	  603.00	  568.54	-1762.29	  421.03
     85.3700	  525.00	  565.02	-1836.77	  420.94
     85.4700	  586.00	  562.21	-1772.96	  420.85
     85.5700	  560.00	  560.08	-1796.83	  420.76
     85.6700	  564.00	  558.59	-1791.34	  420.66
     85.7700	  528.00	  557.68	-1826.43	  420.57
     85.8700	  539.00	  557.28	-1815.03	  420.47
     85.9700	  584.00	  557.36	-1770.11	  420.37
     86.0700	  570.00	  557.89	-1784.64	  420.27
     86.1700	  546.00	  558.86	-1809.61	  420.16
     86.2700	  531.00	  560.30	-1826.05	  420.06
     86.3700	  548.00	  562.27	-1811.02	  419.95
     86.4700	  526.00	  564.84	-1835.59	  419.84
     86.5700	  588.00	  568.10	-1776.85	  419.72
     86.6700	  539.00	  572.17	-1829.92	  419.61
     86.7700	  567.00	  577.15	-1806.90	  419.49
     86.8700	  600.00	  583.15	-1779.90	  419.37
     86.9700	  587.00	  590.24	-1799.99	  419.25
     87.0700	  580.00	  598.46	-1815.21	  419.13
     87.1700	  612.00	  607.75	-1792.50	  419.01
     87.2700	  618.00	  617.95	-1796.70	  418.88
     87.3700	  626.00	  628.75	-1799.50	  418.75
     87.4700	  657.00	  639.66	-1779.41	  418.62
     87.5700	  625.00	  650.06	-1821.81	  418.49
     87.6700	  636.00	  659.16	-1819.91	  418.35
     87.7700	  689.00	  666.09	-1773.84	  418.21
     87.8700	  693.00	  670.07	-1773.82	  418.07
     87.9700	  676.00	  670.62	-1791.37	  417.93
     88.0700	  648.00	  667.76	-1816.51	  417.79
     88.1700	  640.00	  661.99	-1818.74	  417.64
     88.2700	  607.00	  654.15	-1843.90	  417.50
     88.3700	  668.00	  645.22	-1773.97	  417.35
     88.4700	  643.00	  636.13	-1789.88	  417.20
     88.5700	  613.00	  627.68	-1811.43	  417.04
     88.6700	  608.00	  620.53	-1809.28	  416.89
     88.7700	  577.00	  615.18	-1834.93	  416.73
     88.8700	  577.00	  611.95	-1831.70	  416.57
     88.9700	  587.00	  610.53	-1820.28	  416.41
     89.0700	  582.00	  611.76	-1826.51	  416.24
     89.1700	  578.00	  614.99	-1833.74	  416.08
     89.2700	  609.00	  619.83	-1807.58	  415.91
     89.3700	  586.00	  625.79	-1836.54	  415.74
     89.4700	  594.00	  632.23	-1834.98	  415.57
     89.5700	  647.00	  638.39	-1788.14	  415.39
     89.6700	  647.00	  643.50	-1793.25	  415.21
     89.7700	  639.00	  646.78	-1804.53	  415.04
     89.8700	  641.00	  647.64	-1803.39	  414.86
     89.9700	  600.00	  645.82	-1842.57	  414.67
     90.0700	  659.00	  641.46	-1779.21	  414.49
     90.1700	  632.00	  634.99	-1799.74	  414.30
     90.2700	  634.00	  627.04	-1789.79	  414.11
     90.3700	  586.00	  618.26	-1829.01	  413.92
     90.4700	  599.00	  609.24	-1806.99	  413.73
     90.5700	  552.00	  600.45	-1845.20	  413.53
     90.6700	  552.00	  592.26	-1837.01	  413.34
     90.7700	  564.00	  584.91	-1817.66	  413.14
     90.8700	  577.00	  578.55	-1798.30	  412.94
     90.9700	  503.00	  573.24	-1866.99	  412.74
     91.0700	  568.00	  568.98	-1797.73	  412.53
     91.1700	  560.00	  565.71	-1802.46	  412.32
     91.2700	  509.00	  563.32	-1851.07	  412.11
     91.3700	  570.00	  561.74	-1788.49	  411.90
     91.4700	  539.00	  560.86	-1818.61	  411.69
     91.5700	  545.00	  560.63	-1812.38	  411.48
     91.6700	  528.00	  561.00	-1829.75	  411.26
     91.7700	  528.00	  561.98	-1830.73	  411.04
     91.8700	  552.00	  563.62	-1808.37	  410.82
     91.9700	  559.00	  565.98	-1803.73	  410.60
     92.0700	  544.00	  569.20	-1821.95	  410.37
     92.1700	  564.00	  573.42	-1806.17	  410.14
     92.2700	  566.00	  578.80	-1809.55	  409.92
     92.3700	  540.00	  585.49	-1842.24	  409.68
     92.4700	  588.00	  593.66	-1802.41	  409.45
     92.5700	  608.00	  603.41	-1792.16	  409.22
     92.6700	  588.00	  614.81	-1823.56	  408.98
     92.7700	  642.00	  627.86	-1782.61	  408.74
     92.8700	  559.00	  642.47	-1880.22	  408.50
     92.9700	  704.00	  658.43	-1751.18	  408.26
     93.0700	  629.00	  675.46	-1843.21	  408.02
     93.1700	  654.00	  693.12	-1835.87	  407.77
     93.2700	  685.00	  710.88	-1822.63	  407.52
     93.3700	  737.00	  728.12	-1787.87	  407.27
     93.4700	  743.00	  744.25	-1798.00	  407.02
     93.5700	  789.00	  758.81	-1766.56	  406.77
     93.6700	  723.00	  771.66	-1845.41	  406.51
     93.7700	  779.00	  782.99	-1800.74	  406.25
     93.8700	  776.00	  793.28	-1814.03	  406.00
     93.9700	  855.00	  803.07	-1744.82	  405.73
     94.0700	  816.00	  812.82	-1793.57	  405.47
     94.1700	  811.00	  822.85	-1808.60	  405.21
     94.2700	  847.00	  833.27	-1783.02	  404.94
     94.3700	  820.00	  843.80	-1820.55	  404.67
     94.4700	  843.00	  855.08	-1808.83	  404.40
     94.5700	  886.00	  866.83	-1777.58	  404.13
     94.6700	  937.00	  879.07	-1738.82	  403.86
     94.7700	  890.00	  891.61	-1798.36	  403.58
     94.8700	  916.00	  904.04	-1784.79	  403.31
     94.9700	  891.00	  915.54	-1821.29	  403.03
     95.0700	  932.00	  925.00	-1789.75	  402.75
     95.1700	  963.00	  931.08	-1764.83	  402.47
     95.2700	  924.00	  932.44	-1805.19	  402.18
     95.3700	  945.00	  928.09	-1779.84	  401.90
     95.4700	  883.00	  917.69	-1831.44	  401.61
     95.5700	  914.00	  901.69	-1784.44	  401.32
     95.6700	  805.00	  881.25	-1873.00	  401.03
     95.7700	  802.00	  857.97	-1852.72	  400.74
     95.8700	  841.00	  833.58	-1789.33	  400.45
     95.9700	  834.00	  809.83	-1772.58	  400.15
     96.0700	  837.00	  788.31	-1748.06	  399.86
     96.1700	  812.00	  770.49	-1755.24	  399.56
     96.2700	  754.00	  757.68	-1800.43	  399.26
     96.3700	  748.00	  751.04	-1799.79	  398.96
     96.4700	  797.00	  751.59	-1751.34	  398.66
     96.5700	  792.00	  760.17	-1764.92	  398.35
     96.6700	  772.00	  777.47	-1802.22	  398.05
     96.7700	  797.00	  803.96	-1803.71	  397.74
     96.8700	  850.00	  839.87	-1786.62	  397.43
     96.9700	  900.00	  885.13	-1781.88	  397.12
     97.0700	  928.00	  939.32	-1808.07	  396.81
     97.1700	 1037.00	 1001.61	-1761.36	  396.50
     97.2700	 1018.00	 1070.64	-1849.39	  396.18
     97.3700	 1123.00	 1144.54	-1818.29	  395.87
     97.4700	 1206.00	 1220.84	-1811.59	  395.55
     97.5700	 1229.00	 1296.49	-1864.24	  395.23
     97.6700	 1348.00	 1367.88	-1816.63	  394.91
     97.7700	 1383.00	 1430.92	-1844.67	  394.59
     97.8700	 1420.00	 1481.42	-1858.17	  394.27
     97.9700	 1479.00	 1515.58	-1833.33	  393.94
     98.0700	 1485.00	 1530.74	-1842.49	  393.62
     98.1700	 1554.00	 1525.96	-1768.71	  393.29
     98.2700	 1470.00	 1502.20	-1828.95	  392.97
     98.3700	 1436.00	 1462.05	-1822.80	  392.64
     98.4700	 1391.00	 1409.15	-1814.90	  392.31
     98.5700	 1341.00	 1347.50	-1803.25	  391.98
     98.6700	 1280.00	 1281.10	-1797.85	  391.64
     98.7700	 1192.00	 1213.65	-1818.40	  391.31
     98.8700	 1153.00	 1148.42	-1792.17	  390.98
     98.9700	 1060.00	 1088.21	-1824.96	  390.64
     99.0700	 1016.00	 1035.31	-1816.06	  390.31
     99.1700	 1003.00	  991.59	-1785.34	  389.97
     99.2700	  903.00	  958.53	-1852.28	  389.63
     99.3700	  952.00	  937.25	-1782.00	  389.29
     99.4700	  904.00	  928.53	-1821.28	  388.95
     99.5700	  941.00	  932.87	-1788.62	  388.61
     99.6700	  972.00	  950.46	-1775.21	  388.27
     99.7700	  983.00	  981.24	-1794.99	  387.92
     99.8700	 1043.00	 1024.89	-1778.64	  387.58
     99.9700	 1045.00	 1080.77	-1832.52	  387.23
    100.0700	 1176.00	 1147.94	-1768.69	  386.89
    100.1700	 1196.00	 1225.07	-1825.82	  386.54
    100.2700	 1315.00	 1310.38	-1792.13	  386.19
    100.3700	 1480.00	 1401.68	-1718.43	  385.85
    100.4700	 1535.00	 1496.16	-1757.91	  385.50
    100.5700	 1591.00	 1590.64	-1796.39	  385.15
    100.6700	 1666.00	 1681.53	-1812.28	  384.80
    100.7700	 1754.00	 1765.37	-1808.12	  384.44
    100.8700	 1866.00	 1839.00	-1769.75	  384.09
    100.9700	 1821.00	 1900.00	-1875.75	  383.74
    101.0700	 1994.00	 1946.78	-1749.53	  383.39
    101.1700	 1948.00	 1978.39	-1827.14	  383.03
    101.2700	 2036.00	 1994.20	-1754.95	  382.68
    101.3700	 2031.00	 1993.79	-1759.54	  382.32
    101.4700	 1939.00	 1976.96	-1834.71	  381.97
    101.5700	 1952.00	 1944.07	-1788.82	  381.61
    101.6700	 1947.00	 1896.46	-1746.21	  381.26
    101.7700	 1824.00	 1836.60	-1809.35	  380.90
    101.8700	 1790.00	 1767.86	-1774.61	  380.54
    101.9700	 1727.00	 1694.17	-1763.92	  380.19
    102.0700	 1615.00	 1619.35	-1801.10	  379.83
    102.1700	 1578.00	 1546.78	-1765.53	  379.47
    102.2700	 1484.00	 1479.16	-1791.91	  379.11
    102.3700	 1518.00	 1418.31	-1697.06	  378.75
    102.4700	 1372.00	 1365.27	-1790.02	  378.39
    102.5700	 1326.00	 1320.27	-1791.02	  378.03
    102.6700	 1266.00	 1282.85	-1813.60	  377.67
    102.7700	 1274.00	 1251.91	-1774.66	  377.32
    102.8700	 1178.00	 1225.80	-1844.55	  376.96
    102.9700	 1216.00	 1202.55	-1783.30	  376.60
    103.0700	 1150.00	 1180.00	-1826.75	  376.24
    103.1700	 1138.00	 1156.18	-1814.93	  375.88
    103.2700	 1145.00	 1129.55	-1781.30	  375.52
    103.3700	 1083.00	 1099.23	-1812.98	  375.16
    103.4700	 1037.00	 1065.08	-1824.83	  374.80
    103.5700	 1029.00	 1027.55	-1795.30	  374.44
    103.6700	 1016.00	  987.51	-1768.26	  374.08
    103.7700	  951.00	  946.01	-1791.76	  373.72
    103.8700	  932.00	  904.12	-1768.87	  373.36
    103.9700	  876.00	  862.84	-1783.59	  373.00
    104.0700	  827.00	  823.05	-1792.80	  372.64
    104.1700	  815.00	  785.48	-1767.23	  372.28
    104.2700	  747.00	  750.69	-1800.44	  371.92
    104.3700	  753.00	  719.06	-1762.81	  371.57
    104.4700	  714.00	  690.83	-1773.58	  371.21
    104.5700	  710.00	  666.10	-1752.85	  370.85
    104.6700	  682.00	  644.81	-1759.56	  370.49
    104.7700	  658.00	  626.81	-1765.56	  370.14
    104.8700	  634.00	  611.87	-1774.62	  369.78
    104.9700	  614.00	  599.69	-1782.44	  369.43
    105.0700	  642.00	  589.98	-1744.73	  369.07
    105.1700	  617.00	  582.42	-1762.17	  368.72
    105.2700	  607.00	  576.71	-1766.46	  368.37
    105.3700	  573.00	  572.58	-1796.33	  368.01
    105.4700	  557.00	  569.81	-1809.56	  367.66
    105.5700	  567.00	  568.19	-1797.94	  367.31
    105.6700	  572.00	  567.58	-1792.33	  366.96
    105.7700	  584.00	  567.88	-1780.63	  366.61
    105.8700	  580.00	  568.99	-1785.74	  366.26
    105.9700	  588.00	  570.87	-1779.62	  365.92
    106.0700	  549.00	  573.52	-1821.27	  365.57
    106.1700	  594.00	  576.94	-1779.69	  365.22
    106.2700	  582.00	  581.15	-1795.90	  364.88
    106.3700	  564.00	  586.20	-1818.95	  364.54
    106.4700	  558.00	  592.14	-1830.89	  364.19
    106.5700	  590.00	  599.01	-1805.76	  363.85
    106.6700	  692.00	  606.81	-1711.56	  363.51
    106.7700	  631.00	  615.52	-1781.27	  363.17
    106.8700	  632.00	  625.09	-1789.84	  362.84
    106.9700	  667.00	  635.40	-1765.15	  362.50
    107.0700	  692.00	  646.26	-1751.01	  362.17
    107.1700	  661.00	  657.44	-1793.19	  361.83
    107.2700	  646.00	  668.65	-1819.40	  361.50
    107.3700	  702.00	  679.56	-1774.31	  361.17
    107.4700	  700.00	  689.77	-1786.52	  360.84
    107.5700	  698.00	  698.90	-1797.65	  360.51
    107.6700	  750.00	  706.56	-1753.31	  360.19
    107.7700	  704.00	  712.43	-1805.18	  359.86
    107.8700	  680.00	  716.31	-1833.06	  359.54
    107.9700	  724.00	  718.20	-1790.95	  359.22
    108.0700	  715.00	  718.24	-1799.99	  358.90
    108.1700	  681.00	  716.73	-1832.48	  358.58
    108.2700	  747.00	  714.07	-1763.82	  358.27
    108.3700	  695.00	  710.72	-1812.47	  357.95
    108.4700	  712.00	  707.10	-1791.85	  357.64
    108.5700	  717.00	  703.59	-1783.34	  357.33
    108.6700	  715.00	  700.48	-1782.23	  357.03
    108.7700	  684.00	  697.98	-1810.73	  356.72
    108.8700	  690.00	  696.19	-1802.94	  356.42
    108.9700	  710.00	  695.12	-1781.87	  356.12
    109.0700	  722.00	  694.68	-1769.43	  355.82
    109.1700	  717.00	  694.68	-1774.43	  355.52
    109.2700	  726.00	  694.84	-1765.59	  355.23
    109.3700	  704.00	  694.86	-1787.61	  354.94
    109.4700	  736.00	  694.36	-1755.11	  354.65
    109.5700	  700.00	  693.01	-1789.76	  354.36
    109.6700	  708.00	  690.53	-1779.28	  354.08
    109.7700	  701.00	  686.73	-1782.48	  353.79
    109.8700	  717.00	  681.56	-1761.31	  353.51
    109.9700	  760.00	  675.11	-1711.86	  353.24
    110.0700	  696.00	  667.55	-1768.30	  352.96
    110.1700	  673.00	  659.14	-1782.89	  352.69
    110.2700	  686.00	  650.16	-1760.91	  352.43
    110.3700	  653.00	  640.91	-1784.66	  352.16
    110.4700	  660.00	  631.66	-1768.41	  351.90
    110.5700	  656.00	  622.65	-1763.40	  351.64
    110.6700	  654.00	  614.11	-1756.86	  351.38
    110.7700	  703.00	  606.21	-1699.96	  351.13
    110.8700	  623.00	  599.11	-1772.86	  350.88
    110.9700	  556.00	  592.91	-1833.66	  350.63
    111.0700	  580.00	  587.68	-1804.43	  350.39
    111.1700	  620.00	  583.46	-1760.21	  350.15
    111.2700	  596.00	  580.25	-1781.00	  349.91
    111.3700	  588.00	  578.02	-1786.77	  349.68
    111.4700	  607.00	  576.72	-1766.47	  349.45
    111.5700	  569.00	  576.29	-1804.04	  349.22
    111.6700	  540.00	  576.63	-1833.38	  349.00
    111.7700	  607.00	  577.65	-1767.40	  348.78
    111.8700	  562.00	  579.25	-1814.00	  348.56
    111.9700	  545.00	  581.31	-1833.06	  348.35
    112.0700	  613.00	  583.73	-1767.48	  348.14
    112.1700	  569.00	  586.40	-1814.15	  347.94
    112.2700	  569.00	  589.23	-1816.98	  347.73
    112.3700	  544.00	  592.11	-1844.86	  347.54
    112.4700	  611.00	  595.00	-1780.75	  347.34
    112.5700	  536.00	  597.83	-1858.58	  347.16
    112.6700	  573.00	  600.59	-1824.34	  346.97
    112.7700	  563.00	  603.31	-1837.06	  346.79
    112.8700	  557.00	  606.01	-1845.76	  346.62
    112.9700	  567.00	  608.77	-1838.52	  346.44
    113.0700	  592.00	  611.68	-1816.43	  346.28
    113.1700	  582.00	  614.84	-1829.59	  346.11
    113.2700	  617.00	  618.38	-1798.13	  345.95
    113.3700	  571.00	  622.44	-1848.19	  345.80
    113.4700	  603.00	  627.17	-1820.92	  345.65
    113.5700	  598.00	  632.77	-1831.52	  345.51
    113.6700	  604.00	  639.45	-1832.20	  345.37
    113.7700	  628.00	  647.47	-1816.22	  345.23
    113.8700	  623.00	  657.18	-1830.93	  345.10
    113.9700	  663.00	  668.97	-1802.72	  344.98
    114.0700	  691.00	  683.34	-1789.09	  344.86
    114.1700	  698.00	  700.88	-1799.63	  344.74
    114.2700	  725.00	  722.33	-1794.08	  344.63
    114.3700	  783.00	  748.58	-1762.33	  344.52
    114.4700	  799.00	  780.66	-1778.41	  344.42
    114.5700	  855.00	  819.81	-1761.56	  344.33
    114.6700	  815.00	  867.44	-1849.19	  344.24
    114.7700	  896.00	  925.15	-1825.90	  344.16
    114.8700	  997.00	  994.73	-1794.48	  344.08
    114.9700	 1005.00	 1078.11	-1869.86	  344.01
    115.0700	 1138.00	 1177.34	-1836.09	  343.94
    115.1700	 1367.00	 1294.51	-1724.26	  343.88
    115.2700	 1457.00	 1431.73	-1771.48	  343.82
    115.3700	 1692.00	 1591.00	-1695.75	  343.77
    115.4700	 1891.00	 1774.08	-1679.83	  343.73
    115.5700	 2049.00	 1982.40	-1730.15	  343.69
    115.6700	 2266.00	 2216.91	-1747.66	  343.66
    115.7700	 2510.00	 2478.01	-1764.76	  343.63
    115.8700	 2809.00	 2765.40	-1753.15	  343.61
    115.9700	 3102.00	 3077.87	-1772.62	  343.60
    116.0700	 3441.00	 3413.28	-1769.03	  343.59
    116.1700	 3867.00	 3768.45	-1698.20	  343.59
    116.2700	 4111.00	 4139.19	-1824.94	  343.60
    116.3700	 4582.00	 4520.31	-1735.06	  343.61
    116.4700	 4946.00	 4905.30	-1756.05	  343.63
    116.5700	 5206.00	 5286.69	-1877.44	  343.65
    116.6700	 5644.00	 5655.97	-1808.72	  343.68
    116.7700	 5904.00	 6003.84	-1896.59	  343.72
    116.8700	 6261.00	 6320.40	-1856.15	  343.77
    116.9700	 6656.00	 6595.40	-1736.15	  343.82
    117.0700	 6821.00	 6818.96	-1794.71	  343.88
    117.1700	 7027.00	 6982.28	-1752.03	  343.95
    117.2700	 7187.00	 7078.55	-1688.30	  344.02
    117.3700	 6983.00	 7103.64	-1917.39	  344.10
    117.4700	 7021.00	 7056.70	-1832.45	  344.19
    117.5700	 6887.00	 6940.22	-1849.97	  344.29
    117.6700	 6639.00	 6759.81	-1917.56	  344.39
    117.7700	 6411.00	 6523.31	-1909.06	  344.50
    117.8700	 6114.00	 6240.06	-1922.81	  344.62
    117.9700	 5841.00	 5920.12	-1875.87	  344.75
    118.0700	 5378.00	 5573.52	-1992.27	  344.88
    118.1700	 5154.00	 5209.88	-1852.63	  345.03
    118.2700	 4868.00	 4837.92	-1766.67	  345.18
    118.3700	 4490.00	 4465.39	-1772.14	  345.33
    118.4700	 4165.00	 4099.10	-1730.85	  345.50
    118.5700	 3879.00	 3744.70	-1662.45	  345.67
    118.6700	 3471.00	 3406.79	-1732.54	  345.86
    118.7700	 3083.00	 3088.79	-1802.54	  346.05
    118.8700	 2847.00	 2793.07	-1742.82	  346.25
    118.9700	 2551.00	 2521.26	-1767.01	  346.45
    119.0700	 2283.00	 2274.04	-1787.79	  346.67
    119.1700	 2081.00	 2051.42	-1767.17	  346.90
    119.2700	 1837.00	 1852.79	-1812.54	  347.13
    119.3700	 1720.00	 1677.06	-1753.81	  347.37
    119.4700	 1517.00	 1522.86	-1802.61	  347.62
    119.5700	 1395.00	 1388.52	-1790.27	  347.88
    119.6700	 1295.00	 1272.27	-1774.02	  348.15
    119.7700	 1260.00	 1172.22	-1708.97	  348.43
    119.8700	 1212.00	 1086.50	-1671.25	  348.72
    119.9700	 1051.00	 1013.34	-1759.09	  349.02
    120.0700	  962.00	  951.07	-1785.82	  349.32
    120.1700	  885.00	  898.17	-1809.92	  349.64
    120.2700	  856.00	  853.26	-1794.01	  349.96
    120.3700	  804.00	  815.12	-1807.87	  350.30
    120.4700	  750.00	  782.74	-1829.49	  350.65
    120.5700	  789.00	  755.21	-1762.96	  351.00
    120.6700	  722.00	  731.79	-1806.54	  351.36
    120.7700	  671.00	  711.86	-1837.61	  351.74
    120.8700	  674.00	  694.90	-1817.65	  352.12
    120.9700	  644.00	  680.49	-1833.24	  352.52
    121.0700	  699.00	  668.29	-1766.04	  352.92
    121.1700	  657.00	  658.02	-1797.77	  353.34
    121.2700	  640.00	  649.44	-1806.19	  353.77
    121.3700	  623.00	  642.37	-1816.12	  354.20
    121.4700	  678.00	  636.66	-1755.41	  354.65
    121.5700	  650.00	  632.18	-1778.93	  355.11
    121.6700	  598.00	  628.82	-1827.57	  355.58
    121.7700	  620.00	  626.48	-1803.23	  356.06
    121.8700	  567.00	  625.10	-1854.85	  356.55
    121.9700	  594.00	  624.58	-1827.33	  357.05
    122.0700	  651.00	  624.87	-1770.62	  357.56
    122.1700	  656.00	  625.88	-1766.63	  358.09
    122.2700	  621.00	  627.55	-1803.30	  358.62
    122.3700	  609.00	  629.80	-1817.55	  359.17
    122.4700	  645.00	  632.56	-1784.31	  359.73
    122.5700	  607.00	  635.75	-1825.50	  360.30
    122.6700	  617.00	  639.27	-1819.02	  360.88
    122.7700	  655.00	  643.02	-1784.77	  361.47
    122.8700	  629.00	  646.91	-1814.66	  362.08
    122.9700	  649.00	  650.82	-1798.57	  362.70
    123.0700	  615.00	  654.65	-1836.40	  363.33
    123.1700	  661.00	  658.27	-1794.02	  363.97
    123.2700	  670.00	  661.57	-1788.32	  364.62
    123.3700	  726.00	  664.44	-1735.19	  365.29
    123.4700	  643.00	  666.78	-1820.53	  365.97
    123.5700	  722.00	  668.51	-1743.26	  366.66
    123.6700	  651.00	  669.58	-1815.33	  367.37
    123.7700	  706.00	  669.96	-1760.71	  368.08
    123.8700	  663.00	  669.64	-1803.39	  368.81
    123.9700	  673.00	  668.67	-1792.42	  369.56
    124.0700	  670.00	  667.08	-1793.83	  370.31
    124.1700	  665.00	  664.95	-1796.70	  371.08
    124.2700	  656.00	  662.36	-1803.11	  371.87
    124.3700	  671.00	  659.39	-1785.14	  372.66
    124.4700	  691.00	  656.12	-1761.87	  373.47
    124.5700	  636.00	  652.63	-1813.38	  374.30
    124.6700	  651.00	  649.02	-1794.77	  375.14
    124.7700	  609.00	  645.36	-1833.11	  375.99
    124.8700	  620.00	  641.71	-1818.46	  376.85
    124.9700	  637.00	  492.26	-1652.01	  377.73
    125.0700	  631.00	  493.15	-1796.75	  378.62
    125.1700	  593.00	  494.06	-1796.75	  379.53
    125.2700	  629.00	  494.98	-1796.75	  380.45
    125.3700	  645.00	  495.92	-1796.75	  381.39
    125.4700	  603.00	  496.87	-1796.75	  382.34
    125.5700	  627.00	  497.84	-1796.75	  383.31
    125.6700	  564.00	  498.82	-1796.75	  384.29
    125.7700	  638.00	  499.81	-1796.75	  385.28
    125.8700	  603.00	  500.82	-1796.75	  386.29
    125.9700	  618.00	  501.85	-1796.75	  387.32
    126.0700	  586.00	  502.89	-1796.75	  388.36
    126.1700	  602.00	  503.94	-1796.75	  389.41
    126.2700	  556.00	  505.01	-1796.75	  390.48
    126.3700	  533.00	  506.10	-1796.75	  391.57
    126.4700	  608.00	  507.20	-1796.75	  392.67
    126.5700	  541.00	  508.32	-1796.75	  393.79
    126.6700	  612.00	  509.46	-1796.75	  394.93
    126.7700	  584.00	  510.61	-1796.75	  396.08
    126.8700	  580.00	  511.77	-1796.75	  397.24
    126.9700	  609.00	  512.95	-1796.75	  398.42
    127.0700	  602.00	  514.15	-1796.75	  399.62
    127.1700	  586.00	  515.37	-1796.75	  400.84
    127.2700	  581.00	  516.60	-1796.75	  402.07
    127.3700	  527.00	  517.85	-1796.75	  403.32
    127.4700	  588.00	  519.11	-1796.75	  404.58
    127.5700	  590.00	  520.39	-1796.75	  405.86
    127.6700	  619.00	  521.69	-1796.75	  407.16
    127.7700	  586.00	  523.01	-1796.75	  408.48
    127.8700	  620.00	  524.34	-1796.75	  409.81
    127.9700	  603.00	  525.69	-1796.75	  411.16
    128.0700	  647.00	  527.06	-1796.75	  412.53
    128.1700	  606.00	  528.45	-1796.75	  413.92
    128.2700	  644.00	  529.85	-1796.75	  415.32
    128.3700	  689.00	  531.27	-1796.75	  416.74
    128.4700	  645.00	  532.71	-1796.75	  418.18
    128.5700	    0.00	  534.17	-1796.75	  419.64
    128.6700	    0.00	  535.65	-1796.75	  421.12
     12.3560	        	        	        	        	       0	(  0  0  2)	  0  1
     24.9970	        	        	        	        	       0	(  0  0  4)	  0  1
     28.4338	        	        	        	        	       0	(  1  0  0)	  0  1
     29.1348	        	        	        	        	       0	(  1  0  1)	  0  1
     31.1518	        	        	        	        	       0	(  1  0  2)	  0  1
     34.2768	        	        	        	        	       0	(  1  0  3)	  0  1
     37.9584	        	        	        	        	       0	(  0  0  6)	  0  1
     38.2752	        	        	        	        	       0	(  1  0  4)	  0  1
     42.9503	        	        	        	        	       0	(  1  0  5)	  0  1
     48.1628	        	        	        	        	       0	(  1  0  6)	  0  1
     50.4636	        	        	        	        	       0	(  1  1  0)	  0  1
     51.4500	        	        	        	        	       0	(  0  0  8)	  0  1
     52.1970	        	        	        	        	       0	(  1  1  2)	  0  1
     53.8250	        	        	        	        	       0	(  1  0  7)	  0  1
     57.1752	        	        	        	        	       0	(  1  1  4)	  0  1
     59.0009	        	        	        	        	       0	(  2  0  0)	  0  1
     59.3950	        	        	        	        	       0	(  2  0  1)	  0  1
     59.8910	        	        	        	        	       0	(  1  0  8)	  0  1
     60.5678	        	        	        	        	       0	(  2  0  2)	  0  1
     62.4935	        	        	        	        	       0	(  2  0  3)	  0  1
     64.9187	        	        	        	        	       0	(  1  1  6)	  0  1
     65.1348	        	        	        	        	       0	(  2  0  4)	  0  1
     65.7624	        	        	        	        	       0	(  0  0 10)	  0  1
     66.3472	        	        	        	        	       0	(  1  0  9)	  0  1
     68.4512	        	        	        	        	       0	(  2  0  5)	  0  1
     72.4059	        	        	        	        	       0	(  2  0  6)	  0  1
     73.2088	        	        	        	        	       0	(  1  0 10)	  0  1
     75.0251	        	        	        	        	       0	(  1  1  8)	  0  1
     76.9729	        	        	        	        	       0	(  2  0  7)	  0  1
     80.5193	        	        	        	        	       0	(  1  0 11)	  0  1
     81.3502	        	        	        	        	       0	(  0  0 12)	  0  1
     81.3672	        	        	        	        	       0	(  2  1  0)	  0  1
     81.7098	        	        	        	        	       0	(  2  1  1)	  0  1
     82.1425	        	        	        	        	       0	(  2  0  8)	  0  1
     82.7358	        	        	        	        	       0	(  2  1  2)	  0  1
     84.4409	        	        	        	        	       0	(  2  1  3)	  0  1
     86.8203	        	        	        	        	       0	(  2  1  4)	  0  1
     87.3925	        	        	        	        	       0	(  1  1 10)	  0  1
     87.9279	        	        	        	        	       0	(  2  0  9)	  0  1
     88.3567	        	        	        	        	       0	(  1  0 12)	  0  1
     89.8725	        	        	        	        	       0	(  2  1  5)	  0  1
     93.6037	        	        	        	        	       0	(  2  1  6)	  0  1
     94.3733	        	        	        	        	       0	(  2  0 10)	  0  1
     95.3575	        	        	        	        	       0	(  3  0  0)	  0  1
     95.6981	        	        	        	        	       0	(  3  0  1)	  0  1
     96.7213	        	        	        	        	       0	(  3  0  2)	  0  1
     96.8483	        	        	        	        	       0	(  1  0 13)	  0  1
     98.0352	        	        	        	        	       0	(  2  1  7)	  0  1
     98.4316	        	        	        	        	       0	(  3  0  3)	  0  1
     99.0468	        	        	        	        	       0	(  0  0 14)	  0  1
    100.8395	        	        	        	        	       0	(  3  0  4)	  0  1
    101.5680	        	        	        	        	       0	(  2  0 11)	  0  1
    102.4075	        	        	        	        	       0	(  1  1 12)	  0  1
    103.2124	        	        	        	        	       0	(  2  1  8)	  0  1
    103.9650	        	        	        	        	       0	(  3  0  5)	  0  1
    106.2035	        	        	        	        	       0	(  1  0 14)	  0  1
    107.8454	        	        	        	        	       0	(  3  0  6)	  0  1
    109.2204	        	        	        	        	       0	(  2  1  9)	  0  1
    109.6752	        	        	        	        	       0	(  2  0 12)	  0  1
    112.5459	        	        	        	        	       0	(  3  0  7)	  0  1
    116.2135	        	        	        	        	       0	(  2  1 10)	  0  1
    116.7932	        	        	        	        	       0	(  1  0 15)	  0  1
    117.3129	        	        	        	        	       0	(  2  2  0)	  0  1
    118.1813	        	        	        	        	       0	(  3  0  8)	  0  1
    118.8517	        	        	        	        	       0	(  2  2  2)	  0  1
    118.9958	        	        	        	        	       0	(  2  0 13)	  0  1
    120.8308	        	        	        	        	       0	(  0  0 16)	  0  1
    121.5194	        	        	        	        	       0	(  1  1 14)	  0  1
    123.6168	        	        	        	        	       0	(  2  2  4)	  0  1
    124.4803	        	        	        	        	       0	(  2  1 11)	  0  1
    124.9583	        	        	        	        	       0	(  3  0  9)	  0  1
    125.5045	        	        	        	        	       0	(  3  1  0)	  0  1
    125.9226	        	        	        	        	       0	(  3  1  1)	  0  1
    127.1908	        	        	        	        	       0	(  3  1  2)	  0  1
    129.3790	        	        	        	        	       0	(  1  0 16)	  0  1
    129.3537	        	        	        	        	       0	(  3  1  3)	  0  1
    130.1458	        	        	        	        	       0	(  2  0 14)	  0  1
    132.2349	        	        	        	        	       0	(  2  2  6)	  0  1
    132.5009	        	        	        	        	       0	(  3  1  4)	  0  1
    133.2826	        	        	        	        	       0	(  3  0 10)	  0  1
    134.6243	        	        	        	        	       0	(  2  1 12)	  0  1
    136.8000	        	        	        	        	       0	(  3  1  5)	  0  1
    142.5821	        	        	        	        	       0	(  3  1  6)	  0  1
    144.1120	        	        	        	        	       0	(  3  0 11)	  0  1
    144.7595	        	        	        	        	       0	(  2  0 15)	  0  1
    146.1171	        	        	        	        	       0	(  1  0 17)	  0  1
    146.9585	        	        	        	        	       0	(  2  2  8)	  0  1
    148.2976	        	        	        	        	       0	(  2  1 13)	  0  1
    150.6225	        	        	        	        	       0	(  3  1  7)	  0  1
    151.4767	        	        	        	        	       0	(  1  1 16)	  0  1
    156.3282	        	        	        	        	       0	(  0  0 18)	  0  1
    161.2357	        	        	        	        	       0	(  3  0 12)	  0  1
    161.2885	        	        	        	        	       0	(  4  0  0)	  0  1
    162.3836	        	        	        	        	       0	(  4  0  1)	  0  1
    163.8717	        	        	        	        	       0	(  3  1  8)	  0  1
    166.1678	        	        	        	        	       0	(  4  0  2)	  0  1
