MSG Master    CELL:    5.91909   5.91909  23.27295   90.0000   90.0000  120.0000   SPGR: P 63/m m c             TEMP:   1074.85
  1   1280     2.52000     0.00000    -0.12987     0.00000     0.00000    0
    99     0     2
       0.00000      10.00000
     125.00000     130.00000
 2Theta	Yobs	Ycal	Yobs-Ycal	Backg	Posr	(hkl)	K
      0.7700	    0.00	  553.28	-1758.25	  434.52
      0.8700	    0.00	  553.90	-1758.25	  435.14
      0.9700	   44.00	  554.51	-1758.25	  435.75
      1.0700	   38.00	  555.11	-1758.25	  436.35
      1.1700	   64.00	  555.70	-1758.25	  436.94
      1.2700	   39.00	  556.28	-1758.25	  437.52
      1.3700	   55.00	  556.86	-1758.25	  438.09
      1.4700	   99.00	  557.42	-1758.25	  438.65
      1.5700	  284.00	  557.97	-1758.25	  439.20
      1.6700	  461.00	  558.51	-1758.25	  439.75
      1.7700	  552.00	  559.05	-1758.25	  440.28
      1.8700	  685.00	  559.57	-1758.25	  440.81
      1.9700	  729.00	  560.09	-1758.25	  441.32
      2.0700	  725.00	  560.59	-1758.25	  441.83
      2.1700	  778.00	  561.09	-1758.25	  442.32
      2.2700	  740.00	  561.58	-1758.25	  442.81
      2.3700	  758.00	  562.06	-1758.25	  443.29
      2.4700	  691.00	  562.53	-1758.25	  443.76
      2.5700	  665.00	  562.99	-1758.25	  444.22
      2.6700	  670.00	  563.44	-1758.25	  444.68
      2.7700	  584.00	  563.89	-1758.25	  445.12
      2.8700	  640.00	  564.32	-1758.25	  445.56
      2.9700	  596.00	  564.75	-1758.25	  445.98
      3.0700	  605.00	  565.17	-1758.25	  446.40
      3.1700	  580.00	  565.58	-1758.25	  446.81
      3.2700	  580.00	  565.98	-1758.25	  447.21
      3.3700	  696.00	  566.37	-1758.25	  447.61
      3.4700	  783.00	  566.76	-1758.25	  447.99
      3.5700	  790.00	  567.14	-1758.25	  448.37
      3.6700	  904.00	  567.51	-1758.25	  448.74
      3.7700	  939.00	  567.87	-1758.25	  449.10
      3.8700	  997.00	  568.22	-1758.25	  449.45
      3.9700	  962.00	  568.56	-1758.25	  449.80
      4.0700	 1101.00	  568.90	-1758.25	  450.14
      4.1700	 1110.00	  569.23	-1758.25	  450.47
      4.2700	 1078.00	  569.55	-1758.25	  450.79
      4.3700	 1132.00	  569.87	-1758.25	  451.10
      4.4700	 1025.00	  570.17	-1758.25	  451.41
      4.5700	 1030.00	  570.47	-1758.25	  451.71
      4.6700	 1030.00	  570.76	-1758.25	  452.00
      4.7700	 1008.00	  571.05	-1758.25	  452.28
      4.8700	  953.00	  571.32	-1758.25	  452.56
      4.9700	  926.00	  571.59	-1758.25	  452.83
      5.0700	  940.00	  571.86	-1758.25	  453.09
      5.1700	  914.00	  572.11	-1758.25	  453.35
      5.2700	  941.00	  572.36	-1758.25	  453.59
      5.3700	  869.00	  572.60	-1758.25	  453.83
      5.4700	  835.00	  572.83	-1758.25	  454.07
      5.5700	  856.00	  573.06	-1758.25	  454.29
      5.6700	  863.00	  573.28	-1758.25	  454.51
      5.7700	  810.00	  573.49	-1758.25	  454.72
      5.8700	  765.00	  573.70	-1758.25	  454.93
      5.9700	  829.00	  573.89	-1758.25	  455.13
      6.0700	  804.00	  574.09	-1758.25	  455.32
      6.1700	  826.00	  574.27	-1758.25	  455.51
      6.2700	  812.00	  574.45	-1758.25	  455.69
      6.3700	  753.00	  574.62	-1758.25	  455.86
      6.4700	  726.00	  574.79	-1758.25	  456.02
      6.5700	  734.00	  574.95	-1758.25	  456.18
      6.6700	  730.00	  575.10	-1758.25	  456.34
      6.7700	  755.00	  575.25	-1758.25	  456.48
      6.8700	  762.00	  575.39	-1758.25	  456.62
      6.9700	  723.00	  575.52	-1758.25	  456.76
      7.0700	  687.00	  575.65	-1758.25	  456.89
      7.1700	  678.00	  575.77	-1758.25	  457.01
      7.2700	  651.00	  575.89	-1758.25	  457.12
      7.3700	  698.00	  576.00	-1758.25	  457.23
      7.4700	  680.00	  576.10	-1758.25	  457.34
      7.5700	  680.00	  576.20	-1758.25	  457.43
      7.6700	  659.00	  576.29	-1758.25	  457.53
      7.7700	  617.00	  576.38	-1758.25	  457.61
      7.8700	  607.00	  576.46	-1758.25	  457.69
      7.9700	  621.00	  576.53	-1758.25	  457.77
      8.0700	  619.00	  576.60	-1758.25	  457.84
      8.1700	  599.00	  576.66	-1758.25	  457.90
      8.2700	  675.00	  576.72	-1758.25	  457.96
      8.3700	  621.00	  576.77	-1758.25	  458.01
      8.4700	  584.00	  576.82	-1758.25	  458.05
      8.5700	  618.00	  576.86	-1758.25	  458.10
      8.6700	  592.00	  576.90	-1758.25	  458.13
      8.7700	  633.00	  576.93	-1758.25	  458.16
      8.8700	  646.00	  576.95	-1758.25	  458.19
      8.9700	  669.00	  576.97	-1758.25	  458.21
      9.0700	  649.00	  576.99	-1758.25	  458.22
      9.1700	  603.00	  577.00	-1758.25	  458.23
      9.2700	  607.00	  577.00	-1758.25	  458.24
      9.3700	  614.00	  577.00	-1758.25	  458.24
      9.4700	  589.00	  577.00	-1758.25	  458.23
      9.5700	  627.00	  576.99	-1758.25	  458.22
      9.6700	  625.00	  576.97	-1758.25	  458.21
      9.7700	  602.00	  576.95	-1758.25	  458.19
      9.8700	  610.00	  576.93	-1758.25	  458.16
      9.9700	  649.00	  576.90	-1758.25	  458.13
     10.0700	  577.00	  577.73	-1758.98	  458.10
     10.1700	  601.00	  577.78	-1735.03	  458.06
     10.2700	  589.00	  577.85	-1747.10	  458.01
     10.3700	  590.00	  577.95	-1746.20	  457.97
     10.4700	  646.00	  578.12	-1690.37	  457.91
     10.5700	  593.00	  578.40	-1743.65	  457.86
     10.6700	  588.00	  578.91	-1749.16	  457.79
     10.7700	  599.00	  579.75	-1739.00	  457.73
     10.8700	  597.00	  581.00	-1742.25	  457.66
     10.9700	  527.00	  582.64	-1813.89	  457.58
     11.0700	  590.00	  584.65	-1752.90	  457.50
     11.1700	  581.00	  587.01	-1764.26	  457.42
     11.2700	  569.00	  589.77	-1779.02	  457.33
     11.3700	  626.00	  593.01	-1725.26	  457.24
     11.4700	  621.00	  596.87	-1734.12	  457.15
     11.5700	  587.00	  601.57	-1772.82	  457.05
     11.6700	  619.00	  607.48	-1746.73	  456.94
     11.7700	  672.00	  615.25	-1701.50	  456.84
     11.8700	  629.00	  625.80	-1755.05	  456.73
     11.9700	  665.00	  639.72	-1732.97	  456.61
     12.0700	  650.00	  655.14	-1763.39	  456.49
     12.1700	  682.00	  665.58	-1741.83	  456.37
     12.2700	  702.00	  661.22	-1717.47	  456.24
     12.3700	  634.00	  639.72	-1763.97	  456.11
     12.4700	  640.00	  614.17	-1732.42	  455.98
     12.5700	  592.00	  595.62	-1761.87	  455.84
     12.6700	  572.00	  585.49	-1771.74	  455.70
     12.7700	  576.00	  580.82	-1763.07	  455.55
     12.8700	  565.00	  578.67	-1771.92	  455.41
     12.9700	  596.00	  577.47	-1739.72	  455.26
     13.0700	  596.00	  576.64	-1738.89	  455.10
     13.1700	  552.00	  576.00	-1782.25	  454.94
     13.2700	  515.00	  575.48	-1818.73	  454.78
     13.3700	  534.00	  575.04	-1799.29	  454.62
     13.4700	  593.00	  574.66	-1739.91	  454.45
     13.5700	  565.00	  574.32	-1767.57	  454.28
     13.6700	  570.00	  574.00	-1762.25	  454.10
     13.7700	  539.00	  573.71	-1792.96	  453.92
     13.8700	  509.00	  573.43	-1822.68	  453.74
     13.9700	  589.00	  573.17	-1742.42	  453.56
     14.0700	  543.00	  572.91	-1788.16	  453.37
     14.1700	  577.00	  572.66	-1753.91	  453.18
     14.2700	  545.00	  572.42	-1785.67	  452.99
     14.3700	  575.00	  572.18	-1755.43	  452.79
     14.4700	  560.00	  571.94	-1770.19	  452.60
     14.5700	  536.00	  571.71	-1793.96	  452.39
     14.6700	  587.00	  571.47	-1742.72	  452.19
     14.7700	  568.00	  571.24	-1761.49	  451.98
     14.8700	  585.00	  571.01	-1744.26	  451.77
     14.9700	  567.00	  570.77	-1762.02	  451.56
     15.0700	  556.00	  570.54	-1772.79	  451.35
     15.1700	  568.00	  570.30	-1760.55	  451.13
     15.2700	  593.00	  570.07	-1735.32	  450.91
     15.3700	  546.00	  569.83	-1782.08	  450.69
     15.4700	  551.00	  569.59	-1776.84	  450.46
     15.5700	  592.00	  569.35	-1735.60	  450.23
     15.6700	  582.00	  569.11	-1745.36	  450.00
     15.7700	  536.00	  568.87	-1791.12	  449.77
     15.8700	  552.00	  568.63	-1774.88	  449.54
     15.9700	  532.00	  568.38	-1794.63	  449.30
     16.0700	  579.00	  568.16	-1747.41	  449.06
     16.1700	  566.00	  567.91	-1760.16	  448.82
     16.2700	  606.00	  567.66	-1719.91	  448.57
     16.3700	  577.00	  567.41	-1748.66	  448.33
     16.4700	  569.00	  567.16	-1756.41	  448.08
     16.5700	  552.00	  566.90	-1773.15	  447.83
     16.6700	  591.00	  566.64	-1733.89	  447.58
     16.7700	  545.00	  566.39	-1779.64	  447.32
     16.8700	  550.00	  566.13	-1774.38	  447.07
     16.9700	  583.00	  565.86	-1741.11	  446.81
     17.0700	  562.00	  565.60	-1761.85	  446.55
     17.1700	  548.00	  565.34	-1775.59	  446.29
     17.2700	  592.00	  565.07	-1731.32	  446.02
     17.3700	  564.00	  564.80	-1759.05	  445.76
     17.4700	  591.00	  564.53	-1731.78	  445.49
     17.5700	  575.00	  564.26	-1747.51	  445.22
     17.6700	  497.00	  563.99	-1825.24	  444.95
     17.7700	  535.00	  563.71	-1786.96	  444.67
     17.8700	  561.00	  563.44	-1760.69	  444.40
     17.9700	  556.00	  563.27	-1765.52	  444.12
     18.0700	  560.00	  563.00	-1761.25	  443.85
     18.1700	  562.00	  562.72	-1758.97	  443.57
     18.2700	  528.00	  562.44	-1792.69	  443.29
     18.3700	  587.00	  562.16	-1733.41	  443.00
     18.4700	  599.00	  561.88	-1721.13	  442.72
     18.5700	  604.00	  561.59	-1715.84	  442.43
     18.6700	  595.00	  561.31	-1724.56	  442.15
     18.7700	  558.00	  561.02	-1761.27	  441.86
     18.8700	  577.00	  560.81	-1742.06	  441.57
     18.9700	  535.00	  560.53	-1783.78	  441.28
     19.0700	  561.00	  560.24	-1757.49	  440.98
     19.1700	  542.00	  559.95	-1776.20	  440.69
     19.2700	  562.00	  559.66	-1755.91	  440.40
     19.3700	  548.00	  559.37	-1769.62	  440.10
     19.4700	  543.00	  559.08	-1774.33	  439.80
     19.5700	  542.00	  558.79	-1775.04	  439.50
     19.6700	  509.00	  558.50	-1807.75	  439.20
     19.7700	  561.00	  558.21	-1755.46	  438.90
     19.8700	  528.00	  557.91	-1788.16	  438.60
     19.9700	  559.00	  557.62	-1756.87	  438.30
     20.0700	  514.00	  557.33	-1801.58	  437.99
     20.1700	  549.00	  557.03	-1766.28	  437.69
     20.2700	  535.00	  556.73	-1779.98	  437.38
     20.3700	  600.00	  556.44	-1714.69	  437.07
     20.4700	  523.00	  556.14	-1791.39	  436.77
     20.5700	  522.00	  555.85	-1792.10	  436.46
     20.6700	  560.00	  555.52	-1753.77	  436.15
     20.7700	  550.00	  555.22	-1763.47	  435.84
     20.8700	  592.00	  554.96	-1721.21	  435.53
     20.9700	  561.00	  554.66	-1751.91	  435.21
     21.0700	  554.00	  554.37	-1758.62	  434.90
     21.1700	  582.00	  554.07	-1730.32	  434.59
     21.2700	  539.00	  553.78	-1773.03	  434.27
     21.3700	  531.00	  553.48	-1780.73	  433.96
     21.4700	  518.00	  553.19	-1793.44	  433.64
     21.5700	  545.00	  552.90	-1766.15	  433.33
     21.6700	  620.00	  552.61	-1690.86	  433.01
     21.7700	  516.00	  552.32	-1794.57	  432.69
     21.8700	  547.00	  552.03	-1763.28	  432.37
     21.9700	  559.00	  551.74	-1750.99	  432.05
     22.0700	  542.00	  551.46	-1767.71	  431.73
     22.1700	  544.00	  551.18	-1765.43	  431.42
     22.2700	  581.00	  550.90	-1728.15	  431.09
     22.3700	  548.00	  550.62	-1760.87	  430.77
     22.4700	  588.00	  550.35	-1720.60	  430.45
     22.5700	  549.00	  550.08	-1759.33	  430.13
     22.6700	  529.00	  549.82	-1779.07	  429.81
     22.7700	  548.00	  549.57	-1759.82	  429.49
     22.8700	  556.00	  549.32	-1751.57	  429.17
     22.9700	  538.00	  549.09	-1769.34	  428.84
     23.0700	  545.00	  548.87	-1762.12	  428.52
     23.1700	  534.00	  548.66	-1772.91	  428.20
     23.2700	  565.00	  548.48	-1741.73	  427.87
     23.3700	  565.00	  548.32	-1741.57	  427.55
     23.4700	  525.00	  548.19	-1781.44	  427.23
     23.5700	  570.00	  548.12	-1736.37	  426.90
     23.6700	  530.00	  548.24	-1776.49	  426.58
     23.7700	  564.00	  548.35	-1742.60	  426.25
     23.8700	  600.00	  548.67	-1706.92	  425.93
     23.9700	  569.00	  549.44	-1738.69	  425.60
     24.0700	  588.00	  551.06	-1721.31	  425.28
     24.1700	  558.00	  554.16	-1754.41	  424.96
     24.2700	  548.00	  559.55	-1769.80	  424.63
     24.3700	  536.00	  568.14	-1790.39	  424.31
     24.4700	  559.00	  580.84	-1780.09	  423.98
     24.5700	  558.00	  597.72	-1797.97	  423.66
     24.6700	  633.00	  615.91	-1741.16	  423.33
     24.7700	  602.00	  627.94	-1784.19	  423.01
     24.8700	  649.00	  624.22	-1733.47	  422.68
     24.9700	  626.00	  604.22	-1736.47	  422.36
     25.0700	  592.00	  580.62	-1746.87	  422.04
     25.1700	  570.00	  563.07	-1751.32	  421.71
     25.2700	  583.00	  553.12	-1728.37	  421.39
     25.3700	  531.00	  548.38	-1775.63	  421.07
     25.4700	  528.00	  546.18	-1776.43	  420.74
     25.5700	  574.00	  545.01	-1729.26	  420.42
     25.6700	  544.00	  544.25	-1758.50	  420.10
     25.7700	  526.00	  543.69	-1775.94	  419.77
     25.8700	  564.00	  543.28	-1737.53	  419.45
     25.9700	  561.00	  542.97	-1740.22	  419.13
     26.0700	  534.00	  542.75	-1767.00	  418.81
     26.1700	  600.00	  542.60	-1700.85	  418.49
     26.2700	  580.00	  542.54	-1720.79	  418.17
     26.3700	  582.00	  542.56	-1718.81	  417.85
     26.4700	  568.00	  542.66	-1732.91	  417.53
     26.5700	  571.00	  542.87	-1730.12	  417.21
     26.6700	  574.00	  543.20	-1727.45	  416.89
     26.7700	  539.00	  543.68	-1762.93	  416.57
     26.8700	  558.00	  544.34	-1744.59	  416.25
     26.9700	  539.00	  545.24	-1764.49	  415.94
     27.0700	  573.00	  546.47	-1731.72	  415.62
     27.1700	  527.00	  548.18	-1779.43	  415.30
     27.2700	  525.00	  550.64	-1783.89	  414.99
     27.3700	  558.00	  554.42	-1754.67	  414.67
     27.4700	  517.00	  560.59	-1801.84	  414.36
     27.5700	  579.00	  571.13	-1750.38	  414.04
     27.6700	  544.00	  589.07	-1803.32	  413.73
     27.7700	  554.00	  618.34	-1822.59	  413.42
     27.8700	  625.00	  662.24	-1795.49	  413.11
     27.9700	  689.00	  720.71	-1789.96	  412.79
     28.0700	  814.00	  786.70	-1730.95	  412.48
     28.1700	  940.00	  843.14	-1661.39	  412.17
     28.2700	  983.00	  864.79	-1640.04	  411.86
     28.3700	  901.00	  837.57	-1694.82	  411.56
     28.4700	  792.00	  785.74	-1751.99	  411.25
     28.5700	  728.00	  747.28	-1777.53	  410.94
     28.6700	  672.00	  739.00	-1825.25	  410.63
     28.7700	  720.00	  756.09	-1794.34	  410.33
     28.8700	  771.00	  778.93	-1766.18	  410.02
     28.9700	  794.00	  780.65	-1744.90	  409.72
     29.0700	  752.00	  744.98	-1751.23	  409.42
     29.1700	  709.00	  686.78	-1736.03	  409.12
     29.2700	  634.00	  631.98	-1756.23	  408.81
     29.3700	  645.00	  592.62	-1705.87	  408.51
     29.4700	  640.00	  568.82	-1687.07	  408.21
     29.5700	  579.00	  555.89	-1735.14	  407.91
     29.6700	  581.00	  548.99	-1726.24	  407.62
     29.7700	  580.00	  545.03	-1723.28	  407.32
     29.8700	  581.00	  542.54	-1719.79	  407.02
     29.9700	  620.00	  540.93	-1679.18	  406.73
     30.0700	  608.00	  540.09	-1690.34	  406.44
     30.1700	  583.00	  540.17	-1715.42	  406.14
     30.2700	  586.00	  541.66	-1713.91	  405.85
     30.3700	  600.00	  545.55	-1703.80	  405.56
     30.4700	  530.00	  553.28	-1781.53	  405.27
     30.5700	  558.00	  566.35	-1766.60	  404.98
     30.6700	  591.00	  585.10	-1752.35	  404.69
     30.7700	  573.00	  607.09	-1792.34	  404.41
     30.8700	  628.00	  625.94	-1756.19	  404.12
     30.9700	  631.00	  632.15	-1759.40	  403.84
     31.0700	  600.00	  619.44	-1777.69	  403.55
     31.1700	  587.00	  594.56	-1765.81	  403.27
     31.2700	  546.00	  569.86	-1782.11	  402.99
     31.3700	  540.00	  551.68	-1769.93	  402.71
     31.4700	  526.00	  540.61	-1772.86	  402.43
     31.5700	  543.00	  534.67	-1749.92	  402.15
     31.6700	  527.00	  531.59	-1762.84	  401.87
     31.7700	  601.00	  529.88	-1687.13	  401.60
     31.8700	  525.00	  528.79	-1762.04	  401.32
     31.9700	  555.00	  528.05	-1731.30	  401.05
     32.0700	  528.00	  527.52	-1757.77	  400.78
     32.1700	  570.00	  527.17	-1715.42	  400.51
     32.2700	  540.00	  526.97	-1745.22	  400.24
     32.3700	  563.00	  526.92	-1722.17	  399.97
     32.4700	  523.00	  527.02	-1762.27	  399.70
     32.5700	  485.00	  527.29	-1800.54	  399.44
     32.6700	  499.00	  527.77	-1787.02	  399.17
     32.7700	  552.00	  528.49	-1734.74	  398.91
     32.8700	  539.00	  529.53	-1748.78	  398.65
     32.9700	  556.00	  531.00	-1733.25	  398.39
     33.0700	  533.00	  533.14	-1758.39	  398.13
     33.1700	  580.00	  536.42	-1714.67	  397.87
     33.2700	  590.00	  541.94	-1710.19	  397.61
     33.3700	  546.00	  552.04	-1764.29	  397.36
     33.4700	  566.00	  571.16	-1763.41	  397.10
     33.5700	  609.00	  606.25	-1755.50	  396.85
     33.6700	  634.00	  665.09	-1789.34	  396.60
     33.7700	  749.00	  750.84	-1760.09	  396.35
     33.8700	  877.00	  853.66	-1734.91	  396.10
     33.9700	  990.00	  945.62	-1713.87	  395.85
     34.0700	 1066.00	  984.52	-1676.77	  395.61
     34.1700	  991.00	  940.44	-1707.69	  395.36
     34.2700	  876.00	  836.48	-1718.73	  395.12
     34.3700	  755.00	  725.68	-1728.93	  394.88
     34.4700	  670.00	  640.08	-1728.33	  394.64
     34.5700	  600.00	  586.15	-1744.40	  394.40
     34.6700	  587.00	  556.79	-1728.04	  394.16
     34.7700	  557.00	  541.93	-1743.18	  393.92
     34.8700	  552.00	  534.13	-1740.38	  393.69
     34.9700	  521.00	  529.46	-1766.71	  393.46
     35.0700	  523.00	  526.23	-1761.48	  393.22
     35.1700	  519.00	  523.82	-1763.07	  392.99
     35.2700	  551.00	  521.89	-1729.14	  392.77
     35.3700	  549.00	  520.33	-1729.58	  392.54
     35.4700	  499.00	  519.02	-1778.27	  392.31
     35.5700	  512.00	  517.93	-1764.18	  392.09
     35.6700	  483.00	  516.98	-1792.23	  391.87
     35.7700	  521.00	  516.17	-1753.42	  391.64
     35.8700	  529.00	  515.45	-1744.70	  391.42
     35.9700	  496.00	  515.28	-1777.53	  391.21
     36.0700	  542.00	  514.72	-1730.97	  390.99
     36.1700	  535.00	  514.21	-1737.46	  390.77
     36.2700	  499.00	  513.75	-1773.00	  390.56
     36.3700	  521.00	  513.33	-1750.58	  390.35
     36.4700	  512.00	  512.95	-1759.20	  390.14
     36.5700	  496.00	  512.62	-1774.87	  389.93
     36.6700	  511.00	  512.32	-1759.57	  389.72
     36.7700	  543.00	  512.07	-1727.32	  389.52
     36.8700	  509.00	  511.89	-1761.14	  389.31
     36.9700	  521.00	  511.84	-1749.09	  389.11
     37.0700	  512.00	  512.04	-1758.29	  388.91
     37.1700	  510.00	  512.73	-1760.98	  388.71
     37.2700	  495.00	  514.25	-1777.50	  388.51
     37.3700	  534.00	  516.90	-1741.15	  388.31
     37.4700	  519.00	  520.68	-1759.93	  388.12
     37.5700	  524.00	  524.89	-1759.14	  387.93
     37.6700	  468.00	  528.14	-1818.39	  387.73
     37.7700	  524.00	  528.91	-1763.16	  387.54
     37.8700	  521.00	  526.88	-1764.13	  387.36
     37.9700	  504.00	  523.39	-1777.64	  387.17
     38.0700	  523.00	  519.64	-1754.90	  386.98
     38.1700	  509.00	  516.14	-1765.39	  386.80
     38.2700	  518.00	  513.19	-1753.44	  386.62
     38.3700	  507.00	  510.97	-1762.22	  386.44
     38.4700	  494.00	  509.44	-1773.69	  386.26
     38.5700	  476.00	  508.44	-1790.69	  386.08
     38.6700	  486.00	  507.80	-1780.05	  385.91
     38.7700	  493.00	  507.27	-1772.52	  385.73
     38.8700	  476.00	  506.95	-1789.20	  385.56
     38.9700	  532.00	  506.68	-1732.93	  385.39
     39.0700	  492.00	  506.45	-1772.70	  385.22
     39.1700	  557.00	  506.24	-1707.49	  385.05
     39.2700	  524.00	  505.97	-1740.22	  384.89
     39.3700	  502.00	  505.79	-1762.04	  384.73
     39.4700	  514.00	  505.75	-1750.00	  384.56
     39.5700	  514.00	  505.60	-1749.85	  384.40
     39.6700	  525.00	  505.45	-1738.70	  384.24
     39.7700	  508.00	  505.32	-1755.57	  384.09
     39.8700	  484.00	  505.19	-1779.44	  383.93
     39.9700	  546.00	  505.07	-1717.32	  383.78
     40.0700	  494.00	  504.96	-1769.21	  383.62
     40.1700	  481.00	  504.86	-1782.11	  383.47
     40.2700	  465.00	  504.77	-1798.02	  383.33
     40.3700	  519.00	  504.70	-1743.95	  383.18
     40.4700	  523.00	  504.63	-1739.88	  383.03
     40.5700	  497.00	  504.58	-1765.83	  382.89
     40.6700	  486.00	  504.55	-1776.80	  382.75
     40.7700	  464.00	  504.54	-1798.79	  382.61
     40.8700	  504.00	  504.55	-1758.80	  382.47
     40.9700	  509.00	  504.58	-1753.83	  382.33
     41.0700	  492.00	  504.65	-1770.90	  382.20
     41.1700	  519.00	  504.75	-1744.00	  382.06
     41.2700	  483.00	  504.87	-1780.12	  381.93
     41.3700	  450.00	  505.09	-1813.34	  381.80
     41.4700	  516.00	  505.39	-1747.64	  381.67
     41.5700	  493.00	  506.23	-1771.48	  381.54
     41.6700	  543.00	  506.82	-1722.07	  381.42
     41.7700	  504.00	  507.72	-1761.97	  381.30
     41.8700	  490.00	  509.22	-1777.47	  381.17
     41.9700	  509.00	  512.00	-1761.25	  381.05
     42.0700	  489.00	  517.36	-1786.61	  380.94
     42.1700	  528.00	  527.29	-1757.54	  380.82
     42.2700	  548.00	  544.10	-1754.35	  380.70
     42.3700	  503.00	  569.03	-1824.28	  380.59
     42.4700	  587.00	  600.00	-1771.25	  380.48
     42.5700	  622.00	  630.25	-1766.50	  380.37
     42.6700	  617.00	  648.78	-1790.03	  380.26
     42.7700	  589.00	  645.91	-1815.16	  380.15
     42.8700	  539.00	  622.36	-1841.61	  380.05
     42.9700	  574.00	  589.87	-1774.12	  379.95
     43.0700	  546.00	  559.54	-1771.79	  379.84
     43.1700	  558.00	  536.81	-1737.06	  379.74
     43.2700	  537.00	  522.35	-1743.60	  379.65
     43.3700	  500.00	  514.24	-1772.49	  379.55
     43.4700	  556.00	  510.01	-1712.26	  379.45
     43.5700	  488.00	  507.81	-1778.06	  379.36
     43.6700	  494.00	  506.73	-1770.98	  379.27
     43.7700	  501.00	  505.91	-1763.16	  379.18
     43.8700	  470.00	  505.32	-1793.57	  379.09
     43.9700	  540.00	  504.91	-1723.16	  379.01
     44.0700	  526.00	  504.57	-1736.82	  378.92
     44.1700	  499.00	  504.30	-1763.55	  378.84
     44.2700	  519.00	  504.10	-1743.35	  378.76
     44.3700	  513.00	  503.94	-1749.19	  378.68
     44.4700	  486.00	  503.82	-1776.07	  378.60
     44.5700	  572.00	  503.61	-1689.86	  378.52
     44.6700	  508.00	  503.57	-1753.82	  378.45
     44.7700	  516.00	  503.55	-1745.80	  378.37
     44.8700	  504.00	  503.55	-1757.80	  378.30
     44.9700	  531.00	  503.58	-1730.83	  378.23
     45.0700	  530.00	  503.64	-1731.89	  378.16
     45.1700	  488.00	  503.89	-1774.14	  378.10
     45.2700	  503.00	  503.99	-1759.24	  378.03
     45.3700	  502.00	  504.11	-1760.36	  377.97
     45.4700	  465.00	  504.26	-1797.51	  377.91
     45.5700	  526.00	  504.43	-1736.68	  377.85
     45.6700	  511.00	  504.62	-1751.87	  377.79
     45.7700	  509.00	  504.84	-1754.09	  377.73
     45.8700	  534.00	  505.09	-1729.34	  377.68
     45.9700	  530.00	  505.37	-1733.62	  377.62
     46.0700	  488.00	  505.69	-1775.94	  377.57
     46.1700	  503.00	  506.05	-1761.30	  377.52
     46.2700	  528.00	  506.46	-1736.71	  377.47
     46.3700	  515.00	  506.92	-1750.17	  377.43
     46.4700	  488.00	  507.44	-1777.69	  377.38
     46.5700	  531.00	  508.04	-1735.29	  377.34
     46.6700	  493.00	  508.74	-1773.99	  377.30
     46.7700	  534.00	  509.56	-1733.81	  377.26
     46.8700	  493.00	  510.58	-1775.83	  377.22
     46.9700	  516.00	  511.93	-1754.18	  377.18
     47.0700	  499.00	  513.92	-1773.17	  377.14
     47.1700	  544.00	  517.26	-1731.51	  377.11
     47.2700	  502.00	  522.78	-1779.03	  377.08
     47.3700	  487.00	  531.89	-1803.14	  377.05
     47.4700	  510.00	  545.79	-1794.04	  377.02
     47.5700	  562.00	  564.58	-1760.83	  376.99
     47.6700	  565.00	  586.33	-1779.58	  376.96
     47.7700	  623.00	  606.37	-1741.62	  376.94
     47.8700	  595.00	  618.12	-1781.37	  376.91
     47.9700	  577.00	  616.67	-1797.92	  376.89
     48.0700	  580.00	  603.32	-1781.57	  376.87
     48.1700	  552.00	  584.71	-1790.96	  376.85
     48.2700	  575.00	  567.13	-1750.38	  376.84
     48.3700	  591.00	  554.11	-1721.36	  376.82
     48.4700	  530.00	  546.58	-1774.83	  376.81
     48.5700	  533.00	  543.89	-1769.14	  376.80
     48.6700	  516.00	  544.79	-1787.04	  376.78
     48.7700	  537.00	  548.23	-1769.48	  376.77
     48.8700	  540.00	  553.70	-1771.95	  376.77
     48.9700	  552.00	  561.20	-1767.45	  376.76
     49.0700	  577.00	  571.42	-1752.67	  376.76
     49.1700	  577.00	  586.06	-1767.31	  376.75
     49.2700	  600.00	  608.69	-1766.94	  376.75
     49.3700	  689.00	  646.11	-1715.36	  376.75
     49.4700	  712.00	  710.00	-1756.25	  376.75
     49.5700	  784.00	  815.93	-1790.18	  376.75
     49.6700	  918.00	  982.43	-1822.68	  376.76
     49.7700	 1215.00	 1222.81	-1766.06	  376.76
     49.8700	 1428.00	 1534.54	-1864.79	  376.77
     49.9700	 1836.00	 1887.56	-1809.81	  376.78
     50.0700	 2241.00	 2215.36	-1732.61	  376.79
     50.1700	 2555.00	 2420.29	-1623.54	  376.80
     50.2700	 2506.00	 2417.49	-1669.74	  376.81
     50.3700	 2284.00	 2206.13	-1680.38	  376.83
     50.4700	 1933.00	 1874.18	-1699.43	  376.84
     50.5700	 1386.00	 1522.92	-1895.17	  376.86
     50.6700	 1045.00	 1218.58	-1931.83	  376.88
     50.7700	  751.00	  989.42	-1996.67	  376.90
     50.8700	  717.00	  836.15	-1877.40	  376.92
     50.9700	  641.00	  743.24	-1860.49	  376.94
     51.0700	  670.00	  689.63	-1777.88	  376.96
     51.1700	  575.00	  656.52	-1839.77	  376.99
     51.2700	  625.00	  631.70	-1764.95	  377.02
     51.3700	  574.00	  610.27	-1794.52	  377.04
     51.4700	  576.00	  591.64	-1773.89	  377.07
     51.5700	  576.00	  576.39	-1758.64	  377.10
     51.6700	  552.00	  564.82	-1771.07	  377.14
     51.7700	  569.00	  556.62	-1745.88	  377.17
     51.8700	  529.00	  551.12	-1780.37	  377.20
     51.9700	  563.00	  547.51	-1742.76	  377.24
     52.0700	  560.00	  545.20	-1743.45	  377.28
     52.1700	  582.00	  544.10	-1720.35	  377.32
     52.2700	  530.00	  543.71	-1771.96	  377.36
     52.3700	  580.00	  544.38	-1722.63	  377.40
     52.4700	  523.00	  546.59	-1781.84	  377.44
     52.5700	  560.00	  551.41	-1749.66	  377.48
     52.6700	  596.00	  561.10	-1723.35	  377.53
     52.7700	  585.00	  579.71	-1752.96	  377.58
     52.8700	  624.00	  613.38	-1747.63	  377.62
     52.9700	  694.00	  669.54	-1733.79	  377.67
     53.0700	  840.00	  754.19	-1672.44	  377.72
     53.1700	  923.00	  867.52	-1702.77	  377.77
     53.2700	 1006.00	  999.23	-1751.48	  377.83
     53.3700	 1131.00	 1125.60	-1752.85	  377.88
     53.4700	 1168.00	 1211.61	-1801.86	  377.93
     53.5700	 1166.00	 1224.53	-1816.78	  377.99
     53.6700	 1099.00	 1158.14	-1817.39	  378.05
     53.7700	  997.00	 1039.47	-1800.72	  378.11
     53.8700	  904.00	  905.89	-1760.14	  378.17
     53.9700	  736.00	  785.39	-1807.64	  378.23
     54.0700	  679.00	  692.07	-1771.32	  378.29
     54.1700	  603.00	  628.34	-1783.59	  378.35
     54.2700	  626.00	  589.30	-1721.55	  378.42
     54.3700	  547.00	  567.48	-1778.73	  378.48
     54.4700	  571.00	  556.06	-1743.31	  378.55
     54.5700	  562.00	  550.40	-1746.65	  378.62
     54.6700	  525.00	  547.75	-1781.00	  378.69
     54.7700	  563.00	  546.76	-1742.01	  378.76
     54.8700	  552.00	  546.81	-1753.06	  378.83
     54.9700	  546.00	  547.68	-1759.93	  378.90
     55.0700	  562.00	  549.29	-1745.54	  378.98
     55.1700	  501.00	  551.68	-1808.93	  379.05
     55.2700	  544.00	  554.85	-1769.10	  379.13
     55.3700	  570.00	  558.97	-1747.22	  379.20
     55.4700	  562.00	  564.25	-1760.50	  379.28
     55.5700	  587.00	  571.09	-1742.34	  379.36
     55.6700	  596.00	  580.33	-1742.58	  379.44
     55.7700	  631.00	  593.65	-1720.90	  379.52
     55.8700	  610.00	  614.42	-1762.67	  379.60
     55.9700	  645.00	  648.93	-1762.18	  379.68
     56.0700	  689.00	  707.60	-1776.85	  379.77
     56.1700	  746.00	  805.40	-1817.65	  379.85
     56.2700	  848.00	  960.02	-1870.27	  379.94
     56.3700	 1134.00	 1186.60	-1810.85	  380.03
     56.4700	 1430.00	 1489.15	-1817.40	  380.11
     56.5700	 1828.00	 1851.04	-1781.29	  380.20
     56.6700	 2000.00	 2227.35	-1985.60	  380.29
     56.7700	 2485.00	 2542.84	-1816.09	  380.38
     56.8700	 2727.00	 2706.37	-1737.62	  380.48
     56.9700	 2536.00	 2657.14	-1879.39	  380.57
     57.0700	 2365.00	 2414.21	-1807.46	  380.66
     57.1700	 2104.00	 2060.75	-1715.00	  380.76
     57.2700	 1616.00	 1685.40	-1827.65	  380.85
     57.3700	 1325.00	 1350.00	-1783.25	  380.95
     57.4700	 1037.00	 1085.73	-1806.98	  381.05
     57.5700	  890.00	  898.57	-1766.82	  381.14
     57.6700	  779.00	  778.54	-1757.79	  381.24
     57.7700	  674.00	  709.14	-1793.39	  381.34
     57.8700	  692.00	  674.82	-1741.07	  381.44
     57.9700	  696.00	  664.61	-1726.86	  381.54
     58.0700	  665.00	  672.69	-1765.94	  381.65
     58.1700	  710.00	  697.10	-1745.35	  381.75
     58.2700	  752.00	  737.87	-1744.12	  381.85
     58.3700	  841.00	  795.12	-1712.37	  381.96
     58.4700	  961.00	  867.37	-1664.62	  382.06
     58.5700	 1100.00	  950.06	-1608.31	  382.17
     58.6700	 1201.00	 1034.99	-1592.24	  382.28
     58.7700	 1331.00	 1112.74	-1539.99	  382.39
     58.8700	 1398.00	 1176.95	-1537.20	  382.49
     58.9700	 1651.00	 1224.24	-1331.49	  382.60
     59.0700	 1523.00	 1249.98	-1485.23	  382.71
     59.1700	 1491.00	 1250.08	-1517.33	  382.82
     59.2700	 1393.00	 1228.30	-1593.55	  382.94
     59.3700	 1360.00	 1196.59	-1594.84	  383.05
     59.4700	 1285.00	 1167.06	-1640.31	  383.16
     59.5700	 1159.00	 1147.81	-1747.06	  383.28
     59.6700	 1120.00	 1145.90	-1784.15	  383.39
     59.7700	 1161.00	 1169.75	-1767.00	  383.50
     59.8700	 1182.00	 1224.78	-1801.03	  383.62
     59.9700	 1377.00	 1307.13	-1688.38	  383.74
     60.0700	 1457.00	 1400.50	-1701.75	  383.85
     60.1700	 1577.00	 1476.90	-1658.15	  383.97
     60.2700	 1639.00	 1503.70	-1622.95	  384.09
     60.3700	 1609.00	 1460.84	-1610.09	  384.21
     60.4700	 1331.00	 1355.22	-1782.47	  384.33
     60.5700	 1202.00	 1213.72	-1769.97	  384.45
     60.6700	 1180.00	 1065.10	-1643.35	  384.57
     60.7700	  897.00	  930.27	-1791.52	  384.69
     60.8700	  791.00	  821.09	-1788.34	  384.81
     60.9700	  736.00	  741.57	-1763.82	  384.94
     61.0700	  683.00	  690.62	-1765.87	  385.06
     61.1700	  652.00	  665.02	-1771.27	  385.18
     61.2700	  636.00	  662.15	-1784.40	  385.31
     61.3700	  633.00	  681.64	-1806.89	  385.43
     61.4700	  709.00	  725.54	-1774.79	  385.56
     61.5700	  753.00	  797.03	-1802.28	  385.68
     61.6700	  837.00	  897.96	-1819.21	  385.81
     61.7700	  957.00	 1025.95	-1827.20	  385.93
     61.8700	 1104.00	 1171.54	-1825.79	  386.06
     61.9700	 1244.00	 1316.62	-1830.87	  386.19
     62.0700	 1370.00	 1434.39	-1822.64	  386.32
     62.1700	 1392.00	 1494.53	-1860.78	  386.44
     62.2700	 1362.00	 1477.44	-1873.69	  386.57
     62.3700	 1327.00	 1388.27	-1819.52	  386.70
     62.4700	 1192.00	 1253.03	-1819.28	  386.83
     62.5700	 1071.00	 1101.87	-1789.12	  386.96
     62.6700	  877.00	  958.29	-1839.54	  387.09
     62.7700	  813.00	  836.46	-1781.71	  387.22
     62.8700	  697.00	  742.25	-1803.50	  387.36
     62.9700	  622.00	  675.07	-1811.32	  387.49
     63.0700	  613.00	  630.48	-1775.73	  387.62
     63.1700	  590.00	  602.69	-1770.94	  387.75
     63.2700	  597.00	  586.36	-1747.61	  387.88
     63.3700	  552.00	  577.55	-1783.80	  388.02
     63.4700	  552.00	  573.92	-1780.17	  388.15
     63.5700	  601.00	  574.62	-1731.87	  388.28
     63.6700	  614.00	  580.08	-1724.33	  388.42
     63.7700	  621.00	  591.74	-1728.99	  388.55
     63.8700	  658.00	  611.70	-1711.95	  388.69
     63.9700	  692.00	  642.17	-1708.42	  388.82
     64.0700	  710.00	  684.69	-1732.94	  388.96
     64.1700	  733.00	  739.04	-1764.29	  389.09
     64.2700	  878.00	  802.40	-1682.65	  389.23
     64.3700	  925.00	  868.64	-1701.89	  389.36
     64.4700	  995.00	  928.20	-1691.45	  389.50
     64.5700	 1033.00	  969.81	-1695.06	  389.63
     64.6700	 1047.00	  984.14	-1695.39	  389.77
     64.7700	 1062.00	  969.93	-1666.18	  389.91
     64.8700	  986.00	  931.60	-1703.85	  390.04
     64.9700	  892.00	  878.14	-1744.39	  390.18
     65.0700	  839.00	  819.51	-1738.76	  390.32
     65.1700	  809.00	  763.80	-1713.05	  390.45
     65.2700	  733.00	  715.62	-1740.87	  390.59
     65.3700	  658.00	  676.32	-1776.57	  390.73
     65.4700	  684.00	  645.22	-1719.47	  390.86
     65.5700	  602.00	  620.95	-1777.20	  391.00
     65.6700	  623.00	  602.32	-1737.57	  391.14
     65.7700	  576.00	  588.33	-1770.58	  391.28
     65.8700	  560.00	  578.17	-1776.42	  391.42
     65.9700	  598.00	  571.20	-1731.45	  391.55
     66.0700	  540.00	  566.88	-1785.13	  391.69
     66.1700	  551.00	  564.75	-1772.00	  391.83
     66.2700	  569.00	  564.43	-1753.68	  391.97
     66.3700	  534.00	  565.61	-1789.86	  392.10
     66.4700	  563.00	  568.13	-1763.38	  392.24
     66.5700	  582.00	  572.17	-1748.42	  392.38
     66.6700	  521.00	  577.92	-1815.17	  392.52
     66.7700	  564.00	  586.38	-1780.63	  392.66
     66.8700	  541.00	  599.33	-1816.58	  392.79
     66.9700	  608.00	  619.79	-1770.04	  392.93
     67.0700	  642.00	  652.56	-1768.81	  393.07
     67.1700	  660.00	  704.45	-1802.70	  393.21
     67.2700	  783.00	  784.05	-1759.30	  393.34
     67.3700	  888.00	  900.57	-1770.82	  393.48
     67.4700	 1005.00	 1061.58	-1814.83	  393.62
     67.5700	 1308.00	 1269.53	-1719.78	  393.76
     67.6700	 1520.00	 1518.59	-1756.84	  393.89
     67.7700	 1808.00	 1792.07	-1742.32	  394.03
     67.8700	 2092.00	 2060.54	-1726.79	  394.17
     67.9700	 2387.00	 2282.97	-1654.22	  394.31
     68.0700	 2496.00	 2413.69	-1675.94	  394.44
     68.1700	 2406.00	 2419.12	-1771.37	  394.58
     68.2700	 2283.00	 2297.77	-1773.02	  394.72
     68.3700	 2124.00	 2081.17	-1715.42	  394.85
     68.4700	 1852.00	 1815.14	-1721.39	  394.99
     68.5700	 1526.00	 1541.11	-1773.36	  395.12
     68.6700	 1264.00	 1289.62	-1783.87	  395.26
     68.7700	 1077.00	 1078.59	-1759.84	  395.39
     68.8700	  834.00	  914.41	-1838.66	  395.53
     68.9700	  712.00	  795.12	-1841.37	  395.66
     69.0700	  723.00	  713.44	-1748.69	  395.80
     69.1700	  654.00	  660.20	-1764.45	  395.93
     69.2700	  645.00	  626.70	-1739.95	  396.07
     69.3700	  637.00	  605.96	-1727.21	  396.20
     69.4700	  616.00	  593.03	-1735.28	  396.33
     69.5700	  599.00	  584.74	-1743.99	  396.47
     69.6700	  605.00	  579.20	-1732.45	  396.60
     69.7700	  559.00	  575.39	-1774.64	  396.73
     69.8700	  571.00	  572.76	-1760.01	  396.87
     69.9700	  571.00	  571.01	-1758.26	  397.00
     70.0700	  569.00	  570.03	-1759.28	  397.13
     70.1700	  590.00	  569.79	-1738.04	  397.26
     70.2700	  561.00	  570.25	-1767.50	  397.39
     70.3700	  562.00	  571.55	-1767.80	  397.52
     70.4700	  592.00	  573.94	-1740.19	  397.65
     70.5700	  568.00	  577.88	-1768.13	  397.78
     70.6700	  559.00	  584.26	-1783.51	  397.91
     70.7700	  556.00	  594.60	-1796.85	  398.04
     70.8700	  593.00	  611.34	-1776.59	  398.17
     70.9700	  627.00	  638.00	-1769.25	  398.30
     71.0700	  657.00	  679.38	-1780.63	  398.42
     71.1700	  687.00	  741.13	-1812.38	  398.55
     71.2700	  796.00	  828.94	-1791.19	  398.68
     71.3700	  923.00	  947.09	-1782.34	  398.80
     71.4700	 1130.00	 1097.30	-1725.55	  398.93
     71.5700	 1267.00	 1273.73	-1764.98	  399.06
     71.6700	 1429.00	 1466.37	-1795.62	  399.18
     71.7700	 1602.00	 1657.06	-1813.31	  399.30
     71.8700	 1823.00	 1820.98	-1756.23	  399.43
     71.9700	 1860.00	 1929.82	-1828.07	  399.55
     72.0700	 1913.00	 1960.17	-1805.42	  399.67
     72.1700	 1861.00	 1904.69	-1801.94	  399.80
     72.2700	 1767.00	 1776.79	-1768.04	  399.92
     72.3700	 1621.00	 1602.27	-1739.52	  400.04
     72.4700	 1478.00	 1409.78	-1690.03	  400.16
     72.5700	 1358.00	 1221.64	-1621.89	  400.28
     72.6700	 1174.00	 1053.46	-1637.71	  400.40
     72.7700	 1039.00	  913.78	-1633.03	  400.52
     72.8700	  920.00	  804.88	-1643.13	  400.63
     72.9700	  842.00	  724.55	-1640.80	  400.75
     73.0700	  820.00	  668.01	-1606.26	  400.87
     73.1700	  727.00	  629.69	-1660.94	  400.98
     73.2700	  665.00	  604.31	-1697.56	  401.10
     73.3700	  631.00	  587.65	-1714.90	  401.22
     73.4700	  634.00	  576.63	-1700.88	  401.33
     73.5700	  600.00	  569.21	-1727.46	  401.44
     73.6700	  621.00	  564.10	-1701.35	  401.56
     73.7700	  614.00	  560.56	-1704.81	  401.67
     73.8700	  599.00	  558.18	-1717.43	  401.78
     73.9700	  597.00	  556.68	-1717.93	  401.89
     74.0700	  586.00	  555.89	-1728.14	  402.00
     74.1700	  570.00	  555.66	-1743.91	  402.11
     74.2700	  570.00	  555.80	-1744.05	  402.22
     74.3700	  635.00	  556.11	-1679.36	  402.33
     74.4700	  624.00	  556.37	-1690.61	  402.43
     74.5700	  647.00	  556.32	-1667.57	  402.54
     74.6700	  629.00	  555.81	-1685.06	  402.64
     74.7700	  642.00	  554.78	-1671.03	  402.75
     74.8700	  625.00	  553.35	-1686.60	  402.85
     74.9700	  640.00	  551.77	-1670.02	  402.96
     75.0700	  548.00	  550.31	-1760.56	  403.06
     75.1700	  557.00	  549.26	-1750.51	  403.16
     75.2700	  574.00	  548.91	-1733.16	  403.26
     75.3700	  566.00	  549.70	-1741.95	  403.36
     75.4700	  571.00	  552.07	-1739.32	  403.46
     75.5700	  520.00	  556.48	-1794.73	  403.56
     75.6700	  588.00	  563.36	-1733.61	  403.65
     75.7700	  574.00	  573.37	-1757.62	  403.75
     75.8700	  618.00	  586.74	-1726.99	  403.85
     75.9700	  628.00	  603.42	-1733.67	  403.94
     76.0700	  626.00	  622.92	-1755.17	  404.03
     76.1700	  688.00	  644.11	-1714.36	  404.13
     76.2700	  615.00	  665.26	-1808.51	  404.22
     76.3700	  707.00	  684.04	-1735.29	  404.31
     76.4700	  694.00	  697.76	-1762.01	  404.40
     76.5700	  699.00	  703.97	-1763.22	  404.49
     76.6700	  679.00	  701.37	-1780.62	  404.58
     76.7700	  646.00	  690.50	-1802.75	  404.67
     76.8700	  673.00	  673.40	-1758.65	  404.75
     76.9700	  619.00	  652.57	-1791.82	  404.84
     77.0700	  625.00	  630.89	-1764.14	  404.92
     77.1700	  588.00	  610.21	-1780.46	  405.01
     77.2700	  573.00	  591.86	-1777.11	  405.09
     77.3700	  615.00	  576.60	-1719.85	  405.17
     77.4700	  539.00	  564.61	-1783.86	  405.25
     77.5700	  531.00	  555.67	-1782.92	  405.33
     77.6700	  472.00	  549.32	-1835.57	  405.41
     77.7700	  561.00	  544.98	-1742.23	  405.49
     77.8700	  493.00	  542.11	-1807.36	  405.56
     77.9700	  523.00	  540.27	-1775.52	  405.64
     78.0700	  484.00	  539.11	-1813.36	  405.71
     78.1700	  506.00	  538.37	-1790.62	  405.79
     78.2700	  499.00	  537.91	-1797.16	  405.86
     78.3700	  504.00	  537.64	-1791.89	  405.93
     78.4700	  513.00	  537.49	-1782.74	  406.00
     78.5700	  527.00	  537.44	-1768.69	  406.07
     78.6700	  511.00	  537.50	-1784.75	  406.14
     78.7700	  532.00	  537.66	-1763.91	  406.20
     78.8700	  544.00	  537.96	-1752.21	  406.27
     78.9700	  471.00	  538.41	-1825.66	  406.33
     79.0700	  558.00	  539.07	-1739.32	  406.40
     79.1700	  522.00	  539.98	-1776.23	  406.46
     79.2700	  496.00	  541.20	-1803.45	  406.52
     79.3700	  548.00	  542.61	-1752.86	  406.58
     79.4700	  540.00	  544.61	-1762.86	  406.64
     79.5700	  526.00	  547.10	-1779.35	  406.70
     79.6700	  510.00	  550.13	-1798.38	  406.76
     79.7700	  535.00	  553.80	-1777.05	  406.81
     79.8700	  525.00	  558.20	-1791.45	  406.87
     79.9700	  534.00	  563.50	-1787.75	  406.92
     80.0700	  532.00	  569.91	-1796.16	  406.97
     80.1700	  574.00	  577.71	-1761.96	  407.02
     80.2700	  526.00	  587.25	-1819.50	  407.07
     80.3700	  612.00	  598.83	-1745.08	  407.12
     80.4700	  594.00	  612.64	-1776.89	  407.17
     80.5700	  573.00	  628.60	-1813.85	  407.21
     80.6700	  603.00	  646.29	-1801.54	  407.26
     80.7700	  679.00	  664.93	-1744.18	  407.30
     80.8700	  625.00	  683.37	-1816.62	  407.35
     80.9700	  652.00	  700.24	-1806.49	  407.39
     81.0700	  742.00	  714.20	-1730.45	  407.43
     81.1700	  692.00	  724.11	-1790.36	  407.47
     81.2700	  683.00	  729.15	-1804.40	  407.50
     81.3700	  736.00	  728.91	-1751.16	  407.54
     81.4700	  743.00	  723.45	-1738.70	  407.57
     81.5700	  833.00	  713.36	-1638.61	  407.61
     81.6700	  777.00	  699.51	-1680.76	  407.64
     81.7700	  751.00	  682.90	-1690.15	  407.67
     81.8700	  700.00	  664.66	-1722.91	  407.70
     81.9700	  713.00	  645.97	-1691.22	  407.73
     82.0700	  723.00	  627.83	-1663.08	  407.76
     82.1700	  656.00	  611.20	-1713.45	  407.78
     82.2700	  649.00	  596.55	-1705.80	  407.81
     82.3700	  637.00	  584.15	-1705.40	  407.83
     82.4700	  604.00	  574.04	-1728.29	  407.86
     82.5700	  572.00	  566.18	-1752.43	  407.88
     82.6700	  612.00	  560.38	-1706.63	  407.90
     82.7700	  525.00	  556.53	-1789.78	  407.91
     82.8700	  545.00	  554.42	-1767.67	  407.93
     82.9700	  556.00	  553.91	-1756.16	  407.95
     83.0700	  602.00	  554.89	-1711.14	  407.96
     83.1700	  545.00	  557.23	-1770.48	  407.97
     83.2700	  546.00	  560.82	-1773.07	  407.99
     83.3700	  549.00	  565.48	-1774.73	  408.00
     83.4700	  551.00	  570.96	-1778.21	  408.01
     83.5700	  537.00	  576.92	-1798.17	  408.01
     83.6700	  534.00	  582.90	-1807.15	  408.02
     83.7700	  561.00	  588.33	-1785.58	  408.02
     83.8700	  552.00	  592.61	-1798.86	  408.03
     83.9700	  582.00	  595.12	-1771.37	  408.03
     84.0700	  579.00	  595.44	-1774.69	  408.03
     84.1700	  556.00	  593.51	-1795.76	  408.03
     84.2700	  536.00	  589.59	-1811.84	  408.03
     84.3700	  553.00	  584.22	-1789.47	  408.02
     84.4700	  620.00	  578.02	-1716.27	  408.02
     84.5700	  581.00	  571.54	-1748.79	  408.01
     84.6700	  537.00	  565.25	-1786.50	  408.01
     84.7700	  543.00	  559.50	-1774.75	  408.00
     84.8700	  529.00	  554.52	-1783.77	  407.99
     84.9700	  558.00	  550.40	-1750.65	  407.97
     85.0700	  504.00	  547.17	-1801.42	  407.96
     85.1700	  538.00	  544.77	-1765.02	  407.95
     85.2700	  497.00	  543.13	-1804.38	  407.93
     85.3700	  550.00	  542.12	-1750.37	  407.91
     85.4700	  529.00	  541.65	-1770.90	  407.89
     85.5700	  542.00	  541.64	-1757.89	  407.87
     85.6700	  525.00	  542.03	-1775.28	  407.85
     85.7700	  514.00	  542.78	-1787.03	  407.83
     85.8700	  520.00	  543.90	-1782.15	  407.80
     85.9700	  521.00	  545.42	-1782.67	  407.78
     86.0700	  553.00	  547.41	-1752.66	  407.75
     86.1700	  582.00	  549.96	-1726.21	  407.72
     86.2700	  533.00	  553.19	-1778.44	  407.69
     86.3700	  522.00	  557.24	-1793.49	  407.66
     86.4700	  584.00	  562.26	-1736.51	  407.63
     86.5700	  563.00	  568.37	-1763.62	  407.59
     86.6700	  587.00	  575.61	-1746.86	  407.56
     86.7700	  600.00	  583.95	-1742.20	  407.52
     86.8700	  594.00	  592.84	-1757.09	  407.48
     86.9700	  597.00	  602.53	-1763.78	  407.44
     87.0700	  622.00	  612.14	-1748.39	  407.40
     87.1700	  659.00	  620.93	-1720.18	  407.35
     87.2700	  681.00	  628.08	-1705.33	  407.31
     87.3700	  692.00	  632.77	-1699.02	  407.26
     87.4700	  566.00	  634.37	-1826.62	  407.22
     87.5700	  670.00	  632.63	-1720.89	  407.17
     87.6700	  626.00	  627.84	-1760.09	  407.12
     87.7700	  644.00	  620.67	-1734.92	  407.06
     87.8700	  634.00	  612.01	-1736.26	  407.01
     87.9700	  617.00	  602.80	-1744.05	  406.95
     88.0700	  620.00	  593.89	-1732.14	  406.90
     88.1700	  632.00	  585.99	-1712.24	  406.84
     88.2700	  583.00	  579.65	-1754.90	  406.78
     88.3700	  607.00	  575.24	-1726.49	  406.72
     88.4700	  544.00	  572.92	-1787.17	  406.66
     88.5700	  594.00	  572.70	-1736.95	  406.59
     88.6700	  571.00	  574.42	-1761.67	  406.53
     88.7700	  589.00	  577.78	-1747.03	  406.46
     88.8700	  600.00	  582.37	-1740.62	  406.39
     88.9700	  609.00	  587.69	-1736.94	  406.32
     89.0700	  602.00	  593.14	-1749.39	  406.25
     89.1700	  613.00	  598.12	-1743.37	  406.18
     89.2700	  615.00	  601.97	-1745.22	  406.11
     89.3700	  630.00	  604.17	-1732.42	  406.03
     89.4700	  626.00	  604.33	-1736.58	  405.95
     89.5700	  612.00	  602.40	-1748.65	  405.87
     89.6700	  548.00	  598.58	-1808.83	  405.79
     89.7700	  573.00	  593.31	-1778.56	  405.71
     89.8700	  562.00	  587.12	-1783.37	  405.63
     89.9700	  533.00	  580.51	-1805.76	  405.55
     90.0700	  557.00	  573.91	-1775.16	  405.46
     90.1700	  543.00	  567.69	-1782.94	  405.37
     90.2700	  561.00	  562.08	-1759.33	  405.28
     90.3700	  547.00	  557.26	-1768.51	  405.19
     90.4700	  531.00	  553.27	-1780.52	  405.10
     90.5700	  582.00	  550.11	-1726.36	  405.01
     90.6700	  554.00	  547.73	-1751.98	  404.91
     90.7700	  510.00	  546.04	-1794.29	  404.82
     90.8700	  513.00	  544.94	-1790.19	  404.72
     90.9700	  533.00	  544.34	-1769.59	  404.62
     91.0700	  517.00	  544.18	-1785.43	  404.52
     91.1700	  527.00	  544.40	-1775.65	  404.42
     91.2700	  545.00	  545.02	-1758.27	  404.32
     91.3700	  555.00	  546.07	-1749.32	  404.21
     91.4700	  532.00	  547.62	-1773.87	  404.10
     91.5700	  522.00	  549.80	-1786.05	  404.00
     91.6700	  514.00	  552.75	-1797.00	  403.89
     91.7700	  544.00	  556.67	-1770.92	  403.78
     91.8700	  524.00	  561.73	-1795.98	  403.66
     91.9700	  550.00	  567.94	-1776.19	  403.55
     92.0700	  553.00	  575.89	-1781.14	  403.44
     92.1700	  586.00	  585.50	-1757.75	  403.32
     92.2700	  628.00	  596.80	-1727.05	  403.20
     92.3700	  579.00	  609.76	-1789.01	  403.08
     92.4700	  609.00	  624.18	-1773.43	  402.96
     92.5700	  680.00	  639.79	-1718.04	  402.84
     92.6700	  686.00	  656.13	-1728.38	  402.72
     92.7700	  655.00	  672.65	-1775.90	  402.59
     92.8700	  809.00	  688.71	-1637.96	  402.47
     92.9700	  720.00	  703.62	-1741.87	  402.34
     93.0700	  724.00	  716.84	-1751.09	  402.21
     93.1700	  824.00	  728.08	-1662.33	  402.08
     93.2700	  749.00	  737.41	-1746.66	  401.95
     93.3700	  764.00	  745.28	-1739.53	  401.82
     93.4700	  878.00	  752.32	-1632.57	  401.68
     93.5700	  799.00	  759.20	-1718.45	  401.55
     93.6700	  867.00	  766.55	-1657.80	  401.41
     93.7700	  879.00	  774.88	-1654.13	  401.27
     93.8700	  816.00	  784.66	-1726.91	  401.13
     93.9700	  815.00	  796.30	-1739.55	  400.99
     94.0700	  882.00	  810.10	-1686.35	  400.85
     94.1700	  862.00	  826.14	-1722.39	  400.70
     94.2700	  849.00	  844.12	-1753.37	  400.56
     94.3700	  887.00	  863.31	-1734.56	  400.41
     94.4700	  912.00	  882.53	-1728.78	  400.26
     94.5700	  832.00	  900.22	-1826.47	  400.11
     94.6700	  922.00	  914.52	-1750.77	  399.96
     94.7700	  919.00	  923.49	-1762.74	  399.81
     94.8700	  860.00	  925.53	-1823.78	  399.66
     94.9700	  928.00	  919.76	-1750.01	  399.50
     95.0700	  927.00	  906.25	-1737.50	  399.35
     95.1700	  849.00	  886.06	-1795.31	  399.19
     95.2700	  819.00	  860.91	-1800.16	  399.03
     95.3700	  820.00	  832.82	-1771.07	  398.87
     95.4700	  778.00	  803.88	-1784.13	  398.71
     95.5700	  704.00	  776.05	-1830.30	  398.55
     95.6700	  751.00	  751.12	-1758.37	  398.39
     95.7700	  765.00	  730.73	-1723.98	  398.22
     95.8700	  737.00	  716.27	-1737.52	  398.06
     95.9700	  671.00	  709.00	-1796.25	  397.89
     96.0700	  662.00	  709.98	-1806.23	  397.72
     96.1700	  687.00	  720.08	-1791.33	  397.55
     96.2700	  728.00	  739.98	-1770.23	  397.38
     96.3700	  756.00	  770.10	-1772.35	  397.21
     96.4700	  861.00	  810.51	-1707.76	  397.04
     96.5700	  857.00	  860.88	-1762.13	  396.86
     96.6700	  929.00	  920.35	-1749.60	  396.69
     96.7700	 1013.00	  987.47	-1732.72	  396.51
     96.8700	 1037.00	 1060.09	-1781.34	  396.33
     96.9700	 1090.00	 1135.40	-1803.65	  396.15
     97.0700	 1178.00	 1209.92	-1790.17	  395.97
     97.1700	 1289.00	 1279.65	-1748.90	  395.79
     97.2700	 1325.00	 1340.17	-1773.42	  395.61
     97.3700	 1412.00	 1387.08	-1733.33	  395.42
     97.4700	 1393.00	 1416.59	-1781.84	  395.24
     97.5700	 1405.00	 1426.25	-1779.50	  395.05
     97.6700	 1385.00	 1415.50	-1788.75	  394.87
     97.7700	 1321.00	 1385.78	-1823.03	  394.68
     97.8700	 1305.00	 1340.16	-1793.41	  394.49
     97.9700	 1241.00	 1282.60	-1799.85	  394.30
     98.0700	 1235.00	 1217.44	-1740.69	  394.11
     98.1700	 1113.00	 1148.82	-1794.07	  393.92
     98.2700	 1103.00	 1080.59	-1735.84	  393.72
     98.3700	 1092.00	 1016.06	-1682.31	  393.53
     98.4700	  979.00	  958.05	-1737.30	  393.33
     98.5700	  850.00	  908.78	-1817.03	  393.14
     98.6700	  868.00	  869.99	-1760.24	  392.94
     98.7700	  793.00	  843.01	-1808.26	  392.74
     98.8700	  803.00	  828.78	-1784.03	  392.54
     98.9700	  788.00	  827.96	-1798.21	  392.34
     99.0700	  783.00	  840.98	-1816.23	  392.14
     99.1700	  887.00	  868.05	-1739.30	  391.94
     99.2700	  847.00	  909.22	-1820.47	  391.73
     99.3700	  949.00	  964.27	-1773.52	  391.53
     99.4700	  963.00	 1032.71	-1827.96	  391.32
     99.5700	 1048.00	 1113.62	-1823.87	  391.12
     99.6700	 1166.00	 1205.65	-1797.90	  390.91
     99.7700	 1304.00	 1306.84	-1761.09	  390.70
     99.8700	 1369.00	 1414.57	-1803.82	  390.50
     99.9700	 1532.00	 1525.47	-1751.72	  390.29
    100.0700	 1651.00	 1635.57	-1742.82	  390.08
    100.1700	 1823.00	 1740.42	-1675.67	  389.86
    100.2700	 1851.00	 1835.49	-1742.74	  389.65
    100.3700	 1959.00	 1916.76	-1716.01	  389.44
    100.4700	 2028.00	 1981.00	-1711.25	  389.23
    100.5700	 2145.00	 2026.00	-1639.25	  389.01
    100.6700	 2065.00	 2050.37	-1743.62	  388.80
    100.7700	 2114.00	 2053.33	-1697.58	  388.58
    100.8700	 2071.00	 2034.72	-1721.97	  388.36
    100.9700	 2080.00	 1995.17	-1673.42	  388.15
    101.0700	 1967.00	 1936.55	-1727.80	  387.93
    101.1700	 1894.00	 1862.04	-1726.29	  387.71
    101.2700	 1755.00	 1776.04	-1779.29	  387.49
    101.3700	 1743.00	 1683.52	-1698.77	  387.27
    101.4700	 1618.00	 1589.52	-1729.77	  387.05
    101.5700	 1486.00	 1498.50	-1770.75	  386.83
    101.6700	 1446.00	 1414.12	-1726.37	  386.61
    101.7700	 1394.00	 1339.02	-1703.27	  386.38
    101.8700	 1280.00	 1274.76	-1753.01	  386.16
    101.9700	 1223.00	 1221.90	-1757.15	  385.93
    102.0700	 1222.00	 1179.97	-1716.22	  385.71
    102.1700	 1117.00	 1147.66	-1788.91	  385.48
    102.2700	 1078.00	 1122.98	-1803.23	  385.26
    102.3700	 1120.00	 1103.41	-1741.66	  385.03
    102.4700	 1055.00	 1086.26	-1789.51	  384.81
    102.5700	 1071.00	 1068.92	-1756.17	  384.58
    102.6700	 1040.00	 1049.24	-1767.49	  384.35
    102.7700	 1034.00	 1025.82	-1750.07	  384.12
    102.8700	  988.00	  998.06	-1768.31	  383.89
    102.9700	  958.00	  966.17	-1766.42	  383.66
    103.0700	  865.00	  930.90	-1824.15	  383.43
    103.1700	  888.00	  893.31	-1763.56	  383.20
    103.2700	  876.00	  854.61	-1736.86	  382.97
    103.3700	  808.00	  815.99	-1766.24	  382.74
    103.4700	  764.00	  778.53	-1772.78	  382.51
    103.5700	  807.00	  743.17	-1694.42	  382.28
    103.6700	  715.00	  710.61	-1753.86	  382.05
    103.7700	  666.00	  681.36	-1773.61	  381.82
    103.8700	  662.00	  655.72	-1751.97	  381.58
    103.9700	  626.00	  633.78	-1766.03	  381.35
    104.0700	  640.00	  615.45	-1733.70	  381.12
    104.1700	  631.00	  600.52	-1727.77	  380.88
    104.2700	  565.00	  588.69	-1781.94	  380.65
    104.3700	  538.00	  579.59	-1799.84	  380.42
    104.4700	  550.00	  572.85	-1781.10	  380.18
    104.5700	  529.00	  568.10	-1797.35	  379.95
    104.6700	  522.00	  564.99	-1801.24	  379.71
    104.7700	  537.00	  563.21	-1784.46	  379.48
    104.8700	  506.00	  562.49	-1814.74	  379.24
    104.9700	  584.00	  562.60	-1736.85	  379.01
    105.0700	  513.00	  563.38	-1808.63	  378.78
    105.1700	  571.00	  564.67	-1751.92	  378.54
    105.2700	  558.00	  566.40	-1766.65	  378.31
    105.3700	  556.00	  568.47	-1770.72	  378.07
    105.4700	  530.00	  570.92	-1799.17	  377.84
    105.5700	  538.00	  573.74	-1793.99	  377.60
    105.6700	  549.00	  577.01	-1786.26	  377.37
    105.7700	  518.00	  580.82	-1821.07	  377.13
    105.8700	  538.00	  585.29	-1805.54	  376.90
    105.9700	  567.00	  590.53	-1781.78	  376.66
    106.0700	  582.00	  596.63	-1772.88	  376.43
    106.1700	  652.00	  603.62	-1709.86	  376.19
    106.2700	  603.00	  611.48	-1766.73	  375.96
    106.3700	  640.00	  620.16	-1738.41	  375.72
    106.4700	  612.00	  629.48	-1775.73	  375.49
    106.5700	  610.00	  639.23	-1787.48	  375.25
    106.6700	  626.00	  649.13	-1781.38	  375.02
    106.7700	  624.00	  658.85	-1793.10	  374.79
    106.8700	  680.00	  667.99	-1746.24	  374.55
    106.9700	  659.00	  676.18	-1775.43	  374.32
    107.0700	  665.00	  683.04	-1776.29	  374.09
    107.1700	  674.00	  688.26	-1772.51	  373.86
    107.2700	  660.00	  691.69	-1789.94	  373.63
    107.3700	  664.00	  693.30	-1787.55	  373.39
    107.4700	  686.00	  693.27	-1765.52	  373.16
    107.5700	  684.00	  691.91	-1766.16	  372.93
    107.6700	  700.00	  689.63	-1747.88	  372.70
    107.7700	  732.00	  686.87	-1713.12	  372.47
    107.8700	  670.00	  684.04	-1772.29	  372.24
    107.9700	  675.00	  681.51	-1764.76	  372.01
    108.0700	  728.00	  679.53	-1709.78	  371.79
    108.1700	  638.00	  678.25	-1798.50	  371.56
    108.2700	  695.00	  677.73	-1740.98	  371.33
    108.3700	  690.00	  677.88	-1746.13	  371.11
    108.4700	  648.00	  678.52	-1788.77	  370.88
    108.5700	  653.00	  679.39	-1784.64	  370.65
    108.6700	  679.00	  680.13	-1759.38	  370.43
    108.7700	  673.00	  680.36	-1765.61	  370.21
    108.8700	  670.00	  679.69	-1767.94	  369.98
    108.9700	  657.00	  677.81	-1779.06	  369.76
    109.0700	  644.00	  674.51	-1788.76	  369.54
    109.1700	  647.00	  669.70	-1780.95	  369.32
    109.2700	  682.00	  663.44	-1739.69	  369.10
    109.3700	  638.00	  655.89	-1776.14	  368.88
    109.4700	  700.00	  647.31	-1705.56	  368.66
    109.5700	  621.00	  638.01	-1775.26	  368.45
    109.6700	  650.00	  628.31	-1736.56	  368.23
    109.7700	  651.00	  618.50	-1725.75	  368.01
    109.8700	  627.00	  608.87	-1740.12	  367.80
    109.9700	  640.00	  599.66	-1717.91	  367.59
    110.0700	  606.00	  591.09	-1743.34	  367.37
    110.1700	  594.00	  583.30	-1747.55	  367.16
    110.2700	  606.00	  576.39	-1728.64	  366.95
    110.3700	  610.00	  570.43	-1718.68	  366.74
    110.4700	  533.00	  565.43	-1790.68	  366.54
    110.5700	  587.00	  561.37	-1732.62	  366.33
    110.6700	  548.00	  558.20	-1768.45	  366.12
    110.7700	  553.00	  555.86	-1761.11	  365.92
    110.8700	  508.00	  554.27	-1804.52	  365.72
    110.9700	  558.00	  553.33	-1753.58	  365.51
    111.0700	  537.00	  552.98	-1774.23	  365.31
    111.1700	  516.00	  553.12	-1795.37	  365.11
    111.2700	  602.00	  553.69	-1709.94	  364.92
    111.3700	  569.00	  554.63	-1743.88	  364.72
    111.4700	  556.00	  555.88	-1758.13	  364.53
    111.5700	  554.00	  557.41	-1761.66	  364.33
    111.6700	  554.00	  559.19	-1763.44	  364.14
    111.7700	  560.00	  561.20	-1759.45	  363.95
    111.8700	  539.00	  563.42	-1782.67	  363.76
    111.9700	  546.00	  565.86	-1778.11	  363.57
    112.0700	  568.00	  568.51	-1758.76	  363.39
    112.1700	  568.00	  571.39	-1761.64	  363.20
    112.2700	  567.00	  574.52	-1765.77	  363.02
    112.3700	  563.00	  577.93	-1773.18	  362.84
    112.4700	  663.00	  581.65	-1676.90	  362.66
    112.5700	  588.00	  585.74	-1755.99	  362.48
    112.6700	  575.00	  590.26	-1773.51	  362.31
    112.7700	  629.00	  595.29	-1724.54	  362.13
    112.8700	  654.00	  600.95	-1705.20	  361.96
    112.9700	  636.00	  607.38	-1729.63	  361.79
    113.0700	  722.00	  614.77	-1651.02	  361.62
    113.1700	  706.00	  623.36	-1675.61	  361.46
    113.2700	  701.00	  633.47	-1690.72	  361.29
    113.3700	  798.00	  645.52	-1605.77	  361.13
    113.4700	  799.00	  660.01	-1619.26	  360.97
    113.5700	  844.00	  677.59	-1591.84	  360.81
    113.6700	  804.00	  699.03	-1653.28	  360.66
    113.7700	  874.00	  725.31	-1609.56	  360.50
    113.8700	  916.00	  757.59	-1599.84	  360.35
    113.9700	  984.00	  797.23	-1571.48	  360.20
    114.0700	 1033.00	  845.81	-1571.06	  360.05
    114.1700	 1068.00	  905.13	-1595.38	  359.91
    114.2700	 1162.00	  977.18	-1573.43	  359.77
    114.3700	 1215.00	 1064.14	-1607.39	  359.63
    114.4700	 1306.00	 1168.28	-1620.53	  359.49
    114.5700	 1421.00	 1291.96	-1629.21	  359.35
    114.6700	 1601.00	 1437.46	-1594.71	  359.22
    114.7700	 1771.00	 1606.88	-1594.13	  359.09
    114.8700	 1836.00	 1802.12	-1724.37	  358.96
    114.9700	 2131.00	 2024.50	-1651.75	  358.83
    115.0700	 2354.00	 2274.89	-1679.14	  358.71
    115.1700	 2594.00	 2553.29	-1717.54	  358.59
    115.2700	 2849.00	 2858.79	-1768.04	  358.47
    115.3700	 3154.00	 3189.59	-1793.84	  358.36
    115.4700	 3378.00	 3542.55	-1922.80	  358.25
    115.5700	 3787.00	 3913.56	-1884.81	  358.14
    115.6700	 4060.00	 4297.13	-1995.38	  358.03
    115.7700	 4503.00	 4686.51	-1941.76	  357.92
    115.8700	 4793.00	 5073.96	-2039.21	  357.82
    115.9700	 5206.00	 5450.44	-2002.69	  357.72
    116.0700	 5362.00	 5806.20	-2202.45	  357.63
    116.1700	 6077.00	 6130.65	-1811.90	  357.54
    116.2700	 6323.00	 6412.96	-1848.21	  357.45
    116.3700	 6704.00	 6642.78	-1697.03	  357.36
    116.4700	 6701.00	 6810.69	-1867.94	  357.28
    116.5700	 6959.00	 6909.44	-1708.69	  357.20
    116.6700	 7033.00	 6934.56	-1659.81	  357.12
    116.7700	 6921.00	 6885.05	-1722.30	  357.04
    116.8700	 6833.00	 6763.50	-1688.75	  356.97
    116.9700	 6744.00	 6575.76	-1590.01	  356.91
    117.0700	 6476.00	 6330.09	-1612.34	  356.84
    117.1700	 6172.00	 6036.43	-1622.68	  356.78
    117.2700	 5615.00	 5705.46	-1848.71	  356.72
    117.3700	 5298.00	 5347.72	-1807.97	  356.67
    117.4700	 4976.00	 4973.51	-1755.76	  356.62
    117.5700	 4533.00	 4592.06	-1817.31	  356.57
    117.6700	 4329.00	 4211.75	-1641.00	  356.53
    117.7700	 3968.00	 3839.82	-1630.07	  356.49
    117.8700	 3606.00	 3482.12	-1634.37	  356.45
    117.9700	 3195.00	 3143.48	-1706.73	  356.42
    118.0700	 3014.00	 2827.33	-1571.58	  356.39
    118.1700	 2576.00	 2536.10	-1718.35	  356.37
    118.2700	 2333.00	 2271.17	-1696.42	  356.34
    118.3700	 2083.00	 2032.91	-1708.16	  356.33
    118.4700	 1738.00	 1821.04	-1841.29	  356.31
    118.5700	 1521.00	 1634.52	-1871.77	  356.30
    118.6700	 1314.00	 1471.93	-1916.18	  356.30
    118.7700	 1261.00	 1331.48	-1828.73	  356.30
    118.8700	 1066.00	 1211.10	-1903.35	  356.30
    118.9700	 1072.00	 1108.70	-1794.95	  356.30
    119.0700	 1001.00	 1022.11	-1779.36	  356.31
    119.1700	  878.00	  949.30	-1829.55	  356.33
    119.2700	  769.00	  888.32	-1877.57	  356.35
    119.3700	  767.00	  837.41	-1828.66	  356.37
    119.4700	  752.00	  794.99	-1801.24	  356.40
    119.5700	  729.00	  759.67	-1788.92	  356.43
    119.6700	  710.00	  730.26	-1778.51	  356.47
    119.7700	  683.00	  705.77	-1781.02	  356.51
    119.8700	  645.00	  685.32	-1798.57	  356.55
    119.9700	  603.00	  668.22	-1823.47	  356.60
    120.0700	  600.00	  653.90	-1812.15	  356.65
    120.1700	  616.00	  641.89	-1784.14	  356.71
    120.2700	  571.00	  631.80	-1819.05	  356.78
    120.3700	  581.00	  623.34	-1800.59	  356.84
    120.4700	  555.00	  616.26	-1819.51	  356.92
    120.5700	  595.00	  610.36	-1773.61	  356.99
    120.6700	  575.00	  605.51	-1788.76	  357.08
    120.7700	  606.00	  601.57	-1753.82	  357.16
    120.8700	  581.00	  598.46	-1775.71	  357.26
    120.9700	  587.00	  596.10	-1767.35	  357.35
    121.0700	  533.00	  594.43	-1819.68	  357.45
    121.1700	  589.00	  593.40	-1762.65	  357.56
    121.2700	  570.00	  592.97	-1781.22	  357.67
    121.3700	  578.00	  593.10	-1773.35	  357.79
    121.4700	  558.00	  593.74	-1793.99	  357.91
    121.5700	  592.00	  594.85	-1761.10	  358.04
    121.6700	  591.00	  596.37	-1763.62	  358.18
    121.7700	  605.00	  598.25	-1751.50	  358.31
    121.8700	  579.00	  600.41	-1779.66	  358.46
    121.9700	  559.00	  602.81	-1802.06	  358.61
    122.0700	  587.00	  605.35	-1776.60	  358.76
    122.1700	  576.00	  607.95	-1790.20	  358.92
    122.2700	  634.00	  610.53	-1734.78	  359.09
    122.3700	  689.00	  612.98	-1682.23	  359.26
    122.4700	  592.00	  615.21	-1781.46	  359.44
    122.5700	  612.00	  617.14	-1763.39	  359.62
    122.6700	  660.00	  618.67	-1716.92	  359.81
    122.7700	  606.00	  619.75	-1772.00	  360.00
    122.8700	  611.00	  620.33	-1767.58	  360.20
    122.9700	  618.00	  620.36	-1760.61	  360.41
    123.0700	  643.00	  619.86	-1735.11	  360.62
    123.1700	  629.00	  618.84	-1748.09	  360.84
    123.2700	  636.00	  617.34	-1739.59	  361.07
    123.3700	  622.00	  615.40	-1751.65	  361.30
    123.4700	  653.00	  613.09	-1718.34	  361.53
    123.5700	  615.00	  610.47	-1753.72	  361.78
    123.6700	  604.00	  607.61	-1761.86	  362.03
    123.7700	  648.00	  604.56	-1714.81	  362.28
    123.8700	  630.00	  601.40	-1729.65	  362.54
    123.9700	  615.00	  598.18	-1741.43	  362.81
    124.0700	  622.00	  594.96	-1731.21	  363.09
    124.1700	  610.00	  591.78	-1740.03	  363.37
    124.2700	  607.00	  588.68	-1739.93	  363.66
    124.3700	  581.00	  585.69	-1762.94	  363.95
    124.4700	  583.00	  582.83	-1758.08	  364.25
    124.5700	  568.00	  580.14	-1770.39	  364.56
    124.6700	  601.00	  577.61	-1734.86	  364.88
    124.7700	  615.00	  575.27	-1718.52	  365.20
    124.8700	  555.00	  573.13	-1776.38	  365.53
    124.9700	  568.00	  484.63	-1674.88	  365.87
    125.0700	  566.00	  484.97	-1758.25	  366.21
    125.1700	  553.00	  485.33	-1758.25	  366.56
    125.2700	  557.00	  485.68	-1758.25	  366.92
    125.3700	  620.00	  486.05	-1758.25	  367.28
    125.4700	  578.00	  486.42	-1758.25	  367.65
    125.5700	  531.00	  486.80	-1758.25	  368.03
    125.6700	  517.00	  487.19	-1758.25	  368.42
    125.7700	  569.00	  487.58	-1758.25	  368.81
    125.8700	  533.00	  487.98	-1758.25	  369.22
    125.9700	  572.00	  488.39	-1758.25	  369.63
    126.0700	  557.00	  488.81	-1758.25	  370.04
    126.1700	  570.00	  489.23	-1758.25	  370.47
    126.2700	  602.00	  489.66	-1758.25	  370.90
    126.3700	  559.00	  490.10	-1758.25	  371.34
    126.4700	  582.00	  490.55	-1758.25	  371.79
    126.5700	  575.00	  491.01	-1758.25	  372.24
    126.6700	  584.00	  491.47	-1758.25	  372.71
    126.7700	  600.00	  491.94	-1758.25	  373.18
    126.8700	  628.00	  492.42	-1758.25	  373.66
    126.9700	  586.00	  492.91	-1758.25	  374.15
    127.0700	  620.00	  493.41	-1758.25	  374.64
    127.1700	  639.00	  493.91	-1758.25	  375.15
    127.2700	  593.00	  494.42	-1758.25	  375.66
    127.3700	  650.00	  494.94	-1758.25	  376.18
    127.4700	  627.00	  495.47	-1758.25	  376.71
    127.5700	  673.00	  496.01	-1758.25	  377.25
    127.6700	  708.00	  496.56	-1758.25	  377.79
    127.7700	  656.00	  497.11	-1758.25	  378.35
    127.8700	  745.00	  497.68	-1758.25	  378.91
    127.9700	  735.00	  498.25	-1758.25	  379.49
    128.0700	  702.00	  498.83	-1758.25	  380.07
    128.1700	  705.00	  499.42	-1758.25	  380.66
    128.2700	  765.00	  500.02	-1758.25	  381.26
    128.3700	  771.00	  500.63	-1758.25	  381.86
    128.4700	  811.00	  501.25	-1758.25	  382.48
    128.5700	    0.00	  501.87	-1758.25	  383.11
    128.6700	    0.00	  502.51	-1758.25	  383.74
     12.3025	        	        	        	        	       0	(  0  0  2)	  0  1
     24.8843	        	        	        	        	       0	(  0  0  4)	  0  1
     28.3286	        	        	        	        	       0	(  1  0  0)	  0  1
     29.0257	        	        	        	        	       0	(  1  0  1)	  0  1
     31.0315	        	        	        	        	       0	(  1  0  2)	  0  1
     34.1392	        	        	        	        	       0	(  1  0  3)	  0  1
     37.7819	        	        	        	        	       0	(  0  0  6)	  0  1
     38.1156	        	        	        	        	       0	(  1  0  4)	  0  1
     42.7648	        	        	        	        	       0	(  1  0  5)	  0  1
     47.9480	        	        	        	        	       0	(  1  0  6)	  0  1
     50.2653	        	        	        	        	       0	(  1  1  0)	  0  1
     51.2016	        	        	        	        	       0	(  0  0  8)	  0  1
     51.9880	        	        	        	        	       0	(  1  1  2)	  0  1
     53.5774	        	        	        	        	       0	(  1  0  7)	  0  1
     56.9348	        	        	        	        	       0	(  1  1  4)	  0  1
     58.7622	        	        	        	        	       0	(  2  0  0)	  0  1
     59.1537	        	        	        	        	       0	(  2  0  1)	  0  1
     59.6067	        	        	        	        	       0	(  1  0  8)	  0  1
     60.3189	        	        	        	        	       0	(  2  0  2)	  0  1
     62.2317	        	        	        	        	       0	(  2  0  3)	  0  1
     64.6279	        	        	        	        	       0	(  1  1  6)	  0  1
     64.8552	        	        	        	        	       0	(  2  0  4)	  0  1
     65.4282	        	        	        	        	       0	(  0  0 10)	  0  1
     66.0218	        	        	        	        	       0	(  1  0  9)	  0  1
     68.1487	        	        	        	        	       0	(  2  0  5)	  0  1
     72.0753	        	        	        	        	       0	(  2  0  6)	  0  1
     72.8364	        	        	        	        	       0	(  1  0 10)	  0  1
     74.6634	        	        	        	        	       0	(  1  1  8)	  0  1
     76.6084	        	        	        	        	       0	(  2  0  7)	  0  1
     80.0924	        	        	        	        	       0	(  1  0 11)	  0  1
     80.9052	        	        	        	        	       0	(  0  0 12)	  0  1
     81.0032	        	        	        	        	       0	(  2  1  0)	  0  1
     81.3430	        	        	        	        	       0	(  2  1  1)	  0  1
     81.7375	        	        	        	        	       0	(  2  0  8)	  0  1
     82.3606	        	        	        	        	       0	(  2  1  2)	  0  1
     84.0515	        	        	        	        	       0	(  2  1  3)	  0  1
     86.4106	        	        	        	        	       0	(  2  1  4)	  0  1
     86.9319	        	        	        	        	       0	(  1  1 10)	  0  1
     87.4741	        	        	        	        	       0	(  2  0  9)	  0  1
     87.8647	        	        	        	        	       0	(  1  0 12)	  0  1
     89.4357	        	        	        	        	       0	(  2  1  5)	  0  1
     93.1322	        	        	        	        	       0	(  2  1  6)	  0  1
     93.8598	        	        	        	        	       0	(  2  0 10)	  0  1
     94.8919	        	        	        	        	       0	(  3  0  0)	  0  1
     95.2292	        	        	        	        	       0	(  3  0  1)	  0  1
     96.2421	        	        	        	        	       0	(  3  0  2)	  0  1
     96.2756	        	        	        	        	       0	(  1  0 13)	  0  1
     97.5196	        	        	        	        	       0	(  2  1  7)	  0  1
     97.9350	        	        	        	        	       0	(  3  0  3)	  0  1
     98.4396	        	        	        	        	       0	(  0  0 14)	  0  1
    100.3174	        	        	        	        	       0	(  3  0  4)	  0  1
    100.9797	        	        	        	        	       0	(  2  0 11)	  0  1
    101.7980	        	        	        	        	       0	(  1  1 12)	  0  1
    102.6406	        	        	        	        	       0	(  2  1  8)	  0  1
    103.4082	        	        	        	        	       0	(  3  0  5)	  0  1
    105.5252	        	        	        	        	       0	(  1  0 14)	  0  1
    107.2423	        	        	        	        	       0	(  3  0  6)	  0  1
    108.5757	        	        	        	        	       0	(  2  1  9)	  0  1
    108.9883	        	        	        	        	       0	(  2  0 12)	  0  1
    111.8812	        	        	        	        	       0	(  3  0  7)	  0  1
    115.4703	        	        	        	        	       0	(  2  1 10)	  0  1
    115.9646	        	        	        	        	       0	(  1  0 15)	  0  1
    116.6168	        	        	        	        	       0	(  2  2  0)	  0  1
    117.4329	        	        	        	        	       0	(  3  0  8)	  0  1
    118.1315	        	        	        	        	       0	(  2  2  2)	  0  1
    118.1693	        	        	        	        	       0	(  2  0 13)	  0  1
    119.9195	        	        	        	        	       0	(  0  0 16)	  0  1
    120.6352	        	        	        	        	       0	(  1  1 14)	  0  1
    122.8157	        	        	        	        	       0	(  2  2  4)	  0  1
    123.5944	        	        	        	        	       0	(  2  1 11)	  0  1
    124.0907	        	        	        	        	       0	(  3  0  9)	  0  1
    124.6820	        	        	        	        	       0	(  3  1  0)	  0  1
    125.0921	        	        	        	        	       0	(  3  1  1)	  0  1
    126.3352	        	        	        	        	       0	(  3  1  2)	  0  1
    128.3019	        	        	        	        	       0	(  1  0 16)	  0  1
    128.4528	        	        	        	        	       0	(  3  1  3)	  0  1
    129.0944	        	        	        	        	       0	(  2  0 14)	  0  1
    131.2531	        	        	        	        	       0	(  2  2  6)	  0  1
    131.5279	        	        	        	        	       0	(  3  1  4)	  0  1
    132.2283	        	        	        	        	       0	(  3  0 10)	  0  1
    133.5026	        	        	        	        	       0	(  2  1 12)	  0  1
    135.7137	        	        	        	        	       0	(  3  1  5)	  0  1
    141.3073	        	        	        	        	       0	(  3  1  6)	  0  1
    142.7025	        	        	        	        	       0	(  3  0 11)	  0  1
    143.2265	        	        	        	        	       0	(  2  0 15)	  0  1
    144.4613	        	        	        	        	       0	(  1  0 17)	  0  1
    145.4822	        	        	        	        	       0	(  2  2  8)	  0  1
    146.6515	        	        	        	        	       0	(  2  1 13)	  0  1
    148.9780	        	        	        	        	       0	(  3  1  7)	  0  1
    149.5544	        	        	        	        	       0	(  1  1 16)	  0  1
    153.9469	        	        	        	        	       0	(  0  0 18)	  0  1
    158.5721	        	        	        	        	       0	(  3  0 12)	  0  1
    158.8404	        	        	        	        	       0	(  4  0  0)	  0  1
    159.7973	        	        	        	        	       0	(  4  0  1)	  0  1
    160.9673	        	        	        	        	       0	(  3  1  8)	  0  1
    162.9761	        	        	        	        	       0	(  4  0  2)	  0  1
    169.6374	        	        	        	        	       0	(  2  0 16)	  0  1
    170.3250	        	        	        	        	       0	(  4  0  3)	  0  1
    174.0633	        	        	        	        	       0	(  2  1 14)	  0  1
