MSG Master    CELL:    5.91895   5.91895  23.27525   90.0000   90.0000  120.0000   SPGR: P 63/m m c             TEMP:   1074.85
  1   1280     2.52000     0.00000    -0.12825     0.00000     0.00000    0
    99     0     2
       0.00000      10.00000
     125.00000     130.00000
 2Theta	Yobs	Ycal	Yobs-Ycal	Backg	Posr	(hkl)	K
      0.7700	    0.00	  566.61	-1774.25	  446.97
      0.8700	    0.00	  567.05	-1774.25	  447.41
      0.9700	   44.00	  567.48	-1774.25	  447.84
      1.0700	   38.00	  567.90	-1774.25	  448.26
      1.1700	   53.00	  568.31	-1774.25	  448.67
      1.2700	   45.00	  568.72	-1774.25	  449.08
      1.3700	   44.00	  569.12	-1774.25	  449.47
      1.4700	   81.00	  569.50	-1774.25	  449.86
      1.5700	  329.00	  569.88	-1774.25	  450.24
      1.6700	  452.00	  570.26	-1774.25	  450.62
      1.7700	  536.00	  570.62	-1774.25	  450.98
      1.8700	  648.00	  570.98	-1774.25	  451.34
      1.9700	  704.00	  571.33	-1774.25	  451.68
      2.0700	  801.00	  571.67	-1774.25	  452.03
      2.1700	  832.00	  572.00	-1774.25	  452.36
      2.2700	  740.00	  572.33	-1774.25	  452.68
      2.3700	  748.00	  572.64	-1774.25	  453.00
      2.4700	  716.00	  572.95	-1774.25	  453.31
      2.5700	  655.00	  573.26	-1774.25	  453.62
      2.6700	  678.00	  573.55	-1774.25	  453.91
      2.7700	  618.00	  573.84	-1774.25	  454.20
      2.8700	  636.00	  574.12	-1774.25	  454.48
      2.9700	  605.00	  574.40	-1774.25	  454.76
      3.0700	  678.00	  574.66	-1774.25	  455.02
      3.1700	  620.00	  574.92	-1774.25	  455.28
      3.2700	  617.00	  575.18	-1774.25	  455.54
      3.3700	  691.00	  575.42	-1774.25	  455.78
      3.4700	  812.00	  575.66	-1774.25	  456.02
      3.5700	  845.00	  575.89	-1774.25	  456.25
      3.6700	  858.00	  576.12	-1774.25	  456.48
      3.7700	  932.00	  576.33	-1774.25	  456.69
      3.8700	  962.00	  576.55	-1774.25	  456.90
      3.9700	 1070.00	  576.75	-1774.25	  457.11
      4.0700	 1010.00	  576.95	-1774.25	  457.31
      4.1700	 1037.00	  577.14	-1774.25	  457.50
      4.2700	 1061.00	  577.32	-1774.25	  457.68
      4.3700	 1111.00	  577.50	-1774.25	  457.86
      4.4700	 1106.00	  577.67	-1774.25	  458.03
      4.5700	 1050.00	  577.84	-1774.25	  458.20
      4.6700	 1015.00	  578.00	-1774.25	  458.36
      4.7700	 1073.00	  578.15	-1774.25	  458.51
      4.8700	  969.00	  578.30	-1774.25	  458.66
      4.9700	  967.00	  578.44	-1774.25	  458.80
      5.0700	 1006.00	  578.57	-1774.25	  458.93
      5.1700	  910.00	  578.70	-1774.25	  459.06
      5.2700	  892.00	  578.82	-1774.25	  459.18
      5.3700	  899.00	  578.94	-1774.25	  459.30
      5.4700	  901.00	  579.05	-1774.25	  459.41
      5.5700	  830.00	  579.16	-1774.25	  459.51
      5.6700	  875.00	  579.25	-1774.25	  459.61
      5.7700	  859.00	  579.35	-1774.25	  459.71
      5.8700	  829.00	  579.43	-1774.25	  459.79
      5.9700	  781.00	  579.52	-1774.25	  459.88
      6.0700	  851.00	  579.59	-1774.25	  459.95
      6.1700	  791.00	  579.66	-1774.25	  460.02
      6.2700	  751.00	  579.73	-1774.25	  460.09
      6.3700	  721.00	  579.79	-1774.25	  460.15
      6.4700	  766.00	  579.84	-1774.25	  460.20
      6.5700	  761.00	  579.89	-1774.25	  460.25
      6.6700	  748.00	  579.93	-1774.25	  460.29
      6.7700	  762.00	  579.97	-1774.25	  460.33
      6.8700	  710.00	  580.00	-1774.25	  460.36
      6.9700	  749.00	  580.03	-1774.25	  460.39
      7.0700	  703.00	  580.05	-1774.25	  460.41
      7.1700	  727.00	  580.07	-1774.25	  460.43
      7.2700	  659.00	  580.08	-1774.25	  460.44
      7.3700	  677.00	  580.09	-1774.25	  460.45
      7.4700	  687.00	  580.09	-1774.25	  460.45
      7.5700	  611.00	  580.09	-1774.25	  460.45
      7.6700	  673.00	  580.08	-1774.25	  460.44
      7.7700	  669.00	  580.07	-1774.25	  460.43
      7.8700	  687.00	  580.05	-1774.25	  460.41
      7.9700	  627.00	  580.03	-1774.25	  460.39
      8.0700	  695.00	  580.00	-1774.25	  460.36
      8.1700	  665.00	  579.97	-1774.25	  460.33
      8.2700	  642.00	  579.93	-1774.25	  460.29
      8.3700	  564.00	  579.89	-1774.25	  460.25
      8.4700	  629.00	  579.85	-1774.25	  460.21
      8.5700	  625.00	  579.80	-1774.25	  460.16
      8.6700	  601.00	  579.74	-1774.25	  460.10
      8.7700	  639.00	  579.69	-1774.25	  460.05
      8.8700	  676.00	  579.62	-1774.25	  459.98
      8.9700	  680.00	  579.56	-1774.25	  459.92
      9.0700	  628.00	  579.49	-1774.25	  459.84
      9.1700	  595.00	  579.41	-1774.25	  459.77
      9.2700	  605.00	  579.33	-1774.25	  459.69
      9.3700	  646.00	  579.25	-1774.25	  459.61
      9.4700	  580.00	  579.16	-1774.25	  459.52
      9.5700	  627.00	  579.07	-1774.25	  459.43
      9.6700	  579.00	  578.97	-1774.25	  459.33
      9.7700	  626.00	  578.87	-1774.25	  459.23
      9.8700	  582.00	  578.77	-1774.25	  459.13
      9.9700	  636.00	  578.66	-1774.25	  459.02
     10.0700	  594.00	  579.40	-1759.65	  458.91
     10.1700	  581.00	  579.38	-1772.63	  458.79
     10.2700	  591.00	  579.38	-1762.63	  458.67
     10.3700	  634.00	  579.40	-1719.65	  458.55
     10.4700	  615.00	  579.49	-1738.74	  458.42
     10.5700	  605.00	  579.70	-1748.95	  458.29
     10.6700	  580.00	  580.13	-1774.38	  458.16
     10.7700	  567.00	  580.89	-1788.14	  458.02
     10.8700	  555.00	  582.05	-1801.30	  457.88
     10.9700	  644.00	  583.61	-1713.86	  457.74
     11.0700	  559.00	  585.53	-1800.78	  457.59
     11.1700	  579.00	  587.80	-1783.05	  457.44
     11.2700	  612.00	  590.46	-1752.71	  457.28
     11.3700	  620.00	  593.61	-1747.86	  457.13
     11.4700	  595.00	  597.37	-1776.62	  456.97
     11.5700	  575.00	  601.96	-1801.21	  456.80
     11.6700	  605.00	  607.74	-1776.99	  456.63
     11.7700	  619.00	  615.37	-1770.62	  456.46
     11.8700	  617.00	  625.75	-1783.00	  456.29
     11.9700	  659.00	  639.46	-1754.71	  456.11
     12.0700	  706.00	  654.68	-1722.93	  455.93
     12.1700	  747.00	  664.99	-1692.24	  455.75
     12.2700	  679.00	  660.67	-1755.92	  455.56
     12.3700	  643.00	  639.37	-1770.62	  455.37
     12.4700	  584.00	  614.00	-1804.25	  455.18
     12.5700	  563.00	  595.52	-1806.77	  454.99
     12.6700	  589.00	  585.39	-1770.64	  454.79
     12.7700	  635.00	  580.70	-1719.95	  454.59
     12.8700	  552.00	  578.50	-1800.75	  454.39
     12.9700	  578.00	  577.24	-1773.49	  454.18
     13.0700	  557.00	  576.37	-1793.62	  453.97
     13.1700	  600.00	  575.68	-1749.93	  453.76
     13.2700	  581.00	  575.11	-1768.36	  453.55
     13.3700	  560.00	  574.62	-1788.87	  453.33
     13.4700	  572.00	  574.19	-1776.44	  453.11
     13.5700	  570.00	  573.80	-1778.05	  452.89
     13.6700	  567.00	  573.44	-1780.69	  452.67
     13.7700	  561.00	  573.09	-1786.34	  452.44
     13.8700	  593.00	  572.77	-1754.02	  452.21
     13.9700	  579.00	  572.46	-1767.71	  451.98
     14.0700	  593.00	  572.16	-1753.41	  451.75
     14.1700	  579.00	  571.86	-1767.11	  451.51
     14.2700	  566.00	  571.58	-1779.83	  451.27
     14.3700	  523.00	  571.29	-1822.54	  451.03
     14.4700	  584.00	  571.01	-1761.26	  450.79
     14.5700	  555.00	  570.73	-1789.98	  450.55
     14.6700	  525.00	  570.45	-1819.70	  450.30
     14.7700	  526.00	  570.18	-1818.43	  450.05
     14.8700	  553.00	  569.90	-1791.15	  449.80
     14.9700	  530.00	  569.63	-1813.88	  449.55
     15.0700	  550.00	  569.36	-1793.61	  449.29
     15.1700	  562.00	  569.08	-1781.33	  449.03
     15.2700	  581.00	  568.81	-1762.06	  448.77
     15.3700	  555.00	  568.53	-1787.78	  448.51
     15.4700	  533.00	  568.26	-1809.51	  448.25
     15.5700	  582.00	  567.98	-1760.23	  447.99
     15.6700	  599.00	  567.70	-1742.95	  447.72
     15.7700	  552.00	  567.42	-1789.67	  447.45
     15.8700	  560.00	  567.14	-1781.39	  447.18
     15.9700	  557.00	  566.86	-1784.11	  446.91
     16.0700	  531.00	  566.61	-1809.86	  446.63
     16.1700	  548.00	  566.33	-1792.58	  446.36
     16.2700	  578.00	  566.05	-1762.30	  446.08
     16.3700	  532.00	  565.76	-1808.01	  445.80
     16.4700	  542.00	  565.48	-1797.73	  445.52
     16.5700	  559.00	  565.19	-1780.44	  445.24
     16.6700	  579.00	  564.90	-1760.15	  444.96
     16.7700	  550.00	  564.61	-1788.86	  444.67
     16.8700	  560.00	  564.32	-1778.57	  444.39
     16.9700	  559.00	  564.03	-1779.28	  444.10
     17.0700	  542.00	  563.74	-1795.99	  443.81
     17.1700	  568.00	  563.45	-1769.70	  443.52
     17.2700	  547.00	  563.15	-1790.40	  443.23
     17.3700	  569.00	  562.86	-1768.11	  442.94
     17.4700	  578.00	  562.56	-1758.81	  442.64
     17.5700	  571.00	  562.27	-1765.52	  442.35
     17.6700	  549.00	  561.97	-1787.22	  442.05
     17.7700	  559.00	  561.67	-1776.92	  441.75
     17.8700	  560.00	  561.37	-1775.62	  441.45
     17.9700	  540.00	  561.07	-1795.32	  441.15
     18.0700	  523.00	  560.87	-1812.12	  440.85
     18.1700	  556.00	  560.57	-1778.82	  440.55
     18.2700	  539.00	  560.27	-1795.52	  440.24
     18.3700	  565.00	  559.96	-1769.21	  439.94
     18.4700	  539.00	  559.66	-1794.91	  439.63
     18.5700	  571.00	  559.35	-1762.60	  439.33
     18.6700	  490.00	  559.05	-1843.30	  439.02
     18.7700	  559.00	  558.74	-1773.99	  438.71
     18.8700	  524.00	  558.52	-1808.77	  438.40
     18.9700	  563.00	  558.21	-1769.46	  438.09
     19.0700	  574.00	  557.91	-1758.16	  437.78
     19.1700	  563.00	  557.60	-1768.85	  437.47
     19.2700	  545.00	  557.29	-1786.54	  437.15
     19.3700	  562.00	  556.99	-1769.24	  436.84
     19.4700	  556.00	  556.68	-1774.93	  436.52
     19.5700	  511.00	  556.37	-1819.62	  436.21
     19.6700	  550.00	  556.06	-1780.31	  435.89
     19.7700	  531.00	  555.75	-1799.00	  435.58
     19.8700	  564.00	  555.44	-1765.69	  435.26
     19.9700	  546.00	  555.14	-1783.39	  434.94
     20.0700	  563.00	  554.83	-1766.08	  434.62
     20.1700	  529.00	  554.52	-1799.77	  434.30
     20.2700	  552.00	  554.21	-1776.46	  433.98
     20.3700	  582.00	  553.90	-1746.15	  433.66
     20.4700	  549.00	  553.59	-1778.84	  433.34
     20.5700	  562.00	  553.28	-1765.53	  433.02
     20.6700	  531.00	  552.97	-1796.22	  432.70
     20.7700	  567.00	  552.63	-1759.88	  432.38
     20.8700	  530.00	  552.36	-1796.61	  432.05
     20.9700	  545.00	  552.05	-1781.30	  431.73
     21.0700	  594.00	  551.75	-1732.00	  431.41
     21.1700	  557.00	  551.44	-1768.69	  431.08
     21.2700	  526.00	  551.14	-1799.39	  430.76
     21.3700	  564.00	  550.84	-1761.09	  430.43
     21.4700	  564.00	  550.54	-1760.79	  430.11
     21.5700	  539.00	  550.24	-1785.49	  429.78
     21.6700	  567.00	  549.94	-1757.19	  429.46
     21.7700	  568.00	  549.64	-1755.89	  429.13
     21.8700	  573.00	  549.35	-1750.60	  428.81
     21.9700	  547.00	  549.05	-1776.30	  428.48
     22.0700	  546.00	  548.76	-1777.01	  428.15
     22.1700	  531.00	  548.47	-1791.72	  427.83
     22.2700	  583.00	  548.19	-1739.44	  427.50
     22.3700	  527.00	  547.91	-1795.16	  427.18
     22.4700	  553.00	  547.64	-1768.89	  426.85
     22.5700	  546.00	  547.37	-1775.62	  426.52
     22.6700	  547.00	  547.10	-1774.35	  426.20
     22.7700	  562.00	  546.85	-1759.10	  425.87
     22.8700	  534.00	  546.60	-1786.85	  425.54
     22.9700	  520.00	  546.37	-1800.62	  425.22
     23.0700	  521.00	  546.15	-1799.40	  424.89
     23.1700	  540.00	  545.95	-1780.20	  424.56
     23.2700	  502.00	  545.76	-1818.01	  424.24
     23.3700	  571.00	  545.61	-1748.86	  423.91
     23.4700	  531.00	  545.50	-1788.75	  423.58
     23.5700	  575.00	  545.43	-1744.68	  423.26
     23.6700	  549.00	  545.58	-1770.83	  422.93
     23.7700	  579.00	  545.72	-1740.97	  422.60
     23.8700	  549.00	  546.09	-1771.34	  422.28
     23.9700	  519.00	  546.94	-1802.19	  421.95
     24.0700	  539.00	  548.72	-1783.97	  421.63
     24.1700	  565.00	  552.10	-1761.35	  421.30
     24.2700	  553.00	  557.96	-1779.21	  420.98
     24.3700	  562.00	  567.27	-1779.52	  420.65
     24.4700	  634.00	  581.02	-1721.27	  420.33
     24.5700	  611.00	  599.25	-1762.50	  420.01
     24.6700	  614.00	  618.84	-1779.09	  419.68
     24.7700	  641.00	  631.71	-1764.96	  419.36
     24.8700	  625.00	  627.54	-1776.79	  419.04
     24.9700	  623.00	  605.91	-1757.16	  418.71
     25.0700	  590.00	  580.53	-1764.78	  418.39
     25.1700	  563.00	  561.71	-1772.96	  418.07
     25.2700	  554.00	  551.06	-1771.31	  417.75
     25.3700	  559.00	  545.99	-1761.24	  417.43
     25.4700	  556.00	  543.65	-1761.90	  417.11
     25.5700	  515.00	  542.39	-1801.64	  416.79
     25.6700	  543.00	  541.58	-1772.83	  416.47
     25.7700	  635.00	  540.99	-1680.24	  416.15
     25.8700	  585.00	  540.54	-1729.79	  415.83
     25.9700	  588.00	  540.20	-1726.45	  415.51
     26.0700	  535.00	  539.95	-1779.20	  415.20
     26.1700	  550.00	  539.79	-1764.04	  414.88
     26.2700	  532.00	  539.70	-1781.95	  414.57
     26.3700	  541.00	  539.69	-1772.94	  414.25
     26.4700	  522.00	  539.77	-1792.02	  413.94
     26.5700	  538.00	  539.95	-1776.20	  413.62
     26.6700	  548.00	  540.24	-1766.49	  413.31
     26.7700	  581.00	  540.67	-1733.92	  413.00
     26.8700	  564.00	  541.27	-1751.52	  412.68
     26.9700	  536.00	  542.10	-1780.35	  412.37
     27.0700	  557.00	  543.24	-1760.49	  412.06
     27.1700	  553.00	  544.81	-1766.06	  411.75
     27.2700	  581.00	  547.09	-1740.34	  411.44
     27.3700	  582.00	  550.57	-1742.82	  411.13
     27.4700	  590.00	  556.26	-1740.51	  410.83
     27.5700	  552.00	  565.97	-1788.22	  410.52
     27.6700	  583.00	  582.56	-1773.81	  410.21
     27.7700	  585.00	  609.70	-1798.95	  409.91
     27.8700	  590.00	  650.60	-1834.85	  409.60
     27.9700	  642.00	  705.39	-1837.64	  409.30
     28.0700	  763.00	  767.72	-1778.97	  409.00
     28.1700	  919.00	  821.78	-1677.03	  408.70
     28.2700	  975.00	  843.91	-1643.16	  408.40
     28.3700	  882.00	  820.43	-1712.68	  408.10
     28.4700	  801.00	  773.83	-1747.08	  407.80
     28.5700	  745.00	  740.56	-1769.81	  407.50
     28.6700	  711.00	  737.02	-1800.27	  407.20
     28.7700	  722.00	  758.42	-1810.67	  406.90
     28.8700	  818.00	  784.86	-1741.11	  406.61
     28.9700	  842.00	  788.63	-1720.88	  406.32
     29.0700	  753.00	  752.47	-1773.72	  406.02
     29.1700	  694.00	  691.73	-1771.98	  405.73
     29.2700	  570.00	  634.09	-1838.34	  405.44
     29.3700	  563.00	  592.63	-1803.88	  405.15
     29.4700	  604.00	  567.62	-1737.87	  404.86
     29.5700	  582.00	  554.13	-1746.38	  404.57
     29.6700	  608.00	  547.02	-1713.27	  404.28
     29.7700	  614.00	  543.00	-1703.25	  404.00
     29.8700	  577.00	  540.51	-1737.76	  403.71
     29.9700	  541.00	  538.96	-1772.21	  403.43
     30.0700	  518.00	  538.22	-1794.47	  403.14
     30.1700	  505.00	  538.48	-1807.73	  402.86
     30.2700	  584.00	  540.29	-1730.54	  402.58
     30.3700	  575.00	  544.76	-1744.01	  402.30
     30.4700	  592.00	  553.55	-1735.80	  402.02
     30.5700	  586.00	  568.39	-1756.64	  401.75
     30.6700	  577.00	  589.70	-1786.95	  401.47
     30.7700	  615.00	  614.79	-1774.04	  401.19
     30.8700	  583.00	  636.50	-1827.75	  400.92
     30.9700	  633.00	  643.99	-1785.24	  400.65
     31.0700	  654.00	  629.93	-1750.18	  400.38
     31.1700	  595.00	  601.79	-1781.04	  400.11
     31.2700	  550.00	  573.68	-1797.93	  399.84
     31.3700	  552.00	  552.96	-1775.21	  399.57
     31.4700	  543.00	  540.36	-1771.61	  399.30
     31.5700	  576.00	  533.63	-1731.88	  399.04
     31.6700	  534.00	  530.18	-1770.43	  398.77
     31.7700	  594.00	  528.27	-1708.52	  398.51
     31.8700	  543.00	  527.08	-1758.33	  398.25
     31.9700	  512.00	  526.26	-1788.51	  397.99
     32.0700	  562.00	  525.69	-1737.94	  397.73
     32.1700	  576.00	  525.31	-1723.56	  397.47
     32.2700	  568.00	  525.09	-1731.34	  397.21
     32.3700	  542.00	  525.03	-1757.28	  396.96
     32.4700	  545.00	  525.13	-1754.38	  396.70
     32.5700	  569.00	  525.41	-1730.66	  396.45
     32.6700	  521.00	  525.89	-1779.14	  396.20
     32.7700	  527.00	  526.62	-1773.87	  395.95
     32.8700	  546.00	  527.68	-1755.93	  395.70
     32.9700	  527.00	  529.18	-1776.43	  395.46
     33.0700	  562.00	  531.35	-1743.60	  395.21
     33.1700	  556.00	  534.68	-1752.93	  394.96
     33.2700	  529.00	  540.26	-1785.51	  394.72
     33.3700	  549.00	  550.45	-1775.70	  394.48
     33.4700	  576.00	  569.79	-1768.04	  394.24
     33.5700	  650.00	  605.34	-1729.59	  394.00
     33.6700	  643.00	  665.14	-1796.39	  393.76
     33.7700	  810.00	  752.47	-1716.72	  393.53
     33.8700	  904.00	  857.60	-1727.85	  393.29
     33.9700	 1040.00	  952.07	-1686.32	  393.06
     34.0700	 1105.00	  992.73	-1661.98	  392.83
     34.1700	 1048.00	  948.52	-1674.77	  392.60
     34.2700	  860.00	  842.49	-1756.74	  392.37
     34.3700	  716.00	  729.02	-1787.27	  392.14
     34.4700	  666.00	  641.23	-1749.48	  391.91
     34.5700	  568.00	  585.92	-1792.17	  391.69
     34.6700	  551.00	  555.85	-1779.10	  391.47
     34.7700	  558.00	  540.67	-1756.92	  391.24
     34.8700	  555.00	  532.73	-1751.98	  391.02
     34.9700	  577.00	  527.99	-1725.24	  390.80
     35.0700	  543.00	  524.72	-1755.97	  390.59
     35.1700	  481.00	  522.28	-1815.53	  390.37
     35.2700	  529.00	  520.34	-1765.59	  390.16
     35.3700	  523.00	  518.77	-1770.02	  389.94
     35.4700	  506.00	  517.46	-1785.71	  389.73
     35.5700	  489.00	  516.37	-1801.62	  389.52
     35.6700	  537.00	  515.43	-1752.68	  389.31
     35.7700	  528.00	  514.62	-1760.87	  389.11
     35.8700	  525.00	  513.90	-1763.15	  388.90
     35.9700	  521.00	  513.28	-1766.53	  388.70
     36.0700	  511.00	  513.19	-1776.44	  388.50
     36.1700	  504.00	  512.70	-1782.95	  388.30
     36.2700	  487.00	  512.25	-1799.50	  388.10
     36.3700	  474.00	  511.85	-1812.10	  387.90
     36.4700	  492.00	  511.50	-1793.75	  387.70
     36.5700	  482.00	  511.18	-1803.43	  387.51
     36.6700	  536.00	  510.91	-1749.16	  387.32
     36.7700	  522.00	  510.69	-1762.94	  387.12
     36.8700	  506.00	  510.55	-1778.80	  386.93
     36.9700	  506.00	  510.56	-1778.81	  386.75
     37.0700	  530.00	  510.87	-1755.12	  386.56
     37.1700	  494.00	  511.75	-1792.00	  386.37
     37.2700	  522.00	  513.61	-1765.86	  386.19
     37.3700	  509.00	  516.80	-1782.05	  386.01
     37.4700	  477.00	  521.29	-1818.54	  385.83
     37.5700	  513.00	  526.26	-1787.51	  385.65
     37.6700	  510.00	  530.07	-1794.32	  385.47
     37.7700	  531.00	  530.95	-1774.20	  385.30
     37.8700	  512.00	  528.60	-1790.85	  385.12
     37.9700	  502.00	  524.59	-1796.84	  384.95
     38.0700	  525.00	  520.31	-1769.56	  384.78
     38.1700	  499.00	  516.28	-1791.53	  384.61
     38.2700	  484.00	  512.88	-1803.13	  384.44
     38.3700	  510.00	  510.33	-1774.58	  384.28
     38.4700	  506.00	  508.58	-1776.83	  384.11
     38.5700	  462.00	  507.45	-1819.70	  383.95
     38.6700	  551.00	  506.64	-1729.89	  383.79
     38.7700	  486.00	  506.18	-1794.43	  383.63
     38.8700	  476.00	  505.85	-1804.10	  383.47
     38.9700	  517.00	  505.58	-1762.83	  383.31
     39.0700	  512.00	  505.36	-1767.60	  383.16
     39.1700	  537.00	  505.15	-1742.40	  383.00
     39.2700	  503.00	  504.88	-1776.13	  382.85
     39.3700	  527.00	  504.71	-1751.96	  382.70
     39.4700	  522.00	  504.69	-1756.94	  382.55
     39.5700	  508.00	  504.54	-1770.79	  382.41
     39.6700	  514.00	  504.41	-1764.66	  382.26
     39.7700	  471.00	  504.28	-1807.53	  382.12
     39.8700	  477.00	  504.17	-1801.42	  381.98
     39.9700	  512.00	  504.06	-1766.31	  381.84
     40.0700	  531.00	  503.97	-1747.22	  381.70
     40.1700	  495.00	  503.88	-1783.13	  381.56
     40.2700	  529.00	  503.81	-1749.06	  381.43
     40.3700	  485.00	  503.75	-1793.00	  381.29
     40.4700	  536.00	  503.70	-1741.95	  381.16
     40.5700	  499.00	  503.66	-1778.91	  381.03
     40.6700	  499.00	  503.65	-1778.90	  380.90
     40.7700	  515.00	  503.65	-1762.90	  380.77
     40.8700	  461.00	  503.68	-1816.93	  380.65
     40.9700	  515.00	  503.73	-1762.98	  380.52
     41.0700	  459.00	  503.82	-1819.07	  380.40
     41.1700	  517.00	  503.95	-1761.20	  380.28
     41.2700	  513.00	  504.09	-1765.34	  380.16
     41.3700	  520.00	  504.34	-1758.59	  380.04
     41.4700	  497.00	  504.67	-1781.92	  379.93
     41.5700	  556.00	  505.55	-1723.80	  379.81
     41.6700	  518.00	  506.19	-1762.44	  379.70
     41.7700	  499.00	  507.14	-1782.39	  379.59
     41.8700	  470.00	  508.74	-1812.99	  379.48
     41.9700	  480.00	  511.69	-1805.94	  379.37
     42.0700	  516.00	  517.36	-1775.61	  379.27
     42.1700	  504.00	  527.86	-1798.11	  379.16
     42.2700	  541.00	  545.63	-1778.88	  379.06
     42.3700	  514.00	  571.98	-1832.23	  378.96
     42.4700	  583.00	  604.70	-1795.95	  378.86
     42.5700	  576.00	  636.64	-1834.89	  378.76
     42.6700	  613.00	  656.16	-1817.41	  378.67
     42.7700	  613.00	  653.04	-1814.29	  378.57
     42.8700	  576.00	  628.13	-1826.38	  378.48
     42.9700	  588.00	  593.81	-1780.06	  378.39
     43.0700	  520.00	  561.84	-1816.09	  378.30
     43.1700	  506.00	  537.90	-1806.15	  378.21
     43.2700	  519.00	  522.70	-1777.95	  378.12
     43.3700	  498.00	  514.18	-1790.43	  378.04
     43.4700	  515.00	  509.76	-1769.01	  377.95
     43.5700	  497.00	  507.46	-1784.71	  377.87
     43.6700	  502.00	  506.15	-1778.40	  377.79
     43.7700	  530.00	  505.48	-1749.73	  377.71
     43.8700	  474.00	  504.87	-1805.12	  377.64
     43.9700	  476.00	  504.44	-1802.69	  377.56
     44.0700	  536.00	  504.09	-1742.34	  377.49
     44.1700	  514.00	  503.82	-1764.07	  377.41
     44.2700	  507.00	  503.61	-1770.86	  377.34
     44.3700	  528.00	  503.45	-1749.70	  377.27
     44.4700	  499.00	  503.33	-1778.58	  377.21
     44.5700	  519.00	  503.25	-1758.50	  377.14
     44.6700	  497.00	  503.08	-1780.33	  377.08
     44.7700	  460.00	  503.06	-1817.31	  377.01
     44.8700	  516.00	  503.07	-1761.32	  376.95
     44.9700	  514.00	  503.10	-1763.35	  376.89
     45.0700	  503.00	  503.16	-1774.41	  376.83
     45.1700	  532.00	  503.42	-1745.67	  376.78
     45.2700	  487.00	  503.52	-1790.77	  376.72
     45.3700	  476.00	  503.64	-1801.89	  376.67
     45.4700	  517.00	  503.79	-1761.04	  376.62
     45.5700	  467.00	  503.96	-1811.21	  376.57
     45.6700	  505.00	  504.15	-1773.40	  376.52
     45.7700	  471.00	  504.37	-1807.62	  376.47
     45.8700	  488.00	  504.62	-1790.87	  376.42
     45.9700	  505.00	  504.91	-1774.16	  376.38
     46.0700	  526.00	  505.22	-1753.47	  376.34
     46.1700	  484.00	  505.58	-1795.83	  376.29
     46.2700	  543.00	  505.98	-1737.23	  376.26
     46.3700	  511.00	  506.44	-1769.69	  376.22
     46.4700	  513.00	  506.95	-1768.20	  376.18
     46.5700	  488.00	  507.54	-1793.79	  376.14
     46.6700	  497.00	  508.21	-1785.46	  376.11
     46.7700	  441.00	  509.01	-1842.26	  376.08
     46.8700	  492.00	  509.99	-1792.24	  376.05
     46.9700	  523.00	  511.29	-1762.54	  376.02
     47.0700	  490.00	  513.19	-1797.44	  375.99
     47.1700	  537.00	  516.28	-1753.53	  375.97
     47.2700	  517.00	  521.53	-1778.78	  375.94
     47.3700	  511.00	  530.06	-1793.31	  375.92
     47.4700	  571.00	  543.03	-1746.28	  375.90
     47.5700	  585.00	  560.55	-1749.80	  375.87
     47.6700	  570.00	  580.77	-1785.02	  375.86
     47.7700	  588.00	  599.36	-1785.61	  375.84
     47.8700	  595.00	  610.22	-1789.47	  375.82
     47.9700	  590.00	  608.80	-1793.05	  375.81
     48.0700	  607.00	  596.50	-1763.75	  375.79
     48.1700	  567.00	  579.39	-1786.64	  375.78
     48.2700	  611.00	  563.31	-1726.56	  375.77
     48.3700	  552.00	  551.50	-1773.75	  375.76
     48.4700	  526.00	  544.80	-1793.05	  375.76
     48.5700	  550.00	  542.60	-1766.85	  375.75
     48.6700	  500.00	  543.75	-1818.00	  375.75
     48.7700	  510.00	  547.30	-1811.55	  375.74
     48.8700	  530.00	  552.79	-1797.04	  375.74
     48.9700	  521.00	  560.25	-1813.50	  375.74
     49.0700	  543.00	  570.35	-1801.60	  375.74
     49.1700	  589.00	  584.77	-1770.02	  375.74
     49.2700	  616.00	  607.01	-1765.26	  375.75
     49.3700	  660.00	  643.77	-1758.02	  375.75
     49.4700	  726.00	  706.71	-1754.96	  375.76
     49.5700	  783.00	  811.49	-1802.74	  375.77
     49.6700	  856.00	  977.09	-1895.34	  375.78
     49.7700	 1152.00	 1217.40	-1839.65	  375.79
     49.8700	 1521.00	 1530.72	-1783.97	  375.80
     49.9700	 1848.00	 1887.60	-1813.85	  375.81
     50.0700	 2263.00	 2221.49	-1732.74	  375.83
     50.1700	 2420.00	 2433.97	-1788.22	  375.84
     50.2700	 2525.00	 2437.40	-1686.65	  375.86
     50.3700	 2286.00	 2228.03	-1716.28	  375.88
     50.4700	 1873.00	 1893.54	-1794.79	  375.90
     50.5700	 1453.00	 1537.38	-1858.63	  375.92
     50.6700	 1053.00	 1227.61	-1948.86	  375.94
     50.7700	  844.00	  993.85	-1924.10	  375.97
     50.8700	  730.00	  837.11	-1881.36	  375.99
     50.9700	  675.00	  741.81	-1841.06	  376.02
     51.0700	  645.00	  686.71	-1815.96	  376.04
     51.1700	  617.00	  652.87	-1810.12	  376.07
     51.2700	  590.00	  628.00	-1812.25	  376.10
     51.3700	  593.00	  607.03	-1788.28	  376.13
     51.4700	  567.00	  589.09	-1796.34	  376.17
     51.5700	  561.00	  574.51	-1787.76	  376.20
     51.6700	  572.00	  563.47	-1765.72	  376.24
     51.7700	  568.00	  555.63	-1761.88	  376.27
     51.8700	  551.00	  550.35	-1773.60	  376.31
     51.9700	  565.00	  546.90	-1756.15	  376.35
     52.0700	  519.00	  544.73	-1799.98	  376.39
     52.1700	  523.00	  543.77	-1795.02	  376.43
     52.2700	  580.00	  543.52	-1737.77	  376.47
     52.3700	  554.00	  544.33	-1764.58	  376.52
     52.4700	  597.00	  546.70	-1723.95	  376.56
     52.5700	  537.00	  551.73	-1788.98	  376.61
     52.6700	  645.00	  561.76	-1691.01	  376.65
     52.7700	  616.00	  580.95	-1739.20	  376.70
     52.8700	  641.00	  615.62	-1748.87	  376.75
     52.9700	  750.00	  673.32	-1697.57	  376.80
     53.0700	  796.00	  760.12	-1738.36	  376.85
     53.1700	  942.00	  876.06	-1708.31	  376.90
     53.2700	 1059.00	 1010.37	-1725.62	  376.96
     53.3700	 1151.00	 1138.63	-1761.88	  377.01
     53.4700	 1197.00	 1225.03	-1802.28	  377.07
     53.5700	 1167.00	 1236.49	-1843.74	  377.13
     53.6700	 1116.00	 1167.42	-1825.67	  377.18
     53.7700	  994.00	 1045.87	-1826.12	  377.24
     53.8700	  845.00	  909.84	-1839.09	  377.30
     53.9700	  742.00	  787.55	-1819.80	  377.36
     54.0700	  700.00	  693.14	-1767.39	  377.43
     54.1700	  624.00	  628.81	-1779.06	  377.49
     54.2700	  556.00	  589.49	-1807.74	  377.56
     54.3700	  571.00	  567.53	-1770.78	  377.62
     54.4700	  599.00	  556.06	-1731.31	  377.69
     54.5700	  579.00	  550.34	-1745.59	  377.75
     54.6700	  576.00	  547.60	-1745.85	  377.82
     54.7700	  553.00	  546.55	-1767.80	  377.89
     54.8700	  562.00	  546.54	-1758.79	  377.96
     54.9700	  556.00	  547.35	-1765.60	  378.04
     55.0700	  566.00	  548.90	-1757.15	  378.11
     55.1700	  577.00	  551.21	-1748.46	  378.18
     55.2700	  538.00	  554.31	-1790.56	  378.26
     55.3700	  564.00	  558.34	-1768.59	  378.33
     55.4700	  568.00	  563.51	-1769.76	  378.41
     55.5700	  573.00	  570.22	-1771.47	  378.48
     55.6700	  603.00	  579.26	-1750.51	  378.56
     55.7700	  595.00	  592.31	-1771.56	  378.64
     55.8700	  585.00	  612.65	-1801.90	  378.72
     55.9700	  586.00	  646.47	-1834.72	  378.80
     56.0700	  650.00	  704.06	-1828.31	  378.89
     56.1700	  751.00	  800.29	-1823.54	  378.97
     56.2700	  895.00	  952.83	-1832.08	  379.05
     56.3700	 1088.00	 1176.88	-1863.13	  379.14
     56.4700	 1393.00	 1476.85	-1858.10	  379.22
     56.5700	 1715.00	 1836.53	-1895.78	  379.31
     56.6700	 2115.00	 2211.55	-1870.80	  379.40
     56.7700	 2428.00	 2527.31	-1873.56	  379.48
     56.8700	 2606.00	 2692.85	-1861.10	  379.57
     56.9700	 2640.00	 2646.79	-1781.04	  379.66
     57.0700	 2391.00	 2406.93	-1790.18	  379.75
     57.1700	 2072.00	 2055.70	-1757.95	  379.84
     57.2700	 1603.00	 1681.71	-1852.96	  379.94
     57.3700	 1333.00	 1347.13	-1788.38	  380.03
     57.4700	 1105.00	 1083.27	-1752.52	  380.12
     57.5700	  857.00	  896.39	-1813.64	  380.22
     57.6700	  785.00	  776.55	-1765.80	  380.31
     57.7700	  720.00	  707.28	-1761.53	  380.41
     57.8700	  654.00	  673.01	-1793.26	  380.50
     57.9700	  645.00	  662.76	-1792.01	  380.60
     58.0700	  694.00	  670.74	-1750.99	  380.70
     58.1700	  670.00	  695.05	-1799.30	  380.80
     58.2700	  777.00	  735.81	-1733.06	  380.90
     58.3700	  872.00	  793.25	-1695.50	  381.00
     58.4700	  894.00	  866.07	-1746.32	  381.10
     58.5700	 1037.00	  949.80	-1687.05	  381.20
     58.6700	 1218.00	 1036.31	-1592.56	  381.30
     58.7700	 1322.00	 1116.06	-1568.31	  381.40
     58.8700	 1401.00	 1182.40	-1555.65	  381.51
     58.9700	 1516.00	 1231.67	-1489.92	  381.61
     59.0700	 1563.00	 1258.99	-1470.24	  381.72
     59.1700	 1461.00	 1259.78	-1573.03	  381.82
     59.2700	 1432.00	 1237.38	-1579.63	  381.93
     59.3700	 1467.00	 1203.72	-1510.97	  382.04
     59.4700	 1260.00	 1171.25	-1685.50	  382.14
     59.5700	 1222.00	 1148.55	-1700.80	  382.25
     59.6700	 1134.00	 1143.24	-1783.49	  382.36
     59.7700	 1157.00	 1164.23	-1781.48	  382.47
     59.8700	 1283.00	 1217.23	-1708.48	  382.58
     59.9700	 1352.00	 1298.49	-1720.74	  382.69
     60.0700	 1490.00	 1391.83	-1676.08	  382.80
     60.1700	 1536.00	 1469.27	-1707.52	  382.91
     60.2700	 1536.00	 1498.06	-1736.31	  383.02
     60.3700	 1574.00	 1457.43	-1657.68	  383.13
     60.4700	 1374.00	 1353.59	-1753.84	  383.25
     60.5700	 1258.00	 1213.07	-1729.32	  383.36
     60.6700	 1134.00	 1064.79	-1705.04	  383.47
     60.7700	  936.00	  929.90	-1768.15	  383.59
     60.8700	  785.00	  820.44	-1809.69	  383.70
     60.9700	  714.00	  740.63	-1800.88	  383.82
     61.0700	  634.00	  689.41	-1829.66	  383.93
     61.1700	  624.00	  663.55	-1813.80	  384.05
     61.2700	  649.00	  660.40	-1785.65	  384.17
     61.3700	  640.00	  679.58	-1813.83	  384.28
     61.4700	  646.00	  723.15	-1851.40	  384.40
     61.5700	  752.00	  794.40	-1816.65	  384.52
     61.6700	  805.00	  895.33	-1864.58	  384.64
     61.7700	  992.00	 1023.69	-1805.94	  384.76
     61.8700	 1117.00	 1170.19	-1827.44	  384.88
     61.9700	 1258.00	 1316.73	-1832.98	  384.99
     62.0700	 1373.00	 1436.43	-1837.68	  385.11
     62.1700	 1417.00	 1498.70	-1855.95	  385.23
     62.2700	 1399.00	 1483.27	-1858.52	  385.35
     62.3700	 1357.00	 1394.75	-1812.00	  385.48
     62.4700	 1128.00	 1259.13	-1905.38	  385.60
     62.5700	 1049.00	 1106.87	-1832.12	  385.72
     62.6700	  864.00	  961.86	-1872.11	  385.84
     62.7700	  715.00	  838.65	-1897.90	  385.96
     62.8700	  705.00	  743.29	-1812.54	  386.08
     62.9700	  661.00	  675.25	-1788.50	  386.21
     63.0700	  620.00	  630.09	-1784.34	  386.33
     63.1700	  585.00	  601.94	-1791.19	  386.45
     63.2700	  593.00	  585.39	-1766.64	  386.58
     63.3700	  511.00	  576.41	-1839.66	  386.70
     63.4700	  576.00	  572.61	-1770.86	  386.82
     63.5700	  611.00	  573.12	-1736.37	  386.95
     63.6700	  623.00	  578.29	-1729.54	  387.07
     63.7700	  627.00	  589.50	-1736.75	  387.20
     63.8700	  634.00	  608.80	-1749.05	  387.32
     63.9700	  673.00	  638.35	-1739.60	  387.45
     64.0700	  730.00	  679.60	-1723.85	  387.57
     64.1700	  795.00	  732.36	-1711.61	  387.70
     64.2700	  854.00	  793.86	-1714.11	  387.82
     64.3700	  905.00	  858.08	-1727.33	  387.95
     64.4700	  954.00	  915.76	-1736.01	  388.07
     64.5700	  994.00	  955.42	-1735.67	  388.20
     64.6700	 1057.00	  969.47	-1686.72	  388.32
     64.7700	 1030.00	  955.36	-1699.61	  388.45
     64.8700	  978.00	  917.95	-1714.20	  388.58
     64.9700	  958.00	  865.98	-1682.23	  388.70
     65.0700	  811.00	  809.08	-1772.33	  388.83
     65.1700	  810.00	  755.04	-1719.29	  388.95
     65.2700	  727.00	  708.31	-1755.56	  389.08
     65.3700	  685.00	  670.19	-1759.44	  389.21
     65.4700	  583.00	  640.01	-1831.26	  389.33
     65.5700	  590.00	  616.50	-1800.75	  389.46
     65.6700	  621.00	  598.49	-1751.74	  389.59
     65.7700	  568.00	  585.02	-1791.27	  389.71
     65.8700	  521.00	  575.29	-1828.54	  389.84
     65.9700	  627.00	  568.65	-1715.90	  389.97
     66.0700	  561.00	  564.57	-1777.82	  390.09
     66.1700	  551.00	  562.61	-1785.86	  390.22
     66.2700	  549.00	  562.38	-1787.63	  390.35
     66.3700	  546.00	  563.59	-1791.84	  390.47
     66.4700	  556.00	  566.09	-1784.34	  390.60
     66.5700	  587.00	  570.07	-1757.32	  390.72
     66.6700	  586.00	  575.68	-1763.93	  390.85
     66.7700	  590.00	  583.93	-1768.18	  390.98
     66.8700	  583.00	  596.55	-1787.80	  391.10
     66.9700	  579.00	  616.49	-1811.74	  391.23
     67.0700	  630.00	  648.46	-1792.71	  391.35
     67.1700	  667.00	  699.15	-1806.40	  391.48
     67.2700	  697.00	  777.05	-1854.30	  391.61
     67.3700	  905.00	  891.29	-1760.54	  391.73
     67.4700	 1068.00	 1049.42	-1755.67	  391.86
     67.5700	 1277.00	 1253.94	-1751.19	  391.98
     67.6700	 1501.00	 1499.35	-1772.60	  392.11
     67.7700	 1764.00	 1768.97	-1779.22	  392.23
     67.8700	 2009.00	 2034.22	-1799.47	  392.36
     67.9700	 2370.00	 2254.57	-1658.82	  392.48
     68.0700	 2493.00	 2384.79	-1666.04	  392.60
     68.1700	 2362.00	 2391.56	-1803.81	  392.73
     68.2700	 2277.00	 2272.98	-1770.23	  392.85
     68.3700	 2088.00	 2059.93	-1746.18	  392.98
     68.4700	 1741.00	 1797.58	-1830.83	  393.10
     68.5700	 1584.00	 1527.06	-1717.31	  393.22
     68.6700	 1175.00	 1278.66	-1877.91	  393.35
     68.7700	 1043.00	 1070.08	-1801.33	  393.47
     68.8700	  895.00	  907.91	-1787.16	  393.59
     68.9700	  812.00	  790.06	-1752.31	  393.71
     69.0700	  733.00	  709.42	-1750.67	  393.83
     69.1700	  675.00	  656.92	-1756.17	  393.95
     69.2700	  656.00	  623.93	-1742.18	  394.08
     69.3700	  649.00	  603.53	-1728.78	  394.20
     69.4700	  598.00	  590.84	-1767.09	  394.32
     69.5700	  584.00	  582.73	-1772.98	  394.44
     69.6700	  625.00	  577.33	-1726.58	  394.56
     69.7700	  611.00	  573.63	-1736.88	  394.68
     69.8700	  608.00	  571.09	-1737.34	  394.80
     69.9700	  553.00	  569.43	-1790.68	  394.91
     70.0700	  524.00	  568.53	-1818.78	  395.03
     70.1700	  575.00	  568.36	-1767.61	  395.15
     70.2700	  572.00	  568.90	-1771.15	  395.27
     70.3700	  571.00	  570.28	-1773.53	  395.38
     70.4700	  553.00	  572.75	-1794.00	  395.50
     70.5700	  635.00	  576.79	-1716.04	  395.62
     70.6700	  539.00	  583.31	-1818.56	  395.73
     70.7700	  602.00	  593.84	-1766.09	  395.85
     70.8700	  576.00	  610.87	-1809.12	  395.96
     70.9700	  608.00	  638.03	-1804.28	  396.08
     71.0700	  666.00	  680.21	-1788.46	  396.19
     71.1700	  706.00	  743.19	-1811.44	  396.31
     71.2700	  848.00	  832.82	-1759.07	  396.42
     71.3700	  904.00	  953.54	-1823.79	  396.53
     71.4700	 1094.00	 1106.34	-1786.59	  396.64
     71.5700	 1238.00	 1287.75	-1824.00	  396.75
     71.6700	 1391.00	 1485.00	-1868.25	  396.86
     71.7700	 1705.00	 1680.40	-1749.65	  396.98
     71.8700	 1789.00	 1848.56	-1833.81	  397.08
     71.9700	 1903.00	 1960.46	-1831.71	  397.19
     72.0700	 1966.00	 1992.05	-1800.30	  397.30
     72.1700	 1975.00	 1935.76	-1735.01	  397.41
     72.2700	 1792.00	 1805.29	-1787.54	  397.52
     72.3700	 1696.00	 1626.98	-1705.23	  397.63
     72.4700	 1443.00	 1430.17	-1761.42	  397.73
     72.5700	 1342.00	 1237.75	-1670.00	  397.84
     72.6700	 1165.00	 1065.77	-1675.02	  397.94
     72.7700	 1041.00	  922.87	-1656.12	  398.05
     72.8700	  921.00	  811.36	-1664.61	  398.15
     72.9700	  833.00	  728.99	-1670.24	  398.26
     73.0700	  778.00	  670.91	-1667.16	  398.36
     73.1700	  706.00	  631.43	-1699.68	  398.46
     73.2700	  701.00	  605.20	-1678.45	  398.56
     73.3700	  686.00	  587.91	-1676.16	  398.66
     73.4700	  641.00	  576.44	-1709.69	  398.76
     73.5700	  615.00	  568.70	-1727.95	  398.86
     73.6700	  622.00	  563.41	-1715.66	  398.96
     73.7700	  628.00	  559.80	-1706.05	  399.06
     73.8700	  633.00	  557.44	-1698.69	  399.16
     73.9700	  579.00	  556.05	-1751.30	  399.25
     74.0700	  582.00	  555.44	-1747.69	  399.35
     74.1700	  625.00	  555.43	-1704.68	  399.44
     74.2700	  585.00	  555.83	-1745.08	  399.54
     74.3700	  624.00	  556.40	-1706.65	  399.63
     74.4700	  587.00	  556.85	-1744.10	  399.72
     74.5700	  658.00	  556.91	-1673.16	  399.82
     74.6700	  622.00	  556.37	-1708.62	  399.91
     74.7700	  637.00	  555.19	-1692.44	  400.00
     74.8700	  631.00	  553.50	-1696.75	  400.09
     74.9700	  589.00	  551.58	-1736.83	  400.18
     75.0700	  659.00	  549.75	-1665.00	  400.27
     75.1700	  552.00	  548.34	-1770.59	  400.35
     75.2700	  593.00	  547.64	-1728.89	  400.44
     75.3700	  614.00	  548.09	-1708.34	  400.53
     75.4700	  542.00	  550.14	-1782.39	  400.61
     75.5700	  550.00	  554.23	-1778.48	  400.69
     75.6700	  558.00	  560.75	-1777.00	  400.78
     75.7700	  594.00	  570.37	-1750.62	  400.86
     75.8700	  527.00	  583.25	-1830.50	  400.94
     75.9700	  612.00	  599.39	-1761.64	  401.02
     76.0700	  626.00	  618.25	-1766.50	  401.10
     76.1700	  625.00	  638.78	-1788.03	  401.18
     76.2700	  661.00	  659.25	-1772.50	  401.26
     76.3700	  685.00	  677.42	-1766.67	  401.34
     76.4700	  683.00	  690.68	-1781.93	  401.41
     76.5700	  724.00	  696.64	-1746.89	  401.49
     76.6700	  687.00	  694.05	-1781.30	  401.56
     76.7700	  646.00	  683.45	-1811.70	  401.64
     76.8700	  630.00	  666.82	-1811.07	  401.71
     76.9700	  637.00	  646.58	-1783.83	  401.78
     77.0700	  602.00	  625.54	-1797.79	  401.85
     77.1700	  601.00	  605.47	-1778.72	  401.92
     77.2700	  586.00	  587.68	-1775.93	  401.99
     77.3700	  551.00	  572.89	-1796.14	  402.06
     77.4700	  539.00	  561.28	-1796.53	  402.12
     77.5700	  558.00	  552.63	-1768.88	  402.19
     77.6700	  559.00	  546.48	-1761.73	  402.26
     77.7700	  494.00	  542.28	-1822.53	  402.32
     77.8700	  495.00	  539.51	-1818.76	  402.38
     77.9700	  488.00	  537.72	-1823.97	  402.44
     78.0700	  510.00	  536.59	-1800.84	  402.51
     78.1700	  550.00	  535.88	-1760.13	  402.57
     78.2700	  523.00	  535.43	-1786.68	  402.62
     78.3700	  503.00	  535.16	-1806.41	  402.68
     78.4700	  528.00	  535.01	-1781.26	  402.74
     78.5700	  512.00	  534.97	-1797.22	  402.80
     78.6700	  574.00	  535.03	-1735.28	  402.85
     78.7700	  543.00	  535.19	-1766.44	  402.90
     78.8700	  508.00	  535.49	-1801.74	  402.96
     78.9700	  494.00	  535.95	-1816.20	  403.01
     79.0700	  528.00	  536.63	-1782.88	  403.06
     79.1700	  510.00	  537.56	-1801.81	  403.11
     79.2700	  532.00	  538.81	-1781.06	  403.16
     79.3700	  482.00	  540.24	-1832.49	  403.20
     79.4700	  501.00	  542.29	-1815.54	  403.25
     79.5700	  490.00	  544.83	-1829.08	  403.30
     79.6700	  539.00	  547.94	-1783.19	  403.34
     79.7700	  559.00	  551.69	-1766.94	  403.38
     79.8700	  531.00	  556.21	-1799.46	  403.42
     79.9700	  532.00	  561.67	-1803.92	  403.47
     80.0700	  570.00	  568.28	-1772.53	  403.51
     80.1700	  541.00	  576.36	-1809.61	  403.54
     80.2700	  556.00	  586.24	-1804.49	  403.58
     80.3700	  550.00	  598.24	-1822.49	  403.62
     80.4700	  551.00	  612.52	-1835.77	  403.65
     80.5700	  574.00	  628.96	-1829.21	  403.69
     80.6700	  617.00	  647.11	-1804.36	  403.72
     80.7700	  693.00	  666.12	-1747.37	  403.75
     80.8700	  656.00	  684.79	-1803.04	  403.78
     80.9700	  714.00	  701.70	-1761.95	  403.81
     81.0700	  739.00	  715.48	-1750.73	  403.84
     81.1700	  752.00	  725.05	-1747.30	  403.87
     81.2700	  706.00	  729.66	-1797.91	  403.89
     81.3700	  721.00	  728.96	-1782.21	  403.92
     81.4700	  757.00	  723.09	-1740.34	  403.94
     81.5700	  792.00	  712.64	-1694.89	  403.96
     81.6700	  787.00	  698.48	-1685.73	  403.98
     81.7700	  739.00	  681.63	-1716.88	  404.00
     81.8700	  755.00	  663.18	-1682.43	  404.02
     81.9700	  672.00	  644.32	-1746.57	  404.04
     82.0700	  668.00	  626.11	-1732.36	  404.06
     82.1700	  677.00	  609.31	-1706.56	  404.07
     82.2700	  644.00	  594.54	-1724.79	  404.08
     82.3700	  630.00	  582.01	-1726.26	  404.10
     82.4700	  587.00	  571.77	-1759.02	  404.11
     82.5700	  545.00	  563.73	-1792.98	  404.12
     82.6700	  552.00	  557.72	-1779.97	  404.13
     82.7700	  559.00	  553.61	-1768.86	  404.14
     82.8700	  559.00	  551.22	-1766.47	  404.14
     82.9700	  540.00	  550.37	-1784.62	  404.15
     83.0700	  506.00	  550.94	-1819.19	  404.15
     83.1700	  532.00	  552.82	-1795.07	  404.15
     83.2700	  518.00	  555.89	-1812.14	  404.15
     83.3700	  536.00	  559.98	-1798.23	  404.15
     83.4700	  544.00	  564.85	-1795.10	  404.15
     83.5700	  566.00	  570.19	-1778.44	  404.15
     83.6700	  571.00	  575.58	-1778.83	  404.15
     83.7700	  581.00	  580.51	-1773.76	  404.14
     83.8700	  533.00	  584.41	-1825.66	  404.14
     83.9700	  548.00	  586.72	-1812.97	  404.13
     84.0700	  573.00	  587.05	-1788.30	  404.12
     84.1700	  573.00	  585.32	-1786.57	  404.11
     84.2700	  560.00	  581.77	-1796.02	  404.10
     84.3700	  562.00	  576.89	-1789.14	  404.09
     84.4700	  546.00	  571.23	-1799.48	  404.07
     84.5700	  506.00	  565.31	-1833.56	  404.06
     84.6700	  556.00	  559.55	-1777.80	  404.04
     84.7700	  532.00	  554.28	-1796.53	  404.02
     84.8700	  553.00	  549.70	-1770.95	  404.00
     84.9700	  560.00	  545.91	-1760.16	  403.98
     85.0700	  525.00	  542.93	-1792.18	  403.96
     85.1700	  547.00	  540.71	-1767.96	  403.94
     85.2700	  534.00	  539.17	-1779.42	  403.91
     85.3700	  521.00	  538.22	-1791.47	  403.89
     85.4700	  536.00	  537.75	-1776.00	  403.86
     85.5700	  492.00	  537.69	-1819.94	  403.83
     85.6700	  547.00	  538.00	-1765.25	  403.80
     85.7700	  547.00	  538.64	-1765.89	  403.77
     85.8700	  519.00	  539.62	-1794.87	  403.74
     85.9700	  581.00	  540.98	-1734.23	  403.71
     86.0700	  523.00	  542.80	-1794.05	  403.67
     86.1700	  562.00	  545.17	-1757.42	  403.63
     86.2700	  484.00	  548.21	-1838.46	  403.60
     86.3700	  482.00	  552.06	-1844.31	  403.56
     86.4700	  554.00	  556.86	-1777.11	  403.52
     86.5700	  549.00	  562.73	-1787.98	  403.48
     86.6700	  575.00	  569.72	-1768.97	  403.43
     86.7700	  580.00	  577.76	-1772.01	  403.39
     86.8700	  595.00	  586.33	-1765.58	  403.34
     86.9700	  592.00	  595.67	-1777.92	  403.30
     87.0700	  630.00	  604.91	-1749.16	  403.25
     87.1700	  647.00	  613.37	-1740.62	  403.20
     87.2700	  617.00	  620.24	-1777.49	  403.15
     87.3700	  625.00	  624.73	-1773.98	  403.09
     87.4700	  676.00	  626.26	-1724.51	  403.04
     87.5700	  624.00	  624.59	-1774.84	  402.99
     87.6700	  661.00	  620.00	-1733.25	  402.93
     87.7700	  647.00	  613.14	-1740.39	  402.87
     87.8700	  618.00	  604.87	-1761.12	  402.81
     87.9700	  603.00	  596.09	-1767.34	  402.75
     88.0700	  608.00	  587.60	-1753.85	  402.69
     88.1700	  556.00	  580.10	-1798.35	  402.63
     88.2700	  623.00	  574.11	-1725.36	  402.56
     88.3700	  574.00	  569.96	-1770.21	  402.50
     88.4700	  594.00	  567.84	-1748.09	  402.43
     88.5700	  572.00	  567.74	-1769.99	  402.36
     88.6700	  513.00	  569.51	-1830.76	  402.29
     88.7700	  572.00	  572.87	-1775.12	  402.22
     88.8700	  603.00	  577.41	-1748.66	  402.15
     88.9700	  589.00	  582.65	-1767.90	  402.08
     89.0700	  601.00	  588.02	-1761.27	  402.00
     89.1700	  582.00	  592.92	-1785.17	  401.92
     89.2700	  581.00	  596.74	-1789.99	  401.85
     89.3700	  597.00	  598.93	-1776.18	  401.77
     89.4700	  647.00	  599.15	-1726.40	  401.69
     89.5700	  574.00	  597.30	-1797.55	  401.61
     89.6700	  566.00	  593.61	-1801.86	  401.52
     89.7700	  614.00	  588.50	-1748.75	  401.44
     89.8700	  589.00	  582.47	-1767.72	  401.35
     89.9700	  571.00	  576.02	-1779.27	  401.26
     90.0700	  495.00	  569.58	-1848.83	  401.18
     90.1700	  534.00	  563.49	-1803.74	  401.09
     90.2700	  586.00	  558.02	-1746.27	  401.00
     90.3700	  546.00	  553.30	-1781.55	  400.90
     90.4700	  555.00	  549.40	-1768.65	  400.81
     90.5700	  543.00	  546.32	-1777.57	  400.72
     90.6700	  531.00	  544.00	-1787.25	  400.62
     90.7700	  513.00	  542.35	-1803.60	  400.52
     90.8700	  528.00	  541.28	-1787.53	  400.42
     90.9700	  530.00	  540.70	-1784.95	  400.32
     91.0700	  517.00	  540.55	-1797.80	  400.22
     91.1700	  510.00	  540.79	-1805.04	  400.12
     91.2700	  495.00	  541.41	-1820.66	  400.01
     91.3700	  501.00	  542.46	-1815.71	  399.91
     91.4700	  547.00	  544.02	-1771.27	  399.80
     91.5700	  545.00	  546.19	-1775.44	  399.69
     91.6700	  477.00	  549.15	-1846.40	  399.59
     91.7700	  496.00	  553.06	-1831.31	  399.48
     91.8700	  538.00	  558.13	-1794.38	  399.36
     91.9700	  550.00	  564.57	-1788.82	  399.25
     92.0700	  510.00	  572.31	-1836.56	  399.14
     92.1700	  572.00	  581.93	-1784.18	  399.02
     92.2700	  562.00	  593.26	-1805.51	  398.90
     92.3700	  561.00	  606.24	-1819.49	  398.79
     92.4700	  585.00	  620.69	-1809.94	  398.67
     92.5700	  696.00	  636.29	-1714.54	  398.55
     92.6700	  659.00	  652.62	-1767.87	  398.42
     92.7700	  716.00	  669.09	-1727.34	  398.30
     92.8700	  683.00	  685.05	-1776.30	  398.18
     92.9700	  715.00	  699.81	-1759.06	  398.05
     93.0700	  743.00	  712.80	-1744.05	  397.93
     93.1700	  736.00	  723.73	-1761.98	  397.80
     93.2700	  770.00	  732.70	-1736.95	  397.67
     93.3700	  792.00	  740.14	-1722.39	  397.54
     93.4700	  774.00	  746.71	-1746.96	  397.41
     93.5700	  800.00	  753.13	-1727.38	  397.27
     93.6700	  869.00	  760.04	-1665.29	  397.14
     93.7700	  784.00	  768.00	-1758.25	  397.00
     93.8700	  840.00	  777.54	-1711.79	  396.87
     93.9700	  843.00	  789.09	-1720.34	  396.73
     94.0700	  841.00	  802.97	-1736.22	  396.59
     94.1700	  900.00	  819.25	-1693.50	  396.45
     94.2700	  884.00	  837.61	-1727.86	  396.31
     94.3700	  854.00	  857.33	-1777.58	  396.17
     94.4700	  893.00	  877.21	-1758.46	  396.03
     94.5700	  964.00	  895.63	-1705.88	  395.88
     94.6700	  904.00	  910.72	-1780.97	  395.74
     94.7700	  907.00	  920.51	-1787.76	  395.59
     94.8700	  964.00	  923.34	-1733.59	  395.44
     94.9700	 1002.00	  918.28	-1690.53	  395.29
     95.0700	  907.00	  905.35	-1772.60	  395.14
     95.1700	  925.00	  885.57	-1734.82	  394.99
     95.2700	  831.00	  860.65	-1803.90	  394.84
     95.3700	  811.00	  832.65	-1795.90	  394.69
     95.4700	  782.00	  803.67	-1795.92	  394.53
     95.5700	  795.00	  775.73	-1754.98	  394.38
     95.6700	  762.00	  750.66	-1762.91	  394.22
     95.7700	  693.00	  730.13	-1811.38	  394.06
     95.8700	  722.00	  715.62	-1767.87	  393.90
     95.9700	  679.00	  708.41	-1803.66	  393.74
     96.0700	  663.00	  709.60	-1820.85	  393.58
     96.1700	  687.00	  720.13	-1807.38	  393.42
     96.2700	  730.00	  740.70	-1784.95	  393.26
     96.3700	  769.00	  771.76	-1777.01	  393.09
     96.4700	  843.00	  813.41	-1744.66	  392.93
     96.5700	  910.00	  865.33	-1729.58	  392.76
     96.6700	  890.00	  926.64	-1810.89	  392.60
     96.7700	 1008.00	  995.84	-1762.09	  392.43
     96.8700	 1075.00	 1070.77	-1770.02	  392.26
     96.9700	 1074.00	 1148.53	-1848.78	  392.09
     97.0700	 1154.00	 1225.54	-1845.79	  391.92
     97.1700	 1221.00	 1297.63	-1850.88	  391.75
     97.2700	 1358.00	 1360.28	-1776.53	  391.57
     97.3700	 1403.00	 1408.97	-1780.22	  391.40
     97.4700	 1386.00	 1439.75	-1828.00	  391.23
     97.5700	 1405.00	 1450.06	-1819.31	  391.05
     97.6700	 1432.00	 1439.31	-1781.56	  390.88
     97.7700	 1431.00	 1408.95	-1752.20	  390.70
     97.8700	 1380.00	 1362.08	-1756.33	  390.52
     97.9700	 1302.00	 1302.78	-1775.03	  390.34
     98.0700	 1215.00	 1235.44	-1794.69	  390.16
     98.1700	 1187.00	 1164.42	-1751.67	  389.98
     98.2700	 1130.00	 1093.64	-1737.89	  389.80
     98.3700	 1042.00	 1026.53	-1758.78	  389.62
     98.4700	  943.00	  966.00	-1797.25	  389.43
     98.5700	  883.00	  914.37	-1805.62	  389.25
     98.6700	  820.00	  873.44	-1827.69	  389.06
     98.7700	  804.00	  844.56	-1814.81	  388.88
     98.8700	  808.00	  828.66	-1794.91	  388.69
     98.9700	  837.00	  826.42	-1763.67	  388.51
     99.0700	  813.00	  838.25	-1799.50	  388.32
     99.1700	  853.00	  864.38	-1785.63	  388.13
     99.2700	  881.00	  904.83	-1798.08	  387.94
     99.3700	  900.00	  959.39	-1833.64	  387.75
     99.4700	  955.00	 1027.58	-1846.83	  387.56
     99.5700	 1039.00	 1108.50	-1843.75	  387.37
     99.6700	 1188.00	 1200.80	-1787.05	  387.17
     99.7700	 1294.00	 1302.54	-1782.79	  386.98
     99.8700	 1447.00	 1411.12	-1738.37	  386.79
     99.9700	 1552.00	 1523.18	-1745.43	  386.59
    100.0700	 1628.00	 1634.71	-1780.96	  386.40
    100.1700	 1786.00	 1741.21	-1729.46	  386.20
    100.2700	 1865.00	 1838.12	-1747.37	  386.01
    100.3700	 1932.00	 1921.29	-1763.54	  385.81
    100.4700	 2010.00	 1987.38	-1751.63	  385.61
    100.5700	 2092.00	 2034.04	-1716.29	  385.42
    100.6700	 2128.00	 2059.74	-1705.99	  385.22
    100.7700	 2049.00	 2063.63	-1788.88	  385.02
    100.8700	 2079.00	 2045.50	-1740.75	  384.82
    100.9700	 2069.00	 2006.01	-1711.26	  384.62
    101.0700	 1997.00	 1947.07	-1724.32	  384.42
    101.1700	 1917.00	 1872.02	-1729.27	  384.22
    101.2700	 1831.00	 1785.34	-1728.59	  384.01
    101.3700	 1669.00	 1692.15	-1797.40	  383.81
    101.4700	 1580.00	 1597.54	-1791.79	  383.61
    101.5700	 1496.00	 1506.07	-1784.32	  383.41
    101.6700	 1473.00	 1421.43	-1722.68	  383.20
    101.7700	 1387.00	 1346.27	-1733.52	  383.00
    101.8700	 1276.00	 1282.15	-1780.40	  382.80
    101.9700	 1221.00	 1229.58	-1782.83	  382.59
    102.0700	 1230.00	 1188.07	-1732.32	  382.39
    102.1700	 1130.00	 1156.25	-1800.50	  382.18
    102.2700	 1200.00	 1132.06	-1706.31	  381.98
    102.3700	 1121.00	 1112.91	-1766.16	  381.77
    102.4700	 1060.00	 1096.03	-1810.28	  381.56
    102.5700	 1078.00	 1078.77	-1775.02	  381.36
    102.6700	 1037.00	 1058.95	-1796.20	  381.15
    102.7700	 1052.00	 1035.14	-1757.39	  380.94
    102.8700	  957.00	 1006.77	-1824.02	  380.74
    102.9700	  949.00	  974.07	-1799.32	  380.53
    103.0700	  952.00	  937.85	-1760.10	  380.32
    103.1700	  834.00	  899.22	-1839.47	  380.11
    103.2700	  872.00	  859.45	-1761.70	  379.90
    103.3700	  830.00	  819.78	-1764.03	  379.69
    103.4700	  830.00	  781.32	-1725.57	  379.49
    103.5700	  780.00	  745.05	-1739.30	  379.28
    103.6700	  669.00	  711.70	-1816.95	  379.07
    103.7700	  718.00	  681.79	-1738.04	  378.86
    103.8700	  628.00	  655.61	-1801.86	  378.65
    103.9700	  621.00	  633.26	-1786.51	  378.44
    104.0700	  611.00	  614.65	-1777.90	  378.23
    104.1700	  588.00	  599.55	-1785.80	  378.02
    104.2700	  552.00	  587.64	-1809.89	  377.81
    104.3700	  587.00	  578.54	-1765.79	  377.61
    104.4700	  560.00	  571.87	-1786.12	  377.40
    104.5700	  523.00	  567.24	-1818.49	  377.19
    104.6700	  580.00	  564.27	-1758.52	  376.98
    104.7700	  555.00	  562.66	-1781.91	  376.77
    104.8700	  556.00	  562.11	-1780.36	  376.56
    104.9700	  599.00	  562.38	-1737.63	  376.35
    105.0700	  568.00	  563.30	-1769.55	  376.14
    105.1700	  580.00	  564.70	-1758.95	  375.93
    105.2700	  558.00	  566.48	-1782.73	  375.73
    105.3700	  530.00	  568.59	-1812.84	  375.52
    105.4700	  572.00	  571.00	-1773.25	  375.31
    105.5700	  554.00	  573.73	-1793.98	  375.10
    105.6700	  563.00	  576.85	-1788.10	  374.89
    105.7700	  543.00	  580.48	-1811.73	  374.69
    105.8700	  569.00	  584.72	-1789.97	  374.48
    105.9700	  620.00	  589.71	-1743.96	  374.27
    106.0700	  547.00	  595.53	-1822.78	  374.07
    106.1700	  551.00	  602.24	-1825.49	  373.86
    106.2700	  580.00	  609.82	-1804.07	  373.66
    106.3700	  602.00	  618.22	-1790.47	  373.45
    106.4700	  555.00	  627.27	-1846.52	  373.25
    106.5700	  594.00	  636.78	-1817.03	  373.04
    106.6700	  656.00	  646.46	-1764.71	  372.84
    106.7700	  617.00	  655.98	-1813.23	  372.64
    106.8700	  607.00	  664.97	-1832.22	  372.43
    106.9700	  662.00	  673.02	-1785.27	  372.23
    107.0700	  709.00	  679.78	-1745.03	  372.03
    107.1700	  650.00	  684.94	-1809.19	  371.83
    107.2700	  706.00	  688.31	-1756.56	  371.63
    107.3700	  659.00	  689.90	-1805.15	  371.43
    107.4700	  716.00	  689.84	-1748.09	  371.23
    107.5700	  744.00	  688.45	-1718.70	  371.03
    107.6700	  730.00	  686.13	-1730.38	  370.83
    107.7700	  682.00	  683.30	-1775.55	  370.63
    107.8700	  642.00	  680.39	-1812.64	  370.44
    107.9700	  683.00	  677.72	-1768.97	  370.24
    108.0700	  684.00	  675.58	-1765.83	  370.04
    108.1700	  701.00	  674.10	-1747.35	  369.85
    108.2700	  683.00	  673.35	-1764.60	  369.66
    108.3700	  636.00	  673.24	-1811.49	  369.46
    108.4700	  695.00	  673.60	-1752.85	  369.27
    108.5700	  643.00	  674.18	-1805.43	  369.08
    108.6700	  699.00	  674.64	-1749.89	  368.89
    108.7700	  702.00	  674.61	-1746.86	  368.70
    108.8700	  703.00	  673.73	-1744.98	  368.51
    108.9700	  690.00	  671.69	-1755.94	  368.33
    109.0700	  649.00	  668.29	-1793.54	  368.14
    109.1700	  645.00	  663.47	-1792.72	  367.95
    109.2700	  634.00	  657.27	-1797.52	  367.77
    109.3700	  687.00	  649.87	-1737.12	  367.59
    109.4700	  661.00	  641.52	-1754.77	  367.40
    109.5700	  606.00	  632.51	-1800.76	  367.22
    109.6700	  698.00	  623.14	-1699.39	  367.04
    109.7700	  636.00	  613.70	-1751.95	  366.86
    109.8700	  608.00	  604.46	-1770.71	  366.69
    109.9700	  643.00	  595.65	-1726.90	  366.51
    110.0700	  608.00	  587.47	-1753.72	  366.34
    110.1700	  557.00	  580.05	-1797.30	  366.16
    110.2700	  560.00	  573.50	-1787.75	  365.99
    110.3700	  553.00	  567.87	-1789.12	  365.82
    110.4700	  530.00	  563.16	-1807.41	  365.65
    110.5700	  540.00	  559.37	-1793.62	  365.48
    110.6700	  545.00	  556.43	-1785.68	  365.31
    110.7700	  550.00	  554.29	-1778.54	  365.15
    110.8700	  575.00	  552.86	-1752.11	  364.98
    110.9700	  573.00	  552.06	-1753.31	  364.82
    111.0700	  567.00	  551.82	-1759.07	  364.66
    111.1700	  570.00	  552.06	-1756.31	  364.50
    111.2700	  560.00	  552.70	-1766.95	  364.34
    111.3700	  533.00	  553.70	-1794.95	  364.19
    111.4700	  531.00	  554.99	-1798.24	  364.03
    111.5700	  565.00	  556.55	-1765.80	  363.88
    111.6700	  558.00	  558.35	-1774.60	  363.73
    111.7700	  528.00	  560.37	-1806.62	  363.58
    111.8700	  540.00	  562.59	-1796.84	  363.43
    111.9700	  555.00	  565.01	-1784.26	  363.29
    112.0700	  605.00	  567.65	-1736.90	  363.14
    112.1700	  579.00	  570.50	-1765.75	  363.00
    112.2700	  580.00	  573.59	-1767.84	  362.86
    112.3700	  586.00	  576.96	-1765.21	  362.72
    112.4700	  609.00	  580.63	-1745.88	  362.58
    112.5700	  606.00	  584.65	-1752.90	  362.45
    112.6700	  613.00	  589.09	-1750.34	  362.32
    112.7700	  614.00	  594.03	-1754.28	  362.19
    112.8700	  657.00	  599.59	-1716.84	  362.06
    112.9700	  647.00	  605.90	-1733.15	  361.93
    113.0700	  679.00	  613.14	-1708.39	  361.81
    113.1700	  680.00	  621.56	-1715.81	  361.68
    113.2700	  705.00	  631.46	-1700.71	  361.56
    113.3700	  758.00	  643.25	-1659.50	  361.45
    113.4700	  824.00	  657.42	-1607.67	  361.33
    113.5700	  788.00	  674.60	-1660.85	  361.22
    113.6700	  804.00	  695.56	-1665.81	  361.11
    113.7700	  873.00	  721.26	-1622.51	  361.00
    113.8700	  882.00	  752.83	-1645.08	  360.89
    113.9700	  931.00	  791.60	-1634.85	  360.79
    114.0700	 1020.00	  839.14	-1593.39	  360.69
    114.1700	 1093.00	  897.22	-1578.47	  360.59
    114.2700	 1107.00	  967.82	-1635.07	  360.49
    114.3700	 1149.00	 1053.09	-1678.34	  360.40
    114.4700	 1285.00	 1155.31	-1644.56	  360.30
    114.5700	 1356.00	 1276.78	-1695.03	  360.22
    114.6700	 1627.00	 1419.80	-1567.05	  360.13
    114.7700	 1759.00	 1586.56	-1601.81	  360.05
    114.8700	 1822.00	 1778.88	-1731.13	  359.96
    114.9700	 2066.00	 1998.19	-1706.44	  359.89
    115.0700	 2340.00	 2245.29	-1679.54	  359.81
    115.1700	 2444.00	 2520.31	-1850.56	  359.74
    115.2700	 2761.00	 2822.50	-1835.75	  359.67
    115.3700	 3177.00	 3150.00	-1747.25	  359.60
    115.4700	 3505.00	 3499.87	-1769.12	  359.54
    115.5700	 3779.00	 3867.92	-1863.17	  359.48
    115.6700	 4098.00	 4248.84	-1925.09	  359.42
    115.7700	 4441.00	 4636.12	-1969.37	  359.36
    115.8700	 4687.00	 5021.94	-2109.19	  359.31
    115.9700	 5171.00	 5397.45	-2000.70	  359.26
    116.0700	 5606.00	 5752.83	-1921.08	  359.22
    116.1700	 5925.00	 6077.69	-1926.94	  359.17
    116.2700	 6212.00	 6361.33	-1923.58	  359.13
    116.3700	 6562.00	 6593.28	-1805.53	  359.10
    116.4700	 6693.00	 6764.15	-1845.40	  359.07
    116.5700	 6968.00	 6866.52	-1672.77	  359.04
    116.6700	 6892.00	 6895.83	-1778.08	  359.01
    116.7700	 7097.00	 6850.87	-1528.12	  358.99
    116.8700	 7024.00	 6734.02	-1484.27	  358.97
    116.9700	 6613.00	 6550.89	-1712.14	  358.95
    117.0700	 6267.00	 6309.70	-1816.95	  358.94
    117.1700	 6052.00	 6020.19	-1742.44	  358.93
    117.2700	 5582.00	 5692.86	-1885.11	  358.92
    117.3700	 5152.00	 5338.37	-1960.62	  358.92
    117.4700	 4853.00	 4966.89	-1888.14	  358.92
    117.5700	 4617.00	 4587.82	-1745.07	  358.93
    117.6700	 4292.00	 4209.48	-1691.73	  358.94
    117.7700	 3937.00	 3839.01	-1676.26	  358.95
    117.8700	 3725.00	 3482.47	-1531.72	  358.97
    117.9700	 3295.00	 3144.65	-1623.90	  358.99
    118.0700	 3053.00	 2829.16	-1550.41	  359.01
    118.1700	 2631.00	 2538.37	-1681.62	  359.04
    118.2700	 2205.00	 2273.65	-1842.90	  359.07
    118.3700	 2012.00	 2035.52	-1797.77	  359.11
    118.4700	 1785.00	 1823.66	-1812.91	  359.15
    118.5700	 1579.00	 1637.16	-1832.41	  359.19
    118.6700	 1407.00	 1474.56	-1841.81	  359.24
    118.7700	 1274.00	 1334.04	-1834.29	  359.30
    118.8700	 1085.00	 1213.61	-1902.86	  359.35
    118.9700	 1020.00	 1111.17	-1865.42	  359.41
    119.0700	  970.00	 1024.58	-1828.83	  359.48
    119.1700	  891.00	  951.79	-1835.04	  359.55
    119.2700	  812.00	  890.84	-1853.09	  359.62
    119.3700	  849.00	  839.98	-1765.23	  359.70
    119.4700	  759.00	  797.63	-1812.88	  359.79
    119.5700	  702.00	  762.42	-1834.67	  359.87
    119.6700	  679.00	  733.14	-1828.39	  359.96
    119.7700	  617.00	  708.77	-1866.02	  360.06
    119.8700	  698.00	  688.48	-1764.73	  360.16
    119.9700	  609.00	  671.54	-1836.79	  360.27
    120.0700	  615.00	  657.40	-1816.65	  360.38
    120.1700	  590.00	  645.57	-1829.82	  360.49
    120.2700	  559.00	  635.68	-1850.93	  360.61
    120.3700	  580.00	  627.42	-1821.67	  360.74
    120.4700	  573.00	  620.55	-1821.80	  360.87
    120.5700	  613.00	  614.89	-1776.14	  361.00
    120.6700	  571.00	  610.27	-1813.52	  361.14
    120.7700	  574.00	  606.58	-1806.83	  361.29
    120.8700	  596.00	  603.73	-1781.98	  361.44
    120.9700	  572.00	  601.65	-1803.90	  361.59
    121.0700	  550.00	  600.29	-1824.54	  361.75
    121.1700	  566.00	  599.58	-1807.83	  361.92
    121.2700	  557.00	  599.49	-1816.74	  362.09
    121.3700	  542.00	  599.98	-1832.23	  362.27
    121.4700	  582.00	  601.00	-1793.25	  362.45
    121.5700	  593.00	  602.51	-1783.76	  362.63
    121.6700	  637.00	  604.45	-1741.70	  362.83
    121.7700	  590.00	  606.77	-1791.02	  363.02
    121.8700	  563.00	  609.39	-1820.64	  363.23
    121.9700	  555.00	  612.22	-1831.47	  363.44
    122.0700	  612.00	  615.21	-1777.46	  363.65
    122.1700	  615.00	  618.26	-1777.51	  363.87
    122.2700	  611.00	  621.26	-1784.51	  364.09
    122.3700	  623.00	  624.12	-1775.37	  364.33
    122.4700	  625.00	  626.73	-1775.98	  364.56
    122.5700	  602.00	  628.98	-1801.23	  364.81
    122.6700	  642.00	  630.79	-1763.04	  365.06
    122.7700	  685.00	  632.10	-1721.35	  365.31
    122.8700	  656.00	  632.84	-1751.09	  365.57
    122.9700	  667.00	  632.97	-1740.22	  365.84
    123.0700	  688.00	  632.51	-1718.76	  366.11
    123.1700	  648.00	  631.45	-1757.70	  366.39
    123.2700	  641.00	  629.85	-1763.10	  366.68
    123.3700	  675.00	  627.76	-1727.01	  366.97
    123.4700	  689.00	  625.25	-1710.50	  367.27
    123.5700	  659.00	  622.37	-1737.62	  367.57
    123.6700	  638.00	  619.22	-1755.47	  367.88
    123.7700	  674.00	  615.86	-1716.11	  368.20
    123.8700	  626.00	  612.36	-1760.61	  368.52
    123.9700	  657.00	  608.79	-1726.04	  368.85
    124.0700	  618.00	  605.21	-1761.46	  369.19
    124.1700	  626.00	  601.69	-1749.94	  369.53
    124.2700	  612.00	  598.25	-1760.50	  369.88
    124.3700	  612.00	  594.94	-1757.19	  370.24
    124.4700	  631.00	  591.80	-1735.05	  370.60
    124.5700	  561.00	  588.85	-1802.10	  370.98
    124.6700	  608.00	  586.10	-1752.35	  371.35
    124.7700	  567.00	  583.57	-1790.82	  371.74
    124.8700	  545.00	  581.28	-1810.53	  372.13
    124.9700	  553.00	  492.17	-1713.42	  372.53
    125.0700	  627.00	  492.57	-1774.25	  372.93
    125.1700	  518.00	  492.99	-1774.25	  373.35
    125.2700	  556.00	  493.41	-1774.25	  373.77
    125.3700	  572.00	  493.84	-1774.25	  374.19
    125.4700	  589.00	  494.27	-1774.25	  374.63
    125.5700	  534.00	  494.71	-1774.25	  375.07
    125.6700	  568.00	  495.16	-1774.25	  375.52
    125.7700	  597.00	  495.62	-1774.25	  375.98
    125.8700	  559.00	  496.08	-1774.25	  376.44
    125.9700	  540.00	  496.56	-1774.25	  376.92
    126.0700	  578.00	  497.04	-1774.25	  377.40
    126.1700	  639.00	  497.53	-1774.25	  377.88
    126.2700	  570.00	  498.02	-1774.25	  378.38
    126.3700	  602.00	  498.52	-1774.25	  378.88
    126.4700	  571.00	  499.04	-1774.25	  379.40
    126.5700	  610.00	  499.56	-1774.25	  379.91
    126.6700	  607.00	  500.08	-1774.25	  380.44
    126.7700	  633.00	  500.62	-1774.25	  380.98
    126.8700	  611.00	  501.16	-1774.25	  381.52
    126.9700	  646.00	  501.71	-1774.25	  382.07
    127.0700	  651.00	  502.27	-1774.25	  382.63
    127.1700	  642.00	  502.84	-1774.25	  383.20
    127.2700	  640.00	  503.42	-1774.25	  383.78
    127.3700	  676.00	  504.00	-1774.25	  384.36
    127.4700	  681.00	  504.60	-1774.25	  384.96
    127.5700	  651.00	  505.20	-1774.25	  385.56
    127.6700	  684.00	  505.81	-1774.25	  386.17
    127.7700	  674.00	  506.43	-1774.25	  386.79
    127.8700	  702.00	  507.06	-1774.25	  387.42
    127.9700	  749.00	  507.69	-1774.25	  388.05
    128.0700	  746.00	  508.34	-1774.25	  388.70
    128.1700	  738.00	  508.99	-1774.25	  389.35
    128.2700	  764.00	  509.66	-1774.25	  390.02
    128.3700	  805.00	  510.33	-1774.25	  390.69
    128.4700	  806.00	  511.01	-1774.25	  391.37
    128.5700	    0.00	  511.70	-1774.25	  392.06
    128.6700	    0.00	  512.40	-1774.25	  392.76
     12.3029	        	        	        	        	       0	(  0  0  2)	  0  1
     24.8834	        	        	        	        	       0	(  0  0  4)	  0  1
     28.3308	        	        	        	        	       0	(  1  0  0)	  0  1
     29.0277	        	        	        	        	       0	(  1  0  1)	  0  1
     31.0331	        	        	        	        	       0	(  1  0  2)	  0  1
     34.1403	        	        	        	        	       0	(  1  0  3)	  0  1
     37.7797	        	        	        	        	       0	(  0  0  6)	  0  1
     38.1160	        	        	        	        	       0	(  1  0  4)	  0  1
     42.7645	        	        	        	        	       0	(  1  0  5)	  0  1
     47.9468	        	        	        	        	       0	(  1  0  6)	  0  1
     50.2681	        	        	        	        	       0	(  1  1  0)	  0  1
     51.1979	        	        	        	        	       0	(  0  0  8)	  0  1
     51.9904	        	        	        	        	       0	(  1  1  2)	  0  1
     53.5754	        	        	        	        	       0	(  1  0  7)	  0  1
     56.9362	        	        	        	        	       0	(  1  1  4)	  0  1
     58.7652	        	        	        	        	       0	(  2  0  0)	  0  1
     59.1566	        	        	        	        	       0	(  2  0  1)	  0  1
     59.6038	        	        	        	        	       0	(  1  0  8)	  0  1
     60.3215	        	        	        	        	       0	(  2  0  2)	  0  1
     62.2339	        	        	        	        	       0	(  2  0  3)	  0  1
     64.6279	        	        	        	        	       0	(  1  1  6)	  0  1
     64.8569	        	        	        	        	       0	(  2  0  4)	  0  1
     65.4226	        	        	        	        	       0	(  0  0 10)	  0  1
     66.0179	        	        	        	        	       0	(  1  0  9)	  0  1
     68.1498	        	        	        	        	       0	(  2  0  5)	  0  1
     72.0757	        	        	        	        	       0	(  2  0  6)	  0  1
     72.8315	        	        	        	        	       0	(  1  0 10)	  0  1
     74.6616	        	        	        	        	       0	(  1  1  8)	  0  1
     76.6079	        	        	        	        	       0	(  2  0  7)	  0  1
     80.0863	        	        	        	        	       0	(  1  0 11)	  0  1
     80.8973	        	        	        	        	       0	(  0  0 12)	  0  1
     81.0069	        	        	        	        	       0	(  2  1  0)	  0  1
     81.3466	        	        	        	        	       0	(  2  1  1)	  0  1
     81.7361	        	        	        	        	       0	(  2  0  8)	  0  1
     82.3640	        	        	        	        	       0	(  2  1  2)	  0  1
     84.0546	        	        	        	        	       0	(  2  1  3)	  0  1
     86.4132	        	        	        	        	       0	(  2  1  4)	  0  1
     86.9278	        	        	        	        	       0	(  1  1 10)	  0  1
     87.4716	        	        	        	        	       0	(  2  0  9)	  0  1
     87.8573	        	        	        	        	       0	(  1  0 12)	  0  1
     89.4377	        	        	        	        	       0	(  2  1  5)	  0  1
     93.1334	        	        	        	        	       0	(  2  1  6)	  0  1
     93.8561	        	        	        	        	       0	(  2  0 10)	  0  1
     94.8961	        	        	        	        	       0	(  3  0  0)	  0  1
     95.2333	        	        	        	        	       0	(  3  0  1)	  0  1
     96.2461	        	        	        	        	       0	(  3  0  2)	  0  1
     96.2664	        	        	        	        	       0	(  1  0 13)	  0  1
     97.5200	        	        	        	        	       0	(  2  1  7)	  0  1
     97.9387	        	        	        	        	       0	(  3  0  3)	  0  1
     98.4283	        	        	        	        	       0	(  0  0 14)	  0  1
    100.3206	        	        	        	        	       0	(  3  0  4)	  0  1
    100.9744	        	        	        	        	       0	(  2  0 11)	  0  1
    101.7909	        	        	        	        	       0	(  1  1 12)	  0  1
    102.6400	        	        	        	        	       0	(  2  1  8)	  0  1
    103.4108	        	        	        	        	       0	(  3  0  5)	  0  1
    105.5139	        	        	        	        	       0	(  1  0 14)	  0  1
    107.2441	        	        	        	        	       0	(  3  0  6)	  0  1
    108.5739	        	        	        	        	       0	(  2  1  9)	  0  1
    108.9812	        	        	        	        	       0	(  2  0 12)	  0  1
    111.8822	        	        	        	        	       0	(  3  0  7)	  0  1
    115.4669	        	        	        	        	       0	(  2  1 10)	  0  1
    115.9502	        	        	        	        	       0	(  1  0 15)	  0  1
    116.6222	        	        	        	        	       0	(  2  2  0)	  0  1
    117.4328	        	        	        	        	       0	(  3  0  8)	  0  1
    118.1368	        	        	        	        	       0	(  2  2  2)	  0  1
    118.1597	        	        	        	        	       0	(  2  0 13)	  0  1
    119.9018	        	        	        	        	       0	(  0  0 16)	  0  1
    120.6230	        	        	        	        	       0	(  1  1 14)	  0  1
    122.8202	        	        	        	        	       0	(  2  2  4)	  0  1
    123.5890	        	        	        	        	       0	(  2  1 11)	  0  1
    124.0890	        	        	        	        	       0	(  3  0  9)	  0  1
    124.6881	        	        	        	        	       0	(  3  1  0)	  0  1
    125.0982	        	        	        	        	       0	(  3  1  1)	  0  1
    126.3411	        	        	        	        	       0	(  3  1  2)	  0  1
    128.2826	        	        	        	        	       0	(  1  0 16)	  0  1
    128.4585	        	        	        	        	       0	(  3  1  3)	  0  1
    129.0810	        	        	        	        	       0	(  2  0 14)	  0  1
    131.2561	        	        	        	        	       0	(  2  2  6)	  0  1
    131.5331	        	        	        	        	       0	(  3  1  4)	  0  1
    132.2246	        	        	        	        	       0	(  3  0 10)	  0  1
    133.4940	        	        	        	        	       0	(  2  1 12)	  0  1
    135.7183	        	        	        	        	       0	(  3  1  5)	  0  1
    141.3112	        	        	        	        	       0	(  3  1  6)	  0  1
    142.6953	        	        	        	        	       0	(  3  0 11)	  0  1
    143.2055	        	        	        	        	       0	(  2  0 15)	  0  1
    144.4309	        	        	        	        	       0	(  1  0 17)	  0  1
    145.4825	        	        	        	        	       0	(  2  2  8)	  0  1
    146.6367	        	        	        	        	       0	(  2  1 13)	  0  1
    148.9807	        	        	        	        	       0	(  3  1  7)	  0  1
    149.5247	        	        	        	        	       0	(  1  1 16)	  0  1
    153.9003	        	        	        	        	       0	(  0  0 18)	  0  1
    158.5550	        	        	        	        	       0	(  3  0 12)	  0  1
    158.8549	        	        	        	        	       0	(  4  0  0)	  0  1
    159.8121	        	        	        	        	       0	(  4  0  1)	  0  1
    160.9676	        	        	        	        	       0	(  3  1  8)	  0  1
    162.9926	        	        	        	        	       0	(  4  0  2)	  0  1
    169.5519	        	        	        	        	       0	(  2  0 16)	  0  1
    170.3508	        	        	        	        	       0	(  4  0  3)	  0  1
    173.9595	        	        	        	        	       0	(  2  1 14)	  0  1
