MSG Master    CELL:    5.89616   5.89616  23.16570   90.0000   90.0000  120.0000   SPGR: P 63/m m c             TEMP:    728.05
  2   1280     2.52000     0.00000    -0.11836     0.00000     0.00000    0
    96    96     0     0     2
       0.00000      10.00000
     125.00000     130.00000
 2Theta	Yobs	Ycal	Yobs-Ycal	Backg	Posr	(hkl)	K
      0.7700	    0.00	  520.50	-1793.50	  404.75
      0.8700	    0.00	  522.40	-1793.50	  406.64
      0.9700	   36.00	  524.27	-1793.50	  408.52
      1.0700	   49.00	  526.13	-1793.50	  410.37
      1.1700	   40.00	  527.96	-1793.50	  412.21
      1.2700	   46.00	  529.77	-1793.50	  414.02
      1.3700	   46.00	  531.57	-1793.50	  415.81
      1.4700	  108.00	  533.34	-1793.50	  417.59
      1.5700	  287.00	  535.09	-1793.50	  419.34
      1.6700	  474.00	  536.83	-1793.50	  421.08
      1.7700	  556.00	  538.54	-1793.50	  422.79
      1.8700	  654.00	  540.24	-1793.50	  424.48
      1.9700	  691.00	  541.91	-1793.50	  426.16
      2.0700	  750.00	  543.57	-1793.50	  427.82
      2.1700	  760.00	  545.21	-1793.50	  429.45
      2.2700	  763.00	  546.83	-1793.50	  431.07
      2.3700	  741.00	  548.42	-1793.50	  432.67
      2.4700	  706.00	  550.00	-1793.50	  434.25
      2.5700	  723.00	  551.57	-1793.50	  435.81
      2.6700	  698.00	  553.11	-1793.50	  437.36
      2.7700	  691.00	  554.63	-1793.50	  438.88
      2.8700	  641.00	  556.14	-1793.50	  440.39
      2.9700	  622.00	  557.63	-1793.50	  441.88
      3.0700	  619.00	  559.10	-1793.50	  443.35
      3.1700	  625.00	  560.55	-1793.50	  444.80
      3.2700	  712.00	  561.98	-1793.50	  446.23
      3.3700	  821.00	  563.40	-1793.50	  447.65
      3.4700	 1044.00	  564.80	-1793.50	  449.05
      3.5700	 1175.00	  566.18	-1793.50	  450.43
      3.6700	 1301.00	  567.54	-1793.50	  451.79
      3.7700	 1388.00	  568.89	-1793.50	  453.14
      3.8700	 1451.00	  570.22	-1793.50	  454.47
      3.9700	 1447.00	  571.53	-1793.50	  455.78
      4.0700	 1532.00	  572.83	-1793.50	  457.07
      4.1700	 1595.00	  574.11	-1793.50	  458.35
      4.2700	 1621.00	  575.37	-1793.50	  459.61
      4.3700	 1630.00	  576.61	-1793.50	  460.86
      4.4700	 1544.00	  577.84	-1793.50	  462.09
      4.5700	 1419.00	  579.05	-1793.50	  463.30
      4.6700	 1468.00	  580.25	-1793.50	  464.49
      4.7700	 1346.00	  581.42	-1793.50	  465.67
      4.8700	 1404.00	  582.59	-1793.50	  466.83
      4.9700	 1332.00	  583.73	-1793.50	  467.98
      5.0700	 1273.00	  584.87	-1793.50	  469.11
      5.1700	 1214.00	  585.98	-1793.50	  470.23
      5.2700	 1206.00	  587.08	-1793.50	  471.33
      5.3700	 1184.00	  588.16	-1793.50	  472.41
      5.4700	 1060.00	  589.23	-1793.50	  473.48
      5.5700	 1122.00	  590.28	-1793.50	  474.53
      5.6700	 1060.00	  591.32	-1793.50	  475.57
      5.7700	 1049.00	  592.34	-1793.50	  476.59
      5.8700	  989.00	  593.35	-1793.50	  477.60
      5.9700	 1015.00	  594.34	-1793.50	  478.59
      6.0700	  923.00	  595.32	-1793.50	  479.57
      6.1700	  977.00	  596.28	-1793.50	  480.53
      6.2700	  969.00	  597.23	-1793.50	  481.48
      6.3700	  906.00	  598.16	-1793.50	  482.41
      6.4700	  943.00	  599.08	-1793.50	  483.33
      6.5700	  902.00	  599.99	-1793.50	  484.23
      6.6700	  880.00	  600.88	-1793.50	  485.12
      6.7700	  844.00	  601.75	-1793.50	  486.00
      6.8700	  904.00	  602.61	-1793.50	  486.86
      6.9700	  874.00	  603.46	-1793.50	  487.71
      7.0700	  825.00	  604.29	-1793.50	  488.54
      7.1700	  785.00	  605.11	-1793.50	  489.36
      7.2700	  840.00	  605.92	-1793.50	  490.17
      7.3700	  781.00	  606.71	-1793.50	  490.96
      7.4700	  840.00	  607.49	-1793.50	  491.74
      7.5700	  800.00	  608.26	-1793.50	  492.50
      7.6700	  769.00	  609.01	-1793.50	  493.25
      7.7700	  785.00	  609.75	-1793.50	  493.99
      7.8700	  767.00	  610.47	-1793.50	  494.72
      7.9700	  721.00	  611.19	-1793.50	  495.43
      8.0700	  770.00	  611.88	-1793.50	  496.13
      8.1700	  714.00	  612.57	-1793.50	  496.82
      8.2700	  741.00	  613.25	-1793.50	  497.49
      8.3700	  672.00	  613.91	-1793.50	  498.15
      8.4700	  746.00	  614.56	-1793.50	  498.80
      8.5700	  739.00	  615.19	-1793.50	  499.44
      8.6700	  705.00	  615.82	-1793.50	  500.06
      8.7700	  709.00	  616.43	-1793.50	  500.67
      8.8700	  722.00	  617.03	-1793.50	  501.27
      8.9700	  727.00	  617.61	-1793.50	  501.86
      9.0700	  709.00	  618.19	-1793.50	  502.44
      9.1700	  692.00	  618.75	-1793.50	  503.00
      9.2700	  677.00	  619.30	-1793.50	  503.55
      9.3700	  689.00	  619.84	-1793.50	  504.09
      9.4700	  688.00	  620.37	-1793.50	  504.62
      9.5700	  721.00	  620.89	-1793.50	  505.14
      9.6700	  641.00	  621.39	-1793.50	  505.64
      9.7700	  723.00	  621.89	-1793.50	  506.13
      9.8700	  643.00	  622.37	-1793.50	  506.62
      9.9700	  629.00	  622.84	-1793.50	  507.09
     10.0700	  657.00	  625.66	-1762.16	  507.55
     10.1700	  672.00	  626.38	-1747.88	  507.99
     10.2700	  678.00	  627.14	-1742.64	  508.43
     10.3700	  633.00	  627.98	-1788.48	  508.86
     10.4700	  653.00	  628.93	-1769.43	  509.28
     10.5700	  668.00	  630.04	-1755.54	  509.68
     10.6700	  697.00	  631.39	-1727.89	  510.08
     10.7700	  662.00	  633.09	-1764.59	  510.46
     10.8700	  683.00	  635.23	-1745.73	  510.83
     10.9700	  681.00	  637.87	-1750.37	  511.20
     11.0700	  647.00	  641.05	-1787.55	  511.55
     11.1700	  684.00	  644.76	-1754.26	  511.89
     11.2700	  658.00	  649.06	-1784.56	  512.22
     11.3700	  707.00	  654.02	-1740.52	  512.55
     11.4700	  695.00	  659.78	-1758.28	  512.86
     11.5700	  728.00	  666.55	-1732.05	  513.16
     11.6700	  658.00	  674.62	-1810.12	  513.45
     11.7700	  724.00	  684.32	-1753.82	  513.74
     11.8700	  704.00	  695.85	-1785.35	  514.01
     11.9700	  729.00	  708.90	-1773.40	  514.28
     12.0700	  795.00	  722.16	-1720.66	  514.53
     12.1700	  772.00	  732.65	-1754.15	  514.77
     12.2700	  757.00	  735.56	-1772.06	  515.01
     12.3700	  778.00	  726.57	-1742.07	  515.24
     12.4700	  734.00	  707.81	-1767.31	  515.45
     12.5700	  645.00	  687.19	-1835.69	  515.66
     12.6700	  633.00	  670.27	-1830.77	  515.86
     12.7700	  617.00	  658.28	-1834.78	  516.05
     12.8700	  611.00	  650.51	-1833.01	  516.23
     12.9700	  630.00	  645.71	-1809.21	  516.40
     13.0700	  634.00	  642.74	-1802.24	  516.57
     13.1700	  630.00	  640.84	-1804.34	  516.72
     13.2700	  631.00	  639.54	-1802.04	  516.87
     13.3700	  621.00	  638.60	-1811.10	  517.01
     13.4700	  635.00	  637.89	-1796.39	  517.14
     13.5700	  602.00	  637.35	-1828.85	  517.26
     13.6700	  631.00	  636.93	-1799.43	  517.37
     13.7700	  642.00	  636.60	-1788.10	  517.48
     13.8700	  622.00	  636.33	-1807.83	  517.57
     13.9700	  633.00	  636.11	-1796.61	  517.66
     14.0700	  650.00	  635.93	-1779.43	  517.74
     14.1700	  551.00	  635.79	-1878.29	  517.82
     14.2700	  607.00	  635.66	-1822.16	  517.88
     14.3700	  639.00	  635.55	-1790.05	  517.94
     14.4700	  626.00	  635.46	-1802.96	  517.99
     14.5700	  615.00	  635.37	-1813.87	  518.03
     14.6700	  600.00	  635.30	-1828.80	  518.07
     14.7700	  648.00	  635.23	-1780.73	  518.09
     14.8700	  588.00	  635.16	-1840.66	  518.11
     14.9700	  620.00	  635.09	-1808.59	  518.13
     15.0700	  631.00	  635.03	-1797.53	  518.13
     15.1700	  642.00	  634.96	-1786.46	  518.13
     15.2700	  630.00	  634.89	-1798.39	  518.12
     15.3700	  607.00	  634.83	-1821.33	  518.10
     15.4700	  622.00	  634.76	-1806.26	  518.08
     15.5700	  584.00	  634.68	-1844.18	  518.05
     15.6700	  618.00	  634.61	-1810.11	  518.01
     15.7700	  618.00	  634.53	-1810.03	  517.97
     15.8700	  646.00	  634.44	-1781.94	  517.92
     15.9700	  604.00	  634.36	-1823.86	  517.86
     16.0700	  621.00	  634.26	-1806.76	  517.80
     16.1700	  617.00	  634.17	-1810.67	  517.73
     16.2700	  651.00	  634.07	-1776.57	  517.65
     16.3700	  620.00	  633.96	-1807.46	  517.57
     16.4700	  652.00	  633.86	-1775.36	  517.48
     16.5700	  594.00	  633.74	-1833.24	  517.39
     16.6700	  595.00	  633.62	-1832.12	  517.29
     16.7700	  610.00	  633.50	-1817.00	  517.18
     16.8700	  654.00	  633.37	-1772.87	  517.06
     16.9700	  555.00	  633.24	-1871.74	  516.95
     17.0700	  560.00	  633.10	-1866.60	  516.82
     17.1700	  626.00	  632.96	-1800.46	  516.69
     17.2700	  619.00	  632.81	-1807.31	  516.55
     17.3700	  601.00	  632.66	-1825.16	  516.41
     17.4700	  607.00	  632.50	-1819.00	  516.26
     17.5700	  611.00	  632.66	-1815.16	  516.11
     17.6700	  608.00	  632.50	-1818.00	  515.95
     17.7700	  603.00	  632.33	-1822.83	  515.78
     17.8700	  605.00	  632.43	-1820.93	  515.61
     17.9700	  603.00	  632.26	-1822.76	  515.44
     18.0700	  614.00	  632.08	-1811.58	  515.25
     18.1700	  615.00	  631.90	-1810.40	  515.07
     18.2700	  647.00	  631.72	-1778.22	  514.88
     18.3700	  625.00	  631.53	-1800.03	  514.68
     18.4700	  618.00	  631.34	-1806.84	  514.48
     18.5700	  639.00	  631.14	-1785.64	  514.27
     18.6700	  601.00	  630.94	-1823.44	  514.06
     18.7700	  627.00	  630.74	-1797.24	  513.84
     18.8700	  581.00	  630.53	-1843.03	  513.62
     18.9700	  599.00	  630.32	-1824.82	  513.40
     19.0700	  568.00	  630.10	-1855.60	  513.17
     19.1700	  623.00	  629.88	-1800.38	  512.93
     19.2700	  605.00	  629.71	-1818.21	  512.69
     19.3700	  585.00	  629.49	-1837.99	  512.45
     19.4700	  597.00	  629.26	-1825.76	  512.20
     19.5700	  613.00	  629.03	-1809.53	  511.94
     19.6700	  562.00	  628.79	-1860.29	  511.69
     19.7700	  635.00	  628.55	-1787.05	  511.42
     19.8700	  602.00	  628.31	-1819.81	  511.16
     19.9700	  628.00	  628.07	-1793.57	  510.89
     20.0700	  614.00	  627.82	-1807.32	  510.61
     20.1700	  629.00	  627.57	-1792.07	  510.33
     20.2700	  618.00	  627.32	-1802.82	  510.05
     20.3700	  611.00	  627.07	-1809.57	  509.76
     20.4700	  573.00	  626.81	-1847.31	  509.47
     20.5700	  582.00	  626.55	-1838.05	  509.18
     20.6700	  586.00	  626.29	-1833.79	  508.88
     20.7700	  651.00	  626.03	-1768.53	  508.58
     20.8700	  579.00	  625.76	-1840.26	  508.27
     20.9700	  592.00	  625.50	-1827.00	  507.96
     21.0700	  642.00	  625.23	-1776.73	  507.65
     21.1700	  591.00	  624.97	-1827.47	  507.33
     21.2700	  625.00	  624.70	-1793.20	  507.01
     21.3700	  628.00	  624.43	-1789.93	  506.69
     21.4700	  591.00	  624.16	-1826.66	  506.36
     21.5700	  604.00	  623.89	-1813.39	  506.03
     21.6700	  601.00	  623.80	-1816.30	  505.70
     21.7700	  620.00	  623.54	-1797.04	  505.36
     21.8700	  615.00	  623.27	-1801.77	  505.02
     21.9700	  598.00	  623.02	-1818.52	  504.68
     22.0700	  583.00	  622.76	-1833.26	  504.33
     22.1700	  659.00	  622.51	-1757.01	  503.99
     22.2700	  632.00	  622.26	-1783.76	  503.63
     22.3700	  641.00	  622.02	-1774.52	  503.28
     22.4700	  600.00	  621.78	-1815.28	  502.92
     22.5700	  592.00	  621.56	-1823.06	  502.56
     22.6700	  625.00	  621.34	-1789.84	  502.20
     22.7700	  617.00	  621.13	-1797.63	  501.83
     22.8700	  606.00	  620.94	-1808.44	  501.46
     22.9700	  616.00	  620.77	-1798.27	  501.09
     23.0700	  615.00	  620.62	-1799.12	  500.71
     23.1700	  599.00	  620.49	-1814.99	  500.34
     23.2700	  672.00	  620.40	-1741.90	  499.96
     23.3700	  637.00	  620.35	-1776.85	  499.57
     23.4700	  659.00	  620.35	-1754.85	  499.19
     23.5700	  677.00	  620.42	-1736.92	  498.80
     23.6700	  602.00	  620.59	-1812.09	  498.41
     23.7700	  633.00	  620.90	-1781.40	  498.02
     23.8700	  615.00	  621.41	-1799.91	  497.63
     23.9700	  630.00	  622.27	-1785.77	  497.23
     24.0700	  629.00	  623.64	-1788.14	  496.83
     24.1700	  622.00	  625.82	-1797.32	  496.43
     24.2700	  583.00	  629.17	-1839.67	  496.03
     24.3700	  647.00	  634.23	-1780.73	  495.63
     24.4700	  655.00	  641.28	-1779.78	  495.22
     24.5700	  663.00	  650.28	-1780.78	  494.81
     24.6700	  708.00	  660.62	-1746.12	  494.40
     24.7700	  690.00	  670.68	-1774.18	  493.99
     24.8700	  768.00	  677.58	-1703.08	  493.57
     24.9700	  727.00	  677.64	-1744.14	  493.16
     25.0700	  692.00	  669.61	-1771.11	  492.74
     25.1700	  693.00	  657.14	-1757.64	  492.32
     25.2700	  705.00	  645.02	-1733.52	  491.90
     25.3700	  699.00	  635.53	-1730.03	  491.48
     25.4700	  678.00	  628.95	-1744.45	  491.05
     25.5700	  622.00	  624.75	-1796.25	  490.63
     25.6700	  642.00	  622.19	-1773.69	  490.20
     25.7700	  626.00	  620.68	-1788.18	  489.77
     25.8700	  670.00	  619.81	-1743.31	  489.34
     25.9700	  671.00	  619.34	-1741.84	  488.91
     26.0700	  674.00	  619.17	-1738.67	  488.48
     26.1700	  658.00	  619.23	-1754.73	  488.04
     26.2700	  657.00	  619.52	-1756.02	  487.61
     26.3700	  677.00	  620.03	-1736.53	  487.17
     26.4700	  678.00	  620.77	-1736.27	  486.73
     26.5700	  627.00	  621.78	-1788.28	  486.29
     26.6700	  675.00	  623.10	-1741.60	  485.85
     26.7700	  725.00	  624.78	-1693.28	  485.41
     26.8700	  674.00	  626.91	-1746.41	  484.97
     26.9700	  776.00	  629.61	-1647.11	  484.52
     27.0700	  711.00	  633.04	-1715.54	  484.08
     27.1700	  698.00	  637.46	-1732.96	  483.64
     27.2700	  727.00	  643.28	-1709.78	  483.19
     27.3700	  758.00	  651.25	-1686.75	  482.74
     27.4700	  724.00	  662.85	-1732.35	  482.29
     27.5700	  688.00	  680.80	-1786.30	  481.85
     27.6700	  723.00	  709.92	-1780.42	  481.40
     27.7700	  775.00	  757.77	-1776.27	  480.95
     27.8700	  842.00	  834.14	-1785.64	  480.49
     27.9700	  896.00	  947.66	-1845.16	  480.04
     28.0700	 1052.00	 1099.41	-1840.91	  479.59
     28.1700	 1198.00	 1274.89	-1870.39	  479.14
     28.2700	 1461.00	 1436.90	-1769.40	  478.68
     28.3700	 1562.00	 1525.73	-1757.23	  478.23
     28.4700	 1554.00	 1493.39	-1732.89	  477.78
     28.5700	 1427.00	 1376.16	-1742.66	  477.32
     28.6700	 1196.00	 1269.29	-1866.79	  476.86
     28.7700	 1030.00	 1228.50	-1992.00	  476.41
     28.8700	 1196.00	 1253.21	-1850.71	  475.95
     28.9700	 1268.00	 1304.66	-1830.16	  475.50
     29.0700	 1288.00	 1322.12	-1827.62	  475.04
     29.1700	 1232.00	 1255.31	-1816.81	  474.58
     29.2700	 1160.00	 1116.87	-1750.37	  474.13
     29.3700	 1042.00	  966.36	-1717.86	  473.67
     29.4700	  938.00	  843.90	-1699.40	  473.21
     29.5700	  870.00	  759.18	-1682.68	  472.75
     29.6700	  833.00	  706.46	-1666.96	  472.29
     29.7700	  724.00	  675.45	-1744.95	  471.84
     29.8700	  772.00	  657.09	-1678.59	  471.38
     29.9700	  744.00	  645.61	-1695.11	  470.92
     30.0700	  774.00	  638.02	-1657.52	  470.46
     30.1700	  723.00	  633.03	-1703.53	  470.00
     30.2700	  681.00	  630.32	-1742.82	  469.54
     30.3700	  682.00	  630.16	-1741.66	  469.09
     30.4700	  648.00	  633.36	-1778.86	  468.63
     30.5700	  652.00	  641.12	-1782.62	  468.17
     30.6700	  717.00	  654.58	-1731.08	  467.71
     30.7700	  693.00	  673.81	-1774.31	  467.25
     30.8700	  751.00	  696.69	-1739.19	  466.80
     30.9700	  754.00	  717.99	-1757.49	  466.34
     31.0700	  684.00	  729.36	-1838.86	  465.88
     31.1700	  689.00	  722.82	-1827.32	  465.43
     31.2700	  707.00	  699.69	-1786.19	  464.97
     31.3700	  660.00	  670.87	-1804.37	  464.52
     31.4700	  658.00	  645.44	-1780.94	  464.06
     31.5700	  645.00	  626.60	-1775.10	  463.60
     31.6700	  646.00	  614.12	-1761.62	  463.15
     31.7700	  617.00	  606.37	-1782.87	  462.70
     31.8700	  669.00	  601.64	-1726.14	  462.24
     31.9700	  628.00	  598.63	-1764.13	  461.79
     32.0700	  620.00	  596.60	-1770.10	  461.34
     32.1700	  598.00	  595.16	-1790.66	  460.88
     32.2700	  595.00	  594.13	-1792.63	  460.43
     32.3700	  600.00	  593.43	-1786.93	  459.98
     32.4700	  624.00	  593.06	-1762.56	  459.53
     32.5700	  629.00	  592.96	-1757.46	  459.08
     32.6700	  561.00	  593.16	-1825.66	  458.63
     32.7700	  575.00	  593.70	-1812.20	  458.18
     32.8700	  619.00	  594.65	-1769.15	  457.74
     32.9700	  605.00	  596.11	-1784.61	  457.29
     33.0700	  643.00	  598.26	-1748.76	  456.84
     33.1700	  620.00	  601.40	-1774.90	  456.40
     33.2700	  592.00	  606.13	-1807.63	  455.95
     33.3700	  623.00	  613.54	-1784.04	  455.51
     33.4700	  650.00	  625.62	-1769.12	  455.07
     33.5700	  665.00	  645.48	-1773.98	  454.62
     33.6700	  644.00	  677.33	-1826.83	  454.18
     33.7700	  698.00	  725.41	-1820.91	  453.74
     33.8700	  746.00	  791.41	-1838.91	  453.30
     33.9700	  920.00	  870.74	-1744.24	  452.86
     34.0700	 1026.00	  949.31	-1716.81	  452.43
     34.1700	 1061.00	 1002.79	-1735.29	  451.99
     34.2700	 1147.00	 1004.41	-1650.91	  451.55
     34.3700	 1063.00	  948.71	-1679.21	  451.12
     34.4700	  921.00	  862.76	-1735.26	  450.69
     34.5700	  725.00	  778.17	-1846.67	  450.25
     34.6700	  722.00	  710.57	-1782.07	  449.82
     34.7700	  630.00	  662.93	-1826.43	  449.39
     34.8700	  647.00	  632.15	-1778.65	  448.96
     34.9700	  602.00	  613.17	-1804.67	  448.54
     35.0700	  601.00	  601.44	-1793.94	  448.11
     35.1700	  622.00	  593.81	-1765.31	  447.68
     35.2700	  581.00	  588.44	-1800.94	  447.26
     35.3700	  605.00	  584.38	-1772.88	  446.84
     35.4700	  555.00	  581.15	-1819.65	  446.41
     35.5700	  588.00	  578.50	-1784.00	  445.99
     35.6700	  534.00	  576.76	-1836.26	  445.57
     35.7700	  550.00	  574.87	-1818.37	  445.16
     35.8700	  545.00	  573.24	-1821.74	  444.74
     35.9700	  574.00	  571.82	-1791.32	  444.32
     36.0700	  558.00	  570.56	-1806.06	  443.91
     36.1700	  537.00	  569.45	-1825.95	  443.50
     36.2700	  578.00	  568.46	-1783.96	  443.08
     36.3700	  537.00	  567.57	-1824.07	  442.67
     36.4700	  496.00	  566.78	-1864.28	  442.27
     36.5700	  575.00	  566.07	-1784.57	  441.86
     36.6700	  551.00	  565.66	-1808.16	  441.45
     36.7700	  502.00	  565.13	-1856.63	  441.05
     36.8700	  528.00	  564.72	-1830.22	  440.65
     36.9700	  495.00	  564.43	-1862.93	  440.24
     37.0700	  591.00	  564.35	-1766.85	  439.84
     37.1700	  536.00	  564.54	-1822.04	  439.45
     37.2700	  540.00	  565.14	-1818.64	  439.05
     37.3700	  569.00	  566.39	-1790.89	  438.65
     37.4700	  598.00	  568.47	-1763.97	  438.26
     37.5700	  548.00	  571.58	-1817.08	  437.87
     37.6700	  582.00	  575.76	-1787.26	  437.48
     37.7700	  575.00	  580.73	-1799.23	  437.09
     37.8700	  568.00	  585.82	-1811.32	  436.70
     37.9700	  578.00	  590.06	-1805.56	  436.31
     38.0700	  560.00	  592.61	-1826.11	  435.93
     38.1700	  558.00	  592.91	-1828.41	  435.55
     38.2700	  560.00	  590.14	-1823.64	  435.17
     38.3700	  540.00	  584.49	-1837.99	  434.79
     38.4700	  631.00	  577.46	-1739.96	  434.41
     38.5700	  505.00	  570.80	-1859.30	  434.03
     38.6700	  555.00	  565.35	-1803.85	  433.66
     38.7700	  554.00	  561.30	-1800.80	  433.28
     38.8700	  540.00	  558.45	-1811.95	  432.91
     38.9700	  537.00	  556.49	-1812.99	  432.54
     39.0700	  537.00	  555.11	-1811.61	  432.18
     39.1700	  559.00	  554.09	-1788.59	  431.81
     39.2700	  541.00	  553.27	-1805.77	  431.45
     39.3700	  510.00	  552.27	-1835.77	  431.08
     39.4700	  537.00	  551.68	-1808.18	  430.72
     39.5700	  551.00	  551.14	-1793.64	  430.37
     39.6700	  532.00	  550.64	-1812.14	  430.01
     39.7700	  556.00	  550.19	-1787.69	  429.65
     39.8700	  547.00	  550.33	-1796.83	  429.30
     39.9700	  549.00	  549.95	-1794.45	  428.95
     40.0700	  496.00	  549.58	-1847.08	  428.60
     40.1700	  561.00	  549.24	-1781.74	  428.25
     40.2700	  579.00	  548.93	-1763.43	  427.91
     40.3700	  494.00	  548.63	-1848.13	  427.56
     40.4700	  572.00	  548.11	-1769.61	  427.22
     40.5700	  543.00	  547.87	-1798.37	  426.88
     40.6700	  545.00	  547.65	-1796.15	  426.54
     40.7700	  521.00	  547.46	-1819.96	  426.20
     40.8700	  509.00	  547.30	-1831.80	  425.87
     40.9700	  488.00	  547.18	-1852.68	  425.54
     41.0700	  526.00	  547.15	-1814.65	  425.21
     41.1700	  562.00	  547.12	-1778.62	  424.88
     41.2700	  539.00	  547.14	-1801.64	  424.55
     41.3700	  562.00	  547.24	-1778.74	  424.23
     41.4700	  500.00	  547.42	-1840.92	  423.90
     41.5700	  542.00	  547.71	-1799.21	  423.58
     41.6700	  551.00	  548.16	-1790.66	  423.26
     41.7700	  571.00	  548.83	-1771.33	  422.95
     41.8700	  562.00	  549.85	-1781.35	  422.63
     41.9700	  538.00	  551.53	-1807.03	  422.32
     42.0700	  513.00	  554.23	-1834.73	  422.01
     42.1700	  521.00	  558.44	-1830.94	  421.70
     42.2700	  528.00	  565.12	-1830.62	  421.39
     42.3700	  535.00	  575.19	-1833.69	  421.09
     42.4700	  539.00	  589.31	-1843.81	  420.78
     42.5700	  546.00	  607.37	-1854.87	  420.48
     42.6700	  589.00	  627.69	-1832.19	  420.18
     42.7700	  592.00	  646.66	-1848.16	  419.88
     42.8700	  639.00	  657.93	-1812.43	  419.59
     42.9700	  611.00	  656.61	-1839.11	  419.30
     43.0700	  640.00	  642.81	-1796.31	  419.01
     43.1700	  616.00	  622.42	-1799.92	  418.72
     43.2700	  569.00	  601.53	-1826.03	  418.43
     43.3700	  545.00	  583.66	-1832.16	  418.14
     43.4700	  544.00	  569.98	-1819.48	  417.86
     43.5700	  556.00	  560.33	-1797.83	  417.58
     43.6700	  494.00	  553.92	-1853.42	  417.30
     43.7700	  524.00	  549.78	-1819.28	  417.03
     43.8700	  525.00	  547.08	-1815.58	  416.75
     43.9700	  566.00	  545.45	-1772.95	  416.48
     44.0700	  559.00	  544.13	-1778.63	  416.21
     44.1700	  560.00	  543.11	-1776.61	  415.94
     44.2700	  549.00	  542.30	-1786.80	  415.67
     44.3700	  538.00	  541.62	-1797.12	  415.41
     44.4700	  548.00	  541.06	-1786.56	  415.15
     44.5700	  526.00	  540.59	-1808.09	  414.89
     44.6700	  554.00	  540.19	-1779.69	  414.63
     44.7700	  538.00	  539.85	-1795.35	  414.37
     44.8700	  524.00	  539.58	-1809.08	  414.12
     44.9700	  503.00	  539.33	-1829.83	  413.87
     45.0700	  581.00	  539.23	-1751.73	  413.62
     45.1700	  569.00	  539.07	-1763.57	  413.37
     45.2700	  568.00	  538.94	-1764.44	  413.13
     45.3700	  534.00	  538.85	-1798.35	  412.88
     45.4700	  590.00	  538.80	-1742.30	  412.64
     45.5700	  567.00	  538.83	-1765.33	  412.40
     45.6700	  562.00	  538.85	-1770.35	  412.17
     45.7700	  542.00	  538.90	-1790.40	  411.93
     45.8700	  536.00	  538.99	-1796.49	  411.70
     45.9700	  569.00	  539.12	-1763.62	  411.47
     46.0700	  546.00	  539.30	-1786.80	  411.24
     46.1700	  525.00	  539.53	-1808.03	  411.02
     46.2700	  539.00	  539.81	-1794.31	  410.79
     46.3700	  575.00	  540.16	-1758.66	  410.57
     46.4700	  536.00	  540.58	-1798.08	  410.35
     46.5700	  534.00	  541.08	-1800.58	  410.13
     46.6700	  538.00	  541.69	-1797.19	  409.92
     46.7700	  581.00	  542.42	-1754.92	  409.70
     46.8700	  553.00	  543.15	-1783.65	  409.49
     46.9700	  530.00	  544.30	-1807.80	  409.28
     47.0700	  590.00	  545.81	-1749.31	  409.07
     47.1700	  570.00	  547.88	-1771.38	  408.87
     47.2700	  591.00	  550.85	-1753.35	  408.66
     47.3700	  568.00	  555.20	-1780.70	  408.46
     47.4700	  553.00	  561.53	-1802.03	  408.26
     47.5700	  565.00	  570.44	-1798.94	  408.07
     47.6700	  592.00	  582.28	-1783.78	  407.87
     47.7700	  623.00	  597.36	-1767.86	  407.68
     47.8700	  588.00	  613.66	-1819.16	  407.49
     47.9700	  622.00	  629.19	-1800.69	  407.30
     48.0700	  674.00	  640.16	-1759.66	  407.12
     48.1700	  657.00	  642.93	-1779.43	  406.93
     48.2700	  644.00	  636.91	-1786.41	  406.75
     48.3700	  608.00	  625.27	-1810.77	  406.57
     48.4700	  637.00	  612.23	-1768.73	  406.39
     48.5700	  620.00	  600.79	-1774.29	  406.21
     48.6700	  600.00	  592.40	-1785.90	  406.04
     48.7700	  570.00	  587.48	-1810.98	  405.87
     48.8700	  573.00	  585.91	-1806.41	  405.70
     48.9700	  566.00	  587.29	-1814.79	  405.53
     49.0700	  555.00	  591.32	-1829.82	  405.37
     49.1700	  589.00	  597.96	-1802.46	  405.20
     49.2700	  582.00	  607.73	-1819.23	  405.04
     49.3700	  657.00	  622.12	-1758.62	  404.88
     49.4700	  599.00	  644.30	-1838.80	  404.72
     49.5700	  623.00	  680.13	-1850.63	  404.57
     49.6700	  699.00	  739.16	-1833.66	  404.42
     49.7700	  742.00	  834.64	-1886.14	  404.26
     49.8700	  915.00	  981.34	-1859.84	  404.11
     49.9700	 1154.00	 1190.37	-1829.87	  403.97
     50.0700	 1447.00	 1461.07	-1807.57	  403.82
     50.1700	 1817.00	 1772.39	-1748.89	  403.68
     50.2700	 2142.00	 2072.92	-1724.42	  403.54
     50.3700	 2433.00	 2283.34	-1643.84	  403.40
     50.4700	 2412.00	 2323.85	-1705.35	  403.26
     50.5700	 2273.00	 2175.08	-1695.58	  403.13
     50.6700	 1934.00	 1899.83	-1759.33	  402.99
     50.7700	 1597.00	 1587.46	-1783.96	  402.86
     50.8700	 1178.00	 1302.37	-1917.87	  402.73
     50.9700	  947.00	 1076.16	-1922.66	  402.61
     51.0700	  872.00	  915.76	-1837.26	  402.48
     51.1700	  774.00	  812.45	-1831.95	  402.36
     51.2700	  741.00	  750.51	-1803.01	  402.24
     51.3700	  626.00	  713.57	-1881.07	  402.12
     51.4700	  649.00	  688.92	-1833.42	  402.00
     51.5700	  653.00	  669.36	-1809.86	  401.88
     51.6700	  681.00	  652.48	-1764.98	  401.77
     51.7700	  593.00	  638.20	-1838.70	  401.66
     51.8700	  563.00	  626.81	-1857.31	  401.55
     51.9700	  598.00	  618.25	-1813.75	  401.44
     52.0700	  656.00	  612.01	-1749.51	  401.34
     52.1700	  593.00	  607.29	-1807.79	  401.23
     52.2700	  635.00	  603.47	-1761.97	  401.13
     52.3700	  606.00	  600.54	-1788.04	  401.03
     52.4700	  601.00	  598.96	-1791.46	  400.93
     52.5700	  614.00	  599.38	-1778.88	  400.83
     52.6700	  667.00	  602.65	-1729.15	  400.74
     52.7700	  633.00	  610.01	-1770.51	  400.65
     52.8700	  649.00	  623.25	-1767.75	  400.56
     52.9700	  688.00	  644.96	-1750.46	  400.47
     53.0700	  680.00	  678.12	-1791.62	  400.38
     53.1700	  747.00	  725.89	-1772.39	  400.30
     53.2700	  851.00	  790.46	-1732.96	  400.21
     53.3700	  903.00	  871.70	-1762.20	  400.13
     53.4700	 1021.00	  965.48	-1737.98	  400.05
     53.5700	 1075.00	 1061.75	-1780.25	  399.97
     53.6700	 1269.00	 1143.03	-1667.53	  399.90
     53.7700	 1228.00	 1187.06	-1752.56	  399.82
     53.8700	 1167.00	 1178.03	-1804.53	  399.75
     53.9700	 1144.00	 1119.21	-1768.71	  399.68
     54.0700	 1063.00	 1030.46	-1760.96	  399.61
     54.1700	  937.00	  933.70	-1790.20	  399.54
     54.2700	  833.00	  843.93	-1804.43	  399.48
     54.3700	  770.00	  768.83	-1792.33	  399.41
     54.4700	  710.00	  710.86	-1794.36	  399.35
     54.5700	  709.00	  669.06	-1753.56	  399.29
     54.6700	  637.00	  640.70	-1797.20	  399.23
     54.7700	  651.00	  622.46	-1764.96	  399.17
     54.8700	  623.00	  611.31	-1781.81	  399.12
     54.9700	  650.00	  604.91	-1748.41	  399.07
     55.0700	  600.00	  601.65	-1795.15	  399.01
     55.1700	  629.00	  600.59	-1765.09	  398.96
     55.2700	  620.00	  601.19	-1774.69	  398.92
     55.3700	  631.00	  603.24	-1765.74	  398.87
     55.4700	  615.00	  606.69	-1785.19	  398.82
     55.5700	  621.00	  611.64	-1784.14	  398.78
     55.6700	  605.00	  618.38	-1806.88	  398.74
     55.7700	  625.00	  627.43	-1795.93	  398.70
     55.8700	  676.00	  639.79	-1757.29	  398.66
     55.9700	  658.00	  657.31	-1792.81	  398.62
     56.0700	  734.00	  683.08	-1742.58	  398.59
     56.1700	  702.00	  722.21	-1813.71	  398.55
     56.2700	  757.00	  782.19	-1818.69	  398.52
     56.3700	  861.00	  872.74	-1805.24	  398.49
     56.4700	  873.00	 1004.66	-1925.16	  398.46
     56.5700	 1142.00	 1187.06	-1838.56	  398.43
     56.6700	 1355.00	 1423.58	-1862.08	  398.41
     56.7700	 1682.00	 1707.48	-1818.98	  398.38
     56.8700	 1992.00	 2016.69	-1818.19	  398.36
     56.9700	 2403.00	 2308.96	-1699.46	  398.34
     57.0700	 2569.00	 2521.96	-1746.46	  398.32
     57.1700	 2622.00	 2592.06	-1763.56	  398.30
     57.2700	 2498.00	 2493.96	-1789.46	  398.28
     57.3700	 2241.00	 2262.48	-1814.98	  398.26
     57.4700	 1923.00	 1964.56	-1835.06	  398.25
     57.5700	 1585.00	 1660.25	-1868.75	  398.24
     57.6700	 1221.00	 1387.68	-1960.18	  398.23
     57.7700	 1122.00	 1165.73	-1837.23	  398.22
     57.8700	  978.00	  999.02	-1814.52	  398.21
     57.9700	  863.00	  883.17	-1813.67	  398.20
     58.0700	  764.00	  809.49	-1838.99	  398.19
     58.1700	  749.00	  768.76	-1813.26	  398.19
     58.2700	  754.00	  753.71	-1793.21	  398.19
     58.3700	  741.00	  759.77	-1812.27	  398.19
     58.4700	  780.00	  784.64	-1798.14	  398.18
     58.5700	  759.00	  827.13	-1861.63	  398.19
     58.6700	  861.00	  885.77	-1818.27	  398.19
     58.7700	  996.00	  957.20	-1754.70	  398.19
     58.8700	  969.00	 1034.99	-1859.49	  398.20
     58.9700	 1116.00	 1110.01	-1787.51	  398.20
     59.0700	 1209.00	 1173.93	-1758.43	  398.21
     59.1700	 1250.00	 1222.24	-1765.74	  398.22
     59.2700	 1265.00	 1252.28	-1780.78	  398.23
     59.3700	 1257.00	 1260.42	-1796.92	  398.24
     59.4700	 1249.00	 1246.17	-1790.67	  398.25
     59.5700	 1250.00	 1217.63	-1761.13	  398.27
     59.6700	 1241.00	 1188.40	-1740.90	  398.28
     59.7700	 1208.00	 1170.41	-1755.91	  398.30
     59.8700	 1167.00	 1170.90	-1797.40	  398.31
     59.9700	 1233.00	 1194.21	-1754.71	  398.33
     60.0700	 1254.00	 1243.14	-1782.64	  398.35
     60.1700	 1320.00	 1316.72	-1790.22	  398.37
     60.2700	 1428.00	 1406.55	-1772.05	  398.39
     60.3700	 1466.00	 1494.59	-1822.09	  398.42
     60.4700	 1543.00	 1554.37	-1804.87	  398.44
     60.5700	 1627.00	 1559.59	-1726.09	  398.47
     60.6700	 1545.00	 1499.71	-1748.21	  398.49
     60.7700	 1394.00	 1387.81	-1787.31	  398.52
     60.8700	 1288.00	 1249.80	-1755.30	  398.55
     60.9700	 1057.00	 1109.84	-1846.34	  398.58
     61.0700	 1010.00	  984.30	-1767.80	  398.61
     61.1700	  916.00	  882.12	-1759.62	  398.64
     61.2700	  862.00	  806.64	-1738.14	  398.67
     61.3700	  767.00	  757.56	-1784.06	  398.71
     61.4700	  754.00	  732.99	-1772.49	  398.74
     61.5700	  732.00	  731.13	-1792.63	  398.77
     61.6700	  778.00	  751.18	-1766.68	  398.81
     61.7700	  817.00	  793.42	-1769.92	  398.85
     61.8700	  885.00	  858.25	-1766.75	  398.89
     61.9700	  925.00	  944.78	-1813.28	  398.93
     62.0700	 1059.00	 1049.17	-1783.67	  398.97
     62.1700	 1175.00	 1163.05	-1781.55	  399.01
     62.2700	 1227.00	 1272.15	-1838.65	  399.05
     62.3700	 1366.00	 1356.22	-1783.72	  399.09
     62.4700	 1409.00	 1393.63	-1778.13	  399.14
     62.5700	 1335.00	 1372.19	-1830.69	  399.18
     62.6700	 1238.00	 1298.11	-1853.61	  399.23
     62.7700	 1151.00	 1191.21	-1833.71	  399.27
     62.8700	  981.00	 1073.05	-1885.55	  399.32
     62.9700	  916.00	  959.81	-1837.31	  399.37
     63.0700	  807.00	  861.28	-1847.78	  399.41
     63.1700	  767.00	  781.95	-1808.45	  399.46
     63.2700	  698.00	  722.29	-1817.79	  399.51
     63.3700	  682.00	  680.23	-1791.73	  399.56
     63.4700	  680.00	  652.48	-1765.98	  399.62
     63.5700	  655.00	  635.66	-1774.16	  399.67
     63.6700	  676.00	  627.08	-1744.58	  399.72
     63.7700	  654.00	  625.06	-1764.56	  399.78
     63.8700	  634.00	  628.98	-1788.48	  399.83
     63.9700	  687.00	  639.32	-1745.82	  399.88
     64.0700	  718.00	  657.18	-1732.68	  399.94
     64.1700	  692.00	  684.06	-1785.56	  400.00
     64.2700	  669.00	  721.45	-1845.95	  400.05
     64.3700	  744.00	  770.22	-1819.72	  400.11
     64.4700	  852.00	  829.56	-1771.06	  400.17
     64.5700	  919.00	  897.17	-1771.67	  400.23
     64.6700	  987.00	  967.95	-1774.45	  400.29
     64.7700	 1050.00	 1033.72	-1777.22	  400.35
     64.8700	 1111.00	 1084.16	-1766.66	  400.41
     64.9700	 1169.00	 1109.98	-1734.48	  400.47
     65.0700	 1080.00	 1106.84	-1820.34	  400.53
     65.1700	 1125.00	 1077.08	-1745.58	  400.59
     65.2700	 1035.00	 1027.50	-1786.00	  400.65
     65.3700	  977.00	  967.33	-1783.83	  400.72
     65.4700	  913.00	  906.17	-1786.67	  400.78
     65.5700	  830.00	  849.38	-1812.88	  400.85
     65.6700	  801.00	  799.68	-1792.18	  400.91
     65.7700	  776.00	  757.56	-1775.06	  400.97
     65.8700	  712.00	  722.52	-1804.02	  401.04
     65.9700	  678.00	  694.05	-1809.55	  401.11
     66.0700	  651.00	  671.39	-1813.89	  401.17
     66.1700	  602.00	  653.90	-1845.40	  401.24
     66.2700	  599.00	  641.00	-1835.50	  401.30
     66.3700	  613.00	  631.82	-1812.32	  401.37
     66.4700	  613.00	  625.92	-1806.42	  401.44
     66.5700	  621.00	  622.91	-1795.41	  401.51
     66.6700	  642.00	  622.54	-1774.04	  401.58
     66.7700	  620.00	  624.77	-1798.27	  401.64
     66.8700	  644.00	  629.81	-1779.31	  401.71
     66.9700	  633.00	  638.26	-1798.76	  401.78
     67.0700	  626.00	  651.32	-1818.82	  401.85
     67.1700	  665.00	  671.00	-1799.50	  401.92
     67.2700	  703.00	  700.39	-1790.89	  401.99
     67.3700	  716.00	  743.79	-1821.29	  402.06
     67.4700	  763.00	  806.61	-1837.11	  402.13
     67.5700	  855.00	  895.00	-1833.50	  402.20
     67.6700	 1005.00	 1014.61	-1803.11	  402.27
     67.7700	 1167.00	 1169.44	-1795.94	  402.34
     67.8700	 1418.00	 1359.94	-1735.44	  402.41
     67.9700	 1599.00	 1581.08	-1775.58	  402.48
     68.0700	 1800.00	 1820.84	-1814.34	  402.55
     68.1700	 2030.00	 2058.20	-1821.70	  402.62
     68.2700	 2308.00	 2262.74	-1748.24	  402.70
     68.3700	 2374.00	 2397.88	-1817.38	  402.77
     68.4700	 2453.00	 2432.40	-1772.90	  402.84
     68.5700	 2315.00	 2357.31	-1835.81	  402.91
     68.6700	 2229.00	 2191.58	-1756.08	  402.98
     68.7700	 2023.00	 1970.56	-1741.06	  403.05
     68.8700	 1658.00	 1729.39	-1864.89	  403.12
     68.9700	 1503.00	 1495.01	-1785.51	  403.20
     69.0700	 1242.00	 1284.72	-1836.22	  403.27
     69.1700	 1078.00	 1107.77	-1823.27	  403.34
     69.2700	  990.00	  966.88	-1770.38	  403.41
     69.3700	  811.00	  859.99	-1842.49	  403.48
     69.4700	  783.00	  782.28	-1792.78	  403.55
     69.5700	  693.00	  727.68	-1828.18	  403.62
     69.6700	  731.00	  690.26	-1752.76	  403.70
     69.7700	  660.00	  664.93	-1798.43	  403.77
     69.8700	  679.00	  647.79	-1762.29	  403.84
     69.9700	  682.00	  636.08	-1747.58	  403.91
     70.0700	  624.00	  627.97	-1797.47	  403.98
     70.1700	  635.00	  622.35	-1780.85	  404.05
     70.2700	  616.00	  618.56	-1796.06	  404.12
     70.3700	  615.00	  616.24	-1794.74	  404.19
     70.4700	  633.00	  615.23	-1775.73	  404.26
     70.5700	  595.00	  615.53	-1814.03	  404.33
     70.6700	  605.00	  617.27	-1805.77	  404.40
     70.7700	  653.00	  621.73	-1762.23	  404.47
     70.8700	  658.00	  627.61	-1763.11	  404.54
     70.9700	  637.00	  636.62	-1793.12	  404.61
     71.0700	  682.00	  650.64	-1762.14	  404.68
     71.1700	  708.00	  671.57	-1757.07	  404.74
     71.2700	  702.00	  702.17	-1793.67	  404.81
     71.3700	  704.00	  745.80	-1835.30	  404.88
     71.4700	  749.00	  806.08	-1850.58	  404.95
     71.5700	  872.00	  886.42	-1807.92	  405.01
     71.6700	  963.00	  989.21	-1819.71	  405.08
     71.7700	 1117.00	 1114.85	-1791.35	  405.15
     71.8700	 1308.00	 1260.87	-1746.37	  405.21
     71.9700	 1323.00	 1420.93	-1891.43	  405.28
     72.0700	 1552.00	 1584.13	-1825.63	  405.34
     72.1700	 1746.00	 1734.34	-1781.84	  405.41
     72.2700	 1853.00	 1850.80	-1791.30	  405.47
     72.3700	 1848.00	 1912.24	-1857.74	  405.54
     72.4700	 1883.00	 1905.16	-1815.66	  405.60
     72.5700	 1855.00	 1831.14	-1769.64	  405.66
     72.6700	 1678.00	 1705.88	-1821.38	  405.73
     72.7700	 1577.00	 1551.09	-1767.59	  405.79
     72.8700	 1359.00	 1386.77	-1821.27	  405.85
     72.9700	 1260.00	 1228.06	-1761.56	  405.91
     73.0700	 1036.00	 1084.83	-1842.33	  405.97
     73.1700	 1022.00	  962.50	-1734.00	  406.03
     73.2700	  896.00	  862.92	-1760.42	  406.09
     73.3700	  859.00	  785.19	-1719.69	  406.15
     73.4700	  764.00	  726.73	-1756.23	  406.21
     73.5700	  658.00	  684.07	-1819.57	  406.26
     73.6700	  695.00	  653.64	-1752.14	  406.32
     73.7700	  656.00	  632.25	-1769.75	  406.38
     73.8700	  647.00	  617.29	-1763.79	  406.43
     73.9700	  696.00	  606.82	-1704.32	  406.49
     74.0700	  618.00	  599.49	-1774.99	  406.54
     74.1700	  632.00	  594.42	-1755.92	  406.60
     74.2700	  613.00	  591.01	-1771.51	  406.65
     74.3700	  639.00	  588.89	-1743.39	  406.70
     74.4700	  616.00	  587.78	-1765.28	  406.75
     74.5700	  649.00	  586.86	-1731.36	  406.81
     74.6700	  676.00	  587.02	-1704.52	  406.86
     74.7700	  668.00	  587.38	-1712.88	  406.91
     74.8700	  651.00	  587.61	-1730.11	  406.95
     74.9700	  659.00	  587.39	-1721.89	  407.00
     75.0700	  702.00	  586.48	-1677.98	  407.05
     75.1700	  670.00	  584.88	-1708.38	  407.10
     75.2700	  655.00	  582.83	-1721.33	  407.14
     75.3700	  679.00	  580.71	-1695.21	  407.19
     75.4700	  616.00	  578.98	-1756.48	  407.23
     75.5700	  605.00	  578.09	-1766.59	  407.28
     75.6700	  639.00	  578.52	-1733.02	  407.32
     75.7700	  579.00	  580.76	-1795.26	  407.36
     75.8700	  617.00	  585.30	-1761.80	  407.40
     75.9700	  647.00	  592.61	-1739.11	  407.44
     76.0700	  650.00	  603.06	-1746.56	  407.48
     76.1700	  652.00	  617.01	-1758.51	  407.52
     76.2700	  689.00	  634.43	-1738.93	  407.56
     76.3700	  644.00	  654.99	-1804.49	  407.59
     76.4700	  743.00	  677.95	-1728.45	  407.63
     76.5700	  715.00	  702.03	-1780.53	  407.66
     76.6700	  695.00	  725.37	-1823.87	  407.70
     76.7700	  730.00	  745.39	-1808.89	  407.73
     76.8700	  746.00	  759.50	-1807.00	  407.76
     76.9700	  835.00	  765.10	-1723.60	  407.79
     77.0700	  710.00	  761.02	-1844.52	  407.82
     77.1700	  764.00	  747.99	-1777.49	  407.85
     77.2700	  684.00	  728.29	-1837.79	  407.88
     77.3700	  740.00	  704.70	-1758.20	  407.90
     77.4700	  679.00	  679.80	-1794.30	  407.93
     77.5700	  651.00	  655.54	-1798.04	  407.96
     77.6700	  622.00	  633.30	-1804.80	  407.98
     77.7700	  591.00	  613.89	-1816.39	  408.00
     77.8700	  615.00	  597.67	-1776.17	  408.02
     77.9700	  563.00	  584.64	-1815.14	  408.04
     78.0700	  571.00	  574.53	-1797.03	  408.06
     78.1700	  539.00	  566.92	-1821.42	  408.08
     78.2700	  585.00	  561.34	-1769.84	  408.10
     78.3700	  549.00	  557.34	-1801.84	  408.12
     78.4700	  614.00	  554.50	-1734.00	  408.13
     78.5700	  562.00	  552.28	-1783.78	  408.14
     78.6700	  568.00	  550.89	-1776.39	  408.16
     78.7700	  539.00	  549.87	-1804.37	  408.17
     78.8700	  576.00	  549.22	-1766.72	  408.18
     78.9700	  545.00	  548.83	-1797.33	  408.19
     79.0700	  520.00	  548.64	-1822.14	  408.20
     79.1700	  549.00	  548.64	-1793.14	  408.20
     79.2700	  561.00	  548.85	-1781.35	  408.21
     79.3700	  529.00	  549.27	-1813.77	  408.21
     79.4700	  544.00	  549.93	-1799.43	  408.22
     79.5700	  558.00	  550.87	-1786.37	  408.22
     79.6700	  546.00	  552.16	-1799.66	  408.22
     79.7700	  557.00	  553.86	-1790.36	  408.22
     79.8700	  585.00	  556.08	-1764.58	  408.22
     79.9700	  554.00	  558.98	-1798.48	  408.22
     80.0700	  606.00	  562.73	-1750.23	  408.21
     80.1700	  556.00	  567.57	-1805.07	  408.21
     80.2700	  593.00	  573.79	-1774.29	  408.20
     80.3700	  520.00	  581.73	-1855.23	  408.19
     80.4700	  554.00	  591.72	-1831.22	  408.18
     80.5700	  619.00	  604.13	-1778.63	  408.17
     80.6700	  615.00	  619.27	-1797.77	  408.16
     80.7700	  603.00	  637.38	-1827.88	  408.15
     80.8700	  653.00	  658.46	-1798.96	  408.13
     80.9700	  653.00	  682.23	-1822.73	  408.12
     81.0700	  692.00	  707.98	-1809.48	  408.10
     81.1700	  703.00	  734.38	-1824.88	  408.08
     81.2700	  768.00	  760.31	-1785.81	  408.06
     81.3700	  775.00	  783.90	-1802.40	  408.04
     81.4700	  783.00	  803.67	-1814.17	  408.02
     81.5700	  783.00	  818.57	-1829.07	  407.99
     81.6700	  884.00	  828.05	-1737.55	  407.97
     81.7700	  798.00	  831.94	-1827.44	  407.94
     81.8700	  774.00	  830.47	-1849.97	  407.91
     81.9700	  820.00	  824.14	-1797.64	  407.88
     82.0700	  778.00	  813.52	-1829.02	  407.85
     82.1700	  760.00	  799.19	-1832.69	  407.82
     82.2700	  785.00	  781.93	-1790.43	  407.79
     82.3700	  711.00	  762.70	-1845.20	  407.75
     82.4700	  716.00	  742.54	-1820.04	  407.71
     82.5700	  719.00	  722.25	-1796.75	  407.68
     82.6700	  653.00	  702.33	-1842.83	  407.64
     82.7700	  667.00	  683.02	-1809.52	  407.60
     82.8700	  604.00	  664.55	-1854.05	  407.55
     82.9700	  651.00	  647.23	-1789.73	  407.51
     83.0700	  600.00	  631.46	-1824.96	  407.46
     83.1700	  609.00	  617.61	-1802.11	  407.42
     83.2700	  614.00	  605.94	-1785.44	  407.37
     83.3700	  598.00	  596.62	-1792.12	  407.32
     83.4700	  607.00	  589.67	-1776.17	  407.27
     83.5700	  588.00	  585.04	-1790.54	  407.22
     83.6700	  593.00	  582.55	-1783.05	  407.16
     83.7700	  605.00	  581.97	-1770.47	  407.10
     83.8700	  568.00	  582.96	-1808.46	  407.05
     83.9700	  625.00	  585.10	-1753.60	  406.99
     84.0700	  605.00	  587.92	-1776.42	  406.93
     84.1700	  616.00	  590.84	-1768.34	  406.87
     84.2700	  603.00	  593.29	-1783.79	  406.80
     84.3700	  590.00	  594.70	-1798.20	  406.74
     84.4700	  608.00	  594.62	-1780.12	  406.67
     84.5700	  598.00	  592.90	-1788.40	  406.60
     84.6700	  556.00	  589.67	-1827.17	  406.53
     84.7700	  564.00	  585.13	-1814.63	  406.46
     84.8700	  596.00	  580.04	-1777.54	  406.39
     84.9700	  530.00	  574.68	-1838.18	  406.32
     85.0700	  585.00	  569.42	-1777.92	  406.24
     85.1700	  582.00	  564.55	-1776.05	  406.16
     85.2700	  556.00	  560.28	-1797.78	  406.08
     85.3700	  545.00	  556.71	-1805.21	  406.00
     85.4700	  597.00	  553.94	-1750.44	  405.92
     85.5700	  571.00	  551.96	-1774.46	  405.84
     85.6700	  544.00	  550.77	-1800.27	  405.75
     85.7700	  588.00	  550.32	-1755.82	  405.66
     85.8700	  542.00	  550.60	-1802.10	  405.58
     85.9700	  552.00	  551.55	-1793.05	  405.49
     86.0700	  539.00	  553.15	-1807.65	  405.39
     86.1700	  552.00	  555.41	-1796.91	  405.30
     86.2700	  518.00	  558.32	-1833.82	  405.21
     86.3700	  526.00	  561.90	-1829.40	  405.11
     86.4700	  547.00	  566.18	-1812.68	  405.01
     86.5700	  536.00	  571.18	-1828.68	  404.91
     86.6700	  547.00	  576.95	-1823.45	  404.81
     86.7700	  614.00	  583.51	-1763.01	  404.71
     86.8700	  594.00	  590.89	-1790.39	  404.60
     86.9700	  598.00	  599.14	-1794.64	  404.50
     87.0700	  614.00	  608.35	-1787.85	  404.39
     87.1700	  633.00	  618.55	-1779.05	  404.28
     87.2700	  663.00	  629.67	-1760.17	  404.17
     87.3700	  616.00	  641.50	-1819.00	  404.06
     87.4700	  655.00	  653.61	-1792.11	  403.94
     87.5700	  634.00	  665.37	-1824.87	  403.83
     87.6700	  618.00	  675.95	-1851.45	  403.71
     87.7700	  628.00	  684.35	-1849.85	  403.59
     87.8700	  661.00	  689.61	-1822.11	  403.47
     87.9700	  668.00	  691.00	-1816.50	  403.35
     88.0700	  663.00	  688.30	-1818.80	  403.23
     88.1700	  673.00	  681.86	-1802.36	  403.10
     88.2700	  618.00	  672.48	-1847.98	  402.97
     88.3700	  656.00	  661.14	-1798.64	  402.84
     88.4700	  655.00	  648.85	-1787.35	  402.71
     88.5700	  604.00	  636.51	-1826.01	  402.58
     88.6700	  641.00	  624.88	-1777.38	  402.45
     88.7700	  585.00	  614.54	-1823.04	  402.31
     88.8700	  643.00	  605.92	-1756.42	  402.18
     88.9700	  619.00	  599.24	-1773.74	  402.04
     89.0700	  601.00	  594.57	-1787.07	  401.90
     89.1700	  586.00	  591.83	-1799.33	  401.76
     89.2700	  584.00	  590.34	-1799.84	  401.61
     89.3700	  628.00	  590.68	-1756.18	  401.47
     89.4700	  570.00	  591.99	-1815.49	  401.32
     89.5700	  606.00	  593.77	-1781.27	  401.17
     89.6700	  672.00	  595.51	-1717.01	  401.03
     89.7700	  614.00	  596.68	-1776.18	  400.87
     89.8700	  591.00	  596.85	-1799.35	  400.72
     89.9700	  592.00	  595.76	-1797.26	  400.57
     90.0700	  595.00	  593.37	-1791.87	  400.41
     90.1700	  616.00	  589.85	-1767.35	  400.25
     90.2700	  635.00	  585.48	-1743.98	  400.09
     90.3700	  558.00	  580.63	-1816.13	  399.93
     90.4700	  590.00	  575.60	-1779.10	  399.77
     90.5700	  556.00	  570.67	-1808.17	  399.61
     90.6700	  546.00	  566.05	-1813.55	  399.44
     90.7700	  524.00	  561.91	-1831.41	  399.28
     90.8700	  604.00	  558.32	-1747.82	  399.11
     90.9700	  531.00	  555.36	-1817.86	  398.94
     91.0700	  579.00	  553.03	-1767.53	  398.77
     91.1700	  552.00	  551.31	-1792.81	  398.59
     91.2700	  563.00	  550.18	-1780.68	  398.42
     91.3700	  542.00	  549.59	-1801.09	  398.24
     91.4700	  509.00	  549.51	-1834.01	  398.06
     91.5700	  538.00	  549.95	-1805.45	  397.88
     91.6700	  561.00	  550.91	-1783.41	  397.70
     91.7700	  602.00	  552.45	-1743.95	  397.52
     91.8700	  533.00	  554.65	-1815.15	  397.34
     91.9700	  564.00	  557.62	-1787.12	  397.15
     92.0700	  548.00	  561.52	-1807.02	  396.96
     92.1700	  594.00	  566.53	-1766.03	  396.78
     92.2700	  562.00	  572.85	-1804.35	  396.59
     92.3700	  573.00	  580.67	-1801.17	  396.40
     92.4700	  567.00	  590.19	-1816.69	  396.20
     92.5700	  585.00	  601.55	-1810.05	  396.01
     92.6700	  556.00	  614.85	-1852.35	  395.81
     92.7700	  598.00	  630.10	-1825.60	  395.61
     92.8700	  584.00	  647.22	-1856.72	  395.42
     92.9700	  668.00	  666.02	-1791.52	  395.22
     93.0700	  620.00	  686.16	-1859.66	  395.01
     93.1700	  674.00	  707.17	-1826.67	  394.81
     93.2700	  677.00	  728.41	-1844.91	  394.61
     93.3700	  715.00	  749.16	-1827.66	  394.40
     93.4700	  702.00	  768.62	-1860.12	  394.19
     93.5700	  715.00	  786.16	-1864.66	  393.99
     93.6700	  720.00	  801.42	-1874.92	  393.78
     93.7700	  741.00	  814.47	-1866.97	  393.56
     93.8700	  800.00	  825.73	-1819.23	  393.35
     93.9700	  788.00	  835.76	-1841.26	  393.14
     94.0700	  832.00	  845.13	-1806.63	  392.92
     94.1700	  809.00	  854.20	-1838.70	  392.70
     94.2700	  853.00	  863.16	-1803.66	  392.49
     94.3700	  847.00	  872.08	-1818.58	  392.27
     94.4700	  912.00	  881.03	-1762.53	  392.05
     94.5700	  910.00	  890.12	-1773.62	  391.82
     94.6700	  911.00	  899.17	-1781.67	  391.60
     94.7700	  916.00	  908.91	-1786.41	  391.38
     94.8700	  916.00	  918.79	-1796.29	  391.15
     94.9700	 1021.00	  928.26	-1700.76	  390.92
     95.0700	  888.00	  936.37	-1841.87	  390.69
     95.1700	  963.00	  941.87	-1772.37	  390.46
     95.2700	  985.00	  943.42	-1751.92	  390.23
     95.3700	  929.00	  939.86	-1804.36	  390.00
     95.4700	  956.00	  930.58	-1768.08	  389.77
     95.5700	  970.00	  915.70	-1739.20	  389.53
     95.6700	  884.00	  896.08	-1805.58	  389.30
     95.7700	  863.00	  873.16	-1803.66	  389.06
     95.8700	  868.00	  848.60	-1774.10	  388.82
     95.9700	  807.00	  824.14	-1810.64	  388.58
     96.0700	  779.00	  801.44	-1815.94	  388.34
     96.1700	  777.00	  782.07	-1798.57	  388.10
     96.2700	  710.00	  767.38	-1850.88	  387.86
     96.3700	  718.00	  758.62	-1834.12	  387.61
     96.4700	  741.00	  756.83	-1809.33	  387.37
     96.5700	  729.00	  762.89	-1827.39	  387.12
     96.6700	  802.00	  777.51	-1769.01	  386.87
     96.7700	  808.00	  801.16	-1786.66	  386.63
     96.8700	  858.00	  834.10	-1769.60	  386.38
     96.9700	  903.00	  876.30	-1766.80	  386.13
     97.0700	  869.00	  927.40	-1851.90	  385.87
     97.1700	 1008.00	  986.67	-1772.17	  385.62
     97.2700	 1049.00	 1052.92	-1797.42	  385.37
     97.3700	 1116.00	 1124.47	-1801.97	  385.11
     97.4700	 1127.00	 1199.07	-1865.57	  384.86
     97.5700	 1271.00	 1273.90	-1796.40	  384.60
     97.6700	 1334.00	 1345.58	-1805.08	  384.35
     97.7700	 1386.00	 1410.24	-1817.74	  384.09
     97.8700	 1433.00	 1463.75	-1824.25	  383.83
     97.9700	 1546.00	 1502.22	-1749.72	  383.57
     98.0700	 1511.00	 1522.64	-1805.14	  383.31
     98.1700	 1429.00	 1523.55	-1888.05	  383.05
     98.2700	 1476.00	 1505.38	-1822.88	  382.78
     98.3700	 1479.00	 1470.29	-1784.79	  382.52
     98.4700	 1410.00	 1421.64	-1805.14	  382.26
     98.5700	 1356.00	 1363.34	-1800.84	  381.99
     98.6700	 1401.00	 1299.36	-1691.86	  381.73
     98.7700	 1205.00	 1233.39	-1821.89	  381.46
     98.8700	 1218.00	 1168.72	-1744.22	  381.19
     98.9700	 1080.00	 1108.18	-1821.68	  380.93
     99.0700	 1020.00	 1054.15	-1827.65	  380.66
     99.1700	 1003.00	 1008.56	-1799.06	  380.39
     99.2700	  947.00	  972.99	-1819.49	  380.12
     99.3700	  960.00	  948.65	-1782.15	  379.85
     99.4700	  907.00	  936.46	-1822.96	  379.58
     99.5700	 1002.00	  937.01	-1728.51	  379.31
     99.6700	  945.00	  950.65	-1799.15	  379.03
     99.7700	  964.00	  977.40	-1806.90	  378.76
     99.8700	  974.00	 1017.02	-1836.52	  378.49
     99.9700	 1096.00	 1068.98	-1766.48	  378.21
    100.0700	 1156.00	 1132.44	-1769.94	  377.94
    100.1700	 1215.00	 1206.19	-1784.69	  377.66
    100.2700	 1275.00	 1288.59	-1807.09	  377.39
    100.3700	 1471.00	 1377.56	-1700.06	  377.11
    100.4700	 1470.00	 1470.49	-1793.99	  376.84
    100.5700	 1578.00	 1564.32	-1779.82	  376.56
    100.6700	 1736.00	 1655.67	-1713.17	  376.28
    100.7700	 1750.00	 1740.98	-1784.48	  376.01
    100.8700	 1902.00	 1817.03	-1708.53	  375.73
    100.9700	 1960.00	 1881.18	-1714.68	  375.45
    101.0700	 1934.00	 1931.60	-1791.10	  375.17
    101.1700	 1974.00	 1967.30	-1786.80	  374.89
    101.2700	 1979.00	 1987.57	-1802.07	  374.61
    101.3700	 1989.00	 1991.96	-1796.46	  374.34
    101.4700	 2001.00	 1980.24	-1772.74	  374.06
    101.5700	 2005.00	 1952.60	-1741.10	  373.78
    101.6700	 1999.00	 1910.08	-1704.58	  373.50
    101.7700	 1904.00	 1854.74	-1744.24	  373.22
    101.8700	 1744.00	 1789.69	-1839.19	  372.94
    101.9700	 1715.00	 1718.60	-1797.10	  372.66
    102.0700	 1662.00	 1645.24	-1776.74	  372.38
    102.1700	 1584.00	 1573.02	-1782.52	  372.10
    102.2700	 1507.00	 1504.74	-1791.24	  371.82
    102.3700	 1441.00	 1442.41	-1794.91	  371.54
    102.4700	 1392.00	 1387.24	-1788.74	  371.26
    102.5700	 1363.00	 1339.69	-1770.19	  370.98
    102.6700	 1185.00	 1299.49	-1907.99	  370.70
    102.7700	 1227.00	 1265.81	-1832.31	  370.42
    102.8700	 1241.00	 1237.26	-1789.76	  370.14
    102.9700	 1186.00	 1212.07	-1819.57	  369.86
    103.0700	 1169.00	 1188.24	-1812.74	  369.58
    103.1700	 1158.00	 1163.84	-1799.34	  369.30
    103.2700	 1108.00	 1137.27	-1822.77	  369.02
    103.3700	 1033.00	 1107.52	-1868.02	  368.74
    103.4700	 1077.00	 1074.24	-1790.74	  368.47
    103.5700	 1050.00	 1037.70	-1781.20	  368.19
    103.6700	 1065.00	  998.62	-1727.12	  367.91
    103.7700	  962.00	  957.96	-1789.46	  367.63
    103.8700	  967.00	  916.71	-1743.21	  367.36
    103.9700	  914.00	  875.84	-1755.34	  367.08
    104.0700	  867.00	  836.19	-1762.69	  366.80
    104.1700	  796.00	  798.49	-1795.99	  366.53
    104.2700	  788.00	  763.28	-1768.78	  366.25
    104.3700	  759.00	  730.98	-1765.48	  365.98
    104.4700	  725.00	  701.85	-1770.35	  365.70
    104.5700	  708.00	  676.02	-1761.52	  365.43
    104.6700	  711.00	  653.50	-1736.00	  365.16
    104.7700	  677.00	  634.17	-1750.67	  364.89
    104.8700	  635.00	  617.85	-1776.35	  364.62
    104.9700	  651.00	  604.28	-1746.78	  364.34
    105.0700	  626.00	  593.20	-1760.70	  364.08
    105.1700	  649.00	  584.33	-1728.83	  363.81
    105.2700	  602.00	  577.37	-1768.87	  363.54
    105.3700	  615.00	  572.08	-1750.58	  363.27
    105.4700	  608.00	  568.24	-1753.74	  363.00
    105.5700	  597.00	  565.66	-1762.16	  362.74
    105.6700	  584.00	  564.20	-1773.70	  362.47
    105.7700	  546.00	  563.77	-1811.27	  362.21
    105.8700	  591.00	  564.30	-1766.80	  361.95
    105.9700	  622.00	  565.76	-1737.26	  361.69
    106.0700	  565.00	  568.14	-1796.64	  361.43
    106.1700	  542.00	  571.48	-1822.98	  361.17
    106.2700	  614.00	  575.82	-1755.31	  360.91
    106.3700	  621.00	  581.18	-1753.68	  360.65
    106.4700	  620.00	  587.61	-1761.11	  360.40
    106.5700	  603.00	  595.15	-1785.65	  360.14
    106.6700	  603.00	  603.79	-1794.29	  359.89
    106.7700	  649.00	  613.48	-1757.98	  359.64
    106.8700	  586.00	  624.19	-1831.69	  359.39
    106.9700	  654.00	  635.77	-1775.27	  359.14
    107.0700	  620.00	  648.04	-1821.54	  358.89
    107.1700	  680.00	  660.77	-1774.27	  358.64
    107.2700	  670.00	  673.65	-1797.15	  358.40
    107.3700	  687.00	  686.35	-1792.85	  358.15
    107.4700	  705.00	  698.47	-1786.97	  357.91
    107.5700	  760.00	  709.59	-1743.09	  357.67
    107.6700	  703.00	  719.31	-1809.81	  357.43
    107.7700	  697.00	  727.25	-1823.75	  357.20
    107.8700	  684.00	  733.17	-1842.67	  356.96
    107.9700	  720.00	  736.98	-1810.48	  356.73
    108.0700	  721.00	  738.77	-1811.27	  356.50
    108.1700	  709.00	  738.82	-1823.32	  356.27
    108.2700	  736.00	  737.52	-1795.02	  356.04
    108.3700	  789.00	  735.30	-1739.80	  355.81
    108.4700	  742.00	  732.71	-1784.21	  355.59
    108.5700	  684.00	  730.10	-1839.60	  355.37
    108.6700	  724.00	  727.82	-1797.32	  355.15
    108.7700	  710.00	  726.11	-1809.61	  354.93
    108.8700	  765.00	  725.09	-1753.59	  354.71
    108.9700	  719.00	  724.80	-1799.30	  354.50
    109.0700	  691.00	  725.14	-1827.64	  354.29
    109.1700	  646.00	  725.92	-1873.42	  354.08
    109.2700	  684.00	  726.86	-1836.36	  353.87
    109.3700	  724.00	  727.60	-1797.10	  353.66
    109.4700	  685.00	  727.74	-1836.24	  353.46
    109.5700	  712.00	  726.87	-1808.37	  353.26
    109.6700	  702.00	  724.65	-1816.15	  353.06
    109.7700	  747.00	  720.83	-1767.33	  352.87
    109.8700	  716.00	  715.33	-1792.83	  352.68
    109.9700	  710.00	  708.19	-1791.69	  352.49
    110.0700	  666.00	  699.59	-1827.09	  352.30
    110.1700	  723.00	  689.83	-1760.33	  352.11
    110.2700	  686.00	  679.21	-1786.71	  351.93
    110.3700	  648.00	  668.07	-1813.57	  351.75
    110.4700	  644.00	  656.75	-1806.25	  351.57
    110.5700	  636.00	  645.52	-1803.02	  351.40
    110.6700	  673.00	  634.65	-1755.15	  351.23
    110.7700	  598.00	  624.34	-1819.84	  351.06
    110.8700	  624.00	  614.76	-1784.26	  350.90
    110.9700	  643.00	  606.07	-1756.57	  350.73
    111.0700	  619.00	  598.35	-1772.85	  350.57
    111.1700	  603.00	  591.64	-1782.15	  350.42
    111.2700	  621.00	  585.99	-1758.49	  350.27
    111.3700	  610.00	  581.36	-1764.86	  350.12
    111.4700	  621.00	  577.74	-1750.24	  349.97
    111.5700	  582.00	  575.06	-1786.56	  349.83
    111.6700	  599.00	  573.26	-1767.76	  349.69
    111.7700	  609.00	  572.25	-1756.75	  349.55
    111.8700	  612.00	  571.95	-1753.45	  349.42
    111.9700	  582.00	  572.27	-1783.77	  349.29
    112.0700	  548.00	  573.11	-1818.61	  349.16
    112.1700	  589.00	  574.40	-1778.90	  349.04
    112.2700	  567.00	  576.05	-1802.55	  348.92
    112.3700	  599.00	  578.00	-1772.50	  348.80
    112.4700	  589.00	  580.19	-1784.69	  348.69
    112.5700	  530.00	  582.58	-1846.08	  348.58
    112.6700	  567.00	  585.15	-1811.65	  348.48
    112.7700	  589.00	  587.88	-1792.38	  348.38
    112.8700	  574.00	  590.79	-1810.29	  348.28
    112.9700	  554.00	  593.91	-1833.41	  348.19
    113.0700	  570.00	  597.30	-1820.80	  348.10
    113.1700	  575.00	  601.00	-1819.50	  348.02
    113.2700	  587.00	  605.10	-1811.60	  347.94
    113.3700	  602.00	  609.69	-1801.19	  347.86
    113.4700	  611.00	  614.89	-1797.39	  347.79
    113.5700	  600.00	  620.83	-1814.33	  347.72
    113.6700	  604.00	  627.69	-1817.19	  347.66
    113.7700	  616.00	  635.70	-1813.20	  347.60
    113.8700	  620.00	  645.13	-1818.63	  347.55
    113.9700	  684.00	  656.32	-1765.82	  347.50
    114.0700	  669.00	  669.73	-1794.23	  347.45
    114.1700	  704.00	  685.88	-1775.38	  347.41
    114.2700	  682.00	  705.45	-1816.95	  347.38
    114.3700	  760.00	  729.25	-1762.75	  347.35
    114.4700	  794.00	  758.24	-1757.74	  347.32
    114.5700	  790.00	  793.61	-1797.11	  347.30
    114.6700	  834.00	  836.69	-1796.19	  347.28
    114.7700	  832.00	  889.02	-1850.52	  347.27
    114.8700	  981.00	  952.37	-1764.87	  347.26
    114.9700	  950.00	 1028.62	-1872.12	  347.26
    115.0700	 1170.00	 1119.87	-1743.37	  347.26
    115.1700	 1213.00	 1228.26	-1808.76	  347.27
    115.2700	 1336.00	 1355.96	-1813.46	  347.29
    115.3700	 1545.00	 1505.13	-1753.63	  347.30
    115.4700	 1737.00	 1677.71	-1734.21	  347.33
    115.5700	 2013.00	 1875.42	-1655.92	  347.36
    115.6700	 2229.00	 2099.53	-1664.03	  347.39
    115.7700	 2451.00	 2350.72	-1693.22	  347.43
    115.8700	 2694.00	 2629.13	-1728.63	  347.48
    115.9700	 3067.00	 2933.88	-1660.38	  347.53
    116.0700	 3282.00	 3263.40	-1774.90	  347.59
    116.1700	 3605.00	 3614.91	-1803.41	  347.65
    116.2700	 4026.00	 3984.55	-1752.05	  347.72
    116.3700	 4362.00	 4367.52	-1799.02	  347.80
    116.4700	 4779.00	 4757.63	-1772.13	  347.88
    116.5700	 5121.00	 5147.83	-1820.33	  347.96
    116.6700	 5415.00	 5529.81	-1908.31	  348.06
    116.7700	 5792.00	 5894.33	-1895.83	  348.16
    116.8700	 6114.00	 6231.63	-1911.13	  348.26
    116.9700	 6613.00	 6531.25	-1711.75	  348.37
    117.0700	 6673.00	 6783.02	-1903.52	  348.49
    117.1700	 6927.00	 6977.39	-1843.89	  348.61
    117.2700	 7055.00	 7106.45	-1844.95	  348.74
    117.3700	 7174.00	 7164.78	-1784.28	  348.88
    117.4700	 7074.00	 7150.03	-1869.53	  349.02
    117.5700	 7135.00	 7063.29	-1721.79	  349.17
    117.6700	 6975.00	 6908.91	-1727.41	  349.33
    117.7700	 6598.00	 6693.99	-1889.49	  349.50
    117.8700	 6417.00	 6427.40	-1803.90	  349.67
    117.9700	 5956.00	 6119.19	-1956.69	  349.84
    118.0700	 5685.00	 5779.52	-1888.02	  350.03
    118.1700	 5208.00	 5418.36	-2003.86	  350.22
    118.2700	 5029.00	 5045.08	-1809.58	  350.42
    118.3700	 4801.00	 4667.95	-1660.45	  350.62
    118.4700	 4387.00	 4294.43	-1700.93	  350.84
    118.5700	 4055.00	 3930.64	-1669.14	  351.06
    118.6700	 3683.00	 3581.74	-1692.24	  351.28
    118.7700	 3278.00	 3251.76	-1767.26	  351.52
    118.8700	 3059.00	 2943.51	-1678.01	  351.76
    118.9700	 2768.00	 2659.00	-1684.50	  352.01
    119.0700	 2419.00	 2399.16	-1773.66	  352.27
    119.1700	 2146.00	 2164.32	-1811.82	  352.53
    119.2700	 1979.00	 1954.11	-1768.61	  352.81
    119.3700	 1831.00	 1767.54	-1730.04	  353.09
    119.4700	 1580.00	 1603.36	-1816.86	  353.37
    119.5700	 1477.00	 1459.93	-1776.43	  353.67
    119.6700	 1346.00	 1335.46	-1782.96	  353.98
    119.7700	 1231.00	 1228.11	-1790.61	  354.29
    119.8700	 1097.00	 1135.93	-1832.43	  354.61
    119.9700	 1130.00	 1057.11	-1720.61	  354.94
    120.0700	 1042.00	  989.88	-1741.38	  355.28
    120.1700	  929.00	  932.65	-1797.15	  355.62
    120.2700	  874.00	  883.98	-1803.48	  355.98
    120.3700	  878.00	  842.58	-1758.08	  356.34
    120.4700	  824.00	  807.35	-1776.85	  356.71
    120.5700	  763.00	  777.33	-1807.83	  357.09
    120.6700	  767.00	  751.73	-1778.23	  357.48
    120.7700	  744.00	  729.89	-1779.39	  357.88
    120.8700	  703.00	  711.24	-1801.74	  358.29
    120.9700	  706.00	  695.33	-1782.83	  358.70
    121.0700	  617.00	  681.79	-1858.29	  359.13
    121.1700	  626.00	  670.30	-1837.80	  359.56
    121.2700	  632.00	  660.64	-1822.14	  360.01
    121.3700	  627.00	  652.58	-1819.08	  360.46
    121.4700	  618.00	  645.95	-1821.45	  360.92
    121.5700	  627.00	  640.63	-1807.13	  361.39
    121.6700	  563.00	  636.48	-1866.98	  361.87
    121.7700	  651.00	  633.41	-1775.91	  362.36
    121.8700	  642.00	  631.33	-1782.83	  362.87
    121.9700	  629.00	  630.15	-1794.65	  363.38
    122.0700	  655.00	  629.80	-1768.30	  363.90
    122.1700	  612.00	  630.21	-1811.71	  364.43
    122.2700	  650.00	  631.31	-1774.81	  364.97
    122.3700	  607.00	  633.03	-1819.53	  365.52
    122.4700	  646.00	  635.30	-1782.80	  366.08
    122.5700	  608.00	  638.03	-1823.53	  366.65
    122.6700	  659.00	  641.14	-1775.64	  367.23
    122.7700	  618.00	  644.56	-1820.06	  367.82
    122.8700	  646.00	  648.19	-1795.69	  368.42
    122.9700	  661.00	  651.93	-1784.43	  369.03
    123.0700	  669.00	  655.68	-1780.18	  369.66
    123.1700	  660.00	  659.33	-1792.83	  370.29
    123.2700	  691.00	  662.79	-1765.29	  370.94
    123.3700	  656.00	  665.94	-1803.44	  371.59
    123.4700	  661.00	  668.69	-1801.19	  372.26
    123.5700	  698.00	  670.97	-1766.47	  372.94
    123.6700	  707.00	  672.71	-1759.21	  373.62
    123.7700	  719.00	  673.87	-1748.37	  374.32
    123.8700	  667.00	  674.44	-1800.94	  375.04
    123.9700	  686.00	  674.44	-1781.94	  375.76
    124.0700	  699.00	  673.90	-1768.40	  376.49
    124.1700	  719.00	  672.87	-1747.37	  377.24
    124.2700	  642.00	  671.42	-1822.92	  378.00
    124.3700	  655.00	  669.61	-1808.11	  378.77
    124.4700	  653.00	  667.51	-1808.01	  379.55
    124.5700	  633.00	  665.20	-1825.70	  380.34
    124.6700	  650.00	  662.73	-1806.23	  381.15
    124.7700	  624.00	  660.13	-1829.63	  381.96
    124.8700	  665.00	  657.51	-1786.01	  382.79
    124.9700	  621.00	  499.39	-1671.89	  383.64
    125.0700	  624.00	  500.24	-1793.50	  384.49
    125.1700	  650.00	  501.11	-1793.50	  385.36
    125.2700	  668.00	  501.99	-1793.50	  386.24
    125.3700	  648.00	  502.88	-1793.50	  387.13
    125.4700	  684.00	  503.79	-1793.50	  388.03
    125.5700	  653.00	  504.70	-1793.50	  388.95
    125.6700	  608.00	  505.64	-1793.50	  389.88
    125.7700	  639.00	  506.58	-1793.50	  390.83
    125.8700	  602.00	  507.54	-1793.50	  391.78
    125.9700	  629.00	  508.51	-1793.50	  392.75
    126.0700	  525.00	  509.49	-1793.50	  393.74
    126.1700	  629.00	  510.49	-1793.50	  394.73
    126.2700	  566.00	  511.50	-1793.50	  395.74
    126.3700	  548.00	  512.52	-1793.50	  396.77
    126.4700	  598.00	  513.56	-1793.50	  397.80
    126.5700	  626.00	  514.61	-1793.50	  398.85
    126.6700	  573.00	  515.67	-1793.50	  399.92
    126.7700	  582.00	  516.75	-1793.50	  401.00
    126.8700	  559.00	  517.85	-1793.50	  402.09
    126.9700	  614.00	  518.95	-1793.50	  403.20
    127.0700	  606.00	  520.07	-1793.50	  404.32
    127.1700	  621.00	  521.21	-1793.50	  405.46
    127.2700	  569.00	  522.36	-1793.50	  406.61
    127.3700	  574.00	  523.53	-1793.50	  407.77
    127.4700	  578.00	  524.70	-1793.50	  408.95
    127.5700	  626.00	  525.90	-1793.50	  410.15
    127.6700	  613.00	  527.11	-1793.50	  411.35
    127.7700	  551.00	  528.33	-1793.50	  412.58
    127.8700	  606.00	  529.57	-1793.50	  413.82
    127.9700	  600.00	  530.83	-1793.50	  415.07
    128.0700	  633.00	  532.10	-1793.50	  416.34
    128.1700	  645.00	  533.38	-1793.50	  417.63
    128.2700	  663.00	  534.68	-1793.50	  418.93
    128.3700	  676.00	  536.00	-1793.50	  420.24
    128.4700	  667.00	  537.33	-1793.50	  421.57
    128.5700	    0.00	  538.67	-1793.50	  422.92
    128.6700	    0.00	  540.04	-1793.50	  424.28
     12.3718	        	        	        	        	       0	(  0  0  2)	  0  1
     12.3718	        	        	        	        	    -448	(  0  0  2)	  0  1
     25.0135	        	        	        	        	       0	(  0  0  4)	  0  1
     25.0135	        	        	        	        	    -448	(  0  0  4)	  0  1
     28.4531	        	        	        	        	       0	(  1  0  0)	  0  1
     28.4531	        	        	        	        	    -448	(  1  0  0)	  0  1
     29.1541	        	        	        	        	       0	(  1  0  1)	  0  1
     29.1541	        	        	        	        	    -448	(  1  0  1)	  0  1
     31.1711	        	        	        	        	       0	(  1  0  2)	  0  1
     31.1711	        	        	        	        	    -448	(  1  0  2)	  0  1
     34.2961	        	        	        	        	       0	(  1  0  3)	  0  1
     34.2961	        	        	        	        	    -448	(  1  0  3)	  0  1
     37.9758	        	        	        	        	       0	(  0  0  6)	  0  1
     37.9758	        	        	        	        	    -448	(  0  0  6)	  0  1
     38.2945	        	        	        	        	       0	(  1  0  4)	  0  1
     38.2945	        	        	        	        	    -448	(  1  0  4)	  0  1
     42.9698	        	        	        	        	       0	(  1  0  5)	  0  1
     42.9698	        	        	        	        	    -448	(  1  0  5)	  0  1
     48.1825	        	        	        	        	       0	(  1  0  6)	  0  1
     48.1825	        	        	        	        	    -448	(  1  0  6)	  0  1
     50.4866	        	        	        	        	       0	(  1  1  0)	  0  1
     50.4866	        	        	        	        	    -448	(  1  1  0)	  0  1
     51.4683	        	        	        	        	       0	(  0  0  8)	  0  1
     51.4683	        	        	        	        	    -448	(  0  0  8)	  0  1
     52.2200	        	        	        	        	       0	(  1  1  2)	  0  1
     52.2200	        	        	        	        	    -448	(  1  1  2)	  0  1
     53.8450	        	        	        	        	       0	(  1  0  7)	  0  1
     53.8450	        	        	        	        	    -448	(  1  0  7)	  0  1
     57.1983	        	        	        	        	       0	(  1  1  4)	  0  1
     57.1983	        	        	        	        	    -448	(  1  1  4)	  0  1
     59.0255	        	        	        	        	       0	(  2  0  0)	  0  1
     59.0255	        	        	        	        	    -448	(  2  0  0)	  0  1
     59.4196	        	        	        	        	       0	(  2  0  1)	  0  1
     59.4196	        	        	        	        	    -448	(  2  0  1)	  0  1
     59.9113	        	        	        	        	       0	(  1  0  8)	  0  1
     59.9113	        	        	        	        	    -448	(  1  0  8)	  0  1
     60.5925	        	        	        	        	       0	(  2  0  2)	  0  1
     60.5925	        	        	        	        	    -448	(  2  0  2)	  0  1
     62.5181	        	        	        	        	       0	(  2  0  3)	  0  1
     62.5181	        	        	        	        	    -448	(  2  0  3)	  0  1
     64.9421	        	        	        	        	       0	(  1  1  6)	  0  1
     64.9421	        	        	        	        	    -448	(  1  1  6)	  0  1
     65.1595	        	        	        	        	       0	(  2  0  4)	  0  1
     65.1595	        	        	        	        	    -448	(  2  0  4)	  0  1
     65.7817	        	        	        	        	       0	(  0  0 10)	  0  1
     65.7817	        	        	        	        	    -448	(  0  0 10)	  0  1
     66.3680	        	        	        	        	       0	(  1  0  9)	  0  1
     66.3680	        	        	        	        	    -448	(  1  0  9)	  0  1
     68.4761	        	        	        	        	       0	(  2  0  5)	  0  1
     68.4761	        	        	        	        	    -448	(  2  0  5)	  0  1
     72.4311	        	        	        	        	       0	(  2  0  6)	  0  1
     72.4311	        	        	        	        	    -448	(  2  0  6)	  0  1
     73.2301	        	        	        	        	       0	(  1  0 10)	  0  1
     73.2301	        	        	        	        	    -448	(  1  0 10)	  0  1
     75.0491	        	        	        	        	       0	(  1  1  8)	  0  1
     75.0491	        	        	        	        	    -448	(  1  1  8)	  0  1
     76.9983	        	        	        	        	       0	(  2  0  7)	  0  1
     76.9983	        	        	        	        	    -448	(  2  0  7)	  0  1
     80.5413	        	        	        	        	       0	(  1  0 11)	  0  1
     80.5413	        	        	        	        	    -448	(  1  0 11)	  0  1
     81.3709	        	        	        	        	       0	(  0  0 12)	  0  1
     81.3709	        	        	        	        	    -448	(  0  0 12)	  0  1
     81.3968	        	        	        	        	       0	(  2  1  0)	  0  1
     81.3968	        	        	        	        	    -448	(  2  1  0)	  0  1
     81.7394	        	        	        	        	       0	(  2  1  1)	  0  1
     81.7394	        	        	        	        	    -448	(  2  1  1)	  0  1
     82.1684	        	        	        	        	       0	(  2  0  8)	  0  1
     82.1684	        	        	        	        	    -448	(  2  0  8)	  0  1
     82.7655	        	        	        	        	       0	(  2  1  2)	  0  1
     82.7655	        	        	        	        	    -448	(  2  1  2)	  0  1
     84.4707	        	        	        	        	       0	(  2  1  3)	  0  1
     84.4707	        	        	        	        	    -448	(  2  1  3)	  0  1
     86.8504	        	        	        	        	       0	(  2  1  4)	  0  1
     86.8504	        	        	        	        	    -448	(  2  1  4)	  0  1
     87.4176	        	        	        	        	       0	(  1  1 10)	  0  1
     87.4176	        	        	        	        	    -448	(  1  1 10)	  0  1
     87.9544	        	        	        	        	       0	(  2  0  9)	  0  1
     87.9544	        	        	        	        	    -448	(  2  0  9)	  0  1
     88.3795	        	        	        	        	       0	(  1  0 12)	  0  1
     88.3795	        	        	        	        	    -448	(  1  0 12)	  0  1
     89.9028	        	        	        	        	       0	(  2  1  5)	  0  1
     89.9028	        	        	        	        	    -448	(  2  1  5)	  0  1
     93.6345	        	        	        	        	       0	(  2  1  6)	  0  1
     93.6345	        	        	        	        	    -448	(  2  1  6)	  0  1
     94.4004	        	        	        	        	       0	(  2  0 10)	  0  1
     94.4004	        	        	        	        	    -448	(  2  0 10)	  0  1
     95.3911	        	        	        	        	       0	(  3  0  0)	  0  1
     95.3911	        	        	        	        	    -448	(  3  0  0)	  0  1
     95.7318	        	        	        	        	       0	(  3  0  1)	  0  1
     95.7318	        	        	        	        	    -448	(  3  0  1)	  0  1
     96.7551	        	        	        	        	       0	(  3  0  2)	  0  1
     96.7551	        	        	        	        	    -448	(  3  0  2)	  0  1
     96.8720	        	        	        	        	       0	(  1  0 13)	  0  1
     96.8720	        	        	        	        	    -448	(  1  0 13)	  0  1
     98.0667	        	        	        	        	       0	(  2  1  7)	  0  1
     98.0667	        	        	        	        	    -448	(  2  1  7)	  0  1
     98.4657	        	        	        	        	       0	(  3  0  3)	  0  1
     98.4657	        	        	        	        	    -448	(  3  0  3)	  0  1
     99.0697	        	        	        	        	       0	(  0  0 14)	  0  1
     99.0697	        	        	        	        	    -448	(  0  0 14)	  0  1
    100.8739	        	        	        	        	       0	(  3  0  4)	  0  1
    100.8739	        	        	        	        	    -448	(  3  0  4)	  0  1
    101.5963	        	        	        	        	       0	(  2  0 11)	  0  1
    101.5963	        	        	        	        	    -448	(  2  0 11)	  0  1
    102.4346	        	        	        	        	       0	(  1  1 12)	  0  1
    102.4346	        	        	        	        	    -448	(  1  1 12)	  0  1
    103.2447	        	        	        	        	       0	(  2  1  8)	  0  1
    103.2447	        	        	        	        	    -448	(  2  1  8)	  0  1
    104.0001	        	        	        	        	       0	(  3  0  5)	  0  1
    104.0001	        	        	        	        	    -448	(  3  0  5)	  0  1
    106.2286	        	        	        	        	       0	(  1  0 14)	  0  1
    106.2286	        	        	        	        	    -448	(  1  0 14)	  0  1
    107.8813	        	        	        	        	       0	(  3  0  6)	  0  1
    107.8813	        	        	        	        	    -448	(  3  0  6)	  0  1
    109.2540	        	        	        	        	       0	(  2  1  9)	  0  1
    109.2540	        	        	        	        	    -448	(  2  1  9)	  0  1
    109.7050	        	        	        	        	       0	(  2  0 12)	  0  1
    109.7050	        	        	        	        	    -448	(  2  0 12)	  0  1
    112.5830	        	        	        	        	       0	(  3  0  7)	  0  1
    112.5830	        	        	        	        	    -448	(  3  0  7)	  0  1
    116.2489	        	        	        	        	       0	(  2  1 10)	  0  1
    116.2489	        	        	        	        	    -448	(  2  1 10)	  0  1
    116.8204	        	        	        	        	       0	(  1  0 15)	  0  1
    116.8204	        	        	        	        	    -448	(  1  0 15)	  0  1
    117.3556	        	        	        	        	       0	(  2  2  0)	  0  1
    117.3556	        	        	        	        	    -448	(  2  2  0)	  0  1
    118.2201	        	        	        	        	       0	(  3  0  8)	  0  1
    118.2201	        	        	        	        	    -448	(  3  0  8)	  0  1
    118.8950	        	        	        	        	       0	(  2  2  2)	  0  1
    118.8950	        	        	        	        	    -448	(  2  2  2)	  0  1
    119.0278	        	        	        	        	       0	(  2  0 13)	  0  1
    119.0278	        	        	        	        	    -448	(  2  0 13)	  0  1
    120.8575	        	        	        	        	       0	(  0  0 16)	  0  1
    120.8575	        	        	        	        	    -448	(  0  0 16)	  0  1
    121.5507	        	        	        	        	       0	(  1  1 14)	  0  1
    121.5507	        	        	        	        	    -448	(  1  1 14)	  0  1
    123.6622	        	        	        	        	       0	(  2  2  4)	  0  1
    123.6622	        	        	        	        	    -448	(  2  2  4)	  0  1
    124.5185	        	        	        	        	       0	(  2  1 11)	  0  1
    124.5185	        	        	        	        	    -448	(  2  1 11)	  0  1
    124.9997	        	        	        	        	       0	(  3  0  9)	  0  1
    124.9997	        	        	        	        	    -448	(  3  0  9)	  0  1
    125.5523	        	        	        	        	       0	(  3  1  0)	  0  1
    125.5523	        	        	        	        	    -448	(  3  1  0)	  0  1
    125.9707	        	        	        	        	       0	(  3  1  1)	  0  1
    125.9707	        	        	        	        	    -448	(  3  1  1)	  0  1
    127.2395	        	        	        	        	       0	(  3  1  2)	  0  1
    127.2395	        	        	        	        	    -448	(  3  1  2)	  0  1
    129.4037	        	        	        	        	       0	(  3  1  3)	  0  1
    129.4037	        	        	        	        	    -448	(  3  1  3)	  0  1
    129.4097	        	        	        	        	       0	(  1  0 16)	  0  1
    129.4097	        	        	        	        	    -448	(  1  0 16)	  0  1
    130.1817	        	        	        	        	       0	(  2  0 14)	  0  1
    130.1817	        	        	        	        	    -448	(  2  0 14)	  0  1
    132.2851	        	        	        	        	       0	(  2  2  6)	  0  1
    132.2851	        	        	        	        	    -448	(  2  2  6)	  0  1
    132.5530	        	        	        	        	       0	(  3  1  4)	  0  1
    132.5530	        	        	        	        	    -448	(  3  1  4)	  0  1
    133.3284	        	        	        	        	       0	(  3  0 10)	  0  1
    133.3284	        	        	        	        	    -448	(  3  0 10)	  0  1
    134.6674	        	        	        	        	       0	(  2  1 12)	  0  1
    134.6674	        	        	        	        	    -448	(  2  1 12)	  0  1
    136.8555	        	        	        	        	       0	(  3  1  5)	  0  1
    136.8555	        	        	        	        	    -448	(  3  1  5)	  0  1
    142.6434	        	        	        	        	       0	(  3  1  6)	  0  1
    142.6434	        	        	        	        	    -448	(  3  1  6)	  0  1
    144.1667	        	        	        	        	       0	(  3  0 11)	  0  1
    144.1667	        	        	        	        	    -448	(  3  0 11)	  0  1
    144.8041	        	        	        	        	       0	(  2  0 15)	  0  1
    144.8041	        	        	        	        	    -448	(  2  0 15)	  0  1
    146.1562	        	        	        	        	       0	(  1  0 17)	  0  1
    146.1562	        	        	        	        	    -448	(  1  0 17)	  0  1
    147.0234	        	        	        	        	       0	(  2  2  8)	  0  1
    147.0234	        	        	        	        	    -448	(  2  2  8)	  0  1
    148.3526	        	        	        	        	       0	(  2  1 13)	  0  1
    148.3526	        	        	        	        	    -448	(  2  1 13)	  0  1
    150.6959	        	        	        	        	       0	(  3  1  7)	  0  1
    150.6959	        	        	        	        	    -448	(  3  1  7)	  0  1
    151.5257	        	        	        	        	       0	(  1  1 16)	  0  1
    151.5257	        	        	        	        	    -448	(  1  1 16)	  0  1
    156.3749	        	        	        	        	       0	(  0  0 18)	  0  1
    156.3749	        	        	        	        	    -448	(  0  0 18)	  0  1
    161.3261	        	        	        	        	       0	(  3  0 12)	  0  1
    161.3261	        	        	        	        	    -448	(  3  0 12)	  0  1
    161.4065	        	        	        	        	       0	(  4  0  0)	  0  1
    161.4065	        	        	        	        	    -448	(  4  0  0)	  0  1
    162.5081	        	        	        	        	       0	(  4  0  1)	  0  1
    162.5081	        	        	        	        	    -448	(  4  0  1)	  0  1
    163.9927	        	        	        	        	       0	(  3  1  8)	  0  1
    163.9927	        	        	        	        	    -448	(  3  1  8)	  0  1
    166.3225	        	        	        	        	       0	(  4  0  2)	  0  1
    166.3225	        	        	        	        	    -448	(  4  0  2)	  0  1
