MSG Master    CELL:    5.90642   5.90642  23.20293   90.0000   90.0000  120.0000   SPGR: P 63/m m c             TEMP:    860.05
  1   1280     2.52000     0.00000    -0.12020     0.00000     0.00000    0
    98     0     2
       0.00000      10.00000
     125.00000     130.00000
 2Theta	Yobs	Ycal	Yobs-Ycal	Backg	Posr	(hkl)	K
      0.7700	    0.00	  475.83	-1745.23	  364.90
      0.8700	    0.00	  477.28	-1745.23	  366.36
      0.9700	   35.00	  478.72	-1745.23	  367.79
      1.0700	   46.00	  480.14	-1745.23	  369.21
      1.1700	   53.00	  481.54	-1745.23	  370.62
      1.2700	   57.00	  482.93	-1745.23	  372.01
      1.3700	   42.00	  484.31	-1745.23	  373.39
      1.4700	   96.00	  485.67	-1745.23	  374.74
      1.5700	  286.00	  487.01	-1745.23	  376.09
      1.6700	  440.00	  488.34	-1745.23	  377.42
      1.7700	  615.00	  489.65	-1745.23	  378.73
      1.8700	  649.00	  490.95	-1745.23	  380.03
      1.9700	  701.00	  492.23	-1745.23	  381.31
      2.0700	  770.00	  493.50	-1745.23	  382.58
      2.1700	  813.00	  494.76	-1745.23	  383.83
      2.2700	  729.00	  495.99	-1745.23	  385.07
      2.3700	  763.00	  497.22	-1745.23	  386.29
      2.4700	  712.00	  498.43	-1745.23	  387.50
      2.5700	  671.00	  499.62	-1745.23	  388.70
      2.6700	  695.00	  500.80	-1745.23	  389.88
      2.7700	  652.00	  501.97	-1745.23	  391.05
      2.8700	  657.00	  503.12	-1745.23	  392.20
      2.9700	  571.00	  504.26	-1745.23	  393.34
      3.0700	  639.00	  505.38	-1745.23	  394.46
      3.1700	  609.00	  506.49	-1745.23	  395.57
      3.2700	  686.00	  507.59	-1745.23	  396.67
      3.3700	  746.00	  508.67	-1745.23	  397.75
      3.4700	  887.00	  509.74	-1745.23	  398.82
      3.5700	  992.00	  510.80	-1745.23	  399.87
      3.6700	 1097.00	  511.84	-1745.23	  400.91
      3.7700	 1125.00	  512.87	-1745.23	  401.94
      3.8700	 1247.00	  513.88	-1745.23	  402.96
      3.9700	 1227.00	  514.88	-1745.23	  403.96
      4.0700	 1284.00	  515.87	-1745.23	  404.95
      4.1700	 1292.00	  516.85	-1745.23	  405.92
      4.2700	 1309.00	  517.81	-1745.23	  406.89
      4.3700	 1383.00	  518.76	-1745.23	  407.84
      4.4700	 1192.00	  519.69	-1745.23	  408.77
      4.5700	 1185.00	  520.62	-1745.23	  409.70
      4.6700	 1163.00	  521.53	-1745.23	  410.61
      4.7700	 1135.00	  522.43	-1745.23	  411.51
      4.8700	 1213.00	  523.32	-1745.23	  412.39
      4.9700	 1109.00	  524.19	-1745.23	  413.27
      5.0700	 1077.00	  525.05	-1745.23	  414.13
      5.1700	 1074.00	  525.90	-1745.23	  414.98
      5.2700	 1019.00	  526.74	-1745.23	  415.81
      5.3700	 1028.00	  527.56	-1745.23	  416.64
      5.4700	  977.00	  528.38	-1745.23	  417.45
      5.5700	  933.00	  529.18	-1745.23	  418.25
      5.6700	  921.00	  529.97	-1745.23	  419.04
      5.7700	  844.00	  530.74	-1745.23	  419.82
      5.8700	  907.00	  531.51	-1745.23	  420.59
      5.9700	  876.00	  532.26	-1745.23	  421.34
      6.0700	  886.00	  533.01	-1745.23	  422.08
      6.1700	  837.00	  533.74	-1745.23	  422.82
      6.2700	  776.00	  534.46	-1745.23	  423.54
      6.3700	  838.00	  535.17	-1745.23	  424.24
      6.4700	  759.00	  535.86	-1745.23	  424.94
      6.5700	  741.00	  536.55	-1745.23	  425.63
      6.6700	  750.00	  537.23	-1745.23	  426.30
      6.7700	  764.00	  537.89	-1745.23	  426.97
      6.8700	  782.00	  538.54	-1745.23	  427.62
      6.9700	  734.00	  539.19	-1745.23	  428.26
      7.0700	  689.00	  539.82	-1745.23	  428.90
      7.1700	  701.00	  540.44	-1745.23	  429.52
      7.2700	  673.00	  541.05	-1745.23	  430.13
      7.3700	  718.00	  541.65	-1745.23	  430.73
      7.4700	  680.00	  542.24	-1745.23	  431.32
      7.5700	  690.00	  542.82	-1745.23	  431.90
      7.6700	  678.00	  543.39	-1745.23	  432.47
      7.7700	  692.00	  543.95	-1745.23	  433.03
      7.8700	  647.00	  544.50	-1745.23	  433.58
      7.9700	  641.00	  545.04	-1745.23	  434.11
      8.0700	  679.00	  545.57	-1745.23	  434.64
      8.1700	  646.00	  546.09	-1745.23	  435.16
      8.2700	  629.00	  546.59	-1745.23	  435.67
      8.3700	  637.00	  547.09	-1745.23	  436.17
      8.4700	  677.00	  547.58	-1745.23	  436.66
      8.5700	  642.00	  548.06	-1745.23	  437.14
      8.6700	  624.00	  548.53	-1745.23	  437.61
      8.7700	  629.00	  548.99	-1745.23	  438.07
      8.8700	  667.00	  549.45	-1745.23	  438.52
      8.9700	  617.00	  549.89	-1745.23	  438.97
      9.0700	  591.00	  550.32	-1745.23	  439.40
      9.1700	  558.00	  550.75	-1745.23	  439.82
      9.2700	  609.00	  551.16	-1745.23	  440.24
      9.3700	  630.00	  551.57	-1745.23	  440.64
      9.4700	  631.00	  551.96	-1745.23	  441.04
      9.5700	  590.00	  552.35	-1745.23	  441.43
      9.6700	  581.00	  552.73	-1745.23	  441.81
      9.7700	  592.00	  553.10	-1745.23	  442.18
      9.8700	  601.00	  553.46	-1745.23	  442.54
      9.9700	  616.00	  553.81	-1745.23	  442.89
     10.0700	  571.00	  556.15	-1730.38	  443.23
     10.1700	  551.00	  556.69	-1750.91	  443.57
     10.2700	  604.00	  557.26	-1698.48	  443.90
     10.3700	  585.00	  557.88	-1718.11	  444.22
     10.4700	  593.00	  558.59	-1710.82	  444.53
     10.5700	  609.00	  559.44	-1695.67	  444.83
     10.6700	  573.00	  560.49	-1732.72	  445.12
     10.7700	  582.00	  561.85	-1725.08	  445.41
     10.8700	  611.00	  563.58	-1697.81	  445.69
     10.9700	  567.00	  565.73	-1743.96	  445.96
     11.0700	  596.00	  568.31	-1717.53	  446.22
     11.1700	  614.00	  571.32	-1702.54	  446.47
     11.2700	  577.00	  574.79	-1743.02	  446.72
     11.3700	  647.00	  578.81	-1677.04	  446.96
     11.4700	  568.00	  583.49	-1760.72	  447.19
     11.5700	  552.00	  589.02	-1782.25	  447.41
     11.6700	  576.00	  595.70	-1764.93	  447.63
     11.7700	  606.00	  603.86	-1743.09	  447.84
     11.8700	  636.00	  613.75	-1722.98	  448.04
     11.9700	  628.00	  625.15	-1742.37	  448.23
     12.0700	  657.00	  636.71	-1724.94	  448.42
     12.1700	  674.00	  645.37	-1716.60	  448.60
     12.2700	  650.00	  646.30	-1741.52	  448.77
     12.3700	  625.00	  635.97	-1756.20	  448.93
     12.4700	  620.00	  618.13	-1743.36	  449.09
     12.5700	  566.00	  600.51	-1779.73	  449.24
     12.6700	  615.00	  587.12	-1717.35	  449.39
     12.7700	  631.00	  578.31	-1692.54	  449.52
     12.8700	  523.00	  573.00	-1795.22	  449.65
     12.9700	  555.00	  569.89	-1760.12	  449.78
     13.0700	  514.00	  568.02	-1799.25	  449.90
     13.1700	  576.00	  566.82	-1736.04	  450.01
     13.2700	  560.00	  565.98	-1751.21	  450.11
     13.3700	  518.00	  565.36	-1792.59	  450.21
     13.4700	  542.00	  564.93	-1768.16	  450.30
     13.5700	  589.00	  564.58	-1720.80	  450.38
     13.6700	  566.00	  564.30	-1743.53	  450.46
     13.7700	  557.00	  564.08	-1752.30	  450.53
     13.8700	  512.00	  563.90	-1797.13	  450.60
     13.9700	  568.00	  563.75	-1740.98	  450.66
     14.0700	  571.00	  563.63	-1737.86	  450.71
     14.1700	  541.00	  563.53	-1767.76	  450.76
     14.2700	  556.00	  563.45	-1752.67	  450.80
     14.3700	  568.00	  563.37	-1740.60	  450.84
     14.4700	  553.00	  563.30	-1755.53	  450.87
     14.5700	  575.00	  563.24	-1733.47	  450.89
     14.6700	  567.00	  563.19	-1741.41	  450.91
     14.7700	  532.00	  563.13	-1776.36	  450.92
     14.8700	  518.00	  563.08	-1790.31	  450.93
     14.9700	  577.00	  563.03	-1731.26	  450.93
     15.0700	  530.00	  562.98	-1778.21	  450.93
     15.1700	  589.00	  562.93	-1719.15	  450.92
     15.2700	  533.00	  562.87	-1775.10	  450.90
     15.3700	  541.00	  562.82	-1767.05	  450.88
     15.4700	  573.00	  562.76	-1734.99	  450.86
     15.5700	  559.00	  562.70	-1748.93	  450.83
     15.6700	  521.00	  562.64	-1786.87	  450.79
     15.7700	  503.00	  562.58	-1804.80	  450.75
     15.8700	  549.00	  562.51	-1758.74	  450.70
     15.9700	  529.00	  562.44	-1778.66	  450.65
     16.0700	  579.00	  562.36	-1728.59	  450.60
     16.1700	  539.00	  562.28	-1768.51	  450.53
     16.2700	  529.00	  562.20	-1778.43	  450.47
     16.3700	  593.00	  562.12	-1714.35	  450.40
     16.4700	  561.00	  562.03	-1746.26	  450.32
     16.5700	  529.00	  561.94	-1778.16	  450.24
     16.6700	  600.00	  561.84	-1707.07	  450.16
     16.7700	  540.00	  561.74	-1766.97	  450.07
     16.8700	  576.00	  561.64	-1730.86	  449.97
     16.9700	  545.00	  561.53	-1761.76	  449.87
     17.0700	  542.00	  561.42	-1764.65	  449.77
     17.1700	  575.00	  561.30	-1731.53	  449.66
     17.2700	  596.00	  561.19	-1710.41	  449.55
     17.3700	  541.00	  561.06	-1765.29	  449.43
     17.4700	  517.00	  560.94	-1789.16	  449.31
     17.5700	  572.00	  560.81	-1734.03	  449.19
     17.6700	  543.00	  560.78	-1763.01	  449.06
     17.7700	  544.00	  560.65	-1761.87	  448.93
     17.8700	  528.00	  560.51	-1777.74	  448.79
     17.9700	  542.00	  560.37	-1763.59	  448.65
     18.0700	  561.00	  560.33	-1744.55	  448.50
     18.1700	  573.00	  560.18	-1732.41	  448.35
     18.2700	  519.00	  560.03	-1786.26	  448.20
     18.3700	  581.00	  559.88	-1724.10	  448.04
     18.4700	  548.00	  559.72	-1756.95	  447.88
     18.5700	  556.00	  559.56	-1748.78	  447.72
     18.6700	  542.00	  559.39	-1762.62	  447.55
     18.7700	  580.00	  559.23	-1724.45	  447.38
     18.8700	  566.00	  559.06	-1738.28	  447.20
     18.9700	  532.00	  558.88	-1772.11	  447.02
     19.0700	  577.00	  558.71	-1726.94	  446.84
     19.1700	  526.00	  558.53	-1777.76	  446.65
     19.2700	  540.00	  558.35	-1763.57	  446.46
     19.3700	  539.00	  558.16	-1764.39	  446.27
     19.4700	  531.00	  557.98	-1772.20	  446.07
     19.5700	  565.00	  557.82	-1738.05	  445.87
     19.6700	  552.00	  557.63	-1750.86	  445.67
     19.7700	  555.00	  557.43	-1747.66	  445.46
     19.8700	  577.00	  557.24	-1725.46	  445.25
     19.9700	  545.00	  557.04	-1757.27	  445.04
     20.0700	  550.00	  556.84	-1752.06	  444.83
     20.1700	  519.00	  556.63	-1782.86	  444.61
     20.2700	  567.00	  556.43	-1734.65	  444.39
     20.3700	  561.00	  556.22	-1740.45	  444.16
     20.4700	  590.00	  556.01	-1711.24	  443.93
     20.5700	  524.00	  555.80	-1777.03	  443.70
     20.6700	  502.00	  555.59	-1798.81	  443.47
     20.7700	  558.00	  555.37	-1742.60	  443.23
     20.8700	  596.00	  555.15	-1704.38	  442.99
     20.9700	  547.00	  554.94	-1753.17	  442.75
     21.0700	  564.00	  554.72	-1735.95	  442.51
     21.1700	  571.00	  554.50	-1728.73	  442.26
     21.2700	  516.00	  554.28	-1783.51	  442.01
     21.3700	  552.00	  554.06	-1747.29	  441.76
     21.4700	  539.00	  553.84	-1760.07	  441.51
     21.5700	  493.00	  553.62	-1805.85	  441.25
     21.6700	  575.00	  553.40	-1723.63	  440.99
     21.7700	  529.00	  553.18	-1769.41	  440.73
     21.8700	  555.00	  552.96	-1743.19	  440.46
     21.9700	  571.00	  552.75	-1726.98	  440.20
     22.0700	  547.00	  552.69	-1750.91	  439.93
     22.1700	  538.00	  552.48	-1759.71	  439.66
     22.2700	  568.00	  552.27	-1729.50	  439.38
     22.3700	  561.00	  552.07	-1736.30	  439.11
     22.4700	  549.00	  551.88	-1748.11	  438.83
     22.5700	  587.00	  551.69	-1709.92	  438.55
     22.6700	  536.00	  551.51	-1760.74	  438.27
     22.7700	  531.00	  551.35	-1765.57	  437.99
     22.8700	  537.00	  551.19	-1759.42	  437.70
     22.9700	  551.00	  551.05	-1745.28	  437.41
     23.0700	  556.00	  550.88	-1740.11	  437.12
     23.1700	  540.00	  550.79	-1756.02	  436.83
     23.2700	  515.00	  550.73	-1780.95	  436.54
     23.3700	  561.00	  550.71	-1734.93	  436.24
     23.4700	  528.00	  550.74	-1767.97	  435.95
     23.5700	  598.00	  550.84	-1698.07	  435.65
     23.6700	  568.00	  551.05	-1728.27	  435.35
     23.7700	  526.00	  551.40	-1770.63	  435.04
     23.8700	  567.00	  552.00	-1730.23	  434.74
     23.9700	  555.00	  552.99	-1743.22	  434.44
     24.0700	  527.00	  554.62	-1772.85	  434.13
     24.1700	  583.00	  557.30	-1719.52	  433.82
     24.2700	  557.00	  561.52	-1749.75	  433.51
     24.3700	  572.00	  567.84	-1741.07	  433.20
     24.4700	  600.00	  576.61	-1721.83	  432.89
     24.5700	  623.00	  587.68	-1709.91	  432.57
     24.6700	  632.00	  600.01	-1713.24	  432.26
     24.7700	  621.00	  611.05	-1735.27	  431.94
     24.8700	  638.00	  616.52	-1723.74	  431.62
     24.9700	  635.00	  612.24	-1722.46	  431.30
     25.0700	  634.00	  599.25	-1710.48	  430.98
     25.1700	  565.00	  583.88	-1764.11	  430.66
     25.2700	  575.00	  570.90	-1741.13	  430.34
     25.3700	  594.00	  561.65	-1712.88	  430.01
     25.4700	  562.00	  555.71	-1738.94	  429.69
     25.5700	  596.00	  552.10	-1701.33	  429.36
     25.6700	  589.00	  549.90	-1706.13	  429.04
     25.7700	  537.00	  548.49	-1756.72	  428.71
     25.8700	  570.00	  547.53	-1722.75	  428.38
     25.9700	  540.00	  546.83	-1752.05	  428.05
     26.0700	  551.00	  546.31	-1740.54	  427.72
     26.1700	  565.00	  545.95	-1726.17	  427.38
     26.2700	  534.00	  545.70	-1756.93	  427.05
     26.3700	  568.00	  545.58	-1722.80	  426.72
     26.4700	  624.00	  545.56	-1666.79	  426.38
     26.5700	  555.00	  545.66	-1735.89	  426.05
     26.6700	  604.00	  545.90	-1687.13	  425.71
     26.7700	  564.00	  546.28	-1727.51	  425.37
     26.8700	  496.00	  546.85	-1796.07	  425.04
     26.9700	  602.00	  547.63	-1690.86	  424.70
     27.0700	  640.00	  548.71	-1653.94	  424.36
     27.1700	  544.00	  550.19	-1751.41	  424.02
     27.2700	  579.00	  552.24	-1718.46	  423.68
     27.3700	  599.00	  555.21	-1701.44	  423.34
     27.4700	  623.00	  559.78	-1682.01	  423.00
     27.5700	  568.00	  567.17	-1744.40	  422.66
     27.6700	  575.00	  579.45	-1749.68	  422.32
     27.7700	  563.00	  599.61	-1781.83	  421.97
     27.8700	  604.00	  630.97	-1772.19	  421.63
     27.9700	  697.00	  675.53	-1723.76	  421.29
     28.0700	  717.00	  731.44	-1759.66	  420.94
     28.1700	  854.00	  790.26	-1681.49	  420.60
     28.2700	  847.00	  835.35	-1733.58	  420.26
     28.3700	  926.00	  846.24	-1665.47	  419.91
     28.4700	  896.00	  819.88	-1669.11	  419.57
     28.5700	  799.00	  784.16	-1730.39	  419.22
     28.6700	  708.00	  767.26	-1804.48	  418.88
     28.7700	  765.00	  776.85	-1757.08	  418.53
     28.8700	  778.00	  803.34	-1770.57	  418.18
     28.9700	  845.00	  825.26	-1725.49	  417.84
     29.0700	  815.00	  817.34	-1747.56	  417.49
     29.1700	  787.00	  771.10	-1729.33	  417.15
     29.2700	  747.00	  707.37	-1705.60	  416.80
     29.3700	  680.00	  649.86	-1715.09	  416.45
     29.4700	  636.00	  608.00	-1717.23	  416.11
     29.5700	  596.00	  581.37	-1730.60	  415.76
     29.6700	  619.00	  565.82	-1692.05	  415.42
     29.7700	  629.00	  556.94	-1673.17	  415.07
     29.8700	  652.00	  551.68	-1644.91	  414.72
     29.9700	  594.00	  548.38	-1699.60	  414.38
     30.0700	  561.00	  546.32	-1730.55	  414.03
     30.1700	  564.00	  545.34	-1726.57	  413.69
     30.2700	  581.00	  545.59	-1709.81	  413.34
     30.3700	  555.00	  547.55	-1737.78	  413.00
     30.4700	  552.00	  552.07	-1745.30	  412.65
     30.5700	  542.00	  560.12	-1763.35	  412.31
     30.6700	  609.00	  572.34	-1708.56	  411.96
     30.7700	  590.00	  588.11	-1743.34	  411.62
     30.8700	  603.00	  604.81	-1747.03	  411.27
     30.9700	  670.00	  617.32	-1692.54	  410.93
     31.0700	  587.00	  619.05	-1777.28	  410.59
     31.1700	  605.00	  607.23	-1747.46	  410.24
     31.2700	  591.00	  587.71	-1741.94	  409.90
     31.3700	  529.00	  568.57	-1784.80	  409.56
     31.4700	  560.00	  553.78	-1739.01	  409.22
     31.5700	  571.00	  543.86	-1718.09	  408.88
     31.6700	  536.00	  537.81	-1747.04	  408.54
     31.7700	  565.00	  534.28	-1714.50	  408.20
     31.8700	  537.00	  532.18	-1740.40	  407.86
     31.9700	  528.00	  530.85	-1748.08	  407.52
     32.0700	  588.00	  529.98	-1687.20	  407.18
     32.1700	  551.00	  529.40	-1723.63	  406.84
     32.2700	  567.00	  529.06	-1707.29	  406.50
     32.3700	  541.00	  528.93	-1733.16	  406.16
     32.4700	  541.00	  529.01	-1733.24	  405.83
     32.5700	  499.00	  529.31	-1775.54	  405.49
     32.6700	  552.00	  529.87	-1723.09	  405.16
     32.7700	  542.00	  530.72	-1733.94	  404.82
     32.8700	  546.00	  531.94	-1731.16	  404.49
     32.9700	  528.00	  533.65	-1750.88	  404.15
     33.0700	  540.00	  536.08	-1741.31	  403.82
     33.1700	  584.00	  539.56	-1700.79	  403.49
     33.2700	  589.00	  544.86	-1701.08	  403.16
     33.3700	  605.00	  553.39	-1693.62	  402.83
     33.4700	  568.00	  567.66	-1744.89	  402.50
     33.5700	  604.00	  591.44	-1732.67	  402.17
     33.6700	  623.00	  629.39	-1751.61	  401.84
     33.7700	  703.00	  685.08	-1727.30	  401.52
     33.8700	  728.00	  757.41	-1774.63	  401.19
     33.9700	  901.00	  836.64	-1680.87	  400.86
     34.0700	  934.00	  902.28	-1713.51	  400.54
     34.1700	 1025.00	  926.23	-1646.46	  400.22
     34.2700	  974.00	  891.10	-1662.32	  399.89
     34.3700	  827.00	  813.61	-1731.84	  399.57
     34.4700	  731.00	  728.29	-1742.52	  399.25
     34.5700	  648.00	  657.02	-1754.25	  398.93
     34.6700	  580.00	  606.08	-1771.31	  398.61
     34.7700	  564.00	  573.38	-1754.61	  398.29
     34.8700	  522.00	  553.73	-1776.96	  397.98
     34.9700	  545.00	  542.06	-1742.29	  397.66
     35.0700	  533.00	  534.78	-1747.01	  397.35
     35.1700	  507.00	  529.83	-1768.06	  397.03
     35.2700	  519.00	  526.18	-1752.41	  396.72
     35.3700	  547.00	  523.33	-1721.56	  396.41
     35.4700	  508.00	  521.01	-1758.24	  396.10
     35.5700	  532.00	  519.09	-1732.32	  395.79
     35.6700	  516.00	  517.93	-1747.16	  395.48
     35.7700	  506.00	  516.54	-1755.77	  395.17
     35.8700	  513.00	  515.34	-1747.57	  394.87
     35.9700	  517.00	  514.29	-1742.52	  394.56
     36.0700	  528.00	  513.32	-1730.55	  394.26
     36.1700	  488.00	  512.49	-1769.72	  393.95
     36.2700	  478.00	  511.75	-1778.98	  393.65
     36.3700	  494.00	  511.08	-1762.31	  393.35
     36.4700	  489.00	  510.48	-1766.70	  393.05
     36.5700	  476.00	  509.94	-1779.16	  392.76
     36.6700	  479.00	  509.46	-1775.69	  392.46
     36.7700	  467.00	  509.05	-1787.28	  392.16
     36.8700	  512.00	  508.73	-1741.95	  391.87
     36.9700	  521.00	  508.52	-1732.75	  391.58
     37.0700	  472.00	  508.50	-1781.73	  391.29
     37.1700	  500.00	  508.76	-1753.99	  390.99
     37.2700	  539.00	  509.65	-1715.88	  390.71
     37.3700	  526.00	  510.93	-1730.16	  390.42
     37.4700	  545.00	  512.88	-1713.11	  390.13
     37.5700	  458.00	  515.39	-1802.61	  389.85
     37.6700	  488.00	  518.04	-1775.26	  389.56
     37.7700	  575.00	  520.04	-1690.26	  389.28
     37.8700	  537.00	  520.45	-1728.68	  389.00
     37.9700	  532.00	  518.87	-1732.09	  388.72
     38.0700	  514.00	  515.95	-1747.17	  388.44
     38.1700	  499.00	  512.67	-1758.90	  388.16
     38.2700	  492.00	  509.66	-1762.89	  387.89
     38.3700	  525.00	  507.18	-1727.41	  387.61
     38.4700	  495.00	  505.29	-1755.52	  387.34
     38.5700	  500.00	  503.93	-1749.15	  387.07
     38.6700	  472.00	  502.95	-1776.18	  386.80
     38.7700	  494.00	  502.23	-1753.46	  386.53
     38.8700	  546.00	  501.67	-1700.89	  386.27
     38.9700	  463.00	  501.20	-1783.43	  386.00
     39.0700	  464.00	  500.80	-1782.03	  385.74
     39.1700	  472.00	  500.44	-1773.67	  385.47
     39.2700	  485.00	  500.00	-1760.23	  385.21
     39.3700	  516.00	  499.70	-1728.92	  384.95
     39.4700	  472.00	  499.41	-1772.63	  384.69
     39.5700	  527.00	  499.13	-1717.36	  384.44
     39.6700	  472.00	  498.87	-1772.10	  384.18
     39.7700	  492.00	  498.63	-1751.86	  383.93
     39.8700	  494.00	  498.40	-1749.63	  383.68
     39.9700	  476.00	  498.18	-1767.41	  383.43
     40.0700	  480.00	  497.97	-1763.20	  383.18
     40.1700	  486.00	  498.21	-1757.44	  382.93
     40.2700	  482.00	  498.04	-1761.27	  382.68
     40.3700	  488.00	  497.88	-1755.11	  382.44
     40.4700	  518.00	  497.74	-1724.97	  382.20
     40.5700	  549.00	  497.62	-1693.85	  381.96
     40.6700	  495.00	  497.52	-1747.75	  381.72
     40.7700	  496.00	  497.45	-1746.67	  381.48
     40.8700	  470.00	  497.40	-1772.62	  381.24
     40.9700	  469.00	  497.38	-1773.61	  381.01
     41.0700	  470.00	  497.40	-1772.63	  380.77
     41.1700	  461.00	  497.46	-1781.69	  380.54
     41.2700	  497.00	  497.58	-1745.81	  380.31
     41.3700	  515.00	  497.82	-1728.05	  380.08
     41.4700	  453.00	  498.10	-1790.32	  379.86
     41.5700	  517.00	  498.49	-1726.72	  379.63
     41.6700	  487.00	  499.11	-1757.33	  379.41
     41.7700	  501.00	  499.92	-1744.15	  379.19
     41.8700	  516.00	  501.17	-1730.40	  378.97
     41.9700	  471.00	  503.18	-1777.40	  378.75
     42.0700	  519.00	  506.53	-1732.76	  378.53
     42.1700	  499.00	  512.06	-1758.29	  378.32
     42.2700	  490.00	  520.65	-1775.88	  378.10
     42.3700	  488.00	  533.33	-1790.56	  377.89
     42.4700	  549.00	  550.37	-1746.60	  377.68
     42.5700	  543.00	  570.57	-1772.79	  377.47
     42.6700	  570.00	  590.59	-1765.82	  377.27
     42.7700	  594.00	  604.64	-1755.87	  377.06
     42.8700	  576.00	  606.83	-1776.06	  376.86
     42.9700	  596.00	  595.28	-1744.51	  376.66
     43.0700	  549.00	  575.42	-1771.64	  376.46
     43.1700	  502.00	  554.13	-1797.35	  376.26
     43.2700	  536.00	  535.66	-1744.89	  376.06
     43.3700	  515.00	  521.61	-1751.84	  375.87
     43.4700	  510.00	  511.90	-1747.13	  375.67
     43.5700	  480.00	  505.63	-1770.86	  375.48
     43.6700	  483.00	  501.74	-1763.97	  375.29
     43.7700	  504.00	  499.31	-1740.54	  375.10
     43.8700	  497.00	  497.71	-1745.94	  374.92
     43.9700	  504.00	  496.59	-1737.82	  374.73
     44.0700	  461.00	  495.75	-1779.98	  374.55
     44.1700	  469.00	  495.29	-1771.52	  374.37
     44.2700	  520.00	  494.76	-1719.99	  374.19
     44.3700	  481.00	  494.33	-1758.55	  374.01
     44.4700	  510.00	  493.97	-1729.20	  373.83
     44.5700	  482.00	  493.67	-1756.90	  373.66
     44.6700	  524.00	  493.43	-1714.66	  373.49
     44.7700	  490.00	  493.24	-1748.46	  373.32
     44.8700	  500.00	  493.08	-1738.31	  373.15
     44.9700	  486.00	  492.96	-1752.19	  372.98
     45.0700	  505.00	  492.88	-1733.11	  372.81
     45.1700	  485.00	  492.83	-1753.05	  372.65
     45.2700	  502.00	  492.80	-1736.03	  372.49
     45.3700	  535.00	  492.81	-1703.04	  372.33
     45.4700	  488.00	  492.92	-1750.15	  372.17
     45.5700	  486.00	  492.98	-1752.21	  372.01
     45.6700	  507.00	  493.09	-1731.32	  371.86
     45.7700	  453.00	  493.22	-1785.45	  371.70
     45.8700	  528.00	  493.43	-1710.65	  371.55
     45.9700	  495.00	  493.63	-1743.86	  371.40
     46.0700	  513.00	  493.87	-1726.10	  371.25
     46.1700	  471.00	  494.01	-1768.23	  371.10
     46.2700	  524.00	  494.35	-1715.58	  370.96
     46.3700	  505.00	  494.75	-1734.98	  370.82
     46.4700	  519.00	  495.22	-1721.45	  370.67
     46.5700	  474.00	  495.77	-1767.00	  370.54
     46.6700	  477.00	  496.42	-1764.65	  370.40
     46.7700	  473.00	  497.20	-1769.42	  370.26
     46.8700	  509.00	  498.15	-1734.37	  370.13
     46.9700	  490.00	  499.35	-1754.58	  369.99
     47.0700	  464.00	  500.97	-1782.20	  369.86
     47.1700	  464.00	  503.26	-1784.49	  369.73
     47.2700	  499.00	  506.65	-1752.87	  369.61
     47.3700	  500.00	  511.67	-1756.90	  369.48
     47.4700	  548.00	  518.96	-1716.19	  369.36
     47.5700	  523.00	  528.99	-1751.22	  369.23
     47.6700	  554.00	  541.78	-1733.01	  369.11
     47.7700	  529.00	  556.52	-1772.75	  368.99
     47.8700	  589.00	  571.12	-1727.35	  368.88
     47.9700	  598.00	  582.14	-1729.37	  368.76
     48.0700	  568.00	  586.38	-1763.61	  368.65
     48.1700	  560.00	  581.87	-1767.10	  368.53
     48.2700	  581.00	  571.72	-1735.95	  368.42
     48.3700	  537.00	  560.00	-1768.23	  368.32
     48.4700	  554.00	  549.69	-1740.91	  368.21
     48.5700	  547.00	  542.26	-1740.49	  368.10
     48.6700	  528.00	  538.16	-1755.38	  368.00
     48.7700	  552.00	  537.20	-1730.43	  367.90
     48.8700	  496.00	  538.99	-1788.21	  367.80
     48.9700	  548.00	  543.18	-1740.41	  367.70
     49.0700	  570.00	  549.74	-1724.97	  367.60
     49.1700	  588.00	  559.13	-1716.36	  367.51
     49.2700	  553.00	  572.75	-1764.98	  367.41
     49.3700	  575.00	  593.55	-1763.78	  367.32
     49.4700	  528.00	  627.11	-1844.34	  367.23
     49.5700	  626.00	  682.67	-1801.90	  367.14
     49.6700	  717.00	  773.28	-1801.50	  367.06
     49.7700	  808.00	  913.92	-1851.14	  366.97
     49.8700	 1033.00	 1116.31	-1828.54	  366.89
     49.9700	 1312.00	 1380.99	-1814.22	  366.80
     50.0700	 1680.00	 1687.92	-1753.14	  366.72
     50.1700	 2104.00	 1987.82	-1629.05	  366.65
     50.2700	 2197.00	 2202.10	-1750.33	  366.57
     50.3700	 2382.00	 2249.79	-1613.02	  366.49
     50.4700	 2205.00	 2107.98	-1648.20	  366.42
     50.5700	 1898.00	 1837.35	-1684.58	  366.35
     50.6700	 1456.00	 1526.91	-1816.13	  366.28
     50.7700	 1144.00	 1242.43	-1843.65	  366.21
     50.8700	  885.00	 1016.51	-1876.73	  366.14
     50.9700	  766.00	  856.40	-1835.63	  366.08
     51.0700	  659.00	  753.53	-1839.76	  366.01
     51.1700	  669.00	  692.11	-1768.34	  365.95
     51.2700	  620.00	  655.74	-1780.97	  365.89
     51.3700	  612.00	  631.61	-1764.84	  365.83
     51.4700	  599.00	  612.27	-1758.50	  365.77
     51.5700	  617.00	  595.14	-1723.36	  365.72
     51.6700	  585.00	  580.09	-1740.31	  365.66
     51.7700	  552.00	  567.50	-1760.73	  365.61
     51.8700	  531.00	  557.58	-1771.81	  365.56
     51.9700	  561.00	  550.27	-1734.50	  365.51
     52.0700	  570.00	  545.31	-1720.54	  365.46
     52.1700	  558.00	  542.37	-1729.59	  365.41
     52.2700	  548.00	  541.15	-1738.38	  365.37
     52.3700	  534.00	  541.51	-1752.74	  365.33
     52.4700	  593.00	  543.55	-1695.78	  365.28
     52.5700	  612.00	  547.74	-1680.97	  365.24
     52.6700	  587.00	  555.07	-1713.30	  365.21
     52.7700	  558.00	  567.30	-1754.52	  365.17
     52.8700	  591.00	  587.09	-1741.32	  365.13
     52.9700	  646.00	  617.96	-1717.18	  365.10
     53.0700	  686.00	  663.68	-1722.91	  365.07
     53.1700	  755.00	  727.25	-1717.48	  365.03
     53.2700	  817.00	  809.21	-1737.43	  365.00
     53.3700	  923.00	  905.74	-1727.97	  364.98
     53.4700	 1076.00	 1006.40	-1675.63	  364.95
     53.5700	 1173.00	 1092.73	-1664.96	  364.92
     53.6700	 1148.00	 1140.64	-1737.87	  364.90
     53.7700	 1150.00	 1132.39	-1727.62	  364.88
     53.8700	 1021.00	 1071.04	-1795.27	  364.86
     53.9700	  993.00	  978.15	-1730.38	  364.84
     54.0700	  830.00	  877.47	-1792.69	  364.82
     54.1700	  774.00	  785.13	-1756.36	  364.80
     54.2700	  694.00	  709.27	-1760.50	  364.79
     54.3700	  667.00	  652.11	-1730.34	  364.77
     54.4700	  631.00	  612.16	-1726.39	  364.76
     54.5700	  577.00	  586.00	-1754.23	  364.75
     54.6700	  566.00	  569.80	-1749.03	  364.74
     54.7700	  549.00	  560.27	-1756.50	  364.73
     54.8700	  561.00	  555.01	-1739.23	  364.73
     54.9700	  592.00	  552.48	-1705.71	  364.72
     55.0700	  579.00	  551.83	-1718.06	  364.72
     55.1700	  599.00	  552.61	-1698.84	  364.71
     55.2700	  538.00	  554.64	-1761.87	  364.71
     55.3700	  604.00	  557.91	-1699.14	  364.71
     55.4700	  562.00	  562.52	-1745.75	  364.71
     55.5700	  555.00	  568.72	-1758.95	  364.72
     55.6700	  630.00	  576.99	-1692.22	  364.72
     55.7700	  579.00	  588.25	-1754.47	  364.72
     55.8700	  604.00	  604.19	-1745.41	  364.73
     55.9700	  616.00	  627.86	-1757.08	  364.74
     56.0700	  659.00	  664.32	-1750.55	  364.75
     56.1700	  700.00	  721.28	-1766.50	  364.76
     56.2700	  748.00	  808.98	-1806.21	  364.77
     56.3700	  896.00	  939.08	-1788.31	  364.78
     56.4700	 1076.00	 1121.62	-1790.85	  364.80
     56.5700	 1297.00	 1360.72	-1808.95	  364.81
     56.6700	 1571.00	 1649.13	-1823.36	  364.83
     56.7700	 1948.00	 1962.84	-1760.07	  364.85
     56.8700	 2260.00	 2256.33	-1741.55	  364.87
     56.9700	 2483.00	 2463.65	-1725.88	  364.89
     57.0700	 2469.00	 2520.16	-1796.38	  364.91
     57.1700	 2352.00	 2404.79	-1798.02	  364.93
     57.2700	 2156.00	 2158.84	-1748.06	  364.96
     57.3700	 1858.00	 1852.75	-1739.98	  364.98
     57.4700	 1530.00	 1546.69	-1761.92	  365.01
     57.5700	 1241.00	 1277.91	-1782.13	  365.04
     57.6700	 1009.00	 1063.61	-1799.84	  365.06
     57.7700	  834.00	  906.47	-1817.70	  365.09
     57.8700	  786.00	  800.14	-1759.37	  365.12
     57.9700	  723.00	  734.43	-1756.66	  365.16
     58.0700	  710.00	  699.38	-1734.60	  365.19
     58.1700	  710.00	  687.48	-1722.70	  365.22
     58.2700	  759.00	  694.27	-1680.50	  365.26
     58.3700	  755.00	  717.65	-1707.88	  365.30
     58.4700	  798.00	  756.66	-1703.89	  365.33
     58.5700	  832.00	  810.05	-1723.28	  365.37
     58.6700	  909.00	  874.87	-1711.09	  365.41
     58.7700	  972.00	  945.35	-1718.58	  365.45
     58.8700	 1094.00	 1013.58	-1664.81	  365.49
     58.9700	 1115.00	 1072.64	-1702.87	  365.54
     59.0700	 1228.00	 1118.71	-1635.93	  365.58
     59.1700	 1268.00	 1148.69	-1625.91	  365.63
     59.2700	 1306.00	 1158.66	-1597.88	  365.67
     59.3700	 1232.00	 1148.73	-1661.95	  365.72
     59.4700	 1263.00	 1127.38	-1609.61	  365.77
     59.5700	 1245.00	 1107.25	-1607.48	  365.82
     59.6700	 1136.00	 1098.40	-1707.63	  365.87
     59.7700	 1152.00	 1106.42	-1699.64	  365.92
     59.8700	 1117.00	 1134.98	-1763.20	  365.97
     59.9700	 1231.00	 1186.87	-1701.10	  366.02
     60.0700	 1354.00	 1261.07	-1652.30	  366.08
     60.1700	 1321.00	 1348.63	-1772.85	  366.13
     60.2700	 1541.00	 1430.60	-1634.82	  366.19
     60.3700	 1540.00	 1480.27	-1685.50	  366.24
     60.4700	 1515.00	 1473.24	-1703.47	  366.30
     60.5700	 1493.00	 1403.21	-1655.44	  366.36
     60.6700	 1365.00	 1286.58	-1666.81	  366.42
     60.7700	 1189.00	 1149.59	-1705.82	  366.48
     60.8700	 1023.00	 1014.79	-1737.02	  366.54
     60.9700	  901.00	  896.84	-1741.07	  366.60
     61.0700	  824.00	  803.29	-1724.52	  366.66
     61.1700	  722.00	  736.32	-1759.55	  366.72
     61.2700	  667.00	  695.02	-1773.24	  366.79
     61.3700	  696.00	  677.30	-1726.53	  366.85
     61.4700	  690.00	  681.68	-1736.90	  366.92
     61.5700	  723.00	  707.97	-1730.20	  366.99
     61.6700	  724.00	  757.12	-1778.34	  367.05
     61.7700	  792.00	  829.91	-1783.13	  367.12
     61.8700	  848.00	  925.32	-1822.55	  367.19
     61.9700	  985.00	 1038.64	-1798.87	  367.26
     62.0700	 1122.00	 1159.75	-1782.98	  367.33
     62.1700	 1317.00	 1271.96	-1700.19	  367.40
     62.2700	 1360.00	 1352.53	-1737.76	  367.47
     62.3700	 1280.00	 1379.24	-1844.46	  367.54
     62.4700	 1300.00	 1342.90	-1788.13	  367.62
     62.5700	 1183.00	 1254.45	-1816.68	  367.69
     62.6700	 1024.00	 1136.70	-1857.93	  367.77
     62.7700	  983.00	 1011.87	-1774.10	  367.84
     62.8700	  823.00	  895.74	-1817.96	  367.92
     62.9700	  703.00	  797.26	-1839.48	  367.99
     63.0700	  691.00	  719.96	-1774.19	  368.07
     63.1700	  626.00	  663.29	-1782.51	  368.15
     63.2700	  581.00	  624.28	-1788.51	  368.23
     63.3700	  588.00	  599.06	-1756.29	  368.30
     63.4700	  575.00	  583.96	-1754.19	  368.38
     63.5700	  626.00	  576.22	-1695.44	  368.46
     63.6700	  592.00	  574.20	-1727.43	  368.54
     63.7700	  580.00	  577.42	-1742.64	  368.63
     63.8700	  567.00	  586.29	-1764.51	  368.71
     63.9700	  618.00	  601.92	-1729.15	  368.79
     64.0700	  680.00	  625.72	-1690.95	  368.87
     64.1700	  670.00	  658.95	-1734.17	  368.96
     64.2700	  721.00	  702.19	-1726.41	  369.04
     64.3700	  797.00	  754.54	-1702.76	  369.12
     64.4700	  873.00	  813.28	-1685.51	  369.21
     64.5700	  932.00	  873.13	-1686.36	  369.29
     64.6700	  937.00	  926.13	-1734.36	  369.38
     64.7700	 1010.00	  963.19	-1698.42	  369.46
     64.8700	  982.00	  976.81	-1740.04	  369.55
     64.9700	  956.00	  965.34	-1754.56	  369.64
     65.0700	  998.00	  932.63	-1679.85	  369.72
     65.1700	  916.00	  885.72	-1714.95	  369.81
     65.2700	  876.00	  833.90	-1703.13	  369.90
     65.3700	  759.00	  783.48	-1769.71	  369.99
     65.4700	  720.00	  738.45	-1763.67	  370.08
     65.5700	  646.00	  700.19	-1799.41	  370.17
     65.6700	  667.00	  668.40	-1746.62	  370.26
     65.7700	  617.00	  642.25	-1770.47	  370.35
     65.8700	  618.00	  621.23	-1748.45	  370.44
     65.9700	  527.00	  604.50	-1822.73	  370.53
     66.0700	  566.00	  591.73	-1770.96	  370.62
     66.1700	  581.00	  582.41	-1746.64	  370.71
     66.2700	  589.00	  576.21	-1732.44	  370.80
     66.3700	  553.00	  572.54	-1764.77	  370.89
     66.4700	  543.00	  571.27	-1773.50	  370.98
     66.5700	  601.00	  572.25	-1716.47	  371.08
     66.6700	  577.00	  575.48	-1743.71	  371.17
     66.7700	  602.00	  581.33	-1724.56	  371.26
     66.8700	  565.00	  590.33	-1770.55	  371.35
     66.9700	  598.00	  603.87	-1751.09	  371.45
     67.0700	  657.00	  624.23	-1712.46	  371.54
     67.1700	  685.00	  654.84	-1715.07	  371.63
     67.2700	  681.00	  700.43	-1764.66	  371.73
     67.3700	  789.00	  766.99	-1723.22	  371.82
     67.4700	  796.00	  861.09	-1810.32	  371.91
     67.5700	  971.00	  988.64	-1762.87	  372.01
     67.6700	 1201.00	 1153.31	-1697.53	  372.10
     67.7700	 1350.00	 1354.32	-1749.55	  372.20
     67.8700	 1566.00	 1584.61	-1763.84	  372.29
     67.9700	 1791.00	 1828.78	-1783.01	  372.39
     68.0700	 2083.00	 2061.95	-1724.18	  372.48
     68.1700	 2217.00	 2249.73	-1777.96	  372.57
     68.2700	 2376.00	 2354.33	-1723.55	  372.67
     68.3700	 2322.00	 2349.72	-1772.95	  372.76
     68.4700	 2270.00	 2237.13	-1712.35	  372.86
     68.5700	 2043.00	 2044.26	-1746.49	  372.95
     68.6700	 1889.00	 1809.20	-1665.42	  373.05
     68.7700	 1583.00	 1565.69	-1727.92	  373.14
     68.8700	 1339.00	 1337.77	-1744.00	  373.24
     68.9700	 1092.00	 1140.06	-1793.29	  373.33
     69.0700	 1014.00	  979.00	-1710.23	  373.43
     69.1700	  808.00	  854.91	-1792.14	  373.52
     69.2700	  766.00	  763.86	-1743.09	  373.62
     69.3700	  685.00	  699.74	-1759.97	  373.71
     69.4700	  663.00	  656.02	-1738.25	  373.80
     69.5700	  618.00	  626.78	-1754.01	  373.90
     69.6700	  601.00	  607.32	-1751.55	  373.99
     69.7700	  555.00	  594.27	-1784.50	  374.09
     69.8700	  559.00	  585.18	-1771.41	  374.18
     69.9700	  577.00	  579.03	-1747.26	  374.28
     70.0700	  623.00	  574.80	-1697.03	  374.37
     70.1700	  567.00	  572.02	-1750.25	  374.46
     70.2700	  574.00	  570.47	-1741.70	  374.56
     70.3700	  528.00	  570.07	-1787.29	  374.65
     70.4700	  607.00	  570.83	-1709.06	  374.74
     70.5700	  554.00	  572.97	-1764.19	  374.84
     70.6700	  564.00	  576.84	-1758.07	  374.93
     70.7700	  591.00	  583.14	-1737.37	  375.02
     70.8700	  589.00	  593.85	-1750.08	  375.11
     70.9700	  634.00	  608.86	-1720.09	  375.21
     71.0700	  650.00	  631.44	-1726.66	  375.30
     71.1700	  645.00	  664.71	-1764.94	  375.39
     71.2700	  705.00	  712.43	-1752.66	  375.48
     71.3700	  772.00	  778.58	-1751.81	  375.57
     71.4700	  852.00	  866.66	-1759.88	  375.66
     71.5700	  919.00	  978.75	-1804.98	  375.75
     71.6700	 1123.00	 1114.42	-1736.65	  375.84
     71.7700	 1258.00	 1269.71	-1756.93	  375.93
     71.8700	 1436.00	 1436.14	-1745.37	  376.02
     71.9700	 1557.00	 1599.96	-1788.19	  376.11
     72.0700	 1666.00	 1741.97	-1821.20	  376.20
     72.1700	 1763.00	 1839.46	-1821.69	  376.29
     72.2700	 1763.00	 1872.56	-1854.79	  376.38
     72.3700	 1823.00	 1833.53	-1755.76	  376.46
     72.4700	 1677.00	 1731.39	-1799.62	  376.55
     72.5700	 1575.00	 1586.61	-1756.83	  376.64
     72.6700	 1492.00	 1421.79	-1675.02	  376.72
     72.7700	 1247.00	 1255.64	-1753.87	  376.81
     72.8700	 1125.00	 1101.34	-1721.57	  376.90
     72.9700	 1034.00	  966.92	-1678.15	  376.98
     73.0700	  864.00	  855.94	-1737.17	  377.07
     73.1700	  821.00	  768.54	-1692.77	  377.15
     73.2700	  768.00	  702.49	-1679.71	  377.23
     73.3700	  722.00	  654.26	-1677.49	  377.32
     73.4700	  656.00	  619.98	-1709.20	  377.40
     73.5700	  650.00	  596.01	-1691.23	  377.48
     73.6700	  669.00	  579.34	-1655.57	  377.56
     73.7700	  617.00	  567.69	-1695.91	  377.65
     73.8700	  570.00	  558.91	-1734.14	  377.73
     73.9700	  581.00	  553.04	-1717.26	  377.81
     74.0700	  552.00	  548.84	-1742.07	  377.89
     74.1700	  552.00	  545.91	-1739.14	  377.96
     74.2700	  594.00	  543.95	-1695.18	  378.04
     74.3700	  574.00	  542.75	-1713.98	  378.12
     74.4700	  629.00	  542.10	-1658.33	  378.20
     74.5700	  566.00	  541.80	-1721.03	  378.27
     74.6700	  596.00	  541.60	-1690.83	  378.35
     74.7700	  642.00	  541.25	-1644.48	  378.43
     74.8700	  633.00	  540.52	-1652.75	  378.50
     74.9700	  622.00	  539.33	-1662.56	  378.57
     75.0700	  611.00	  537.74	-1671.97	  378.65
     75.1700	  596.00	  535.99	-1685.22	  378.72
     75.2700	  573.00	  534.38	-1706.61	  378.79
     75.3700	  635.00	  533.25	-1643.47	  378.86
     75.4700	  623.00	  532.93	-1655.16	  378.94
     75.5700	  613.00	  533.81	-1666.04	  379.01
     75.6700	  561.00	  536.27	-1720.50	  379.07
     75.7700	  611.00	  540.72	-1674.95	  379.14
     75.8700	  598.00	  547.49	-1694.72	  379.21
     75.9700	  574.00	  557.01	-1728.23	  379.28
     76.0700	  580.00	  569.36	-1734.59	  379.34
     76.1700	  530.00	  584.47	-1799.69	  379.41
     76.2700	  648.00	  601.91	-1699.14	  379.47
     76.3700	  632.00	  620.87	-1734.10	  379.54
     76.4700	  650.00	  639.96	-1735.18	  379.60
     76.5700	  664.00	  657.54	-1738.77	  379.66
     76.6700	  691.00	  671.34	-1725.56	  379.73
     76.7700	  672.00	  679.08	-1752.31	  379.79
     76.8700	  668.00	  679.25	-1756.48	  379.85
     76.9700	  664.00	  671.74	-1752.97	  379.91
     77.0700	  680.00	  657.96	-1723.19	  379.96
     77.1700	  603.00	  640.10	-1782.32	  380.02
     77.2700	  629.00	  620.38	-1736.61	  380.08
     77.3700	  578.00	  600.65	-1767.88	  380.13
     77.4700	  574.00	  582.24	-1753.47	  380.19
     77.5700	  583.00	  565.92	-1728.15	  380.24
     77.6700	  564.00	  552.24	-1733.47	  380.30
     77.7700	  541.00	  541.21	-1745.44	  380.35
     77.8700	  515.00	  532.65	-1762.88	  380.40
     77.9700	  504.00	  526.24	-1767.47	  380.45
     78.0700	  512.00	  521.36	-1754.59	  380.50
     78.1700	  481.00	  518.04	-1782.27	  380.55
     78.2700	  501.00	  515.71	-1759.94	  380.60
     78.3700	  531.00	  514.09	-1728.32	  380.64
     78.4700	  547.00	  512.96	-1711.19	  380.69
     78.5700	  457.00	  512.18	-1800.41	  380.73
     78.6700	  538.00	  511.64	-1718.87	  380.78
     78.7700	  518.00	  511.29	-1738.52	  380.82
     78.8700	  508.00	  511.09	-1748.32	  380.86
     78.9700	  529.00	  511.03	-1727.26	  380.90
     79.0700	  526.00	  511.12	-1730.34	  380.94
     79.1700	  482.00	  511.36	-1774.59	  380.98
     79.2700	  465.00	  511.77	-1792.00	  381.02
     79.3700	  492.00	  512.40	-1765.62	  381.05
     79.4700	  524.00	  513.26	-1734.48	  381.09
     79.5700	  501.00	  514.40	-1758.62	  381.13
     79.6700	  493.00	  515.87	-1768.10	  381.16
     79.7700	  491.00	  517.74	-1771.97	  381.19
     79.8700	  513.00	  520.10	-1752.32	  381.22
     79.9700	  510.00	  523.03	-1758.25	  381.25
     80.0700	  490.00	  526.65	-1781.88	  381.28
     80.1700	  538.00	  531.11	-1738.34	  381.31
     80.2700	  488.00	  536.55	-1793.78	  381.34
     80.3700	  527.00	  543.14	-1761.36	  381.36
     80.4700	  514.00	  551.06	-1782.29	  381.39
     80.5700	  510.00	  560.50	-1795.73	  381.41
     80.6700	  576.00	  571.38	-1740.61	  381.43
     80.7700	  553.00	  584.08	-1776.31	  381.46
     80.8700	  612.00	  598.18	-1731.40	  381.48
     80.9700	  600.00	  613.18	-1758.41	  381.50
     81.0700	  627.00	  628.38	-1746.61	  381.51
     81.1700	  701.00	  642.89	-1687.12	  381.53
     81.2700	  662.00	  655.87	-1739.10	  381.55
     81.3700	  697.00	  666.64	-1714.87	  381.56
     81.4700	  663.00	  674.77	-1757.00	  381.57
     81.5700	  711.00	  679.99	-1714.22	  381.59
     81.6700	  676.00	  682.21	-1751.44	  381.60
     81.7700	  723.00	  681.40	-1703.63	  381.61
     81.8700	  750.00	  677.59	-1672.82	  381.62
     81.9700	  706.00	  670.83	-1710.06	  381.62
     82.0700	  700.00	  661.37	-1706.60	  381.63
     82.1700	  704.00	  649.75	-1690.98	  381.64
     82.2700	  688.00	  636.76	-1693.98	  381.64
     82.3700	  695.00	  623.16	-1673.39	  381.64
     82.4700	  599.00	  609.57	-1755.80	  381.64
     82.5700	  609.00	  596.40	-1732.63	  381.64
     82.6700	  572.00	  583.97	-1757.20	  381.64
     82.7700	  560.00	  572.57	-1757.79	  381.64
     82.8700	  586.00	  562.47	-1721.69	  381.64
     82.9700	  551.00	  553.92	-1748.15	  381.63
     83.0700	  500.00	  547.08	-1792.31	  381.62
     83.1700	  542.00	  542.03	-1745.26	  381.62
     83.2700	  515.00	  538.77	-1769.00	  381.61
     83.3700	  548.00	  537.25	-1734.48	  381.60
     83.4700	  531.00	  537.35	-1751.57	  381.59
     83.5700	  519.00	  538.87	-1765.09	  381.57
     83.6700	  516.00	  541.55	-1770.78	  381.56
     83.7700	  520.00	  545.07	-1770.30	  381.55
     83.8700	  550.00	  549.03	-1744.26	  381.53
     83.9700	  545.00	  552.86	-1753.08	  381.51
     84.0700	  550.00	  556.14	-1751.36	  381.49
     84.1700	  562.00	  558.33	-1741.55	  381.47
     84.2700	  507.00	  558.96	-1797.18	  381.45
     84.3700	  541.00	  557.83	-1762.06	  381.43
     84.4700	  540.00	  555.05	-1760.27	  381.40
     84.5700	  540.00	  550.96	-1756.19	  381.38
     84.6700	  538.00	  546.04	-1753.27	  381.35
     84.7700	  545.00	  540.74	-1740.97	  381.32
     84.8700	  501.00	  535.44	-1779.67	  381.29
     84.9700	  553.00	  530.45	-1722.68	  381.26
     85.0700	  519.00	  525.98	-1752.21	  381.23
     85.1700	  477.00	  522.14	-1790.37	  381.19
     85.2700	  480.00	  518.98	-1784.21	  381.16
     85.3700	  498.00	  516.52	-1763.74	  381.12
     85.4700	  512.00	  514.69	-1747.92	  381.08
     85.5700	  495.00	  513.43	-1763.66	  381.04
     85.6700	  524.00	  512.67	-1733.90	  381.00
     85.7700	  491.00	  512.35	-1766.58	  380.96
     85.8700	  533.00	  512.42	-1724.65	  380.92
     85.9700	  543.00	  512.88	-1715.10	  380.87
     86.0700	  562.00	  513.72	-1696.95	  380.83
     86.1700	  541.00	  515.02	-1719.24	  380.78
     86.2700	  543.00	  516.83	-1719.06	  380.73
     86.3700	  521.00	  519.27	-1743.50	  380.68
     86.4700	  483.00	  522.46	-1784.69	  380.63
     86.5700	  523.00	  526.53	-1748.76	  380.57
     86.6700	  515.00	  531.60	-1761.83	  380.52
     86.7700	  543.00	  537.77	-1740.00	  380.46
     86.8700	  514.00	  545.09	-1776.32	  380.41
     86.9700	  551.00	  553.53	-1747.76	  380.35
     87.0700	  585.00	  562.97	-1723.20	  380.29
     87.1700	  576.00	  573.15	-1742.38	  380.23
     87.2700	  591.00	  583.67	-1737.90	  380.16
     87.3700	  607.00	  593.98	-1732.21	  380.10
     87.4700	  600.00	  603.39	-1748.62	  380.03
     87.5700	  576.00	  611.08	-1780.31	  379.97
     87.6700	  626.00	  616.26	-1735.49	  379.90
     87.7700	  633.00	  618.33	-1730.56	  379.83
     87.8700	  660.00	  617.08	-1702.31	  379.76
     87.9700	  637.00	  612.79	-1721.01	  379.68
     88.0700	  575.00	  606.10	-1776.32	  379.61
     88.1700	  625.00	  597.86	-1718.09	  379.53
     88.2700	  590.00	  588.94	-1744.17	  379.45
     88.3700	  534.00	  580.12	-1791.35	  379.38
     88.4700	  567.00	  571.60	-1749.83	  379.30
     88.5700	  560.00	  564.77	-1749.99	  379.21
     88.6700	  571.00	  559.52	-1733.75	  379.13
     88.7700	  561.00	  556.05	-1740.28	  379.05
     88.8700	  538.00	  554.40	-1761.63	  378.96
     88.9700	  552.00	  554.46	-1747.69	  378.87
     89.0700	  568.00	  555.99	-1733.22	  378.79
     89.1700	  585.00	  558.66	-1718.89	  378.70
     89.2700	  575.00	  562.03	-1732.26	  378.60
     89.3700	  577.00	  565.60	-1733.83	  378.51
     89.4700	  592.00	  568.81	-1722.03	  378.42
     89.5700	  604.00	  571.11	-1712.33	  378.32
     89.6700	  611.00	  572.04	-1706.27	  378.22
     89.7700	  520.00	  571.33	-1796.56	  378.13
     89.8700	  562.00	  568.97	-1752.20	  378.03
     89.9700	  555.00	  565.18	-1755.41	  377.92
     90.0700	  531.00	  560.34	-1774.57	  377.82
     90.1700	  502.00	  554.86	-1798.09	  377.72
     90.2700	  520.00	  549.14	-1774.37	  377.61
     90.3700	  481.00	  543.51	-1807.73	  377.50
     90.4700	  524.00	  538.22	-1759.45	  377.40
     90.5700	  479.00	  533.46	-1799.69	  377.29
     90.6700	  509.00	  529.35	-1765.58	  377.18
     90.7700	  526.00	  525.94	-1745.16	  377.06
     90.8700	  490.00	  523.23	-1778.46	  376.95
     90.9700	  493.00	  521.20	-1773.42	  376.83
     91.0700	  527.00	  519.79	-1738.02	  376.72
     91.1700	  524.00	  518.94	-1740.17	  376.60
     91.2700	  505.00	  518.62	-1758.84	  376.48
     91.3700	  483.00	  518.77	-1780.99	  376.36
     91.4700	  522.00	  519.39	-1742.61	  376.23
     91.5700	  530.00	  520.50	-1735.73	  376.11
     91.6700	  510.00	  522.16	-1757.39	  375.99
     91.7700	  487.00	  524.45	-1782.68	  375.86
     91.8700	  478.00	  527.50	-1794.73	  375.73
     91.9700	  510.00	  531.45	-1766.68	  375.60
     92.0700	  530.00	  536.46	-1751.69	  375.47
     92.1700	  519.00	  542.71	-1768.93	  375.34
     92.2700	  563.00	  550.34	-1732.57	  375.21
     92.3700	  512.00	  559.49	-1792.72	  375.07
     92.4700	  517.00	  570.24	-1798.47	  374.93
     92.5700	  544.00	  582.60	-1783.83	  374.80
     92.6700	  605.00	  596.51	-1736.73	  374.66
     92.7700	  577.00	  611.79	-1780.02	  374.52
     92.8700	  581.00	  628.18	-1792.41	  374.38
     92.9700	  657.00	  645.29	-1733.52	  374.23
     93.0700	  695.00	  662.62	-1712.85	  374.09
     93.1700	  648.00	  679.57	-1776.80	  373.94
     93.2700	  670.00	  695.55	-1770.78	  373.80
     93.3700	  691.00	  710.09	-1764.32	  373.65
     93.4700	  711.00	  723.00	-1757.22	  373.50
     93.5700	  782.00	  734.41	-1697.64	  373.35
     93.6700	  715.00	  744.79	-1775.02	  373.20
     93.7700	  704.00	  754.69	-1795.92	  373.04
     93.8700	  785.00	  764.34	-1724.57	  372.89
     93.9700	  751.00	  774.75	-1768.97	  372.73
     94.0700	  833.00	  785.78	-1698.01	  372.58
     94.1700	  852.00	  797.51	-1690.74	  372.42
     94.2700	  910.00	  809.98	-1645.20	  372.26
     94.3700	  846.00	  823.19	-1722.42	  372.10
     94.4700	  903.00	  837.13	-1679.35	  371.94
     94.5700	  857.00	  851.58	-1739.81	  371.77
     94.6700	  865.00	  866.08	-1746.31	  371.61
     94.7700	  928.00	  879.78	-1697.01	  371.44
     94.8700	  897.00	  891.49	-1739.71	  371.27
     94.9700	  932.00	  899.77	-1712.99	  371.11
     95.0700	  917.00	  903.15	-1731.38	  370.94
     95.1700	  865.00	  900.50	-1780.73	  370.77
     95.2700	  901.00	  891.33	-1735.56	  370.59
     95.3700	  795.00	  875.97	-1826.19	  370.42
     95.4700	  835.00	  855.54	-1765.76	  370.25
     95.5700	  818.00	  831.65	-1758.87	  370.07
     95.6700	  832.00	  806.13	-1719.36	  369.90
     95.7700	  784.00	  780.81	-1742.04	  369.72
     95.8700	  753.00	  757.41	-1749.63	  369.54
     95.9700	  751.00	  737.47	-1731.70	  369.36
     96.0700	  710.00	  722.41	-1757.63	  369.18
     96.1700	  691.00	  713.43	-1767.65	  369.00
     96.2700	  723.00	  711.58	-1733.81	  368.81
     96.3700	  688.00	  717.73	-1774.96	  368.63
     96.4700	  724.00	  732.57	-1753.80	  368.44
     96.5700	  725.00	  756.55	-1776.78	  368.26
     96.6700	  807.00	  789.91	-1728.14	  368.07
     96.7700	  841.00	  832.58	-1736.80	  367.88
     96.8700	  857.00	  884.12	-1772.35	  367.69
     96.9700	  917.00	  943.70	-1771.93	  367.50
     97.0700	  986.00	 1010.00	-1769.23	  367.31
     97.1700	 1046.00	 1081.16	-1780.39	  367.11
     97.2700	 1148.00	 1154.80	-1752.03	  366.92
     97.3700	 1142.00	 1227.90	-1831.13	  366.73
     97.4700	 1312.00	 1296.91	-1730.13	  366.53
     97.5700	 1279.00	 1357.83	-1824.06	  366.33
     97.6700	 1416.00	 1406.57	-1735.80	  366.14
     97.7700	 1425.00	 1439.40	-1759.63	  365.94
     97.8700	 1499.00	 1453.69	-1699.91	  365.74
     97.9700	 1420.00	 1448.49	-1773.71	  365.54
     98.0700	 1414.00	 1424.79	-1756.02	  365.33
     98.1700	 1412.00	 1385.22	-1718.45	  365.13
     98.2700	 1317.00	 1333.37	-1761.60	  364.93
     98.3700	 1240.00	 1273.27	-1778.50	  364.72
     98.4700	 1121.00	 1208.86	-1833.09	  364.52
     98.5700	 1124.00	 1143.76	-1764.99	  364.31
     98.6700	 1083.00	 1081.15	-1743.38	  364.11
     98.7700	 1067.00	 1023.70	-1701.93	  363.90
     98.8700	  904.00	  973.65	-1814.87	  363.69
     98.9700	  895.00	  932.78	-1783.00	  363.48
     99.0700	  936.00	  902.51	-1711.74	  363.27
     99.1700	  830.00	  883.89	-1799.12	  363.06
     99.2700	  879.00	  877.68	-1743.90	  362.85
     99.3700	  896.00	  884.34	-1733.57	  362.64
     99.4700	  884.00	  904.09	-1765.31	  362.42
     99.5700	 1008.00	  936.85	-1674.08	  362.21
     99.6700	  989.00	  982.28	-1738.51	  361.99
     99.7700	 1008.00	 1039.77	-1777.00	  361.78
     99.8700	 1058.00	 1108.36	-1795.59	  361.56
     99.9700	 1235.00	 1186.70	-1696.93	  361.35
    100.0700	 1299.00	 1272.96	-1719.18	  361.13
    100.1700	 1343.00	 1364.91	-1767.14	  360.91
    100.2700	 1441.00	 1459.74	-1763.97	  360.69
    100.3700	 1580.00	 1554.17	-1719.40	  360.47
    100.4700	 1632.00	 1644.62	-1757.85	  360.25
    100.5700	 1758.00	 1727.54	-1714.77	  360.03
    100.6700	 1787.00	 1799.84	-1758.07	  359.81
    100.7700	 1910.00	 1859.18	-1694.41	  359.59
    100.8700	 1970.00	 1904.04	-1679.27	  359.37
    100.9700	 1991.00	 1933.55	-1687.78	  359.14
    101.0700	 1930.00	 1947.15	-1762.38	  358.92
    101.1700	 1967.00	 1944.48	-1722.71	  358.70
    101.2700	 1974.00	 1925.40	-1696.63	  358.47
    101.3700	 1950.00	 1890.34	-1685.57	  358.25
    101.4700	 1875.00	 1840.74	-1710.97	  358.02
    101.5700	 1788.00	 1779.15	-1736.37	  357.80
    101.6700	 1674.00	 1709.02	-1780.25	  357.57
    101.7700	 1589.00	 1634.24	-1790.47	  357.35
    101.8700	 1498.00	 1558.63	-1805.86	  357.12
    101.9700	 1522.00	 1485.51	-1708.73	  356.89
    102.0700	 1411.00	 1417.46	-1751.69	  356.67
    102.1700	 1402.00	 1356.27	-1699.49	  356.44
    102.2700	 1318.00	 1302.86	-1730.09	  356.21
    102.3700	 1263.00	 1257.45	-1739.67	  355.98
    102.4700	 1218.00	 1219.53	-1746.75	  355.75
    102.5700	 1183.00	 1188.00	-1750.23	  355.52
    102.6700	 1139.00	 1161.26	-1767.49	  355.30
    102.7700	 1145.00	 1137.35	-1737.58	  355.07
    102.8700	 1080.00	 1114.23	-1779.46	  354.84
    102.9700	 1104.00	 1090.03	-1731.26	  354.61
    103.0700	 1015.00	 1063.35	-1793.58	  354.38
    103.1700	 1052.00	 1033.42	-1726.65	  354.15
    103.2700	  998.00	 1000.15	-1747.37	  353.92
    103.3700	  976.00	  964.00	-1733.23	  353.69
    103.4700	  974.00	  925.81	-1697.03	  353.46
    103.5700	  870.00	  886.53	-1761.76	  353.23
    103.6700	  871.00	  847.14	-1721.37	  353.00
    103.7700	  797.00	  808.56	-1756.79	  352.77
    103.8700	  723.00	  771.56	-1793.79	  352.54
    103.9700	  747.00	  736.80	-1735.03	  352.31
    104.0700	  739.00	  704.76	-1710.99	  352.08
    104.1700	  688.00	  675.78	-1733.00	  351.85
    104.2700	  645.00	  650.04	-1750.26	  351.62
    104.3700	  613.00	  627.58	-1759.81	  351.39
    104.4700	  698.00	  608.35	-1655.58	  351.16
    104.5700	  576.00	  592.17	-1761.40	  350.93
    104.6700	  577.00	  578.80	-1747.03	  350.70
    104.7700	  578.00	  567.96	-1735.19	  350.47
    104.8700	  583.00	  559.36	-1721.58	  350.24
    104.9700	  562.00	  552.69	-1735.92	  350.01
    105.0700	  524.00	  547.69	-1768.92	  349.78
    105.1700	  582.00	  544.11	-1707.34	  349.56
    105.2700	  520.00	  541.73	-1766.96	  349.33
    105.3700	  582.00	  540.39	-1703.62	  349.10
    105.4700	  536.00	  539.96	-1749.19	  348.87
    105.5700	  554.00	  540.34	-1731.57	  348.65
    105.6700	  536.00	  541.47	-1750.70	  348.42
    105.7700	  525.00	  543.31	-1763.53	  348.19
    105.8700	  550.00	  545.87	-1741.09	  347.97
    105.9700	  556.00	  549.15	-1738.38	  347.74
    106.0700	  593.00	  553.20	-1705.43	  347.52
    106.1700	  578.00	  558.05	-1725.27	  347.30
    106.2700	  596.00	  563.72	-1712.95	  347.07
    106.3700	  533.00	  570.28	-1782.51	  346.85
    106.4700	  621.00	  577.71	-1701.94	  346.63
    106.5700	  640.00	  585.99	-1691.22	  346.41
    106.6700	  553.00	  595.03	-1787.26	  346.19
    106.7700	  637.00	  604.72	-1712.95	  345.97
    106.8700	  622.00	  614.87	-1738.10	  345.75
    106.9700	  600.00	  625.26	-1770.49	  345.53
    107.0700	  647.00	  635.62	-1733.84	  345.31
    107.1700	  680.00	  645.61	-1710.83	  345.09
    107.2700	  673.00	  654.87	-1727.09	  344.88
    107.3700	  658.00	  663.08	-1750.31	  344.66
    107.4700	  689.00	  669.90	-1726.13	  344.45
    107.5700	  659.00	  675.08	-1761.31	  344.23
    107.6700	  640.00	  678.52	-1783.75	  344.02
    107.7700	  650.00	  680.26	-1775.48	  343.81
    107.8700	  695.00	  680.48	-1730.71	  343.60
    107.9700	  639.00	  679.54	-1785.77	  343.39
    108.0700	  678.00	  677.82	-1745.05	  343.18
    108.1700	  691.00	  675.73	-1729.96	  342.97
    108.2700	  686.00	  673.65	-1732.88	  342.77
    108.3700	  678.00	  671.88	-1739.11	  342.56
    108.4700	  647.00	  670.66	-1768.89	  342.36
    108.5700	  648.00	  670.11	-1767.34	  342.15
    108.6700	  657.00	  670.27	-1758.50	  341.95
    108.7700	  676.00	  671.08	-1740.31	  341.75
    108.8700	  661.00	  672.37	-1756.60	  341.55
    108.9700	  687.00	  673.90	-1732.13	  341.36
    109.0700	  700.00	  675.35	-1720.57	  341.16
    109.1700	  663.00	  676.33	-1758.56	  340.96
    109.2700	  676.00	  676.49	-1745.71	  340.77
    109.3700	  671.00	  675.46	-1749.69	  340.58
    109.4700	  715.00	  673.00	-1703.22	  340.39
    109.5700	  681.00	  668.96	-1733.19	  340.20
    109.6700	  664.00	  663.37	-1744.60	  340.01
    109.7700	  653.00	  656.37	-1748.59	  339.82
    109.8700	  669.00	  648.18	-1724.40	  339.64
    109.9700	  625.00	  639.10	-1759.33	  339.46
    110.0700	  625.00	  629.44	-1749.67	  339.27
    110.1700	  636.00	  619.52	-1728.75	  339.09
    110.2700	  596.00	  609.60	-1758.83	  338.92
    110.3700	  585.00	  599.93	-1760.16	  338.74
    110.4700	  627.00	  590.75	-1708.97	  338.57
    110.5700	  592.00	  582.20	-1735.43	  338.39
    110.6700	  583.00	  574.43	-1736.66	  338.22
    110.7700	  596.00	  567.53	-1716.76	  338.05
    110.8700	  548.00	  561.56	-1758.78	  337.89
    110.9700	  546.00	  556.53	-1755.76	  337.72
    111.0700	  591.00	  552.46	-1706.68	  337.56
    111.1700	  592.00	  549.30	-1702.52	  337.40
    111.2700	  559.00	  547.00	-1733.22	  337.24
    111.3700	  552.00	  545.50	-1738.72	  337.08
    111.4700	  590.00	  544.72	-1699.95	  336.93
    111.5700	  502.00	  544.59	-1787.81	  336.78
    111.6700	  573.00	  545.01	-1717.24	  336.63
    111.7700	  546.00	  545.92	-1745.15	  336.48
    111.8700	  541.00	  547.24	-1751.47	  336.33
    111.9700	  573.00	  548.90	-1721.13	  336.19
    112.0700	  545.00	  550.84	-1751.07	  336.05
    112.1700	  569.00	  553.02	-1729.24	  335.91
    112.2700	  589.00	  555.39	-1711.62	  335.77
    112.3700	  576.00	  557.95	-1727.18	  335.64
    112.4700	  552.00	  560.68	-1753.91	  335.51
    112.5700	  557.00	  563.61	-1751.84	  335.38
    112.6700	  545.00	  566.76	-1766.98	  335.25
    112.7700	  538.00	  570.16	-1777.39	  335.13
    112.8700	  557.00	  573.89	-1762.12	  335.01
    112.9700	  603.00	  578.00	-1720.23	  334.89
    113.0700	  593.00	  582.59	-1734.82	  334.77
    113.1700	  608.00	  587.77	-1725.00	  334.66
    113.2700	  563.00	  593.67	-1775.90	  334.55
    113.3700	  635.00	  600.47	-1710.70	  334.45
    113.4700	  575.00	  608.38	-1778.60	  334.34
    113.5700	  632.00	  617.67	-1730.90	  334.24
    113.6700	  651.00	  628.70	-1722.93	  334.14
    113.7700	  646.00	  641.90	-1741.13	  334.05
    113.8700	  678.00	  657.82	-1725.05	  333.95
    113.9700	  698.00	  677.12	-1724.34	  333.87
    114.0700	  708.00	  700.63	-1737.85	  333.78
    114.1700	  759.00	  729.33	-1715.56	  333.70
    114.2700	  757.00	  764.40	-1752.62	  333.62
    114.3700	  780.00	  807.20	-1772.43	  333.54
    114.4700	  883.00	  859.30	-1721.53	  333.47
    114.5700	  897.00	  922.48	-1770.71	  333.40
    114.6700	 1064.00	  998.67	-1679.90	  333.33
    114.7700	 1111.00	 1089.95	-1724.17	  333.27
    114.8700	 1217.00	 1198.51	-1726.74	  333.21
    114.9700	 1348.00	 1326.54	-1723.76	  333.16
    115.0700	 1519.00	 1476.19	-1702.42	  333.10
    115.1700	 1754.00	 1649.41	-1640.64	  333.05
    115.2700	 1918.00	 1847.82	-1675.04	  333.01
    115.3700	 2210.00	 2072.69	-1607.92	  332.97
    115.4700	 2379.00	 2324.59	-1690.82	  332.93
    115.5700	 2688.00	 2603.53	-1660.76	  332.90
    115.6700	 3008.00	 2908.51	-1645.74	  332.87
    115.7700	 3217.00	 3237.63	-1765.86	  332.84
    115.8700	 3517.00	 3588.03	-1816.26	  332.82
    115.9700	 4022.00	 3955.54	-1678.76	  332.80
    116.0700	 4344.00	 4335.06	-1736.29	  332.79
    116.1700	 4741.00	 4720.19	-1724.41	  332.78
    116.2700	 4924.00	 5103.39	-1924.62	  332.77
    116.3700	 5380.00	 5476.27	-1841.49	  332.77
    116.4700	 5835.00	 5829.29	-1739.52	  332.77
    116.5700	 6167.00	 6152.48	-1730.71	  332.78
    116.6700	 6505.00	 6435.36	-1675.59	  332.79
    116.7700	 6535.00	 6667.77	-1878.00	  332.80
    116.8700	 6766.00	 6840.61	-1819.83	  332.82
    116.9700	 6910.00	 6946.51	-1781.74	  332.85
    117.0700	 6941.00	 6980.91	-1785.14	  332.88
    117.1700	 6855.00	 6942.43	-1832.66	  332.91
    117.2700	 6760.00	 6833.22	-1818.44	  332.95
    117.3700	 6506.00	 6658.52	-1897.75	  332.99
    117.4700	 6451.00	 6426.18	-1720.41	  333.03
    117.5700	 5991.00	 6145.52	-1899.75	  333.09
    117.6700	 5594.00	 5826.77	-1978.00	  333.14
    117.7700	 5498.00	 5480.26	-1727.49	  333.20
    117.8700	 5154.00	 5115.74	-1706.96	  333.27
    117.9700	 4806.00	 4742.39	-1681.62	  333.34
    118.0700	 4391.00	 4368.24	-1722.46	  333.42
    118.1700	 4023.00	 4000.37	-1722.60	  333.50
    118.2700	 3824.00	 3644.74	-1565.97	  333.58
    118.3700	 3424.00	 3306.02	-1627.24	  333.67
    118.4700	 2973.00	 2987.89	-1760.12	  333.77
    118.5700	 2747.00	 2692.82	-1691.05	  333.87
    118.6700	 2499.00	 2422.40	-1668.63	  333.98
    118.7700	 2179.00	 2177.35	-1743.57	  334.09
    118.8700	 1933.00	 1957.51	-1769.73	  334.21
    118.9700	 1761.00	 1762.26	-1746.48	  334.33
    119.0700	 1684.00	 1590.36	-1651.59	  334.46
    119.1700	 1433.00	 1440.31	-1752.54	  334.59
    119.2700	 1263.00	 1310.34	-1792.57	  334.73
    119.3700	 1206.00	 1198.49	-1737.72	  334.88
    119.4700	 1131.00	 1102.82	-1717.04	  335.03
    119.5700	 1038.00	 1021.35	-1728.57	  335.19
    119.6700	  939.00	  952.24	-1758.46	  335.35
    119.7700	  903.00	  893.77	-1736.00	  335.52
    119.8700	  887.00	  844.38	-1702.60	  335.69
    119.9700	  772.00	  802.67	-1775.89	  335.87
    120.0700	  808.00	  767.42	-1704.65	  336.06
    120.1700	  723.00	  737.61	-1759.84	  336.25
    120.2700	  653.00	  712.36	-1804.59	  336.45
    120.3700	  678.00	  690.93	-1758.16	  336.65
    120.4700	  677.00	  672.73	-1740.95	  336.86
    120.5700	  623.00	  657.24	-1779.47	  337.08
    120.6700	  620.00	  644.07	-1769.30	  337.30
    120.7700	  617.00	  632.90	-1761.13	  337.53
    120.8700	  638.00	  623.46	-1730.69	  337.77
    120.9700	  624.00	  615.55	-1736.77	  338.01
    121.0700	  563.00	  608.97	-1791.20	  338.26
    121.1700	  608.00	  603.61	-1740.83	  338.52
    121.2700	  574.00	  599.33	-1770.56	  338.78
    121.3700	  560.00	  596.05	-1781.28	  339.05
    121.4700	  570.00	  593.68	-1768.91	  339.33
    121.5700	  596.00	  592.15	-1741.38	  339.61
    121.6700	  567.00	  591.39	-1769.62	  339.90
    121.7700	  571.00	  591.34	-1765.57	  340.20
    121.8700	  602.00	  591.93	-1735.16	  340.51
    121.9700	  547.00	  593.11	-1791.34	  340.82
    122.0700	  612.00	  594.80	-1728.03	  341.14
    122.1700	  603.00	  596.95	-1739.18	  341.46
    122.2700	  552.00	  599.47	-1792.69	  341.80
    122.3700	  579.00	  602.28	-1768.50	  342.14
    122.4700	  628.00	  605.29	-1722.52	  342.49
    122.5700	  618.00	  608.43	-1735.66	  342.84
    122.6700	  585.00	  611.58	-1771.81	  343.20
    122.7700	  599.00	  614.65	-1760.88	  343.58
    122.8700	  602.00	  617.53	-1760.76	  343.95
    122.9700	  615.00	  620.12	-1750.35	  344.34
    123.0700	  632.00	  622.33	-1735.56	  344.73
    123.1700	  622.00	  624.07	-1747.29	  345.14
    123.2700	  675.00	  625.26	-1695.49	  345.55
    123.3700	  616.00	  625.88	-1755.11	  345.96
    123.4700	  633.00	  625.89	-1738.12	  346.39
    123.5700	  630.00	  625.31	-1740.54	  346.82
    123.6700	  634.00	  624.16	-1735.39	  347.27
    123.7700	  656.00	  622.49	-1711.71	  347.72
    123.8700	  636.00	  620.33	-1729.56	  348.18
    123.9700	  571.00	  617.80	-1792.03	  348.64
    124.0700	  643.00	  614.95	-1717.18	  349.12
    124.1700	  600.00	  611.85	-1757.08	  349.60
    124.2700	  604.00	  608.57	-1749.79	  350.10
    124.3700	  599.00	  605.17	-1751.39	  350.60
    124.4700	  552.00	  601.71	-1794.94	  351.11
    124.5700	  601.00	  598.26	-1742.49	  351.63
    124.6700	  617.00	  594.86	-1723.08	  352.16
    124.7700	  596.00	  591.55	-1740.77	  352.69
    124.8700	  642.00	  588.37	-1691.59	  353.24
    124.9700	  562.00	  464.72	-1647.94	  353.79
    125.0700	  564.00	  465.28	-1745.23	  354.36
    125.1700	  551.00	  465.85	-1745.23	  354.93
    125.2700	  566.00	  466.44	-1745.23	  355.51
    125.3700	  581.00	  467.03	-1745.23	  356.11
    125.4700	  577.00	  467.63	-1745.23	  356.71
    125.5700	  575.00	  468.24	-1745.23	  357.32
    125.6700	  547.00	  468.86	-1745.23	  357.94
    125.7700	  603.00	  469.49	-1745.23	  358.57
    125.8700	  565.00	  470.13	-1745.23	  359.21
    125.9700	  538.00	  470.78	-1745.23	  359.86
    126.0700	  581.00	  471.44	-1745.23	  360.52
    126.1700	  586.00	  472.11	-1745.23	  361.19
    126.2700	  594.00	  472.79	-1745.23	  361.86
    126.3700	  576.00	  473.48	-1745.23	  362.55
    126.4700	  565.00	  474.18	-1745.23	  363.25
    126.5700	  556.00	  474.89	-1745.23	  363.96
    126.6700	  592.00	  475.61	-1745.23	  364.68
    126.7700	  568.00	  476.34	-1745.23	  365.41
    126.8700	  536.00	  477.08	-1745.23	  366.15
    126.9700	  575.00	  477.83	-1745.23	  366.90
    127.0700	  537.00	  478.59	-1745.23	  367.67
    127.1700	  565.00	  479.36	-1745.23	  368.44
    127.2700	  569.00	  480.14	-1745.23	  369.22
    127.3700	  560.00	  480.94	-1745.23	  370.02
    127.4700	  566.00	  481.74	-1745.23	  370.82
    127.5700	  602.00	  482.56	-1745.23	  371.64
    127.6700	  627.00	  483.38	-1745.23	  372.46
    127.7700	  573.00	  484.22	-1745.23	  373.30
    127.8700	  637.00	  485.07	-1745.23	  374.15
    127.9700	  585.00	  485.93	-1745.23	  375.01
    128.0700	  644.00	  486.80	-1745.23	  375.88
    128.1700	  627.00	  487.69	-1745.23	  376.76
    128.2700	  671.00	  488.58	-1745.23	  377.66
    128.3700	  660.00	  489.49	-1745.23	  378.56
    128.4700	  692.00	  490.40	-1745.23	  379.48
    128.5700	    1.00	  491.33	-1745.23	  380.41
    128.6700	    0.00	  492.27	-1745.23	  381.35
     12.3499	        	        	        	        	       0	(  0  0  2)	  0  1
     24.9708	        	        	        	        	       0	(  0  0  4)	  0  1
     28.4006	        	        	        	        	       0	(  1  0  0)	  0  1
     29.1005	        	        	        	        	       0	(  1  0  1)	  0  1
     31.1143	        	        	        	        	       0	(  1  0  2)	  0  1
     34.2341	        	        	        	        	       0	(  1  0  3)	  0  1
     37.9106	        	        	        	        	       0	(  0  0  6)	  0  1
     38.2257	        	        	        	        	       0	(  1  0  4)	  0  1
     42.8928	        	        	        	        	       0	(  1  0  5)	  0  1
     48.0958	        	        	        	        	       0	(  1  0  6)	  0  1
     50.3907	        	        	        	        	       0	(  1  1  0)	  0  1
     51.3778	        	        	        	        	       0	(  0  0  8)	  0  1
     52.1209	        	        	        	        	       0	(  1  1  2)	  0  1
     53.7474	        	        	        	        	       0	(  1  0  7)	  0  1
     57.0895	        	        	        	        	       0	(  1  1  4)	  0  1
     58.9108	        	        	        	        	       0	(  2  0  0)	  0  1
     59.3041	        	        	        	        	       0	(  2  0  1)	  0  1
     59.8013	        	        	        	        	       0	(  1  0  8)	  0  1
     60.4746	        	        	        	        	       0	(  2  0  2)	  0  1
     62.3962	        	        	        	        	       0	(  2  0  3)	  0  1
     64.8170	        	        	        	        	       0	(  1  1  6)	  0  1
     65.0320	        	        	        	        	       0	(  2  0  4)	  0  1
     65.6610	        	        	        	        	       0	(  0  0 10)	  0  1
     66.2439	        	        	        	        	       0	(  1  0  9)	  0  1
     68.3411	        	        	        	        	       0	(  2  0  5)	  0  1
     72.2867	        	        	        	        	       0	(  2  0  6)	  0  1
     73.0897	        	        	        	        	       0	(  1  0 10)	  0  1
     74.9003	        	        	        	        	       0	(  1  1  8)	  0  1
     76.8426	        	        	        	        	       0	(  2  0  7)	  0  1
     80.3818	        	        	        	        	       0	(  1  0 11)	  0  1
     81.2111	        	        	        	        	       0	(  0  0 12)	  0  1
     81.2236	        	        	        	        	       0	(  2  1  0)	  0  1
     81.5653	        	        	        	        	       0	(  2  1  1)	  0  1
     81.9988	        	        	        	        	       0	(  2  0  8)	  0  1
     82.5885	        	        	        	        	       0	(  2  1  2)	  0  1
     84.2889	        	        	        	        	       0	(  2  1  3)	  0  1
     86.6615	        	        	        	        	       0	(  2  1  4)	  0  1
     87.2345	        	        	        	        	       0	(  1  1 10)	  0  1
     87.7677	        	        	        	        	       0	(  2  0  9)	  0  1
     88.1971	        	        	        	        	       0	(  1  0 12)	  0  1
     89.7044	        	        	        	        	       0	(  2  1  5)	  0  1
     93.4238	        	        	        	        	       0	(  2  1  6)	  0  1
     94.1927	        	        	        	        	       0	(  2  0 10)	  0  1
     95.1704	        	        	        	        	       0	(  3  0  0)	  0  1
     95.5099	        	        	        	        	       0	(  3  0  1)	  0  1
     96.5295	        	        	        	        	       0	(  3  0  2)	  0  1
     96.6611	        	        	        	        	       0	(  1  0 13)	  0  1
     97.8400	        	        	        	        	       0	(  2  1  7)	  0  1
     98.2337	        	        	        	        	       0	(  3  0  3)	  0  1
     98.8525	        	        	        	        	       0	(  0  0 14)	  0  1
    100.6326	        	        	        	        	       0	(  3  0  4)	  0  1
    101.3616	        	        	        	        	       0	(  2  0 11)	  0  1
    102.1985	        	        	        	        	       0	(  1  1 12)	  0  1
    102.9975	        	        	        	        	       0	(  2  1  8)	  0  1
    103.7458	        	        	        	        	       0	(  3  0  5)	  0  1
    105.9802	        	        	        	        	       0	(  1  0 14)	  0  1
    107.6095	        	        	        	        	       0	(  3  0  6)	  0  1
    108.9796	        	        	        	        	       0	(  2  1  9)	  0  1
    109.4344	        	        	        	        	       0	(  2  0 12)	  0  1
    112.2878	        	        	        	        	       0	(  3  0  7)	  0  1
    115.9373	        	        	        	        	       0	(  2  1 10)	  0  1
    116.5181	        	        	        	        	       0	(  1  0 15)	  0  1
    117.0269	        	        	        	        	       0	(  2  2  0)	  0  1
    117.8924	        	        	        	        	       0	(  3  0  8)	  0  1
    118.5566	        	        	        	        	       0	(  2  2  2)	  0  1
    118.7057	        	        	        	        	       0	(  2  0 13)	  0  1
    120.5324	        	        	        	        	       0	(  0  0 16)	  0  1
    121.2143	        	        	        	        	       0	(  1  1 14)	  0  1
    123.2908	        	        	        	        	       0	(  2  2  4)	  0  1
    124.1520	        	        	        	        	       0	(  2  1 11)	  0  1
    124.6250	        	        	        	        	       0	(  3  0  9)	  0  1
    125.1640	        	        	        	        	       0	(  3  1  0)	  0  1
    125.5791	        	        	        	        	       0	(  3  1  1)	  0  1
    126.8374	        	        	        	        	       0	(  3  1  2)	  0  1
    128.9825	        	        	        	        	       0	(  3  1  3)	  0  1
    129.0176	        	        	        	        	       0	(  1  0 16)	  0  1
    129.7753	        	        	        	        	       0	(  2  0 14)	  0  1
    131.8387	        	        	        	        	       0	(  2  2  6)	  0  1
    132.1012	        	        	        	        	       0	(  3  1  4)	  0  1
    132.8788	        	        	        	        	       0	(  3  0 10)	  0  1
    134.2086	        	        	        	        	       0	(  2  1 12)	  0  1
    136.3551	        	        	        	        	       0	(  3  1  5)	  0  1
    142.0609	        	        	        	        	       0	(  3  1  6)	  0  1
    143.5711	        	        	        	        	       0	(  3  0 11)	  0  1
    144.2134	        	        	        	        	       0	(  2  0 15)	  0  1
    145.5509	        	        	        	        	       0	(  1  0 17)	  0  1
    146.3641	        	        	        	        	       0	(  2  2  8)	  0  1
    147.6826	        	        	        	        	       0	(  2  1 13)	  0  1
    149.9485	        	        	        	        	       0	(  3  1  7)	  0  1
    150.7949	        	        	        	        	       0	(  1  1 16)	  0  1
    155.5070	        	        	        	        	       0	(  0  0 18)	  0  1
    160.1827	        	        	        	        	       0	(  3  0 12)	  0  1
    160.2192	        	        	        	        	       0	(  4  0  0)	  0  1
    161.2496	        	        	        	        	       0	(  4  0  1)	  0  1
    162.6435	        	        	        	        	       0	(  3  1  8)	  0  1
    164.7404	        	        	        	        	       0	(  4  0  2)	  0  1
    174.0243	        	        	        	        	       0	(  4  0  3)	  0  1
    174.2969	        	        	        	        	       0	(  2  0 16)	  0  1
