MSG Master    CELL:    5.91934   5.91934  23.27388   90.0000   90.0000  120.0000   SPGR: P 63/m m c             TEMP:   1074.85
  1   1280     2.52000     0.00000    -0.12972     0.00000     0.00000    0
    99     0     2
       0.00000      10.00000
     125.00000     130.00000
 2Theta	Yobs	Ycal	Yobs-Ycal	Backg	Posr	(hkl)	K
      0.7700	    0.00	  563.84	-1759.75	  444.58
      0.8700	    0.00	  564.32	-1759.75	  445.06
      0.9700	   33.00	  564.79	-1759.75	  445.54
      1.0700	   38.00	  565.25	-1759.75	  446.00
      1.1700	   40.00	  565.71	-1759.75	  446.45
      1.2700	   53.00	  566.15	-1759.75	  446.90
      1.3700	   39.00	  566.59	-1759.75	  447.34
      1.4700	   95.00	  567.02	-1759.75	  447.77
      1.5700	  290.00	  567.44	-1759.75	  448.19
      1.6700	  424.00	  567.86	-1759.75	  448.60
      1.7700	  583.00	  568.26	-1759.75	  449.01
      1.8700	  667.00	  568.66	-1759.75	  449.40
      1.9700	  716.00	  569.05	-1759.75	  449.79
      2.0700	  770.00	  569.43	-1759.75	  450.17
      2.1700	  771.00	  569.80	-1759.75	  450.54
      2.2700	  780.00	  570.16	-1759.75	  450.91
      2.3700	  738.00	  570.52	-1759.75	  451.27
      2.4700	  686.00	  570.87	-1759.75	  451.61
      2.5700	  732.00	  571.21	-1759.75	  451.96
      2.6700	  695.00	  571.55	-1759.75	  452.29
      2.7700	  703.00	  571.87	-1759.75	  452.62
      2.8700	  643.00	  572.19	-1759.75	  452.94
      2.9700	  643.00	  572.50	-1759.75	  453.25
      3.0700	  586.00	  572.81	-1759.75	  453.55
      3.1700	  586.00	  573.10	-1759.75	  453.85
      3.2700	  573.00	  573.39	-1759.75	  454.14
      3.3700	  654.00	  573.67	-1759.75	  454.42
      3.4700	  733.00	  573.95	-1759.75	  454.69
      3.5700	  831.00	  574.22	-1759.75	  454.96
      3.6700	  864.00	  574.48	-1759.75	  455.22
      3.7700	  892.00	  574.73	-1759.75	  455.47
      3.8700	  969.00	  574.98	-1759.75	  455.72
      3.9700	  995.00	  575.22	-1759.75	  455.96
      4.0700	 1025.00	  575.45	-1759.75	  456.19
      4.1700	 1063.00	  575.67	-1759.75	  456.42
      4.2700	 1104.00	  575.89	-1759.75	  456.64
      4.3700	 1110.00	  576.11	-1759.75	  456.85
      4.4700	  997.00	  576.31	-1759.75	  457.06
      4.5700	 1068.00	  576.51	-1759.75	  457.26
      4.6700	  999.00	  576.70	-1759.75	  457.45
      4.7700	 1044.00	  576.89	-1759.75	  457.64
      4.8700	  990.00	  577.07	-1759.75	  457.81
      4.9700	  908.00	  577.24	-1759.75	  457.99
      5.0700	  943.00	  577.41	-1759.75	  458.16
      5.1700	  987.00	  577.57	-1759.75	  458.32
      5.2700	  866.00	  577.73	-1759.75	  458.47
      5.3700	  916.00	  577.87	-1759.75	  458.62
      5.4700	  908.00	  578.02	-1759.75	  458.76
      5.5700	  843.00	  578.15	-1759.75	  458.90
      5.6700	  822.00	  578.28	-1759.75	  459.03
      5.7700	  818.00	  578.41	-1759.75	  459.15
      5.8700	  802.00	  578.52	-1759.75	  459.27
      5.9700	  798.00	  578.64	-1759.75	  459.38
      6.0700	  810.00	  578.74	-1759.75	  459.49
      6.1700	  727.00	  578.84	-1759.75	  459.59
      6.2700	  811.00	  578.94	-1759.75	  459.68
      6.3700	  760.00	  579.03	-1759.75	  459.77
      6.4700	  780.00	  579.11	-1759.75	  459.86
      6.5700	  798.00	  579.19	-1759.75	  459.93
      6.6700	  754.00	  579.26	-1759.75	  460.01
      6.7700	  780.00	  579.33	-1759.75	  460.07
      6.8700	  718.00	  579.39	-1759.75	  460.14
      6.9700	  698.00	  579.45	-1759.75	  460.19
      7.0700	  681.00	  579.50	-1759.75	  460.24
      7.1700	  714.00	  579.54	-1759.75	  460.29
      7.2700	  672.00	  579.58	-1759.75	  460.33
      7.3700	  698.00	  579.62	-1759.75	  460.36
      7.4700	  638.00	  579.65	-1759.75	  460.39
      7.5700	  650.00	  579.67	-1759.75	  460.42
      7.6700	  612.00	  579.69	-1759.75	  460.44
      7.7700	  649.00	  579.71	-1759.75	  460.45
      7.8700	  672.00	  579.72	-1759.75	  460.46
      7.9700	  629.00	  579.72	-1759.75	  460.47
      8.0700	  657.00	  579.72	-1759.75	  460.47
      8.1700	  632.00	  579.72	-1759.75	  460.46
      8.2700	  668.00	  579.71	-1759.75	  460.45
      8.3700	  671.00	  579.70	-1759.75	  460.44
      8.4700	  645.00	  579.68	-1759.75	  460.42
      8.5700	  644.00	  579.65	-1759.75	  460.40
      8.6700	  649.00	  579.62	-1759.75	  460.37
      8.7700	  632.00	  579.59	-1759.75	  460.34
      8.8700	  653.00	  579.55	-1759.75	  460.30
      8.9700	  635.00	  579.51	-1759.75	  460.26
      9.0700	  622.00	  579.47	-1759.75	  460.21
      9.1700	  635.00	  579.42	-1759.75	  460.16
      9.2700	  622.00	  579.36	-1759.75	  460.11
      9.3700	  622.00	  579.30	-1759.75	  460.05
      9.4700	  619.00	  579.24	-1759.75	  459.98
      9.5700	  669.00	  579.17	-1759.75	  459.92
      9.6700	  634.00	  579.10	-1759.75	  459.84
      9.7700	  597.00	  579.02	-1759.75	  459.77
      9.8700	  637.00	  578.94	-1759.75	  459.69
      9.9700	  628.00	  578.86	-1759.75	  459.60
     10.0700	  612.00	  579.71	-1727.46	  459.51
     10.1700	  620.00	  579.72	-1719.47	  459.42
     10.2700	  596.00	  579.76	-1743.51	  459.33
     10.3700	  558.00	  579.82	-1781.57	  459.23
     10.4700	  605.00	  579.96	-1734.71	  459.12
     10.5700	  570.00	  580.23	-1769.98	  459.02
     10.6700	  634.00	  580.74	-1706.49	  458.90
     10.7700	  606.00	  581.61	-1735.36	  458.79
     10.8700	  521.00	  582.90	-1821.65	  458.67
     10.9700	  577.00	  584.61	-1767.36	  458.55
     11.0700	  615.00	  586.72	-1731.47	  458.42
     11.1700	  594.00	  589.20	-1754.95	  458.29
     11.2700	  588.00	  592.12	-1763.87	  458.16
     11.3700	  609.00	  595.55	-1746.30	  458.02
     11.4700	  619.00	  599.64	-1740.39	  457.88
     11.5700	  672.00	  604.63	-1692.39	  457.74
     11.6700	  596.00	  610.92	-1774.67	  457.60
     11.7700	  610.00	  619.18	-1768.93	  457.45
     11.8700	  644.00	  630.37	-1746.12	  457.29
     11.9700	  656.00	  644.97	-1748.72	  457.14
     12.0700	  701.00	  660.95	-1719.70	  456.98
     12.1700	  662.00	  671.58	-1769.33	  456.81
     12.2700	  689.00	  666.81	-1737.56	  456.65
     12.3700	  640.00	  644.38	-1764.13	  456.48
     12.4700	  637.00	  617.74	-1740.49	  456.31
     12.5700	  614.00	  598.22	-1743.97	  456.13
     12.6700	  600.00	  587.37	-1747.12	  455.95
     12.7700	  584.00	  582.25	-1758.00	  455.77
     12.8700	  552.00	  579.84	-1787.59	  455.59
     12.9700	  557.00	  578.47	-1781.22	  455.40
     13.0700	  552.00	  577.54	-1785.29	  455.21
     13.1700	  587.00	  576.81	-1749.56	  455.02
     13.2700	  563.00	  576.22	-1772.97	  454.83
     13.3700	  563.00	  575.71	-1772.46	  454.63
     13.4700	  601.00	  575.27	-1734.02	  454.43
     13.5700	  604.00	  574.88	-1730.63	  454.23
     13.6700	  576.00	  574.52	-1758.27	  454.02
     13.7700	  552.00	  574.18	-1781.93	  453.81
     13.8700	  568.00	  573.86	-1765.61	  453.60
     13.9700	  558.00	  573.56	-1775.31	  453.39
     14.0700	  565.00	  573.27	-1768.02	  453.17
     14.1700	  535.00	  572.98	-1797.73	  452.95
     14.2700	  560.00	  572.70	-1772.45	  452.73
     14.3700	  555.00	  572.43	-1777.18	  452.51
     14.4700	  546.00	  572.16	-1785.91	  452.28
     14.5700	  553.00	  571.90	-1778.65	  452.06
     14.6700	  545.00	  571.64	-1786.39	  451.83
     14.7700	  588.00	  571.37	-1743.12	  451.59
     14.8700	  580.00	  571.11	-1750.86	  451.36
     14.9700	  558.00	  570.85	-1772.60	  451.12
     15.0700	  569.00	  570.59	-1761.34	  450.89
     15.1700	  536.00	  570.33	-1794.08	  450.64
     15.2700	  518.00	  570.07	-1811.82	  450.40
     15.3700	  540.00	  569.81	-1789.56	  450.16
     15.4700	  605.00	  569.55	-1724.30	  449.91
     15.5700	  577.00	  569.29	-1752.04	  449.66
     15.6700	  577.00	  569.02	-1751.77	  449.41
     15.7700	  512.00	  568.76	-1816.51	  449.16
     15.8700	  554.00	  568.50	-1774.25	  448.90
     15.9700	  528.00	  568.26	-1800.01	  448.65
     16.0700	  566.00	  567.99	-1761.74	  448.39
     16.1700	  592.00	  567.72	-1735.47	  448.13
     16.2700	  544.00	  567.45	-1783.20	  447.87
     16.3700	  575.00	  567.18	-1751.93	  447.60
     16.4700	  545.00	  566.91	-1781.66	  447.34
     16.5700	  531.00	  566.64	-1795.39	  447.07
     16.6700	  586.00	  566.37	-1740.12	  446.80
     16.7700	  566.00	  566.09	-1759.84	  446.53
     16.8700	  580.00	  565.82	-1745.57	  446.26
     16.9700	  560.00	  565.54	-1765.29	  445.99
     17.0700	  581.00	  565.26	-1744.01	  445.71
     17.1700	  554.00	  564.98	-1770.73	  445.44
     17.2700	  539.00	  564.70	-1785.45	  445.16
     17.3700	  565.00	  564.42	-1759.17	  444.88
     17.4700	  539.00	  564.14	-1784.89	  444.60
     17.5700	  527.00	  563.85	-1796.60	  444.32
     17.6700	  571.00	  563.57	-1752.32	  444.04
     17.7700	  575.00	  563.28	-1748.03	  443.75
     17.8700	  556.00	  563.00	-1766.75	  443.47
     17.9700	  570.00	  562.71	-1752.46	  443.18
     18.0700	  597.00	  562.52	-1725.27	  442.89
     18.1700	  620.00	  562.23	-1701.98	  442.60
     18.2700	  573.00	  561.94	-1748.69	  442.31
     18.3700	  565.00	  561.65	-1756.40	  442.02
     18.4700	  564.00	  561.36	-1757.11	  441.73
     18.5700	  575.00	  561.07	-1745.82	  441.43
     18.6700	  532.00	  560.78	-1788.53	  441.14
     18.7700	  554.00	  560.48	-1766.23	  440.84
     18.8700	  558.00	  560.27	-1762.02	  440.55
     18.9700	  516.00	  559.98	-1803.73	  440.25
     19.0700	  578.00	  559.69	-1741.44	  439.95
     19.1700	  522.00	  559.39	-1797.14	  439.65
     19.2700	  535.00	  559.10	-1783.85	  439.35
     19.3700	  558.00	  558.80	-1760.55	  439.05
     19.4700	  564.00	  558.51	-1754.26	  438.74
     19.5700	  540.00	  558.21	-1777.96	  438.44
     19.6700	  512.00	  557.91	-1805.66	  438.14
     19.7700	  521.00	  557.62	-1796.37	  437.83
     19.8700	  573.00	  557.32	-1744.07	  437.53
     19.9700	  621.00	  557.02	-1695.77	  437.22
     20.0700	  532.00	  556.72	-1784.47	  436.91
     20.1700	  585.00	  556.43	-1731.18	  436.60
     20.2700	  565.00	  556.13	-1750.88	  436.30
     20.3700	  520.00	  555.83	-1795.58	  435.99
     20.4700	  568.00	  555.53	-1747.28	  435.68
     20.5700	  558.00	  555.23	-1756.98	  435.37
     20.6700	  520.00	  554.94	-1794.69	  435.06
     20.7700	  578.00	  554.60	-1736.35	  434.75
     20.8700	  586.00	  554.34	-1728.09	  434.43
     20.9700	  563.00	  554.04	-1750.79	  434.12
     21.0700	  517.00	  553.75	-1796.50	  433.81
     21.1700	  559.00	  553.45	-1754.20	  433.50
     21.2700	  580.00	  553.16	-1732.91	  433.18
     21.3700	  587.00	  552.87	-1725.62	  432.87
     21.4700	  538.00	  552.58	-1774.33	  432.55
     21.5700	  553.00	  552.29	-1759.04	  432.24
     21.6700	  557.00	  552.00	-1754.75	  431.92
     21.7700	  544.00	  551.71	-1767.46	  431.61
     21.8700	  617.00	  551.42	-1694.18	  431.29
     21.9700	  547.00	  551.14	-1763.89	  430.98
     22.0700	  545.00	  550.86	-1765.61	  430.66
     22.1700	  570.00	  550.58	-1740.33	  430.34
     22.2700	  534.00	  550.31	-1776.06	  430.03
     22.3700	  518.00	  550.04	-1791.79	  429.71
     22.4700	  540.00	  549.77	-1769.52	  429.39
     22.5700	  599.00	  549.51	-1710.26	  429.08
     22.6700	  581.00	  549.26	-1728.01	  428.76
     22.7700	  520.00	  549.01	-1788.76	  428.44
     22.8700	  569.00	  548.77	-1739.52	  428.12
     22.9700	  578.00	  548.54	-1730.29	  427.81
     23.0700	  593.00	  548.33	-1715.08	  427.49
     23.1700	  572.00	  548.13	-1735.88	  427.17
     23.2700	  537.00	  547.96	-1770.71	  426.86
     23.3700	  542.00	  547.81	-1765.56	  426.54
     23.4700	  515.00	  547.70	-1792.45	  426.22
     23.5700	  547.00	  547.64	-1760.39	  425.90
     23.6700	  549.00	  547.80	-1758.55	  425.59
     23.7700	  557.00	  547.94	-1750.69	  425.27
     23.8700	  559.00	  548.30	-1749.05	  424.95
     23.9700	  535.00	  549.12	-1773.87	  424.64
     24.0700	  540.00	  550.82	-1770.57	  424.32
     24.1700	  564.00	  554.02	-1749.77	  424.00
     24.2700	  606.00	  559.53	-1713.28	  423.69
     24.3700	  568.00	  568.25	-1760.00	  423.37
     24.4700	  560.00	  581.04	-1780.79	  423.05
     24.5700	  621.00	  597.85	-1736.60	  422.74
     24.6700	  620.00	  615.75	-1755.50	  422.42
     24.7700	  616.00	  627.40	-1771.15	  422.11
     24.8700	  578.00	  623.51	-1805.26	  421.79
     24.9700	  642.00	  603.76	-1721.51	  421.48
     25.0700	  581.00	  580.50	-1759.25	  421.16
     25.1700	  536.00	  563.10	-1786.85	  420.85
     25.2700	  581.00	  553.09	-1731.84	  420.54
     25.3700	  510.00	  548.23	-1797.98	  420.22
     25.4700	  559.00	  545.94	-1746.69	  419.91
     25.5700	  570.00	  544.71	-1734.46	  419.60
     25.6700	  546.00	  543.92	-1757.67	  419.29
     25.7700	  539.00	  543.34	-1764.09	  418.98
     25.8700	  599.00	  542.90	-1703.65	  418.67
     25.9700	  542.00	  542.57	-1760.32	  418.36
     26.0700	  562.00	  542.33	-1740.08	  418.05
     26.1700	  536.00	  542.17	-1765.92	  417.74
     26.2700	  562.00	  542.08	-1739.83	  417.43
     26.3700	  534.00	  542.07	-1767.82	  417.12
     26.4700	  495.00	  542.15	-1806.90	  416.81
     26.5700	  564.00	  542.32	-1738.07	  416.51
     26.6700	  523.00	  542.60	-1779.35	  416.20
     26.7700	  534.00	  543.02	-1768.77	  415.89
     26.8700	  564.00	  543.60	-1739.35	  415.59
     26.9700	  536.00	  544.41	-1768.16	  415.29
     27.0700	  552.00	  545.51	-1753.26	  414.98
     27.1700	  541.00	  547.04	-1765.79	  414.68
     27.2700	  544.00	  549.24	-1764.99	  414.38
     27.3700	  532.00	  552.60	-1780.35	  414.07
     27.4700	  562.00	  558.11	-1755.86	  413.77
     27.5700	  576.00	  567.50	-1751.25	  413.47
     27.6700	  577.00	  583.49	-1766.24	  413.17
     27.7700	  577.00	  609.58	-1792.33	  412.88
     27.8700	  593.00	  648.76	-1815.51	  412.58
     27.9700	  652.00	  701.03	-1808.78	  412.28
     28.0700	  853.00	  760.19	-1666.94	  411.98
     28.1700	  843.00	  811.12	-1727.87	  411.69
     28.2700	  982.00	  831.56	-1609.31	  411.39
     28.3700	  868.00	  809.75	-1701.50	  411.10
     28.4700	  793.00	  768.41	-1735.16	  410.81
     28.5700	  768.00	  741.96	-1733.71	  410.51
     28.6700	  669.00	  745.09	-1835.84	  410.22
     28.7700	  723.00	  771.98	-1808.73	  409.93
     28.8700	  800.00	  801.68	-1761.43	  409.64
     28.9700	  828.00	  805.45	-1737.20	  409.35
     29.0700	  826.00	  766.29	-1700.04	  409.07
     29.1700	  713.00	  701.77	-1748.52	  408.78
     29.2700	  629.00	  641.12	-1771.87	  408.49
     29.3700	  549.00	  597.72	-1808.47	  408.21
     29.4700	  610.00	  571.64	-1721.39	  407.93
     29.5700	  554.00	  557.60	-1763.35	  407.64
     29.6700	  575.00	  550.19	-1734.94	  407.36
     29.7700	  590.00	  545.99	-1715.74	  407.08
     29.8700	  564.00	  543.37	-1739.12	  406.80
     29.9700	  594.00	  541.71	-1707.46	  406.52
     30.0700	  578.00	  540.86	-1722.61	  406.24
     30.1700	  595.00	  540.99	-1705.74	  405.97
     30.2700	  522.00	  542.60	-1780.35	  405.69
     30.3700	  540.00	  546.71	-1766.46	  405.42
     30.4700	  565.00	  554.84	-1749.59	  405.14
     30.5700	  550.00	  568.51	-1778.26	  404.87
     30.6700	  599.00	  588.04	-1748.79	  404.60
     30.7700	  549.00	  610.84	-1821.59	  404.33
     30.8700	  583.00	  630.28	-1807.03	  404.06
     30.9700	  633.00	  636.49	-1763.24	  403.79
     31.0700	  627.00	  623.14	-1755.89	  403.53
     31.1700	  636.00	  597.37	-1721.12	  403.26
     31.2700	  537.00	  571.89	-1794.64	  403.00
     31.3700	  562.00	  553.16	-1750.91	  402.73
     31.4700	  526.00	  541.78	-1775.53	  402.47
     31.5700	  541.00	  535.67	-1754.42	  402.21
     31.6700	  526.00	  532.52	-1766.27	  401.95
     31.7700	  541.00	  530.77	-1749.52	  401.69
     31.8700	  533.00	  529.68	-1756.43	  401.44
     31.9700	  547.00	  528.93	-1741.68	  401.18
     32.0700	  553.00	  528.42	-1735.17	  400.92
     32.1700	  510.00	  528.08	-1777.83	  400.67
     32.2700	  560.00	  527.91	-1727.66	  400.42
     32.3700	  564.00	  527.89	-1723.64	  400.17
     32.4700	  581.00	  528.04	-1706.79	  399.92
     32.5700	  592.00	  528.36	-1696.11	  399.67
     32.6700	  547.00	  528.89	-1741.64	  399.42
     32.7700	  567.00	  529.68	-1722.43	  399.18
     32.8700	  589.00	  530.81	-1701.56	  398.93
     32.9700	  531.00	  532.39	-1761.14	  398.69
     33.0700	  547.00	  534.68	-1747.43	  398.45
     33.1700	  557.00	  538.17	-1740.92	  398.21
     33.2700	  568.00	  544.02	-1735.77	  397.97
     33.3700	  605.00	  554.67	-1709.42	  397.73
     33.4700	  567.00	  574.73	-1767.48	  397.49
     33.5700	  587.00	  611.35	-1784.10	  397.26
     33.6700	  640.00	  672.36	-1792.11	  397.02
     33.7700	  789.00	  760.75	-1731.50	  396.79
     33.8700	  917.00	  866.13	-1708.88	  396.56
     33.9700	 1047.00	  959.69	-1672.44	  396.33
     34.0700	 1059.00	  998.37	-1699.12	  396.10
     34.1700	 1010.00	  952.21	-1701.96	  395.88
     34.2700	  877.00	  845.51	-1728.26	  395.65
     34.3700	  758.00	  732.31	-1734.06	  395.43
     34.4700	  640.00	  644.90	-1764.65	  395.20
     34.5700	  593.00	  589.71	-1756.46	  394.98
     34.6700	  568.00	  559.56	-1751.31	  394.76
     34.7700	  525.00	  544.22	-1778.97	  394.54
     34.8700	  533.00	  536.15	-1762.90	  394.33
     34.9700	  558.00	  531.31	-1733.06	  394.11
     35.0700	  529.00	  527.99	-1758.74	  393.90
     35.1700	  561.00	  525.48	-1724.23	  393.68
     35.2700	  486.00	  523.50	-1797.25	  393.47
     35.3700	  503.00	  521.90	-1778.65	  393.26
     35.4700	  547.00	  520.57	-1733.32	  393.05
     35.5700	  535.00	  519.45	-1744.20	  392.85
     35.6700	  509.00	  518.49	-1769.24	  392.64
     35.7700	  495.00	  517.67	-1782.42	  392.44
     35.8700	  497.00	  516.94	-1779.69	  392.24
     35.9700	  507.00	  516.30	-1769.05	  392.04
     36.0700	  531.00	  516.20	-1744.95	  391.84
     36.1700	  488.00	  515.70	-1787.45	  391.64
     36.2700	  515.00	  515.24	-1759.99	  391.44
     36.3700	  530.00	  514.84	-1744.59	  391.25
     36.4700	  530.00	  514.47	-1744.22	  391.05
     36.5700	  536.00	  514.15	-1737.90	  390.86
     36.6700	  493.00	  513.87	-1780.62	  390.67
     36.7700	  528.00	  513.64	-1745.39	  390.48
     36.8700	  503.00	  513.50	-1770.25	  390.29
     36.9700	  543.00	  513.49	-1730.24	  390.11
     37.0700	  527.00	  513.77	-1746.52	  389.92
     37.1700	  493.00	  514.58	-1781.33	  389.74
     37.2700	  488.00	  516.30	-1788.05	  389.56
     37.3700	  515.00	  519.22	-1763.97	  389.38
     37.4700	  484.00	  523.29	-1799.04	  389.20
     37.5700	  508.00	  527.73	-1779.48	  389.03
     37.6700	  562.00	  531.02	-1728.77	  388.85
     37.7700	  560.00	  531.52	-1731.27	  388.68
     37.8700	  492.00	  528.98	-1796.73	  388.51
     37.9700	  537.00	  524.93	-1747.68	  388.33
     38.0700	  510.00	  520.82	-1770.57	  388.17
     38.1700	  506.00	  517.22	-1770.97	  388.00
     38.2700	  549.00	  514.38	-1725.13	  387.83
     38.3700	  509.00	  512.35	-1763.10	  387.67
     38.4700	  513.00	  510.99	-1757.74	  387.51
     38.5700	  513.00	  510.11	-1756.86	  387.35
     38.6700	  519.00	  509.45	-1750.20	  387.19
     38.7700	  492.00	  509.06	-1776.81	  387.03
     38.8700	  546.00	  508.76	-1722.51	  386.87
     38.9700	  507.00	  508.51	-1761.26	  386.72
     39.0700	  480.00	  508.29	-1788.04	  386.56
     39.1700	  497.00	  508.10	-1770.85	  386.41
     39.2700	  532.00	  507.83	-1735.58	  386.26
     39.3700	  526.00	  507.80	-1741.55	  386.11
     39.4700	  496.00	  507.65	-1771.40	  385.97
     39.5700	  464.00	  507.51	-1803.26	  385.82
     39.6700	  523.00	  507.37	-1744.12	  385.68
     39.7700	  522.00	  507.25	-1745.00	  385.54
     39.8700	  498.00	  507.14	-1768.89	  385.40
     39.9700	  512.00	  507.03	-1754.78	  385.26
     40.0700	  487.00	  506.94	-1779.69	  385.12
     40.1700	  512.00	  506.85	-1754.60	  384.99
     40.2700	  522.00	  506.78	-1744.53	  384.85
     40.3700	  503.00	  506.71	-1763.46	  384.72
     40.4700	  514.00	  506.66	-1752.41	  384.59
     40.5700	  502.00	  506.63	-1764.38	  384.46
     40.6700	  526.00	  506.61	-1740.36	  384.33
     40.7700	  503.00	  506.61	-1763.36	  384.20
     40.8700	  531.00	  506.63	-1735.38	  384.08
     40.9700	  498.00	  506.67	-1768.42	  383.96
     41.0700	  534.00	  506.75	-1732.50	  383.84
     41.1700	  502.00	  506.87	-1764.62	  383.72
     41.2700	  500.00	  507.00	-1766.75	  383.60
     41.3700	  509.00	  507.23	-1757.98	  383.48
     41.4700	  511.00	  507.98	-1756.73	  383.37
     41.5700	  513.00	  508.41	-1755.16	  383.25
     41.6700	  482.00	  509.01	-1786.76	  383.14
     41.7700	  494.00	  509.93	-1775.68	  383.03
     41.8700	  481.00	  511.45	-1790.20	  382.92
     41.9700	  553.00	  514.25	-1721.00	  382.82
     42.0700	  472.00	  519.59	-1807.34	  382.71
     42.1700	  506.00	  529.40	-1783.15	  382.61
     42.2700	  524.00	  545.82	-1781.57	  382.50
     42.3700	  491.00	  569.97	-1838.72	  382.40
     42.4700	  564.00	  599.74	-1795.49	  382.30
     42.5700	  644.00	  628.60	-1744.35	  382.21
     42.6700	  579.00	  646.02	-1826.77	  382.11
     42.7700	  559.00	  642.88	-1843.63	  382.02
     42.8700	  569.00	  620.12	-1810.87	  381.92
     42.9700	  598.00	  588.98	-1750.73	  381.83
     43.0700	  539.00	  559.97	-1780.72	  381.74
     43.1700	  503.00	  538.21	-1794.96	  381.66
     43.2700	  452.00	  524.29	-1832.04	  381.57
     43.3700	  538.00	  516.44	-1738.19	  381.48
     43.4700	  475.00	  512.32	-1797.07	  381.40
     43.5700	  489.00	  510.16	-1780.91	  381.32
     43.6700	  564.00	  509.10	-1704.85	  381.24
     43.7700	  510.00	  508.30	-1758.05	  381.16
     43.8700	  470.00	  507.76	-1797.51	  381.08
     43.9700	  503.00	  507.33	-1764.08	  381.01
     44.0700	  523.00	  506.99	-1743.74	  380.93
     44.1700	  511.00	  506.74	-1755.49	  380.86
     44.2700	  496.00	  506.54	-1770.29	  380.79
     44.3700	  533.00	  506.39	-1733.14	  380.72
     44.4700	  496.00	  506.28	-1770.03	  380.65
     44.5700	  578.00	  506.21	-1687.96	  380.59
     44.6700	  501.00	  506.04	-1764.79	  380.52
     44.7700	  551.00	  506.03	-1714.78	  380.46
     44.8700	  508.00	  506.04	-1757.79	  380.40
     44.9700	  536.00	  506.08	-1729.83	  380.34
     45.0700	  526.00	  506.13	-1739.88	  380.28
     45.1700	  521.00	  506.40	-1745.15	  380.22
     45.2700	  541.00	  506.50	-1725.25	  380.17
     45.3700	  603.00	  506.62	-1663.37	  380.11
     45.4700	  489.00	  506.77	-1777.52	  380.06
     45.5700	  494.00	  506.94	-1772.69	  380.01
     45.6700	  475.00	  507.14	-1791.89	  379.96
     45.7700	  546.00	  507.36	-1721.11	  379.91
     45.8700	  506.00	  507.62	-1761.37	  379.87
     45.9700	  521.00	  507.90	-1746.65	  379.82
     46.0700	  520.00	  508.22	-1747.97	  379.78
     46.1700	  533.00	  508.58	-1735.33	  379.73
     46.2700	  506.00	  508.98	-1762.73	  379.69
     46.3700	  500.00	  509.44	-1769.19	  379.66
     46.4700	  530.00	  509.96	-1739.71	  379.62
     46.5700	  529.00	  510.56	-1741.31	  379.58
     46.6700	  537.00	  511.24	-1733.99	  379.55
     46.7700	  501.00	  512.06	-1770.81	  379.51
     46.8700	  457.00	  513.06	-1815.81	  379.48
     46.9700	  527.00	  514.40	-1747.15	  379.45
     47.0700	  497.00	  516.40	-1779.15	  379.42
     47.1700	  542.00	  519.66	-1737.41	  379.40
     47.2700	  515.00	  525.05	-1769.80	  379.37
     47.3700	  542.00	  533.86	-1751.61	  379.35
     47.4700	  535.00	  547.15	-1771.90	  379.32
     47.5700	  561.00	  565.00	-1763.75	  379.30
     47.6700	  554.00	  585.51	-1791.26	  379.28
     47.7700	  613.00	  604.27	-1751.02	  379.26
     47.8700	  591.00	  615.14	-1783.89	  379.24
     47.9700	  598.00	  613.59	-1775.34	  379.23
     48.0700	  567.00	  600.97	-1793.72	  379.21
     48.1700	  575.00	  583.53	-1768.28	  379.20
     48.2700	  559.00	  567.12	-1767.87	  379.19
     48.3700	  536.00	  554.98	-1778.73	  379.18
     48.4700	  523.00	  547.99	-1784.74	  379.17
     48.5700	  553.00	  545.53	-1752.28	  379.16
     48.6700	  509.00	  546.47	-1797.22	  379.16
     48.7700	  534.00	  549.86	-1775.61	  379.15
     48.8700	  547.00	  555.19	-1767.94	  379.15
     48.9700	  585.00	  562.51	-1737.26	  379.15
     49.0700	  580.00	  572.49	-1752.24	  379.14
     49.1700	  619.00	  586.79	-1727.54	  379.15
     49.2700	  598.00	  608.96	-1770.71	  379.15
     49.3700	  660.00	  645.72	-1745.47	  379.15
     49.4700	  668.00	  708.72	-1800.47	  379.15
     49.5700	  760.00	  813.42	-1813.17	  379.16
     49.6700	  935.00	  978.38	-1803.13	  379.17
     49.7700	 1143.00	 1216.70	-1833.45	  379.18
     49.8700	 1488.00	 1525.70	-1797.45	  379.19
     49.9700	 1841.00	 1875.02	-1793.77	  379.20
     50.0700	 2251.00	 2197.81	-1706.56	  379.21
     50.1700	 2476.00	 2397.07	-1680.82	  379.22
     50.2700	 2473.00	 2389.58	-1676.33	  379.24
     50.3700	 2222.00	 2176.81	-1714.56	  379.25
     50.4700	 1823.00	 1847.17	-1783.92	  379.27
     50.5700	 1410.00	 1500.75	-1850.50	  379.29
     50.6700	 1101.00	 1202.15	-1860.90	  379.31
     50.7700	  820.00	  978.73	-1918.48	  379.33
     50.8700	  702.00	  830.38	-1888.13	  379.35
     50.9700	  629.00	  741.19	-1871.94	  379.38
     51.0700	  604.00	  690.08	-1845.83	  379.40
     51.1700	  640.00	  658.36	-1778.11	  379.43
     51.2700	  655.00	  634.12	-1738.87	  379.46
     51.3700	  569.00	  612.79	-1803.54	  379.49
     51.4700	  577.00	  594.03	-1776.78	  379.52
     51.5700	  602.00	  578.55	-1736.30	  379.55
     51.6700	  567.00	  566.73	-1759.48	  379.58
     51.7700	  552.00	  558.33	-1766.08	  379.61
     51.8700	  574.00	  552.72	-1738.47	  379.65
     51.9700	  545.00	  549.15	-1763.90	  379.68
     52.0700	  533.00	  547.04	-1773.79	  379.72
     52.1700	  546.00	  546.26	-1760.01	  379.76
     52.2700	  543.00	  546.23	-1762.98	  379.80
     52.3700	  577.00	  547.29	-1730.04	  379.84
     52.4700	  578.00	  549.93	-1731.68	  379.88
     52.5700	  574.00	  555.27	-1741.02	  379.92
     52.6700	  622.00	  565.66	-1703.41	  379.96
     52.7700	  609.00	  585.25	-1736.00	  380.01
     52.8700	  636.00	  620.22	-1743.97	  380.06
     52.9700	  742.00	  677.91	-1695.66	  380.10
     53.0700	  783.00	  764.02	-1740.77	  380.15
     53.1700	  879.00	  878.42	-1759.17	  380.20
     53.2700	 1019.00	 1010.44	-1751.19	  380.25
     53.3700	 1143.00	 1136.21	-1752.96	  380.30
     53.4700	 1179.00	 1220.76	-1801.51	  380.35
     53.5700	 1229.00	 1231.80	-1762.55	  380.41
     53.6700	 1122.00	 1163.96	-1801.71	  380.46
     53.7700	 1013.00	 1044.70	-1791.45	  380.52
     53.8700	  850.00	  911.16	-1820.91	  380.57
     53.9700	  758.00	  790.82	-1792.57	  380.63
     54.0700	  681.00	  697.50	-1776.25	  380.69
     54.1700	  621.00	  633.53	-1772.28	  380.75
     54.2700	  603.00	  594.13	-1750.88	  380.81
     54.3700	  542.00	  571.93	-1789.68	  380.87
     54.4700	  578.00	  560.23	-1741.98	  380.94
     54.5700	  572.00	  554.31	-1742.06	  381.00
     54.6700	  527.00	  551.51	-1784.26	  381.06
     54.7700	  570.00	  550.42	-1740.17	  381.13
     54.8700	  591.00	  550.40	-1719.15	  381.20
     54.9700	  564.00	  551.23	-1746.98	  381.26
     55.0700	  594.00	  552.82	-1718.57	  381.33
     55.1700	  567.00	  555.20	-1747.95	  381.40
     55.2700	  605.00	  558.39	-1713.14	  381.47
     55.3700	  579.00	  562.54	-1743.29	  381.54
     55.4700	  564.00	  567.87	-1763.62	  381.61
     55.5700	  588.00	  574.81	-1746.56	  381.69
     55.6700	  532.00	  584.21	-1811.96	  381.76
     55.7700	  572.00	  597.79	-1785.54	  381.84
     55.8700	  600.00	  619.02	-1778.77	  381.91
     55.9700	  588.00	  654.29	-1826.04	  381.99
     56.0700	  675.00	  714.16	-1798.91	  382.07
     56.1700	  721.00	  813.64	-1852.39	  382.14
     56.2700	  910.00	  970.36	-1820.10	  382.22
     56.3700	 1180.00	 1199.11	-1778.86	  382.30
     56.4700	 1493.00	 1503.37	-1770.12	  382.38
     56.5700	 1828.00	 1865.86	-1797.61	  382.46
     56.6700	 2179.00	 2241.01	-1821.76	  382.55
     56.7700	 2448.00	 2553.18	-1864.93	  382.63
     56.8700	 2584.00	 2711.53	-1887.28	  382.71
     56.9700	 2624.00	 2656.97	-1792.72	  382.80
     57.0700	 2324.00	 2410.60	-1846.35	  382.88
     57.1700	 2063.00	 2056.20	-1752.95	  382.97
     57.2700	 1606.00	 1681.70	-1835.45	  383.06
     57.3700	 1322.00	 1347.93	-1785.68	  383.14
     57.4700	 1047.00	 1085.32	-1798.07	  383.23
     57.5700	  888.00	  899.42	-1771.17	  383.32
     57.6700	  773.00	  780.11	-1766.86	  383.41
     57.7700	  711.00	  710.96	-1759.71	  383.50
     57.8700	  676.00	  676.50	-1760.25	  383.59
     57.9700	  728.00	  665.85	-1697.60	  383.69
     58.0700	  648.00	  673.20	-1784.95	  383.78
     58.1700	  675.00	  696.59	-1781.34	  383.87
     58.2700	  760.00	  736.00	-1735.75	  383.97
     58.3700	  781.00	  791.55	-1770.30	  384.06
     58.4700	  946.00	  861.79	-1675.54	  384.16
     58.5700	 1027.00	  942.29	-1675.04	  384.25
     58.6700	 1165.00	 1025.08	-1619.83	  384.35
     58.7700	 1302.00	 1101.07	-1558.82	  384.45
     58.8700	 1413.00	 1164.08	-1510.83	  384.54
     58.9700	 1450.00	 1210.67	-1520.42	  384.64
     59.0700	 1520.00	 1236.04	-1475.79	  384.74
     59.1700	 1476.00	 1236.12	-1519.87	  384.84
     59.2700	 1474.00	 1214.90	-1500.65	  384.94
     59.3700	 1315.00	 1184.37	-1629.12	  385.04
     59.4700	 1221.00	 1156.62	-1695.37	  385.14
     59.5700	 1243.00	 1139.84	-1656.59	  385.24
     59.6700	 1194.00	 1141.22	-1706.97	  385.35
     59.7700	 1135.00	 1169.12	-1793.87	  385.45
     59.8700	 1256.00	 1228.54	-1732.29	  385.55
     59.9700	 1317.00	 1314.90	-1757.65	  385.66
     60.0700	 1461.00	 1411.24	-1709.99	  385.76
     60.1700	 1559.00	 1488.89	-1689.64	  385.87
     60.2700	 1574.00	 1515.05	-1700.80	  385.97
     60.3700	 1546.00	 1470.15	-1683.90	  386.08
     60.4700	 1391.00	 1362.07	-1730.82	  386.18
     60.5700	 1196.00	 1218.39	-1782.14	  386.29
     60.6700	 1088.00	 1068.16	-1739.91	  386.40
     60.7700	  953.00	  932.30	-1739.05	  386.51
     60.8700	  782.00	  822.60	-1800.35	  386.61
     60.9700	  727.00	  742.91	-1775.66	  386.72
     61.0700	  668.00	  691.98	-1783.73	  386.83
     61.1700	  667.00	  666.45	-1759.20	  386.94
     61.2700	  642.00	  663.59	-1781.34	  387.05
     61.3700	  654.00	  682.96	-1788.71	  387.16
     61.4700	  705.00	  726.49	-1781.24	  387.27
     61.5700	  731.00	  797.22	-1825.97	  387.38
     61.6700	  847.00	  896.88	-1809.63	  387.49
     61.7700	  957.00	 1022.87	-1825.62	  387.60
     61.8700	 1124.00	 1165.76	-1801.51	  387.72
     61.9700	 1288.00	 1307.54	-1779.29	  387.83
     62.0700	 1274.00	 1421.71	-1907.46	  387.94
     62.1700	 1378.00	 1478.68	-1860.43	  388.05
     62.2700	 1388.00	 1459.73	-1831.48	  388.17
     62.3700	 1340.00	 1370.65	-1790.40	  388.28
     62.4700	 1169.00	 1237.26	-1828.01	  388.39
     62.5700	 1079.00	 1089.07	-1769.82	  388.51
     62.6700	  847.00	  948.75	-1861.50	  388.62
     62.7700	  761.00	  830.04	-1828.79	  388.74
     62.8700	  667.00	  738.45	-1831.20	  388.85
     62.9700	  659.00	  673.26	-1774.01	  388.97
     63.0700	  575.00	  630.07	-1814.82	  389.08
     63.1700	  560.00	  603.21	-1802.96	  389.20
     63.2700	  586.00	  587.50	-1761.25	  389.31
     63.3700	  595.00	  579.10	-1743.85	  389.43
     63.4700	  586.00	  575.79	-1749.54	  389.54
     63.5700	  575.00	  576.81	-1761.56	  389.66
     63.6700	  629.00	  582.65	-1713.40	  389.78
     63.7700	  591.00	  594.78	-1763.53	  389.89
     63.8700	  640.00	  615.30	-1735.05	  390.01
     63.9700	  664.00	  646.44	-1742.19	  390.13
     64.0700	  685.00	  689.65	-1764.40	  390.24
     64.1700	  782.00	  744.67	-1722.42	  390.36
     64.2700	  822.00	  808.59	-1746.34	  390.48
     64.3700	  914.00	  875.19	-1720.94	  390.59
     64.4700	 1007.00	  934.83	-1687.58	  390.71
     64.5700	 1075.00	  975.77	-1660.52	  390.83
     64.6700	 1054.00	  990.24	-1695.99	  390.95
     64.7700	 1037.00	  975.71	-1698.46	  391.06
     64.8700	 1019.00	  937.25	-1678.00	  391.18
     64.9700	  904.00	  883.89	-1739.64	  391.30
     65.0700	  894.00	  825.56	-1691.31	  391.42
     65.1700	  791.00	  770.18	-1738.93	  391.53
     65.2700	  674.00	  722.25	-1808.00	  391.65
     65.3700	  720.00	  683.00	-1722.75	  391.77
     65.4700	  609.00	  651.64	-1802.39	  391.89
     65.5700	  616.00	  626.88	-1770.63	  392.00
     65.6700	  653.00	  607.60	-1714.35	  392.12
     65.7700	  606.00	  592.92	-1746.67	  392.24
     65.8700	  590.00	  582.13	-1751.88	  392.36
     65.9700	  577.00	  574.61	-1757.36	  392.47
     66.0700	  541.00	  569.85	-1788.60	  392.59
     66.1700	  547.00	  567.40	-1780.15	  392.71
     66.2700	  549.00	  566.85	-1777.60	  392.83
     66.3700	  594.00	  567.89	-1733.64	  392.94
     66.4700	  554.00	  570.34	-1776.09	  393.06
     66.5700	  579.00	  574.37	-1755.12	  393.18
     66.6700	  606.00	  580.16	-1733.91	  393.29
     66.7700	  584.00	  588.75	-1764.50	  393.41
     66.8700	  585.00	  601.93	-1776.68	  393.53
     66.9700	  564.00	  622.78	-1818.53	  393.64
     67.0700	  622.00	  656.12	-1793.87	  393.76
     67.1700	  645.00	  708.80	-1823.55	  393.88
     67.2700	  786.00	  789.39	-1763.14	  393.99
     67.3700	  876.00	  906.95	-1790.70	  394.11
     67.4700	 1102.00	 1068.84	-1726.59	  394.22
     67.5700	 1326.00	 1277.17	-1710.92	  394.34
     67.6700	 1543.00	 1525.85	-1742.60	  394.45
     67.7700	 1811.00	 1797.97	-1746.72	  394.57
     67.8700	 2108.00	 2063.87	-1715.62	  394.68
     67.9700	 2349.00	 2282.59	-1693.34	  394.80
     68.0700	 2396.00	 2408.87	-1772.62	  394.91
     68.1700	 2418.00	 2410.16	-1751.91	  395.03
     68.2700	 2215.00	 2286.04	-1830.79	  395.14
     68.3700	 2103.00	 2068.76	-1725.51	  395.25
     68.4700	 1879.00	 1803.56	-1684.31	  395.37
     68.5700	 1521.00	 1531.59	-1770.34	  395.48
     68.6700	 1321.00	 1282.55	-1721.30	  395.59
     68.7700	 1057.00	 1073.88	-1776.63	  395.70
     68.8700	  861.00	  911.72	-1810.47	  395.82
     68.9700	  829.00	  793.94	-1724.69	  395.93
     69.0700	  710.00	  713.28	-1763.03	  396.04
     69.1700	  689.00	  660.65	-1731.40	  396.15
     69.2700	  646.00	  627.49	-1741.24	  396.26
     69.3700	  603.00	  606.92	-1763.67	  396.37
     69.4700	  603.00	  594.05	-1750.80	  396.48
     69.5700	  526.00	  585.78	-1819.53	  396.59
     69.6700	  567.00	  580.24	-1772.99	  396.70
     69.7700	  554.00	  576.41	-1782.16	  396.81
     69.8700	  574.00	  573.76	-1759.51	  396.92
     69.9700	  574.00	  572.01	-1757.76	  397.02
     70.0700	  572.00	  571.03	-1758.78	  397.13
     70.1700	  554.00	  570.79	-1776.54	  397.24
     70.2700	  518.00	  571.27	-1813.02	  397.34
     70.3700	  555.00	  572.60	-1777.35	  397.45
     70.4700	  554.00	  575.04	-1780.79	  397.56
     70.5700	  548.00	  579.08	-1790.83	  397.66
     70.6700	  603.00	  585.62	-1742.37	  397.77
     70.7700	  599.00	  596.21	-1756.96	  397.87
     70.8700	  652.00	  613.31	-1721.06	  397.97
     70.9700	  611.00	  640.49	-1789.24	  398.08
     71.0700	  673.00	  682.53	-1769.28	  398.18
     71.1700	  770.00	  745.05	-1734.80	  398.28
     71.2700	  810.00	  833.58	-1783.33	  398.38
     71.3700	  887.00	  952.25	-1825.00	  398.48
     71.4700	 1129.00	 1101.78	-1732.53	  398.58
     71.5700	 1254.00	 1278.60	-1784.35	  398.68
     71.6700	 1387.00	 1470.04	-1842.79	  398.78
     71.7700	 1656.00	 1658.70	-1762.45	  398.88
     71.8700	 1822.00	 1819.90	-1757.65	  398.98
     71.9700	 1866.00	 1925.48	-1819.23	  399.08
     72.0700	 1825.00	 1952.58	-1887.33	  399.17
     72.1700	 1946.00	 1894.63	-1708.38	  399.27
     72.2700	 1834.00	 1765.55	-1691.30	  399.37
     72.3700	 1694.00	 1591.09	-1656.84	  399.46
     72.4700	 1454.00	 1399.60	-1705.35	  399.56
     72.5700	 1261.00	 1212.94	-1711.69	  399.65
     72.6700	 1094.00	 1046.44	-1712.19	  399.74
     72.7700	 1027.00	  908.35	-1641.10	  399.84
     72.8700	  923.00	  800.78	-1637.53	  399.93
     72.9700	  851.00	  721.54	-1630.29	  400.02
     73.0700	  763.00	  665.82	-1662.57	  400.11
     73.1700	  731.00	  628.10	-1656.85	  400.20
     73.2700	  712.00	  603.17	-1650.92	  400.29
     73.3700	  655.00	  586.84	-1691.59	  400.38
     73.4700	  661.00	  576.04	-1674.79	  400.46
     73.5700	  608.00	  568.76	-1720.51	  400.55
     73.6700	  619.00	  563.75	-1704.50	  400.64
     73.7700	  592.00	  560.26	-1728.01	  400.72
     73.8700	  602.00	  557.88	-1715.63	  400.81
     73.9700	  595.00	  556.36	-1721.11	  400.89
     74.0700	  570.00	  555.52	-1745.27	  400.97
     74.1700	  627.00	  555.23	-1687.98	  401.06
     74.2700	  636.00	  555.29	-1679.04	  401.14
     74.3700	  611.00	  555.53	-1704.28	  401.22
     74.4700	  605.00	  555.71	-1710.46	  401.30
     74.5700	  662.00	  555.60	-1653.35	  401.38
     74.6700	  624.00	  555.03	-1690.78	  401.46
     74.7700	  588.00	  553.98	-1725.73	  401.54
     74.8700	  613.00	  552.56	-1699.31	  401.61
     74.9700	  620.00	  551.01	-1690.76	  401.69
     75.0700	  603.00	  549.61	-1706.36	  401.76
     75.1700	  593.00	  548.65	-1715.40	  401.84
     75.2700	  560.00	  548.40	-1748.15	  401.91
     75.3700	  566.00	  549.36	-1743.11	  401.98
     75.4700	  591.00	  551.87	-1720.62	  402.06
     75.5700	  569.00	  556.50	-1747.25	  402.13
     75.6700	  576.00	  563.67	-1747.42	  402.20
     75.7700	  583.00	  574.03	-1750.78	  402.27
     75.8700	  591.00	  587.80	-1756.55	  402.33
     75.9700	  628.00	  604.92	-1736.67	  402.40
     76.0700	  647.00	  624.84	-1737.59	  402.47
     76.1700	  653.00	  646.43	-1753.18	  402.53
     76.2700	  689.00	  667.89	-1738.64	  402.60
     76.3700	  661.00	  686.83	-1785.58	  402.66
     76.4700	  769.00	  700.53	-1691.28	  402.72
     76.5700	  708.00	  706.51	-1758.26	  402.79
     76.6700	  675.00	  703.52	-1788.27	  402.85
     76.7700	  670.00	  692.15	-1781.90	  402.91
     76.8700	  643.00	  674.55	-1791.30	  402.97
     76.9700	  629.00	  653.24	-1783.99	  403.02
     77.0700	  607.00	  631.15	-1783.90	  403.08
     77.1700	  545.00	  610.11	-1824.86	  403.14
     77.2700	  610.00	  591.47	-1741.22	  403.19
     77.3700	  482.00	  575.98	-1853.73	  403.25
     77.4700	  507.00	  563.80	-1816.55	  403.30
     77.5700	  565.00	  554.71	-1749.46	  403.35
     77.6700	  535.00	  548.23	-1772.98	  403.40
     77.7700	  503.00	  543.79	-1800.54	  403.45
     77.8700	  476.00	  540.85	-1824.60	  403.50
     77.9700	  524.00	  538.94	-1774.69	  403.55
     78.0700	  540.00	  537.71	-1757.46	  403.60
     78.1700	  552.00	  536.92	-1744.67	  403.64
     78.2700	  521.00	  536.42	-1775.17	  403.69
     78.3700	  505.00	  536.10	-1790.85	  403.73
     78.4700	  528.00	  535.91	-1767.66	  403.77
     78.5700	  519.00	  535.83	-1776.58	  403.81
     78.6700	  469.00	  535.85	-1826.60	  403.85
     78.7700	  494.00	  535.98	-1801.73	  403.89
     78.8700	  503.00	  536.25	-1793.00	  403.93
     78.9700	  497.00	  536.67	-1799.42	  403.97
     79.0700	  510.00	  537.30	-1787.05	  404.01
     79.1700	  540.00	  538.19	-1757.94	  404.04
     79.2700	  535.00	  539.38	-1764.13	  404.07
     79.3700	  513.00	  540.76	-1787.51	  404.11
     79.4700	  539.00	  542.74	-1763.49	  404.14
     79.5700	  527.00	  545.20	-1777.95	  404.17
     79.6700	  498.00	  548.22	-1809.97	  404.20
     79.7700	  505.00	  551.88	-1806.63	  404.23
     79.8700	  499.00	  556.30	-1817.05	  404.26
     79.9700	  518.00	  561.63	-1803.38	  404.28
     80.0700	  559.00	  568.08	-1768.83	  404.31
     80.1700	  583.00	  575.91	-1752.66	  404.33
     80.2700	  545.00	  585.45	-1800.20	  404.35
     80.3700	  560.00	  596.97	-1796.72	  404.37
     80.4700	  590.00	  610.59	-1780.34	  404.39
     80.5700	  600.00	  626.21	-1785.96	  404.41
     80.6700	  594.00	  643.39	-1809.14	  404.43
     80.7700	  657.00	  661.34	-1764.09	  404.45
     80.8700	  685.00	  678.95	-1753.70	  404.46
     80.9700	  680.00	  694.93	-1774.68	  404.48
     81.0700	  721.00	  708.12	-1746.87	  404.49
     81.1700	  743.00	  717.59	-1734.34	  404.50
     81.2700	  772.00	  722.79	-1710.54	  404.51
     81.3700	  763.00	  723.43	-1720.18	  404.52
     81.4700	  731.00	  719.58	-1748.33	  404.53
     81.5700	  714.00	  711.61	-1757.36	  404.54
     81.6700	  762.00	  700.07	-1697.82	  404.55
     81.7700	  740.00	  685.64	-1705.39	  404.55
     81.8700	  721.00	  669.23	-1707.98	  404.55
     81.9700	  701.00	  651.91	-1710.66	  404.56
     82.0700	  637.00	  634.66	-1757.41	  404.56
     82.1700	  668.00	  618.42	-1710.17	  404.56
     82.2700	  663.00	  603.71	-1700.46	  404.56
     82.3700	  636.00	  590.82	-1714.57	  404.55
     82.4700	  598.00	  579.90	-1741.65	  404.55
     82.5700	  567.00	  570.94	-1763.69	  404.54
     82.6700	  612.00	  563.97	-1711.72	  404.54
     82.7700	  545.00	  558.88	-1773.63	  404.53
     82.8700	  570.00	  555.56	-1745.31	  404.52
     82.9700	  572.00	  553.90	-1741.65	  404.51
     83.0700	  595.00	  553.80	-1718.55	  404.50
     83.1700	  576.00	  555.15	-1738.90	  404.49
     83.2700	  536.00	  557.80	-1781.55	  404.47
     83.3700	  501.00	  561.59	-1820.34	  404.46
     83.4700	  565.00	  566.24	-1760.99	  404.44
     83.5700	  554.00	  571.41	-1777.16	  404.42
     83.6700	  546.00	  576.65	-1790.40	  404.40
     83.7700	  572.00	  581.42	-1769.17	  404.38
     83.8700	  546.00	  585.15	-1798.90	  404.36
     83.9700	  576.00	  587.27	-1771.02	  404.34
     84.0700	  573.00	  587.40	-1774.15	  404.31
     84.1700	  565.00	  585.48	-1780.23	  404.29
     84.2700	  584.00	  581.77	-1757.52	  404.26
     84.3700	  545.00	  576.75	-1791.50	  404.23
     84.4700	  561.00	  571.00	-1769.75	  404.20
     84.5700	  581.00	  565.01	-1743.76	  404.17
     84.6700	  530.00	  559.21	-1788.96	  404.14
     84.7700	  515.00	  553.91	-1798.66	  404.11
     84.8700	  567.00	  549.30	-1742.05	  404.07
     84.9700	  548.00	  545.48	-1757.23	  404.04
     85.0700	  554.00	  542.44	-1748.19	  404.00
     85.1700	  518.00	  540.13	-1781.88	  403.96
     85.2700	  551.00	  538.45	-1747.20	  403.92
     85.3700	  536.00	  537.31	-1761.06	  403.88
     85.4700	  534.00	  536.60	-1762.35	  403.84
     85.5700	  534.00	  536.26	-1762.01	  403.79
     85.6700	  528.00	  536.22	-1767.97	  403.75
     85.7700	  510.00	  536.49	-1786.24	  403.70
     85.8700	  528.00	  537.09	-1768.84	  403.65
     85.9700	  500.00	  538.10	-1797.85	  403.60
     86.0700	  512.00	  539.64	-1787.39	  403.55
     86.1700	  546.00	  541.84	-1755.59	  403.50
     86.2700	  517.00	  544.89	-1787.64	  403.45
     86.3700	  555.00	  548.99	-1753.74	  403.39
     86.4700	  541.00	  554.31	-1773.06	  403.33
     86.5700	  598.00	  560.96	-1722.71	  403.28
     86.6700	  545.00	  568.98	-1783.73	  403.22
     86.7700	  596.00	  578.27	-1742.02	  403.16
     86.8700	  630.00	  588.22	-1717.97	  403.10
     86.9700	  608.00	  599.04	-1750.79	  403.03
     87.0700	  617.00	  609.76	-1752.51	  402.97
     87.1700	  661.00	  619.58	-1718.33	  402.91
     87.2700	  619.00	  627.62	-1768.37	  402.84
     87.3700	  649.00	  632.97	-1743.72	  402.77
     87.4700	  655.00	  634.98	-1739.73	  402.70
     87.5700	  668.00	  633.39	-1725.14	  402.63
     87.6700	  652.00	  628.49	-1736.24	  402.56
     87.7700	  622.00	  621.01	-1758.76	  402.48
     87.8700	  624.00	  611.88	-1747.63	  402.41
     87.9700	  633.00	  602.07	-1728.82	  402.33
     88.0700	  640.00	  592.46	-1712.21	  402.26
     88.1700	  603.00	  583.80	-1740.55	  402.18
     88.2700	  584.00	  576.65	-1752.40	  402.10
     88.3700	  558.00	  571.36	-1773.11	  402.02
     88.4700	  555.00	  568.13	-1772.88	  401.93
     88.5700	  582.00	  566.94	-1744.69	  401.85
     88.6700	  571.00	  567.64	-1756.39	  401.76
     88.7700	  565.00	  569.94	-1764.69	  401.68
     88.8700	  625.00	  573.46	-1708.21	  401.59
     88.9700	  606.00	  577.70	-1731.45	  401.50
     89.0700	  599.00	  582.15	-1742.90	  401.41
     89.1700	  542.00	  586.22	-1803.97	  401.32
     89.2700	  589.00	  589.37	-1760.12	  401.22
     89.3700	  604.00	  591.11	-1746.86	  401.13
     89.4700	  555.00	  591.11	-1795.86	  401.03
     89.5700	  616.00	  589.33	-1733.08	  400.94
     89.6700	  607.00	  585.95	-1738.70	  400.84
     89.7700	  571.00	  581.35	-1770.10	  400.74
     89.8700	  582.00	  575.99	-1753.74	  400.64
     89.9700	  526.00	  570.28	-1804.03	  400.53
     90.0700	  559.00	  564.62	-1765.37	  400.43
     90.1700	  530.00	  559.29	-1789.04	  400.33
     90.2700	  518.00	  554.51	-1796.26	  400.22
     90.3700	  549.00	  550.41	-1761.16	  400.11
     90.4700	  516.00	  547.04	-1790.79	  400.00
     90.5700	  511.00	  544.40	-1793.15	  399.89
     90.6700	  529.00	  542.43	-1773.18	  399.78
     90.7700	  503.00	  541.06	-1797.81	  399.67
     90.8700	  495.00	  540.22	-1804.97	  399.55
     90.9700	  540.00	  539.82	-1759.57	  399.44
     91.0700	  523.00	  539.83	-1776.58	  399.32
     91.1700	  524.00	  540.23	-1775.98	  399.20
     91.2700	  511.00	  541.02	-1789.77	  399.08
     91.3700	  508.00	  542.27	-1794.02	  398.96
     91.4700	  508.00	  544.07	-1795.82	  398.84
     91.5700	  532.00	  546.56	-1774.31	  398.72
     91.6700	  538.00	  549.93	-1771.68	  398.60
     91.7700	  527.00	  554.38	-1787.13	  398.47
     91.8700	  548.00	  560.14	-1771.89	  398.34
     91.9700	  556.00	  567.20	-1770.95	  398.22
     92.0700	  550.00	  576.21	-1785.96	  398.09
     92.1700	  545.00	  587.09	-1801.84	  397.96
     92.2700	  619.00	  599.89	-1740.64	  397.82
     92.3700	  609.00	  614.54	-1765.29	  397.69
     92.4700	  636.00	  630.85	-1754.60	  397.56
     92.5700	  610.00	  648.48	-1798.23	  397.42
     92.6700	  638.00	  666.94	-1788.69	  397.29
     92.7700	  737.00	  685.59	-1708.34	  397.15
     92.8700	  747.00	  703.68	-1716.43	  397.01
     92.9700	  767.00	  720.43	-1713.18	  396.87
     93.0700	  736.00	  735.20	-1758.95	  396.73
     93.1700	  800.00	  747.63	-1707.38	  396.59
     93.2700	  778.00	  757.78	-1739.53	  396.44
     93.3700	  811.00	  766.07	-1714.82	  396.30
     93.4700	  840.00	  773.13	-1692.88	  396.15
     93.5700	  830.00	  779.63	-1709.38	  396.00
     93.6700	  841.00	  786.15	-1704.90	  395.86
     93.7700	  826.00	  793.22	-1726.97	  395.71
     93.8700	  892.00	  801.32	-1669.07	  395.56
     93.9700	  848.00	  810.91	-1722.66	  395.40
     94.0700	  845.00	  822.39	-1737.14	  395.25
     94.1700	  814.00	  835.91	-1781.66	  395.10
     94.2700	  924.00	  851.31	-1687.06	  394.94
     94.3700	  879.00	  867.96	-1748.71	  394.79
     94.4700	  896.00	  884.76	-1748.51	  394.63
     94.5700	  875.00	  900.20	-1784.95	  394.47
     94.6700	  944.00	  912.49	-1728.24	  394.31
     94.7700	  968.00	  919.75	-1711.50	  394.15
     94.8700	  911.00	  920.43	-1769.18	  393.99
     94.9700	  896.00	  913.66	-1777.41	  393.83
     95.0700	  947.00	  899.55	-1712.30	  393.66
     95.1700	  881.00	  879.12	-1757.87	  393.50
     95.2700	  801.00	  854.04	-1812.79	  393.33
     95.3700	  811.00	  826.27	-1775.02	  393.17
     95.4700	  818.00	  797.85	-1739.60	  393.00
     95.5700	  792.00	  770.72	-1738.47	  392.83
     95.6700	  727.00	  746.65	-1779.40	  392.66
     95.7700	  714.00	  727.26	-1773.01	  392.49
     95.8700	  735.00	  713.98	-1738.73	  392.32
     95.9700	  650.00	  708.07	-1817.82	  392.14
     96.0700	  734.00	  710.62	-1736.37	  391.97
     96.1700	  728.00	  722.56	-1754.31	  391.79
     96.2700	  677.00	  744.56	-1827.31	  391.62
     96.3700	  766.00	  777.07	-1770.82	  391.44
     96.4700	  834.00	  820.17	-1745.92	  391.26
     96.5700	  849.00	  873.53	-1784.28	  391.09
     96.6700	  920.00	  936.23	-1775.98	  390.91
     96.7700	  983.00	 1006.74	-1783.49	  390.73
     96.8700	 1066.00	 1082.84	-1776.59	  390.54
     96.9700	 1091.00	 1161.57	-1830.32	  390.36
     97.0700	 1199.00	 1239.32	-1800.07	  390.18
     97.1700	 1272.00	 1311.87	-1799.62	  389.99
     97.2700	 1388.00	 1374.61	-1746.36	  389.81
     97.3700	 1414.00	 1422.99	-1768.74	  389.62
     97.4700	 1411.00	 1453.10	-1801.85	  389.44
     97.5700	 1469.00	 1462.45	-1753.20	  389.25
     97.6700	 1497.00	 1450.52	-1713.27	  389.06
     97.7700	 1413.00	 1418.91	-1765.66	  388.87
     97.8700	 1401.00	 1370.83	-1729.58	  388.68
     97.9700	 1269.00	 1310.42	-1801.17	  388.49
     98.0700	 1180.00	 1242.10	-1821.85	  388.30
     98.1700	 1151.00	 1170.26	-1779.01	  388.11
     98.2700	 1154.00	 1098.83	-1704.58	  387.92
     98.3700	  954.00	 1031.24	-1836.99	  387.72
     98.4700	  975.00	  970.37	-1755.12	  387.53
     98.5700	  959.00	  918.50	-1719.25	  387.33
     98.6700	  846.00	  877.43	-1791.18	  387.14
     98.7700	  861.00	  848.48	-1747.23	  386.94
     98.8700	  790.00	  832.59	-1802.34	  386.74
     98.9700	  810.00	  830.39	-1780.14	  386.55
     99.0700	  813.00	  842.29	-1789.04	  386.35
     99.1700	  847.00	  868.45	-1781.20	  386.15
     99.2700	  887.00	  908.87	-1781.62	  385.95
     99.3700	  963.00	  963.29	-1760.04	  385.75
     99.4700	  973.00	 1031.14	-1817.89	  385.55
     99.5700	 1165.00	 1111.52	-1706.27	  385.34
     99.6700	 1204.00	 1202.98	-1758.73	  385.14
     99.7700	 1314.00	 1303.53	-1749.28	  384.94
     99.8700	 1430.00	 1410.54	-1740.29	  384.73
     99.9700	 1512.00	 1520.62	-1768.37	  384.53
    100.0700	 1641.00	 1629.77	-1748.52	  384.33
    100.1700	 1717.00	 1733.59	-1776.34	  384.12
    100.2700	 1773.00	 1827.62	-1814.37	  383.92
    100.3700	 1982.00	 1907.87	-1685.62	  383.71
    100.4700	 2007.00	 1971.21	-1723.96	  383.50
    100.5700	 2110.00	 2015.43	-1665.18	  383.30
    100.6700	 2130.00	 2039.19	-1668.94	  383.09
    100.7700	 1989.00	 2041.73	-1812.48	  382.88
    100.8700	 2017.00	 2022.84	-1765.59	  382.67
    100.9700	 2025.00	 1983.20	-1717.95	  382.46
    101.0700	 1927.00	 1924.69	-1757.44	  382.25
    101.1700	 1911.00	 1850.58	-1699.33	  382.04
    101.2700	 1743.00	 1765.30	-1782.05	  381.83
    101.3700	 1711.00	 1673.84	-1722.59	  381.62
    101.4700	 1649.00	 1581.21	-1691.96	  381.41
    101.5700	 1444.00	 1491.85	-1807.60	  381.20
    101.6700	 1373.00	 1409.33	-1796.08	  380.99
    101.7700	 1384.00	 1336.20	-1711.95	  380.78
    101.8700	 1264.00	 1273.99	-1769.74	  380.57
    101.9700	 1229.00	 1223.13	-1753.88	  380.36
    102.0700	 1202.00	 1183.09	-1740.84	  380.14
    102.1700	 1159.00	 1152.46	-1753.21	  379.93
    102.2700	 1157.00	 1129.15	-1731.90	  379.72
    102.3700	 1133.00	 1110.62	-1737.37	  379.50
    102.4700	 1052.00	 1094.09	-1801.84	  379.29
    102.5700	 1090.00	 1076.95	-1746.70	  379.08
    102.6700	 1045.00	 1057.06	-1771.81	  378.86
    102.7700	  995.00	 1033.05	-1797.80	  378.65
    102.8700	 1011.00	 1004.42	-1753.17	  378.44
    102.9700	  891.00	  971.45	-1840.20	  378.22
    103.0700	  953.00	  934.96	-1741.71	  378.01
    103.1700	  895.00	  896.13	-1760.88	  377.79
    103.2700	  805.00	  856.19	-1810.94	  377.58
    103.3700	  878.00	  816.40	-1698.15	  377.37
    103.4700	  821.00	  777.88	-1716.63	  377.15
    103.5700	  747.00	  741.56	-1754.31	  376.94
    103.6700	  737.00	  708.19	-1730.94	  376.72
    103.7700	  658.00	  678.27	-1780.02	  376.51
    103.8700	  667.00	  652.07	-1744.82	  376.30
    103.9700	  611.00	  629.66	-1778.41	  376.08
    104.0700	  604.00	  610.95	-1766.70	  375.87
    104.1700	  574.00	  595.71	-1781.46	  375.66
    104.2700	  548.00	  583.60	-1795.35	  375.44
    104.3700	  558.00	  574.25	-1776.00	  375.23
    104.4700	  535.00	  567.27	-1792.02	  375.02
    104.5700	  570.00	  562.28	-1752.03	  374.80
    104.6700	  571.00	  558.92	-1747.67	  374.59
    104.7700	  554.00	  556.89	-1762.64	  374.38
    104.8700	  535.00	  555.92	-1780.67	  374.16
    104.9700	  544.00	  555.79	-1771.54	  373.95
    105.0700	  576.00	  556.36	-1740.11	  373.74
    105.1700	  532.00	  557.48	-1785.23	  373.53
    105.2700	  578.00	  559.06	-1740.81	  373.32
    105.3700	  524.00	  561.11	-1796.86	  373.11
    105.4700	  527.00	  563.60	-1796.35	  372.90
    105.5700	  526.00	  566.57	-1800.32	  372.69
    105.6700	  554.00	  570.10	-1775.85	  372.48
    105.7700	  590.00	  574.28	-1744.03	  372.27
    105.8700	  548.00	  579.22	-1790.97	  372.06
    105.9700	  546.00	  585.03	-1798.78	  371.85
    106.0700	  589.00	  591.75	-1762.50	  371.64
    106.1700	  591.00	  599.43	-1768.18	  371.44
    106.2700	  549.00	  608.03	-1818.78	  371.23
    106.3700	  658.00	  617.44	-1719.19	  371.03
    106.4700	  616.00	  627.49	-1771.24	  370.82
    106.5700	  645.00	  637.95	-1752.70	  370.62
    106.6700	  624.00	  648.51	-1784.26	  370.41
    106.7700	  653.00	  658.83	-1765.58	  370.21
    106.8700	  652.00	  668.50	-1776.25	  370.00
    106.9700	  682.00	  677.12	-1754.87	  369.80
    107.0700	  684.00	  684.31	-1760.06	  369.60
    107.1700	  659.00	  689.78	-1790.53	  369.40
    107.2700	  696.00	  693.37	-1757.12	  369.20
    107.3700	  661.00	  695.07	-1793.82	  369.00
    107.4700	  678.00	  695.07	-1776.82	  368.80
    107.5700	  711.00	  693.71	-1742.46	  368.61
    107.6700	  673.00	  691.41	-1778.16	  368.41
    107.7700	  717.00	  688.64	-1731.39	  368.21
    107.8700	  650.00	  685.82	-1795.57	  368.02
    107.9700	  645.00	  683.31	-1798.06	  367.83
    108.0700	  700.00	  681.38	-1741.13	  367.63
    108.1700	  660.00	  680.18	-1779.93	  367.44
    108.2700	  714.00	  679.74	-1725.49	  367.25
    108.3700	  671.00	  679.98	-1768.73	  367.06
    108.4700	  648.00	  680.72	-1792.47	  366.87
    108.5700	  705.00	  681.65	-1736.40	  366.68
    108.6700	  700.00	  682.43	-1742.18	  366.50
    108.7700	  677.00	  682.65	-1765.40	  366.31
    108.8700	  659.00	  681.91	-1782.66	  366.13
    108.9700	  665.00	  679.91	-1774.66	  365.95
    109.0700	  726.00	  676.41	-1710.16	  365.76
    109.1700	  674.00	  671.35	-1757.10	  365.58
    109.2700	  744.00	  664.79	-1680.54	  365.40
    109.3700	  643.00	  656.92	-1773.67	  365.23
    109.4700	  661.00	  648.01	-1746.76	  365.05
    109.5700	  657.00	  638.37	-1741.12	  364.88
    109.6700	  577.00	  628.33	-1811.08	  364.70
    109.7700	  616.00	  618.20	-1761.95	  364.53
    109.8700	  620.00	  608.28	-1748.03	  364.36
    109.9700	  624.00	  598.82	-1734.57	  364.19
    110.0700	  568.00	  590.02	-1781.77	  364.02
    110.1700	  584.00	  582.04	-1757.79	  363.85
    110.2700	  617.00	  574.99	-1717.74	  363.69
    110.3700	  561.00	  568.92	-1767.67	  363.53
    110.4700	  571.00	  563.85	-1752.60	  363.36
    110.5700	  552.00	  559.75	-1767.50	  363.20
    110.6700	  591.00	  556.59	-1725.34	  363.05
    110.7700	  522.00	  554.28	-1792.03	  362.89
    110.8700	  572.00	  552.74	-1740.49	  362.73
    110.9700	  579.00	  551.88	-1732.63	  362.58
    111.0700	  525.00	  551.62	-1786.37	  362.43
    111.1700	  519.00	  551.87	-1792.62	  362.28
    111.2700	  569.00	  552.55	-1743.30	  362.13
    111.3700	  536.00	  553.60	-1777.35	  361.99
    111.4700	  566.00	  554.96	-1748.71	  361.84
    111.5700	  548.00	  556.59	-1768.34	  361.70
    111.6700	  561.00	  558.44	-1757.19	  361.56
    111.7700	  574.00	  560.49	-1746.24	  361.42
    111.8700	  533.00	  562.74	-1789.49	  361.28
    111.9700	  511.00	  565.16	-1813.91	  361.15
    112.0700	  577.00	  567.78	-1750.53	  361.02
    112.1700	  575.00	  570.59	-1755.34	  360.89
    112.2700	  598.00	  573.63	-1735.38	  360.76
    112.3700	  573.00	  576.92	-1763.67	  360.63
    112.4700	  586.00	  580.51	-1754.26	  360.51
    112.5700	  559.00	  584.44	-1785.19	  360.39
    112.6700	  569.00	  588.80	-1779.55	  360.27
    112.7700	  620.00	  593.66	-1733.41	  360.15
    112.8700	  647.00	  599.14	-1711.89	  360.04
    112.9700	  644.00	  605.38	-1721.13	  359.93
    113.0700	  703.00	  612.58	-1669.33	  359.82
    113.1700	  655.00	  620.96	-1725.71	  359.71
    113.2700	  753.00	  630.88	-1637.63	  359.61
    113.3700	  727.00	  642.73	-1675.48	  359.50
    113.4700	  746.00	  657.00	-1670.75	  359.41
    113.5700	  759.00	  674.36	-1675.11	  359.31
    113.6700	  781.00	  695.59	-1674.34	  359.21
    113.7700	  840.00	  721.66	-1641.41	  359.12
    113.8700	  883.00	  753.73	-1630.48	  359.03
    113.9700	  965.00	  793.17	-1587.92	  358.95
    114.0700	  971.00	  841.59	-1630.34	  358.86
    114.1700	 1111.00	  900.79	-1549.54	  358.78
    114.2700	 1158.00	  972.77	-1574.52	  358.70
    114.3700	 1195.00	 1059.73	-1624.48	  358.63
    114.4700	 1253.00	 1163.97	-1670.72	  358.56
    114.5700	 1400.00	 1287.86	-1647.61	  358.49
    114.6700	 1500.00	 1433.69	-1693.44	  358.42
    114.7700	 1730.00	 1603.59	-1633.34	  358.36
    114.8700	 1911.00	 1799.43	-1648.18	  358.30
    114.9700	 2120.00	 2022.56	-1662.31	  358.24
    115.0700	 2355.00	 2273.81	-1678.56	  358.18
    115.1700	 2607.00	 2553.18	-1705.93	  358.13
    115.2700	 2861.00	 2859.70	-1758.45	  358.09
    115.3700	 3043.00	 3191.51	-1908.26	  358.04
    115.4700	 3441.00	 3545.43	-1864.18	  358.00
    115.5700	 3821.00	 3917.26	-1856.01	  357.96
    115.6700	 4182.00	 4301.40	-1879.15	  357.93
    115.7700	 4441.00	 4691.01	-2009.76	  357.89
    115.8700	 4816.00	 5078.27	-2022.02	  357.87
    115.9700	 5281.00	 5454.02	-1932.77	  357.84
    116.0700	 5643.00	 5808.44	-1925.19	  357.82
    116.1700	 5965.00	 6130.90	-1925.65	  357.80
    116.2700	 6464.00	 6410.55	-1706.30	  357.79
    116.3700	 6593.00	 6637.09	-1803.84	  357.78
    116.4700	 6682.00	 6801.22	-1878.97	  357.77
    116.5700	 6901.00	 6895.88	-1754.63	  357.77
    116.6700	 6998.00	 6916.81	-1678.56	  357.77
    116.7700	 7039.00	 6863.31	-1584.06	  357.77
    116.8700	 6838.00	 6738.19	-1659.94	  357.78
    116.9700	 6492.00	 6547.51	-1815.26	  357.79
    117.0700	 6433.00	 6299.67	-1626.42	  357.81
    117.1700	 6036.00	 6004.64	-1728.39	  357.82
    117.2700	 5527.00	 5673.12	-1905.87	  357.85
    117.3700	 5353.00	 5315.63	-1722.38	  357.88
    117.4700	 4816.00	 4942.36	-1886.11	  357.91
    117.5700	 4627.00	 4562.48	-1695.23	  357.94
    117.6700	 4215.00	 4184.26	-1729.01	  357.98
    117.7700	 3867.00	 3814.84	-1707.59	  358.03
    117.8700	 3563.00	 3459.95	-1656.70	  358.07
    117.9700	 3219.00	 3124.30	-1665.05	  358.12
    118.0700	 2938.00	 2811.20	-1632.95	  358.18
    118.1700	 2550.00	 2523.00	-1732.75	  358.24
    118.2700	 2222.00	 2260.98	-1798.73	  358.31
    118.3700	 2027.00	 2025.43	-1758.18	  358.38
    118.4700	 1712.00	 1816.01	-1863.76	  358.45
    118.5700	 1611.00	 1631.66	-1780.41	  358.53
    118.6700	 1470.00	 1470.94	-1760.69	  358.61
    118.7700	 1273.00	 1332.03	-1818.78	  358.70
    118.8700	 1133.00	 1212.90	-1839.65	  358.79
    118.9700	 1064.00	 1111.45	-1807.20	  358.89
    119.0700	  993.00	 1025.56	-1792.31	  358.99
    119.1700	  916.00	  953.21	-1796.96	  359.09
    119.2700	  846.00	  892.51	-1806.26	  359.21
    119.3700	  785.00	  841.71	-1816.46	  359.32
    119.4700	  724.00	  799.28	-1835.03	  359.44
    119.5700	  733.00	  763.87	-1790.62	  359.57
    119.6700	  689.00	  734.31	-1805.06	  359.70
    119.7700	  674.00	  709.64	-1795.39	  359.83
    119.8700	  625.00	  689.00	-1823.75	  359.97
    119.9700	  642.00	  671.73	-1789.48	  360.12
    120.0700	  641.00	  657.27	-1776.02	  360.27
    120.1700	  624.00	  645.15	-1780.90	  360.43
    120.2700	  599.00	  635.01	-1795.76	  360.59
    120.3700	  565.00	  626.55	-1821.30	  360.75
    120.4700	  574.00	  619.53	-1805.28	  360.92
    120.5700	  558.00	  613.76	-1815.51	  361.10
    120.6700	  560.00	  609.09	-1808.84	  361.28
    120.7700	  592.00	  605.40	-1773.15	  361.47
    120.8700	  572.00	  602.60	-1790.35	  361.67
    120.9700	  577.00	  600.60	-1783.35	  361.87
    121.0700	  559.00	  599.36	-1800.11	  362.07
    121.1700	  551.00	  598.80	-1807.55	  362.28
    121.2700	  603.00	  598.89	-1755.64	  362.50
    121.3700	  593.00	  599.58	-1766.33	  362.72
    121.4700	  582.00	  600.81	-1778.56	  362.95
    121.5700	  576.00	  602.53	-1786.28	  363.18
    121.6700	  551.00	  604.69	-1813.44	  363.42
    121.7700	  622.00	  607.23	-1744.98	  363.66
    121.8700	  611.00	  610.04	-1758.79	  363.92
    121.9700	  628.00	  613.10	-1744.85	  364.17
    122.0700	  627.00	  616.29	-1749.04	  364.44
    122.1700	  617.00	  619.51	-1762.26	  364.71
    122.2700	  610.00	  622.68	-1772.43	  364.98
    122.3700	  643.00	  625.68	-1742.43	  365.26
    122.4700	  651.00	  628.42	-1737.17	  365.55
    122.5700	  656.00	  630.77	-1734.52	  365.85
    122.6700	  680.00	  632.69	-1712.44	  366.15
    122.7700	  617.00	  634.07	-1776.82	  366.46
    122.8700	  644.00	  634.87	-1750.62	  366.77
    122.9700	  699.00	  635.06	-1695.81	  367.09
    123.0700	  656.00	  634.64	-1738.39	  367.42
    123.1700	  671.00	  633.63	-1722.38	  367.75
    123.2700	  647.00	  632.06	-1744.81	  368.09
    123.3700	  679.00	  630.00	-1710.75	  368.44
    123.4700	  644.00	  627.50	-1743.25	  368.80
    123.5700	  640.00	  624.65	-1744.40	  369.16
    123.6700	  636.00	  621.51	-1745.26	  369.53
    123.7700	  620.00	  618.15	-1757.90	  369.90
    123.8700	  640.00	  614.65	-1734.41	  370.28
    123.9700	  591.00	  611.08	-1779.83	  370.67
    124.0700	  647.00	  607.50	-1720.25	  371.07
    124.1700	  586.00	  603.95	-1777.70	  371.47
    124.2700	  600.00	  600.50	-1760.25	  371.88
    124.3700	  589.00	  597.17	-1767.92	  372.30
    124.4700	  601.00	  594.01	-1752.76	  372.73
    124.5700	  629.00	  591.04	-1721.79	  373.16
    124.6700	  579.00	  588.28	-1769.03	  373.60
    124.7700	  598.00	  585.74	-1747.49	  374.05
    124.8700	  562.00	  583.45	-1781.20	  374.50
    124.9700	  573.00	  494.22	-1680.97	  374.97
    125.0700	  587.00	  494.69	-1759.75	  375.44
    125.1700	  606.00	  495.17	-1759.75	  375.91
    125.2700	  571.00	  495.66	-1759.75	  376.40
    125.3700	  629.00	  496.15	-1759.75	  376.90
    125.4700	  557.00	  496.65	-1759.75	  377.40
    125.5700	  576.00	  497.16	-1759.75	  377.91
    125.6700	  569.00	  497.68	-1759.75	  378.43
    125.7700	  551.00	  498.21	-1759.75	  378.95
    125.8700	  588.00	  498.74	-1759.75	  379.49
    125.9700	  572.00	  499.28	-1759.75	  380.03
    126.0700	  571.00	  499.84	-1759.75	  380.58
    126.1700	  598.00	  500.39	-1759.75	  381.14
    126.2700	  595.00	  500.96	-1759.75	  381.71
    126.3700	  606.00	  501.54	-1759.75	  382.28
    126.4700	  630.00	  502.12	-1759.75	  382.87
    126.5700	  584.00	  502.72	-1759.75	  383.46
    126.6700	  606.00	  503.32	-1759.75	  384.06
    126.7700	  600.00	  503.93	-1759.75	  384.67
    126.8700	  644.00	  504.55	-1759.75	  385.29
    126.9700	  630.00	  505.17	-1759.75	  385.92
    127.0700	  626.00	  505.81	-1759.75	  386.56
    127.1700	  690.00	  506.46	-1759.75	  387.20
    127.2700	  651.00	  507.11	-1759.75	  387.86
    127.3700	  627.00	  507.77	-1759.75	  388.52
    127.4700	  673.00	  508.45	-1759.75	  389.19
    127.5700	  708.00	  509.13	-1759.75	  389.87
    127.6700	  656.00	  509.82	-1759.75	  390.56
    127.7700	  716.00	  510.52	-1759.75	  391.27
    127.8700	  741.00	  511.23	-1759.75	  391.97
    127.9700	  733.00	  511.95	-1759.75	  392.69
    128.0700	  750.00	  512.68	-1759.75	  393.42
    128.1700	  797.00	  513.42	-1759.75	  394.16
    128.2700	  793.00	  514.16	-1759.75	  394.91
    128.3700	  793.00	  514.92	-1759.75	  395.67
    128.4700	  814.00	  515.69	-1759.75	  396.43
    128.5700	    0.00	  516.47	-1759.75	  397.21
    128.6700	    0.00	  517.25	-1759.75	  398.00
     12.3021	        	        	        	        	       0	(  0  0  2)	  0  1
     24.8834	        	        	        	        	       0	(  0  0  4)	  0  1
     28.3275	        	        	        	        	       0	(  1  0  0)	  0  1
     29.0246	        	        	        	        	       0	(  1  0  1)	  0  1
     31.0303	        	        	        	        	       0	(  1  0  2)	  0  1
     34.1379	        	        	        	        	       0	(  1  0  3)	  0  1
     37.7805	        	        	        	        	       0	(  0  0  6)	  0  1
     38.1141	        	        	        	        	       0	(  1  0  4)	  0  1
     42.7632	        	        	        	        	       0	(  1  0  5)	  0  1
     47.9461	        	        	        	        	       0	(  1  0  6)	  0  1
     50.2633	        	        	        	        	       0	(  1  1  0)	  0  1
     51.1996	        	        	        	        	       0	(  0  0  8)	  0  1
     51.9858	        	        	        	        	       0	(  1  1  2)	  0  1
     53.5752	        	        	        	        	       0	(  1  0  7)	  0  1
     56.9324	        	        	        	        	       0	(  1  1  4)	  0  1
     58.7597	        	        	        	        	       0	(  2  0  0)	  0  1
     59.1512	        	        	        	        	       0	(  2  0  1)	  0  1
     59.6042	        	        	        	        	       0	(  1  0  8)	  0  1
     60.3163	        	        	        	        	       0	(  2  0  2)	  0  1
     62.2290	        	        	        	        	       0	(  2  0  3)	  0  1
     64.6251	        	        	        	        	       0	(  1  1  6)	  0  1
     64.8523	        	        	        	        	       0	(  2  0  4)	  0  1
     65.4254	        	        	        	        	       0	(  0  0 10)	  0  1
     66.0189	        	        	        	        	       0	(  1  0  9)	  0  1
     68.1457	        	        	        	        	       0	(  2  0  5)	  0  1
     72.0721	        	        	        	        	       0	(  2  0  6)	  0  1
     72.8332	        	        	        	        	       0	(  1  0 10)	  0  1
     74.6600	        	        	        	        	       0	(  1  1  8)	  0  1
     76.6049	        	        	        	        	       0	(  2  0  7)	  0  1
     80.0887	        	        	        	        	       0	(  1  0 11)	  0  1
     80.9014	        	        	        	        	       0	(  0  0 12)	  0  1
     80.9993	        	        	        	        	       0	(  2  1  0)	  0  1
     81.3391	        	        	        	        	       0	(  2  1  1)	  0  1
     81.7336	        	        	        	        	       0	(  2  0  8)	  0  1
     82.3566	        	        	        	        	       0	(  2  1  2)	  0  1
     84.0474	        	        	        	        	       0	(  2  1  3)	  0  1
     86.4063	        	        	        	        	       0	(  2  1  4)	  0  1
     86.9276	        	        	        	        	       0	(  1  1 10)	  0  1
     87.4698	        	        	        	        	       0	(  2  0  9)	  0  1
     87.8605	        	        	        	        	       0	(  1  0 12)	  0  1
     89.4312	        	        	        	        	       0	(  2  1  5)	  0  1
     93.1274	        	        	        	        	       0	(  2  1  6)	  0  1
     93.8550	        	        	        	        	       0	(  2  0 10)	  0  1
     94.8869	        	        	        	        	       0	(  3  0  0)	  0  1
     95.2242	        	        	        	        	       0	(  3  0  1)	  0  1
     96.2370	        	        	        	        	       0	(  3  0  2)	  0  1
     96.2706	        	        	        	        	       0	(  1  0 13)	  0  1
     97.5144	        	        	        	        	       0	(  2  1  7)	  0  1
     97.9298	        	        	        	        	       0	(  3  0  3)	  0  1
     98.4344	        	        	        	        	       0	(  0  0 14)	  0  1
    100.3119	        	        	        	        	       0	(  3  0  4)	  0  1
    100.9742	        	        	        	        	       0	(  2  0 11)	  0  1
    101.7925	        	        	        	        	       0	(  1  1 12)	  0  1
    102.6350	        	        	        	        	       0	(  2  1  8)	  0  1
    103.4024	        	        	        	        	       0	(  3  0  5)	  0  1
    105.5193	        	        	        	        	       0	(  1  0 14)	  0  1
    107.2360	        	        	        	        	       0	(  3  0  6)	  0  1
    108.5694	        	        	        	        	       0	(  2  1  9)	  0  1
    108.9820	        	        	        	        	       0	(  2  0 12)	  0  1
    111.8745	        	        	        	        	       0	(  3  0  7)	  0  1
    115.4631	        	        	        	        	       0	(  2  1 10)	  0  1
    115.9574	        	        	        	        	       0	(  1  0 15)	  0  1
    116.6093	        	        	        	        	       0	(  2  2  0)	  0  1
    117.4254	        	        	        	        	       0	(  3  0  8)	  0  1
    118.1238	        	        	        	        	       0	(  2  2  2)	  0  1
    118.1617	        	        	        	        	       0	(  2  0 13)	  0  1
    119.9117	        	        	        	        	       0	(  0  0 16)	  0  1
    120.6273	        	        	        	        	       0	(  1  1 14)	  0  1
    122.8072	        	        	        	        	       0	(  2  2  4)	  0  1
    123.5859	        	        	        	        	       0	(  2  1 11)	  0  1
    124.0820	        	        	        	        	       0	(  3  0  9)	  0  1
    124.6731	        	        	        	        	       0	(  3  1  0)	  0  1
    125.0832	        	        	        	        	       0	(  3  1  1)	  0  1
    126.3260	        	        	        	        	       0	(  3  1  2)	  0  1
    128.2926	        	        	        	        	       0	(  1  0 16)	  0  1
    128.4432	        	        	        	        	       0	(  3  1  3)	  0  1
    129.0848	        	        	        	        	       0	(  2  0 14)	  0  1
    131.2428	        	        	        	        	       0	(  2  2  6)	  0  1
    131.5176	        	        	        	        	       0	(  3  1  4)	  0  1
    132.2179	        	        	        	        	       0	(  3  0 10)	  0  1
    133.4919	        	        	        	        	       0	(  2  1 12)	  0  1
    135.7023	        	        	        	        	       0	(  3  1  5)	  0  1
    141.2941	        	        	        	        	       0	(  3  1  6)	  0  1
    142.6888	        	        	        	        	       0	(  3  0 11)	  0  1
    143.2128	        	        	        	        	       0	(  2  0 15)	  0  1
    144.4472	        	        	        	        	       0	(  1  0 17)	  0  1
    145.4672	        	        	        	        	       0	(  2  2  8)	  0  1
    146.6362	        	        	        	        	       0	(  2  1 13)	  0  1
    148.9612	        	        	        	        	       0	(  3  1  7)	  0  1
    149.5377	        	        	        	        	       0	(  1  1 16)	  0  1
    153.9274	        	        	        	        	       0	(  0  0 18)	  0  1
    158.5476	        	        	        	        	       0	(  3  0 12)	  0  1
    158.8152	        	        	        	        	       0	(  4  0  0)	  0  1
    159.7708	        	        	        	        	       0	(  4  0  1)	  0  1
    160.9394	        	        	        	        	       0	(  3  1  8)	  0  1
    162.9445	        	        	        	        	       0	(  4  0  2)	  0  1
    169.5865	        	        	        	        	       0	(  2  0 16)	  0  1
    170.2690	        	        	        	        	       0	(  4  0  3)	  0  1
    173.9731	        	        	        	        	       0	(  2  1 14)	  0  1
