MSG Master    CELL:    5.89259   5.89259  23.15776   90.0000   90.0000  120.0000   SPGR: P 63/m m c             TEMP:    678.85
  2   1280     2.52000     0.00000    -0.10249     0.00000     0.00000    0
    96    96     0     0     2
       0.00000      10.00000
     125.00000     130.00000
 2Theta	Yobs	Ycal	Yobs-Ycal	Backg	Posr	(hkl)	K
      0.7700	    0.00	  717.31	-1846.97	  596.51
      0.8700	    0.00	  716.69	-1846.97	  595.89
      0.9700	   59.00	  716.07	-1846.97	  595.27
      1.0700	   58.00	  715.45	-1846.97	  594.65
      1.1700	   43.00	  714.83	-1846.97	  594.03
      1.2700	   49.00	  714.20	-1846.97	  593.40
      1.3700	   51.00	  713.58	-1846.97	  592.78
      1.4700	  110.00	  712.95	-1846.97	  592.15
      1.5700	  309.00	  712.33	-1846.97	  591.53
      1.6700	  459.00	  711.70	-1846.97	  590.90
      1.7700	  609.00	  711.07	-1846.97	  590.27
      1.8700	  628.00	  710.44	-1846.97	  589.64
      1.9700	  778.00	  709.82	-1846.97	  589.02
      2.0700	  772.00	  709.18	-1846.97	  588.38
      2.1700	  795.00	  708.55	-1846.97	  587.75
      2.2700	  742.00	  707.92	-1846.97	  587.12
      2.3700	  781.00	  707.29	-1846.97	  586.49
      2.4700	  745.00	  706.65	-1846.97	  585.85
      2.5700	  706.00	  706.02	-1846.97	  585.22
      2.6700	  686.00	  705.38	-1846.97	  584.58
      2.7700	  618.00	  704.75	-1846.97	  583.95
      2.8700	  633.00	  704.11	-1846.97	  583.31
      2.9700	  649.00	  703.47	-1846.97	  582.67
      3.0700	  643.00	  702.84	-1846.97	  582.04
      3.1700	  572.00	  702.20	-1846.97	  581.40
      3.2700	  706.00	  701.56	-1846.97	  580.76
      3.3700	  852.00	  700.92	-1846.97	  580.12
      3.4700	  986.00	  700.28	-1846.97	  579.48
      3.5700	 1136.00	  699.64	-1846.97	  578.84
      3.6700	 1241.00	  698.99	-1846.97	  578.19
      3.7700	 1366.00	  698.35	-1846.97	  577.55
      3.8700	 1425.00	  697.71	-1846.97	  576.91
      3.9700	 1528.00	  697.07	-1846.97	  576.27
      4.0700	 1535.00	  696.42	-1846.97	  575.62
      4.1700	 1558.00	  695.78	-1846.97	  574.98
      4.2700	 1665.00	  695.13	-1846.97	  574.33
      4.3700	 1623.00	  694.49	-1846.97	  573.69
      4.4700	 1548.00	  693.85	-1846.97	  573.04
      4.5700	 1515.00	  693.20	-1846.97	  572.40
      4.6700	 1414.00	  692.55	-1846.97	  571.75
      4.7700	 1412.00	  691.91	-1846.97	  571.11
      4.8700	 1300.00	  691.26	-1846.97	  570.46
      4.9700	 1311.00	  690.62	-1846.97	  569.82
      5.0700	 1272.00	  689.97	-1846.97	  569.17
      5.1700	 1202.00	  689.32	-1846.97	  568.52
      5.2700	 1160.00	  688.68	-1846.97	  567.88
      5.3700	 1143.00	  688.03	-1846.97	  567.23
      5.4700	 1126.00	  687.38	-1846.97	  566.58
      5.5700	 1078.00	  686.73	-1846.97	  565.93
      5.6700	 1109.00	  686.09	-1846.97	  565.29
      5.7700	 1021.00	  685.44	-1846.97	  564.64
      5.8700	 1033.00	  684.79	-1846.97	  563.99
      5.9700	 1035.00	  684.14	-1846.97	  563.34
      6.0700	 1010.00	  683.50	-1846.97	  562.70
      6.1700	 1021.00	  682.85	-1846.97	  562.05
      6.2700	  943.00	  682.20	-1846.97	  561.40
      6.3700	  949.00	  681.55	-1846.97	  560.75
      6.4700	  955.00	  680.91	-1846.97	  560.11
      6.5700	  932.00	  680.26	-1846.97	  559.46
      6.6700	  884.00	  679.61	-1846.97	  558.81
      6.7700	  871.00	  678.97	-1846.97	  558.17
      6.8700	  859.00	  678.32	-1846.97	  557.52
      6.9700	  845.00	  677.67	-1846.97	  556.87
      7.0700	  891.00	  677.03	-1846.97	  556.22
      7.1700	  855.00	  676.38	-1846.97	  555.58
      7.2700	  865.00	  675.73	-1846.97	  554.93
      7.3700	  854.00	  675.09	-1846.97	  554.29
      7.4700	  807.00	  674.44	-1846.97	  553.64
      7.5700	  808.00	  673.80	-1846.97	  553.00
      7.6700	  723.00	  673.15	-1846.97	  552.35
      7.7700	  817.00	  672.51	-1846.97	  551.71
      7.8700	  713.00	  671.86	-1846.97	  551.06
      7.9700	  739.00	  671.22	-1846.97	  550.42
      8.0700	  750.00	  670.57	-1846.97	  549.77
      8.1700	  771.00	  669.93	-1846.97	  549.13
      8.2700	  709.00	  669.29	-1846.97	  548.49
      8.3700	  772.00	  668.64	-1846.97	  547.84
      8.4700	  710.00	  668.00	-1846.97	  547.20
      8.5700	  701.00	  667.36	-1846.97	  546.56
      8.6700	  748.00	  666.72	-1846.97	  545.92
      8.7700	  729.00	  666.08	-1846.97	  545.28
      8.8700	  730.00	  665.44	-1846.97	  544.64
      8.9700	  715.00	  664.80	-1846.97	  544.00
      9.0700	  735.00	  664.16	-1846.97	  543.36
      9.1700	  737.00	  663.52	-1846.97	  542.72
      9.2700	  675.00	  662.88	-1846.97	  542.08
      9.3700	  737.00	  662.24	-1846.97	  541.44
      9.4700	  697.00	  661.61	-1846.97	  540.81
      9.5700	  615.00	  660.97	-1846.97	  540.17
      9.6700	  675.00	  660.34	-1846.97	  539.54
      9.7700	  678.00	  659.70	-1846.97	  538.90
      9.8700	  736.00	  659.07	-1846.97	  538.27
      9.9700	  684.00	  658.43	-1846.97	  537.63
     10.0700	  702.00	  659.94	-1804.91	  537.00
     10.1700	  721.00	  659.55	-1785.51	  536.37
     10.2700	  712.00	  659.21	-1794.17	  535.73
     10.3700	  640.00	  658.94	-1865.90	  535.10
     10.4700	  679.00	  658.77	-1826.74	  534.47
     10.5700	  687.00	  658.75	-1818.72	  533.84
     10.6700	  646.00	  658.96	-1859.92	  533.22
     10.7700	  716.00	  659.47	-1790.44	  532.59
     10.8700	  663.00	  660.40	-1844.37	  531.96
     10.9700	  627.00	  661.81	-1881.78	  531.33
     11.0700	  676.00	  663.73	-1834.70	  530.71
     11.1700	  653.00	  666.18	-1860.14	  530.08
     11.2700	  678.00	  669.17	-1838.14	  529.46
     11.3700	  689.00	  672.78	-1830.75	  528.84
     11.4700	  694.00	  677.12	-1830.09	  528.22
     11.5700	  724.00	  682.38	-1805.35	  527.59
     11.6700	  695.00	  688.83	-1840.80	  526.97
     11.7700	  741.00	  696.78	-1802.75	  526.36
     11.8700	  746.00	  706.50	-1807.47	  525.74
     11.9700	  752.00	  717.85	-1812.82	  525.12
     12.0700	  794.00	  729.85	-1782.82	  524.50
     12.1700	  814.00	  740.01	-1772.97	  523.89
     12.2700	  748.00	  743.96	-1842.93	  523.27
     12.3700	  768.00	  736.98	-1815.95	  522.66
     12.4700	  737.00	  719.47	-1829.44	  522.05
     12.5700	  719.00	  698.64	-1826.61	  521.44
     12.6700	  624.00	  680.73	-1903.70	  520.83
     12.7700	  642.00	  667.63	-1872.59	  520.22
     12.8700	  679.00	  658.84	-1826.81	  519.61
     12.9700	  577.00	  653.12	-1923.09	  519.00
     13.0700	  622.00	  649.33	-1874.30	  518.40
     13.1700	  619.00	  646.66	-1874.63	  517.79
     13.2700	  665.00	  644.63	-1826.60	  517.19
     13.3700	  624.00	  642.97	-1865.94	  516.59
     13.4700	  616.00	  641.56	-1872.53	  515.99
     13.5700	  640.00	  640.32	-1847.29	  515.38
     13.6700	  669.00	  639.20	-1817.17	  514.79
     13.7700	  628.00	  638.18	-1857.15	  514.19
     13.8700	  602.00	  637.24	-1882.21	  513.59
     13.9700	  596.00	  636.35	-1887.32	  513.00
     14.0700	  628.00	  635.51	-1854.48	  512.40
     14.1700	  607.00	  634.70	-1874.67	  511.81
     14.2700	  671.00	  633.93	-1809.90	  511.22
     14.3700	  594.00	  633.18	-1886.15	  510.63
     14.4700	  642.00	  632.46	-1837.42	  510.04
     14.5700	  633.00	  631.75	-1845.72	  509.45
     14.6700	  606.00	  631.06	-1872.02	  508.86
     14.7700	  595.00	  630.38	-1882.34	  508.28
     14.8700	  614.00	  629.71	-1862.68	  507.69
     14.9700	  618.00	  629.05	-1858.02	  507.11
     15.0700	  603.00	  628.40	-1872.37	  506.53
     15.1700	  677.00	  627.76	-1797.73	  505.95
     15.2700	  626.00	  627.13	-1848.10	  505.37
     15.3700	  672.00	  626.50	-1801.47	  504.79
     15.4700	  651.00	  625.88	-1821.85	  504.22
     15.5700	  647.00	  625.27	-1825.24	  503.64
     15.6700	  633.00	  624.66	-1838.63	  503.07
     15.7700	  601.00	  624.05	-1870.02	  502.50
     15.8700	  597.00	  623.45	-1873.42	  501.93
     15.9700	  571.00	  622.85	-1898.82	  501.36
     16.0700	  620.00	  622.26	-1849.23	  500.79
     16.1700	  588.00	  621.67	-1880.64	  500.22
     16.2700	  587.00	  621.08	-1881.05	  499.66
     16.3700	  637.00	  620.50	-1830.47	  499.09
     16.4700	  618.00	  619.92	-1848.89	  498.53
     16.5700	  576.00	  619.34	-1890.31	  497.97
     16.6700	  612.00	  618.76	-1853.73	  497.41
     16.7700	  583.00	  618.19	-1882.16	  496.86
     16.8700	  578.00	  617.62	-1886.59	  496.30
     16.9700	  605.00	  617.05	-1859.02	  495.75
     17.0700	  565.00	  616.49	-1898.46	  495.19
     17.1700	  636.00	  615.93	-1826.90	  494.64
     17.2700	  621.00	  615.37	-1841.33	  494.09
     17.3700	  584.00	  614.81	-1877.78	  493.54
     17.4700	  627.00	  614.25	-1834.22	  493.00
     17.5700	  568.00	  613.70	-1892.67	  492.45
     17.6700	  591.00	  613.15	-1869.12	  491.91
     17.7700	  606.00	  612.60	-1853.57	  491.36
     17.8700	  581.00	  612.05	-1878.02	  490.82
     17.9700	  600.00	  611.51	-1858.48	  490.28
     18.0700	  558.00	  610.97	-1899.93	  489.75
     18.1700	  661.00	  611.35	-1797.32	  489.21
     18.2700	  573.00	  611.37	-1885.34	  488.68
     18.3700	  566.00	  610.86	-1891.83	  488.14
     18.4700	  609.00	  610.36	-1848.32	  487.61
     18.5700	  575.00	  609.86	-1881.82	  487.08
     18.6700	  568.00	  609.36	-1888.32	  486.56
     18.7700	  613.00	  608.86	-1842.83	  486.03
     18.8700	  643.00	  608.37	-1812.34	  485.51
     18.9700	  585.00	  607.88	-1869.85	  484.98
     19.0700	  590.00	  607.39	-1864.36	  484.46
     19.1700	  636.00	  606.91	-1817.88	  483.94
     19.2700	  583.00	  606.43	-1870.40	  483.42
     19.3700	  600.00	  605.96	-1852.92	  482.91
     19.4700	  628.00	  605.48	-1824.45	  482.39
     19.5700	  599.00	  605.01	-1852.98	  481.88
     19.6700	  570.00	  604.61	-1881.58	  481.37
     19.7700	  570.00	  604.15	-1881.12	  480.86
     19.8700	  598.00	  603.69	-1852.66	  480.35
     19.9700	  641.00	  603.24	-1809.21	  479.85
     20.0700	  556.00	  602.79	-1893.76	  479.34
     20.1700	  577.00	  602.34	-1872.31	  478.84
     20.2700	  614.00	  601.90	-1834.87	  478.34
     20.3700	  628.00	  601.47	-1820.43	  477.84
     20.4700	  608.00	  601.03	-1840.00	  477.34
     20.5700	  574.00	  600.61	-1873.58	  476.85
     20.6700	  564.00	  600.19	-1883.15	  476.36
     20.7700	  624.00	  599.77	-1822.74	  475.86
     20.8700	  583.00	  599.36	-1863.32	  475.37
     20.9700	  586.00	  598.95	-1859.92	  474.88
     21.0700	  563.00	  598.55	-1882.52	  474.40
     21.1700	  564.00	  598.15	-1881.12	  473.91
     21.2700	  578.00	  597.77	-1866.73	  473.43
     21.3700	  584.00	  597.38	-1860.35	  472.95
     21.4700	  619.00	  597.01	-1824.98	  472.47
     21.5700	  639.00	  596.64	-1804.61	  471.99
     21.6700	  606.00	  596.28	-1837.25	  471.52
     21.7700	  601.00	  595.93	-1841.90	  471.04
     21.8700	  605.00	  595.59	-1837.56	  470.57
     21.9700	  585.00	  595.26	-1857.22	  470.10
     22.0700	  609.00	  595.11	-1833.08	  469.63
     22.1700	  613.00	  594.80	-1828.77	  469.16
     22.2700	  572.00	  594.50	-1869.47	  468.70
     22.3700	  594.00	  594.22	-1847.19	  468.24
     22.4700	  624.00	  593.95	-1816.92	  467.78
     22.5700	  589.00	  593.70	-1851.66	  467.32
     22.6700	  603.00	  593.46	-1837.43	  466.86
     22.7700	  597.00	  593.24	-1843.21	  466.40
     22.8700	  586.00	  593.05	-1854.02	  465.95
     22.9700	  579.00	  592.88	-1860.85	  465.50
     23.0700	  632.00	  592.74	-1807.70	  465.05
     23.1700	  577.00	  592.63	-1862.60	  464.60
     23.2700	  638.00	  592.56	-1801.53	  464.15
     23.3700	  604.00	  592.54	-1835.51	  463.71
     23.4700	  584.00	  592.58	-1855.55	  463.27
     23.5700	  591.00	  592.69	-1848.66	  462.82
     23.6700	  577.00	  592.90	-1862.86	  462.39
     23.7700	  598.00	  593.23	-1842.20	  461.95
     23.8700	  607.00	  593.76	-1833.73	  461.51
     23.9700	  591.00	  594.57	-1850.54	  461.08
     24.0700	  623.00	  595.79	-1819.76	  460.65
     24.1700	  576.00	  597.77	-1868.74	  460.22
     24.2700	  582.00	  600.82	-1865.78	  459.79
     24.3700	  610.00	  605.37	-1842.33	  459.37
     24.4700	  649.00	  611.79	-1809.76	  458.94
     24.5700	  653.00	  620.18	-1814.15	  458.52
     24.6700	  674.00	  630.14	-1803.11	  458.10
     24.7700	  710.00	  640.40	-1777.37	  457.68
     24.8700	  685.00	  648.48	-1810.45	  457.27
     24.9700	  708.00	  650.85	-1789.81	  456.85
     25.0700	  687.00	  645.27	-1805.24	  456.44
     25.1700	  675.00	  634.27	-1806.24	  456.03
     25.2700	  645.00	  622.71	-1824.68	  455.62
     25.3700	  701.00	  613.47	-1759.44	  455.22
     25.4700	  651.00	  607.16	-1803.13	  454.81
     25.5700	  602.00	  603.36	-1848.33	  454.41
     25.6700	  582.00	  601.38	-1866.35	  454.01
     25.7700	  651.00	  600.60	-1796.56	  453.61
     25.8700	  648.00	  600.58	-1799.54	  453.22
     25.9700	  608.00	  601.09	-1840.05	  452.82
     26.0700	  639.00	  602.02	-1809.98	  452.43
     26.1700	  675.00	  603.33	-1775.30	  452.04
     26.2700	  635.00	  605.03	-1817.00	  451.65
     26.3700	  625.00	  607.15	-1829.12	  451.26
     26.4700	  644.00	  609.75	-1812.72	  450.88
     26.5700	  632.00	  612.90	-1827.86	  450.49
     26.6700	  595.00	  616.70	-1868.67	  450.11
     26.7700	  600.00	  621.31	-1868.28	  449.73
     26.8700	  660.00	  626.91	-1813.88	  449.36
     26.9700	  628.00	  633.78	-1852.75	  448.98
     27.0700	  662.00	  642.28	-1827.25	  448.61
     27.1700	  608.00	  652.96	-1891.92	  448.24
     27.2700	  700.00	  666.67	-1813.64	  447.87
     27.3700	  714.00	  684.97	-1817.94	  447.50
     27.4700	  729.00	  710.87	-1828.84	  447.13
     27.5700	  740.00	  750.45	-1857.42	  446.77
     27.6700	  773.00	  815.18	-1889.15	  446.41
     27.7700	  841.00	  924.69	-1930.66	  446.05
     27.8700	  875.00	 1107.80	-2079.76	  445.69
     27.9700	 1106.00	 1396.84	-2137.81	  445.33
     28.0700	 1526.00	 1810.81	-2131.78	  444.98
     28.1700	 2149.00	 2328.73	-2026.70	  444.63
     28.2700	 3076.00	 2859.56	-1630.53	  444.28
     28.3700	 3831.00	 3226.73	-1242.69	  443.93
     28.4700	 3660.00	 3226.81	-1413.77	  443.59
     28.5700	 3030.00	 2858.62	-1675.59	  443.24
     28.6700	 2221.00	 2406.97	-2032.93	  442.90
     28.7700	 1879.00	 2116.76	-2084.73	  442.56
     28.8700	 1912.00	 2045.68	-1980.65	  442.22
     28.9700	 2128.00	 2119.28	-1838.25	  441.88
     29.0700	 2323.00	 2190.00	-1713.97	  441.55
     29.1700	 2318.00	 2103.99	-1632.96	  441.22
     29.2700	 1835.00	 1825.42	-1837.39	  440.89
     29.3700	 1444.00	 1475.93	-1878.90	  440.56
     29.4700	 1148.00	 1174.46	-1873.43	  440.23
     29.5700	  927.00	  961.51	-1881.48	  439.91
     29.6700	  790.00	  829.31	-1886.27	  439.59
     29.7700	  755.00	  753.03	-1845.00	  439.26
     29.8700	  786.00	  709.08	-1770.05	  438.95
     29.9700	  750.00	  682.00	-1778.96	  438.63
     30.0700	  738.00	  663.78	-1772.75	  438.31
     30.1700	  683.00	  650.89	-1814.86	  438.00
     30.2700	  705.00	  641.92	-1783.89	  437.69
     30.3700	  682.00	  636.60	-1801.56	  437.38
     30.4700	  659.00	  635.43	-1823.39	  437.07
     30.5700	  658.00	  639.60	-1828.57	  436.77
     30.6700	  687.00	  650.60	-1810.57	  436.47
     30.7700	  651.00	  669.23	-1865.20	  436.17
     30.8700	  644.00	  694.10	-1897.07	  435.87
     30.9700	  698.00	  720.27	-1869.24	  435.57
     31.0700	  737.00	  738.63	-1848.60	  435.27
     31.1700	  759.00	  738.04	-1826.01	  434.98
     31.2700	  730.00	  714.94	-1831.91	  434.69
     31.3700	  690.00	  680.24	-1837.21	  434.40
     31.4700	  695.00	  647.23	-1799.20	  434.11
     31.5700	  619.00	  621.94	-1849.91	  433.83
     31.6700	  660.00	  604.94	-1791.91	  433.54
     31.7700	  639.00	  594.40	-1802.36	  433.26
     31.8700	  617.00	  588.01	-1817.98	  432.98
     31.9700	  647.00	  583.99	-1783.96	  432.70
     32.0700	  572.00	  581.27	-1856.24	  432.42
     32.1700	  596.00	  579.30	-1830.27	  432.15
     32.2700	  595.00	  577.85	-1829.82	  431.88
     32.3700	  630.00	  576.80	-1793.76	  431.61
     32.4700	  644.00	  576.08	-1779.05	  431.34
     32.5700	  601.00	  575.70	-1821.66	  431.07
     32.6700	  655.00	  575.66	-1767.63	  430.81
     32.7700	  577.00	  575.96	-1845.92	  430.54
     32.8700	  567.00	  576.64	-1856.61	  430.28
     32.9700	  648.00	  577.81	-1776.78	  430.02
     33.0700	  600.00	  579.60	-1826.57	  429.77
     33.1700	  618.00	  582.25	-1811.22	  429.51
     33.2700	  573.00	  586.22	-1860.18	  429.26
     33.3700	  593.00	  592.38	-1846.35	  429.01
     33.4700	  666.00	  602.41	-1783.38	  428.76
     33.5700	  645.00	  619.15	-1821.12	  428.51
     33.6700	  639.00	  646.85	-1854.81	  428.26
     33.7700	  672.00	  690.53	-1865.50	  428.02
     33.8700	  731.00	  753.83	-1869.80	  427.78
     33.9700	  871.00	  835.04	-1811.00	  427.54
     34.0700	  956.00	  922.89	-1813.86	  427.30
     34.1700	 1058.00	  994.41	-1783.38	  427.06
     34.2700	 1058.00	 1018.78	-1807.75	  426.83
     34.3700	 1034.00	  978.03	-1791.00	  426.59
     34.4700	  919.00	  891.58	-1819.55	  426.36
     34.5700	  824.00	  797.04	-1820.01	  426.13
     34.6700	  678.00	  717.95	-1886.92	  425.90
     34.7700	  640.00	  661.07	-1868.04	  425.68
     34.8700	  627.00	  624.18	-1844.15	  425.45
     34.9700	  623.00	  601.75	-1825.72	  425.23
     35.0700	  611.00	  588.31	-1824.28	  425.01
     35.1700	  612.00	  579.90	-1814.87	  424.79
     35.2700	  595.00	  574.21	-1826.17	  424.58
     35.3700	  537.00	  570.03	-1880.00	  424.36
     35.4700	  544.00	  566.79	-1869.76	  424.15
     35.5700	  606.00	  564.20	-1805.16	  423.94
     35.6700	  545.00	  562.07	-1864.04	  423.73
     35.7700	  513.00	  560.30	-1894.27	  423.52
     35.8700	  581.00	  558.82	-1824.79	  423.31
     35.9700	  529.00	  557.56	-1875.53	  423.11
     36.0700	  578.00	  556.49	-1825.46	  422.91
     36.1700	  545.00	  556.09	-1858.05	  422.71
     36.2700	  567.00	  555.32	-1835.28	  422.51
     36.3700	  550.00	  554.67	-1851.63	  422.31
     36.4700	  544.00	  554.13	-1857.10	  422.12
     36.5700	  552.00	  553.70	-1848.67	  421.92
     36.6700	  550.00	  553.39	-1850.35	  421.73
     36.7700	  538.00	  553.19	-1862.15	  421.54
     36.8700	  537.00	  553.12	-1863.09	  421.35
     36.9700	  518.00	  553.43	-1882.40	  421.17
     37.0700	  598.00	  553.78	-1802.75	  420.98
     37.1700	  537.00	  554.44	-1864.41	  420.80
     37.2700	  581.00	  555.67	-1821.63	  420.62
     37.3700	  523.00	  557.71	-1881.68	  420.44
     37.4700	  557.00	  561.00	-1850.97	  420.26
     37.5700	  534.00	  566.09	-1879.06	  420.08
     37.6700	  551.00	  573.58	-1869.55	  419.91
     37.7700	  576.00	  583.90	-1854.87	  419.74
     37.8700	  629.00	  596.90	-1814.87	  419.57
     37.9700	  602.00	  611.46	-1856.43	  419.40
     38.0700	  614.00	  625.41	-1858.38	  419.23
     38.1700	  618.00	  635.47	-1864.43	  419.06
     38.2700	  621.00	  637.41	-1863.38	  418.90
     38.3700	  598.00	  628.86	-1877.82	  418.74
     38.4700	  589.00	  612.79	-1870.76	  418.58
     38.5700	  588.00	  595.07	-1854.04	  418.42
     38.6700	  558.00	  579.74	-1868.71	  418.26
     38.7700	  555.00	  568.10	-1860.07	  418.10
     38.8700	  552.00	  559.22	-1854.19	  417.95
     38.9700	  557.00	  554.07	-1844.04	  417.80
     39.0700	  537.00	  550.84	-1860.81	  417.64
     39.1700	  585.00	  548.76	-1810.73	  417.49
     39.2700	  554.00	  547.35	-1840.32	  417.35
     39.3700	  522.00	  546.31	-1871.28	  417.20
     39.4700	  551.00	  545.50	-1841.47	  417.06
     39.5700	  553.00	  544.85	-1838.82	  416.91
     39.6700	  558.00	  544.30	-1833.27	  416.77
     39.7700	  613.00	  543.84	-1777.81	  416.63
     39.8700	  560.00	  543.45	-1830.41	  416.49
     39.9700	  545.00	  543.11	-1845.08	  416.36
     40.0700	  512.00	  542.30	-1877.26	  416.22
     40.1700	  522.00	  542.06	-1867.03	  416.09
     40.2700	  527.00	  542.40	-1862.36	  415.96
     40.3700	  524.00	  542.23	-1865.20	  415.83
     40.4700	  545.00	  542.10	-1844.07	  415.70
     40.5700	  573.00	  542.00	-1815.97	  415.57
     40.6700	  495.00	  541.93	-1893.90	  415.45
     40.7700	  549.00	  541.89	-1839.85	  415.32
     40.8700	  522.00	  541.88	-1866.85	  415.20
     40.9700	  544.00	  541.91	-1844.87	  415.08
     41.0700	  513.00	  541.98	-1875.94	  414.96
     41.1700	  565.00	  542.09	-1824.06	  414.84
     41.2700	  501.00	  542.31	-1888.28	  414.72
     41.3700	  513.00	  542.54	-1876.51	  414.61
     41.4700	  549.00	  542.85	-1840.82	  414.49
     41.5700	  532.00	  543.26	-1858.23	  414.38
     41.6700	  541.00	  543.80	-1849.77	  414.27
     41.7700	  503.00	  544.52	-1888.49	  414.16
     41.8700	  498.00	  545.53	-1894.49	  414.06
     41.9700	  479.00	  546.99	-1914.95	  413.95
     42.0700	  573.00	  549.23	-1823.19	  413.84
     42.1700	  497.00	  552.79	-1902.76	  413.74
     42.2700	  534.00	  558.46	-1871.43	  413.64
     42.3700	  562.00	  567.22	-1852.19	  413.54
     42.4700	  584.00	  579.94	-1842.91	  413.44
     42.5700	  555.00	  597.09	-1889.06	  413.34
     42.6700	  607.00	  617.37	-1857.33	  413.25
     42.7700	  593.00	  637.82	-1891.79	  413.15
     42.8700	  588.00	  653.14	-1912.11	  413.06
     42.9700	  620.00	  657.13	-1884.10	  412.97
     43.0700	  615.00	  647.47	-1879.44	  412.88
     43.1700	  639.00	  628.50	-1836.46	  412.79
     43.2700	  582.00	  607.26	-1872.23	  412.70
     43.3700	  560.00	  588.02	-1874.99	  412.61
     43.4700	  581.00	  572.92	-1838.88	  412.53
     43.5700	  530.00	  562.15	-1879.12	  412.44
     43.6700	  570.00	  555.01	-1831.98	  412.36
     43.7700	  527.00	  550.50	-1870.46	  412.28
     43.8700	  569.00	  547.67	-1825.64	  412.20
     43.9700	  515.00	  545.86	-1877.83	  412.12
     44.0700	  548.00	  544.64	-1843.60	  412.05
     44.1700	  577.00	  543.76	-1813.72	  411.97
     44.2700	  544.00	  543.10	-1846.06	  411.90
     44.3700	  572.00	  542.80	-1817.77	  411.82
     44.4700	  508.00	  542.41	-1881.37	  411.75
     44.5700	  501.00	  542.10	-1888.07	  411.68
     44.6700	  520.00	  541.87	-1868.84	  411.61
     44.7700	  535.00	  541.70	-1853.67	  411.54
     44.8700	  558.00	  541.58	-1830.55	  411.48
     44.9700	  533.00	  541.51	-1855.48	  411.41
     45.0700	  560.00	  541.50	-1828.46	  411.35
     45.1700	  535.00	  541.50	-1853.47	  411.28
     45.2700	  565.00	  541.54	-1823.51	  411.22
     45.3700	  552.00	  541.70	-1836.67	  411.16
     45.4700	  570.00	  541.81	-1818.78	  411.10
     45.5700	  565.00	  541.95	-1823.92	  411.04
     45.6700	  591.00	  542.12	-1798.09	  410.99
     45.7700	  608.00	  542.33	-1781.29	  410.93
     45.8700	  512.00	  542.57	-1877.53	  410.88
     45.9700	  571.00	  542.84	-1818.81	  410.82
     46.0700	  545.00	  543.24	-1845.21	  410.77
     46.1700	  568.00	  543.60	-1822.57	  410.72
     46.2700	  589.00	  544.02	-1801.98	  410.67
     46.3700	  507.00	  544.49	-1884.45	  410.62
     46.4700	  566.00	  545.02	-1825.99	  410.58
     46.5700	  516.00	  545.46	-1876.43	  410.53
     46.6700	  546.00	  546.16	-1847.13	  410.48
     46.7700	  558.00	  546.97	-1835.94	  410.44
     46.8700	  560.00	  547.92	-1834.89	  410.40
     46.9700	  532.00	  549.07	-1864.03	  410.36
     47.0700	  553.00	  550.49	-1844.46	  410.32
     47.1700	  572.00	  552.37	-1827.34	  410.28
     47.2700	  550.00	  554.97	-1851.93	  410.24
     47.3700	  577.00	  558.70	-1828.66	  410.20
     47.4700	  578.00	  564.12	-1833.09	  410.16
     47.5700	  614.00	  571.88	-1804.85	  410.13
     47.6700	  539.00	  582.49	-1890.46	  410.09
     47.7700	  605.00	  596.06	-1838.03	  410.06
     47.8700	  605.00	  611.93	-1853.90	  410.03
     47.9700	  655.00	  628.22	-1820.18	  410.00
     48.0700	  649.00	  641.99	-1839.95	  409.97
     48.1700	  651.00	  648.35	-1844.32	  409.94
     48.2700	  652.00	  645.61	-1840.58	  409.91
     48.3700	  629.00	  635.71	-1853.68	  409.88
     48.4700	  590.00	  622.89	-1879.86	  409.86
     48.5700	  623.00	  610.77	-1834.74	  409.83
     48.6700	  628.00	  601.32	-1820.29	  409.81
     48.7700	  585.00	  595.30	-1857.27	  409.79
     48.8700	  570.00	  592.71	-1869.68	  409.76
     48.9700	  650.00	  593.19	-1790.15	  409.74
     49.0700	  602.00	  596.32	-1841.29	  409.72
     49.1700	  582.00	  601.91	-1866.88	  409.70
     49.2700	  536.00	  610.15	-1921.12	  409.68
     49.3700	  577.00	  621.95	-1891.91	  409.67
     49.4700	  623.00	  639.56	-1863.53	  409.65
     49.5700	  614.00	  667.66	-1900.63	  409.63
     49.6700	  724.00	  714.85	-1837.82	  409.62
     49.7700	  776.00	  794.88	-1865.85	  409.61
     49.8700	  932.00	  926.03	-1841.00	  409.59
     49.9700	 1124.00	 1126.93	-1849.90	  409.58
     50.0700	 1306.00	 1407.60	-1948.57	  409.57
     50.1700	 1813.00	 1757.63	-1791.60	  409.56
     50.2700	 2183.00	 2134.14	-1798.11	  409.55
     50.3700	 2602.00	 2455.01	-1699.97	  409.54
     50.4700	 2669.00	 2614.17	-1792.14	  409.53
     50.5700	 2609.00	 2541.87	-1779.84	  409.53
     50.6700	 2272.00	 2269.38	-1844.35	  409.52
     50.7700	 1865.00	 1902.55	-1884.52	  409.51
     50.8700	 1405.00	 1539.58	-1981.55	  409.51
     50.9700	 1142.00	 1237.60	-1942.57	  409.51
     51.0700	  913.00	 1016.99	-1950.96	  409.50
     51.1700	  821.00	  872.68	-1898.65	  409.50
     51.2700	  745.00	  786.42	-1888.38	  409.50
     51.3700	  682.00	  736.98	-1901.95	  409.50
     51.4700	  720.00	  706.72	-1833.69	  409.50
     51.5700	  708.00	  684.52	-1823.49	  409.50
     51.6700	  693.00	  665.61	-1819.58	  409.50
     51.7700	  634.00	  649.12	-1862.09	  409.50
     51.8700	  613.00	  635.27	-1869.23	  409.51
     51.9700	  614.00	  624.25	-1857.21	  409.51
     52.0700	  642.00	  615.97	-1820.93	  409.51
     52.1700	  657.00	  610.07	-1800.04	  409.52
     52.2700	  645.00	  606.12	-1808.08	  409.53
     52.3700	  665.00	  603.77	-1785.74	  409.53
     52.4700	  632.00	  602.99	-1817.96	  409.54
     52.5700	  613.00	  603.97	-1837.94	  409.55
     52.6700	  614.00	  607.17	-1840.13	  409.56
     52.7700	  653.00	  613.47	-1807.44	  409.57
     52.8700	  684.00	  624.38	-1787.35	  409.57
     52.9700	  650.00	  642.16	-1839.12	  409.59
     53.0700	  606.00	  669.78	-1910.75	  409.60
     53.1700	  695.00	  710.63	-1862.60	  409.61
     53.2700	  762.00	  767.67	-1852.63	  409.62
     53.3700	  876.00	  841.94	-1812.90	  409.63
     53.4700	  948.00	  931.34	-1830.31	  409.65
     53.5700	 1084.00	 1028.47	-1791.44	  409.66
     53.6700	 1187.00	 1118.83	-1778.80	  409.68
     53.7700	 1229.00	 1181.03	-1799.00	  409.69
     53.8700	 1263.00	 1194.52	-1778.49	  409.71
     53.9700	 1123.00	 1153.90	-1877.87	  409.72
     54.0700	 1127.00	 1074.06	-1794.02	  409.74
     54.1700	  975.00	  978.01	-1849.98	  409.76
     54.2700	  887.00	  884.15	-1844.12	  409.77
     54.3700	  762.00	  802.94	-1887.91	  409.79
     54.4700	  727.00	  738.66	-1858.62	  409.81
     54.5700	  692.00	  691.40	-1846.37	  409.83
     54.6700	  612.00	  658.84	-1893.81	  409.85
     54.7700	  644.00	  637.64	-1840.61	  409.87
     54.8700	  650.00	  624.50	-1821.47	  409.89
     54.9700	  634.00	  616.76	-1829.73	  409.91
     55.0700	  617.00	  612.55	-1842.52	  409.93
     55.1700	  601.00	  610.70	-1856.67	  409.96
     55.2700	  603.00	  610.56	-1854.53	  409.98
     55.3700	  609.00	  611.82	-1849.79	  410.00
     55.4700	  610.00	  614.36	-1851.33	  410.03
     55.5700	  625.00	  618.22	-1840.18	  410.05
     55.6700	  635.00	  623.55	-1835.52	  410.07
     55.7700	  654.00	  630.71	-1823.68	  410.10
     55.8700	  626.00	  640.34	-1861.31	  410.12
     55.9700	  649.00	  653.68	-1851.65	  410.15
     56.0700	  695.00	  672.97	-1824.93	  410.18
     56.1700	  684.00	  702.09	-1865.05	  410.20
     56.2700	  718.00	  747.27	-1876.24	  410.23
     56.3700	  785.00	  817.33	-1879.30	  410.25
     56.4700	  902.00	  923.36	-1868.33	  410.28
     56.5700	 1013.00	 1076.72	-1910.68	  410.31
     56.6700	 1276.00	 1285.37	-1856.34	  410.34
     56.7700	 1556.00	 1549.25	-1840.22	  410.37
     56.8700	 1956.00	 1854.65	-1745.62	  410.39
     56.9700	 2173.00	 2169.12	-1843.09	  410.42
     57.0700	 2498.00	 2437.84	-1786.81	  410.45
     57.1700	 2599.00	 2591.10	-1839.07	  410.48
     57.2700	 2597.00	 2576.91	-1826.87	  410.51
     57.3700	 2434.00	 2400.36	-1813.33	  410.54
     57.4700	 2104.00	 2120.19	-1863.16	  410.57
     57.5700	 1701.00	 1805.97	-1951.93	  410.60
     57.6700	 1417.00	 1509.05	-1939.02	  410.63
     57.7700	 1216.00	 1258.12	-1889.09	  410.66
     57.8700	  970.00	 1064.24	-1941.21	  410.69
     57.9700	  829.00	  926.10	-1944.07	  410.73
     58.0700	  839.00	  835.59	-1843.56	  410.76
     58.1700	  765.00	  782.61	-1864.58	  410.79
     58.2700	  747.00	  758.44	-1858.41	  410.82
     58.3700	  701.00	  757.34	-1903.31	  410.85
     58.4700	  770.00	  776.44	-1853.41	  410.89
     58.5700	  775.00	  814.59	-1886.56	  410.92
     58.6700	  879.00	  870.80	-1838.77	  410.95
     58.7700	  891.00	  942.43	-1898.40	  410.98
     58.8700	 1039.00	 1023.75	-1831.71	  411.02
     58.9700	 1068.00	 1105.20	-1884.17	  411.05
     59.0700	 1210.00	 1175.78	-1812.75	  411.08
     59.1700	 1243.00	 1228.29	-1832.26	  411.12
     59.2700	 1311.00	 1260.86	-1796.83	  411.15
     59.3700	 1280.00	 1272.37	-1839.34	  411.18
     59.4700	 1327.00	 1261.23	-1781.20	  411.22
     59.5700	 1228.00	 1231.37	-1850.34	  411.25
     59.6700	 1217.00	 1194.48	-1824.45	  411.28
     59.7700	 1151.00	 1164.00	-1859.97	  411.32
     59.8700	 1144.00	 1149.57	-1852.54	  411.35
     59.9700	 1173.00	 1157.11	-1831.08	  411.39
     60.0700	 1131.00	 1190.92	-1906.89	  411.42
     60.1700	 1337.00	 1252.86	-1762.83	  411.45
     60.2700	 1412.00	 1338.72	-1773.69	  411.49
     60.3700	 1484.00	 1435.09	-1798.06	  411.52
     60.4700	 1631.00	 1518.77	-1734.74	  411.56
     60.5700	 1631.00	 1560.62	-1776.59	  411.59
     60.6700	 1475.00	 1538.54	-1910.50	  411.62
     60.7700	 1387.00	 1452.63	-1912.60	  411.66
     60.8700	 1396.00	 1324.56	-1775.53	  411.69
     60.9700	 1176.00	 1181.78	-1852.75	  411.73
     61.0700	 1033.00	 1045.99	-1859.96	  411.76
     61.1700	  996.00	  930.50	-1781.46	  411.79
     61.2700	  871.00	  841.53	-1817.50	  411.83
     61.3700	  767.00	  780.23	-1860.20	  411.86
     61.4700	  731.00	  744.92	-1860.89	  411.90
     61.5700	  780.00	  733.34	-1800.31	  411.93
     61.6700	  786.00	  744.21	-1805.18	  411.96
     61.7700	  793.00	  777.76	-1831.73	  412.00
     61.8700	  820.00	  835.22	-1862.19	  412.03
     61.9700	  943.00	  917.33	-1821.29	  412.06
     62.0700	 1096.00	 1022.41	-1773.38	  412.10
     62.1700	 1145.00	 1144.52	-1846.49	  412.13
     62.2700	 1244.00	 1271.62	-1874.59	  412.16
     62.3700	 1433.00	 1384.63	-1798.59	  412.20
     62.4700	 1507.00	 1459.01	-1798.98	  412.23
     62.5700	 1470.00	 1473.27	-1850.24	  412.26
     62.6700	 1394.00	 1422.18	-1875.15	  412.29
     62.7700	 1259.00	 1321.03	-1908.99	  412.33
     62.8700	 1086.00	 1194.54	-1955.51	  412.36
     62.9700	 1009.00	 1064.84	-1902.80	  412.39
     63.0700	  908.00	  946.87	-1885.84	  412.42
     63.1700	  788.00	  848.77	-1907.74	  412.45
     63.2700	  725.00	  773.20	-1895.16	  412.49
     63.3700	  741.00	  718.89	-1824.86	  412.52
     63.4700	  705.00	  682.40	-1824.37	  412.55
     63.5700	  615.00	  659.64	-1891.61	  412.58
     63.6700	  680.00	  646.96	-1813.93	  412.61
     63.7700	  618.00	  641.88	-1870.85	  412.64
     63.8700	  660.00	  643.13	-1830.10	  412.67
     63.9700	  646.00	  650.65	-1851.62	  412.70
     64.0700	  653.00	  665.47	-1859.44	  412.73
     64.1700	  687.00	  689.32	-1849.29	  412.76
     64.2700	  739.00	  724.26	-1832.23	  412.79
     64.3700	  772.00	  772.10	-1847.07	  412.82
     64.4700	  861.00	  833.67	-1819.64	  412.84
     64.5700	  968.00	  908.01	-1786.98	  412.87
     64.6700	 1102.00	  991.45	-1736.42	  412.90
     64.7700	 1160.00	 1077.01	-1763.98	  412.93
     64.8700	 1147.00	 1153.11	-1853.08	  412.95
     64.9700	 1229.00	 1208.49	-1826.46	  412.98
     65.0700	 1243.00	 1232.43	-1836.40	  413.01
     65.1700	 1268.00	 1220.98	-1799.95	  413.03
     65.2700	 1174.00	 1177.46	-1850.43	  413.06
     65.3700	 1101.00	 1111.35	-1857.32	  413.08
     65.4700	 1057.00	 1034.90	-1824.87	  413.11
     65.5700	  886.00	  958.17	-1919.14	  413.13
     65.6700	  843.00	  888.00	-1891.97	  413.16
     65.7700	  797.00	  827.42	-1877.38	  413.18
     65.8700	  737.00	  777.06	-1887.02	  413.21
     65.9700	  740.00	  736.47	-1843.44	  413.23
     66.0700	  713.00	  704.76	-1838.73	  413.25
     66.1700	  629.00	  680.73	-1898.70	  413.28
     66.2700	  648.00	  663.07	-1862.04	  413.30
     66.3700	  718.00	  650.51	-1779.47	  413.32
     66.4700	  640.00	  642.07	-1849.04	  413.34
     66.5700	  640.00	  637.01	-1843.97	  413.36
     66.6700	  610.00	  634.72	-1871.69	  413.38
     66.7700	  611.00	  634.89	-1870.86	  413.40
     66.8700	  661.00	  637.57	-1823.53	  413.42
     66.9700	  650.00	  643.02	-1839.99	  413.44
     67.0700	  632.00	  652.00	-1866.97	  413.46
     67.1700	  672.00	  665.92	-1840.89	  413.48
     67.2700	  703.00	  687.14	-1831.11	  413.49
     67.3700	  693.00	  719.21	-1873.18	  413.51
     67.4700	  720.00	  766.97	-1893.94	  413.53
     67.5700	  845.00	  836.40	-1838.36	  413.54
     67.6700	  946.00	  933.90	-1834.87	  413.56
     67.7700	 1088.00	 1065.17	-1824.14	  413.57
     67.8700	 1274.00	 1233.46	-1806.42	  413.59
     67.9700	 1425.00	 1437.39	-1859.35	  413.60
     68.0700	 1771.00	 1669.29	-1745.26	  413.62
     68.1700	 1868.00	 1913.23	-1892.20	  413.63
     68.2700	 2188.00	 2143.86	-1802.83	  413.64
     68.3700	 2344.00	 2326.64	-1829.61	  413.65
     68.4700	 2408.00	 2424.35	-1863.32	  413.66
     68.5700	 2336.00	 2412.60	-1923.57	  413.67
     68.6700	 2245.00	 2294.42	-1896.39	  413.68
     68.7700	 2020.00	 2098.45	-1925.42	  413.69
     68.8700	 1853.00	 1862.34	-1856.30	  413.70
     68.9700	 1560.00	 1619.08	-1906.05	  413.71
     69.0700	 1314.00	 1391.98	-1924.95	  413.72
     69.1700	 1173.00	 1195.13	-1869.10	  413.73
     69.2700	  981.00	 1034.69	-1900.66	  413.73
     69.3700	  881.00	  910.82	-1876.79	  413.74
     69.4700	  814.00	  819.64	-1852.61	  413.74
     69.5700	  792.00	  755.18	-1810.15	  413.75
     69.6700	  789.00	  711.00	-1768.97	  413.75
     69.7700	  707.00	  681.29	-1821.25	  413.76
     69.8700	  737.00	  661.40	-1771.37	  413.76
     69.9700	  638.00	  647.98	-1856.95	  413.76
     70.0700	  652.00	  638.78	-1833.75	  413.76
     70.1700	  608.00	  632.39	-1871.36	  413.76
     70.2700	  640.00	  627.96	-1834.93	  413.76
     70.3700	  604.00	  625.03	-1868.00	  413.76
     70.4700	  619.00	  623.36	-1851.33	  413.76
     70.5700	  641.00	  622.87	-1828.84	  413.76
     70.6700	  618.00	  623.61	-1852.58	  413.76
     70.7700	  646.00	  625.56	-1826.53	  413.76
     70.8700	  640.00	  629.52	-1836.49	  413.75
     70.9700	  639.00	  635.98	-1843.94	  413.75
     71.0700	  688.00	  646.03	-1805.00	  413.74
     71.1700	  627.00	  661.37	-1881.34	  413.74
     71.2700	  691.00	  684.34	-1840.31	  413.73
     71.3700	  711.00	  717.98	-1853.95	  413.72
     71.4700	  771.00	  765.92	-1841.89	  413.72
     71.5700	  880.00	  832.85	-1799.82	  413.71
     71.6700	  915.00	  920.36	-1852.33	  413.70
     71.7700	 1034.00	 1031.27	-1844.23	  413.69
     71.8700	 1154.00	 1165.13	-1858.09	  413.68
     71.9700	 1331.00	 1318.06	-1834.03	  413.66
     72.0700	 1449.00	 1481.94	-1879.91	  413.65
     72.1700	 1610.00	 1643.59	-1880.56	  413.64
     72.2700	 1711.00	 1784.48	-1920.45	  413.62
     72.3700	 1923.00	 1882.53	-1806.50	  413.61
     72.4700	 1899.00	 1918.07	-1866.04	  413.59
     72.5700	 1859.00	 1882.90	-1870.87	  413.58
     72.6700	 1760.00	 1785.03	-1871.99	  413.56
     72.7700	 1695.00	 1644.03	-1795.99	  413.54
     72.8700	 1448.00	 1482.00	-1880.96	  413.52
     72.9700	 1276.00	 1317.49	-1888.46	  413.51
     73.0700	 1173.00	 1163.69	-1837.66	  413.48
     73.1700	  997.00	 1028.73	-1878.69	  413.46
     73.2700	  950.00	  916.45	-1813.42	  413.44
     73.3700	  867.00	  827.33	-1807.30	  413.42
     73.4700	  772.00	  759.47	-1834.44	  413.40
     73.5700	  754.00	  709.58	-1802.55	  413.37
     73.6700	  719.00	  673.92	-1801.89	  413.35
     73.7700	  681.00	  648.94	-1814.91	  413.32
     73.8700	  673.00	  631.63	-1805.60	  413.29
     73.9700	  638.00	  619.68	-1828.65	  413.27
     74.0700	  624.00	  611.45	-1834.42	  413.24
     74.1700	  635.00	  605.85	-1817.81	  413.21
     74.2700	  684.00	  601.64	-1764.61	  413.18
     74.3700	  617.00	  599.46	-1829.42	  413.15
     74.4700	  616.00	  598.45	-1829.42	  413.12
     74.5700	  626.00	  598.36	-1819.33	  413.08
     74.6700	  620.00	  598.93	-1825.90	  413.05
     74.7700	  670.00	  599.87	-1776.84	  413.02
     74.8700	  630.00	  600.81	-1817.78	  412.98
     74.9700	  632.00	  601.37	-1816.33	  412.94
     75.0700	  726.00	  601.18	-1722.15	  412.91
     75.1700	  678.00	  600.10	-1769.07	  412.87
     75.2700	  656.00	  598.24	-1789.21	  412.83
     75.3700	  698.00	  595.98	-1744.95	  412.79
     75.4700	  653.00	  593.84	-1787.81	  412.75
     75.5700	  646.00	  592.37	-1793.34	  412.71
     75.6700	  646.00	  592.07	-1793.04	  412.67
     75.7700	  621.00	  593.67	-1819.63	  412.62
     75.8700	  609.00	  597.72	-1835.69	  412.58
     75.9700	  655.00	  604.89	-1796.85	  412.54
     76.0700	  626.00	  615.77	-1836.74	  412.49
     76.1700	  662.00	  630.86	-1815.83	  412.44
     76.2700	  665.00	  650.45	-1832.41	  412.40
     76.3700	  734.00	  674.34	-1787.30	  412.35
     76.4700	  690.00	  702.12	-1859.09	  412.30
     76.5700	  736.00	  732.51	-1843.48	  412.25
     76.6700	  760.00	  763.58	-1850.54	  412.20
     76.7700	  807.00	  792.60	-1832.57	  412.14
     76.8700	  755.00	  816.17	-1908.14	  412.09
     76.9700	  865.00	  830.64	-1812.61	  412.04
     77.0700	  785.00	  833.29	-1895.26	  411.98
     77.1700	  792.00	  823.51	-1878.48	  411.93
     77.2700	  797.00	  803.11	-1853.08	  411.87
     77.3700	  784.00	  775.46	-1838.43	  411.81
     77.4700	  709.00	  744.15	-1882.12	  411.75
     77.5700	  770.00	  712.24	-1789.21	  411.69
     77.6700	  658.00	  682.00	-1870.97	  411.63
     77.7700	  675.00	  654.92	-1826.88	  411.57
     77.8700	  614.00	  631.78	-1864.75	  411.51
     77.9700	  585.00	  612.86	-1874.83	  411.44
     78.0700	  580.00	  597.97	-1864.94	  411.38
     78.1700	  610.00	  586.44	-1823.41	  411.31
     78.2700	  565.00	  578.09	-1860.06	  411.25
     78.3700	  551.00	  572.08	-1868.05	  411.18
     78.4700	  583.00	  567.83	-1831.80	  411.11
     78.5700	  599.00	  564.81	-1812.77	  411.04
     78.6700	  525.00	  562.75	-1884.72	  410.97
     78.7700	  539.00	  561.33	-1869.30	  410.90
     78.8700	  558.00	  560.37	-1849.34	  410.83
     78.9700	  557.00	  559.76	-1849.73	  410.76
     79.0700	  512.00	  559.44	-1894.41	  410.68
     79.1700	  519.00	  559.36	-1887.33	  410.61
     79.2700	  565.00	  559.54	-1841.51	  410.53
     79.3700	  565.00	  559.98	-1841.94	  410.45
     79.4700	  607.00	  560.71	-1800.68	  410.38
     79.5700	  543.00	  561.79	-1865.76	  410.30
     79.6700	  552.00	  563.30	-1858.27	  410.22
     79.7700	  514.00	  565.34	-1898.31	  410.14
     79.8700	  561.00	  568.08	-1854.05	  410.06
     79.9700	  618.00	  571.74	-1800.70	  409.97
     80.0700	  583.00	  576.63	-1840.60	  409.89
     80.1700	  598.00	  583.19	-1832.16	  409.80
     80.2700	  612.00	  591.96	-1826.93	  409.72
     80.3700	  585.00	  603.60	-1865.57	  409.63
     80.4700	  704.00	  618.83	-1761.80	  409.54
     80.5700	  603.00	  638.41	-1882.38	  409.45
     80.6700	  662.00	  663.02	-1847.99	  409.37
     80.7700	  674.00	  692.93	-1865.89	  409.27
     80.8700	  724.00	  728.67	-1851.63	  409.18
     80.9700	  740.00	  769.53	-1876.50	  409.09
     81.0700	  759.00	  814.31	-1902.28	  409.00
     81.1700	  870.00	  860.89	-1837.86	  408.90
     81.2700	  931.00	  906.31	-1822.28	  408.81
     81.3700	  924.00	  947.07	-1870.03	  408.71
     81.4700	 1015.00	  979.69	-1811.66	  408.61
     81.5700	  978.00	 1001.67	-1870.64	  408.51
     81.6700	 1003.00	 1011.81	-1855.78	  408.41
     81.7700	  968.00	 1010.18	-1889.14	  408.31
     81.8700	  960.00	  997.81	-1884.78	  408.21
     81.9700	  964.00	  976.54	-1859.51	  408.11
     82.0700	  898.00	  948.62	-1897.59	  408.01
     82.1700	  928.00	  916.29	-1835.26	  407.90
     82.2700	  866.00	  881.57	-1862.54	  407.80
     82.3700	  865.00	  846.25	-1828.22	  407.69
     82.4700	  781.00	  811.88	-1877.84	  407.58
     82.5700	  765.00	  779.59	-1861.56	  407.48
     82.6700	  768.00	  749.97	-1828.93	  407.37
     82.7700	  703.00	  723.08	-1867.04	  407.26
     82.8700	  690.00	  698.72	-1855.68	  407.15
     82.9700	  659.00	  676.70	-1864.67	  407.03
     83.0700	  669.00	  657.01	-1834.98	  406.92
     83.1700	  635.00	  639.76	-1851.73	  406.81
     83.2700	  586.00	  625.10	-1886.07	  406.69
     83.3700	  580.00	  613.13	-1880.09	  406.57
     83.4700	  614.00	  603.88	-1836.85	  406.46
     83.5700	  563.00	  597.32	-1881.28	  406.34
     83.6700	  583.00	  593.33	-1857.29	  406.22
     83.7700	  625.00	  591.70	-1813.67	  406.10
     83.8700	  606.00	  592.14	-1833.10	  405.98
     83.9700	  605.00	  594.23	-1836.20	  405.86
     84.0700	  557.00	  597.47	-1887.44	  405.74
     84.1700	  601.00	  601.29	-1847.25	  405.61
     84.2700	  575.00	  605.00	-1876.96	  405.49
     84.3700	  621.00	  607.89	-1833.86	  405.36
     84.4700	  533.00	  609.25	-1923.22	  405.24
     84.5700	  616.00	  608.69	-1839.66	  405.11
     84.6700	  593.00	  606.18	-1860.15	  404.98
     84.7700	  590.00	  601.90	-1858.87	  404.85
     84.8700	  638.00	  596.32	-1805.29	  404.72
     84.9700	  606.00	  590.02	-1830.99	  404.59
     85.0700	  549.00	  583.53	-1881.50	  404.46
     85.1700	  574.00	  577.29	-1850.26	  404.32
     85.2700	  575.00	  571.64	-1843.60	  404.19
     85.3700	  548.00	  566.82	-1865.79	  404.05
     85.4700	  569.00	  563.01	-1840.97	  403.92
     85.5700	  529.00	  560.27	-1878.23	  403.78
     85.6700	  569.00	  558.64	-1836.61	  403.64
     85.7700	  603.00	  558.13	-1802.09	  403.51
     85.8700	  588.00	  558.70	-1817.66	  403.37
     85.9700	  549.00	  560.32	-1858.28	  403.23
     86.0700	  572.00	  562.95	-1837.92	  403.08
     86.1700	  585.00	  566.54	-1828.51	  402.94
     86.2700	  583.00	  571.04	-1835.01	  402.80
     86.3700	  595.00	  576.36	-1828.33	  402.66
     86.4700	  570.00	  582.40	-1859.37	  402.51
     86.5700	  562.00	  589.07	-1874.04	  402.37
     86.6700	  602.00	  596.19	-1841.15	  402.22
     86.7700	  608.00	  603.58	-1842.55	  402.07
     86.8700	  590.00	  611.11	-1868.07	  401.92
     86.9700	  572.00	  618.69	-1893.65	  401.77
     87.0700	  614.00	  626.39	-1859.36	  401.62
     87.1700	  618.00	  634.38	-1863.35	  401.47
     87.2700	  623.00	  642.86	-1866.82	  401.32
     87.3700	  587.00	  651.90	-1911.86	  401.17
     87.4700	  608.00	  661.40	-1900.36	  401.01
     87.5700	  700.00	  671.03	-1817.99	  400.86
     87.6700	  640.00	  680.20	-1887.16	  400.70
     87.7700	  696.00	  688.08	-1839.05	  400.55
     87.8700	  656.00	  693.73	-1884.70	  400.39
     87.9700	  701.00	  696.24	-1842.20	  400.23
     88.0700	  647.00	  695.00	-1894.97	  400.08
     88.1700	  731.00	  689.96	-1805.93	  399.92
     88.2700	  683.00	  681.61	-1845.58	  399.76
     88.3700	  689.00	  670.78	-1828.75	  399.60
     88.4700	  631.00	  658.47	-1874.44	  399.43
     88.5700	  670.00	  645.63	-1822.60	  399.27
     88.6700	  651.00	  633.12	-1829.09	  399.11
     88.7700	  591.00	  621.63	-1877.60	  398.94
     88.8700	  639.00	  611.69	-1819.66	  398.78
     88.9700	  609.00	  603.22	-1841.19	  398.61
     89.0700	  601.00	  597.27	-1843.24	  398.45
     89.1700	  593.00	  593.42	-1847.39	  398.28
     89.2700	  610.00	  591.51	-1828.48	  398.11
     89.3700	  623.00	  591.29	-1815.26	  397.94
     89.4700	  615.00	  592.37	-1824.34	  397.77
     89.5700	  608.00	  594.30	-1833.27	  397.60
     89.6700	  637.00	  596.55	-1806.52	  397.43
     89.7700	  609.00	  598.56	-1836.53	  397.26
     89.8700	  595.00	  599.81	-1851.78	  397.09
     89.9700	  604.00	  599.87	-1842.83	  396.92
     90.0700	  630.00	  598.50	-1815.47	  396.74
     90.1700	  580.00	  595.72	-1862.69	  396.57
     90.2700	  569.00	  591.76	-1869.73	  396.39
     90.3700	  619.00	  586.95	-1814.92	  396.22
     90.4700	  596.00	  581.67	-1832.64	  396.04
     90.5700	  606.00	  576.26	-1817.23	  395.86
     90.6700	  599.00	  571.01	-1818.98	  395.68
     90.7700	  561.00	  566.13	-1852.10	  395.51
     90.8700	  609.00	  561.79	-1799.76	  395.33
     90.9700	  562.00	  558.07	-1843.04	  395.15
     91.0700	  554.00	  555.03	-1847.99	  394.97
     91.1700	  558.00	  552.65	-1841.61	  394.79
     91.2700	  537.00	  550.91	-1860.88	  394.60
     91.3700	  525.00	  549.77	-1871.74	  394.42
     91.4700	  530.00	  549.18	-1866.15	  394.24
     91.5700	  535.00	  549.11	-1861.08	  394.05
     91.6700	  569.00	  549.55	-1827.52	  393.87
     91.7700	  563.00	  550.52	-1834.49	  393.69
     91.8700	  513.00	  552.06	-1886.03	  393.50
     91.9700	  544.00	  554.26	-1857.23	  393.31
     92.0700	  537.00	  557.26	-1867.23	  393.13
     92.1700	  596.00	  561.21	-1812.18	  392.94
     92.2700	  582.00	  566.32	-1831.28	  392.75
     92.3700	  537.00	  572.78	-1882.75	  392.57
     92.4700	  577.00	  580.81	-1850.78	  392.38
     92.5700	  563.00	  590.60	-1874.57	  392.19
     92.6700	  622.00	  602.31	-1827.28	  392.00
     92.7700	  592.00	  616.03	-1871.00	  391.81
     92.8700	  594.00	  631.76	-1884.73	  391.62
     92.9700	  600.00	  649.39	-1896.36	  391.43
     93.0700	  638.00	  668.69	-1877.66	  391.24
     93.1700	  662.00	  689.29	-1874.26	  391.04
     93.2700	  708.00	  710.65	-1849.62	  390.85
     93.3700	  627.00	  732.12	-1952.08	  390.66
     93.4700	  722.00	  752.89	-1877.86	  390.46
     93.5700	  709.00	  772.18	-1910.15	  390.27
     93.6700	  798.00	  789.38	-1838.35	  390.08
     93.7700	  748.00	  804.20	-1903.17	  389.88
     93.8700	  768.00	  816.81	-1895.78	  389.69
     93.9700	  816.00	  827.71	-1858.68	  389.49
     94.0700	  764.00	  837.56	-1920.53	  389.30
     94.1700	  782.00	  846.97	-1911.94	  389.10
     94.2700	  854.00	  856.39	-1849.35	  388.90
     94.3700	  853.00	  865.75	-1859.71	  388.71
     94.4700	  902.00	  875.84	-1820.81	  388.51
     94.5700	  939.00	  886.52	-1794.48	  388.31
     94.6700	  890.00	  897.95	-1854.92	  388.11
     94.7700	  949.00	  910.28	-1808.25	  387.92
     94.8700	  926.00	  923.44	-1844.41	  387.72
     94.9700	  927.00	  937.01	-1856.98	  387.52
     95.0700	  978.00	  950.16	-1819.13	  387.32
     95.1700	  932.00	  961.63	-1876.60	  387.12
     95.2700	  973.00	  969.89	-1843.86	  386.92
     95.3700	  991.00	  973.30	-1829.27	  386.72
     95.4700	  971.00	  970.53	-1846.50	  386.52
     95.5700	  988.00	  960.88	-1819.85	  386.32
     95.6700	  961.00	  944.55	-1830.52	  386.12
     95.7700	  898.00	  922.59	-1871.56	  385.92
     95.8700	  865.00	  896.64	-1878.61	  385.72
     95.9700	  932.00	  868.65	-1783.62	  385.52
     96.0700	  872.00	  840.61	-1815.57	  385.32
     96.1700	  817.00	  814.42	-1844.38	  385.12
     96.2700	  815.00	  791.82	-1823.79	  384.92
     96.3700	  759.00	  774.39	-1862.36	  384.72
     96.4700	  799.00	  763.47	-1811.44	  384.51
     96.5700	  751.00	  760.22	-1856.19	  384.31
     96.6700	  774.00	  765.58	-1838.55	  384.11
     96.7700	  818.00	  780.25	-1809.22	  383.91
     96.8700	  786.00	  804.72	-1865.69	  383.71
     96.9700	  796.00	  839.20	-1890.17	  383.50
     97.0700	  931.00	  883.63	-1799.60	  383.30
     97.1700	  959.00	  937.57	-1825.54	  383.10
     97.2700	  989.00	 1000.16	-1858.12	  382.90
     97.3700	 1118.00	 1070.05	-1799.02	  382.70
     97.4700	 1173.00	 1145.37	-1819.33	  382.50
     97.5700	 1205.00	 1223.65	-1865.61	  382.29
     97.6700	 1254.00	 1301.84	-1894.80	  382.09
     97.7700	 1307.00	 1376.26	-1916.23	  381.89
     97.8700	 1359.00	 1442.79	-1930.75	  381.69
     97.9700	 1468.00	 1497.05	-1876.02	  381.49
     98.0700	 1553.00	 1535.05	-1829.02	  381.29
     98.1700	 1549.00	 1553.79	-1851.76	  381.08
     98.2700	 1530.00	 1551.97	-1868.94	  380.88
     98.3700	 1557.00	 1530.30	-1820.27	  380.68
     98.4700	 1500.00	 1491.24	-1838.20	  380.48
     98.5700	 1402.00	 1438.41	-1883.38	  380.28
     98.6700	 1422.00	 1375.94	-1800.90	  380.08
     98.7700	 1244.00	 1307.95	-1910.92	  379.88
     98.8700	 1264.00	 1238.30	-1821.27	  379.68
     98.9700	 1148.00	 1170.39	-1869.36	  379.48
     99.0700	 1143.00	 1107.14	-1811.11	  379.28
     99.1700	 1067.00	 1050.97	-1830.94	  379.08
     99.2700	  981.00	 1003.92	-1869.88	  378.88
     99.3700	  971.00	  967.58	-1843.55	  378.68
     99.4700	  941.00	  943.20	-1849.17	  378.48
     99.5700	  960.00	  931.70	-1818.67	  378.28
     99.6700	  938.00	  933.65	-1842.61	  378.09
     99.7700	  942.00	  949.36	-1854.32	  377.89
     99.8700	  993.00	  978.85	-1832.82	  377.69
     99.9700	 1034.00	 1021.84	-1834.81	  377.50
    100.0700	 1120.00	 1077.75	-1804.71	  377.30
    100.1700	 1234.00	 1145.62	-1758.59	  377.10
    100.2700	 1264.00	 1224.15	-1807.11	  376.91
    100.3700	 1313.00	 1311.54	-1845.51	  376.71
    100.4700	 1382.00	 1405.51	-1870.48	  376.52
    100.5700	 1575.00	 1503.26	-1775.23	  376.32
    100.6700	 1589.00	 1601.48	-1859.45	  376.13
    100.7700	 1631.00	 1696.43	-1912.40	  375.94
    100.8700	 1765.00	 1784.50	-1866.47	  375.74
    100.9700	 1857.00	 1862.16	-1852.13	  375.55
    101.0700	 1881.00	 1926.65	-1892.61	  375.36
    101.1700	 1979.00	 1976.10	-1844.06	  375.17
    101.2700	 2032.00	 2009.43	-1824.40	  374.98
    101.3700	 2011.00	 2026.04	-1862.01	  374.79
    101.4700	 2071.00	 2025.65	-1801.61	  374.60
    101.5700	 2027.00	 2008.21	-1828.18	  374.41
    101.6700	 1989.00	 1974.30	-1832.27	  374.23
    101.7700	 1944.00	 1925.40	-1828.36	  374.04
    101.8700	 1905.00	 1864.00	-1805.97	  373.85
    101.9700	 1813.00	 1793.60	-1827.56	  373.67
    102.0700	 1802.00	 1718.10	-1763.07	  373.48
    102.1700	 1729.00	 1641.42	-1759.39	  373.30
    102.2700	 1631.00	 1566.98	-1782.95	  373.11
    102.3700	 1461.00	 1497.48	-1883.45	  372.93
    102.4700	 1416.00	 1434.82	-1865.79	  372.75
    102.5700	 1392.00	 1380.05	-1835.02	  372.57
    102.6700	 1312.00	 1333.45	-1868.42	  372.39
    102.7700	 1243.00	 1294.62	-1898.58	  372.21
    102.8700	 1270.00	 1262.52	-1839.49	  372.03
    102.9700	 1186.00	 1235.61	-1896.58	  371.85
    103.0700	 1190.00	 1211.96	-1868.93	  371.68
    103.1700	 1155.00	 1189.47	-1881.43	  371.50
    103.2700	 1166.00	 1166.11	-1847.07	  371.33
    103.3700	 1102.00	 1140.26	-1885.23	  371.16
    103.4700	 1127.00	 1110.92	-1830.88	  370.98
    103.5700	 1090.00	 1077.77	-1834.74	  370.81
    103.6700	 1036.00	 1041.16	-1852.13	  370.64
    103.7700	 1028.00	 1001.86	-1820.82	  370.47
    103.8700	  981.00	  960.86	-1826.83	  370.30
    103.9700	  908.00	  919.25	-1858.22	  370.14
    104.0700	  884.00	  878.01	-1840.98	  369.97
    104.1700	  895.00	  838.04	-1790.01	  369.81
    104.2700	  875.00	  800.08	-1772.05	  369.64
    104.3700	  828.00	  764.71	-1783.68	  369.48
    104.4700	  782.00	  732.36	-1797.33	  369.32
    104.5700	  737.00	  703.30	-1813.27	  369.16
    104.6700	  693.00	  677.65	-1831.61	  369.00
    104.7700	  681.00	  655.38	-1821.35	  368.84
    104.8700	  689.00	  636.38	-1794.35	  368.69
    104.9700	  673.00	  620.43	-1794.40	  368.53
    105.0700	  626.00	  607.28	-1828.25	  368.38
    105.1700	  644.00	  596.62	-1799.59	  368.23
    105.2700	  622.00	  588.15	-1813.12	  368.08
    105.3700	  645.00	  581.59	-1783.55	  367.93
    105.4700	  594.00	  576.66	-1829.62	  367.78
    105.5700	  619.00	  573.14	-1801.11	  367.63
    105.6700	  601.00	  570.81	-1816.78	  367.49
    105.7700	  637.00	  569.61	-1779.58	  367.34
    105.8700	  606.00	  569.40	-1810.37	  367.20
    105.9700	  604.00	  570.13	-1813.10	  367.06
    106.0700	  594.00	  571.77	-1824.74	  366.92
    106.1700	  579.00	  574.33	-1842.30	  366.79
    106.2700	  550.00	  577.82	-1874.79	  366.65
    106.3700	  606.00	  582.34	-1823.31	  366.52
    106.4700	  582.00	  587.92	-1852.89	  366.38
    106.5700	  612.00	  594.61	-1829.58	  366.25
    106.6700	  606.00	  602.46	-1843.43	  366.12
    106.7700	  594.00	  611.48	-1864.44	  366.00
    106.8700	  641.00	  621.63	-1827.60	  365.87
    106.9700	  652.00	  632.85	-1827.82	  365.75
    107.0700	  634.00	  645.00	-1857.97	  365.63
    107.1700	  617.00	  657.89	-1887.86	  365.51
    107.2700	  652.00	  671.28	-1866.25	  365.39
    107.3700	  690.00	  684.86	-1841.83	  365.27
    107.4700	  720.00	  698.26	-1825.22	  365.16
    107.5700	  689.00	  711.06	-1869.03	  365.04
    107.6700	  723.00	  722.83	-1846.80	  364.93
    107.7700	  669.00	  733.13	-1911.10	  364.83
    107.8700	  683.00	  741.58	-1905.55	  364.72
    107.9700	  732.00	  747.89	-1862.86	  364.61
    108.0700	  688.00	  751.96	-1910.93	  364.51
    108.1700	  717.00	  753.91	-1883.88	  364.41
    108.2700	  687.00	  753.99	-1913.96	  364.31
    108.3700	  701.00	  752.62	-1898.59	  364.22
    108.4700	  714.00	  750.26	-1883.23	  364.12
    108.5700	  700.00	  747.41	-1894.38	  364.03
    108.6700	  738.00	  744.50	-1853.47	  363.94
    108.7700	  710.00	  741.88	-1878.84	  363.85
    108.8700	  712.00	  739.80	-1874.77	  363.77
    108.9700	  715.00	  738.42	-1870.39	  363.69
    109.0700	  707.00	  737.77	-1877.74	  363.61
    109.1700	  721.00	  737.77	-1863.73	  363.53
    109.2700	  751.00	  738.21	-1834.18	  363.45
    109.3700	  682.00	  738.82	-1903.79	  363.38
    109.4700	  731.00	  739.22	-1855.19	  363.31
    109.5700	  730.00	  739.02	-1855.99	  363.24
    109.6700	  720.00	  737.81	-1864.78	  363.17
    109.7700	  708.00	  735.24	-1874.21	  363.11
    109.8700	  726.00	  731.08	-1852.05	  363.05
    109.9700	  759.00	  725.25	-1813.22	  362.99
    110.0700	  701.00	  717.82	-1863.78	  362.93
    110.1700	  674.00	  708.97	-1881.93	  362.88
    110.2700	  702.00	  698.98	-1843.95	  362.83
    110.3700	  686.00	  688.19	-1849.16	  362.78
    110.4700	  667.00	  676.91	-1856.88	  362.74
    110.5700	  650.00	  665.49	-1862.46	  362.69
    110.6700	  669.00	  654.20	-1832.17	  362.65
    110.7700	  645.00	  643.30	-1845.26	  362.62
    110.8700	  640.00	  632.98	-1839.95	  362.58
    110.9700	  619.00	  623.44	-1851.41	  362.55
    111.0700	  613.00	  614.78	-1848.75	  362.52
    111.1700	  605.00	  607.11	-1849.08	  362.50
    111.2700	  593.00	  600.47	-1854.44	  362.47
    111.3700	  603.00	  594.88	-1838.84	  362.46
    111.4700	  608.00	  590.32	-1829.29	  362.44
    111.5700	  601.00	  586.76	-1832.72	  362.42
    111.6700	  599.00	  584.13	-1832.10	  362.41
    111.7700	  595.00	  582.36	-1834.33	  362.41
    111.8700	  578.00	  581.38	-1850.34	  362.40
    111.9700	  611.00	  581.07	-1817.04	  362.40
    112.0700	  602.00	  581.37	-1826.33	  362.40
    112.1700	  589.00	  582.16	-1840.13	  362.41
    112.2700	  531.00	  583.38	-1899.35	  362.42
    112.3700	  560.00	  584.94	-1871.91	  362.43
    112.4700	  583.00	  586.77	-1850.73	  362.44
    112.5700	  601.00	  588.81	-1834.78	  362.46
    112.6700	  554.00	  591.02	-1883.99	  362.48
    112.7700	  559.00	  593.38	-1881.34	  362.51
    112.8700	  541.00	  595.87	-1901.84	  362.53
    112.9700	  586.00	  598.50	-1859.47	  362.57
    113.0700	  588.00	  601.31	-1860.28	  362.60
    113.1700	  588.00	  604.32	-1863.29	  362.64
    113.2700	  612.00	  607.60	-1842.57	  362.68
    113.3700	  572.00	  611.21	-1886.18	  362.73
    113.4700	  585.00	  615.24	-1877.20	  362.78
    113.5700	  631.00	  619.77	-1835.74	  362.83
    113.6700	  627.00	  624.95	-1844.91	  362.89
    113.7700	  626.00	  630.91	-1851.88	  362.95
    113.8700	  637.00	  637.86	-1847.83	  363.01
    113.9700	  650.00	  646.04	-1843.01	  363.08
    114.0700	  643.00	  655.75	-1859.72	  363.15
    114.1700	  681.00	  667.41	-1833.37	  363.23
    114.2700	  647.00	  681.49	-1881.46	  363.31
    114.3700	  678.00	  698.63	-1867.60	  363.39
    114.4700	  666.00	  719.58	-1900.55	  363.48
    114.5700	  712.00	  745.27	-1880.24	  363.57
    114.6700	  740.00	  776.82	-1883.79	  363.67
    114.7700	  870.00	  815.57	-1792.53	  363.76
    114.8700	  852.00	  863.05	-1858.01	  363.87
    114.9700	  970.00	  921.02	-1797.99	  363.98
    115.0700	 1017.00	  991.46	-1821.42	  364.09
    115.1700	 1132.00	 1076.51	-1791.48	  364.20
    115.2700	 1197.00	 1178.51	-1828.48	  364.32
    115.3700	 1332.00	 1299.82	-1814.79	  364.45
    115.4700	 1523.00	 1442.82	-1766.79	  364.58
    115.5700	 1751.00	 1609.74	-1705.71	  364.71
    115.6700	 1984.00	 1802.64	-1665.61	  364.85
    115.7700	 2089.00	 2023.19	-1781.16	  364.99
    115.8700	 2447.00	 2272.49	-1672.45	  365.14
    115.9700	 2630.00	 2550.96	-1767.92	  365.29
    116.0700	 2977.00	 2858.14	-1728.11	  365.44
    116.1700	 3177.00	 3192.70	-1862.67	  365.60
    116.2700	 3670.00	 3552.21	-1729.18	  365.77
    116.3700	 3967.00	 3932.97	-1812.94	  365.94
    116.4700	 4317.00	 4330.11	-1860.07	  366.11
    116.5700	 4809.00	 4737.40	-1775.37	  366.29
    116.6700	 5229.00	 5147.65	-1765.62	  366.47
    116.7700	 5448.00	 5552.41	-1951.38	  366.66
    116.8700	 5873.00	 5942.11	-1916.08	  366.85
    116.9700	 6177.00	 6306.42	-1976.38	  367.05
    117.0700	 6588.00	 6634.42	-1893.39	  367.25
    117.1700	 6820.00	 6915.29	-1942.26	  367.46
    117.2700	 7052.00	 7138.74	-1933.71	  367.67
    117.3700	 7206.00	 7295.86	-1936.83	  367.89
    117.4700	 7247.00	 7380.06	-1980.03	  368.11
    117.5700	 7159.00	 7387.87	-2075.84	  368.34
    117.6700	 7160.00	 7319.35	-2006.32	  368.57
    117.7700	 7041.00	 7178.01	-1983.98	  368.81
    117.8700	 6842.00	 6970.47	-1975.44	  369.05
    117.9700	 6648.00	 6705.58	-1904.55	  369.30
    118.0700	 6275.00	 6393.62	-1965.59	  369.55
    118.1700	 5892.00	 6045.33	-2000.30	  369.81
    118.2700	 5518.00	 5671.33	-2000.30	  370.07
    118.3700	 5180.00	 5281.79	-1948.76	  370.34
    118.4700	 4864.00	 4885.99	-1868.96	  370.62
    118.5700	 4670.00	 4492.22	-1669.19	  370.90
    118.6700	 4267.00	 4107.47	-1687.43	  371.18
    118.7700	 3907.00	 3737.52	-1677.49	  371.47
    118.8700	 3549.00	 3387.06	-1685.03	  371.77
    118.9700	 3199.00	 3059.50	-1707.47	  372.07
    119.0700	 2885.00	 2757.18	-1719.15	  372.38
    119.1700	 2501.00	 2481.33	-1827.30	  372.70
    119.2700	 2319.00	 2232.32	-1760.29	  373.01
    119.3700	 2149.00	 2009.84	-1707.81	  373.34
    119.4700	 1997.00	 1812.94	-1662.91	  373.67
    119.5700	 1784.00	 1640.22	-1703.19	  374.01
    119.6700	 1602.00	 1489.90	-1734.87	  374.35
    119.7700	 1423.00	 1360.00	-1783.97	  374.70
    119.8700	 1373.00	 1248.47	-1722.43	  375.05
    119.9700	 1168.00	 1153.20	-1832.17	  375.42
    120.0700	 1181.00	 1072.18	-1738.15	  375.78
    120.1700	 1043.00	 1003.48	-1807.45	  376.16
    120.2700	  980.00	  945.34	-1812.31	  376.53
    120.3700	  931.00	  896.19	-1812.16	  376.92
    120.4700	  866.00	  854.64	-1835.61	  377.31
    120.5700	  843.00	  819.51	-1823.48	  377.71
    120.6700	  840.00	  789.77	-1796.73	  378.11
    120.7700	  751.00	  764.56	-1860.52	  378.52
    120.8700	  773.00	  743.17	-1817.14	  378.94
    120.9700	  688.00	  725.03	-1884.00	  379.36
    121.0700	  717.00	  709.67	-1839.63	  379.79
    121.1700	  661.00	  696.68	-1882.65	  380.23
    121.2700	  710.00	  685.76	-1822.73	  380.67
    121.3700	  670.00	  676.66	-1853.63	  381.12
    121.4700	  634.00	  669.17	-1882.14	  381.58
    121.5700	  678.00	  663.13	-1832.10	  382.04
    121.6700	  630.00	  658.39	-1875.36	  382.51
    121.7700	  607.00	  654.84	-1894.81	  382.99
    121.8700	  651.00	  652.39	-1848.36	  383.47
    121.9700	  654.00	  650.95	-1843.91	  383.97
    122.0700	  617.00	  650.45	-1880.41	  384.46
    122.1700	  623.00	  650.82	-1874.78	  384.97
    122.2700	  735.00	  651.99	-1763.96	  385.48
    122.3700	  654.00	  653.91	-1846.88	  386.00
    122.4700	  649.00	  656.50	-1854.47	  386.52
    122.5700	  672.00	  659.71	-1834.67	  387.06
    122.6700	  629.00	  663.44	-1881.41	  387.60
    122.7700	  626.00	  667.64	-1888.60	  388.14
    122.8700	  678.00	  672.20	-1841.17	  388.70
    122.9700	  662.00	  677.05	-1862.01	  389.26
    123.0700	  687.00	  682.07	-1842.04	  389.83
    123.1700	  664.00	  687.18	-1870.14	  390.41
    123.2700	  697.00	  692.24	-1842.21	  390.99
    123.3700	  670.00	  697.17	-1874.14	  391.58
    123.4700	  659.00	  701.83	-1889.80	  392.18
    123.5700	  639.00	  706.14	-1914.11	  392.79
    123.6700	  725.00	  709.99	-1831.95	  393.41
    123.7700	  745.00	  713.30	-1815.27	  394.03
    123.8700	  711.00	  716.03	-1852.00	  394.66
    123.9700	  707.00	  718.15	-1858.12	  395.30
    124.0700	  724.00	  719.66	-1842.63	  395.95
    124.1700	  692.00	  720.59	-1875.55	  396.60
    124.2700	  736.00	  720.97	-1831.94	  397.26
    124.3700	  685.00	  720.88	-1882.85	  397.93
    124.4700	  732.00	  720.34	-1835.31	  398.61
    124.5700	  736.00	  719.48	-1830.44	  399.30
    124.6700	  687.00	  718.33	-1878.29	  399.99
    124.7700	  693.00	  716.95	-1870.92	  400.70
    124.8700	  718.00	  715.40	-1844.37	  401.41
    124.9700	  700.00	  522.93	-1669.89	  402.13
    125.0700	  709.00	  523.65	-1846.97	  402.85
    125.1700	  679.00	  524.39	-1846.97	  403.59
    125.2700	  692.00	  525.14	-1846.97	  404.34
    125.3700	  711.00	  525.89	-1846.97	  405.09
    125.4700	  689.00	  526.65	-1846.97	  405.85
    125.5700	  634.00	  527.42	-1846.97	  406.62
    125.6700	  698.00	  528.20	-1846.97	  407.40
    125.7700	  612.00	  528.99	-1846.97	  408.19
    125.8700	  650.00	  529.79	-1846.97	  408.99
    125.9700	  671.00	  530.59	-1846.97	  409.79
    126.0700	  661.00	  531.41	-1846.97	  410.61
    126.1700	  685.00	  532.23	-1846.97	  411.43
    126.2700	  643.00	  533.06	-1846.97	  412.26
    126.3700	  670.00	  533.90	-1846.97	  413.10
    126.4700	  626.00	  534.76	-1846.97	  413.96
    126.5700	  644.00	  535.62	-1846.97	  414.82
    126.6700	  682.00	  536.48	-1846.97	  415.68
    126.7700	  644.00	  537.36	-1846.97	  416.56
    126.8700	  644.00	  538.25	-1846.97	  417.45
    126.9700	  556.00	  539.15	-1846.97	  418.35
    127.0700	  629.00	  540.05	-1846.97	  419.25
    127.1700	  589.00	  540.97	-1846.97	  420.17
    127.2700	  595.00	  541.90	-1846.97	  421.10
    127.3700	  602.00	  542.83	-1846.97	  422.03
    127.4700	  589.00	  543.78	-1846.97	  422.98
    127.5700	  599.00	  544.73	-1846.97	  423.93
    127.6700	  590.00	  545.70	-1846.97	  424.90
    127.7700	  635.00	  546.67	-1846.97	  425.87
    127.8700	  581.00	  547.65	-1846.97	  426.85
    127.9700	  629.00	  548.65	-1846.97	  427.85
    128.0700	  581.00	  549.65	-1846.97	  428.85
    128.1700	  630.00	  550.66	-1846.97	  429.86
    128.2700	  652.00	  551.69	-1846.97	  430.89
    128.3700	  674.00	  552.72	-1846.97	  431.92
    128.4700	  706.00	  553.77	-1846.97	  432.97
    128.5700	    0.00	  554.82	-1846.97	  434.02
    128.6700	    0.00	  555.89	-1846.97	  435.09
     12.3920	        	        	        	        	       0	(  0  0  2)	  0  1
     12.3920	        	        	        	        	    -461	(  0  0  2)	  0  1
     25.0381	        	        	        	        	       0	(  0  0  4)	  0  1
     25.0381	        	        	        	        	    -461	(  0  0  4)	  0  1
     28.4866	        	        	        	        	       0	(  1  0  0)	  0  1
     28.4866	        	        	        	        	    -461	(  1  0  0)	  0  1
     29.1877	        	        	        	        	       0	(  1  0  1)	  0  1
     29.1877	        	        	        	        	    -461	(  1  0  1)	  0  1
     31.2050	        	        	        	        	       0	(  1  0  2)	  0  1
     31.2050	        	        	        	        	    -461	(  1  0  2)	  0  1
     34.3306	        	        	        	        	       0	(  1  0  3)	  0  1
     34.3306	        	        	        	        	    -461	(  1  0  3)	  0  1
     38.0051	        	        	        	        	       0	(  0  0  6)	  0  1
     38.0051	        	        	        	        	    -461	(  0  0  6)	  0  1
     38.3299	        	        	        	        	       0	(  1  0  4)	  0  1
     38.3299	        	        	        	        	    -461	(  1  0  4)	  0  1
     43.0065	        	        	        	        	       0	(  1  0  5)	  0  1
     43.0065	        	        	        	        	    -461	(  1  0  5)	  0  1
     48.2208	        	        	        	        	       0	(  1  0  6)	  0  1
     48.2208	        	        	        	        	    -461	(  1  0  6)	  0  1
     50.5352	        	        	        	        	       0	(  1  1  0)	  0  1
     50.5352	        	        	        	        	    -461	(  1  1  0)	  0  1
     51.5031	        	        	        	        	       0	(  0  0  8)	  0  1
     51.5031	        	        	        	        	    -461	(  0  0  8)	  0  1
     52.2691	        	        	        	        	       0	(  1  1  2)	  0  1
     52.2691	        	        	        	        	    -461	(  1  1  2)	  0  1
     53.8854	        	        	        	        	       0	(  1  0  7)	  0  1
     53.8854	        	        	        	        	    -461	(  1  0  7)	  0  1
     57.2486	        	        	        	        	       0	(  1  1  4)	  0  1
     57.2486	        	        	        	        	    -461	(  1  1  4)	  0  1
     59.0807	        	        	        	        	       0	(  2  0  0)	  0  1
     59.0807	        	        	        	        	    -461	(  2  0  0)	  0  1
     59.4749	        	        	        	        	       0	(  2  0  1)	  0  1
     59.4749	        	        	        	        	    -461	(  2  0  1)	  0  1
     59.9540	        	        	        	        	       0	(  1  0  8)	  0  1
     59.9540	        	        	        	        	    -461	(  1  0  8)	  0  1
     60.6481	        	        	        	        	       0	(  2  0  2)	  0  1
     60.6481	        	        	        	        	    -461	(  2  0  2)	  0  1
     62.5744	        	        	        	        	       0	(  2  0  3)	  0  1
     62.5744	        	        	        	        	    -461	(  2  0  3)	  0  1
     64.9951	        	        	        	        	       0	(  1  1  6)	  0  1
     64.9951	        	        	        	        	    -461	(  1  1  6)	  0  1
     65.2167	        	        	        	        	       0	(  2  0  4)	  0  1
     65.2167	        	        	        	        	    -461	(  2  0  4)	  0  1
     65.8230	        	        	        	        	       0	(  0  0 10)	  0  1
     65.8230	        	        	        	        	    -461	(  0  0 10)	  0  1
     66.4135	        	        	        	        	       0	(  1  0  9)	  0  1
     66.4135	        	        	        	        	    -461	(  1  0  9)	  0  1
     68.5344	        	        	        	        	       0	(  2  0  5)	  0  1
     68.5344	        	        	        	        	    -461	(  2  0  5)	  0  1
     72.4911	        	        	        	        	       0	(  2  0  6)	  0  1
     72.4911	        	        	        	        	    -461	(  2  0  6)	  0  1
     73.2790	        	        	        	        	       0	(  1  0 10)	  0  1
     73.2790	        	        	        	        	    -461	(  1  0 10)	  0  1
     75.1066	        	        	        	        	       0	(  1  1  8)	  0  1
     75.1066	        	        	        	        	    -461	(  1  1  8)	  0  1
     77.0605	        	        	        	        	       0	(  2  0  7)	  0  1
     77.0605	        	        	        	        	    -461	(  2  0  7)	  0  1
     80.5941	        	        	        	        	       0	(  1  0 11)	  0  1
     80.5941	        	        	        	        	    -461	(  1  0 11)	  0  1
     81.4206	        	        	        	        	       0	(  0  0 12)	  0  1
     81.4206	        	        	        	        	    -461	(  0  0 12)	  0  1
     81.4724	        	        	        	        	       0	(  2  1  0)	  0  1
     81.4724	        	        	        	        	    -461	(  2  1  0)	  0  1
     81.8152	        	        	        	        	       0	(  2  1  1)	  0  1
     81.8152	        	        	        	        	    -461	(  2  1  1)	  0  1
     82.2333	        	        	        	        	       0	(  2  0  8)	  0  1
     82.2333	        	        	        	        	    -461	(  2  0  8)	  0  1
     82.8418	        	        	        	        	       0	(  2  1  2)	  0  1
     82.8418	        	        	        	        	    -461	(  2  1  2)	  0  1
     84.5480	        	        	        	        	       0	(  2  1  3)	  0  1
     84.5480	        	        	        	        	    -461	(  2  1  3)	  0  1
     86.9291	        	        	        	        	       0	(  2  1  4)	  0  1
     86.9291	        	        	        	        	    -461	(  2  1  4)	  0  1
     87.4820	        	        	        	        	       0	(  1  1 10)	  0  1
     87.4820	        	        	        	        	    -461	(  1  1 10)	  0  1
     88.0228	        	        	        	        	       0	(  2  0  9)	  0  1
     88.0228	        	        	        	        	    -461	(  2  0  9)	  0  1
     88.4372	        	        	        	        	       0	(  1  0 12)	  0  1
     88.4372	        	        	        	        	    -461	(  1  0 12)	  0  1
     89.9836	        	        	        	        	       0	(  2  1  5)	  0  1
     89.9836	        	        	        	        	    -461	(  2  1  5)	  0  1
     93.7180	        	        	        	        	       0	(  2  1  6)	  0  1
     93.7180	        	        	        	        	    -461	(  2  1  6)	  0  1
     94.4734	        	        	        	        	       0	(  2  0 10)	  0  1
     94.4734	        	        	        	        	    -461	(  2  0 10)	  0  1
     95.4833	        	        	        	        	       0	(  3  0  0)	  0  1
     95.4833	        	        	        	        	    -461	(  3  0  0)	  0  1
     95.8242	        	        	        	        	       0	(  3  0  1)	  0  1
     95.8242	        	        	        	        	    -461	(  3  0  1)	  0  1
     96.8484	        	        	        	        	       0	(  3  0  2)	  0  1
     96.8484	        	        	        	        	    -461	(  3  0  2)	  0  1
     96.9359	        	        	        	        	       0	(  1  0 13)	  0  1
     96.9359	        	        	        	        	    -461	(  1  0 13)	  0  1
     98.1537	        	        	        	        	       0	(  2  1  7)	  0  1
     98.1537	        	        	        	        	    -461	(  2  1  7)	  0  1
     98.5605	        	        	        	        	       0	(  3  0  3)	  0  1
     98.5605	        	        	        	        	    -461	(  3  0  3)	  0  1
     99.1316	        	        	        	        	       0	(  0  0 14)	  0  1
     99.1316	        	        	        	        	    -461	(  0  0 14)	  0  1
    100.9710	        	        	        	        	       0	(  3  0  4)	  0  1
    100.9710	        	        	        	        	    -461	(  3  0  4)	  0  1
    101.6753	        	        	        	        	       0	(  2  0 11)	  0  1
    101.6753	        	        	        	        	    -461	(  2  0 11)	  0  1
    102.5107	        	        	        	        	       0	(  1  1 12)	  0  1
    102.5107	        	        	        	        	    -461	(  1  1 12)	  0  1
    103.3366	        	        	        	        	       0	(  2  1  8)	  0  1
    103.3366	        	        	        	        	    -461	(  2  1  8)	  0  1
    104.1003	        	        	        	        	       0	(  3  0  5)	  0  1
    104.1003	        	        	        	        	    -461	(  3  0  5)	  0  1
    106.3007	        	        	        	        	       0	(  1  0 14)	  0  1
    106.3007	        	        	        	        	    -461	(  1  0 14)	  0  1
    107.9858	        	        	        	        	       0	(  3  0  6)	  0  1
    107.9858	        	        	        	        	    -461	(  3  0  6)	  0  1
    109.3524	        	        	        	        	       0	(  2  1  9)	  0  1
    109.3524	        	        	        	        	    -461	(  2  1  9)	  0  1
    109.7923	        	        	        	        	       0	(  2  0 12)	  0  1
    109.7923	        	        	        	        	    -461	(  2  0 12)	  0  1
    112.6936	        	        	        	        	       0	(  3  0  7)	  0  1
    112.6936	        	        	        	        	    -461	(  3  0  7)	  0  1
    116.3566	        	        	        	        	       0	(  2  1 10)	  0  1
    116.3566	        	        	        	        	    -461	(  2  1 10)	  0  1
    116.9043	        	        	        	        	       0	(  1  0 15)	  0  1
    116.9043	        	        	        	        	    -461	(  1  0 15)	  0  1
    117.4857	        	        	        	        	       0	(  2  2  0)	  0  1
    117.4857	        	        	        	        	    -461	(  2  2  0)	  0  1
    118.3392	        	        	        	        	       0	(  3  0  8)	  0  1
    118.3392	        	        	        	        	    -461	(  3  0  8)	  0  1
    119.0278	        	        	        	        	       0	(  2  2  2)	  0  1
    119.0278	        	        	        	        	    -461	(  2  2  2)	  0  1
    119.1272	        	        	        	        	       0	(  2  0 13)	  0  1
    119.1272	        	        	        	        	    -461	(  2  0 13)	  0  1
    120.9427	        	        	        	        	       0	(  0  0 16)	  0  1
    120.9427	        	        	        	        	    -461	(  0  0 16)	  0  1
    121.6497	        	        	        	        	       0	(  1  1 14)	  0  1
    121.6497	        	        	        	        	    -461	(  1  1 14)	  0  1
    123.8045	        	        	        	        	       0	(  2  2  4)	  0  1
    123.8045	        	        	        	        	    -461	(  2  2  4)	  0  1
    124.6404	        	        	        	        	       0	(  2  1 11)	  0  1
    124.6404	        	        	        	        	    -461	(  2  1 11)	  0  1
    125.1315	        	        	        	        	       0	(  3  0  9)	  0  1
    125.1315	        	        	        	        	    -461	(  3  0  9)	  0  1
    125.7033	        	        	        	        	       0	(  3  1  0)	  0  1
    125.7033	        	        	        	        	    -461	(  3  1  0)	  0  1
    126.1227	        	        	        	        	       0	(  3  1  1)	  0  1
    126.1227	        	        	        	        	    -461	(  3  1  1)	  0  1
    127.3947	        	        	        	        	       0	(  3  1  2)	  0  1
    127.3947	        	        	        	        	    -461	(  3  1  2)	  0  1
    129.5135	        	        	        	        	       0	(  1  0 16)	  0  1
    129.5135	        	        	        	        	    -461	(  1  0 16)	  0  1
    129.5647	        	        	        	        	       0	(  3  1  3)	  0  1
    129.5647	        	        	        	        	    -461	(  3  1  3)	  0  1
    130.3015	        	        	        	        	       0	(  2  0 14)	  0  1
    130.3015	        	        	        	        	    -461	(  2  0 14)	  0  1
    132.4497	        	        	        	        	       0	(  2  2  6)	  0  1
    132.4497	        	        	        	        	    -461	(  2  2  6)	  0  1
    132.7233	        	        	        	        	       0	(  3  1  4)	  0  1
    132.7233	        	        	        	        	    -461	(  3  1  4)	  0  1
    133.4810	        	        	        	        	       0	(  3  0 10)	  0  1
    133.4810	        	        	        	        	    -461	(  3  0 10)	  0  1
    134.8137	        	        	        	        	       0	(  2  1 12)	  0  1
    134.8137	        	        	        	        	    -461	(  2  1 12)	  0  1
    137.0410	        	        	        	        	       0	(  3  1  5)	  0  1
    137.0410	        	        	        	        	    -461	(  3  1  5)	  0  1
    142.8548	        	        	        	        	       0	(  3  1  6)	  0  1
    142.8548	        	        	        	        	    -461	(  3  1  6)	  0  1
    144.3611	        	        	        	        	       0	(  3  0 11)	  0  1
    144.3611	        	        	        	        	    -461	(  3  0 11)	  0  1
    144.9698	        	        	        	        	       0	(  2  0 15)	  0  1
    144.9698	        	        	        	        	    -461	(  2  0 15)	  0  1
    146.3082	        	        	        	        	       0	(  1  0 17)	  0  1
    146.3082	        	        	        	        	    -461	(  1  0 17)	  0  1
    147.2539	        	        	        	        	       0	(  2  2  8)	  0  1
    147.2539	        	        	        	        	    -461	(  2  2  8)	  0  1
    148.5569	        	        	        	        	       0	(  2  1 13)	  0  1
    148.5569	        	        	        	        	    -461	(  2  1 13)	  0  1
    150.9611	        	        	        	        	       0	(  3  1  7)	  0  1
    150.9611	        	        	        	        	    -461	(  3  1  7)	  0  1
    151.7204	        	        	        	        	       0	(  1  1 16)	  0  1
    151.7204	        	        	        	        	    -461	(  1  1 16)	  0  1
    156.5800	        	        	        	        	       0	(  0  0 18)	  0  1
    156.5800	        	        	        	        	    -461	(  0  0 18)	  0  1
    161.6888	        	        	        	        	       0	(  3  0 12)	  0  1
    161.6888	        	        	        	        	    -461	(  3  0 12)	  0  1
    161.8534	        	        	        	        	       0	(  4  0  0)	  0  1
    161.8534	        	        	        	        	    -461	(  4  0  0)	  0  1
    162.9828	        	        	        	        	       0	(  4  0  1)	  0  1
    162.9828	        	        	        	        	    -461	(  4  0  1)	  0  1
    164.4701	        	        	        	        	       0	(  3  1  8)	  0  1
    164.4701	        	        	        	        	    -461	(  3  1  8)	  0  1
    166.9310	        	        	        	        	       0	(  4  0  2)	  0  1
    166.9310	        	        	        	        	    -461	(  4  0  2)	  0  1
