MSG Master    CELL:    5.90639   5.90639  23.20723   90.0000   90.0000  120.0000   SPGR: P 63/m m c             TEMP:    864.85
  1   1280     2.52000     0.00000    -0.12493     0.00000     0.00000    0
    98     0     2
       0.00000      10.00000
     125.00000     130.00000
 2Theta	Yobs	Ycal	Yobs-Ycal	Backg	Posr	(hkl)	K
      0.7700	    0.00	  452.14	-1754.00	  343.77
      0.8700	    0.00	  453.98	-1754.00	  345.62
      0.9700	   49.00	  455.81	-1754.00	  347.44
      1.0700	   38.00	  457.61	-1754.00	  349.25
      1.1700	   42.00	  459.40	-1754.00	  351.03
      1.2700	   37.00	  461.16	-1754.00	  352.80
      1.3700	   45.00	  462.91	-1754.00	  354.54
      1.4700	   98.00	  464.63	-1754.00	  356.27
      1.5700	  290.00	  466.34	-1754.00	  357.97
      1.6700	  464.00	  468.03	-1754.00	  359.66
      1.7700	  559.00	  469.69	-1754.00	  361.33
      1.8700	  670.00	  471.34	-1754.00	  362.98
      1.9700	  733.00	  472.97	-1754.00	  364.61
      2.0700	  762.00	  474.59	-1754.00	  366.22
      2.1700	  770.00	  476.18	-1754.00	  367.82
      2.2700	  770.00	  477.75	-1754.00	  369.39
      2.3700	  722.00	  479.31	-1754.00	  370.95
      2.4700	  737.00	  480.85	-1754.00	  372.48
      2.5700	  652.00	  482.37	-1754.00	  374.00
      2.6700	  681.00	  483.87	-1754.00	  375.51
      2.7700	  652.00	  485.36	-1754.00	  376.99
      2.8700	  662.00	  486.82	-1754.00	  378.46
      2.9700	  614.00	  488.27	-1754.00	  379.91
      3.0700	  579.00	  489.70	-1754.00	  381.34
      3.1700	  649.00	  491.12	-1754.00	  382.75
      3.2700	  651.00	  492.51	-1754.00	  384.15
      3.3700	  745.00	  493.89	-1754.00	  385.53
      3.4700	  923.00	  495.25	-1754.00	  386.89
      3.5700	  999.00	  496.60	-1754.00	  388.23
      3.6700	 1091.00	  497.93	-1754.00	  389.56
      3.7700	 1142.00	  499.24	-1754.00	  390.87
      3.8700	 1207.00	  500.53	-1754.00	  392.17
      3.9700	 1239.00	  501.81	-1754.00	  393.45
      4.0700	 1254.00	  503.07	-1754.00	  394.71
      4.1700	 1272.00	  504.32	-1754.00	  395.95
      4.2700	 1281.00	  505.55	-1754.00	  397.18
      4.3700	 1281.00	  506.76	-1754.00	  398.40
      4.4700	 1214.00	  507.96	-1754.00	  399.59
      4.5700	 1222.00	  509.14	-1754.00	  400.77
      4.6700	 1151.00	  510.30	-1754.00	  401.94
      4.7700	 1124.00	  511.45	-1754.00	  403.09
      4.8700	 1095.00	  512.59	-1754.00	  404.22
      4.9700	 1077.00	  513.71	-1754.00	  405.34
      5.0700	 1063.00	  514.81	-1754.00	  406.44
      5.1700	 1019.00	  515.90	-1754.00	  407.53
      5.2700	 1011.00	  516.97	-1754.00	  408.60
      5.3700	  933.00	  518.03	-1754.00	  409.66
      5.4700	  957.00	  519.07	-1754.00	  410.70
      5.5700	  976.00	  520.10	-1754.00	  411.73
      5.6700	  907.00	  521.11	-1754.00	  412.74
      5.7700	  899.00	  522.11	-1754.00	  413.74
      5.8700	  870.00	  523.09	-1754.00	  414.73
      5.9700	  908.00	  524.06	-1754.00	  415.70
      6.0700	  849.00	  525.01	-1754.00	  416.65
      6.1700	  806.00	  525.95	-1754.00	  417.59
      6.2700	  833.00	  526.88	-1754.00	  418.52
      6.3700	  766.00	  527.79	-1754.00	  419.43
      6.4700	  755.00	  528.69	-1754.00	  420.33
      6.5700	  826.00	  529.58	-1754.00	  421.21
      6.6700	  799.00	  530.45	-1754.00	  422.08
      6.7700	  731.00	  531.30	-1754.00	  422.94
      6.8700	  784.00	  532.15	-1754.00	  423.78
      6.9700	  719.00	  532.98	-1754.00	  424.61
      7.0700	  750.00	  533.79	-1754.00	  425.43
      7.1700	  695.00	  534.60	-1754.00	  426.23
      7.2700	  739.00	  535.39	-1754.00	  427.02
      7.3700	  703.00	  536.16	-1754.00	  427.80
      7.4700	  685.00	  536.93	-1754.00	  428.56
      7.5700	  688.00	  537.68	-1754.00	  429.31
      7.6700	  628.00	  538.42	-1754.00	  430.05
      7.7700	  697.00	  539.14	-1754.00	  430.78
      7.8700	  639.00	  539.85	-1754.00	  431.49
      7.9700	  625.00	  540.55	-1754.00	  432.19
      8.0700	  618.00	  541.24	-1754.00	  432.88
      8.1700	  608.00	  541.92	-1754.00	  433.55
      8.2700	  598.00	  542.58	-1754.00	  434.22
      8.3700	  637.00	  543.23	-1754.00	  434.87
      8.4700	  623.00	  543.87	-1754.00	  435.51
      8.5700	  590.00	  544.50	-1754.00	  436.13
      8.6700	  618.00	  545.11	-1754.00	  436.75
      8.7700	  629.00	  545.72	-1754.00	  437.35
      8.8700	  589.00	  546.31	-1754.00	  437.94
      8.9700	  583.00	  546.89	-1754.00	  438.52
      9.0700	  590.00	  547.46	-1754.00	  439.09
      9.1700	  605.00	  548.01	-1754.00	  439.65
      9.2700	  635.00	  548.56	-1754.00	  440.20
      9.3700	  620.00	  549.09	-1754.00	  440.73
      9.4700	  633.00	  549.62	-1754.00	  441.25
      9.5700	  644.00	  550.13	-1754.00	  441.77
      9.6700	  616.00	  550.63	-1754.00	  442.27
      9.7700	  608.00	  551.12	-1754.00	  442.76
      9.8700	  561.00	  551.60	-1754.00	  443.24
      9.9700	  589.00	  552.07	-1754.00	  443.71
     10.0700	  590.00	  554.21	-1718.21	  444.16
     10.1700	  564.00	  554.82	-1744.82	  444.61
     10.2700	  625.00	  555.46	-1684.46	  445.05
     10.3700	  571.00	  556.15	-1739.15	  445.48
     10.4700	  543.00	  556.90	-1767.90	  445.89
     10.5700	  592.00	  557.78	-1719.78	  446.30
     10.6700	  589.00	  558.86	-1723.86	  446.69
     10.7700	  576.00	  560.23	-1738.23	  447.08
     10.8700	  555.00	  561.97	-1760.97	  447.46
     10.9700	  535.00	  564.11	-1783.11	  447.82
     11.0700	  609.00	  566.64	-1711.64	  448.18
     11.1700	  597.00	  569.59	-1726.59	  448.52
     11.2700	  631.00	  572.97	-1695.97	  448.86
     11.3700	  622.00	  576.85	-1708.85	  449.19
     11.4700	  574.00	  581.36	-1761.36	  449.51
     11.5700	  570.00	  586.69	-1770.69	  449.82
     11.6700	  583.00	  593.14	-1764.14	  450.11
     11.7700	  650.00	  601.12	-1705.12	  450.40
     11.8700	  601.00	  611.00	-1764.00	  450.69
     11.9700	  634.00	  622.68	-1742.68	  450.96
     12.0700	  681.00	  634.82	-1707.82	  451.22
     12.1700	  692.00	  644.02	-1706.02	  451.47
     12.2700	  706.00	  644.77	-1692.77	  451.72
     12.3700	  668.00	  633.28	-1719.28	  451.95
     12.4700	  639.00	  614.34	-1729.34	  452.18
     12.5700	  596.00	  596.54	-1754.54	  452.40
     12.6700	  572.00	  583.75	-1765.75	  452.61
     12.7700	  563.00	  575.86	-1766.86	  452.81
     12.8700	  556.00	  571.44	-1769.44	  453.01
     12.9700	  548.00	  569.01	-1775.01	  453.19
     13.0700	  577.00	  567.61	-1744.61	  453.37
     13.1700	  531.00	  566.73	-1789.73	  453.54
     13.2700	  499.00	  566.12	-1821.12	  453.70
     13.3700	  586.00	  565.70	-1733.70	  453.85
     13.4700	  518.00	  565.39	-1801.39	  453.99
     13.5700	  555.00	  565.17	-1764.17	  454.13
     13.6700	  530.00	  565.01	-1789.01	  454.26
     13.7700	  583.00	  564.89	-1735.89	  454.38
     13.8700	  566.00	  564.80	-1752.80	  454.50
     13.9700	  522.00	  564.74	-1796.74	  454.60
     14.0700	  531.00	  564.70	-1787.70	  454.70
     14.1700	  578.00	  564.70	-1740.70	  454.79
     14.2700	  549.00	  564.68	-1769.68	  454.87
     14.3700	  537.00	  564.66	-1781.66	  454.95
     14.4700	  537.00	  564.65	-1781.65	  455.02
     14.5700	  548.00	  564.65	-1770.65	  455.08
     14.6700	  532.00	  564.64	-1786.64	  455.14
     14.7700	  521.00	  564.64	-1797.64	  455.19
     14.8700	  539.00	  564.63	-1779.63	  455.23
     14.9700	  598.00	  564.62	-1720.62	  455.26
     15.0700	  568.00	  564.61	-1750.61	  455.29
     15.1700	  548.00	  564.59	-1770.59	  455.31
     15.2700	  556.00	  564.58	-1762.58	  455.32
     15.3700	  552.00	  564.56	-1766.56	  455.33
     15.4700	  596.00	  564.53	-1722.53	  455.33
     15.5700	  562.00	  564.50	-1756.50	  455.33
     15.6700	  588.00	  564.47	-1730.47	  455.32
     15.7700	  537.00	  564.43	-1781.43	  455.30
     15.8700	  559.00	  564.39	-1759.39	  455.27
     15.9700	  583.00	  564.34	-1735.34	  455.24
     16.0700	  573.00	  564.29	-1745.29	  455.21
     16.1700	  559.00	  564.24	-1759.24	  455.16
     16.2700	  544.00	  564.18	-1774.18	  455.11
     16.3700	  516.00	  564.11	-1802.11	  455.06
     16.4700	  523.00	  564.04	-1795.04	  455.00
     16.5700	  546.00	  563.96	-1771.96	  454.93
     16.6700	  543.00	  563.88	-1774.88	  454.86
     16.7700	  505.00	  563.79	-1812.79	  454.78
     16.8700	  520.00	  563.70	-1797.70	  454.70
     16.9700	  561.00	  563.61	-1756.61	  454.61
     17.0700	  546.00	  563.51	-1771.51	  454.52
     17.1700	  614.00	  563.40	-1703.40	  454.42
     17.2700	  570.00	  563.29	-1747.29	  454.31
     17.3700	  514.00	  563.18	-1803.18	  454.20
     17.4700	  553.00	  563.06	-1764.06	  454.08
     17.5700	  540.00	  563.04	-1777.04	  453.96
     17.6700	  543.00	  562.91	-1773.91	  453.84
     17.7700	  532.00	  562.78	-1784.78	  453.71
     17.8700	  540.00	  562.64	-1776.64	  453.57
     17.9700	  565.00	  562.50	-1751.50	  453.43
     18.0700	  574.00	  562.45	-1742.45	  453.28
     18.1700	  589.00	  562.31	-1727.31	  453.13
     18.2700	  538.00	  562.15	-1778.15	  452.98
     18.3700	  551.00	  562.00	-1765.00	  452.82
     18.4700	  517.00	  561.84	-1798.84	  452.65
     18.5700	  591.00	  561.67	-1724.67	  452.48
     18.6700	  578.00	  561.50	-1737.50	  452.31
     18.7700	  534.00	  561.33	-1781.33	  452.13
     18.8700	  551.00	  561.15	-1764.15	  451.95
     18.9700	  557.00	  560.97	-1757.97	  451.76
     19.0700	  563.00	  560.78	-1751.78	  451.57
     19.1700	  548.00	  560.60	-1766.60	  451.37
     19.2700	  564.00	  560.40	-1750.40	  451.17
     19.3700	  542.00	  560.21	-1772.21	  450.97
     19.4700	  542.00	  560.01	-1772.01	  450.76
     19.5700	  517.00	  559.81	-1796.81	  450.55
     19.6700	  559.00	  559.60	-1754.60	  450.33
     19.7700	  523.00	  559.43	-1790.43	  450.11
     19.8700	  577.00	  559.22	-1736.22	  449.89
     19.9700	  575.00	  559.00	-1738.00	  449.66
     20.0700	  528.00	  558.78	-1784.78	  449.43
     20.1700	  562.00	  558.56	-1750.56	  449.20
     20.2700	  522.00	  558.34	-1790.34	  448.96
     20.3700	  519.00	  558.11	-1793.11	  448.71
     20.4700	  551.00	  557.88	-1760.88	  448.47
     20.5700	  575.00	  557.65	-1736.65	  448.22
     20.6700	  580.00	  557.41	-1731.41	  447.97
     20.7700	  565.00	  557.18	-1746.18	  447.71
     20.8700	  562.00	  556.94	-1748.94	  447.45
     20.9700	  547.00	  556.70	-1763.70	  447.19
     21.0700	  549.00	  556.46	-1761.46	  446.92
     21.1700	  590.00	  556.21	-1720.21	  446.65
     21.2700	  541.00	  555.97	-1768.97	  446.38
     21.3700	  555.00	  555.72	-1754.72	  446.11
     21.4700	  571.00	  555.47	-1738.47	  445.83
     21.5700	  545.00	  555.22	-1764.22	  445.55
     21.6700	  531.00	  554.97	-1777.97	  445.26
     21.7700	  537.00	  554.72	-1771.72	  444.97
     21.8700	  554.00	  554.47	-1754.47	  444.68
     21.9700	  512.00	  554.22	-1796.22	  444.39
     22.0700	  572.00	  553.98	-1735.98	  444.10
     22.1700	  543.00	  553.73	-1764.73	  443.80
     22.2700	  571.00	  553.49	-1736.49	  443.50
     22.3700	  555.00	  553.40	-1752.40	  443.19
     22.4700	  539.00	  553.17	-1768.17	  442.89
     22.5700	  562.00	  552.94	-1744.94	  442.58
     22.6700	  545.00	  552.71	-1761.71	  442.27
     22.7700	  564.00	  552.46	-1742.46	  441.95
     22.8700	  586.00	  552.25	-1720.25	  441.64
     22.9700	  562.00	  552.06	-1744.06	  441.32
     23.0700	  553.00	  551.89	-1752.89	  441.00
     23.1700	  560.00	  551.73	-1745.73	  440.68
     23.2700	  516.00	  551.60	-1789.60	  440.35
     23.3700	  591.00	  551.51	-1714.51	  440.03
     23.4700	  564.00	  551.45	-1741.45	  439.70
     23.5700	  557.00	  551.46	-1748.46	  439.36
     23.6700	  554.00	  551.55	-1751.55	  439.03
     23.7700	  531.00	  551.77	-1774.77	  438.70
     23.8700	  598.00	  552.20	-1708.20	  438.36
     23.9700	  552.00	  552.97	-1754.97	  438.02
     24.0700	  583.00	  554.35	-1725.35	  437.68
     24.1700	  582.00	  556.71	-1728.71	  437.34
     24.2700	  539.00	  560.58	-1775.58	  436.99
     24.3700	  583.00	  566.56	-1737.56	  436.65
     24.4700	  585.00	  575.06	-1744.06	  436.30
     24.5700	  596.00	  586.06	-1744.06	  435.95
     24.6700	  656.00	  598.47	-1696.47	  435.60
     24.7700	  634.00	  609.55	-1729.55	  435.25
     24.8700	  599.00	  614.57	-1769.57	  434.89
     24.9700	  680.00	  609.14	-1683.14	  434.54
     25.0700	  632.00	  595.08	-1717.08	  434.18
     25.1700	  590.00	  579.50	-1743.50	  433.82
     25.2700	  584.00	  567.04	-1737.04	  433.46
     25.3700	  519.00	  558.65	-1793.65	  433.10
     25.4700	  558.00	  553.58	-1749.58	  432.74
     25.5700	  522.00	  550.64	-1782.64	  432.37
     25.6700	  596.00	  548.89	-1706.89	  432.01
     25.7700	  561.00	  547.75	-1740.75	  431.64
     25.8700	  595.00	  546.94	-1705.94	  431.28
     25.9700	  570.00	  546.34	-1730.34	  430.91
     26.0700	  571.00	  545.89	-1728.89	  430.54
     26.1700	  561.00	  545.57	-1738.57	  430.17
     26.2700	  600.00	  545.35	-1699.35	  429.80
     26.3700	  564.00	  545.23	-1735.23	  429.43
     26.4700	  526.00	  545.21	-1773.21	  429.05
     26.5700	  581.00	  545.31	-1718.31	  428.68
     26.6700	  558.00	  545.53	-1741.53	  428.30
     26.7700	  579.00	  545.89	-1720.89	  427.93
     26.8700	  558.00	  546.43	-1742.43	  427.55
     26.9700	  533.00	  547.18	-1768.18	  427.18
     27.0700	  566.00	  548.23	-1736.23	  426.80
     27.1700	  538.00	  549.66	-1765.66	  426.42
     27.2700	  598.00	  551.68	-1707.68	  426.04
     27.3700	  563.00	  554.62	-1745.62	  425.66
     27.4700	  532.00	  559.16	-1781.16	  425.28
     27.5700	  584.00	  566.49	-1736.49	  424.90
     27.6700	  559.00	  578.62	-1773.62	  424.52
     27.7700	  566.00	  598.36	-1786.36	  424.14
     27.8700	  582.00	  628.75	-1800.75	  423.75
     27.9700	  628.00	  671.41	-1797.41	  423.37
     28.0700	  719.00	  724.24	-1759.24	  422.99
     28.1700	  840.00	  779.01	-1693.01	  422.61
     28.2700	  922.00	  820.06	-1652.06	  422.22
     28.3700	  940.00	  828.84	-1642.84	  421.84
     28.4700	  849.00	  804.12	-1709.12	  421.45
     28.5700	  789.00	  772.52	-1737.52	  421.07
     28.6700	  716.00	  759.53	-1797.53	  420.69
     28.7700	  696.00	  771.41	-1829.41	  420.30
     28.8700	  775.00	  798.34	-1777.34	  419.92
     28.9700	  844.00	  819.18	-1729.18	  419.53
     29.0700	  797.00	  809.49	-1766.49	  419.15
     29.1700	  766.00	  762.48	-1750.48	  418.76
     29.2700	  708.00	  699.60	-1745.60	  418.38
     29.3700	  660.00	  643.71	-1737.71	  417.99
     29.4700	  655.00	  603.46	-1702.46	  417.61
     29.5700	  612.00	  578.05	-1720.05	  417.22
     29.6700	  596.00	  563.29	-1721.29	  416.84
     29.7700	  592.00	  554.89	-1716.89	  416.45
     29.8700	  614.00	  549.91	-1689.91	  416.07
     29.9700	  635.00	  546.80	-1665.80	  415.69
     30.0700	  534.00	  544.93	-1764.93	  415.30
     30.1700	  621.00	  544.14	-1677.15	  414.92
     30.2700	  566.00	  544.69	-1732.69	  414.53
     30.3700	  584.00	  547.17	-1717.17	  414.15
     30.4700	  595.00	  552.59	-1711.59	  413.77
     30.5700	  589.00	  562.15	-1727.15	  413.39
     30.6700	  579.00	  576.61	-1751.61	  413.00
     30.7700	  603.00	  595.24	-1746.24	  412.62
     30.8700	  638.00	  614.84	-1730.84	  412.24
     30.9700	  591.00	  629.19	-1792.19	  411.86
     31.0700	  620.00	  630.50	-1764.50	  411.48
     31.1700	  622.00	  615.89	-1747.89	  411.10
     31.2700	  613.00	  592.81	-1733.81	  410.72
     31.3700	  620.00	  570.73	-1704.73	  410.34
     31.4700	  571.00	  553.99	-1736.99	  409.97
     31.5700	  565.00	  543.00	-1732.00	  409.59
     31.6700	  591.00	  536.42	-1699.42	  409.21
     31.7700	  572.00	  532.63	-1714.63	  408.84
     31.8700	  563.00	  530.37	-1721.37	  408.46
     31.9700	  511.00	  528.93	-1771.93	  408.09
     32.0700	  538.00	  527.94	-1743.94	  407.71
     32.1700	  535.00	  527.27	-1746.27	  407.34
     32.2700	  526.00	  526.84	-1754.84	  406.97
     32.3700	  527.00	  526.63	-1753.63	  406.59
     32.4700	  550.00	  526.63	-1730.63	  406.22
     32.5700	  557.00	  526.85	-1723.85	  405.85
     32.6700	  549.00	  527.32	-1732.32	  405.48
     32.7700	  529.00	  528.08	-1753.08	  405.12
     32.8700	  545.00	  529.21	-1738.21	  404.75
     32.9700	  519.00	  530.82	-1765.82	  404.38
     33.0700	  522.00	  533.11	-1765.11	  404.02
     33.1700	  545.00	  536.47	-1745.47	  403.65
     33.2700	  551.00	  541.63	-1744.63	  403.29
     33.3700	  536.00	  550.08	-1768.08	  402.93
     33.4700	  590.00	  564.49	-1728.49	  402.57
     33.5700	  652.00	  589.03	-1691.03	  402.21
     33.6700	  608.00	  628.88	-1774.88	  401.85
     33.7700	  672.00	  688.18	-1770.18	  401.49
     33.8700	  723.00	  765.77	-1796.77	  401.13
     33.9700	  845.00	  850.63	-1759.63	  400.77
     34.0700	  998.00	  919.74	-1675.74	  400.42
     34.1700	  998.00	  942.07	-1698.07	  400.07
     34.2700	  953.00	  900.07	-1701.07	  399.71
     34.3700	  846.00	  814.68	-1722.68	  399.36
     34.4700	  802.00	  723.84	-1675.84	  399.01
     34.5700	  634.00	  649.95	-1769.95	  398.66
     34.6700	  591.00	  598.63	-1761.63	  398.31
     34.7700	  581.00	  566.68	-1739.68	  397.97
     34.8700	  548.00	  548.02	-1754.02	  397.62
     34.9700	  501.00	  537.12	-1790.12	  397.28
     35.0700	  577.00	  530.34	-1707.34	  396.94
     35.1700	  511.00	  525.68	-1768.68	  396.60
     35.2700	  533.00	  522.20	-1743.20	  396.26
     35.3700	  511.00	  519.46	-1762.46	  395.92
     35.4700	  521.00	  517.22	-1750.22	  395.58
     35.5700	  506.00	  515.83	-1763.83	  395.24
     35.6700	  548.00	  514.25	-1720.25	  394.91
     35.7700	  513.00	  512.90	-1753.90	  394.58
     35.8700	  535.00	  511.69	-1730.69	  394.25
     35.9700	  486.00	  510.66	-1778.66	  393.92
     36.0700	  506.00	  509.73	-1757.73	  393.59
     36.1700	  525.00	  508.90	-1737.90	  393.26
     36.2700	  516.00	  508.16	-1746.16	  392.93
     36.3700	  505.00	  507.48	-1756.48	  392.61
     36.4700	  545.00	  506.87	-1715.87	  392.29
     36.5700	  515.00	  506.32	-1745.32	  391.97
     36.6700	  518.00	  505.83	-1741.83	  391.65
     36.7700	  527.00	  505.40	-1732.40	  391.33
     36.8700	  551.00	  505.05	-1708.05	  391.01
     36.9700	  446.00	  504.82	-1812.82	  390.70
     37.0700	  498.00	  504.77	-1760.77	  390.39
     37.1700	  490.00	  505.03	-1769.03	  390.07
     37.2700	  509.00	  505.76	-1750.76	  389.76
     37.3700	  482.00	  507.18	-1779.18	  389.46
     37.4700	  492.00	  509.38	-1771.38	  389.15
     37.5700	  484.00	  512.26	-1782.26	  388.84
     37.6700	  475.00	  515.31	-1794.31	  388.54
     37.7700	  509.00	  517.58	-1762.58	  388.24
     37.8700	  471.00	  518.13	-1801.13	  387.94
     37.9700	  505.00	  516.26	-1765.26	  387.64
     38.0700	  509.00	  513.00	-1758.00	  387.35
     38.1700	  537.00	  509.44	-1726.44	  387.05
     38.2700	  495.00	  506.18	-1765.18	  386.76
     38.3700	  495.00	  503.50	-1762.50	  386.47
     38.4700	  487.00	  501.49	-1768.49	  386.18
     38.5700	  493.00	  500.04	-1761.04	  385.89
     38.6700	  487.00	  499.02	-1766.02	  385.61
     38.7700	  515.00	  498.28	-1737.28	  385.32
     38.8700	  517.00	  497.70	-1734.70	  385.04
     38.9700	  507.00	  497.23	-1744.23	  384.76
     39.0700	  453.00	  496.81	-1797.81	  384.48
     39.1700	  488.00	  496.44	-1762.44	  384.20
     39.2700	  524.00	  496.00	-1726.00	  383.93
     39.3700	  475.00	  495.68	-1774.68	  383.66
     39.4700	  466.00	  495.38	-1783.38	  383.39
     39.5700	  486.00	  495.10	-1763.10	  383.12
     39.6700	  485.00	  494.83	-1763.83	  382.85
     39.7700	  461.00	  494.57	-1787.57	  382.58
     39.8700	  461.00	  494.33	-1787.33	  382.32
     39.9700	  475.00	  494.10	-1773.10	  382.06
     40.0700	  454.00	  493.88	-1793.88	  381.80
     40.1700	  479.00	  493.58	-1768.58	  381.54
     40.2700	  493.00	  493.39	-1754.39	  381.28
     40.3700	  505.00	  493.21	-1742.21	  381.03
     40.4700	  440.00	  493.58	-1807.58	  380.78
     40.5700	  468.00	  493.44	-1779.44	  380.53
     40.6700	  467.00	  493.33	-1780.33	  380.28
     40.7700	  513.00	  493.23	-1734.23	  380.03
     40.8700	  486.00	  493.17	-1761.17	  379.79
     40.9700	  496.00	  493.13	-1751.13	  379.55
     41.0700	  464.00	  493.13	-1783.13	  379.31
     41.1700	  475.00	  493.18	-1772.18	  379.07
     41.2700	  498.00	  493.28	-1749.28	  378.83
     41.3700	  530.00	  493.44	-1717.44	  378.60
     41.4700	  480.00	  493.69	-1767.69	  378.37
     41.5700	  522.00	  494.05	-1726.05	  378.14
     41.6700	  444.00	  494.58	-1804.58	  377.91
     41.7700	  468.00	  495.35	-1781.35	  377.68
     41.8700	  476.00	  496.59	-1774.59	  377.46
     41.9700	  527.00	  498.53	-1725.53	  377.24
     42.0700	  483.00	  501.87	-1772.87	  377.02
     42.1700	  510.00	  507.56	-1751.56	  376.80
     42.2700	  492.00	  516.70	-1778.70	  376.58
     42.3700	  534.00	  530.41	-1750.41	  376.37
     42.4700	  522.00	  549.11	-1781.11	  376.16
     42.5700	  566.00	  571.38	-1759.38	  375.95
     42.6700	  591.00	  593.24	-1756.24	  375.74
     42.7700	  579.00	  607.97	-1782.97	  375.53
     42.8700	  569.00	  608.80	-1793.80	  375.33
     42.9700	  561.00	  595.00	-1788.00	  375.13
     43.0700	  538.00	  572.58	-1788.58	  374.93
     43.1700	  513.00	  549.42	-1790.42	  374.73
     43.2700	  504.00	  529.95	-1779.95	  374.53
     43.3700	  531.00	  515.63	-1738.63	  374.34
     43.4700	  511.00	  506.10	-1749.10	  374.15
     43.5700	  498.00	  500.19	-1756.19	  373.96
     43.6700	  440.00	  496.63	-1810.63	  373.77
     43.7700	  509.00	  494.45	-1739.45	  373.59
     43.8700	  501.00	  493.03	-1746.03	  373.40
     43.9700	  478.00	  492.02	-1768.02	  373.22
     44.0700	  509.00	  491.25	-1736.25	  373.04
     44.1700	  485.00	  490.65	-1759.65	  372.87
     44.2700	  511.00	  490.36	-1733.36	  372.69
     44.3700	  443.00	  489.96	-1800.96	  372.52
     44.4700	  477.00	  489.64	-1766.64	  372.35
     44.5700	  477.00	  489.38	-1766.38	  372.18
     44.6700	  485.00	  489.16	-1758.16	  372.02
     44.7700	  534.00	  488.99	-1708.99	  371.85
     44.8700	  450.00	  488.86	-1792.86	  371.69
     44.9700	  468.00	  488.76	-1774.76	  371.53
     45.0700	  483.00	  488.70	-1759.70	  371.37
     45.1700	  511.00	  488.67	-1731.67	  371.21
     45.2700	  542.00	  488.66	-1700.66	  371.06
     45.3700	  498.00	  488.69	-1744.69	  370.91
     45.4700	  511.00	  488.74	-1731.74	  370.76
     45.5700	  494.00	  488.83	-1748.83	  370.61
     45.6700	  496.00	  488.94	-1746.94	  370.47
     45.7700	  515.00	  489.09	-1728.09	  370.32
     45.8700	  472.00	  489.34	-1771.34	  370.18
     45.9700	  492.00	  489.57	-1751.57	  370.04
     46.0700	  505.00	  489.87	-1738.87	  369.91
     46.1700	  504.00	  490.03	-1740.03	  369.77
     46.2700	  485.00	  490.40	-1759.40	  369.64
     46.3700	  501.00	  490.84	-1743.84	  369.51
     46.4700	  490.00	  491.34	-1755.34	  369.38
     46.5700	  492.00	  491.92	-1753.92	  369.25
     46.6700	  483.00	  492.60	-1763.60	  369.13
     46.7700	  546.00	  493.41	-1701.41	  369.01
     46.8700	  479.00	  494.40	-1769.40	  368.89
     46.9700	  465.00	  495.65	-1784.65	  368.77
     47.0700	  527.00	  497.34	-1724.34	  368.65
     47.1700	  515.00	  499.77	-1738.77	  368.54
     47.2700	  523.00	  503.42	-1734.42	  368.42
     47.3700	  507.00	  509.00	-1756.00	  368.31
     47.4700	  511.00	  517.30	-1760.30	  368.21
     47.5700	  532.00	  528.95	-1750.95	  368.10
     47.6700	  585.00	  544.00	-1713.00	  368.00
     47.7700	  552.00	  561.38	-1763.38	  367.89
     47.8700	  576.00	  578.38	-1756.38	  367.79
     47.9700	  608.00	  590.68	-1736.68	  367.70
     48.0700	  582.00	  593.96	-1765.96	  367.60
     48.1700	  578.00	  587.31	-1763.31	  367.51
     48.2700	  549.00	  574.41	-1779.41	  367.42
     48.3700	  521.00	  560.61	-1793.61	  367.33
     48.4700	  557.00	  548.49	-1745.49	  367.24
     48.5700	  556.00	  540.01	-1738.01	  367.15
     48.6700	  533.00	  535.50	-1756.50	  367.07
     48.7700	  502.00	  534.58	-1786.58	  366.99
     48.8700	  496.00	  536.64	-1794.64	  366.91
     48.9700	  488.00	  541.22	-1807.22	  366.83
     49.0700	  515.00	  548.26	-1787.26	  366.75
     49.1700	  528.00	  558.27	-1784.27	  366.68
     49.2700	  551.00	  572.76	-1775.76	  366.61
     49.3700	  572.00	  594.89	-1776.89	  366.54
     49.4700	  555.00	  630.45	-1829.45	  366.47
     49.5700	  654.00	  688.81	-1788.81	  366.41
     49.6700	  673.00	  782.96	-1863.96	  366.34
     49.7700	  834.00	  927.33	-1847.33	  366.28
     49.8700	 1024.00	 1132.65	-1862.65	  366.22
     49.9700	 1384.00	 1398.31	-1768.31	  366.16
     50.0700	 1676.00	 1703.11	-1781.11	  366.11
     50.1700	 2090.00	 1997.29	-1661.29	  366.05
     50.2700	 2293.00	 2202.67	-1663.67	  366.00
     50.3700	 2338.00	 2241.06	-1657.06	  365.95
     50.4700	 2184.00	 2093.75	-1663.75	  365.90
     50.5700	 1956.00	 1822.69	-1620.69	  365.86
     50.6700	 1470.00	 1515.48	-1799.48	  365.81
     50.7700	 1138.00	 1235.12	-1851.12	  365.77
     50.8700	  879.00	 1012.83	-1887.83	  365.73
     50.9700	  730.00	  854.65	-1878.65	  365.69
     51.0700	  675.00	  752.44	-1831.44	  365.65
     51.1700	  596.00	  690.74	-1848.74	  365.62
     51.2700	  619.00	  653.48	-1788.48	  365.59
     51.3700	  644.00	  628.13	-1738.13	  365.55
     51.4700	  588.00	  607.63	-1773.63	  365.52
     51.5700	  608.00	  589.69	-1735.69	  365.50
     51.6700	  549.00	  574.20	-1779.20	  365.47
     51.7700	  580.00	  561.49	-1735.49	  365.45
     51.8700	  526.00	  551.65	-1779.65	  365.43
     51.9700	  559.00	  544.51	-1739.51	  365.40
     52.0700	  574.00	  539.71	-1719.71	  365.39
     52.1700	  549.00	  536.84	-1741.84	  365.37
     52.2700	  544.00	  535.57	-1745.57	  365.35
     52.3700	  521.00	  535.73	-1768.73	  365.34
     52.4700	  544.00	  537.40	-1747.40	  365.33
     52.5700	  591.00	  541.04	-1704.04	  365.32
     52.6700	  534.00	  547.64	-1767.64	  365.31
     52.7700	  528.00	  559.02	-1785.02	  365.31
     52.8700	  597.00	  578.04	-1735.04	  365.30
     52.9700	  636.00	  608.61	-1726.61	  365.30
     53.0700	  672.00	  655.08	-1737.08	  365.30
     53.1700	  711.00	  720.96	-1763.96	  365.30
     53.2700	  859.00	  806.93	-1701.93	  365.30
     53.3700	  964.00	  908.50	-1698.50	  365.31
     53.4700	 1107.00	 1013.73	-1660.73	  365.31
     53.5700	 1126.00	 1101.69	-1729.69	  365.32
     53.6700	 1166.00	 1146.24	-1734.24	  365.33
     53.7700	 1188.00	 1130.06	-1696.06	  365.34
     53.8700	 1062.00	 1059.47	-1751.47	  365.35
     53.9700	  929.00	  959.17	-1784.17	  365.37
     54.0700	  819.00	  854.13	-1789.13	  365.38
     54.1700	  728.00	  760.49	-1786.49	  365.40
     54.2700	  629.00	  685.84	-1810.84	  365.42
     54.3700	  630.00	  631.52	-1755.52	  365.44
     54.4700	  623.00	  595.00	-1726.00	  365.46
     54.5700	  555.00	  572.08	-1771.08	  365.49
     54.6700	  585.00	  558.50	-1727.50	  365.51
     54.7700	  532.00	  550.86	-1772.86	  365.54
     54.8700	  558.00	  546.88	-1742.88	  365.57
     54.9700	  603.00	  545.21	-1696.21	  365.60
     55.0700	  584.00	  545.11	-1715.11	  365.63
     55.1700	  593.00	  546.25	-1707.25	  365.66
     55.2700	  584.00	  548.53	-1718.53	  365.70
     55.3700	  497.00	  551.94	-1808.94	  365.73
     55.4700	  545.00	  556.62	-1765.62	  365.77
     55.5700	  610.00	  562.81	-1706.81	  365.81
     55.6700	  544.00	  570.97	-1780.97	  365.85
     55.7700	  610.00	  582.02	-1726.02	  365.89
     55.8700	  588.00	  597.64	-1763.64	  365.94
     55.9700	  611.00	  620.92	-1763.92	  365.98
     56.0700	  687.00	  657.07	-1724.07	  366.03
     56.1700	  671.00	  714.12	-1797.12	  366.08
     56.2700	  742.00	  802.95	-1814.95	  366.12
     56.3700	  886.00	  935.93	-1803.93	  366.17
     56.4700	 1126.00	 1123.96	-1751.96	  366.23
     56.5700	 1377.00	 1371.30	-1748.30	  366.28
     56.6700	 1627.00	 1669.94	-1796.94	  366.33
     56.7700	 1945.00	 1993.69	-1802.69	  366.39
     56.8700	 2237.00	 2293.56	-1810.56	  366.45
     56.9700	 2536.00	 2499.80	-1717.80	  366.51
     57.0700	 2588.00	 2546.40	-1712.40	  366.57
     57.1700	 2424.00	 2415.68	-1745.68	  366.63
     57.2700	 2230.00	 2154.51	-1678.51	  366.69
     57.3700	 1728.00	 1836.78	-1862.78	  366.76
     57.4700	 1520.00	 1523.69	-1757.69	  366.82
     57.5700	 1167.00	 1252.37	-1839.37	  366.89
     57.6700	 1016.00	 1039.18	-1777.18	  366.95
     57.7700	  852.00	  885.46	-1787.46	  367.02
     57.8700	  795.00	  783.46	-1742.46	  367.09
     57.9700	  731.00	  722.00	-1745.00	  367.17
     58.0700	  727.00	  690.57	-1717.57	  367.24
     58.1700	  683.00	  681.56	-1752.56	  367.31
     58.2700	  735.00	  690.61	-1709.61	  367.39
     58.3700	  742.00	  715.77	-1727.77	  367.46
     58.4700	  825.00	  756.21	-1685.21	  367.54
     58.5700	  839.00	  810.74	-1725.74	  367.62
     58.6700	  902.00	  876.45	-1728.45	  367.70
     58.7700	  963.00	  947.64	-1738.64	  367.78
     58.8700	 1068.00	 1016.57	-1702.57	  367.86
     58.9700	 1183.00	 1076.64	-1647.64	  367.94
     59.0700	 1234.00	 1124.29	-1644.29	  368.03
     59.1700	 1275.00	 1156.37	-1635.37	  368.11
     59.2700	 1307.00	 1168.89	-1615.89	  368.20
     59.3700	 1275.00	 1162.09	-1641.09	  368.29
     59.4700	 1249.00	 1144.35	-1649.35	  368.37
     59.5700	 1279.00	 1127.70	-1602.70	  368.46
     59.6700	 1179.00	 1121.15	-1696.15	  368.55
     59.7700	 1203.00	 1129.66	-1680.66	  368.64
     59.8700	 1225.00	 1157.15	-1686.15	  368.74
     59.9700	 1222.00	 1207.38	-1739.38	  368.83
     60.0700	 1288.00	 1280.08	-1746.08	  368.92
     60.1700	 1435.00	 1366.36	-1685.36	  369.02
     60.2700	 1495.00	 1446.78	-1705.78	  369.11
     60.3700	 1539.00	 1493.99	-1708.99	  369.21
     60.4700	 1485.00	 1483.40	-1752.40	  369.31
     60.5700	 1427.00	 1409.41	-1736.41	  369.41
     60.6700	 1320.00	 1289.31	-1723.31	  369.51
     60.7700	 1196.00	 1149.74	-1707.74	  369.61
     60.8700	  995.00	 1013.24	-1772.24	  369.71
     60.9700	  932.00	  894.38	-1716.38	  369.81
     61.0700	  767.00	  800.50	-1787.50	  369.91
     61.1700	  757.00	  733.65	-1730.65	  370.02
     61.2700	  719.00	  692.72	-1727.72	  370.12
     61.3700	  673.00	  675.54	-1756.54	  370.22
     61.4700	  652.00	  680.64	-1782.64	  370.33
     61.5700	  717.00	  707.97	-1744.97	  370.44
     61.6700	  707.00	  758.58	-1805.58	  370.54
     61.7700	  774.00	  833.37	-1813.37	  370.65
     61.8700	  900.00	  931.23	-1785.23	  370.76
     61.9700	 1070.00	 1047.14	-1731.14	  370.87
     62.0700	 1191.00	 1170.47	-1733.47	  370.98
     62.1700	 1195.00	 1283.67	-1842.67	  371.09
     62.2700	 1281.00	 1363.32	-1836.32	  371.20
     62.3700	 1323.00	 1387.00	-1818.00	  371.32
     62.4700	 1213.00	 1346.45	-1887.45	  371.43
     62.5700	 1211.00	 1253.85	-1796.85	  371.54
     62.6700	 1118.00	 1132.88	-1768.88	  371.66
     62.7700	  901.00	 1005.96	-1858.96	  371.77
     62.8700	  823.00	  888.81	-1819.81	  371.89
     62.9700	  707.00	  790.25	-1837.25	  372.00
     63.0700	  730.00	  713.47	-1737.47	  372.12
     63.1700	  635.00	  657.66	-1776.66	  372.24
     63.2700	  572.00	  619.50	-1801.50	  372.35
     63.3700	  586.00	  594.99	-1762.99	  372.47
     63.4700	  554.00	  580.33	-1780.33	  372.59
     63.5700	  590.00	  572.75	-1736.75	  372.71
     63.6700	  566.00	  570.64	-1758.64	  372.83
     63.7700	  591.00	  573.55	-1736.55	  372.95
     63.8700	  608.00	  581.94	-1727.94	  373.07
     63.9700	  663.00	  597.00	-1688.00	  373.19
     64.0700	  615.00	  620.24	-1759.24	  373.31
     64.1700	  712.00	  652.87	-1694.87	  373.43
     64.2700	  748.00	  695.48	-1701.48	  373.55
     64.3700	  813.00	  747.18	-1688.18	  373.67
     64.4700	  833.00	  805.05	-1726.05	  373.80
     64.5700	  932.00	  863.58	-1685.58	  373.92
     64.6700	  899.00	  914.64	-1769.64	  374.04
     64.7700	  950.00	  949.07	-1753.07	  374.17
     64.8700	 1022.00	  960.11	-1692.11	  374.29
     64.9700	 1005.00	  946.60	-1695.60	  374.41
     65.0700	  962.00	  912.86	-1704.86	  374.54
     65.1700	  843.00	  866.18	-1777.18	  374.66
     65.2700	  786.00	  815.42	-1783.42	  374.79
     65.3700	  770.00	  766.70	-1750.70	  374.91
     65.4700	  749.00	  723.62	-1728.62	  375.04
     65.5700	  711.00	  687.22	-1730.22	  375.16
     65.6700	  665.00	  657.03	-1746.03	  375.29
     65.7700	  664.00	  632.20	-1722.20	  375.42
     65.8700	  616.00	  612.12	-1750.12	  375.54
     65.9700	  598.00	  596.33	-1752.33	  375.67
     66.0700	  561.00	  584.36	-1777.36	  375.79
     66.1700	  548.00	  575.74	-1781.74	  375.92
     66.2700	  553.00	  570.05	-1771.05	  376.05
     66.3700	  558.00	  567.05	-1763.05	  376.17
     66.4700	  551.00	  566.40	-1769.40	  376.30
     66.5700	  546.00	  567.72	-1775.72	  376.43
     66.6700	  547.00	  571.14	-1778.14	  376.55
     66.7700	  544.00	  576.91	-1786.91	  376.68
     66.8700	  575.00	  585.68	-1764.68	  376.81
     66.9700	  564.00	  598.82	-1788.82	  376.94
     67.0700	  644.00	  618.57	-1728.57	  377.06
     67.1700	  603.00	  648.50	-1799.50	  377.19
     67.2700	  709.00	  693.35	-1738.35	  377.32
     67.3700	  771.00	  759.40	-1742.40	  377.44
     67.4700	  763.00	  853.51	-1844.51	  377.57
     67.5700	  982.00	  981.96	-1753.96	  377.70
     67.6700	 1198.00	 1148.53	-1704.53	  377.82
     67.7700	 1362.00	 1352.39	-1744.39	  377.95
     67.8700	 1566.00	 1585.94	-1773.94	  378.07
     67.9700	 1814.00	 1832.84	-1772.84	  378.20
     68.0700	 2051.00	 2066.80	-1769.80	  378.33
     68.1700	 2346.00	 2252.12	-1660.12	  378.45
     68.2700	 2353.00	 2350.52	-1751.52	  378.58
     68.3700	 2305.00	 2337.00	-1786.00	  378.70
     68.4700	 2157.00	 2215.23	-1812.23	  378.83
     68.5700	 2011.00	 2015.04	-1758.04	  378.95
     68.6700	 1815.00	 1775.44	-1714.44	  379.08
     68.7700	 1499.00	 1530.18	-1785.18	  379.20
     68.8700	 1282.00	 1303.00	-1775.00	  379.33
     68.9700	  998.00	 1108.05	-1864.05	  379.45
     69.0700	  941.00	  951.20	-1764.20	  379.57
     69.1700	  770.00	  831.95	-1815.95	  379.70
     69.2700	  754.00	  745.67	-1745.67	  379.82
     69.3700	  721.00	  685.79	-1718.79	  379.94
     69.4700	  679.00	  645.52	-1720.52	  380.07
     69.5700	  642.00	  618.92	-1730.92	  380.19
     69.6700	  648.00	  601.40	-1707.40	  380.31
     69.7700	  602.00	  589.56	-1741.56	  380.43
     69.8700	  587.00	  581.63	-1748.63	  380.55
     69.9700	  561.00	  576.16	-1769.16	  380.67
     70.0700	  601.00	  572.41	-1725.41	  380.79
     70.1700	  589.00	  569.99	-1734.99	  380.91
     70.2700	  585.00	  568.69	-1737.69	  381.03
     70.3700	  551.00	  568.46	-1771.46	  381.15
     70.4700	  569.00	  569.33	-1754.33	  381.27
     70.5700	  589.00	  571.48	-1736.48	  381.39
     70.6700	  585.00	  575.29	-1744.29	  381.50
     70.7700	  548.00	  582.37	-1788.37	  381.62
     70.8700	  606.00	  591.98	-1739.98	  381.74
     70.9700	  605.00	  606.76	-1755.76	  381.85
     71.0700	  636.00	  629.22	-1747.22	  381.97
     71.1700	  645.00	  662.66	-1771.66	  382.08
     71.2700	  701.00	  711.09	-1764.09	  382.19
     71.3700	  728.00	  778.81	-1804.81	  382.31
     71.4700	  850.00	  869.60	-1773.60	  382.42
     71.5700	  924.00	  985.77	-1815.77	  382.53
     71.6700	 1071.00	 1126.83	-1809.83	  382.64
     71.7700	 1270.00	 1288.33	-1772.33	  382.75
     71.8700	 1443.00	 1461.02	-1772.02	  382.86
     71.9700	 1606.00	 1629.88	-1777.88	  382.97
     72.0700	 1738.00	 1774.38	-1790.38	  383.08
     72.1700	 1855.00	 1870.61	-1769.61	  383.19
     72.2700	 1786.00	 1898.42	-1866.42	  383.30
     72.3700	 1823.00	 1851.25	-1782.25	  383.40
     72.4700	 1740.00	 1740.02	-1754.02	  383.51
     72.5700	 1663.00	 1586.78	-1677.78	  383.61
     72.6700	 1388.00	 1415.02	-1781.02	  383.72
     72.7700	 1297.00	 1243.92	-1700.92	  383.82
     72.8700	 1060.00	 1086.78	-1780.78	  383.92
     72.9700	  987.00	  951.48	-1718.48	  384.03
     73.0700	  896.00	  841.20	-1699.20	  384.13
     73.1700	  822.00	  755.56	-1687.56	  384.23
     73.2700	  825.00	  691.81	-1620.81	  384.33
     73.3700	  670.00	  645.98	-1729.98	  384.43
     73.4700	  658.00	  613.87	-1709.87	  384.52
     73.5700	  662.00	  591.68	-1683.68	  384.62
     73.6700	  644.00	  576.38	-1686.38	  384.72
     73.7700	  572.00	  565.71	-1747.71	  384.81
     73.8700	  672.00	  557.60	-1639.60	  384.90
     73.9700	  592.00	  552.10	-1714.10	  385.00
     74.0700	  570.00	  548.06	-1732.06	  385.09
     74.1700	  574.00	  545.10	-1725.10	  385.18
     74.2700	  611.00	  542.96	-1685.96	  385.27
     74.3700	  532.00	  541.47	-1763.47	  385.36
     74.4700	  615.00	  540.46	-1679.46	  385.45
     74.5700	  588.00	  539.76	-1705.76	  385.54
     74.6700	  602.00	  539.19	-1691.19	  385.62
     74.7700	  594.00	  538.57	-1698.57	  385.71
     74.8700	  650.00	  537.75	-1641.75	  385.79
     74.9700	  648.00	  536.68	-1642.68	  385.87
     75.0700	  590.00	  535.42	-1699.42	  385.96
     75.1700	  612.00	  534.16	-1676.16	  386.04
     75.2700	  610.00	  533.14	-1677.14	  386.12
     75.3700	  570.00	  532.63	-1716.63	  386.20
     75.4700	  613.00	  532.93	-1673.93	  386.27
     75.5700	  555.00	  534.39	-1733.39	  386.35
     75.6700	  560.00	  537.42	-1731.42	  386.43
     75.7700	  547.00	  542.44	-1749.44	  386.50
     75.8700	  564.00	  549.81	-1739.81	  386.57
     75.9700	  598.00	  560.01	-1716.01	  386.65
     76.0700	  576.00	  573.16	-1751.16	  386.72
     76.1700	  594.00	  589.18	-1749.18	  386.79
     76.2700	  646.00	  607.61	-1715.61	  386.85
     76.3700	  632.00	  627.55	-1749.55	  386.92
     76.4700	  669.00	  647.49	-1732.49	  386.99
     76.5700	  684.00	  665.68	-1735.68	  387.05
     76.6700	  683.00	  679.64	-1750.64	  387.12
     76.7700	  708.00	  687.04	-1733.04	  387.18
     76.8700	  688.00	  686.39	-1752.39	  387.24
     76.9700	  647.00	  677.79	-1784.79	  387.30
     77.0700	  680.00	  662.82	-1736.82	  387.36
     77.1700	  626.00	  643.86	-1771.86	  387.41
     77.2700	  592.00	  623.24	-1785.24	  387.47
     77.3700	  596.00	  602.79	-1760.79	  387.52
     77.4700	  573.00	  583.95	-1764.95	  387.58
     77.5700	  609.00	  567.52	-1712.52	  387.63
     77.6700	  496.00	  553.87	-1811.87	  387.68
     77.7700	  552.00	  543.02	-1745.02	  387.73
     77.8700	  483.00	  534.74	-1805.74	  387.78
     77.9700	  539.00	  528.64	-1743.64	  387.82
     78.0700	  527.00	  524.05	-1751.05	  387.87
     78.1700	  466.00	  520.99	-1808.99	  387.91
     78.2700	  510.00	  518.88	-1762.88	  387.95
     78.3700	  554.00	  517.43	-1717.43	  388.00
     78.4700	  497.00	  516.43	-1773.43	  388.03
     78.5700	  552.00	  515.74	-1717.74	  388.07
     78.6700	  481.00	  515.27	-1788.27	  388.11
     78.7700	  498.00	  514.97	-1770.97	  388.14
     78.8700	  468.00	  514.81	-1800.81	  388.18
     78.9700	  548.00	  514.78	-1720.78	  388.21
     79.0700	  491.00	  514.89	-1777.89	  388.24
     79.1700	  490.00	  515.15	-1779.15	  388.27
     79.2700	  508.00	  515.58	-1761.58	  388.30
     79.3700	  514.00	  516.22	-1756.22	  388.32
     79.4700	  466.00	  517.11	-1805.11	  388.35
     79.5700	  540.00	  518.29	-1732.29	  388.37
     79.6700	  520.00	  519.82	-1753.82	  388.39
     79.7700	  491.00	  521.79	-1784.79	  388.41
     79.8700	  519.00	  524.27	-1759.27	  388.43
     79.9700	  537.00	  527.38	-1744.38	  388.45
     80.0700	  520.00	  531.26	-1765.26	  388.47
     80.1700	  522.00	  536.06	-1768.06	  388.48
     80.2700	  543.00	  541.95	-1752.95	  388.49
     80.3700	  514.00	  549.13	-1789.13	  388.50
     80.4700	  562.00	  557.79	-1749.79	  388.51
     80.5700	  555.00	  567.93	-1766.93	  388.52
     80.6700	  576.00	  580.05	-1758.05	  388.53
     80.7700	  566.00	  593.89	-1781.89	  388.53
     80.8700	  594.00	  609.14	-1769.14	  388.53
     80.9700	  629.00	  625.23	-1750.23	  388.53
     81.0700	  621.00	  641.30	-1774.30	  388.53
     81.1700	  699.00	  656.35	-1711.35	  388.53
     81.2700	  652.00	  669.41	-1771.41	  388.53
     81.3700	  707.00	  679.73	-1726.73	  388.52
     81.4700	  707.00	  686.83	-1733.83	  388.52
     81.5700	  711.00	  690.44	-1733.44	  388.51
     81.6700	  722.00	  690.53	-1722.53	  388.50
     81.7700	  691.00	  687.23	-1750.23	  388.48
     81.8700	  691.00	  680.76	-1743.76	  388.47
     81.9700	  749.00	  671.40	-1676.40	  388.46
     82.0700	  673.00	  659.59	-1740.59	  388.44
     82.1700	  683.00	  646.03	-1717.03	  388.42
     82.2700	  657.00	  631.58	-1728.58	  388.40
     82.3700	  637.00	  617.03	-1734.03	  388.38
     82.4700	  659.00	  602.96	-1697.96	  388.35
     82.5700	  585.00	  589.76	-1758.76	  388.33
     82.6700	  569.00	  577.69	-1762.69	  388.30
     82.7700	  551.00	  566.94	-1769.94	  388.27
     82.8700	  576.00	  557.70	-1735.70	  388.24
     82.9700	  570.00	  550.08	-1734.08	  388.21
     83.0700	  504.00	  544.16	-1794.16	  388.17
     83.1700	  543.00	  539.92	-1750.92	  388.14
     83.2700	  537.00	  537.33	-1754.33	  388.10
     83.3700	  536.00	  536.29	-1754.29	  388.06
     83.4700	  498.00	  536.66	-1792.66	  388.02
     83.5700	  498.00	  538.27	-1794.27	  387.97
     83.6700	  475.00	  540.88	-1819.88	  387.93
     83.7700	  498.00	  544.19	-1800.19	  387.88
     83.8700	  503.00	  547.76	-1798.76	  387.83
     83.9700	  526.00	  551.31	-1779.31	  387.78
     84.0700	  522.00	  554.24	-1786.24	  387.73
     84.1700	  570.00	  556.15	-1740.15	  387.68
     84.2700	  521.00	  556.61	-1789.61	  387.62
     84.3700	  543.00	  555.48	-1766.48	  387.56
     84.4700	  563.00	  552.86	-1743.86	  387.50
     84.5700	  569.00	  549.07	-1734.07	  387.44
     84.6700	  551.00	  544.55	-1747.55	  387.38
     84.7700	  556.00	  539.71	-1737.71	  387.32
     84.8700	  520.00	  534.88	-1768.88	  387.25
     84.9700	  520.00	  530.35	-1764.35	  387.18
     85.0700	  493.00	  526.28	-1787.28	  387.11
     85.1700	  563.00	  522.79	-1713.79	  387.04
     85.2700	  505.00	  519.93	-1768.93	  386.96
     85.3700	  511.00	  517.67	-1760.67	  386.89
     85.4700	  485.00	  515.97	-1784.97	  386.81
     85.5700	  483.00	  514.77	-1785.77	  386.73
     85.6700	  485.00	  513.99	-1782.99	  386.65
     85.7700	  520.00	  513.59	-1747.59	  386.57
     85.8700	  452.00	  513.54	-1815.54	  386.48
     85.9700	  513.00	  513.82	-1754.82	  386.39
     86.0700	  510.00	  514.46	-1758.46	  386.31
     86.1700	  521.00	  515.54	-1748.54	  386.21
     86.2700	  530.00	  517.15	-1741.15	  386.12
     86.3700	  526.00	  519.42	-1747.42	  386.03
     86.4700	  548.00	  522.50	-1728.50	  385.93
     86.5700	  550.00	  526.55	-1730.55	  385.83
     86.6700	  528.00	  531.74	-1757.74	  385.73
     86.7700	  541.00	  538.17	-1751.17	  385.63
     86.8700	  592.00	  545.90	-1707.90	  385.53
     86.9700	  561.00	  554.87	-1747.87	  385.42
     87.0700	  611.00	  564.93	-1707.93	  385.32
     87.1700	  546.00	  575.77	-1783.77	  385.21
     87.2700	  582.00	  586.91	-1758.91	  385.10
     87.3700	  631.00	  597.75	-1720.75	  384.98
     87.4700	  642.00	  607.50	-1719.50	  384.87
     87.5700	  566.00	  615.30	-1803.30	  384.75
     87.6700	  588.00	  620.31	-1786.31	  384.63
     87.7700	  622.00	  621.94	-1753.94	  384.51
     87.8700	  579.00	  620.05	-1795.05	  384.39
     87.9700	  565.00	  615.01	-1804.01	  384.27
     88.0700	  651.00	  607.58	-1710.58	  384.14
     88.1700	  631.00	  598.67	-1721.67	  384.01
     88.2700	  580.00	  589.22	-1763.22	  383.88
     88.3700	  607.00	  580.03	-1727.03	  383.75
     88.4700	  564.00	  571.38	-1761.38	  383.62
     88.5700	  560.00	  564.60	-1758.60	  383.48
     88.6700	  556.00	  559.60	-1757.60	  383.35
     88.7700	  537.00	  556.57	-1773.57	  383.21
     88.8700	  540.00	  555.51	-1769.51	  383.07
     88.9700	  553.00	  556.27	-1757.27	  382.92
     89.0700	  565.00	  558.57	-1747.57	  382.78
     89.1700	  567.00	  562.02	-1749.02	  382.63
     89.2700	  610.00	  566.13	-1710.13	  382.49
     89.3700	  577.00	  570.33	-1747.33	  382.34
     89.4700	  575.00	  574.03	-1753.03	  382.18
     89.5700	  556.00	  576.62	-1774.62	  382.03
     89.6700	  630.00	  577.62	-1701.62	  381.88
     89.7700	  593.00	  576.76	-1737.76	  381.72
     89.8700	  545.00	  574.06	-1783.06	  381.56
     89.9700	  565.00	  569.78	-1758.78	  381.40
     90.0700	  549.00	  564.35	-1769.35	  381.24
     90.1700	  531.00	  558.24	-1781.24	  381.07
     90.2700	  552.00	  551.89	-1753.89	  380.91
     90.3700	  541.00	  545.66	-1758.66	  380.74
     90.4700	  493.00	  539.82	-1800.82	  380.57
     90.5700	  505.00	  534.59	-1783.59	  380.40
     90.6700	  519.00	  530.07	-1765.07	  380.22
     90.7700	  508.00	  526.32	-1772.32	  380.05
     90.8700	  480.00	  523.35	-1797.35	  379.87
     90.9700	  524.00	  521.11	-1751.11	  379.69
     91.0700	  511.00	  519.55	-1762.55	  379.51
     91.1700	  495.00	  518.59	-1777.59	  379.33
     91.2700	  449.00	  518.18	-1823.18	  379.15
     91.3700	  516.00	  518.28	-1756.28	  378.96
     91.4700	  498.00	  518.88	-1774.88	  378.77
     91.5700	  502.00	  520.01	-1772.01	  378.59
     91.6700	  520.00	  521.74	-1755.74	  378.39
     91.7700	  538.00	  524.17	-1740.17	  378.20
     91.8700	  525.00	  527.44	-1756.44	  378.01
     91.9700	  480.00	  531.72	-1805.72	  377.81
     92.0700	  514.00	  537.20	-1777.20	  377.61
     92.1700	  535.00	  544.08	-1763.08	  377.42
     92.2700	  524.00	  552.54	-1782.54	  377.21
     92.3700	  524.00	  562.72	-1792.72	  377.01
     92.4700	  556.00	  574.71	-1772.71	  376.81
     92.5700	  585.00	  588.52	-1757.52	  376.60
     92.6700	  528.00	  604.05	-1830.05	  376.39
     92.7700	  612.00	  621.09	-1763.09	  376.19
     92.8700	  594.00	  639.28	-1799.28	  375.97
     92.9700	  717.00	  658.15	-1695.15	  375.76
     93.0700	  670.00	  677.07	-1761.07	  375.55
     93.1700	  687.00	  695.30	-1762.30	  375.33
     93.2700	  676.00	  712.13	-1790.13	  375.12
     93.3700	  751.00	  726.97	-1729.97	  374.90
     93.4700	  758.00	  739.56	-1735.56	  374.68
     93.5700	  724.00	  750.04	-1780.04	  374.45
     93.6700	  772.00	  758.86	-1740.86	  374.23
     93.7700	  744.00	  766.34	-1776.34	  374.01
     93.8700	  756.00	  773.64	-1771.64	  373.78
     93.9700	  827.00	  780.91	-1707.91	  373.55
     94.0700	  861.00	  788.46	-1681.46	  373.32
     94.1700	  809.00	  796.54	-1741.54	  373.09
     94.2700	  871.00	  805.46	-1688.46	  372.86
     94.3700	  883.00	  815.45	-1686.45	  372.62
     94.4700	  869.00	  826.67	-1711.67	  372.39
     94.5700	  845.00	  838.98	-1747.98	  372.15
     94.6700	  871.00	  851.86	-1734.86	  371.91
     94.7700	  841.00	  864.41	-1777.41	  371.67
     94.8700	  845.00	  875.35	-1784.35	  371.43
     94.9700	  934.00	  883.16	-1703.16	  371.19
     95.0700	  875.00	  886.30	-1765.30	  370.95
     95.1700	  892.00	  883.60	-1745.60	  370.70
     95.2700	  854.00	  874.53	-1774.53	  370.45
     95.3700	  854.00	  859.42	-1759.42	  370.21
     95.4700	  837.00	  839.36	-1756.36	  369.96
     95.5700	  857.00	  815.94	-1712.94	  369.71
     95.6700	  778.00	  790.94	-1766.94	  369.45
     95.7700	  783.00	  766.12	-1737.12	  369.20
     95.8700	  686.00	  743.16	-1811.16	  368.94
     95.9700	  715.00	  723.56	-1762.56	  368.69
     96.0700	  702.00	  708.71	-1760.71	  368.43
     96.1700	  703.00	  699.78	-1750.78	  368.17
     96.2700	  655.00	  697.82	-1796.82	  367.91
     96.3700	  687.00	  703.72	-1770.72	  367.65
     96.4700	  735.00	  718.17	-1737.17	  367.39
     96.5700	  757.00	  741.68	-1738.68	  367.13
     96.6700	  790.00	  774.49	-1738.49	  366.86
     96.7700	  863.00	  816.57	-1707.57	  366.60
     96.8700	  862.00	  867.51	-1759.51	  366.33
     96.9700	  915.00	  926.46	-1765.46	  366.06
     97.0700	  958.00	  992.11	-1788.11	  365.79
     97.1700	 1117.00	 1062.59	-1699.59	  365.52
     97.2700	 1140.00	 1135.47	-1749.47	  365.25
     97.3700	 1147.00	 1207.70	-1814.70	  364.98
     97.4700	 1299.00	 1275.71	-1730.71	  364.71
     97.5700	 1294.00	 1335.53	-1795.53	  364.43
     97.6700	 1365.00	 1383.09	-1772.09	  364.16
     97.7700	 1400.00	 1414.75	-1768.75	  363.88
     97.8700	 1388.00	 1428.02	-1794.02	  363.60
     97.9700	 1345.00	 1422.11	-1831.11	  363.32
     98.0700	 1406.00	 1398.10	-1746.10	  363.04
     98.1700	 1301.00	 1358.60	-1811.60	  362.76
     98.2700	 1298.00	 1307.19	-1763.19	  362.48
     98.3700	 1250.00	 1247.79	-1751.79	  362.20
     98.4700	 1113.00	 1184.26	-1825.26	  361.92
     98.5700	 1091.00	 1120.15	-1783.15	  361.63
     98.6700	 1037.00	 1058.58	-1775.58	  361.35
     98.7700	 1015.00	 1002.23	-1741.23	  361.06
     98.8700	  950.00	  953.30	-1757.30	  360.78
     98.9700	  926.00	  913.59	-1741.59	  360.49
     99.0700	  845.00	  884.49	-1793.49	  360.20
     99.1700	  811.00	  867.08	-1810.08	  359.92
     99.2700	  864.00	  862.12	-1752.12	  359.63
     99.3700	  853.00	  870.11	-1771.11	  359.34
     99.4700	  844.00	  891.26	-1801.26	  359.05
     99.5700	  883.00	  925.53	-1796.53	  358.76
     99.6700	  948.00	  972.63	-1778.63	  358.46
     99.7700	 1074.00	 1031.99	-1711.99	  358.17
     99.8700	 1079.00	 1102.65	-1777.65	  357.88
     99.9700	 1117.00	 1183.24	-1820.24	  357.59
    100.0700	 1281.00	 1272.01	-1745.01	  357.29
    100.1700	 1414.00	 1366.62	-1706.62	  357.00
    100.2700	 1526.00	 1464.19	-1692.19	  356.70
    100.3700	 1535.00	 1561.32	-1780.32	  356.41
    100.4700	 1655.00	 1654.30	-1753.30	  356.11
    100.5700	 1733.00	 1739.47	-1760.47	  355.81
    100.6700	 1747.00	 1813.61	-1820.61	  355.52
    100.7700	 1852.00	 1874.24	-1776.24	  355.22
    100.8700	 1974.00	 1919.73	-1699.73	  354.92
    100.9700	 1934.00	 1949.10	-1769.10	  354.63
    101.0700	 1938.00	 1961.74	-1777.74	  354.33
    101.1700	 1966.00	 1957.25	-1745.25	  354.03
    101.2700	 1966.00	 1935.56	-1723.56	  353.73
    101.3700	 1979.00	 1897.36	-1672.36	  353.43
    101.4700	 1834.00	 1844.41	-1764.41	  353.13
    101.5700	 1801.00	 1779.66	-1732.66	  352.84
    101.6700	 1663.00	 1706.90	-1797.90	  352.54
    101.7700	 1663.00	 1630.28	-1721.28	  352.24
    101.8700	 1604.00	 1553.79	-1703.79	  351.94
    101.9700	 1499.00	 1480.80	-1735.80	  351.64
    102.0700	 1433.00	 1413.88	-1734.88	  351.34
    102.1700	 1356.00	 1354.74	-1752.74	  351.04
    102.2700	 1261.00	 1304.19	-1797.19	  350.74
    102.3700	 1246.00	 1262.24	-1770.24	  350.44
    102.4700	 1262.00	 1228.17	-1720.17	  350.14
    102.5700	 1160.00	 1200.57	-1794.57	  349.84
    102.6700	 1150.00	 1177.51	-1781.51	  349.54
    102.7700	 1159.00	 1156.75	-1751.75	  349.24
    102.8700	 1099.00	 1135.98	-1790.98	  348.94
    102.9700	 1145.00	 1113.16	-1722.16	  348.65
    103.0700	 1087.00	 1086.79	-1753.79	  348.35
    103.1700	 1033.00	 1056.14	-1777.14	  348.05
    103.2700	  994.00	 1021.26	-1781.26	  347.75
    103.3700	  959.00	  982.78	-1777.78	  347.45
    103.4700	  877.00	  941.73	-1818.73	  347.16
    103.5700	  879.00	  899.27	-1774.27	  346.86
    103.6700	  962.00	  856.56	-1648.56	  346.56
    103.7700	  825.00	  814.66	-1743.66	  346.27
    103.8700	  803.00	  774.50	-1725.50	  345.97
    103.9700	  797.00	  736.84	-1693.84	  345.68
    104.0700	  706.00	  702.24	-1750.24	  345.38
    104.1700	  701.00	  671.07	-1724.07	  345.09
    104.2700	  650.00	  643.54	-1747.54	  344.80
    104.3700	  659.00	  619.68	-1714.68	  344.50
    104.4700	  625.00	  599.40	-1728.40	  344.21
    104.5700	  607.00	  582.49	-1729.49	  343.92
    104.6700	  591.00	  568.65	-1731.65	  343.63
    104.7700	  576.00	  557.56	-1735.56	  343.34
    104.8700	  567.00	  548.88	-1735.88	  343.05
    104.9700	  548.00	  542.26	-1748.26	  342.76
    105.0700	  534.00	  537.39	-1757.39	  342.48
    105.1700	  529.00	  533.99	-1758.99	  342.19
    105.2700	  523.00	  531.82	-1762.82	  341.91
    105.3700	  540.00	  530.68	-1744.68	  341.62
    105.4700	  556.00	  530.42	-1728.42	  341.34
    105.5700	  526.00	  530.93	-1758.93	  341.06
    105.6700	  553.00	  532.13	-1733.13	  340.77
    105.7700	  528.00	  533.97	-1759.97	  340.49
    105.8700	  582.00	  536.42	-1708.42	  340.22
    105.9700	  525.00	  539.53	-1768.53	  339.94
    106.0700	  534.00	  543.30	-1763.30	  339.66
    106.1700	  576.00	  547.80	-1725.80	  339.39
    106.2700	  559.00	  553.07	-1748.07	  339.11
    106.3700	  564.00	  559.14	-1749.14	  338.84
    106.4700	  551.00	  566.05	-1769.05	  338.57
    106.5700	  597.00	  573.78	-1730.78	  338.30
    106.6700	  582.00	  582.25	-1754.25	  338.03
    106.7700	  626.00	  591.35	-1719.35	  337.76
    106.8700	  611.00	  600.91	-1743.91	  337.50
    106.9700	  631.00	  610.73	-1733.73	  337.23
    107.0700	  627.00	  620.53	-1747.53	  336.97
    107.1700	  600.00	  629.98	-1783.98	  336.71
    107.2700	  671.00	  638.80	-1721.80	  336.45
    107.3700	  630.00	  646.62	-1770.62	  336.20
    107.4700	  642.00	  653.15	-1765.15	  335.94
    107.5700	  652.00	  658.17	-1760.17	  335.69
    107.6700	  657.00	  661.58	-1758.58	  335.43
    107.7700	  676.00	  663.47	-1741.47	  335.18
    107.8700	  623.00	  664.04	-1795.04	  334.94
    107.9700	  659.00	  663.62	-1758.62	  334.69
    108.0700	  681.00	  662.62	-1735.62	  334.45
    108.1700	  670.00	  661.41	-1745.41	  334.20
    108.2700	  649.00	  660.37	-1765.37	  333.97
    108.3700	  672.00	  659.75	-1741.75	  333.73
    108.4700	  665.00	  659.77	-1748.77	  333.49
    108.5700	  650.00	  660.51	-1764.51	  333.26
    108.6700	  701.00	  661.96	-1714.96	  333.03
    108.7700	  676.00	  664.01	-1742.01	  332.80
    108.8700	  656.00	  666.45	-1764.45	  332.57
    108.9700	  680.00	  668.98	-1742.98	  332.35
    109.0700	  669.00	  671.23	-1756.23	  332.13
    109.1700	  670.00	  672.78	-1756.78	  331.91
    109.2700	  673.00	  673.23	-1754.23	  331.69
    109.3700	  740.00	  672.23	-1686.23	  331.48
    109.4700	  638.00	  669.53	-1785.53	  331.27
    109.5700	  669.00	  665.03	-1750.03	  331.06
    109.6700	  684.00	  658.79	-1728.79	  330.85
    109.7700	  682.00	  651.00	-1723.00	  330.65
    109.8700	  656.00	  641.93	-1739.93	  330.45
    109.9700	  612.00	  631.94	-1773.94	  330.25
    110.0700	  642.00	  621.35	-1733.35	  330.05
    110.1700	  624.00	  610.52	-1740.52	  329.86
    110.2700	  620.00	  599.74	-1733.74	  329.67
    110.3700	  554.00	  589.30	-1789.30	  329.49
    110.4700	  601.00	  579.41	-1732.41	  329.31
    110.5700	  637.00	  570.26	-1687.26	  329.13
    110.6700	  579.00	  561.98	-1736.98	  328.95
    110.7700	  540.00	  554.66	-1768.66	  328.78
    110.8700	  553.00	  548.36	-1749.36	  328.61
    110.9700	  560.00	  543.09	-1737.09	  328.44
    111.0700	  563.00	  538.84	-1729.84	  328.28
    111.1700	  554.00	  535.55	-1735.55	  328.12
    111.2700	  553.00	  533.17	-1734.17	  327.96
    111.3700	  570.00	  531.61	-1715.61	  327.81
    111.4700	  545.00	  530.81	-1739.81	  327.66
    111.5700	  549.00	  530.66	-1735.66	  327.51
    111.6700	  545.00	  531.09	-1740.09	  327.37
    111.7700	  501.00	  532.01	-1785.01	  327.23
    111.8700	  524.00	  533.36	-1763.36	  327.10
    111.9700	  540.00	  535.07	-1749.07	  326.97
    112.0700	  488.00	  537.09	-1803.09	  326.84
    112.1700	  519.00	  539.37	-1774.37	  326.72
    112.2700	  522.00	  541.89	-1773.90	  326.60
    112.3700	  589.00	  544.64	-1709.64	  326.49
    112.4700	  519.00	  547.61	-1782.61	  326.37
    112.5700	  557.00	  550.82	-1747.82	  326.27
    112.6700	  549.00	  554.29	-1759.29	  326.17
    112.7700	  518.00	  558.06	-1794.06	  326.07
    112.8700	  576.00	  562.19	-1740.19	  325.97
    112.9700	  510.00	  566.74	-1810.74	  325.89
    113.0700	  584.00	  571.81	-1741.81	  325.80
    113.1700	  535.00	  577.49	-1796.49	  325.72
    113.2700	  574.00	  583.93	-1763.93	  325.64
    113.3700	  554.00	  591.31	-1791.31	  325.57
    113.4700	  582.00	  599.83	-1771.83	  325.51
    113.5700	  631.00	  609.79	-1732.79	  325.45
    113.6700	  624.00	  621.55	-1751.55	  325.39
    113.7700	  676.00	  635.54	-1713.54	  325.34
    113.8700	  694.00	  652.34	-1712.33	  325.29
    113.9700	  711.00	  672.60	-1715.60	  325.25
    114.0700	  693.00	  697.19	-1758.19	  325.21
    114.1700	  709.00	  727.09	-1772.09	  325.18
    114.2700	  773.00	  763.48	-1744.48	  325.15
    114.3700	  810.00	  807.75	-1751.75	  325.13
    114.4700	  859.00	  861.46	-1756.46	  325.11
    114.5700	  954.00	  926.36	-1726.36	  325.10
    114.6700	 1042.00	 1004.41	-1716.41	  325.09
    114.7700	 1158.00	 1097.65	-1693.65	  325.09
    114.8700	 1272.00	 1208.24	-1690.24	  325.10
    114.9700	 1397.00	 1338.30	-1695.30	  325.11
    115.0700	 1638.00	 1489.92	-1605.92	  325.12
    115.1700	 1761.00	 1665.02	-1658.02	  325.15
    115.2700	 1986.00	 1865.16	-1633.16	  325.17
    115.3700	 2185.00	 2091.47	-1660.47	  325.21
    115.4700	 2359.00	 2344.46	-1739.46	  325.25
    115.5700	 2758.00	 2624.03	-1620.03	  325.29
    115.6700	 2961.00	 2929.23	-1722.23	  325.34
    115.7700	 3326.00	 3258.06	-1686.06	  325.40
    115.8700	 3606.00	 3607.55	-1755.55	  325.46
    115.9700	 3897.00	 3973.56	-1830.56	  325.53
    116.0700	 4290.00	 4350.95	-1814.95	  325.61
    116.1700	 4632.00	 4733.47	-1855.47	  325.69
    116.2700	 5042.00	 5113.62	-1825.62	  325.78
    116.3700	 5452.00	 5482.97	-1784.97	  325.87
    116.4700	 5820.00	 5832.11	-1766.11	  325.97
    116.5700	 6146.00	 6151.09	-1759.09	  326.08
    116.6700	 6227.00	 6429.65	-1956.65	  326.19
    116.7700	 6482.00	 6657.70	-1929.70	  326.32
    116.8700	 6768.00	 6826.21	-1812.21	  326.44
    116.9700	 6751.00	 6928.01	-1931.01	  326.58
    117.0700	 6948.00	 6958.67	-1764.67	  326.72
    117.1700	 7016.00	 6917.01	-1655.01	  326.87
    117.2700	 6784.00	 6805.26	-1775.26	  327.02
    117.3700	 6500.00	 6628.80	-1882.80	  327.19
    117.4700	 6408.00	 6395.50	-1741.50	  327.36
    117.5700	 6081.00	 6114.72	-1787.72	  327.53
    117.6700	 5686.00	 5796.53	-1864.53	  327.72
    117.7700	 5442.00	 5451.15	-1763.15	  327.91
    117.8700	 5086.00	 5088.32	-1756.32	  328.11
    117.9700	 4712.00	 4717.03	-1759.03	  328.32
    118.0700	 4339.00	 4345.22	-1760.22	  328.53
    118.1700	 4206.00	 3979.74	-1527.74	  328.75
    118.2700	 3771.00	 3626.41	-1609.41	  328.98
    118.3700	 3419.00	 3289.91	-1624.91	  329.22
    118.4700	 3018.00	 2973.82	-1709.82	  329.47
    118.5700	 2755.00	 2680.57	-1679.57	  329.72
    118.6700	 2414.00	 2411.66	-1751.66	  329.98
    118.7700	 2206.00	 2167.80	-1715.80	  330.25
    118.8700	 1903.00	 1948.93	-1799.93	  330.53
    118.9700	 1684.00	 1754.43	-1824.43	  330.82
    119.0700	 1551.00	 1583.11	-1786.11	  331.11
    119.1700	 1488.00	 1433.46	-1699.46	  331.41
    119.2700	 1265.00	 1303.75	-1792.75	  331.73
    119.3700	 1235.00	 1192.10	-1711.10	  332.05
    119.4700	 1128.00	 1096.57	-1722.57	  332.37
    119.5700	 1076.00	 1015.22	-1693.22	  332.71
    119.6700	  943.00	  946.23	-1757.23	  333.06
    119.7700	  895.00	  887.88	-1746.88	  333.41
    119.8700	  848.00	  838.63	-1744.63	  333.78
    119.9700	  797.00	  797.10	-1754.10	  334.15
    120.0700	  752.00	  762.07	-1764.07	  334.53
    120.1700	  753.00	  732.50	-1733.50	  334.92
    120.2700	  738.00	  707.51	-1723.51	  335.32
    120.3700	  661.00	  686.36	-1779.36	  335.73
    120.4700	  640.00	  668.45	-1782.45	  336.15
    120.5700	  655.00	  653.27	-1752.27	  336.58
    120.6700	  614.00	  640.40	-1780.40	  337.02
    120.7700	  568.00	  629.52	-1815.52	  337.47
    120.8700	  548.00	  620.34	-1826.34	  337.93
    120.9700	  552.00	  612.67	-1814.67	  338.39
    121.0700	  585.00	  606.31	-1775.31	  338.87
    121.1700	  590.00	  601.12	-1765.12	  339.36
    121.2700	  544.00	  596.99	-1806.99	  339.86
    121.3700	  564.00	  593.82	-1783.82	  340.36
    121.4700	  578.00	  591.52	-1767.52	  340.88
    121.5700	  576.00	  590.03	-1768.03	  341.41
    121.6700	  562.00	  589.27	-1781.27	  341.95
    121.7700	  574.00	  589.19	-1769.19	  342.50
    121.8700	  553.00	  589.73	-1790.73	  343.06
    121.9700	  581.00	  590.83	-1763.83	  343.63
    122.0700	  578.00	  592.43	-1768.43	  344.21
    122.1700	  610.00	  594.46	-1738.46	  344.80
    122.2700	  575.00	  596.85	-1775.85	  345.40
    122.3700	  581.00	  599.54	-1772.54	  346.02
    122.4700	  618.00	  602.44	-1738.44	  346.64
    122.5700	  640.00	  605.46	-1719.46	  347.28
    122.6700	  646.00	  608.51	-1716.51	  347.92
    122.7700	  599.00	  611.51	-1766.51	  348.58
    122.8700	  629.00	  614.35	-1739.35	  349.25
    122.9700	  618.00	  616.93	-1752.93	  349.93
    123.0700	  627.00	  619.17	-1746.17	  350.63
    123.1700	  655.00	  620.99	-1719.99	  351.33
    123.2700	  624.00	  622.33	-1752.33	  352.05
    123.3700	  643.00	  623.14	-1734.14	  352.78
    123.4700	  637.00	  623.40	-1740.40	  353.52
    123.5700	  582.00	  623.13	-1795.13	  354.27
    123.6700	  667.00	  622.34	-1709.34	  355.04
    123.7700	  634.00	  621.05	-1741.05	  355.81
    123.8700	  650.00	  619.37	-1723.37	  356.60
    123.9700	  649.00	  617.34	-1722.34	  357.40
    124.0700	  618.00	  615.01	-1751.01	  358.22
    124.1700	  580.00	  612.46	-1786.46	  359.04
    124.2700	  589.00	  609.75	-1774.75	  359.88
    124.3700	  639.00	  606.94	-1721.94	  360.74
    124.4700	  614.00	  604.08	-1744.08	  361.60
    124.5700	  596.00	  601.24	-1759.24	  362.48
    124.6700	  576.00	  598.45	-1776.45	  363.37
    124.7700	  612.00	  595.75	-1737.75	  364.27
    124.8700	  598.00	  593.19	-1749.19	  365.19
    124.9700	  550.00	  474.49	-1678.49	  366.12
    125.0700	  581.00	  475.43	-1754.00	  367.07
    125.1700	  580.00	  476.39	-1754.00	  368.02
    125.2700	  569.00	  477.36	-1754.00	  369.00
    125.3700	  537.00	  478.35	-1754.00	  369.98
    125.4700	  577.00	  479.34	-1754.00	  370.98
    125.5700	  549.00	  480.36	-1754.00	  371.99
    125.6700	  572.00	  481.38	-1754.00	  373.02
    125.7700	  561.00	  482.43	-1754.00	  374.06
    125.8700	  557.00	  483.48	-1754.00	  375.12
    125.9700	  515.00	  484.55	-1754.00	  376.19
    126.0700	  552.00	  485.63	-1754.00	  377.27
    126.1700	  607.00	  486.73	-1754.00	  378.37
    126.2700	  582.00	  487.85	-1754.00	  379.48
    126.3700	  580.00	  488.98	-1754.00	  380.61
    126.4700	  574.00	  490.12	-1754.00	  381.75
    126.5700	  535.00	  491.28	-1754.00	  382.91
    126.6700	  534.00	  492.45	-1754.00	  384.08
    126.7700	  553.00	  493.64	-1754.00	  385.27
    126.8700	  567.00	  494.84	-1754.00	  386.48
    126.9700	  585.00	  496.06	-1754.00	  387.69
    127.0700	  571.00	  497.29	-1754.00	  388.93
    127.1700	  594.00	  498.54	-1754.00	  390.18
    127.2700	  591.00	  499.81	-1754.00	  391.44
    127.3700	  564.00	  501.09	-1754.00	  392.72
    127.4700	  570.00	  502.38	-1754.00	  394.02
    127.5700	  597.00	  503.70	-1754.00	  395.33
    127.6700	  569.00	  505.03	-1754.00	  396.66
    127.7700	  555.00	  506.37	-1754.00	  398.01
    127.8700	  602.00	  507.73	-1754.00	  399.37
    127.9700	  599.00	  509.11	-1754.00	  400.75
    128.0700	  674.00	  510.51	-1754.00	  402.14
    128.1700	  664.00	  511.92	-1754.00	  403.55
    128.2700	  714.00	  513.34	-1754.00	  404.98
    128.3700	  692.00	  514.79	-1754.00	  406.42
    128.4700	  671.00	  516.25	-1754.00	  407.88
    128.5700	    0.00	  517.73	-1754.00	  409.36
    128.6700	    0.00	  519.22	-1754.00	  410.86
     12.3429	        	        	        	        	       0	(  0  0  2)	  0  1
     24.9615	        	        	        	        	       0	(  0  0  4)	  0  1
     28.3960	        	        	        	        	       0	(  1  0  0)	  0  1
     29.0956	        	        	        	        	       0	(  1  0  1)	  0  1
     31.1087	        	        	        	        	       0	(  1  0  2)	  0  1
     34.2275	        	        	        	        	       0	(  1  0  3)	  0  1
     37.8988	        	        	        	        	       0	(  0  0  6)	  0  1
     38.2179	        	        	        	        	       0	(  1  0  4)	  0  1
     42.8837	        	        	        	        	       0	(  1  0  5)	  0  1
     48.0853	        	        	        	        	       0	(  1  0  6)	  0  1
     50.3861	        	        	        	        	       0	(  1  1  0)	  0  1
     51.3631	        	        	        	        	       0	(  0  0  8)	  0  1
     52.1157	        	        	        	        	       0	(  1  1  2)	  0  1
     53.7354	        	        	        	        	       0	(  1  0  7)	  0  1
     57.0825	        	        	        	        	       0	(  1  1  4)	  0  1
     58.9062	        	        	        	        	       0	(  2  0  0)	  0  1
     59.2994	        	        	        	        	       0	(  2  0  1)	  0  1
     59.7876	        	        	        	        	       0	(  1  0  8)	  0  1
     60.4694	        	        	        	        	       0	(  2  0  2)	  0  1
     62.3904	        	        	        	        	       0	(  2  0  3)	  0  1
     64.8076	        	        	        	        	       0	(  1  1  6)	  0  1
     65.0252	        	        	        	        	       0	(  2  0  4)	  0  1
     65.6430	        	        	        	        	       0	(  0  0 10)	  0  1
     66.2284	        	        	        	        	       0	(  1  0  9)	  0  1
     68.3332	        	        	        	        	       0	(  2  0  5)	  0  1
     72.2776	        	        	        	        	       0	(  2  0  6)	  0  1
     73.0724	        	        	        	        	       0	(  1  0 10)	  0  1
     74.8876	        	        	        	        	       0	(  1  1  8)	  0  1
     76.8319	        	        	        	        	       0	(  2  0  7)	  0  1
     80.3623	        	        	        	        	       0	(  1  0 11)	  0  1
     81.1887	        	        	        	        	       0	(  0  0 12)	  0  1
     81.2191	        	        	        	        	       0	(  2  1  0)	  0  1
     81.5606	        	        	        	        	       0	(  2  1  1)	  0  1
     81.9863	        	        	        	        	       0	(  2  0  8)	  0  1
     82.5835	        	        	        	        	       0	(  2  1  2)	  0  1
     84.2833	        	        	        	        	       0	(  2  1  3)	  0  1
     86.6550	        	        	        	        	       0	(  2  1  4)	  0  1
     87.2177	        	        	        	        	       0	(  1  1 10)	  0  1
     87.7533	        	        	        	        	       0	(  2  0  9)	  0  1
     88.1750	        	        	        	        	       0	(  1  0 12)	  0  1
     89.6969	        	        	        	        	       0	(  2  1  5)	  0  1
     93.4149	        	        	        	        	       0	(  2  1  6)	  0  1
     94.1759	        	        	        	        	       0	(  2  0 10)	  0  1
     95.1660	        	        	        	        	       0	(  3  0  0)	  0  1
     95.5053	        	        	        	        	       0	(  3  0  1)	  0  1
     96.5246	        	        	        	        	       0	(  3  0  2)	  0  1
     96.6358	        	        	        	        	       0	(  1  0 13)	  0  1
     97.8295	        	        	        	        	       0	(  2  1  7)	  0  1
     98.2282	        	        	        	        	       0	(  3  0  3)	  0  1
     98.8237	        	        	        	        	       0	(  0  0 14)	  0  1
    100.6262	        	        	        	        	       0	(  3  0  4)	  0  1
    101.3420	        	        	        	        	       0	(  2  0 11)	  0  1
    102.1760	        	        	        	        	       0	(  1  1 12)	  0  1
    102.9851	        	        	        	        	       0	(  2  1  8)	  0  1
    103.7383	        	        	        	        	       0	(  3  0  5)	  0  1
    105.9507	        	        	        	        	       0	(  1  0 14)	  0  1
    107.6005	        	        	        	        	       0	(  3  0  6)	  0  1
    108.9647	        	        	        	        	       0	(  2  1  9)	  0  1
    109.4113	        	        	        	        	       0	(  2  0 12)	  0  1
    112.2769	        	        	        	        	       0	(  3  0  7)	  0  1
    115.9193	        	        	        	        	       0	(  2  1 10)	  0  1
    116.4828	        	        	        	        	       0	(  1  0 15)	  0  1
    117.0226	        	        	        	        	       0	(  2  2  0)	  0  1
    117.8792	        	        	        	        	       0	(  3  0  8)	  0  1
    118.5517	        	        	        	        	       0	(  2  2  2)	  0  1
    118.6777	        	        	        	        	       0	(  2  0 13)	  0  1
    120.4916	        	        	        	        	       0	(  0  0 16)	  0  1
    121.1819	        	        	        	        	       0	(  1  1 14)	  0  1
    123.2842	        	        	        	        	       0	(  2  2  4)	  0  1
    124.1298	        	        	        	        	       0	(  2  1 11)	  0  1
    124.6086	        	        	        	        	       0	(  3  0  9)	  0  1
    125.1598	        	        	        	        	       0	(  3  1  0)	  0  1
    125.5747	        	        	        	        	       0	(  3  1  1)	  0  1
    126.8326	        	        	        	        	       0	(  3  1  2)	  0  1
    128.9770	        	        	        	        	       0	(  3  1  3)	  0  1
    128.9729	        	        	        	        	       0	(  1  0 16)	  0  1
    129.7398	        	        	        	        	       0	(  2  0 14)	  0  1
    131.8286	        	        	        	        	       0	(  2  2  6)	  0  1
    132.0945	        	        	        	        	       0	(  3  1  4)	  0  1
    132.8579	        	        	        	        	       0	(  3  0 10)	  0  1
    134.1798	        	        	        	        	       0	(  2  1 12)	  0  1
    136.3466	        	        	        	        	       0	(  3  1  5)	  0  1
    142.0498	        	        	        	        	       0	(  3  1  6)	  0  1
    143.5421	        	        	        	        	       0	(  3  0 11)	  0  1
    144.1621	        	        	        	        	       0	(  2  0 15)	  0  1
    145.4842	        	        	        	        	       0	(  1  0 17)	  0  1
    146.3460	        	        	        	        	       0	(  2  2  8)	  0  1
    147.6399	        	        	        	        	       0	(  2  1 13)	  0  1
    149.9327	        	        	        	        	       0	(  3  1  7)	  0  1
    150.7266	        	        	        	        	       0	(  1  1 16)	  0  1
    155.4072	        	        	        	        	       0	(  0  0 18)	  0  1
    160.1271	        	        	        	        	       0	(  3  0 12)	  0  1
    160.2161	        	        	        	        	       0	(  4  0  0)	  0  1
    161.2461	        	        	        	        	       0	(  4  0  1)	  0  1
    162.6140	        	        	        	        	       0	(  3  1  8)	  0  1
    164.7359	        	        	        	        	       0	(  4  0  2)	  0  1
    174.0140	        	        	        	        	       0	(  4  0  3)	  0  1
    173.9830	        	        	        	        	       0	(  2  0 16)	  0  1
