MSG Master    CELL:    5.91939   5.91939  23.27211   90.0000   90.0000  120.0000   SPGR: P 63/m m c             TEMP:   1074.85
  1   1280     2.52000     0.00000    -0.12280     0.00000     0.00000    0
    99     0     2
       0.00000      10.00000
     125.00000     130.00000
 2Theta	Yobs	Ycal	Yobs-Ycal	Backg	Posr	(hkl)	K
      0.7700	    0.00	  519.15	-1766.00	  402.70
      0.8700	    1.00	  520.23	-1766.00	  403.78
      0.9700	   38.00	  521.29	-1766.00	  404.84
      1.0700	   42.00	  522.34	-1766.00	  405.89
      1.1700	   49.00	  523.37	-1766.00	  406.92
      1.2700	   51.00	  524.39	-1766.00	  407.94
      1.3700	   39.00	  525.40	-1766.00	  408.95
      1.4700	   94.00	  526.39	-1766.00	  409.94
      1.5700	  292.00	  527.37	-1766.00	  410.92
      1.6700	  429.00	  528.34	-1766.00	  411.89
      1.7700	  600.00	  529.29	-1766.00	  412.84
      1.8700	  630.00	  530.23	-1766.00	  413.78
      1.9700	  749.00	  531.16	-1766.00	  414.71
      2.0700	  761.00	  532.07	-1766.00	  415.62
      2.1700	  805.00	  532.97	-1766.00	  416.52
      2.2700	  775.00	  533.86	-1766.00	  417.41
      2.3700	  719.00	  534.74	-1766.00	  418.29
      2.4700	  724.00	  535.60	-1766.00	  419.15
      2.5700	  725.00	  536.45	-1766.00	  420.00
      2.6700	  679.00	  537.29	-1766.00	  420.84
      2.7700	  664.00	  538.11	-1766.00	  421.66
      2.8700	  612.00	  538.93	-1766.00	  422.48
      2.9700	  589.00	  539.73	-1766.00	  423.28
      3.0700	  594.00	  540.52	-1766.00	  424.07
      3.1700	  609.00	  541.29	-1766.00	  424.84
      3.2700	  602.00	  542.06	-1766.00	  425.61
      3.3700	  658.00	  542.81	-1766.00	  426.36
      3.4700	  726.00	  543.55	-1766.00	  427.10
      3.5700	  800.00	  544.28	-1766.00	  427.83
      3.6700	  847.00	  545.00	-1766.00	  428.55
      3.7700	  907.00	  545.70	-1766.00	  429.25
      3.8700	  950.00	  546.40	-1766.00	  429.95
      3.9700	 1041.00	  547.08	-1766.00	  430.63
      4.0700	 1019.00	  547.75	-1766.00	  431.30
      4.1700	 1090.00	  548.42	-1766.00	  431.97
      4.2700	 1068.00	  549.06	-1766.00	  432.62
      4.3700	 1106.00	  549.70	-1766.00	  433.25
      4.4700	 1090.00	  550.33	-1766.00	  433.88
      4.5700	 1085.00	  550.95	-1766.00	  434.50
      4.6700	 1038.00	  551.55	-1766.00	  435.10
      4.7700	  986.00	  552.15	-1766.00	  435.70
      4.8700	  923.00	  552.73	-1766.00	  436.28
      4.9700	  940.00	  553.31	-1766.00	  436.86
      5.0700	  968.00	  553.87	-1766.00	  437.42
      5.1700	  910.00	  554.42	-1766.00	  437.97
      5.2700	  933.00	  554.97	-1766.00	  438.52
      5.3700	  883.00	  555.50	-1766.00	  439.05
      5.4700	  926.00	  556.02	-1766.00	  439.57
      5.5700	  863.00	  556.53	-1766.00	  440.08
      5.6700	  839.00	  557.03	-1766.00	  440.58
      5.7700	  826.00	  557.53	-1766.00	  441.08
      5.8700	  852.00	  558.01	-1766.00	  441.56
      5.9700	  806.00	  558.48	-1766.00	  442.03
      6.0700	  862.00	  558.94	-1766.00	  442.49
      6.1700	  788.00	  559.40	-1766.00	  442.95
      6.2700	  762.00	  559.84	-1766.00	  443.39
      6.3700	  787.00	  560.27	-1766.00	  443.82
      6.4700	  744.00	  560.70	-1766.00	  444.25
      6.5700	  723.00	  561.11	-1766.00	  444.66
      6.6700	  712.00	  561.52	-1766.00	  445.07
      6.7700	  716.00	  561.91	-1766.00	  445.46
      6.8700	  698.00	  562.30	-1766.00	  445.85
      6.9700	  719.00	  562.68	-1766.00	  446.23
      7.0700	  686.00	  563.05	-1766.00	  446.60
      7.1700	  669.00	  563.41	-1766.00	  446.96
      7.2700	  678.00	  563.76	-1766.00	  447.31
      7.3700	  684.00	  564.10	-1766.00	  447.65
      7.4700	  636.00	  564.43	-1766.00	  447.98
      7.5700	  653.00	  564.76	-1766.00	  448.31
      7.6700	  647.00	  565.08	-1766.00	  448.63
      7.7700	  674.00	  565.38	-1766.00	  448.93
      7.8700	  652.00	  565.68	-1766.00	  449.23
      7.9700	  635.00	  565.97	-1766.00	  449.52
      8.0700	  599.00	  566.26	-1766.00	  449.81
      8.1700	  634.00	  566.53	-1766.00	  450.08
      8.2700	  678.00	  566.80	-1766.00	  450.35
      8.3700	  636.00	  567.06	-1766.00	  450.61
      8.4700	  646.00	  567.31	-1766.00	  450.86
      8.5700	  627.00	  567.55	-1766.00	  451.10
      8.6700	  655.00	  567.78	-1766.00	  451.33
      8.7700	  619.00	  568.01	-1766.00	  451.56
      8.8700	  658.00	  568.23	-1766.00	  451.78
      8.9700	  616.00	  568.44	-1766.00	  451.99
      9.0700	  611.00	  568.64	-1766.00	  452.19
      9.1700	  623.00	  568.84	-1766.00	  452.39
      9.2700	  645.00	  569.03	-1766.00	  452.58
      9.3700	  588.00	  569.21	-1766.00	  452.76
      9.4700	  618.00	  569.38	-1766.00	  452.93
      9.5700	  600.00	  569.55	-1766.00	  453.10
      9.6700	  566.00	  569.71	-1766.00	  453.26
      9.7700	  592.00	  569.86	-1766.00	  453.41
      9.8700	  602.00	  570.01	-1766.00	  453.56
      9.9700	  589.00	  570.14	-1766.00	  453.69
     10.0700	  587.00	  571.04	-1750.04	  453.82
     10.1700	  601.00	  571.25	-1736.25	  453.95
     10.2700	  609.00	  571.46	-1728.46	  454.07
     10.3700	  616.00	  571.70	-1721.70	  454.18
     10.4700	  559.00	  571.99	-1778.99	  454.28
     10.5700	  589.00	  572.38	-1749.38	  454.38
     10.6700	  631.00	  572.97	-1707.97	  454.47
     10.7700	  590.00	  573.87	-1749.87	  454.55
     10.8700	  572.00	  575.16	-1769.16	  454.63
     10.9700	  550.00	  576.83	-1792.83	  454.70
     11.0700	  626.00	  578.84	-1718.84	  454.76
     11.1700	  585.00	  581.18	-1762.18	  454.82
     11.2700	  536.00	  583.90	-1813.90	  454.87
     11.3700	  578.00	  587.05	-1775.05	  454.92
     11.4700	  573.00	  590.79	-1783.79	  454.96
     11.5700	  624.00	  595.29	-1737.29	  454.99
     11.6700	  622.00	  600.91	-1744.91	  455.02
     11.7700	  638.00	  608.23	-1736.23	  455.04
     11.8700	  630.00	  618.22	-1754.22	  455.06
     11.9700	  641.00	  631.63	-1756.63	  455.07
     12.0700	  648.00	  647.09	-1765.09	  455.07
     12.1700	  704.00	  658.50	-1720.50	  455.07
     12.2700	  660.00	  655.86	-1761.86	  455.06
     12.3700	  620.00	  635.60	-1781.60	  455.05
     12.4700	  626.00	  610.24	-1750.24	  455.03
     12.5700	  613.00	  591.66	-1744.66	  455.01
     12.6700	  596.00	  581.70	-1751.70	  454.98
     12.7700	  567.00	  577.30	-1776.30	  454.94
     12.8700	  595.00	  575.40	-1746.40	  454.90
     12.9700	  600.00	  574.40	-1740.40	  454.86
     13.0700	  538.00	  573.74	-1801.74	  454.81
     13.1700	  564.00	  573.26	-1775.26	  454.75
     13.2700	  554.00	  572.88	-1784.88	  454.69
     13.3700	  575.00	  572.57	-1763.57	  454.63
     13.4700	  506.00	  572.30	-1832.30	  454.56
     13.5700	  556.00	  572.08	-1782.08	  454.48
     13.6700	  582.00	  571.87	-1755.87	  454.40
     13.7700	  591.00	  571.68	-1746.68	  454.32
     13.8700	  593.00	  571.51	-1744.51	  454.23
     13.9700	  530.00	  571.34	-1807.34	  454.13
     14.0700	  551.00	  571.18	-1786.18	  454.03
     14.1700	  563.00	  571.03	-1774.03	  453.93
     14.2700	  584.00	  570.87	-1752.87	  453.82
     14.3700	  562.00	  570.72	-1774.72	  453.71
     14.4700	  544.00	  570.57	-1792.57	  453.59
     14.5700	  561.00	  570.42	-1775.42	  453.47
     14.6700	  540.00	  570.27	-1796.27	  453.34
     14.7700	  591.00	  570.11	-1745.11	  453.21
     14.8700	  556.00	  569.96	-1779.96	  453.08
     14.9700	  559.00	  569.80	-1776.80	  452.94
     15.0700	  538.00	  569.64	-1797.64	  452.79
     15.1700	  553.00	  569.48	-1782.48	  452.65
     15.2700	  536.00	  569.31	-1799.31	  452.50
     15.3700	  542.00	  569.14	-1793.14	  452.34
     15.4700	  536.00	  568.97	-1798.97	  452.18
     15.5700	  572.00	  568.80	-1762.80	  452.02
     15.6700	  568.00	  568.62	-1766.62	  451.85
     15.7700	  539.00	  568.44	-1795.44	  451.68
     15.8700	  532.00	  568.26	-1802.26	  451.51
     15.9700	  557.00	  568.08	-1777.08	  451.33
     16.0700	  526.00	  567.89	-1807.89	  451.15
     16.1700	  598.00	  567.70	-1735.70	  450.96
     16.2700	  560.00	  567.53	-1773.53	  450.77
     16.3700	  534.00	  567.33	-1799.33	  450.58
     16.4700	  581.00	  567.13	-1752.13	  450.39
     16.5700	  597.00	  566.93	-1735.93	  450.19
     16.6700	  583.00	  566.72	-1749.72	  449.99
     16.7700	  598.00	  566.51	-1734.51	  449.78
     16.8700	  582.00	  566.30	-1750.30	  449.57
     16.9700	  565.00	  566.09	-1767.09	  449.36
     17.0700	  582.00	  565.87	-1749.87	  449.14
     17.1700	  577.00	  565.65	-1754.65	  448.92
     17.2700	  549.00	  565.42	-1782.42	  448.70
     17.3700	  556.00	  565.20	-1775.20	  448.48
     17.4700	  528.00	  564.97	-1802.97	  448.25
     17.5700	  514.00	  564.74	-1816.74	  448.02
     17.6700	  551.00	  564.50	-1779.50	  447.79
     17.7700	  566.00	  564.26	-1764.26	  447.55
     17.8700	  567.00	  564.02	-1763.02	  447.31
     17.9700	  569.00	  563.88	-1760.88	  447.07
     18.0700	  580.00	  563.63	-1749.63	  446.82
     18.1700	  522.00	  563.39	-1807.39	  446.58
     18.2700	  607.00	  563.14	-1722.14	  446.33
     18.3700	  568.00	  562.89	-1760.89	  446.07
     18.4700	  504.00	  562.63	-1824.63	  445.82
     18.5700	  574.00	  562.38	-1754.38	  445.56
     18.6700	  593.00	  562.12	-1735.12	  445.30
     18.7700	  542.00	  561.86	-1785.86	  445.04
     18.8700	  569.00	  561.69	-1758.69	  444.77
     18.9700	  578.00	  561.43	-1749.43	  444.50
     19.0700	  556.00	  561.17	-1771.17	  444.23
     19.1700	  521.00	  560.90	-1805.90	  443.96
     19.2700	  574.00	  560.63	-1752.63	  443.69
     19.3700	  556.00	  560.36	-1770.36	  443.41
     19.4700	  610.00	  560.09	-1716.09	  443.13
     19.5700	  574.00	  559.82	-1751.82	  442.85
     19.6700	  576.00	  559.54	-1749.54	  442.57
     19.7700	  528.00	  559.26	-1797.26	  442.28
     19.8700	  555.00	  558.98	-1769.98	  442.00
     19.9700	  565.00	  558.70	-1759.70	  441.71
     20.0700	  575.00	  558.42	-1749.42	  441.42
     20.1700	  558.00	  558.14	-1766.14	  441.12
     20.2700	  544.00	  557.86	-1779.86	  440.83
     20.3700	  562.00	  557.57	-1761.57	  440.53
     20.4700	  522.00	  557.28	-1801.28	  440.23
     20.5700	  562.00	  556.97	-1760.97	  439.93
     20.6700	  528.00	  556.68	-1794.68	  439.63
     20.7700	  551.00	  556.39	-1771.39	  439.33
     20.8700	  563.00	  556.14	-1759.14	  439.03
     20.9700	  551.00	  555.85	-1770.85	  438.72
     21.0700	  566.00	  555.56	-1755.56	  438.41
     21.1700	  553.00	  555.27	-1768.27	  438.10
     21.2700	  588.00	  554.97	-1732.97	  437.79
     21.3700	  560.00	  554.68	-1760.68	  437.48
     21.4700	  562.00	  554.39	-1758.39	  437.16
     21.5700	  570.00	  554.10	-1750.10	  436.85
     21.6700	  546.00	  553.81	-1773.81	  436.53
     21.7700	  550.00	  553.52	-1769.52	  436.21
     21.8700	  550.00	  553.23	-1769.23	  435.90
     21.9700	  565.00	  552.94	-1753.94	  435.57
     22.0700	  536.00	  552.65	-1782.65	  435.25
     22.1700	  551.00	  552.37	-1767.37	  434.93
     22.2700	  544.00	  552.08	-1774.08	  434.61
     22.3700	  524.00	  551.80	-1793.80	  434.28
     22.4700	  526.00	  551.53	-1791.53	  433.96
     22.5700	  518.00	  551.25	-1799.25	  433.63
     22.6700	  529.00	  550.99	-1787.99	  433.30
     22.7700	  559.00	  550.72	-1757.72	  432.97
     22.8700	  554.00	  550.47	-1762.47	  432.64
     22.9700	  539.00	  550.23	-1777.23	  432.31
     23.0700	  515.00	  549.99	-1800.99	  431.98
     23.1700	  535.00	  549.78	-1780.78	  431.65
     23.2700	  597.00	  549.58	-1718.58	  431.31
     23.3700	  586.00	  549.41	-1729.41	  430.98
     23.4700	  525.00	  549.27	-1790.27	  430.64
     23.5700	  557.00	  549.17	-1758.17	  430.31
     23.6700	  553.00	  549.14	-1762.14	  429.97
     23.7700	  568.00	  549.36	-1747.36	  429.64
     23.8700	  562.00	  549.65	-1753.65	  429.30
     23.9700	  555.00	  550.37	-1761.37	  428.96
     24.0700	  553.00	  551.96	-1764.96	  428.62
     24.1700	  553.00	  555.09	-1768.09	  428.28
     24.2700	  560.00	  560.65	-1766.65	  427.94
     24.3700	  598.00	  569.63	-1737.63	  427.60
     24.4700	  535.00	  583.14	-1814.14	  427.26
     24.5700	  603.00	  601.61	-1764.61	  426.92
     24.6700	  616.00	  622.35	-1772.35	  426.58
     24.7700	  645.00	  637.23	-1758.23	  426.24
     24.8700	  629.00	  634.91	-1771.91	  425.90
     24.9700	  620.00	  613.27	-1759.27	  425.55
     25.0700	  559.00	  586.35	-1793.35	  425.21
     25.1700	  560.00	  566.07	-1772.07	  424.87
     25.2700	  585.00	  554.67	-1735.67	  424.53
     25.3700	  553.00	  549.38	-1762.38	  424.18
     25.4700	  511.00	  547.00	-1802.00	  423.84
     25.5700	  591.00	  545.75	-1720.75	  423.49
     25.6700	  523.00	  544.93	-1787.93	  423.15
     25.7700	  608.00	  544.33	-1702.33	  422.81
     25.8700	  565.00	  543.87	-1744.87	  422.46
     25.9700	  591.00	  543.52	-1718.52	  422.12
     26.0700	  564.00	  543.25	-1745.25	  421.78
     26.1700	  544.00	  543.06	-1765.06	  421.43
     26.2700	  514.00	  542.95	-1794.95	  421.09
     26.3700	  546.00	  542.91	-1762.91	  420.74
     26.4700	  567.00	  542.95	-1741.95	  420.40
     26.5700	  550.00	  543.08	-1759.08	  420.06
     26.6700	  558.00	  543.33	-1751.33	  419.71
     26.7700	  538.00	  543.70	-1771.70	  419.37
     26.8700	  554.00	  544.24	-1756.24	  419.03
     26.9700	  483.00	  545.00	-1828.00	  418.68
     27.0700	  552.00	  546.04	-1760.04	  418.34
     27.1700	  538.00	  547.50	-1775.50	  418.00
     27.2700	  556.00	  549.60	-1759.60	  417.66
     27.3700	  564.00	  552.82	-1754.82	  417.32
     27.4700	  534.00	  558.04	-1790.04	  416.98
     27.5700	  525.00	  566.86	-1807.86	  416.63
     27.6700	  565.00	  581.79	-1782.79	  416.29
     27.7700	  584.00	  606.06	-1788.06	  415.95
     27.8700	  562.00	  642.47	-1846.47	  415.61
     27.9700	  659.00	  691.15	-1798.15	  415.27
     28.0700	  769.00	  746.69	-1743.69	  414.94
     28.1700	  898.00	  795.72	-1663.72	  414.60
     28.2700	  959.00	  818.11	-1625.11	  414.26
     28.3700	  915.00	  801.90	-1652.90	  413.92
     28.4700	  817.00	  766.49	-1715.49	  413.59
     28.5700	  707.00	  744.54	-1803.54	  413.25
     28.6700	  701.00	  751.19	-1816.19	  412.91
     28.7700	  731.00	  781.50	-1816.50	  412.58
     28.8700	  790.00	  815.03	-1791.03	  412.24
     28.9700	  814.00	  822.31	-1774.31	  411.91
     29.0700	  788.00	  784.00	-1762.00	  411.58
     29.1700	  713.00	  716.53	-1769.53	  411.25
     29.2700	  656.00	  651.38	-1761.38	  410.91
     29.3700	  603.00	  603.98	-1766.98	  410.58
     29.4700	  630.00	  575.14	-1711.14	  410.25
     29.5700	  621.00	  559.49	-1704.49	  409.92
     29.6700	  621.00	  551.23	-1696.23	  409.60
     29.7700	  619.00	  546.58	-1693.58	  409.27
     29.8700	  645.00	  543.69	-1664.69	  408.94
     29.9700	  589.00	  541.85	-1718.85	  408.62
     30.0700	  531.00	  540.88	-1775.88	  408.29
     30.1700	  571.00	  540.92	-1735.92	  407.97
     30.2700	  562.00	  542.51	-1746.51	  407.64
     30.3700	  566.00	  546.72	-1746.72	  407.32
     30.4700	  621.00	  555.19	-1700.19	  407.00
     30.5700	  562.00	  569.67	-1773.67	  406.68
     30.6700	  568.00	  590.69	-1788.69	  406.36
     30.7700	  597.00	  615.73	-1784.73	  406.04
     30.8700	  624.00	  637.77	-1779.77	  405.72
     30.9700	  567.00	  645.98	-1844.98	  405.41
     31.0700	  650.00	  632.68	-1748.68	  405.09
     31.1700	  566.00	  604.72	-1804.72	  404.78
     31.2700	  545.00	  576.28	-1797.28	  404.47
     31.3700	  570.00	  555.11	-1751.11	  404.15
     31.4700	  531.00	  542.16	-1777.16	  403.84
     31.5700	  579.00	  535.20	-1722.20	  403.53
     31.6700	  553.00	  531.60	-1744.60	  403.22
     31.7700	  554.00	  529.61	-1741.61	  402.92
     31.8700	  548.00	  528.35	-1746.35	  402.61
     31.9700	  564.00	  527.47	-1729.47	  402.31
     32.0700	  581.00	  526.84	-1711.84	  402.00
     32.1700	  535.00	  526.40	-1757.40	  401.70
     32.2700	  539.00	  526.13	-1753.13	  401.40
     32.3700	  561.00	  526.02	-1731.02	  401.10
     32.4700	  537.00	  526.06	-1755.06	  400.80
     32.5700	  556.00	  526.28	-1736.28	  400.50
     32.6700	  544.00	  526.70	-1748.70	  400.20
     32.7700	  548.00	  527.38	-1745.38	  399.91
     32.8700	  576.00	  528.37	-1718.37	  399.62
     32.9700	  546.00	  529.80	-1749.80	  399.32
     33.0700	  531.00	  531.89	-1766.89	  399.03
     33.1700	  521.00	  535.09	-1780.09	  398.74
     33.2700	  539.00	  540.48	-1767.48	  398.45
     33.3700	  578.00	  550.36	-1738.36	  398.17
     33.4700	  583.00	  569.23	-1752.23	  397.88
     33.5700	  583.00	  604.27	-1787.27	  397.60
     33.6700	  638.00	  663.94	-1791.94	  397.32
     33.7700	  719.00	  752.31	-1799.31	  397.03
     33.8700	  886.00	  860.27	-1740.27	  396.76
     33.9700	 1046.00	  959.44	-1679.44	  396.48
     34.0700	 1089.00	 1005.44	-1682.44	  396.20
     34.1700	  998.00	  964.16	-1732.16	  395.92
     34.2700	  867.00	  856.41	-1755.41	  395.65
     34.3700	  774.00	  738.61	-1730.61	  395.38
     34.4700	  692.00	  646.66	-1720.66	  395.11
     34.5700	  561.00	  588.53	-1793.53	  394.84
     34.6700	  576.00	  556.96	-1746.96	  394.57
     34.7700	  581.00	  541.11	-1726.11	  394.30
     34.8700	  504.00	  532.87	-1794.87	  394.04
     34.9700	  520.00	  527.98	-1773.98	  393.78
     35.0700	  525.00	  524.61	-1765.61	  393.52
     35.1700	  523.00	  522.07	-1765.07	  393.26
     35.2700	  491.00	  520.08	-1795.08	  393.00
     35.3700	  577.00	  518.44	-1707.44	  392.74
     35.4700	  476.00	  517.08	-1807.08	  392.49
     35.5700	  559.00	  515.92	-1722.92	  392.23
     35.6700	  553.00	  514.93	-1727.93	  391.98
     35.7700	  517.00	  514.07	-1763.07	  391.73
     35.8700	  476.00	  513.31	-1803.31	  391.48
     35.9700	  527.00	  513.13	-1752.13	  391.24
     36.0700	  536.00	  512.53	-1742.53	  390.99
     36.1700	  516.00	  511.98	-1761.98	  390.75
     36.2700	  525.00	  511.49	-1752.49	  390.51
     36.3700	  494.00	  511.04	-1783.04	  390.27
     36.4700	  519.00	  510.63	-1757.63	  390.03
     36.5700	  501.00	  510.26	-1775.26	  389.79
     36.6700	  517.00	  509.94	-1758.94	  389.56
     36.7700	  488.00	  509.66	-1787.66	  389.32
     36.8700	  516.00	  509.45	-1759.45	  389.09
     36.9700	  504.00	  509.36	-1771.36	  388.86
     37.0700	  525.00	  509.53	-1750.53	  388.63
     37.1700	  505.00	  510.20	-1771.20	  388.41
     37.2700	  554.00	  511.77	-1723.77	  388.18
     37.3700	  487.00	  514.63	-1793.63	  387.96
     37.4700	  546.00	  518.84	-1738.84	  387.74
     37.5700	  526.00	  523.72	-1763.72	  387.52
     37.6700	  549.00	  527.72	-1744.72	  387.30
     37.7700	  518.00	  529.03	-1777.03	  387.09
     37.8700	  539.00	  527.10	-1754.10	  386.88
     37.9700	  545.00	  523.31	-1744.31	  386.66
     38.0700	  511.00	  519.11	-1774.11	  386.45
     38.1700	  538.00	  515.05	-1743.05	  386.25
     38.2700	  502.00	  511.54	-1775.54	  386.04
     38.3700	  490.00	  508.85	-1784.85	  385.84
     38.4700	  477.00	  506.98	-1795.98	  385.63
     38.5700	  540.00	  505.77	-1731.77	  385.43
     38.6700	  523.00	  505.00	-1748.00	  385.23
     38.7700	  532.00	  504.41	-1738.41	  385.04
     38.8700	  504.00	  504.04	-1766.04	  384.84
     38.9700	  497.00	  503.74	-1772.74	  384.65
     39.0700	  493.00	  503.48	-1776.48	  384.46
     39.1700	  493.00	  503.24	-1776.24	  384.27
     39.2700	  476.00	  502.93	-1792.93	  384.08
     39.3700	  528.00	  502.72	-1740.72	  383.90
     39.4700	  457.00	  502.53	-1811.53	  383.71
     39.5700	  491.00	  502.35	-1777.35	  383.53
     39.6700	  532.00	  502.30	-1736.30	  383.35
     39.7700	  517.00	  502.14	-1751.14	  383.17
     39.8700	  505.00	  501.99	-1762.99	  383.00
     39.9700	  477.00	  501.85	-1790.85	  382.82
     40.0700	  531.00	  501.72	-1736.72	  382.65
     40.1700	  496.00	  501.60	-1771.60	  382.48
     40.2700	  489.00	  501.49	-1778.49	  382.31
     40.3700	  474.00	  501.40	-1793.40	  382.14
     40.4700	  511.00	  501.31	-1756.31	  381.98
     40.5700	  536.00	  501.25	-1731.25	  381.82
     40.6700	  504.00	  501.19	-1763.19	  381.66
     40.7700	  521.00	  501.16	-1746.16	  381.50
     40.8700	  492.00	  501.15	-1775.15	  381.34
     40.9700	  528.00	  501.16	-1739.16	  381.18
     41.0700	  522.00	  501.21	-1745.21	  381.03
     41.1700	  483.00	  501.30	-1784.30	  380.88
     41.2700	  493.00	  501.40	-1774.40	  380.73
     41.3700	  463.00	  501.59	-1804.59	  380.58
     41.4700	  523.00	  501.87	-1744.87	  380.44
     41.5700	  493.00	  502.70	-1775.70	  380.30
     41.6700	  508.00	  503.26	-1761.26	  380.15
     41.7700	  512.00	  504.11	-1758.11	  380.02
     41.8700	  495.00	  505.54	-1776.54	  379.88
     41.9700	  493.00	  508.22	-1781.22	  379.74
     42.0700	  462.00	  513.45	-1817.45	  379.61
     42.1700	  510.00	  523.36	-1779.36	  379.48
     42.2700	  530.00	  540.53	-1776.53	  379.35
     42.3700	  567.00	  566.41	-1765.41	  379.22
     42.4700	  532.00	  599.32	-1833.32	  379.09
     42.5700	  612.00	  632.29	-1786.29	  378.97
     42.6700	  550.00	  653.67	-1869.67	  378.85
     42.7700	  558.00	  652.24	-1860.24	  378.73
     42.8700	  559.00	  628.05	-1835.05	  378.61
     42.9700	  589.00	  593.29	-1770.29	  378.50
     43.0700	  511.00	  560.37	-1815.37	  378.38
     43.1700	  559.00	  535.57	-1742.57	  378.27
     43.2700	  475.00	  519.81	-1810.81	  378.16
     43.3700	  495.00	  511.03	-1782.03	  378.05
     43.4700	  486.00	  506.52	-1786.52	  377.95
     43.5700	  515.00	  504.19	-1755.19	  377.84
     43.6700	  528.00	  503.06	-1741.06	  377.74
     43.7700	  481.00	  502.21	-1787.21	  377.64
     43.8700	  463.00	  501.60	-1804.60	  377.54
     43.9700	  513.00	  501.14	-1754.14	  377.44
     44.0700	  475.00	  500.78	-1791.78	  377.35
     44.1700	  538.00	  500.53	-1728.53	  377.26
     44.2700	  493.00	  500.31	-1773.31	  377.17
     44.3700	  493.00	  500.14	-1773.14	  377.08
     44.4700	  520.00	  500.02	-1746.02	  376.99
     44.5700	  456.00	  499.80	-1809.80	  376.91
     44.6700	  532.00	  499.74	-1733.74	  376.83
     44.7700	  474.00	  499.72	-1791.72	  376.74
     44.8700	  520.00	  499.72	-1745.72	  376.67
     44.9700	  519.00	  499.74	-1746.74	  376.59
     45.0700	  517.00	  499.79	-1748.79	  376.51
     45.1700	  485.00	  500.04	-1781.04	  376.44
     45.2700	  557.00	  500.13	-1709.13	  376.37
     45.3700	  510.00	  500.24	-1756.24	  376.30
     45.4700	  519.00	  500.38	-1747.38	  376.23
     45.5700	  499.00	  500.54	-1767.54	  376.17
     45.6700	  511.00	  500.73	-1755.73	  376.11
     45.7700	  522.00	  500.94	-1744.94	  376.04
     45.8700	  503.00	  501.18	-1764.18	  375.98
     45.9700	  442.00	  501.46	-1825.46	  375.93
     46.0700	  545.00	  501.76	-1722.76	  375.87
     46.1700	  539.00	  502.11	-1729.11	  375.82
     46.2700	  517.00	  502.50	-1751.50	  375.76
     46.3700	  500.00	  502.94	-1768.94	  375.71
     46.4700	  468.00	  503.43	-1801.43	  375.67
     46.5700	  508.00	  504.00	-1762.00	  375.62
     46.6700	  536.00	  504.64	-1734.64	  375.58
     46.7700	  522.00	  505.40	-1749.40	  375.53
     46.8700	  539.00	  506.31	-1733.31	  375.49
     46.9700	  545.00	  507.49	-1728.49	  375.45
     47.0700	  525.00	  509.18	-1750.18	  375.42
     47.1700	  527.00	  511.88	-1750.88	  375.38
     47.2700	  519.00	  516.43	-1763.43	  375.35
     47.3700	  508.00	  523.89	-1781.89	  375.32
     47.4700	  510.00	  535.40	-1791.40	  375.29
     47.5700	  502.00	  551.22	-1815.22	  375.26
     47.6700	  566.00	  569.86	-1769.86	  375.23
     47.7700	  525.00	  587.50	-1828.50	  375.21
     47.8700	  602.00	  598.54	-1762.54	  375.19
     47.9700	  593.00	  598.48	-1771.48	  375.17
     48.0700	  553.00	  588.07	-1801.07	  375.15
     48.1700	  586.00	  572.74	-1752.74	  375.13
     48.2700	  524.00	  558.11	-1800.11	  375.12
     48.3700	  480.00	  547.39	-1833.39	  375.10
     48.4700	  553.00	  541.50	-1754.50	  375.09
     48.5700	  519.00	  539.91	-1786.91	  375.08
     48.6700	  545.00	  541.56	-1762.56	  375.08
     48.7700	  519.00	  545.58	-1792.58	  375.07
     48.8700	  554.00	  551.54	-1763.54	  375.07
     48.9700	  518.00	  559.54	-1807.54	  375.06
     49.0700	  559.00	  570.33	-1777.33	  375.06
     49.1700	  593.00	  585.68	-1758.68	  375.06
     49.2700	  620.00	  609.25	-1755.25	  375.07
     49.3700	  692.00	  647.92	-1721.92	  375.07
     49.4700	  722.00	  713.22	-1757.22	  375.08
     49.5700	  791.00	  821.80	-1796.80	  375.09
     49.6700	  904.00	  991.49	-1853.49	  375.10
     49.7700	 1201.00	 1236.20	-1801.20	  375.11
     49.8700	 1512.00	 1553.89	-1807.89	  375.12
     49.9700	 1836.00	 1915.17	-1845.17	  375.13
     50.0700	 2287.00	 2253.67	-1732.67	  375.15
     50.1700	 2580.00	 2470.69	-1656.69	  375.17
     50.2700	 2603.00	 2477.55	-1640.55	  375.19
     50.3700	 2267.00	 2268.89	-1767.89	  375.21
     50.4700	 1919.00	 1931.76	-1778.76	  375.23
     50.5700	 1491.00	 1570.43	-1845.43	  375.26
     50.6700	 1028.00	 1254.15	-1992.15	  375.29
     50.7700	  785.00	 1013.52	-1994.52	  375.31
     50.8700	  805.00	  850.69	-1811.69	  375.34
     50.9700	  643.00	  750.72	-1873.72	  375.38
     51.0700	  685.00	  692.61	-1773.61	  375.41
     51.1700	  619.00	  657.03	-1804.03	  375.44
     51.2700	  587.00	  631.03	-1810.03	  375.48
     51.3700	  628.00	  608.98	-1746.98	  375.52
     51.4700	  565.00	  589.90	-1790.90	  375.56
     51.5700	  567.00	  574.23	-1773.23	  375.60
     51.6700	  515.00	  562.24	-1813.24	  375.64
     51.7700	  561.00	  553.67	-1758.67	  375.69
     51.8700	  535.00	  547.84	-1778.84	  375.73
     51.9700	  559.00	  543.99	-1750.99	  375.78
     52.0700	  523.00	  541.53	-1784.53	  375.83
     52.1700	  578.00	  540.10	-1728.10	  375.88
     52.2700	  529.00	  539.81	-1776.81	  375.93
     52.3700	  536.00	  540.30	-1770.30	  375.98
     52.4700	  606.00	  542.18	-1702.18	  376.04
     52.5700	  522.00	  546.43	-1790.43	  376.10
     52.6700	  579.00	  555.16	-1742.16	  376.15
     52.7700	  671.00	  572.28	-1667.28	  376.21
     52.8700	  679.00	  603.95	-1690.95	  376.27
     52.9700	  690.00	  657.92	-1733.92	  376.34
     53.0700	  811.00	  740.97	-1695.97	  376.40
     53.1700	  916.00	  854.25	-1704.25	  376.47
     53.2700	 1043.00	  988.34	-1711.34	  376.53
     53.3700	 1095.00	 1119.76	-1790.76	  376.60
     53.4700	 1189.00	 1212.87	-1789.87	  376.67
     53.5700	 1153.00	 1232.78	-1845.78	  376.74
     53.6700	 1088.00	 1170.22	-1848.22	  376.82
     53.7700	  997.00	 1051.02	-1820.02	  376.89
     53.8700	  957.00	  913.99	-1722.99	  376.96
     53.9700	  724.00	  789.18	-1831.18	  377.04
     54.0700	  663.00	  692.20	-1795.20	  377.12
     54.1700	  626.00	  626.09	-1766.09	  377.20
     54.2700	  576.00	  585.83	-1775.83	  377.28
     54.3700	  535.00	  563.55	-1794.55	  377.36
     54.4700	  560.00	  552.07	-1758.07	  377.45
     54.5700	  615.00	  546.50	-1697.50	  377.53
     54.6700	  584.00	  543.97	-1725.97	  377.62
     54.7700	  530.00	  543.08	-1779.08	  377.70
     54.8700	  573.00	  543.23	-1736.23	  377.79
     54.9700	  572.00	  544.19	-1738.19	  377.88
     55.0700	  533.00	  545.87	-1778.87	  377.97
     55.1700	  520.00	  548.30	-1794.30	  378.07
     55.2700	  538.00	  551.55	-1779.55	  378.16
     55.3700	  549.00	  555.72	-1772.72	  378.25
     55.4700	  519.00	  561.03	-1808.03	  378.35
     55.5700	  599.00	  567.88	-1734.88	  378.45
     55.6700	  512.00	  577.08	-1831.08	  378.55
     55.7700	  604.00	  590.28	-1752.28	  378.65
     55.8700	  604.00	  610.77	-1772.77	  378.75
     55.9700	  616.00	  644.79	-1794.79	  378.85
     56.0700	  678.00	  702.79	-1790.79	  378.95
     56.1700	  765.00	  800.02	-1801.02	  379.06
     56.2700	  877.00	  954.79	-1843.79	  379.16
     56.3700	 1088.00	 1183.23	-1861.23	  379.27
     56.4700	 1414.00	 1490.59	-1842.59	  379.38
     56.5700	 1805.00	 1861.04	-1822.04	  379.49
     56.6700	 2199.00	 2249.89	-1816.89	  379.60
     56.7700	 2464.00	 2580.70	-1882.70	  379.71
     56.8700	 2703.00	 2759.31	-1822.31	  379.82
     56.9700	 2699.00	 2719.84	-1786.84	  379.93
     57.0700	 2408.00	 2477.56	-1835.56	  380.05
     57.1700	 2108.00	 2116.41	-1774.41	  380.16
     57.2700	 1702.00	 1728.98	-1792.98	  380.28
     57.3700	 1361.00	 1380.78	-1785.78	  380.40
     57.4700	 1076.00	 1105.37	-1795.37	  380.52
     57.5700	  889.00	  909.96	-1786.96	  380.64
     57.6700	  801.00	  784.49	-1749.49	  380.76
     57.7700	  730.00	  711.96	-1747.96	  380.88
     57.8700	  685.00	  676.05	-1757.05	  381.00
     57.9700	  642.00	  665.18	-1789.18	  381.12
     58.0700	  734.00	  673.13	-1705.13	  381.25
     58.1700	  691.00	  697.78	-1772.78	  381.37
     58.2700	  839.00	  739.15	-1666.15	  381.50
     58.3700	  807.00	  797.44	-1756.44	  381.63
     58.4700	  965.00	  871.41	-1672.41	  381.76
     58.5700	 1076.00	  956.61	-1646.61	  381.89
     58.6700	 1302.00	 1044.82	-1508.82	  382.02
     58.7700	 1403.00	 1126.27	-1489.27	  382.15
     58.8700	 1435.00	 1193.88	-1524.88	  382.28
     58.9700	 1567.00	 1243.52	-1442.52	  382.41
     59.0700	 1532.00	 1269.81	-1503.81	  382.54
     59.1700	 1559.00	 1267.97	-1474.97	  382.68
     59.2700	 1460.00	 1241.70	-1547.70	  382.81
     59.3700	 1466.00	 1204.02	-1504.02	  382.95
     59.4700	 1199.00	 1168.68	-1735.68	  383.08
     59.5700	 1252.00	 1145.20	-1659.20	  383.22
     59.6700	 1185.00	 1141.01	-1722.01	  383.36
     59.7700	 1112.00	 1164.17	-1818.17	  383.50
     59.8700	 1178.00	 1219.68	-1807.68	  383.64
     59.9700	 1337.00	 1303.40	-1732.40	  383.78
     60.0700	 1488.00	 1399.05	-1677.05	  383.92
     60.1700	 1593.00	 1478.47	-1651.47	  384.06
     60.2700	 1604.00	 1508.65	-1670.65	  384.20
     60.3700	 1539.00	 1468.61	-1695.61	  384.35
     60.4700	 1405.00	 1364.42	-1725.42	  384.49
     60.5700	 1296.00	 1222.83	-1692.83	  384.64
     60.6700	 1094.00	 1073.02	-1745.02	  384.78
     60.7700	  924.00	  936.45	-1778.45	  384.93
     60.8700	  803.00	  825.34	-1788.34	  385.07
     60.9700	  660.00	  744.02	-1850.02	  385.22
     61.0700	  715.00	  691.52	-1742.52	  385.37
     61.1700	  680.00	  664.65	-1750.65	  385.52
     61.2700	  622.00	  660.70	-1804.70	  385.66
     61.3700	  639.00	  679.19	-1806.19	  385.81
     61.4700	  715.00	  722.08	-1773.08	  385.96
     61.5700	  718.00	  792.60	-1840.60	  386.11
     61.6700	  823.00	  892.72	-1835.72	  386.26
     61.7700	  949.00	 1020.25	-1837.25	  386.42
     61.8700	 1104.00	 1166.09	-1828.09	  386.57
     61.9700	 1230.00	 1312.35	-1848.35	  386.72
     62.0700	 1346.00	 1432.42	-1852.42	  386.87
     62.1700	 1433.00	 1495.74	-1828.74	  387.03
     62.2700	 1341.00	 1481.82	-1906.82	  387.18
     62.3700	 1293.00	 1394.74	-1867.74	  387.33
     62.4700	 1179.00	 1260.12	-1847.12	  387.49
     62.5700	 1085.00	 1108.37	-1789.37	  387.64
     62.6700	  905.00	  963.45	-1824.45	  387.80
     62.7700	  740.00	  840.02	-1866.02	  387.96
     62.8700	  722.00	  744.26	-1788.26	  388.11
     62.9700	  582.00	  675.79	-1859.79	  388.27
     63.0700	  614.00	  630.22	-1782.22	  388.43
     63.1700	  640.00	  601.75	-1727.75	  388.58
     63.2700	  569.00	  584.96	-1781.96	  388.74
     63.3700	  585.00	  575.82	-1756.82	  388.90
     63.4700	  581.00	  571.89	-1756.89	  389.06
     63.5700	  572.00	  572.28	-1766.28	  389.21
     63.6700	  562.00	  577.36	-1781.36	  389.37
     63.7700	  602.00	  588.54	-1752.54	  389.53
     63.8700	  649.00	  607.96	-1724.96	  389.69
     63.9700	  685.00	  637.88	-1718.88	  389.85
     64.0700	  758.00	  679.90	-1687.90	  390.01
     64.1700	  835.00	  733.93	-1664.93	  390.17
     64.2700	  857.00	  797.17	-1706.17	  390.33
     64.3700	  927.00	  863.46	-1702.46	  390.49
     64.4700	  963.00	  923.26	-1726.26	  390.65
     64.5700	 1052.00	  965.16	-1679.16	  390.81
     64.6700	 1048.00	  979.46	-1697.46	  390.97
     64.7700	  979.00	  964.93	-1751.93	  391.13
     64.8700	  956.00	  926.14	-1736.14	  391.30
     64.9700	  940.00	  872.33	-1698.33	  391.46
     65.0700	  883.00	  813.58	-1696.58	  391.62
     65.1700	  774.00	  758.01	-1750.01	  391.78
     65.2700	  727.00	  710.27	-1749.27	  391.94
     65.3700	  720.00	  671.66	-1717.66	  392.10
     65.4700	  649.00	  641.31	-1758.31	  392.26
     65.5700	  609.00	  617.71	-1774.71	  392.43
     65.6700	  597.00	  599.55	-1768.55	  392.59
     65.7700	  564.00	  585.84	-1787.84	  392.75
     65.8700	  599.00	  575.81	-1742.81	  392.91
     65.9700	  559.00	  568.88	-1775.88	  393.07
     66.0700	  537.00	  564.56	-1793.56	  393.23
     66.1700	  556.00	  562.40	-1772.40	  393.40
     66.2700	  535.00	  562.02	-1793.02	  393.56
     66.3700	  519.00	  563.14	-1810.14	  393.72
     66.4700	  542.00	  565.55	-1789.55	  393.88
     66.5700	  536.00	  569.32	-1799.32	  394.04
     66.6700	  512.00	  574.91	-1828.91	  394.20
     66.7700	  577.00	  582.96	-1771.96	  394.36
     66.8700	  585.00	  595.25	-1776.25	  394.52
     66.9700	  614.00	  614.67	-1766.67	  394.69
     67.0700	  607.00	  645.86	-1804.86	  394.85
     67.1700	  700.00	  695.46	-1761.46	  395.01
     67.2700	  733.00	  771.94	-1804.94	  395.17
     67.3700	  814.00	  884.51	-1836.51	  395.33
     67.4700	 1064.00	 1040.96	-1742.96	  395.49
     67.5700	 1224.00	 1243.98	-1785.98	  395.65
     67.6700	 1532.00	 1488.69	-1722.69	  395.81
     67.7700	 1800.00	 1758.82	-1724.82	  395.97
     67.8700	 1990.00	 2025.80	-1801.80	  396.12
     67.9700	 2323.00	 2249.39	-1692.39	  396.28
     68.0700	 2409.00	 2384.12	-1741.12	  396.44
     68.1700	 2419.00	 2395.69	-1742.69	  396.60
     68.2700	 2290.00	 2280.90	-1756.90	  396.76
     68.3700	 2101.00	 2069.79	-1734.79	  396.92
     68.4700	 1893.00	 1807.50	-1680.50	  397.07
     68.5700	 1561.00	 1535.86	-1740.86	  397.23
     68.6700	 1216.00	 1285.80	-1835.80	  397.39
     68.7700	 1087.00	 1075.33	-1754.33	  397.54
     68.8700	  889.00	  911.48	-1788.48	  397.70
     68.9700	  720.00	  792.34	-1838.34	  397.85
     69.0700	  651.00	  710.83	-1825.83	  398.01
     69.1700	  643.00	  657.79	-1780.79	  398.16
     69.2700	  608.00	  624.52	-1782.52	  398.32
     69.3700	  617.00	  604.00	-1753.00	  398.47
     69.4700	  585.00	  591.28	-1772.28	  398.62
     69.5700	  595.00	  583.16	-1754.16	  398.78
     69.6700	  568.00	  577.79	-1775.79	  398.93
     69.7700	  548.00	  574.11	-1792.11	  399.08
     69.8700	  573.00	  571.58	-1764.58	  399.23
     69.9700	  591.00	  569.93	-1744.93	  399.38
     70.0700	  564.00	  569.03	-1771.03	  399.53
     70.1700	  556.00	  568.84	-1778.84	  399.68
     70.2700	  548.00	  569.35	-1787.35	  399.83
     70.3700	  580.00	  570.67	-1756.67	  399.98
     70.4700	  574.00	  573.04	-1765.04	  400.13
     70.5700	  521.00	  576.92	-1821.92	  400.28
     70.6700	  556.00	  583.18	-1793.18	  400.42
     70.7700	  584.00	  593.32	-1775.32	  400.57
     70.8700	  565.00	  609.72	-1810.72	  400.72
     70.9700	  609.00	  636.00	-1793.00	  400.86
     71.0700	  619.00	  676.99	-1823.99	  401.01
     71.1700	  694.00	  738.52	-1810.52	  401.15
     71.2700	  835.00	  826.55	-1757.55	  401.29
     71.3700	  912.00	  946.53	-1800.53	  401.44
     71.4700	 1068.00	 1098.11	-1796.11	  401.58
     71.5700	 1248.00	 1278.15	-1796.15	  401.72
     71.6700	 1463.00	 1475.83	-1778.83	  401.86
     71.7700	 1623.00	 1672.77	-1815.77	  402.00
     71.8700	 1887.00	 1843.71	-1722.71	  402.14
     71.9700	 1874.00	 1959.46	-1851.46	  402.28
     72.0700	 1943.00	 1995.34	-1818.34	  402.41
     72.1700	 1933.00	 1942.76	-1775.76	  402.55
     72.2700	 1782.00	 1814.59	-1798.59	  402.69
     72.3700	 1756.00	 1636.96	-1646.96	  402.82
     72.4700	 1484.00	 1439.56	-1721.56	  402.96
     72.5700	 1401.00	 1245.74	-1610.74	  403.09
     72.6700	 1266.00	 1072.07	-1572.07	  403.22
     72.7700	 1010.00	  927.60	-1683.60	  403.35
     72.8700	  957.00	  814.83	-1623.83	  403.48
     72.9700	  878.00	  731.58	-1619.58	  403.62
     73.0700	  803.00	  672.95	-1635.95	  403.74
     73.1700	  759.00	  633.17	-1640.17	  403.87
     73.2700	  642.00	  606.82	-1730.82	  404.00
     73.3700	  626.00	  589.53	-1729.53	  404.13
     73.4700	  643.00	  578.09	-1701.09	  404.25
     73.5700	  626.00	  570.41	-1710.41	  404.38
     73.6700	  580.00	  565.20	-1751.20	  404.50
     73.7700	  561.00	  561.68	-1766.68	  404.62
     73.8700	  640.00	  559.42	-1685.42	  404.75
     73.9700	  619.00	  558.16	-1705.16	  404.87
     74.0700	  605.00	  557.71	-1718.71	  404.99
     74.1700	  596.00	  557.89	-1727.89	  405.11
     74.2700	  605.00	  558.49	-1719.49	  405.22
     74.3700	  622.00	  559.27	-1703.27	  405.34
     74.4700	  631.00	  559.94	-1694.94	  405.46
     74.5700	  663.00	  560.18	-1663.18	  405.57
     74.6700	  667.00	  559.76	-1658.76	  405.69
     74.7700	  644.00	  558.62	-1680.62	  405.80
     74.8700	  624.00	  556.89	-1698.89	  405.91
     74.9700	  570.00	  554.87	-1750.87	  406.02
     75.0700	  607.00	  552.88	-1711.88	  406.13
     75.1700	  585.00	  551.26	-1732.26	  406.24
     75.2700	  540.00	  550.41	-1776.41	  406.35
     75.3700	  586.00	  550.63	-1730.63	  406.45
     75.4700	  550.00	  552.45	-1768.45	  406.56
     75.5700	  544.00	  556.30	-1778.30	  406.66
     75.6700	  533.00	  562.57	-1795.57	  406.77
     75.7700	  574.00	  571.93	-1763.93	  406.87
     75.8700	  616.00	  584.59	-1734.59	  406.97
     75.9700	  598.00	  600.53	-1768.53	  407.07
     76.0700	  616.00	  619.29	-1769.29	  407.17
     76.1700	  597.00	  639.82	-1808.82	  407.26
     76.2700	  705.00	  660.44	-1721.44	  407.36
     76.3700	  666.00	  678.91	-1778.91	  407.45
     76.4700	  690.00	  692.60	-1768.60	  407.55
     76.5700	  705.00	  699.09	-1760.09	  407.64
     76.6700	  665.00	  697.05	-1798.05	  407.73
     76.7700	  688.00	  686.87	-1764.87	  407.82
     76.8700	  660.00	  670.51	-1776.51	  407.91
     76.9700	  632.00	  650.36	-1784.36	  408.00
     77.0700	  645.00	  629.29	-1750.29	  408.08
     77.1700	  607.00	  609.11	-1768.11	  408.17
     77.2700	  600.00	  591.18	-1757.18	  408.25
     77.3700	  575.00	  576.25	-1767.25	  408.33
     77.4700	  506.00	  564.52	-1824.52	  408.41
     77.5700	  541.00	  555.78	-1780.78	  408.49
     77.6700	  534.00	  549.58	-1781.58	  408.57
     77.7700	  517.00	  545.37	-1794.36	  408.65
     77.8700	  539.00	  542.60	-1769.60	  408.72
     77.9700	  537.00	  540.83	-1769.83	  408.80
     78.0700	  489.00	  539.72	-1816.72	  408.87
     78.1700	  519.00	  539.03	-1786.03	  408.94
     78.2700	  562.00	  538.60	-1742.60	  409.01
     78.3700	  546.00	  538.35	-1758.35	  409.08
     78.4700	  497.00	  538.23	-1807.23	  409.15
     78.5700	  512.00	  538.20	-1792.20	  409.22
     78.6700	  549.00	  538.26	-1755.26	  409.28
     78.7700	  531.00	  538.42	-1773.42	  409.34
     78.8700	  554.00	  538.70	-1750.70	  409.40
     78.9700	  499.00	  539.13	-1806.13	  409.46
     79.0700	  498.00	  539.73	-1807.73	  409.52
     79.1700	  502.00	  540.58	-1804.58	  409.58
     79.2700	  536.00	  541.71	-1771.71	  409.64
     79.3700	  560.00	  543.02	-1749.02	  409.69
     79.4700	  544.00	  544.95	-1766.95	  409.74
     79.5700	  534.00	  547.41	-1779.41	  409.79
     79.6700	  491.00	  550.49	-1825.49	  409.84
     79.7700	  487.00	  554.35	-1833.35	  409.89
     79.8700	  560.00	  559.15	-1765.15	  409.94
     79.9700	  534.00	  565.11	-1797.11	  409.99
     80.0700	  551.00	  572.46	-1787.46	  410.03
     80.1700	  552.00	  581.51	-1795.51	  410.07
     80.2700	  538.00	  592.54	-1820.54	  410.11
     80.3700	  611.00	  605.80	-1760.80	  410.15
     80.4700	  578.00	  621.32	-1809.32	  410.19
     80.5700	  588.00	  638.86	-1816.86	  410.23
     80.6700	  631.00	  657.85	-1792.85	  410.26
     80.7700	  660.00	  677.28	-1783.28	  410.29
     80.8700	  686.00	  695.82	-1775.82	  410.33
     80.9700	  690.00	  712.01	-1788.01	  410.35
     81.0700	  740.00	  724.51	-1750.51	  410.38
     81.1700	  744.00	  732.42	-1754.42	  410.41
     81.2700	  723.00	  735.27	-1778.27	  410.44
     81.3700	  728.00	  733.00	-1771.00	  410.46
     81.4700	  793.00	  725.96	-1698.96	  410.48
     81.5700	  762.00	  714.85	-1718.85	  410.50
     81.6700	  784.00	  700.54	-1682.54	  410.52
     81.7700	  717.00	  683.95	-1732.95	  410.54
     81.8700	  735.00	  666.07	-1697.07	  410.55
     81.9700	  683.00	  647.93	-1730.93	  410.57
     82.0700	  635.00	  630.42	-1761.42	  410.58
     82.1700	  674.00	  614.35	-1706.35	  410.59
     82.2700	  649.00	  600.11	-1717.11	  410.60
     82.3700	  629.00	  587.88	-1724.88	  410.60
     82.4700	  563.00	  577.71	-1780.71	  410.61
     82.5700	  579.00	  569.50	-1756.50	  410.61
     82.6700	  600.00	  563.21	-1729.21	  410.62
     82.7700	  564.00	  558.66	-1760.66	  410.62
     82.8700	  618.00	  555.70	-1703.70	  410.62
     82.9700	  558.00	  554.21	-1762.21	  410.61
     83.0700	  569.00	  554.06	-1751.06	  410.61
     83.1700	  523.00	  555.16	-1798.16	  410.60
     83.2700	  578.00	  557.37	-1745.37	  410.59
     83.3700	  486.00	  560.54	-1840.54	  410.58
     83.4700	  544.00	  564.45	-1786.45	  410.57
     83.5700	  525.00	  568.83	-1809.83	  410.56
     83.6700	  615.00	  573.28	-1724.28	  410.54
     83.7700	  530.00	  577.37	-1813.37	  410.53
     83.8700	  565.00	  580.60	-1781.60	  410.51
     83.9700	  609.00	  582.49	-1739.49	  410.49
     84.0700	  553.00	  582.70	-1795.70	  410.47
     84.1700	  580.00	  581.16	-1767.16	  410.44
     84.2700	  526.00	  578.07	-1818.07	  410.42
     84.3700	  536.00	  573.85	-1803.85	  410.39
     84.4700	  547.00	  568.97	-1787.97	  410.36
     84.5700	  515.00	  563.87	-1814.87	  410.33
     84.6700	  505.00	  558.92	-1819.92	  410.30
     84.7700	  509.00	  554.39	-1811.39	  410.27
     84.8700	  522.00	  550.44	-1794.44	  410.23
     84.9700	  505.00	  547.18	-1808.18	  410.19
     85.0700	  525.00	  544.61	-1785.61	  410.15
     85.1700	  567.00	  542.70	-1741.70	  410.11
     85.2700	  513.00	  541.38	-1794.38	  410.07
     85.3700	  505.00	  540.56	-1801.56	  410.03
     85.4700	  509.00	  540.17	-1797.17	  409.98
     85.5700	  555.00	  540.14	-1751.14	  409.93
     85.6700	  555.00	  540.44	-1751.44	  409.88
     85.7700	  536.00	  541.03	-1771.03	  409.83
     85.8700	  525.00	  541.92	-1782.92	  409.78
     85.9700	  534.00	  543.16	-1775.16	  409.72
     86.0700	  583.00	  544.80	-1727.80	  409.66
     86.1700	  533.00	  546.94	-1779.94	  409.60
     86.2700	  571.00	  549.69	-1744.69	  409.54
     86.3700	  558.00	  553.19	-1761.19	  409.48
     86.4700	  546.00	  557.57	-1777.57	  409.42
     86.5700	  589.00	  562.96	-1739.96	  409.35
     86.6700	  560.00	  569.40	-1775.40	  409.28
     86.7700	  602.00	  576.56	-1740.56	  409.21
     86.8700	  610.00	  584.87	-1740.87	  409.14
     86.9700	  599.00	  593.65	-1760.65	  409.07
     87.0700	  599.00	  602.42	-1769.42	  408.99
     87.1700	  619.00	  610.50	-1757.50	  408.92
     87.2700	  671.00	  617.16	-1712.16	  408.84
     87.3700	  620.00	  621.63	-1767.63	  408.76
     87.4700	  631.00	  623.33	-1758.33	  408.67
     87.5700	  681.00	  622.03	-1707.03	  408.59
     87.6700	  654.00	  617.92	-1729.92	  408.50
     87.7700	  642.00	  611.62	-1735.62	  408.42
     87.8700	  614.00	  603.93	-1755.93	  408.33
     87.9700	  663.00	  595.71	-1698.71	  408.23
     88.0700	  587.00	  587.74	-1766.74	  408.14
     88.1700	  589.00	  580.71	-1757.71	  408.05
     88.2700	  628.00	  575.12	-1713.12	  407.95
     88.3700	  571.00	  571.33	-1766.33	  407.85
     88.4700	  565.00	  569.51	-1770.51	  407.75
     88.5700	  534.00	  569.68	-1801.68	  407.65
     88.6700	  586.00	  571.69	-1751.69	  407.54
     88.7700	  570.00	  575.27	-1771.27	  407.44
     88.8700	  572.00	  580.01	-1774.01	  407.33
     88.9700	  605.00	  585.43	-1746.43	  407.22
     89.0700	  625.00	  590.97	-1731.97	  407.11
     89.1700	  620.00	  596.01	-1742.01	  407.00
     89.2700	  632.00	  599.93	-1733.93	  406.88
     89.3700	  560.00	  602.18	-1808.18	  406.77
     89.4700	  653.00	  602.41	-1715.41	  406.65
     89.5700	  578.00	  600.52	-1788.52	  406.53
     89.6700	  574.00	  596.74	-1788.74	  406.41
     89.7700	  561.00	  591.50	-1796.50	  406.28
     89.8700	  573.00	  585.31	-1778.31	  406.16
     89.9700	  586.00	  578.68	-1758.68	  406.03
     90.0700	  538.00	  572.06	-1800.06	  405.90
     90.1700	  574.00	  565.81	-1757.81	  405.77
     90.2700	  546.00	  560.17	-1780.17	  405.64
     90.3700	  535.00	  555.30	-1786.30	  405.50
     90.4700	  513.00	  551.27	-1804.27	  405.37
     90.5700	  523.00	  548.08	-1791.08	  405.23
     90.6700	  500.00	  545.66	-1811.66	  405.09
     90.7700	  534.00	  543.94	-1775.94	  404.95
     90.8700	  548.00	  542.80	-1760.80	  404.80
     90.9700	  563.00	  542.18	-1745.18	  404.66
     91.0700	  521.00	  541.98	-1786.98	  404.51
     91.1700	  494.00	  542.19	-1814.19	  404.36
     91.2700	  555.00	  542.80	-1753.80	  404.21
     91.3700	  501.00	  543.84	-1808.84	  404.06
     91.4700	  556.00	  545.41	-1755.41	  403.91
     91.5700	  548.00	  547.62	-1765.62	  403.75
     91.6700	  513.00	  550.64	-1803.64	  403.60
     91.7700	  570.00	  554.66	-1750.66	  403.44
     91.8700	  501.00	  559.89	-1824.89	  403.28
     91.9700	  553.00	  566.31	-1779.31	  403.11
     92.0700	  546.00	  574.56	-1794.56	  402.95
     92.1700	  544.00	  584.53	-1806.53	  402.78
     92.2700	  636.00	  596.28	-1726.28	  402.62
     92.3700	  645.00	  609.74	-1730.74	  402.45
     92.4700	  597.00	  624.73	-1793.73	  402.28
     92.5700	  635.00	  640.93	-1771.93	  402.11
     92.6700	  652.00	  657.87	-1771.87	  401.93
     92.7700	  669.00	  674.95	-1771.95	  401.76
     92.8700	  785.00	  691.50	-1672.50	  401.58
     92.9700	  763.00	  706.79	-1709.79	  401.40
     93.0700	  720.00	  720.24	-1766.24	  401.22
     93.1700	  790.00	  731.53	-1707.53	  401.04
     93.2700	  810.00	  740.76	-1696.76	  400.85
     93.3700	  829.00	  748.39	-1685.39	  400.67
     93.4700	  789.00	  755.10	-1732.10	  400.48
     93.5700	  874.00	  761.63	-1653.63	  400.29
     93.6700	  831.00	  768.64	-1703.64	  400.10
     93.7700	  888.00	  776.71	-1654.71	  399.91
     93.8700	  854.00	  786.31	-1698.31	  399.72
     93.9700	  861.00	  797.87	-1702.87	  399.52
     94.0700	  813.00	  811.69	-1764.69	  399.33
     94.1700	  855.00	  827.81	-1738.81	  399.13
     94.2700	  870.00	  845.95	-1741.95	  398.93
     94.3700	  852.00	  865.35	-1779.35	  398.73
     94.4700	  888.00	  884.83	-1762.83	  398.53
     94.5700	  927.00	  902.77	-1741.77	  398.32
     94.6700	  960.00	  917.30	-1723.30	  398.12
     94.7700	  901.00	  926.45	-1791.45	  397.91
     94.8700	  931.00	  928.58	-1763.58	  397.70
     94.9700	  940.00	  922.77	-1748.77	  397.49
     95.0700	  853.00	  909.10	-1822.10	  397.28
     95.1700	  823.00	  888.59	-1831.59	  397.07
     95.2700	  854.00	  863.01	-1775.01	  396.85
     95.3700	  817.00	  834.40	-1783.40	  396.64
     95.4700	  770.00	  804.87	-1800.87	  396.42
     95.5700	  747.00	  776.40	-1795.40	  396.20
     95.6700	  749.00	  750.81	-1767.81	  395.98
     95.7700	  712.00	  729.74	-1783.74	  395.76
     95.8700	  665.00	  714.64	-1815.64	  395.54
     95.9700	  715.00	  706.78	-1757.78	  395.31
     96.0700	  705.00	  707.27	-1768.27	  395.09
     96.1700	  678.00	  717.00	-1805.00	  394.86
     96.2700	  727.00	  736.72	-1775.72	  394.63
     96.3700	  746.00	  766.87	-1786.87	  394.40
     96.4700	  800.00	  807.61	-1773.61	  394.17
     96.5700	  851.00	  858.62	-1773.62	  393.94
     96.6700	  909.00	  919.07	-1776.07	  393.71
     96.7700	 1028.00	  987.54	-1725.54	  393.47
     96.8700	 1040.00	 1061.90	-1787.90	  393.24
     96.9700	 1184.00	 1139.31	-1721.31	  393.00
     97.0700	 1190.00	 1216.24	-1792.24	  392.76
     97.1700	 1245.00	 1288.58	-1809.58	  392.52
     97.2700	 1359.00	 1351.84	-1758.84	  392.28
     97.3700	 1393.00	 1401.50	-1774.50	  392.04
     97.4700	 1405.00	 1433.61	-1794.61	  391.79
     97.5700	 1452.00	 1445.52	-1759.52	  391.55
     97.6700	 1446.00	 1436.51	-1756.51	  391.30
     97.7700	 1346.00	 1407.88	-1827.88	  391.06
     97.8700	 1317.00	 1362.57	-1811.57	  390.81
     97.9700	 1289.00	 1304.54	-1781.54	  390.56
     98.0700	 1160.00	 1238.17	-1844.17	  390.31
     98.1700	 1140.00	 1167.76	-1793.76	  390.06
     98.2700	 1151.00	 1097.28	-1712.28	  389.80
     98.3700	 1037.00	 1030.23	-1759.23	  389.55
     98.4700	  922.00	  969.59	-1813.59	  389.30
     98.5700	  923.00	  917.74	-1760.74	  389.04
     98.6700	  853.00	  876.55	-1789.55	  388.78
     98.7700	  855.00	  847.40	-1758.40	  388.53
     98.8700	  834.00	  831.30	-1763.30	  388.27
     98.9700	  829.00	  828.94	-1765.94	  388.01
     99.0700	  783.00	  840.76	-1823.76	  387.75
     99.1700	  821.00	  866.97	-1811.97	  387.49
     99.2700	  883.00	  907.60	-1790.60	  387.22
     99.3700	  954.00	  962.43	-1774.43	  386.96
     99.4700	 1022.00	 1030.93	-1774.93	  386.69
     99.5700	 1080.00	 1112.18	-1798.18	  386.43
     99.6700	 1133.00	 1204.80	-1837.80	  386.16
     99.7700	 1300.00	 1306.83	-1772.83	  385.90
     99.8700	 1393.00	 1415.63	-1788.63	  385.63
     99.9700	 1518.00	 1527.82	-1775.82	  385.36
    100.0700	 1694.00	 1639.38	-1711.38	  385.09
    100.1700	 1710.00	 1745.80	-1801.80	  384.82
    100.2700	 1851.00	 1842.54	-1757.54	  384.55
    100.3700	 1889.00	 1925.47	-1802.47	  384.28
    100.4700	 2021.00	 1991.33	-1736.33	  384.01
    100.5700	 2102.00	 2037.85	-1701.85	  383.73
    100.6700	 2170.00	 2063.60	-1659.60	  383.46
    100.7700	 2136.00	 2067.77	-1697.77	  383.19
    100.8700	 2104.00	 2050.16	-1712.16	  382.91
    100.9700	 2029.00	 2011.33	-1748.33	  382.64
    101.0700	 1956.00	 1953.07	-1763.07	  382.36
    101.1700	 1909.00	 1878.50	-1735.50	  382.08
    101.2700	 1839.00	 1791.97	-1718.97	  381.80
    101.3700	 1751.00	 1698.54	-1713.54	  381.53
    101.4700	 1558.00	 1603.30	-1811.30	  381.25
    101.5700	 1521.00	 1510.87	-1755.87	  380.97
    101.6700	 1439.00	 1425.02	-1752.02	  380.69
    101.7700	 1346.00	 1348.52	-1768.52	  380.41
    101.8700	 1235.00	 1283.04	-1814.04	  380.13
    101.9700	 1284.00	 1229.18	-1711.18	  379.85
    102.0700	 1215.00	 1186.52	-1737.52	  379.57
    102.1700	 1172.00	 1153.73	-1747.73	  379.29
    102.2700	 1093.00	 1128.77	-1801.77	  379.00
    102.3700	 1129.00	 1109.06	-1746.06	  378.72
    102.4700	 1101.00	 1091.82	-1756.82	  378.44
    102.5700	 1120.00	 1074.33	-1720.33	  378.16
    102.6700	 1022.00	 1054.37	-1798.37	  377.87
    102.7700	 1050.00	 1030.46	-1746.46	  377.59
    102.8700	  966.00	 1001.96	-1801.96	  377.31
    102.9700	  931.00	  969.10	-1804.10	  377.02
    103.0700	  877.00	  932.63	-1821.63	  376.74
    103.1700	  883.00	  893.71	-1776.71	  376.46
    103.2700	  880.00	  853.60	-1739.60	  376.17
    103.3700	  803.00	  813.55	-1776.55	  375.89
    103.4700	  788.00	  774.72	-1752.72	  375.60
    103.5700	  753.00	  738.08	-1751.08	  375.32
    103.6700	  652.00	  704.41	-1818.41	  375.03
    103.7700	  692.00	  674.23	-1748.23	  374.75
    103.8700	  682.00	  647.83	-1731.83	  374.46
    103.9700	  618.00	  625.32	-1773.32	  374.18
    104.0700	  608.00	  606.60	-1764.60	  373.90
    104.1700	  565.00	  591.45	-1792.45	  373.61
    104.2700	  619.00	  579.54	-1726.54	  373.33
    104.3700	  593.00	  570.48	-1743.48	  373.04
    104.4700	  509.00	  563.89	-1820.89	  372.76
    104.5700	  552.00	  559.36	-1773.36	  372.48
    104.6700	  563.00	  556.55	-1759.55	  372.19
    104.7700	  580.00	  555.10	-1741.10	  371.91
    104.8700	  606.00	  554.75	-1714.75	  371.63
    104.9700	  541.00	  555.25	-1780.25	  371.34
    105.0700	  530.00	  556.39	-1792.39	  371.06
    105.1700	  570.00	  558.05	-1754.05	  370.78
    105.2700	  576.00	  560.12	-1750.12	  370.50
    105.3700	  549.00	  562.51	-1779.51	  370.22
    105.4700	  505.00	  565.22	-1826.22	  369.93
    105.5700	  525.00	  568.26	-1809.26	  369.65
    105.6700	  533.00	  571.71	-1804.71	  369.37
    105.7700	  603.00	  575.66	-1738.66	  369.10
    105.8700	  534.00	  580.24	-1812.24	  368.82
    105.9700	  548.00	  585.58	-1803.58	  368.54
    106.0700	  536.00	  591.77	-1821.77	  368.26
    106.1700	  607.00	  598.88	-1757.88	  367.98
    106.2700	  549.00	  606.89	-1823.89	  367.71
    106.3700	  602.00	  615.73	-1779.73	  367.43
    106.4700	  557.00	  625.26	-1834.26	  367.16
    106.5700	  608.00	  635.25	-1793.25	  366.88
    106.6700	  615.00	  645.40	-1796.40	  366.61
    106.7700	  632.00	  655.35	-1789.35	  366.34
    106.8700	  617.00	  664.71	-1813.71	  366.06
    106.9700	  659.00	  673.06	-1780.06	  365.79
    107.0700	  639.00	  680.00	-1807.00	  365.52
    107.1700	  661.00	  685.20	-1790.20	  365.25
    107.2700	  639.00	  688.48	-1815.48	  364.99
    107.3700	  698.00	  689.82	-1757.82	  364.72
    107.4700	  676.00	  689.38	-1779.38	  364.45
    107.5700	  618.00	  687.49	-1835.49	  364.19
    107.6700	  691.00	  684.58	-1759.58	  363.92
    107.7700	  725.00	  681.11	-1722.11	  363.66
    107.8700	  693.00	  677.53	-1750.53	  363.40
    107.9700	  711.00	  674.21	-1729.21	  363.14
    108.0700	  708.00	  671.45	-1729.45	  362.88
    108.1700	  702.00	  669.43	-1733.43	  362.62
    108.2700	  662.00	  668.20	-1772.20	  362.37
    108.3700	  677.00	  667.71	-1756.71	  362.11
    108.4700	  612.00	  667.79	-1821.79	  361.86
    108.5700	  655.00	  668.18	-1779.18	  361.60
    108.6700	  681.00	  668.54	-1753.54	  361.35
    108.7700	  666.00	  668.48	-1768.48	  361.10
    108.8700	  704.00	  667.63	-1729.63	  360.86
    108.9700	  666.00	  665.66	-1765.66	  360.61
    109.0700	  687.00	  662.33	-1741.33	  360.36
    109.1700	  651.00	  657.55	-1772.55	  360.12
    109.2700	  683.00	  651.36	-1734.36	  359.88
    109.3700	  573.00	  643.91	-1836.91	  359.64
    109.4700	  590.00	  635.44	-1811.44	  359.40
    109.5700	  595.00	  626.25	-1797.25	  359.16
    109.6700	  632.00	  616.65	-1750.65	  358.93
    109.7700	  603.00	  606.95	-1769.95	  358.69
    109.8700	  602.00	  597.41	-1761.41	  358.46
    109.9700	  599.00	  588.30	-1755.30	  358.23
    110.0700	  579.00	  579.80	-1766.80	  358.01
    110.1700	  613.00	  572.09	-1725.09	  357.78
    110.2700	  581.00	  565.27	-1750.27	  357.56
    110.3700	  592.00	  559.39	-1733.39	  357.34
    110.4700	  561.00	  554.47	-1759.47	  357.12
    110.5700	  579.00	  550.50	-1737.50	  356.90
    110.6700	  517.00	  547.42	-1796.42	  356.68
    110.7700	  527.00	  545.17	-1784.17	  356.47
    110.8700	  511.00	  543.67	-1798.67	  356.26
    110.9700	  584.00	  542.83	-1724.83	  356.05
    111.0700	  540.00	  542.57	-1768.57	  355.85
    111.1700	  543.00	  542.82	-1765.82	  355.64
    111.2700	  563.00	  543.49	-1746.49	  355.44
    111.3700	  499.00	  544.52	-1811.52	  355.24
    111.4700	  581.00	  545.88	-1730.88	  355.05
    111.5700	  526.00	  547.50	-1787.50	  354.85
    111.6700	  562.00	  549.38	-1753.38	  354.66
    111.7700	  566.00	  551.48	-1751.48	  354.47
    111.8700	  523.00	  553.80	-1796.80	  354.29
    111.9700	  565.00	  556.32	-1757.32	  354.10
    112.0700	  550.00	  559.07	-1775.07	  353.92
    112.1700	  576.00	  562.04	-1752.04	  353.75
    112.2700	  540.00	  565.26	-1791.26	  353.57
    112.3700	  594.00	  568.77	-1740.77	  353.40
    112.4700	  571.00	  572.60	-1767.60	  353.23
    112.5700	  521.00	  576.80	-1821.80	  353.06
    112.6700	  633.00	  581.45	-1714.45	  352.90
    112.7700	  588.00	  586.62	-1764.62	  352.74
    112.8700	  630.00	  592.45	-1728.45	  352.58
    112.9700	  619.00	  599.07	-1746.07	  352.43
    113.0700	  673.00	  606.67	-1699.67	  352.28
    113.1700	  682.00	  615.52	-1699.52	  352.13
    113.2700	  737.00	  625.95	-1654.95	  351.99
    113.3700	  724.00	  638.36	-1680.36	  351.85
    113.4700	  758.00	  653.27	-1661.27	  351.71
    113.5700	  813.00	  671.34	-1624.34	  351.57
    113.6700	  885.00	  693.37	-1574.37	  351.44
    113.7700	  860.00	  720.34	-1626.34	  351.31
    113.8700	  915.00	  753.41	-1604.41	  351.19
    113.9700	 1003.00	  793.95	-1556.95	  351.07
    114.0700	 1000.00	  843.56	-1609.56	  350.95
    114.1700	 1061.00	  904.05	-1609.05	  350.84
    114.2700	 1155.00	  977.38	-1588.38	  350.73
    114.3700	 1231.00	 1065.75	-1600.75	  350.63
    114.4700	 1362.00	 1171.41	-1575.41	  350.52
    114.5700	 1512.00	 1296.69	-1550.69	  350.43
    114.6700	 1612.00	 1443.85	-1597.85	  350.33
    114.7700	 1796.00	 1614.96	-1584.96	  350.24
    114.8700	 1933.00	 1811.87	-1644.87	  350.16
    114.9700	 2158.00	 2035.85	-1643.85	  350.07
    115.0700	 2365.00	 2287.73	-1688.73	  350.00
    115.1700	 2552.00	 2567.45	-1781.45	  349.92
    115.2700	 2843.00	 2874.06	-1797.06	  349.85
    115.3700	 3078.00	 3205.72	-1893.72	  349.79
    115.4700	 3360.00	 3559.27	-1965.27	  349.73
    115.5700	 3821.00	 3930.57	-1875.57	  349.67
    115.6700	 4132.00	 4314.12	-1948.12	  349.62
    115.7700	 4518.00	 4703.18	-1951.18	  349.57
    115.8700	 4856.00	 5090.03	-2000.03	  349.53
    115.9700	 5144.00	 5465.64	-2087.64	  349.49
    116.0700	 5593.00	 5820.29	-1993.29	  349.45
    116.1700	 5939.00	 6143.43	-1970.43	  349.43
    116.2700	 6271.00	 6424.26	-1919.26	  349.40
    116.3700	 6586.00	 6652.48	-1832.48	  349.38
    116.4700	 6904.00	 6818.71	-1680.71	  349.37
    116.5700	 6952.00	 6915.79	-1729.79	  349.36
    116.6700	 6949.00	 6939.30	-1756.30	  349.35
    116.7700	 7064.00	 6888.36	-1590.36	  349.35
    116.8700	 6859.00	 6765.62	-1672.62	  349.35
    116.9700	 6676.00	 6577.00	-1667.00	  349.36
    117.0700	 6538.00	 6330.77	-1558.77	  349.38
    117.1700	 6010.00	 6036.88	-1792.88	  349.40
    117.2700	 5775.00	 5705.99	-1696.99	  349.42
    117.3700	 5173.00	 5348.59	-1941.59	  349.46
    117.4700	 5005.00	 4974.92	-1735.92	  349.49
    117.5700	 4524.00	 4594.13	-1836.13	  349.53
    117.6700	 4347.00	 4214.54	-1633.54	  349.58
    117.7700	 3967.00	 3843.33	-1642.33	  349.63
    117.8700	 3737.00	 3486.28	-1515.28	  349.69
    117.9700	 3314.00	 3148.19	-1600.19	  349.75
    118.0700	 2947.00	 2832.43	-1651.43	  349.82
    118.1700	 2585.00	 2541.43	-1722.43	  349.90
    118.2700	 2231.00	 2276.57	-1811.57	  349.98
    118.3700	 1983.00	 2038.20	-1821.20	  350.07
    118.4700	 1730.00	 1826.06	-1862.06	  350.16
    118.5700	 1559.00	 1639.14	-1846.14	  350.26
    118.6700	 1357.00	 1476.05	-1885.05	  350.36
    118.7700	 1262.00	 1335.01	-1839.01	  350.47
    118.8700	 1147.00	 1213.98	-1832.98	  350.59
    118.9700	 1065.00	 1110.91	-1811.91	  350.71
    119.0700	  912.00	 1023.64	-1877.64	  350.84
    119.1700	  871.00	  950.17	-1845.17	  350.98
    119.2700	  828.00	  888.57	-1826.57	  351.12
    119.3700	  813.00	  837.08	-1790.08	  351.27
    119.4700	  775.00	  794.14	-1785.14	  351.43
    119.5700	  662.00	  758.37	-1862.37	  351.59
    119.6700	  649.00	  728.58	-1845.58	  351.76
    119.7700	  662.00	  703.77	-1807.77	  351.93
    119.8700	  578.00	  683.07	-1871.07	  352.11
    119.9700	  611.00	  665.80	-1820.80	  352.30
    120.0700	  597.00	  651.37	-1820.37	  352.50
    120.1700	  599.00	  639.30	-1806.30	  352.70
    120.2700	  556.00	  629.24	-1839.24	  352.91
    120.3700	  579.00	  620.85	-1807.85	  353.13
    120.4700	  600.00	  613.91	-1779.91	  353.35
    120.5700	  590.00	  608.22	-1784.22	  353.58
    120.6700	  591.00	  603.63	-1778.63	  353.82
    120.7700	  582.00	  600.01	-1784.01	  354.07
    120.8700	  539.00	  597.28	-1824.28	  354.32
    120.9700	  538.00	  595.37	-1823.37	  354.58
    121.0700	  572.00	  594.20	-1788.20	  354.85
    121.1700	  575.00	  593.73	-1784.73	  355.13
    121.2700	  563.00	  593.91	-1796.91	  355.41
    121.3700	  601.00	  594.70	-1759.70	  355.70
    121.4700	  577.00	  596.04	-1785.04	  356.00
    121.5700	  540.00	  597.90	-1823.90	  356.31
    121.6700	  559.00	  600.20	-1807.20	  356.62
    121.7700	  620.00	  602.89	-1748.89	  356.94
    121.8700	  590.00	  605.88	-1781.88	  357.28
    121.9700	  621.00	  609.11	-1754.11	  357.61
    122.0700	  669.00	  612.48	-1709.48	  357.96
    122.1700	  679.00	  615.89	-1702.89	  358.32
    122.2700	  610.00	  619.24	-1775.24	  358.68
    122.3700	  693.00	  622.42	-1695.42	  359.05
    122.4700	  656.00	  625.31	-1735.31	  359.43
    122.5700	  694.00	  627.82	-1699.82	  359.82
    122.6700	  657.00	  629.84	-1738.84	  360.22
    122.7700	  610.00	  631.31	-1787.31	  360.63
    122.8700	  655.00	  632.16	-1743.16	  361.04
    122.9700	  635.00	  632.37	-1763.37	  361.47
    123.0700	  652.00	  631.92	-1745.92	  361.90
    123.1700	  652.00	  630.84	-1744.84	  362.34
    123.2700	  666.00	  629.17	-1729.17	  362.79
    123.3700	  657.00	  626.97	-1735.97	  363.25
    123.4700	  654.00	  624.32	-1736.31	  363.72
    123.5700	  623.00	  621.28	-1764.28	  364.20
    123.6700	  601.00	  617.93	-1782.93	  364.69
    123.7700	  630.00	  614.36	-1750.36	  365.19
    123.8700	  617.00	  610.65	-1759.65	  365.69
    123.9700	  626.00	  606.86	-1746.86	  366.21
    124.0700	  613.00	  603.06	-1756.06	  366.74
    124.1700	  625.00	  599.31	-1740.31	  367.27
    124.2700	  616.00	  595.67	-1745.68	  367.82
    124.3700	  616.00	  592.19	-1742.19	  368.37
    124.4700	  605.00	  588.88	-1749.88	  368.94
    124.5700	  519.00	  585.80	-1832.80	  369.51
    124.6700	  627.00	  582.95	-1721.95	  370.10
    124.7700	  579.00	  580.35	-1767.35	  370.70
    124.8700	  586.00	  578.03	-1758.03	  371.30
    124.9700	  602.00	  488.37	-1652.37	  371.92
    125.0700	  571.00	  488.99	-1766.00	  372.54
    125.1700	  615.00	  489.63	-1766.00	  373.18
    125.2700	  555.00	  490.28	-1766.00	  373.83
    125.3700	  596.00	  490.94	-1766.00	  374.49
    125.4700	  610.00	  491.60	-1766.00	  375.15
    125.5700	  576.00	  492.28	-1766.00	  375.83
    125.6700	  591.00	  492.97	-1766.00	  376.52
    125.7700	  596.00	  493.67	-1766.00	  377.22
    125.8700	  557.00	  494.39	-1766.00	  377.94
    125.9700	  626.00	  495.11	-1766.00	  378.66
    126.0700	  535.00	  495.84	-1766.00	  379.39
    126.1700	  557.00	  496.59	-1766.00	  380.14
    126.2700	  595.00	  497.35	-1766.00	  380.90
    126.3700	  563.00	  498.12	-1766.00	  381.67
    126.4700	  619.00	  498.90	-1766.00	  382.45
    126.5700	  614.00	  499.69	-1766.00	  383.24
    126.6700	  626.00	  500.49	-1766.00	  384.04
    126.7700	  562.00	  501.30	-1766.00	  384.85
    126.8700	  653.00	  502.13	-1766.00	  385.68
    126.9700	  601.00	  502.97	-1766.00	  386.52
    127.0700	  614.00	  503.82	-1766.00	  387.37
    127.1700	  617.00	  504.68	-1766.00	  388.23
    127.2700	  610.00	  505.56	-1766.00	  389.11
    127.3700	  658.00	  506.44	-1766.00	  389.99
    127.4700	  654.00	  507.34	-1766.00	  390.89
    127.5700	  675.00	  508.25	-1766.00	  391.80
    127.6700	  642.00	  509.18	-1766.00	  392.73
    127.7700	  708.00	  510.12	-1766.00	  393.67
    127.8700	  699.00	  511.06	-1766.00	  394.61
    127.9700	  728.00	  512.03	-1766.00	  395.58
    128.0700	  753.00	  513.00	-1766.00	  396.55
    128.1700	  775.00	  513.99	-1766.00	  397.54
    128.2700	  757.00	  514.99	-1766.00	  398.54
    128.3700	  824.00	  516.00	-1766.00	  399.55
    128.4700	  774.00	  517.03	-1766.00	  400.58
    128.5700	    0.00	  518.07	-1766.00	  401.62
    128.6700	    0.00	  519.12	-1766.00	  402.67
     12.3101	        	        	        	        	       0	(  0  0  2)	  0  1
     24.8925	        	        	        	        	       0	(  0  0  4)	  0  1
     28.3342	        	        	        	        	       0	(  1  0  0)	  0  1
     29.0314	        	        	        	        	       0	(  1  0  1)	  0  1
     31.0374	        	        	        	        	       0	(  1  0  2)	  0  1
     34.1455	        	        	        	        	       0	(  1  0  3)	  0  1
     37.7907	        	        	        	        	       0	(  0  0  6)	  0  1
     38.1223	        	        	        	        	       0	(  1  0  4)	  0  1
     42.7720	        	        	        	        	       0	(  1  0  5)	  0  1
     47.9555	        	        	        	        	       0	(  1  0  6)	  0  1
     50.2697	        	        	        	        	       0	(  1  1  0)	  0  1
     51.2111	        	        	        	        	       0	(  0  0  8)	  0  1
     51.9926	        	        	        	        	       0	(  1  1  2)	  0  1
     53.5854	        	        	        	        	       0	(  1  0  7)	  0  1
     56.9400	        	        	        	        	       0	(  1  1  4)	  0  1
     58.7661	        	        	        	        	       0	(  2  0  0)	  0  1
     59.1576	        	        	        	        	       0	(  2  0  1)	  0  1
     59.6151	        	        	        	        	       0	(  1  0  8)	  0  1
     60.3229	        	        	        	        	       0	(  2  0  2)	  0  1
     62.2359	        	        	        	        	       0	(  2  0  3)	  0  1
     64.6338	        	        	        	        	       0	(  1  1  6)	  0  1
     64.8597	        	        	        	        	       0	(  2  0  4)	  0  1
     65.4384	        	        	        	        	       0	(  0  0 10)	  0  1
     66.0307	        	        	        	        	       0	(  1  0  9)	  0  1
     68.1536	        	        	        	        	       0	(  2  0  5)	  0  1
     72.0806	        	        	        	        	       0	(  2  0  6)	  0  1
     72.8458	        	        	        	        	       0	(  1  0 10)	  0  1
     74.6703	        	        	        	        	       0	(  1  1  8)	  0  1
     76.6141	        	        	        	        	       0	(  2  0  7)	  0  1
     80.1024	        	        	        	        	       0	(  1  0 11)	  0  1
     80.9165	        	        	        	        	       0	(  0  0 12)	  0  1
     81.0054	        	        	        	        	       0	(  2  1  0)	  0  1
     81.3453	        	        	        	        	       0	(  2  1  1)	  0  1
     81.7437	        	        	        	        	       0	(  2  0  8)	  0  1
     82.3630	        	        	        	        	       0	(  2  1  2)	  0  1
     84.0540	        	        	        	        	       0	(  2  1  3)	  0  1
     86.4133	        	        	        	        	       0	(  2  1  4)	  0  1
     86.9398	        	        	        	        	       0	(  1  1 10)	  0  1
     87.4808	        	        	        	        	       0	(  2  0  9)	  0  1
     87.8753	        	        	        	        	       0	(  1  0 12)	  0  1
     89.4387	        	        	        	        	       0	(  2  1  5)	  0  1
     93.1355	        	        	        	        	       0	(  2  1  6)	  0  1
     93.8671	        	        	        	        	       0	(  2  0 10)	  0  1
     94.8928	        	        	        	        	       0	(  3  0  0)	  0  1
     95.2301	        	        	        	        	       0	(  3  0  1)	  0  1
     96.2431	        	        	        	        	       0	(  3  0  2)	  0  1
     96.2869	        	        	        	        	       0	(  1  0 13)	  0  1
     97.5233	        	        	        	        	       0	(  2  1  7)	  0  1
     97.9361	        	        	        	        	       0	(  3  0  3)	  0  1
     98.4524	        	        	        	        	       0	(  0  0 14)	  0  1
    100.3187	        	        	        	        	       0	(  3  0  4)	  0  1
    100.9875	        	        	        	        	       0	(  2  0 11)	  0  1
    101.8073	        	        	        	        	       0	(  1  1 12)	  0  1
    102.6447	        	        	        	        	       0	(  2  1  8)	  0  1
    103.4097	        	        	        	        	       0	(  3  0  5)	  0  1
    105.5375	        	        	        	        	       0	(  1  0 14)	  0  1
    107.2440	        	        	        	        	       0	(  3  0  6)	  0  1
    108.5802	        	        	        	        	       0	(  2  1  9)	  0  1
    108.9969	        	        	        	        	       0	(  2  0 12)	  0  1
    111.8832	        	        	        	        	       0	(  3  0  7)	  0  1
    115.4753	        	        	        	        	       0	(  2  1 10)	  0  1
    115.9781	        	        	        	        	       0	(  1  0 15)	  0  1
    116.6146	        	        	        	        	       0	(  2  2  0)	  0  1
    117.4352	        	        	        	        	       0	(  3  0  8)	  0  1
    118.1294	        	        	        	        	       0	(  2  2  2)	  0  1
    118.1788	        	        	        	        	       0	(  2  0 13)	  0  1
    119.9351	        	        	        	        	       0	(  0  0 16)	  0  1
    120.6466	        	        	        	        	       0	(  1  1 14)	  0  1
    122.8136	        	        	        	        	       0	(  2  2  4)	  0  1
    123.5999	        	        	        	        	       0	(  2  1 11)	  0  1
    124.0931	        	        	        	        	       0	(  3  0  9)	  0  1
    124.6782	        	        	        	        	       0	(  3  1  0)	  0  1
    125.0883	        	        	        	        	       0	(  3  1  1)	  0  1
    126.3313	        	        	        	        	       0	(  3  1  2)	  0  1
    128.3176	        	        	        	        	       0	(  1  0 16)	  0  1
    128.4488	        	        	        	        	       0	(  3  1  3)	  0  1
    129.1052	        	        	        	        	       0	(  2  0 14)	  0  1
    131.2505	        	        	        	        	       0	(  2  2  6)	  0  1
    131.5237	        	        	        	        	       0	(  3  1  4)	  0  1
    132.2309	        	        	        	        	       0	(  3  0 10)	  0  1
    133.5088	        	        	        	        	       0	(  2  1 12)	  0  1
    135.7090	        	        	        	        	       0	(  3  1  5)	  0  1
    141.3018	        	        	        	        	       0	(  3  1  6)	  0  1
    142.7052	        	        	        	        	       0	(  3  0 11)	  0  1
    143.2399	        	        	        	        	       0	(  2  0 15)	  0  1
    144.4816	        	        	        	        	       0	(  1  0 17)	  0  1
    145.4780	        	        	        	        	       0	(  2  2  8)	  0  1
    146.6588	        	        	        	        	       0	(  2  1 13)	  0  1
    148.9705	        	        	        	        	       0	(  3  1  7)	  0  1
    149.5721	        	        	        	        	       0	(  1  1 16)	  0  1
    153.9756	        	        	        	        	       0	(  0  0 18)	  0  1
    158.5737	        	        	        	        	       0	(  3  0 12)	  0  1
    158.8169	        	        	        	        	       0	(  4  0  0)	  0  1
    159.7725	        	        	        	        	       0	(  4  0  1)	  0  1
    160.9527	        	        	        	        	       0	(  3  1  8)	  0  1
    162.9458	        	        	        	        	       0	(  4  0  2)	  0  1
    169.6709	        	        	        	        	       0	(  2  0 16)	  0  1
    170.2676	        	        	        	        	       0	(  4  0  3)	  0  1
    174.0791	        	        	        	        	       0	(  2  1 14)	  0  1
