MSG Master    CELL:    5.89161   5.89161  23.15524   90.0000   90.0000  120.0000   SPGR: P 63/m m c             TEMP:    663.85
  2   1280     2.52000     0.00000    -0.09514     0.00000     0.00000    0
    96    96     0     0     2
       0.00000      10.00000
     125.00000     130.00000
 2Theta	Yobs	Ycal	Yobs-Ycal	Backg	Posr	(hkl)	K
      0.7700	    0.00	  733.12	-1861.08	  611.47
      0.8700	    0.00	  732.28	-1861.08	  610.64
      0.9700	   43.00	  731.45	-1861.08	  609.80
      1.0700	   50.00	  730.62	-1861.08	  608.97
      1.1700	   48.00	  729.78	-1861.08	  608.14
      1.2700	   38.00	  728.95	-1861.08	  607.31
      1.3700	   48.00	  728.12	-1861.08	  606.48
      1.4700	  112.00	  727.29	-1861.08	  605.65
      1.5700	  279.00	  726.46	-1861.08	  604.82
      1.6700	  476.00	  725.63	-1861.08	  603.99
      1.7700	  635.00	  724.81	-1861.08	  603.16
      1.8700	  618.00	  723.98	-1861.08	  602.33
      1.9700	  733.00	  723.15	-1861.08	  601.51
      2.0700	  799.00	  722.33	-1861.08	  600.68
      2.1700	  783.00	  721.50	-1861.08	  599.86
      2.2700	  750.00	  720.68	-1861.08	  599.04
      2.3700	  742.00	  719.86	-1861.08	  598.21
      2.4700	  736.00	  719.04	-1861.08	  597.39
      2.5700	  677.00	  718.22	-1861.08	  596.57
      2.6700	  711.00	  717.40	-1861.08	  595.75
      2.7700	  673.00	  716.58	-1861.08	  594.93
      2.8700	  639.00	  715.76	-1861.08	  594.12
      2.9700	  604.00	  714.95	-1861.08	  593.30
      3.0700	  646.00	  714.13	-1861.08	  592.49
      3.1700	  646.00	  713.32	-1861.08	  591.67
      3.2700	  672.00	  712.50	-1861.08	  590.86
      3.3700	  861.00	  711.69	-1861.08	  590.05
      3.4700	 1015.00	  710.88	-1861.08	  589.24
      3.5700	 1143.00	  710.07	-1861.08	  588.43
      3.6700	 1197.00	  709.26	-1861.08	  587.62
      3.7700	 1347.00	  708.45	-1861.08	  586.81
      3.8700	 1444.00	  707.65	-1861.08	  586.00
      3.9700	 1520.00	  706.84	-1861.08	  585.20
      4.0700	 1583.00	  706.04	-1861.08	  584.39
      4.1700	 1578.00	  705.24	-1861.08	  583.59
      4.2700	 1569.00	  704.43	-1861.08	  582.79
      4.3700	 1540.00	  703.63	-1861.08	  581.99
      4.4700	 1532.00	  702.83	-1861.08	  581.19
      4.5700	 1481.00	  702.04	-1861.08	  580.39
      4.6700	 1458.00	  701.24	-1861.08	  579.59
      4.7700	 1371.00	  700.44	-1861.08	  578.80
      4.8700	 1357.00	  699.65	-1861.08	  578.00
      4.9700	 1296.00	  698.85	-1861.08	  577.21
      5.0700	 1261.00	  698.06	-1861.08	  576.42
      5.1700	 1292.00	  697.27	-1861.08	  575.63
      5.2700	 1144.00	  696.48	-1861.08	  574.84
      5.3700	 1135.00	  695.70	-1861.08	  574.05
      5.4700	 1067.00	  694.91	-1861.08	  573.26
      5.5700	 1123.00	  694.12	-1861.08	  572.48
      5.6700	 1052.00	  693.34	-1861.08	  571.69
      5.7700	 1074.00	  692.56	-1861.08	  570.91
      5.8700	 1010.00	  691.78	-1861.08	  570.13
      5.9700	 1035.00	  691.00	-1861.08	  569.35
      6.0700	 1014.00	  690.22	-1861.08	  568.57
      6.1700	 1013.00	  689.44	-1861.08	  567.79
      6.2700	  965.00	  688.66	-1861.08	  567.02
      6.3700	  877.00	  687.89	-1861.08	  566.24
      6.4700	  946.00	  687.12	-1861.08	  565.47
      6.5700	  900.00	  686.35	-1861.08	  564.70
      6.6700	  883.00	  685.58	-1861.08	  563.93
      6.7700	  864.00	  684.81	-1861.08	  563.16
      6.8700	  846.00	  684.04	-1861.08	  562.40
      6.9700	  888.00	  683.28	-1861.08	  561.63
      7.0700	  845.00	  682.51	-1861.08	  560.87
      7.1700	  801.00	  681.75	-1861.08	  560.10
      7.2700	  872.00	  680.99	-1861.08	  559.34
      7.3700	  791.00	  680.23	-1861.08	  558.58
      7.4700	  845.00	  679.47	-1861.08	  557.83
      7.5700	  764.00	  678.72	-1861.08	  557.07
      7.6700	  729.00	  677.96	-1861.08	  556.32
      7.7700	  775.00	  677.21	-1861.08	  555.56
      7.8700	  739.00	  676.46	-1861.08	  554.81
      7.9700	  777.00	  675.71	-1861.08	  554.06
      8.0700	  805.00	  674.96	-1861.08	  553.31
      8.1700	  793.00	  674.21	-1861.08	  552.57
      8.2700	  744.00	  673.47	-1861.08	  551.82
      8.3700	  699.00	  672.72	-1861.08	  551.08
      8.4700	  722.00	  671.98	-1861.08	  550.34
      8.5700	  709.00	  671.24	-1861.08	  549.60
      8.6700	  705.00	  670.50	-1861.08	  548.86
      8.7700	  750.00	  669.77	-1861.08	  548.12
      8.8700	  706.00	  669.03	-1861.08	  547.39
      8.9700	  731.00	  668.30	-1861.08	  546.65
      9.0700	  724.00	  667.57	-1861.08	  545.92
      9.1700	  682.00	  666.84	-1861.08	  545.19
      9.2700	  724.00	  666.11	-1861.08	  544.46
      9.3700	  722.00	  665.38	-1861.08	  543.74
      9.4700	  723.00	  664.66	-1861.08	  543.01
      9.5700	  676.00	  663.93	-1861.08	  542.29
      9.6700	  735.00	  663.21	-1861.08	  541.57
      9.7700	  657.00	  662.49	-1861.08	  540.85
      9.8700	  702.00	  661.78	-1861.08	  540.13
      9.9700	  645.00	  661.06	-1861.08	  539.41
     10.0700	  683.00	  662.47	-1840.54	  538.70
     10.1700	  721.00	  661.99	-1802.07	  537.99
     10.2700	  708.00	  661.57	-1814.65	  537.28
     10.3700	  717.00	  661.21	-1805.29	  536.57
     10.4700	  669.00	  660.96	-1853.04	  535.86
     10.5700	  666.00	  660.85	-1855.93	  535.15
     10.6700	  657.00	  660.96	-1865.04	  534.45
     10.7700	  703.00	  661.39	-1819.46	  533.75
     10.8700	  653.00	  662.22	-1870.30	  533.05
     10.9700	  653.00	  663.55	-1871.62	  532.35
     11.0700	  657.00	  665.40	-1869.47	  531.66
     11.1700	  617.00	  667.78	-1911.85	  530.96
     11.2700	  664.00	  670.72	-1867.79	  530.27
     11.3700	  720.00	  674.28	-1815.36	  529.58
     11.4700	  661.00	  678.58	-1878.65	  528.89
     11.5700	  694.00	  683.79	-1850.87	  528.20
     11.6700	  686.00	  690.20	-1865.28	  527.52
     11.7700	  683.00	  698.13	-1876.20	  526.84
     11.8700	  750.00	  707.88	-1818.95	  526.16
     11.9700	  793.00	  719.40	-1787.47	  525.48
     12.0700	  797.00	  731.78	-1795.85	  524.80
     12.1700	  774.00	  742.62	-1829.69	  524.12
     12.2700	  814.00	  747.53	-1794.60	  523.45
     12.3700	  746.00	  741.38	-1856.46	  522.78
     12.4700	  775.00	  723.90	-1809.98	  522.11
     12.5700	  694.00	  702.27	-1869.35	  521.44
     12.6700	  644.00	  683.38	-1900.46	  520.78
     12.7700	  652.00	  669.49	-1878.57	  520.11
     12.8700	  597.00	  660.15	-1924.23	  519.45
     12.9700	  632.00	  654.14	-1883.21	  518.79
     13.0700	  645.00	  650.15	-1866.23	  518.13
     13.1700	  646.00	  647.36	-1862.44	  517.48
     13.2700	  634.00	  645.23	-1872.31	  516.82
     13.3700	  669.00	  643.50	-1835.57	  516.17
     13.4700	  625.00	  642.02	-1878.09	  515.52
     13.5700	  589.00	  640.71	-1912.79	  514.88
     13.6700	  633.00	  639.54	-1867.62	  514.23
     13.7700	  628.00	  638.47	-1871.54	  513.59
     13.8700	  640.00	  637.47	-1858.55	  512.94
     13.9700	  599.00	  636.53	-1898.61	  512.31
     14.0700	  615.00	  635.64	-1881.72	  511.67
     14.1700	  605.00	  634.79	-1890.87	  511.03
     14.2700	  641.00	  633.98	-1854.05	  510.40
     14.3700	  678.00	  633.18	-1816.26	  509.77
     14.4700	  658.00	  632.42	-1835.49	  509.14
     14.5700	  598.00	  631.67	-1894.74	  508.51
     14.6700	  628.00	  630.94	-1864.01	  507.89
     14.7700	  590.00	  630.22	-1901.29	  507.26
     14.8700	  651.00	  629.51	-1839.59	  506.64
     14.9700	  629.00	  628.82	-1860.89	  506.02
     15.0700	  650.00	  628.13	-1839.21	  505.40
     15.1700	  636.00	  627.46	-1852.53	  504.79
     15.2700	  592.00	  626.79	-1895.87	  504.18
     15.3700	  621.00	  626.13	-1866.21	  503.57
     15.4700	  659.00	  625.48	-1827.55	  502.96
     15.5700	  601.00	  624.83	-1884.91	  502.35
     15.6700	  614.00	  624.19	-1871.26	  501.75
     15.7700	  603.00	  623.55	-1881.63	  501.14
     15.8700	  603.00	  622.92	-1881.00	  500.54
     15.9700	  564.00	  622.29	-1919.37	  499.95
     16.0700	  593.00	  621.67	-1889.75	  499.35
     16.1700	  612.00	  621.05	-1870.13	  498.76
     16.2700	  616.00	  620.44	-1865.51	  498.16
     16.3700	  661.00	  619.83	-1819.90	  497.57
     16.4700	  635.00	  619.22	-1845.30	  496.99
     16.5700	  645.00	  618.62	-1834.69	  496.40
     16.6700	  563.00	  618.02	-1916.09	  495.82
     16.7700	  633.00	  617.42	-1845.50	  495.24
     16.8700	  546.00	  616.83	-1931.91	  494.66
     16.9700	  631.00	  616.24	-1846.32	  494.08
     17.0700	  612.00	  615.65	-1864.73	  493.51
     17.1700	  556.00	  615.07	-1920.15	  492.93
     17.2700	  607.00	  614.49	-1868.56	  492.36
     17.3700	  589.00	  613.91	-1885.99	  491.79
     17.4700	  585.00	  613.34	-1889.41	  491.23
     17.5700	  602.00	  612.76	-1871.84	  490.66
     17.6700	  633.00	  612.19	-1840.27	  490.10
     17.7700	  610.00	  611.63	-1862.70	  489.54
     17.8700	  631.00	  611.06	-1841.14	  488.99
     17.9700	  572.00	  610.50	-1899.58	  488.43
     18.0700	  598.00	  609.94	-1873.02	  487.88
     18.1700	  608.00	  609.39	-1862.47	  487.33
     18.2700	  618.00	  608.84	-1851.91	  486.78
     18.3700	  621.00	  609.34	-1849.42	  486.23
     18.4700	  618.00	  608.81	-1851.89	  485.69
     18.5700	  624.00	  608.89	-1845.96	  485.14
     18.6700	  627.00	  608.38	-1842.46	  484.60
     18.7700	  593.00	  607.87	-1875.95	  484.07
     18.8700	  602.00	  607.37	-1866.45	  483.53
     18.9700	  610.00	  606.88	-1857.95	  483.00
     19.0700	  555.00	  606.38	-1912.46	  482.47
     19.1700	  581.00	  605.89	-1885.97	  481.94
     19.2700	  595.00	  605.41	-1871.48	  481.41
     19.3700	  587.00	  604.93	-1879.00	  480.89
     19.4700	  635.00	  604.45	-1830.53	  480.36
     19.5700	  559.00	  603.98	-1906.05	  479.84
     19.6700	  557.00	  603.51	-1907.58	  479.32
     19.7700	  575.00	  603.04	-1889.12	  478.81
     19.8700	  549.00	  602.63	-1914.70	  478.29
     19.9700	  569.00	  602.17	-1894.25	  477.78
     20.0700	  614.00	  601.72	-1848.80	  477.27
     20.1700	  584.00	  601.28	-1878.35	  476.77
     20.2700	  579.00	  600.84	-1882.91	  476.26
     20.3700	  623.00	  600.40	-1838.48	  475.76
     20.4700	  617.00	  599.97	-1844.04	  475.26
     20.5700	  640.00	  599.54	-1820.62	  474.76
     20.6700	  601.00	  599.12	-1859.20	  474.26
     20.7700	  612.00	  598.71	-1847.78	  473.77
     20.8700	  598.00	  598.30	-1861.38	  473.28
     20.9700	  623.00	  597.90	-1835.97	  472.79
     21.0700	  584.00	  597.50	-1874.58	  472.30
     21.1700	  581.00	  597.11	-1877.19	  471.82
     21.2700	  551.00	  596.73	-1906.80	  471.33
     21.3700	  576.00	  596.35	-1881.43	  470.85
     21.4700	  612.00	  595.98	-1845.06	  470.37
     21.5700	  588.00	  595.63	-1868.70	  469.90
     21.6700	  604.00	  595.27	-1852.35	  469.42
     21.7700	  608.00	  594.93	-1848.01	  468.95
     21.8700	  638.00	  594.60	-1817.68	  468.48
     21.9700	  604.00	  594.28	-1851.35	  468.01
     22.0700	  608.00	  593.96	-1847.04	  467.55
     22.1700	  546.00	  593.85	-1908.92	  467.09
     22.2700	  575.00	  593.56	-1879.64	  466.63
     22.3700	  582.00	  593.29	-1872.37	  466.17
     22.4700	  651.00	  593.04	-1803.11	  465.71
     22.5700	  611.00	  592.80	-1842.87	  465.26
     22.6700	  623.00	  592.58	-1830.65	  464.80
     22.7700	  570.00	  592.37	-1883.45	  464.35
     22.8700	  589.00	  592.20	-1864.27	  463.91
     22.9700	  598.00	  592.05	-1855.12	  463.46
     23.0700	  606.00	  591.92	-1847.00	  463.02
     23.1700	  595.00	  591.84	-1857.91	  462.58
     23.2700	  593.00	  591.79	-1859.86	  462.14
     23.3700	  556.00	  591.79	-1896.87	  461.70
     23.4700	  605.00	  591.85	-1847.92	  461.27
     23.5700	  605.00	  591.98	-1848.06	  460.84
     23.6700	  596.00	  592.21	-1857.28	  460.41
     23.7700	  613.00	  592.56	-1840.64	  459.98
     23.8700	  600.00	  593.10	-1854.18	  459.55
     23.9700	  596.00	  593.92	-1859.00	  459.13
     24.0700	  559.00	  595.13	-1897.21	  458.71
     24.1700	  597.00	  597.09	-1861.16	  458.29
     24.2700	  644.00	  600.11	-1817.19	  457.87
     24.3700	  645.00	  604.63	-1820.71	  457.46
     24.4700	  626.00	  611.07	-1846.15	  457.04
     24.5700	  614.00	  619.58	-1866.66	  456.63
     24.6700	  657.00	  629.81	-1833.89	  456.23
     24.7700	  654.00	  640.57	-1847.65	  455.82
     24.8700	  686.00	  649.40	-1824.48	  455.42
     24.9700	  661.00	  652.67	-1852.74	  455.02
     25.0700	  713.00	  647.69	-1795.76	  454.62
     25.1700	  675.00	  636.59	-1822.66	  454.22
     25.2700	  652.00	  624.57	-1833.64	  453.82
     25.3700	  676.00	  614.81	-1799.89	  453.43
     25.4700	  633.00	  608.13	-1836.21	  453.04
     25.5700	  631.00	  604.13	-1834.21	  452.65
     25.6700	  613.00	  602.09	-1850.16	  452.27
     25.7700	  641.00	  601.32	-1821.40	  451.88
     25.8700	  594.00	  601.38	-1868.45	  451.50
     25.9700	  600.00	  601.99	-1863.07	  451.12
     26.0700	  616.00	  603.05	-1848.13	  450.74
     26.1700	  629.00	  604.52	-1836.60	  450.37
     26.2700	  597.00	  606.40	-1870.48	  449.99
     26.3700	  627.00	  608.73	-1842.80	  449.62
     26.4700	  667.00	  611.56	-1805.63	  449.25
     26.5700	  584.00	  614.97	-1892.05	  448.89
     26.6700	  634.00	  619.09	-1846.17	  448.52
     26.7700	  668.00	  624.06	-1817.14	  448.16
     26.8700	  641.00	  630.10	-1850.17	  447.80
     26.9700	  641.00	  637.47	-1857.55	  447.44
     27.0700	  707.00	  646.58	-1800.65	  447.08
     27.1700	  697.00	  657.98	-1822.06	  446.73
     27.2700	  658.00	  672.57	-1875.65	  446.38
     27.3700	  719.00	  691.91	-1833.99	  446.03
     27.4700	  724.00	  719.09	-1856.16	  445.68
     27.5700	  697.00	  760.43	-1924.50	  445.34
     27.6700	  754.00	  828.33	-1935.40	  444.99
     27.7700	  791.00	  944.71	-2014.79	  444.65
     27.8700	  933.00	 1143.22	-2071.29	  444.31
     27.9700	 1081.00	 1464.48	-2244.56	  443.98
     28.0700	 1663.00	 1938.06	-2136.13	  443.64
     28.1700	 2539.00	 2550.10	-1872.18	  443.31
     28.2700	 3465.00	 3203.05	-1599.13	  442.98
     28.3700	 4178.00	 3689.57	-1372.64	  442.65
     28.4700	 4272.00	 3746.57	-1335.65	  442.32
     28.5700	 3436.00	 3321.14	-1746.22	  442.00
     28.6700	 2604.00	 2742.85	-1999.93	  441.67
     28.7700	 2104.00	 2341.51	-2098.59	  441.35
     28.8700	 1976.00	 2214.15	-2099.23	  441.04
     28.9700	 2280.00	 2284.27	-1865.35	  440.72
     29.0700	 2496.00	 2380.51	-1745.58	  440.41
     29.1700	 2492.00	 2314.00	-1683.08	  440.09
     29.2700	 2093.00	 2017.01	-1785.09	  439.78
     29.3700	 1628.00	 1618.10	-1851.18	  439.48
     29.4700	 1273.00	 1265.35	-1853.42	  439.17
     29.5700	 1004.00	 1014.65	-1871.72	  438.87
     29.6700	  888.00	  859.82	-1832.90	  438.56
     29.7700	  821.00	  771.71	-1811.78	  438.26
     29.8700	  742.00	  721.77	-1840.85	  437.97
     29.9700	  742.00	  691.33	-1810.41	  437.67
     30.0700	  763.00	  670.86	-1768.93	  437.38
     30.1700	  719.00	  656.15	-1798.22	  437.09
     30.2700	  729.00	  645.49	-1777.56	  436.80
     30.3700	  656.00	  638.33	-1843.41	  436.51
     30.4700	  687.00	  634.89	-1808.97	  436.22
     30.5700	  700.00	  636.00	-1797.08	  435.94
     30.6700	  673.00	  642.88	-1830.96	  435.66
     30.7700	  660.00	  656.38	-1857.46	  435.38
     30.8700	  654.00	  675.68	-1882.76	  435.10
     30.9700	  723.00	  697.06	-1835.14	  434.83
     31.0700	  682.00	  713.24	-1892.32	  434.55
     31.1700	  744.00	  714.62	-1831.70	  434.28
     31.2700	  689.00	  696.73	-1868.81	  434.01
     31.3700	  700.00	  667.66	-1828.73	  433.74
     31.4700	  655.00	  639.14	-1845.22	  433.48
     31.5700	  640.00	  617.02	-1838.10	  433.22
     31.6700	  636.00	  602.07	-1827.15	  432.95
     31.7700	  623.00	  592.79	-1830.87	  432.69
     31.8700	  585.00	  587.17	-1863.25	  432.44
     31.9700	  627.00	  583.62	-1817.70	  432.18
     32.0700	  571.00	  581.21	-1871.29	  431.93
     32.1700	  565.00	  579.46	-1875.54	  431.68
     32.2700	  600.00	  578.17	-1839.24	  431.43
     32.3700	  600.00	  577.23	-1838.30	  431.18
     32.4700	  579.00	  576.60	-1858.68	  430.93
     32.5700	  635.00	  576.28	-1802.36	  430.69
     32.6700	  628.00	  576.27	-1809.35	  430.45
     32.7700	  606.00	  576.60	-1831.67	  430.21
     32.8700	  612.00	  577.34	-1826.41	  429.97
     32.9700	  579.00	  578.51	-1860.59	  429.73
     33.0700	  610.00	  580.28	-1831.36	  429.50
     33.1700	  624.00	  582.87	-1819.95	  429.26
     33.2700	  639.00	  586.71	-1808.78	  429.03
     33.3700	  650.00	  592.62	-1803.69	  428.80
     33.4700	  606.00	  602.19	-1857.27	  428.58
     33.5700	  578.00	  618.24	-1901.32	  428.35
     33.6700	  679.00	  645.14	-1827.22	  428.13
     33.7700	  729.00	  688.37	-1820.45	  427.91
     33.8700	  807.00	  752.46	-1806.54	  427.69
     33.9700	  845.00	  836.84	-1852.92	  427.47
     34.0700	  989.00	  931.05	-1803.13	  427.25
     34.1700	 1102.00	 1011.95	-1771.03	  427.04
     34.2700	 1105.00	 1046.44	-1802.52	  426.83
     34.3700	 1071.00	 1011.22	-1801.30	  426.62
     34.4700	  975.00	  922.25	-1808.33	  426.41
     34.5700	  863.00	  820.42	-1818.50	  426.20
     34.6700	  673.00	  733.67	-1921.75	  426.00
     34.7700	  633.00	  670.90	-1898.97	  425.79
     34.8700	  614.00	  630.27	-1877.35	  425.59
     34.9700	  631.00	  605.77	-1835.85	  425.39
     35.0700	  631.00	  591.28	-1821.36	  425.20
     35.1700	  561.00	  582.36	-1882.43	  425.00
     35.2700	  612.00	  576.39	-1825.46	  424.80
     35.3700	  566.00	  572.05	-1867.13	  424.61
     35.4700	  579.00	  568.71	-1850.79	  424.42
     35.5700	  637.00	  566.05	-1790.12	  424.23
     35.6700	  590.00	  563.88	-1834.95	  424.05
     35.7700	  543.00	  562.08	-1880.16	  423.86
     35.8700	  537.00	  560.58	-1884.66	  423.68
     35.9700	  543.00	  559.32	-1877.40	  423.50
     36.0700	  573.00	  558.25	-1846.33	  423.32
     36.1700	  564.00	  557.35	-1854.43	  423.14
     36.2700	  539.00	  556.59	-1878.67	  422.96
     36.3700	  551.00	  555.95	-1866.03	  422.79
     36.4700	  572.00	  555.94	-1845.01	  422.61
     36.5700	  520.00	  555.54	-1896.62	  422.44
     36.6700	  550.00	  555.26	-1866.34	  422.27
     36.7700	  558.00	  555.11	-1858.18	  422.10
     36.8700	  520.00	  555.09	-1896.17	  421.94
     36.9700	  546.00	  555.26	-1870.34	  421.77
     37.0700	  527.00	  555.86	-1889.94	  421.61
     37.1700	  546.00	  556.60	-1871.67	  421.45
     37.2700	  533.00	  557.90	-1885.98	  421.29
     37.3700	  549.00	  560.06	-1872.13	  421.13
     37.4700	  528.00	  563.52	-1896.60	  420.97
     37.5700	  573.00	  568.96	-1857.04	  420.82
     37.6700	  591.00	  577.14	-1847.21	  420.66
     37.7700	  618.00	  588.72	-1831.80	  420.51
     37.8700	  608.00	  603.82	-1856.90	  420.36
     37.9700	  583.00	  621.46	-1899.54	  420.21
     38.0700	  621.00	  639.20	-1879.28	  420.07
     38.1700	  664.00	  653.08	-1850.16	  419.92
     38.2700	  665.00	  657.73	-1853.81	  419.78
     38.3700	  624.00	  649.39	-1886.47	  419.64
     38.4700	  596.00	  630.85	-1895.92	  419.50
     38.5700	  551.00	  608.30	-1918.38	  419.36
     38.6700	  533.00	  589.24	-1917.31	  419.22
     38.7700	  555.00	  574.75	-1880.82	  419.08
     38.8700	  504.00	  564.74	-1921.82	  418.95
     38.9700	  551.00	  558.34	-1868.41	  418.82
     39.0700	  558.00	  554.37	-1857.45	  418.69
     39.1700	  532.00	  551.88	-1880.96	  418.56
     39.2700	  531.00	  550.22	-1880.29	  418.43
     39.3700	  539.00	  549.02	-1871.10	  418.30
     39.4700	  586.00	  548.10	-1823.18	  418.18
     39.5700	  591.00	  547.36	-1817.44	  418.05
     39.6700	  539.00	  546.76	-1868.83	  417.93
     39.7700	  521.00	  546.25	-1886.33	  417.81
     39.8700	  562.00	  545.82	-1844.90	  417.69
     39.9700	  512.00	  544.90	-1893.98	  417.57
     40.0700	  544.00	  544.60	-1861.68	  417.46
     40.1700	  570.00	  544.35	-1835.43	  417.34
     40.2700	  482.00	  544.14	-1923.22	  417.23
     40.3700	  540.00	  543.96	-1865.04	  417.12
     40.4700	  541.00	  544.36	-1864.44	  417.01
     40.5700	  537.00	  544.26	-1868.34	  416.90
     40.6700	  503.00	  544.19	-1902.27	  416.79
     40.7700	  528.00	  544.15	-1877.23	  416.69
     40.8700	  559.00	  544.15	-1846.22	  416.58
     40.9700	  501.00	  544.18	-1904.26	  416.48
     41.0700	  559.00	  544.25	-1846.33	  416.38
     41.1700	  536.00	  544.37	-1869.45	  416.28
     41.2700	  513.00	  544.54	-1892.62	  416.18
     41.3700	  508.00	  544.78	-1897.86	  416.08
     41.4700	  585.00	  545.15	-1821.22	  415.98
     41.5700	  538.00	  545.56	-1868.63	  415.89
     41.6700	  564.00	  546.09	-1843.17	  415.80
     41.7700	  505.00	  546.81	-1902.88	  415.70
     41.8700	  544.00	  547.78	-1864.86	  415.61
     41.9700	  515.00	  549.19	-1895.26	  415.52
     42.0700	  527.00	  551.33	-1885.40	  415.43
     42.1700	  547.00	  554.73	-1868.81	  415.35
     42.2700	  553.00	  560.20	-1868.28	  415.26
     42.3700	  544.00	  568.76	-1885.84	  415.18
     42.4700	  579.00	  581.41	-1863.49	  415.10
     42.5700	  569.00	  598.63	-1890.71	  415.01
     42.6700	  583.00	  619.61	-1897.69	  414.93
     42.7700	  629.00	  641.60	-1873.68	  414.85
     42.8700	  618.00	  659.07	-1902.15	  414.78
     42.9700	  643.00	  665.22	-1883.30	  414.70
     43.0700	  646.00	  656.80	-1871.88	  414.62
     43.1700	  642.00	  637.61	-1856.69	  414.55
     43.2700	  550.00	  614.98	-1926.05	  414.48
     43.3700	  563.00	  594.27	-1892.35	  414.41
     43.4700	  584.00	  578.07	-1855.15	  414.34
     43.5700	  538.00	  566.33	-1889.41	  414.27
     43.6700	  533.00	  558.55	-1886.63	  414.20
     43.7700	  579.00	  553.66	-1835.74	  414.13
     43.8700	  552.00	  550.63	-1859.71	  414.07
     43.9700	  576.00	  548.71	-1833.79	  414.00
     44.0700	  528.00	  547.42	-1880.50	  413.94
     44.1700	  602.00	  546.51	-1805.58	  413.88
     44.2700	  536.00	  545.82	-1870.90	  413.82
     44.3700	  544.00	  545.30	-1862.37	  413.76
     44.4700	  571.00	  544.89	-1834.97	  413.70
     44.5700	  525.00	  544.79	-1880.87	  413.64
     44.6700	  567.00	  544.55	-1838.63	  413.58
     44.7700	  569.00	  544.38	-1836.46	  413.53
     44.8700	  546.00	  544.26	-1859.33	  413.48
     44.9700	  553.00	  544.18	-1852.26	  413.42
     45.0700	  575.00	  544.15	-1830.23	  413.37
     45.1700	  509.00	  544.17	-1896.24	  413.32
     45.2700	  595.00	  544.21	-1810.28	  413.27
     45.3700	  601.00	  544.28	-1804.35	  413.22
     45.4700	  553.00	  544.38	-1852.46	  413.17
     45.5700	  552.00	  544.60	-1853.68	  413.13
     45.6700	  504.00	  544.77	-1901.84	  413.08
     45.7700	  582.00	  544.97	-1824.04	  413.04
     45.8700	  567.00	  545.20	-1839.28	  413.00
     45.9700	  567.00	  545.47	-1839.55	  412.95
     46.0700	  580.00	  545.78	-1826.85	  412.91
     46.1700	  547.00	  546.13	-1860.20	  412.87
     46.2700	  576.00	  546.61	-1831.68	  412.83
     46.3700	  595.00	  547.06	-1813.14	  412.79
     46.4700	  566.00	  547.57	-1842.65	  412.76
     46.5700	  512.00	  547.98	-1897.06	  412.72
     46.6700	  571.00	  548.66	-1838.73	  412.69
     46.7700	  565.00	  549.43	-1845.51	  412.65
     46.8700	  506.00	  550.34	-1905.42	  412.62
     46.9700	  549.00	  551.42	-1863.50	  412.59
     47.0700	  555.00	  552.77	-1858.85	  412.55
     47.1700	  571.00	  554.52	-1844.60	  412.52
     47.2700	  508.00	  556.94	-1910.02	  412.49
     47.3700	  549.00	  560.42	-1872.50	  412.47
     47.4700	  611.00	  565.52	-1815.59	  412.44
     47.5700	  561.00	  572.89	-1872.97	  412.41
     47.6700	  574.00	  583.12	-1870.20	  412.39
     47.7700	  635.00	  596.42	-1822.50	  412.36
     47.8700	  586.00	  612.27	-1887.35	  412.34
     47.9700	  608.00	  628.94	-1882.01	  412.31
     48.0700	  697.00	  643.17	-1807.24	  412.29
     48.1700	  635.00	  650.78	-1876.85	  412.27
     48.2700	  609.00	  649.56	-1901.63	  412.25
     48.3700	  601.00	  640.07	-1900.15	  412.23
     48.4700	  615.00	  626.98	-1873.06	  412.21
     48.5700	  596.00	  614.20	-1879.27	  412.19
     48.6700	  572.00	  603.97	-1893.05	  412.17
     48.7700	  578.00	  597.20	-1880.28	  412.16
     48.8700	  618.00	  593.93	-1837.00	  412.14
     48.9700	  606.00	  593.79	-1848.86	  412.13
     49.0700	  568.00	  596.32	-1889.40	  412.11
     49.1700	  548.00	  601.25	-1914.32	  412.10
     49.2700	  627.00	  608.63	-1842.71	  412.09
     49.3700	  607.00	  619.17	-1873.25	  412.07
     49.4700	  573.00	  634.75	-1922.83	  412.06
     49.5700	  646.00	  659.45	-1874.52	  412.05
     49.6700	  682.00	  701.17	-1880.25	  412.04
     49.7700	  717.00	  773.26	-1917.34	  412.03
     49.8700	  860.00	  894.63	-1895.71	  412.03
     49.9700	 1044.00	 1086.20	-1903.27	  412.02
     50.0700	 1382.00	 1362.20	-1841.28	  412.01
     50.1700	 1800.00	 1717.22	-1778.30	  412.01
     50.2700	 2166.00	 2112.58	-1807.66	  412.00
     50.3700	 2535.00	 2467.78	-1793.85	  412.00
     50.4700	 2772.00	 2670.98	-1760.06	  411.99
     50.5700	 2716.00	 2635.23	-1780.31	  411.99
     50.6700	 2319.00	 2375.43	-1917.50	  411.99
     50.7700	 1984.00	 1997.73	-1874.80	  411.98
     50.8700	 1499.00	 1611.34	-1973.41	  411.98
     50.9700	 1140.00	 1284.66	-2005.73	  411.98
     51.0700	  966.00	 1044.18	-1939.26	  411.98
     51.1700	  802.00	  886.83	-1945.90	  411.98
     51.2700	  766.00	  793.55	-1888.62	  411.98
     51.3700	  726.00	  741.26	-1876.34	  411.98
     51.4700	  742.00	  710.47	-1829.55	  411.99
     51.5700	  688.00	  688.78	-1861.86	  411.99
     51.6700	  703.00	  670.69	-1828.77	  411.99
     51.7700	  644.00	  655.08	-1872.16	  412.00
     51.8700	  656.00	  642.23	-1847.31	  412.00
     51.9700	  645.00	  632.37	-1848.45	  412.01
     52.0700	  648.00	  625.23	-1838.31	  412.01
     52.1700	  628.00	  620.12	-1853.20	  412.02
     52.2700	  652.00	  616.23	-1825.31	  412.03
     52.3700	  675.00	  613.11	-1799.19	  412.03
     52.4700	  629.00	  610.92	-1843.00	  412.04
     52.5700	  592.00	  610.21	-1879.29	  412.05
     52.6700	  643.00	  611.69	-1829.77	  412.06
     52.7700	  622.00	  616.34	-1855.42	  412.07
     52.8700	  586.00	  625.60	-1900.68	  412.08
     52.9700	  624.00	  641.64	-1878.72	  412.09
     53.0700	  685.00	  667.39	-1843.46	  412.10
     53.1700	  736.00	  706.28	-1831.36	  412.11
     53.2700	  747.00	  761.51	-1875.58	  412.12
     53.3700	  828.00	  834.67	-1867.75	  412.13
     53.4700	  938.00	  924.33	-1847.40	  412.14
     53.5700	 1036.00	 1023.64	-1848.72	  412.16
     53.6700	 1148.00	 1118.87	-1831.95	  412.17
     53.7700	 1226.00	 1188.73	-1823.81	  412.18
     53.8700	 1297.00	 1210.88	-1774.96	  412.20
     53.9700	 1224.00	 1176.63	-1813.70	  412.21
     54.0700	 1141.00	 1098.78	-1818.86	  412.23
     54.1700	 1049.00	 1001.02	-1813.10	  412.24
     54.2700	  872.00	  903.43	-1892.51	  412.26
     54.3700	  814.00	  817.98	-1865.06	  412.27
     54.4700	  771.00	  749.78	-1839.85	  412.29
     54.5700	  692.00	  699.38	-1868.45	  412.31
     54.6700	  666.00	  664.54	-1859.61	  412.32
     54.7700	  642.00	  641.80	-1860.88	  412.34
     54.8700	  601.00	  627.69	-1887.77	  412.36
     54.9700	  642.00	  619.33	-1838.41	  412.38
     55.0700	  623.00	  614.71	-1852.79	  412.39
     55.1700	  643.00	  612.55	-1830.63	  412.41
     55.2700	  636.00	  612.14	-1837.22	  412.43
     55.3700	  620.00	  613.12	-1854.20	  412.45
     55.4700	  608.00	  615.37	-1868.45	  412.47
     55.5700	  593.00	  618.89	-1886.97	  412.49
     55.6700	  620.00	  623.82	-1864.89	  412.51
     55.7700	  604.00	  630.44	-1887.52	  412.53
     55.8700	  652.00	  639.33	-1848.41	  412.55
     55.9700	  621.00	  651.55	-1891.62	  412.57
     56.0700	  656.00	  669.09	-1874.17	  412.59
     56.1700	  643.00	  695.52	-1913.59	  412.61
     56.2700	  744.00	  736.67	-1853.75	  412.63
     56.3700	  836.00	  801.23	-1826.31	  412.66
     56.4700	  867.00	  900.53	-1894.61	  412.68
     56.5700	 1031.00	 1046.80	-1876.88	  412.70
     56.6700	 1175.00	 1249.76	-1935.84	  412.72
     56.7700	 1530.00	 1511.66	-1842.74	  412.74
     56.8700	 1859.00	 1821.33	-1823.41	  412.77
     56.9700	 2143.00	 2148.73	-1866.81	  412.79
     57.0700	 2509.00	 2440.64	-1792.71	  412.81
     57.1700	 2737.00	 2625.33	-1749.41	  412.83
     57.2700	 2584.00	 2641.77	-1918.85	  412.86
     57.3700	 2357.00	 2483.65	-1987.73	  412.88
     57.4700	 2188.00	 2205.65	-1878.72	  412.90
     57.5700	 1780.00	 1881.56	-1962.64	  412.93
     57.6700	 1463.00	 1569.09	-1967.17	  412.95
     57.7700	 1156.00	 1301.65	-2006.73	  412.97
     57.8700	  988.00	 1093.30	-1966.38	  413.00
     57.9700	  902.00	  943.98	-1903.06	  413.02
     58.0700	  790.00	  845.58	-1916.66	  413.05
     58.1700	  739.00	  787.29	-1909.37	  413.07
     58.2700	  712.00	  759.56	-1908.64	  413.09
     58.3700	  802.00	  756.03	-1815.11	  413.12
     58.4700	  776.00	  773.59	-1858.67	  413.14
     58.5700	  739.00	  811.24	-1933.32	  413.17
     58.6700	  857.00	  868.35	-1872.42	  413.19
     58.7700	  981.00	  942.74	-1822.82	  413.21
     58.8700	 1062.00	 1029.08	-1828.16	  413.24
     58.9700	 1091.00	 1117.76	-1887.83	  413.26
     59.0700	 1219.00	 1196.75	-1838.83	  413.29
     59.1700	 1251.00	 1257.08	-1867.16	  413.31
     59.2700	 1317.00	 1295.80	-1839.88	  413.33
     59.3700	 1297.00	 1311.74	-1875.81	  413.36
     59.4700	 1316.00	 1302.80	-1847.88	  413.38
     59.5700	 1308.00	 1271.54	-1824.62	  413.41
     59.6700	 1252.00	 1229.28	-1838.36	  413.43
     59.7700	 1177.00	 1190.87	-1874.94	  413.45
     59.8700	 1221.00	 1167.70	-1807.78	  413.48
     59.9700	 1196.00	 1166.96	-1832.04	  413.50
     60.0700	 1210.00	 1193.76	-1844.84	  413.53
     60.1700	 1313.00	 1250.99	-1799.07	  413.55
     60.2700	 1306.00	 1335.68	-1890.75	  413.57
     60.3700	 1465.00	 1435.47	-1831.55	  413.60
     60.4700	 1602.00	 1527.63	-1786.71	  413.62
     60.5700	 1689.00	 1581.94	-1754.02	  413.64
     60.6700	 1624.00	 1572.42	-1809.50	  413.67
     60.7700	 1409.00	 1494.23	-1946.30	  413.69
     60.8700	 1359.00	 1366.97	-1869.04	  413.71
     60.9700	 1198.00	 1219.53	-1882.60	  413.73
     61.0700	 1133.00	 1076.19	-1804.26	  413.76
     61.1700	  985.00	  952.44	-1828.52	  413.78
     61.2700	  868.00	  855.91	-1848.99	  413.80
     61.3700	  809.00	  788.36	-1840.44	  413.82
     61.4700	  754.00	  748.10	-1855.18	  413.85
     61.5700	  826.00	  732.52	-1767.60	  413.87
     61.6700	  781.00	  739.96	-1820.03	  413.89
     61.7700	  768.00	  770.50	-1863.58	  413.91
     61.8700	  884.00	  825.61	-1802.68	  413.93
     61.9700	  933.00	  906.60	-1834.68	  413.95
     62.0700	 1007.00	 1012.64	-1866.72	  413.97
     62.1700	 1166.00	 1138.56	-1833.64	  414.00
     62.2700	 1344.00	 1272.98	-1790.05	  414.02
     62.3700	 1484.00	 1397.06	-1774.14	  414.04
     62.4700	 1561.00	 1485.42	-1785.50	  414.06
     62.5700	 1421.00	 1513.54	-1953.62	  414.08
     62.6700	 1434.00	 1471.87	-1898.94	  414.09
     62.7700	 1366.00	 1373.06	-1868.14	  414.11
     62.8700	 1216.00	 1242.72	-1887.79	  414.13
     62.9700	 1109.00	 1105.42	-1857.50	  414.15
     63.0700	  943.00	  978.57	-1896.64	  414.17
     63.1700	  865.00	  872.02	-1868.10	  414.19
     63.2700	  752.00	  789.36	-1898.44	  414.21
     63.3700	  681.00	  729.71	-1909.79	  414.22
     63.4700	  700.00	  689.54	-1850.62	  414.24
     63.5700	  707.00	  664.39	-1818.47	  414.26
     63.6700	  632.00	  650.20	-1879.27	  414.27
     63.7700	  654.00	  644.10	-1851.17	  414.29
     63.8700	  646.00	  644.52	-1859.60	  414.31
     63.9700	  709.00	  651.30	-1803.38	  414.32
     64.0700	  678.00	  665.36	-1848.44	  414.34
     64.1700	  705.00	  688.54	-1844.62	  414.35
     64.2700	  734.00	  723.13	-1850.21	  414.37
     64.3700	  787.00	  771.28	-1845.36	  414.38
     64.4700	  826.00	  834.29	-1869.37	  414.39
     64.5700	  993.00	  911.66	-1779.74	  414.41
     64.6700	 1061.00	  999.66	-1799.74	  414.42
     64.7700	 1114.00	 1092.34	-1839.42	  414.43
     64.8700	 1226.00	 1178.23	-1813.30	  414.45
     64.9700	 1207.00	 1243.81	-1897.88	  414.46
     65.0700	 1284.00	 1277.32	-1854.40	  414.47
     65.1700	 1276.00	 1272.51	-1857.58	  414.48
     65.2700	 1281.00	 1231.31	-1811.39	  414.49
     65.3700	 1081.00	 1162.94	-1943.01	  414.50
     65.4700	 1070.00	 1080.45	-1871.52	  414.51
     65.5700	  994.00	  995.93	-1863.01	  414.52
     65.6700	  891.00	  917.80	-1887.88	  414.53
     65.7700	  824.00	  849.85	-1886.93	  414.54
     65.8700	  749.00	  793.42	-1905.50	  414.54
     65.9700	  671.00	  748.17	-1938.24	  414.55
     66.0700	  688.00	  713.00	-1886.08	  414.56
     66.1700	  636.00	  686.51	-1911.58	  414.57
     66.2700	  672.00	  667.12	-1856.19	  414.57
     66.3700	  629.00	  653.33	-1885.40	  414.58
     66.4700	  659.00	  643.91	-1845.99	  414.58
     66.5700	  637.00	  638.03	-1862.11	  414.59
     66.6700	  643.00	  634.98	-1853.06	  414.59
     66.7700	  624.00	  634.46	-1871.54	  414.60
     66.8700	  597.00	  636.57	-1900.65	  414.60
     66.9700	  656.00	  641.10	-1846.18	  414.60
     67.0700	  642.00	  648.85	-1867.93	  414.60
     67.1700	  668.00	  661.07	-1854.15	  414.61
     67.2700	  684.00	  679.89	-1856.96	  414.61
     67.3700	  719.00	  708.61	-1850.69	  414.61
     67.4700	  781.00	  751.91	-1831.99	  414.61
     67.5700	  801.00	  815.73	-1875.81	  414.61
     67.6700	  856.00	  906.72	-1911.80	  414.61
     67.7700	 1067.00	 1031.16	-1825.24	  414.60
     67.8700	 1187.00	 1193.23	-1867.30	  414.60
     67.9700	 1410.00	 1392.84	-1843.92	  414.60
     68.0700	 1658.00	 1623.71	-1826.78	  414.60
     68.1700	 1880.00	 1871.23	-1852.30	  414.59
     68.2700	 2091.00	 2111.35	-1881.42	  414.59
     68.3700	 2278.00	 2310.30	-1893.38	  414.58
     68.4700	 2381.00	 2429.48	-1909.56	  414.58
     68.5700	 2421.00	 2439.82	-1879.90	  414.57
     68.6700	 2379.00	 2338.52	-1820.59	  414.56
     68.7700	 2089.00	 2150.93	-1923.01	  414.56
     68.8700	 1890.00	 1915.27	-1886.35	  414.55
     68.9700	 1674.00	 1666.84	-1853.92	  414.54
     69.0700	 1364.00	 1431.60	-1928.68	  414.53
     69.1700	 1174.00	 1225.70	-1912.78	  414.52
     69.2700	 1017.00	 1056.71	-1900.78	  414.51
     69.3700	  889.00	  925.64	-1897.72	  414.50
     69.4700	  811.00	  828.96	-1879.03	  414.49
     69.5700	  751.00	  760.61	-1870.69	  414.47
     69.6700	  763.00	  713.88	-1811.95	  414.46
     69.7700	  668.00	  682.60	-1875.68	  414.45
     69.8700	  723.00	  661.79	-1799.86	  414.43
     69.9700	  675.00	  647.84	-1833.91	  414.42
     70.0700	  631.00	  638.33	-1868.40	  414.40
     70.1700	  610.00	  631.73	-1882.80	  414.39
     70.2700	  668.00	  627.14	-1820.21	  414.37
     70.3700	  647.00	  624.05	-1838.12	  414.35
     70.4700	  630.00	  622.19	-1853.27	  414.33
     70.5700	  640.00	  621.48	-1842.56	  414.31
     70.6700	  671.00	  621.92	-1812.00	  414.29
     70.7700	  619.00	  623.68	-1865.76	  414.27
     70.8700	  642.00	  626.89	-1845.96	  414.25
     70.9700	  644.00	  632.55	-1849.63	  414.23
     71.0700	  701.00	  641.46	-1801.53	  414.21
     71.1700	  623.00	  655.15	-1893.23	  414.18
     71.2700	  727.00	  675.86	-1809.93	  414.16
     71.3700	  731.00	  706.54	-1836.61	  414.13
     71.4700	  731.00	  750.81	-1880.88	  414.11
     71.5700	  818.00	  812.65	-1855.73	  414.08
     71.6700	  939.00	  895.69	-1817.77	  414.06
     71.7700	  972.00	 1002.41	-1891.49	  414.03
     71.8700	 1173.00	 1133.07	-1821.15	  414.00
     71.9700	 1261.00	 1285.38	-1885.46	  413.97
     72.0700	 1414.00	 1450.37	-1897.45	  413.94
     72.1700	 1597.00	 1616.43	-1880.51	  413.91
     72.2700	 1831.00	 1765.67	-1795.74	  413.88
     72.3700	 1854.00	 1875.98	-1883.05	  413.85
     72.4700	 1844.00	 1926.04	-1943.12	  413.81
     72.5700	 1921.00	 1904.46	-1844.54	  413.78
     72.6700	 1766.00	 1816.20	-1911.28	  413.75
     72.7700	 1720.00	 1679.68	-1820.75	  413.71
     72.8700	 1483.00	 1517.55	-1895.63	  413.67
     72.9700	 1356.00	 1349.78	-1854.86	  413.64
     73.0700	 1239.00	 1190.92	-1813.00	  413.60
     73.1700	 1037.00	 1050.30	-1874.37	  413.56
     73.2700	  990.00	  932.59	-1803.67	  413.52
     73.3700	  839.00	  838.74	-1860.82	  413.48
     73.4700	  778.00	  767.12	-1850.19	  413.44
     73.5700	  726.00	  714.44	-1849.52	  413.40
     73.6700	  703.00	  676.87	-1834.95	  413.36
     73.7700	  717.00	  650.66	-1794.74	  413.31
     73.8700	  649.00	  632.61	-1844.68	  413.27
     73.9700	  657.00	  620.25	-1824.33	  413.23
     74.0700	  631.00	  611.83	-1841.91	  413.18
     74.1700	  628.00	  605.66	-1838.73	  413.13
     74.2700	  675.00	  602.05	-1788.13	  413.09
     74.3700	  638.00	  600.02	-1823.10	  413.04
     74.4700	  637.00	  599.24	-1823.32	  412.99
     74.5700	  608.00	  599.45	-1852.53	  412.94
     74.6700	  630.00	  600.39	-1831.47	  412.89
     74.7700	  638.00	  601.75	-1824.83	  412.84
     74.8700	  650.00	  603.15	-1814.23	  412.79
     74.9700	  685.00	  604.15	-1780.23	  412.73
     75.0700	  657.00	  604.34	-1808.42	  412.68
     75.1700	  691.00	  603.48	-1773.56	  412.63
     75.2700	  695.00	  601.65	-1767.72	  412.57
     75.3700	  675.00	  599.15	-1785.22	  412.51
     75.4700	  681.00	  596.67	-1776.74	  412.46
     75.5700	  660.00	  594.75	-1795.82	  412.40
     75.6700	  625.00	  594.01	-1830.08	  412.34
     75.7700	  717.00	  595.09	-1739.16	  412.28
     75.8700	  665.00	  598.67	-1794.75	  412.22
     75.9700	  620.00	  605.47	-1846.55	  412.16
     76.0700	  647.00	  616.16	-1830.24	  412.10
     76.1700	  647.00	  631.25	-1845.33	  412.03
     76.2700	  672.00	  651.30	-1840.38	  411.97
     76.3700	  668.00	  676.22	-1869.29	  411.91
     76.4700	  720.00	  705.50	-1846.58	  411.84
     76.5700	  743.00	  737.99	-1856.06	  411.77
     76.6700	  758.00	  771.75	-1874.83	  411.71
     76.7700	  787.00	  804.02	-1878.09	  411.64
     76.8700	  804.00	  831.19	-1888.26	  411.57
     76.9700	  820.00	  849.27	-1890.35	  411.50
     77.0700	  799.00	  854.98	-1917.06	  411.43
     77.1700	  862.00	  847.09	-1846.17	  411.36
     77.2700	  818.00	  827.08	-1870.16	  411.28
     77.3700	  748.00	  798.39	-1911.46	  411.21
     77.4700	  758.00	  764.96	-1868.04	  411.14
     77.5700	  725.00	  730.31	-1866.39	  411.06
     77.6700	  625.00	  697.08	-1933.15	  410.99
     77.7700	  652.00	  667.04	-1876.11	  410.91
     77.8700	  654.00	  641.22	-1848.30	  410.83
     77.9700	  589.00	  619.79	-1891.86	  410.75
     78.0700	  625.00	  603.03	-1839.11	  410.67
     78.1700	  547.00	  590.26	-1904.34	  410.59
     78.2700	  591.00	  580.84	-1850.91	  410.51
     78.3700	  533.00	  574.05	-1902.13	  410.43
     78.4700	  546.00	  569.27	-1884.34	  410.35
     78.5700	  579.00	  565.88	-1847.96	  410.26
     78.6700	  542.00	  563.57	-1882.65	  410.18
     78.7700	  535.00	  561.99	-1888.06	  410.09
     78.8700	  514.00	  560.91	-1907.99	  410.00
     78.9700	  542.00	  560.21	-1879.29	  409.92
     79.0700	  565.00	  559.81	-1855.89	  409.83
     79.1700	  533.00	  559.68	-1887.76	  409.74
     79.2700	  567.00	  559.80	-1853.88	  409.65
     79.3700	  539.00	  560.19	-1882.26	  409.56
     79.4700	  567.00	  560.87	-1854.95	  409.47
     79.5700	  558.00	  561.90	-1864.98	  409.37
     79.6700	  556.00	  563.35	-1868.43	  409.28
     79.7700	  531.00	  565.33	-1895.41	  409.19
     79.8700	  555.00	  568.01	-1874.08	  409.09
     79.9700	  614.00	  571.61	-1818.69	  408.99
     80.0700	  584.00	  576.48	-1853.56	  408.90
     80.1700	  577.00	  583.08	-1867.16	  408.80
     80.2700	  595.00	  592.02	-1858.10	  408.70
     80.3700	  645.00	  604.06	-1820.13	  408.60
     80.4700	  621.00	  620.04	-1860.12	  408.50
     80.5700	  654.00	  640.90	-1847.97	  408.40
     80.6700	  626.00	  667.25	-1902.33	  408.30
     80.7700	  709.00	  700.19	-1852.27	  408.19
     80.8700	  771.00	  739.74	-1829.81	  408.09
     80.9700	  806.00	  785.46	-1840.54	  407.98
     81.0700	  818.00	  836.09	-1879.17	  407.88
     81.1700	  939.00	  889.33	-1811.40	  407.77
     81.2700	  904.00	  941.88	-1898.96	  407.66
     81.3700	  954.00	  989.69	-1896.77	  407.55
     81.4700	 1028.00	 1028.58	-1861.66	  407.44
     81.5700	 1074.00	 1055.27	-1842.35	  407.33
     81.6700	 1003.00	 1068.06	-1926.14	  407.22
     81.7700	  977.00	 1066.85	-1950.93	  407.11
     81.8700	 1111.00	 1052.75	-1802.82	  407.00
     81.9700	 1001.00	 1027.85	-1887.93	  406.88
     82.0700	 1006.00	  994.90	-1849.98	  406.77
     82.1700	  944.00	  956.73	-1873.81	  406.65
     82.2700	  916.00	  915.88	-1860.96	  406.54
     82.3700	  813.00	  874.54	-1922.62	  406.42
     82.4700	  831.00	  834.56	-1864.63	  406.30
     82.5700	  816.00	  797.32	-1842.39	  406.18
     82.6700	  753.00	  763.55	-1871.63	  406.06
     82.7700	  746.00	  733.37	-1848.44	  405.94
     82.8700	  732.00	  706.50	-1835.58	  405.82
     82.9700	  641.00	  682.62	-1902.70	  405.70
     83.0700	  589.00	  661.55	-1933.63	  405.58
     83.1700	  607.00	  643.28	-1897.35	  405.45
     83.2700	  603.00	  627.85	-1885.92	  405.33
     83.3700	  577.00	  615.32	-1899.40	  405.20
     83.4700	  573.00	  605.72	-1893.80	  405.07
     83.5700	  568.00	  599.00	-1892.08	  404.95
     83.6700	  607.00	  595.05	-1849.13	  404.82
     83.7700	  602.00	  593.68	-1852.76	  404.69
     83.8700	  574.00	  594.58	-1881.66	  404.56
     83.9700	  617.00	  597.35	-1841.43	  404.43
     84.0700	  588.00	  601.46	-1874.53	  404.30
     84.1700	  601.00	  606.27	-1866.35	  404.17
     84.2700	  569.00	  611.05	-1903.12	  404.03
     84.3700	  590.00	  614.92	-1886.00	  403.90
     84.4700	  628.00	  617.28	-1850.36	  403.76
     84.5700	  591.00	  617.37	-1887.45	  403.63
     84.6700	  590.00	  615.14	-1886.22	  403.49
     84.7700	  620.00	  610.71	-1851.79	  403.35
     84.8700	  606.00	  604.60	-1859.68	  403.22
     84.9700	  593.00	  597.48	-1865.55	  403.08
     85.0700	  587.00	  589.97	-1864.05	  402.94
     85.1700	  576.00	  582.64	-1867.72	  402.80
     85.2700	  612.00	  575.91	-1824.99	  402.66
     85.3700	  590.00	  570.10	-1841.18	  402.51
     85.4700	  578.00	  565.42	-1848.50	  402.37
     85.5700	  563.00	  561.98	-1860.06	  402.23
     85.6700	  571.00	  559.83	-1849.91	  402.08
     85.7700	  523.00	  558.98	-1897.06	  401.94
     85.8700	  575.00	  559.39	-1845.47	  401.79
     85.9700	  565.00	  561.04	-1857.11	  401.65
     86.0700	  579.00	  563.86	-1845.94	  401.50
     86.1700	  597.00	  567.80	-1831.88	  401.35
     86.2700	  587.00	  572.78	-1846.86	  401.20
     86.3700	  552.00	  578.70	-1887.77	  401.05
     86.4700	  620.00	  585.41	-1826.49	  400.90
     86.5700	  566.00	  592.73	-1887.81	  400.75
     86.6700	  593.00	  600.48	-1868.55	  400.60
     86.7700	  620.00	  608.38	-1849.46	  400.45
     86.8700	  648.00	  616.22	-1829.29	  400.30
     86.9700	  681.00	  623.82	-1803.90	  400.14
     87.0700	  614.00	  631.22	-1878.30	  399.99
     87.1700	  663.00	  638.59	-1836.67	  399.83
     87.2700	  645.00	  646.18	-1862.26	  399.68
     87.3700	  639.00	  654.20	-1876.27	  399.52
     87.4700	  622.00	  662.65	-1901.73	  399.36
     87.5700	  700.00	  671.33	-1832.40	  399.20
     87.6700	  679.00	  679.76	-1861.83	  399.05
     87.7700	  688.00	  687.21	-1860.28	  398.89
     87.8700	  656.00	  692.76	-1897.84	  398.73
     87.9700	  679.00	  695.50	-1877.58	  398.57
     88.0700	  637.00	  694.73	-1918.80	  398.40
     88.1700	  702.00	  690.24	-1849.32	  398.24
     88.2700	  687.00	  682.40	-1856.48	  398.08
     88.3700	  670.00	  671.96	-1863.04	  397.92
     88.4700	  638.00	  659.88	-1882.96	  397.75
     88.5700	  642.00	  647.13	-1866.20	  397.59
     88.6700	  605.00	  634.57	-1890.65	  397.42
     88.7700	  543.00	  622.95	-1941.03	  397.26
     88.8700	  596.00	  612.43	-1877.51	  397.09
     88.9700	  595.00	  604.25	-1870.33	  396.92
     89.0700	  605.00	  598.22	-1854.29	  396.76
     89.1700	  652.00	  594.36	-1803.44	  396.59
     89.2700	  577.00	  592.58	-1876.66	  396.42
     89.3700	  602.00	  592.61	-1851.69	  396.25
     89.4700	  584.00	  594.08	-1871.15	  396.08
     89.5700	  657.00	  596.50	-1800.58	  395.91
     89.6700	  609.00	  599.33	-1851.41	  395.74
     89.7700	  653.00	  601.98	-1810.05	  395.57
     89.8700	  648.00	  603.85	-1816.92	  395.40
     89.9700	  632.00	  604.43	-1833.51	  395.22
     90.0700	  601.00	  603.43	-1863.51	  395.05
     90.1700	  628.00	  600.80	-1833.88	  394.88
     90.2700	  633.00	  596.73	-1824.81	  394.70
     90.3700	  612.00	  591.61	-1840.68	  394.53
     90.4700	  622.00	  585.83	-1824.91	  394.35
     90.5700	  634.00	  579.81	-1806.89	  394.18
     90.6700	  607.00	  573.89	-1827.97	  394.00
     90.7700	  614.00	  568.33	-1815.40	  393.82
     90.8700	  540.00	  563.32	-1884.39	  393.65
     90.9700	  563.00	  558.99	-1857.06	  393.47
     91.0700	  555.00	  555.39	-1861.47	  393.29
     91.1700	  551.00	  552.54	-1862.61	  393.11
     91.2700	  527.00	  550.40	-1884.48	  392.93
     91.3700	  571.00	  548.92	-1839.00	  392.76
     91.4700	  545.00	  548.06	-1864.13	  392.58
     91.5700	  516.00	  547.75	-1892.83	  392.40
     91.6700	  562.00	  547.98	-1847.05	  392.22
     91.7700	  532.00	  548.74	-1877.81	  392.03
     91.8700	  546.00	  550.07	-1865.15	  391.85
     91.9700	  527.00	  552.06	-1886.13	  391.67
     92.0700	  565.00	  554.81	-1850.89	  391.49
     92.1700	  586.00	  558.50	-1833.58	  391.31
     92.2700	  527.00	  563.31	-1897.39	  391.12
     92.3700	  550.00	  569.47	-1880.55	  390.94
     92.4700	  559.00	  577.19	-1879.27	  390.76
     92.5700	  545.00	  586.69	-1902.76	  390.57
     92.6700	  575.00	  598.14	-1884.22	  390.39
     92.7700	  637.00	  611.66	-1835.74	  390.20
     92.8700	  609.00	  627.29	-1879.37	  390.02
     92.9700	  634.00	  644.94	-1872.02	  389.83
     93.0700	  620.00	  664.41	-1905.48	  389.65
     93.1700	  615.00	  685.33	-1931.41	  389.46
     93.2700	  635.00	  707.20	-1933.27	  389.28
     93.3700	  653.00	  729.34	-1937.42	  389.09
     93.4700	  725.00	  750.96	-1887.04	  388.91
     93.5700	  711.00	  771.22	-1921.30	  388.72
     93.6700	  757.00	  789.39	-1893.46	  388.53
     93.7700	  813.00	  805.06	-1853.14	  388.34
     93.8700	  826.00	  818.28	-1853.36	  388.16
     93.9700	  776.00	  829.48	-1914.56	  387.97
     94.0700	  824.00	  839.33	-1876.41	  387.78
     94.1700	  827.00	  848.50	-1882.58	  387.59
     94.2700	  833.00	  857.50	-1885.57	  387.41
     94.3700	  837.00	  866.36	-1890.44	  387.22
     94.4700	  870.00	  875.90	-1866.98	  387.03
     94.5700	  904.00	  886.01	-1843.08	  386.84
     94.6700	  942.00	  896.90	-1815.98	  386.65
     94.7700	  899.00	  908.76	-1870.83	  386.46
     94.8700	  892.00	  921.60	-1890.68	  386.28
     94.9700	  954.00	  935.11	-1842.19	  386.09
     95.0700	  954.00	  948.56	-1855.63	  385.90
     95.1700	  968.00	  960.75	-1853.83	  385.71
     95.2700	  917.00	  970.17	-1914.25	  385.52
     95.3700	  939.00	  975.13	-1897.21	  385.33
     95.4700	  976.00	  974.15	-1859.22	  385.14
     95.5700	  935.00	  966.28	-1892.35	  384.95
     95.6700	  896.00	  951.44	-1916.52	  384.76
     95.7700	  890.00	  930.48	-1901.56	  384.57
     95.8700	  938.00	  904.92	-1827.99	  384.39
     95.9700	  877.00	  876.67	-1860.75	  384.20
     96.0700	  808.00	  847.78	-1900.86	  384.01
     96.1700	  808.00	  820.22	-1873.30	  383.82
     96.2700	  847.00	  795.84	-1809.92	  383.63
     96.3700	  818.00	  776.28	-1819.36	  383.44
     96.4700	  795.00	  762.99	-1829.07	  383.25
     96.5700	  755.00	  757.18	-1863.26	  383.06
     96.6700	  736.00	  759.86	-1884.94	  382.87
     96.7700	  777.00	  771.83	-1855.91	  382.69
     96.8700	  804.00	  793.62	-1850.70	  382.50
     96.9700	  897.00	  825.56	-1789.63	  382.31
     97.0700	  895.00	  867.63	-1833.71	  382.12
     97.1700	  915.00	  919.53	-1865.61	  381.93
     97.2700	  980.00	  980.55	-1861.62	  381.75
     97.3700	 1118.00	 1049.44	-1792.52	  381.56
     97.4700	 1144.00	 1124.48	-1841.56	  381.37
     97.5700	 1185.00	 1203.31	-1879.39	  381.18
     97.6700	 1299.00	 1282.99	-1845.07	  381.00
     97.7700	 1320.00	 1359.97	-1901.04	  380.81
     97.8700	 1422.00	 1430.12	-1869.20	  380.62
     97.9700	 1476.00	 1489.04	-1874.12	  380.44
     98.0700	 1494.00	 1532.48	-1899.56	  380.25
     98.1700	 1549.00	 1557.04	-1869.12	  380.07
     98.2700	 1521.00	 1560.87	-1900.95	  379.88
     98.3700	 1550.00	 1544.10	-1855.18	  379.70
     98.4700	 1450.00	 1508.80	-1919.88	  379.51
     98.5700	 1377.00	 1458.41	-1942.48	  379.33
     98.6700	 1398.00	 1397.01	-1860.09	  379.14
     98.7700	 1292.00	 1328.85	-1897.92	  378.96
     98.8700	 1251.00	 1257.93	-1868.01	  378.78
     98.9700	 1214.00	 1187.86	-1834.93	  378.60
     99.0700	 1178.00	 1121.75	-1804.83	  378.41
     99.1700	 1093.00	 1062.24	-1830.31	  378.23
     99.2700	 1010.00	 1011.46	-1862.54	  378.05
     99.3700	  956.00	  971.18	-1876.26	  377.87
     99.4700	  959.00	  942.76	-1844.84	  377.69
     99.5700	  979.00	  927.21	-1809.29	  377.51
     99.6700	  938.00	  925.22	-1848.29	  377.33
     99.7700	  969.00	  937.16	-1829.24	  377.15
     99.8700	  974.00	  963.15	-1850.23	  376.98
     99.9700	 1086.00	 1002.99	-1778.07	  376.80
    100.0700	 1120.00	 1056.19	-1797.27	  376.62
    100.1700	 1112.00	 1121.91	-1870.99	  376.45
    100.2700	 1178.00	 1198.92	-1881.99	  376.27
    100.3700	 1270.00	 1285.54	-1876.61	  376.09
    100.4700	 1298.00	 1379.59	-1942.66	  375.92
    100.5700	 1472.00	 1478.37	-1867.44	  375.75
    100.6700	 1586.00	 1578.64	-1853.71	  375.57
    100.7700	 1592.00	 1676.66	-1945.74	  375.40
    100.8700	 1696.00	 1768.75	-1933.82	  375.23
    100.9700	 1840.00	 1851.13	-1872.20	  375.06
    101.0700	 2013.00	 1920.77	-1768.85	  374.89
    101.1700	 2046.00	 1975.47	-1790.55	  374.72
    101.2700	 2015.00	 2013.89	-1859.96	  374.55
    101.3700	 2053.00	 2035.32	-1843.40	  374.38
    101.4700	 2017.00	 2039.41	-1883.48	  374.22
    101.5700	 2052.00	 2026.09	-1835.17	  374.05
    101.6700	 2112.00	 1995.80	-1744.88	  373.89
    101.7700	 1949.00	 1949.78	-1861.86	  373.72
    101.8700	 1965.00	 1890.40	-1786.47	  373.56
    101.9700	 1906.00	 1820.99	-1776.07	  373.39
    102.0700	 1743.00	 1745.52	-1863.60	  373.23
    102.1700	 1759.00	 1668.02	-1770.10	  373.07
    102.2700	 1580.00	 1592.15	-1873.23	  372.91
    102.3700	 1560.00	 1520.85	-1821.93	  372.75
    102.4700	 1497.00	 1456.25	-1820.33	  372.60
    102.5700	 1493.00	 1399.62	-1767.70	  372.44
    102.6700	 1358.00	 1351.43	-1854.50	  372.28
    102.7700	 1308.00	 1311.40	-1864.48	  372.13
    102.8700	 1204.00	 1278.59	-1935.67	  371.97
    102.9700	 1253.00	 1251.52	-1859.60	  371.82
    103.0700	 1235.00	 1228.24	-1854.32	  371.67
    103.1700	 1202.00	 1206.60	-1865.68	  371.52
    103.2700	 1182.00	 1184.45	-1863.52	  371.37
    103.3700	 1128.00	 1159.93	-1893.01	  371.22
    103.4700	 1090.00	 1131.83	-1902.90	  371.08
    103.5700	 1070.00	 1099.60	-1890.68	  370.93
    103.6700	 1072.00	 1063.45	-1852.53	  370.79
    103.7700	  961.00	 1024.10	-1924.17	  370.64
    103.8700	  973.00	  982.55	-1870.63	  370.50
    103.9700	  973.00	  939.94	-1828.02	  370.36
    104.0700	  971.00	  897.35	-1787.43	  370.22
    104.1700	  859.00	  855.76	-1857.84	  370.08
    104.2700	  885.00	  816.01	-1792.09	  369.95
    104.3700	  795.00	  778.78	-1844.85	  369.81
    104.4700	  780.00	  744.57	-1825.64	  369.68
    104.5700	  715.00	  713.70	-1859.78	  369.54
    104.6700	  683.00	  686.36	-1864.43	  369.41
    104.7700	  665.00	  662.55	-1858.62	  369.28
    104.8700	  703.00	  642.17	-1800.25	  369.15
    104.9700	  658.00	  625.04	-1828.11	  369.03
    105.0700	  669.00	  610.87	-1802.94	  368.90
    105.1700	  643.00	  599.36	-1817.43	  368.78
    105.2700	  603.00	  590.19	-1848.27	  368.65
    105.3700	  601.00	  583.02	-1843.09	  368.53
    105.4700	  630.00	  577.64	-1808.71	  368.41
    105.5700	  579.00	  573.76	-1855.83	  368.30
    105.6700	  609.00	  571.18	-1823.26	  368.18
    105.7700	  594.00	  569.75	-1836.82	  368.07
    105.8700	  574.00	  569.35	-1856.43	  367.95
    105.9700	  578.00	  569.93	-1853.00	  367.84
    106.0700	  547.00	  571.42	-1885.49	  367.73
    106.1700	  661.00	  573.89	-1773.97	  367.63
    106.2700	  597.00	  577.36	-1841.43	  367.52
    106.3700	  581.00	  581.86	-1861.94	  367.42
    106.4700	  591.00	  587.48	-1857.56	  367.31
    106.5700	  605.00	  594.27	-1850.35	  367.21
    106.6700	  619.00	  602.29	-1844.36	  367.11
    106.7700	  566.00	  611.55	-1906.63	  367.02
    106.8700	  650.00	  622.06	-1833.14	  366.92
    106.9700	  621.00	  633.75	-1873.82	  366.83
    107.0700	  677.00	  646.48	-1830.56	  366.74
    107.1700	  703.00	  660.09	-1818.16	  366.65
    107.2700	  661.00	  674.31	-1874.38	  366.56
    107.3700	  651.00	  688.83	-1898.91	  366.48
    107.4700	  716.00	  703.28	-1848.36	  366.39
    107.5700	  692.00	  717.23	-1886.31	  366.31
    107.6700	  706.00	  730.20	-1885.28	  366.23
    107.7700	  714.00	  741.71	-1888.79	  366.16
    107.8700	  714.00	  751.34	-1898.42	  366.08
    107.9700	  727.00	  758.75	-1892.83	  366.01
    108.0700	  812.00	  763.75	-1812.83	  365.94
    108.1700	  717.00	  766.35	-1910.42	  365.87
    108.2700	  712.00	  766.82	-1915.90	  365.80
    108.3700	  711.00	  765.54	-1915.62	  365.74
    108.4700	  734.00	  763.00	-1890.08	  365.68
    108.5700	  663.00	  759.73	-1957.81	  365.62
    108.6700	  696.00	  756.22	-1921.29	  365.56
    108.7700	  706.00	  752.87	-1907.95	  365.51
    108.8700	  740.00	  750.01	-1871.09	  365.45
    108.9700	  734.00	  747.84	-1874.91	  365.40
    109.0700	  660.00	  746.43	-1947.51	  365.35
    109.1700	  709.00	  745.76	-1897.83	  365.31
    109.2700	  712.00	  745.65	-1894.73	  365.27
    109.3700	  738.00	  745.86	-1868.93	  365.23
    109.4700	  695.00	  746.02	-1912.09	  365.19
    109.5700	  670.00	  745.72	-1936.80	  365.15
    109.6700	  693.00	  744.54	-1912.62	  365.12
    109.7700	  732.00	  742.10	-1871.18	  365.09
    109.8700	  796.00	  738.13	-1803.20	  365.06
    109.9700	  718.00	  732.47	-1875.55	  365.04
    110.0700	  716.00	  725.15	-1870.23	  365.02
    110.1700	  717.00	  716.33	-1860.41	  365.00
    110.2700	  720.00	  706.27	-1847.35	  364.98
    110.3700	  682.00	  695.28	-1874.36	  364.97
    110.4700	  675.00	  683.73	-1869.80	  364.95
    110.5700	  650.00	  671.93	-1883.00	  364.95
    110.6700	  666.00	  660.18	-1855.26	  364.94
    110.7700	  668.00	  648.76	-1841.84	  364.94
    110.8700	  653.00	  637.90	-1845.98	  364.94
    110.9700	  651.00	  627.77	-1837.85	  364.94
    111.0700	  617.00	  618.53	-1862.61	  364.95
    111.1700	  622.00	  610.28	-1849.36	  364.95
    111.2700	  641.00	  603.07	-1823.15	  364.97
    111.3700	  594.00	  596.94	-1864.02	  364.98
    111.4700	  577.00	  591.87	-1875.95	  365.00
    111.5700	  572.00	  587.84	-1876.91	  365.02
    111.6700	  600.00	  584.78	-1845.85	  365.04
    111.7700	  589.00	  582.62	-1854.69	  365.07
    111.8700	  574.00	  581.27	-1868.35	  365.10
    111.9700	  603.00	  580.64	-1838.72	  365.13
    112.0700	  595.00	  580.65	-1846.72	  365.17
    112.1700	  568.00	  581.18	-1874.26	  365.21
    112.2700	  593.00	  582.16	-1850.24	  365.25
    112.3700	  587.00	  583.50	-1857.58	  365.30
    112.4700	  587.00	  585.13	-1859.21	  365.35
    112.5700	  538.00	  586.98	-1910.06	  365.40
    112.6700	  543.00	  589.00	-1907.08	  365.46
    112.7700	  589.00	  591.16	-1863.24	  365.52
    112.8700	  634.00	  593.45	-1820.53	  365.58
    112.9700	  605.00	  595.86	-1851.94	  365.65
    113.0700	  589.00	  598.42	-1870.50	  365.72
    113.1700	  581.00	  601.15	-1881.23	  365.79
    113.2700	  569.00	  604.11	-1896.18	  365.87
    113.3700	  574.00	  607.35	-1894.42	  365.95
    113.4700	  591.00	  610.94	-1881.02	  366.04
    113.5700	  574.00	  614.98	-1902.06	  366.12
    113.6700	  638.00	  619.57	-1842.65	  366.22
    113.7700	  626.00	  624.85	-1859.93	  366.31
    113.8700	  625.00	  630.99	-1867.06	  366.41
    113.9700	  598.00	  638.19	-1901.26	  366.51
    114.0700	  679.00	  646.74	-1828.82	  366.62
    114.1700	  709.00	  656.99	-1809.07	  366.73
    114.2700	  654.00	  669.38	-1876.46	  366.85
    114.3700	  700.00	  684.47	-1845.55	  366.96
    114.4700	  675.00	  702.95	-1889.03	  367.09
    114.5700	  692.00	  725.68	-1894.75	  367.21
    114.6700	  760.00	  753.69	-1854.77	  367.34
    114.7700	  784.00	  788.24	-1865.31	  367.48
    114.8700	  881.00	  830.78	-1810.86	  367.62
    114.9700	  973.00	  883.03	-1771.11	  367.76
    115.0700	  933.00	  946.89	-1874.97	  367.90
    115.1700	 1024.00	 1024.50	-1861.57	  368.05
    115.2700	 1137.00	 1118.15	-1842.23	  368.21
    115.3700	 1276.00	 1230.31	-1815.39	  368.37
    115.4700	 1452.00	 1363.43	-1772.51	  368.53
    115.5700	 1619.00	 1519.93	-1762.01	  368.70
    115.6700	 1836.00	 1702.02	-1727.10	  368.87
    115.7700	 1994.00	 1911.65	-1778.72	  369.05
    115.8700	 2248.00	 2150.28	-1763.36	  369.23
    115.9700	 2600.00	 2418.71	-1679.79	  369.41
    116.0700	 2809.00	 2716.93	-1769.01	  369.60
    116.1700	 3265.00	 3043.95	-1640.03	  369.80
    116.2700	 3513.00	 3397.77	-1745.84	  370.00
    116.3700	 3876.00	 3775.23	-1760.30	  370.20
    116.4700	 4282.00	 4171.79	-1750.87	  370.41
    116.5700	 4558.00	 4581.68	-1884.76	  370.62
    116.6700	 4840.00	 4997.85	-2018.93	  370.84
    116.7700	 5387.00	 5412.10	-1886.18	  371.06
    116.8700	 5704.00	 5815.16	-1972.24	  371.28
    116.9700	 5971.00	 6196.71	-2086.78	  371.51
    117.0700	 6447.00	 6545.83	-1959.90	  371.75
    117.1700	 6831.00	 6851.35	-1881.43	  371.99
    117.2700	 6985.00	 7102.54	-1978.62	  372.24
    117.3700	 7358.00	 7289.75	-1792.83	  372.49
    117.4700	 7273.00	 7405.28	-1993.36	  372.74
    117.5700	 7242.00	 7444.31	-2063.38	  373.00
    117.6700	 7372.00	 7405.44	-1894.52	  373.27
    117.7700	 6962.00	 7290.94	-2190.02	  373.54
    117.8700	 6889.00	 7106.29	-2078.37	  373.81
    117.9700	 6791.00	 6859.68	-1929.75	  374.09
    118.0700	 6454.00	 6561.01	-1968.08	  374.38
    118.1700	 6101.00	 6221.15	-1981.22	  374.67
    118.2700	 5725.00	 5851.01	-1987.09	  374.97
    118.3700	 5439.00	 5461.12	-1883.20	  375.27
    118.4700	 5025.00	 5061.37	-1897.45	  375.57
    118.5700	 4784.00	 4660.62	-1737.70	  375.88
    118.6700	 4397.00	 4266.62	-1730.70	  376.20
    118.7700	 4039.00	 3885.79	-1707.87	  376.52
    118.8700	 3617.00	 3523.28	-1767.36	  376.85
    118.9700	 3350.00	 3183.09	-1694.17	  377.19
    119.0700	 2943.00	 2867.98	-1786.06	  377.52
    119.1700	 2754.00	 2579.64	-1686.72	  377.87
    119.2700	 2456.00	 2318.72	-1723.80	  378.22
    119.3700	 2205.00	 2085.06	-1741.13	  378.57
    119.4700	 2003.00	 1877.88	-1735.95	  378.94
    119.5700	 1794.00	 1695.84	-1762.92	  379.30
    119.6700	 1561.00	 1537.26	-1837.34	  379.68
    119.7700	 1536.00	 1400.13	-1725.20	  380.05
    119.8700	 1380.00	 1282.30	-1763.37	  380.44
    119.9700	 1264.00	 1181.64	-1778.72	  380.83
    120.0700	 1183.00	 1096.04	-1774.12	  381.22
    120.1700	 1070.00	 1023.51	-1814.59	  381.63
    120.2700	 1007.00	  962.17	-1816.25	  382.03
    120.3700	  921.00	  910.37	-1850.45	  382.45
    120.4700	  957.00	  866.64	-1770.71	  382.87
    120.5700	  838.00	  829.71	-1852.78	  383.29
    120.6700	  834.00	  798.50	-1825.57	  383.73
    120.7700	  780.00	  772.09	-1853.17	  384.16
    120.8700	  760.00	  749.73	-1850.81	  384.61
    120.9700	  729.00	  730.81	-1862.89	  385.06
    121.0700	  693.00	  714.81	-1882.88	  385.52
    121.1700	  697.00	  701.32	-1865.40	  385.98
    121.2700	  696.00	  690.02	-1855.09	  386.45
    121.3700	  649.00	  680.62	-1892.69	  386.93
    121.4700	  685.00	  672.91	-1848.99	  387.41
    121.5700	  659.00	  666.72	-1868.80	  387.90
    121.6700	  661.00	  661.90	-1861.98	  388.39
    121.7700	  650.00	  658.34	-1869.41	  388.89
    121.8700	  600.00	  655.92	-1916.99	  389.40
    121.9700	  654.00	  654.56	-1861.64	  389.92
    122.0700	  605.00	  654.20	-1910.28	  390.44
    122.1700	  650.00	  654.76	-1865.83	  390.97
    122.2700	  625.00	  656.17	-1892.24	  391.50
    122.3700	  673.00	  658.37	-1846.45	  392.05
    122.4700	  682.00	  661.30	-1840.38	  392.60
    122.5700	  672.00	  664.89	-1853.96	  393.15
    122.6700	  660.00	  669.06	-1870.13	  393.71
    122.7700	  654.00	  673.73	-1880.81	  394.28
    122.8700	  671.00	  678.82	-1868.90	  394.86
    122.9700	  690.00	  684.24	-1855.31	  395.44
    123.0700	  681.00	  689.88	-1869.95	  396.04
    123.1700	  722.00	  695.63	-1834.71	  396.63
    123.2700	  685.00	  701.39	-1877.46	  397.24
    123.3700	  710.00	  707.02	-1858.10	  397.85
    123.4700	  676.00	  712.43	-1897.50	  398.47
    123.5700	  696.00	  717.48	-1882.56	  399.10
    123.6700	  699.00	  722.08	-1884.16	  399.73
    123.7700	  742.00	  726.14	-1845.22	  400.38
    123.8700	  737.00	  729.59	-1853.67	  401.02
    123.9700	  719.00	  732.40	-1874.47	  401.68
    124.0700	  706.00	  734.55	-1889.63	  402.35
    124.1700	  723.00	  736.07	-1874.15	  403.02
    124.2700	  716.00	  737.00	-1882.07	  403.70
    124.3700	  693.00	  737.36	-1905.44	  404.38
    124.4700	  756.00	  737.29	-1842.36	  405.08
    124.5700	  762.00	  736.82	-1835.90	  405.78
    124.6700	  702.00	  736.03	-1895.10	  406.49
    124.7700	  701.00	  734.97	-1895.05	  407.21
    124.8700	  662.00	  733.71	-1932.79	  407.94
    124.9700	  699.00	  530.32	-1692.39	  408.67
    125.0700	  722.00	  531.06	-1861.08	  409.41
    125.1700	  681.00	  531.81	-1861.08	  410.16
    125.2700	  692.00	  532.57	-1861.08	  410.92
    125.3700	  668.00	  533.33	-1861.08	  411.69
    125.4700	  739.00	  534.11	-1861.08	  412.46
    125.5700	  688.00	  534.89	-1861.08	  413.25
    125.6700	  667.00	  535.68	-1861.08	  414.04
    125.7700	  707.00	  536.48	-1861.08	  414.84
    125.8700	  635.00	  537.29	-1861.08	  415.64
    125.9700	  732.00	  538.11	-1861.08	  416.46
    126.0700	  650.00	  538.93	-1861.08	  417.29
    126.1700	  632.00	  539.76	-1861.08	  418.12
    126.2700	  634.00	  540.61	-1861.08	  418.96
    126.3700	  627.00	  541.46	-1861.08	  419.81
    126.4700	  618.00	  542.31	-1861.08	  420.67
    126.5700	  638.00	  543.18	-1861.08	  421.54
    126.6700	  612.00	  544.06	-1861.08	  422.41
    126.7700	  626.00	  544.94	-1861.08	  423.30
    126.8700	  610.00	  545.84	-1861.08	  424.19
    126.9700	  615.00	  546.74	-1861.08	  425.09
    127.0700	  639.00	  547.65	-1861.08	  426.01
    127.1700	  640.00	  548.57	-1861.08	  426.93
    127.2700	  684.00	  549.50	-1861.08	  427.86
    127.3700	  557.00	  550.44	-1861.08	  428.80
    127.4700	  626.00	  551.39	-1861.08	  429.74
    127.5700	  547.00	  552.35	-1861.08	  430.70
    127.6700	  598.00	  553.31	-1861.08	  431.67
    127.7700	  587.00	  554.29	-1861.08	  432.64
    127.8700	  578.00	  555.27	-1861.08	  433.63
    127.9700	  629.00	  556.27	-1861.08	  434.62
    128.0700	  612.00	  557.27	-1861.08	  435.62
    128.1700	  638.00	  558.28	-1861.08	  436.64
    128.2700	  636.00	  559.31	-1861.08	  437.66
    128.3700	  688.00	  560.34	-1861.08	  438.69
    128.4700	  655.00	  561.38	-1861.08	  439.73
    128.5700	    0.00	  562.43	-1861.08	  440.79
    128.6700	    0.00	  563.49	-1861.08	  441.85
     12.4007	        	        	        	        	       0	(  0  0  2)	  0  1
     12.4007	        	        	        	        	    -465	(  0  0  2)	  0  1
     25.0483	        	        	        	        	       0	(  0  0  4)	  0  1
     25.0483	        	        	        	        	    -465	(  0  0  4)	  0  1
     28.4989	        	        	        	        	       0	(  1  0  0)	  0  1
     28.4989	        	        	        	        	    -465	(  1  0  0)	  0  1
     29.2000	        	        	        	        	       0	(  1  0  1)	  0  1
     29.2000	        	        	        	        	    -465	(  1  0  1)	  0  1
     31.2175	        	        	        	        	       0	(  1  0  2)	  0  1
     31.2175	        	        	        	        	    -465	(  1  0  2)	  0  1
     34.3433	        	        	        	        	       0	(  1  0  3)	  0  1
     34.3433	        	        	        	        	    -465	(  1  0  3)	  0  1
     38.0169	        	        	        	        	       0	(  0  0  6)	  0  1
     38.0169	        	        	        	        	    -465	(  0  0  6)	  0  1
     38.3430	        	        	        	        	       0	(  1  0  4)	  0  1
     38.3430	        	        	        	        	    -465	(  1  0  4)	  0  1
     43.0201	        	        	        	        	       0	(  1  0  5)	  0  1
     43.0201	        	        	        	        	    -465	(  1  0  5)	  0  1
     48.2350	        	        	        	        	       0	(  1  0  6)	  0  1
     48.2350	        	        	        	        	    -465	(  1  0  6)	  0  1
     50.5517	        	        	        	        	       0	(  1  1  0)	  0  1
     50.5517	        	        	        	        	    -465	(  1  1  0)	  0  1
     51.5166	        	        	        	        	       0	(  0  0  8)	  0  1
     51.5166	        	        	        	        	    -465	(  0  0  8)	  0  1
     52.2857	        	        	        	        	       0	(  1  1  2)	  0  1
     52.2857	        	        	        	        	    -465	(  1  1  2)	  0  1
     53.9002	        	        	        	        	       0	(  1  0  7)	  0  1
     53.9002	        	        	        	        	    -465	(  1  0  7)	  0  1
     57.2658	        	        	        	        	       0	(  1  1  4)	  0  1
     57.2658	        	        	        	        	    -465	(  1  1  4)	  0  1
     59.0990	        	        	        	        	       0	(  2  0  0)	  0  1
     59.0990	        	        	        	        	    -465	(  2  0  0)	  0  1
     59.4932	        	        	        	        	       0	(  2  0  1)	  0  1
     59.4932	        	        	        	        	    -465	(  2  0  1)	  0  1
     59.9697	        	        	        	        	       0	(  1  0  8)	  0  1
     59.9697	        	        	        	        	    -465	(  1  0  8)	  0  1
     60.6666	        	        	        	        	       0	(  2  0  2)	  0  1
     60.6666	        	        	        	        	    -465	(  2  0  2)	  0  1
     62.5931	        	        	        	        	       0	(  2  0  3)	  0  1
     62.5931	        	        	        	        	    -465	(  2  0  3)	  0  1
     65.0132	        	        	        	        	       0	(  1  1  6)	  0  1
     65.0132	        	        	        	        	    -465	(  1  1  6)	  0  1
     65.2357	        	        	        	        	       0	(  2  0  4)	  0  1
     65.2357	        	        	        	        	    -465	(  2  0  4)	  0  1
     65.8386	        	        	        	        	       0	(  0  0 10)	  0  1
     65.8386	        	        	        	        	    -465	(  0  0 10)	  0  1
     66.4301	        	        	        	        	       0	(  1  0  9)	  0  1
     66.4301	        	        	        	        	    -465	(  1  0  9)	  0  1
     68.5539	        	        	        	        	       0	(  2  0  5)	  0  1
     68.5539	        	        	        	        	    -465	(  2  0  5)	  0  1
     72.5111	        	        	        	        	       0	(  2  0  6)	  0  1
     72.5111	        	        	        	        	    -465	(  2  0  6)	  0  1
     73.2967	        	        	        	        	       0	(  1  0 10)	  0  1
     73.2967	        	        	        	        	    -465	(  1  0 10)	  0  1
     75.1262	        	        	        	        	       0	(  1  1  8)	  0  1
     75.1262	        	        	        	        	    -465	(  1  1  8)	  0  1
     77.0813	        	        	        	        	       0	(  2  0  7)	  0  1
     77.0813	        	        	        	        	    -465	(  2  0  7)	  0  1
     80.6131	        	        	        	        	       0	(  1  0 11)	  0  1
     80.6131	        	        	        	        	    -465	(  1  0 11)	  0  1
     81.4389	        	        	        	        	       0	(  0  0 12)	  0  1
     81.4389	        	        	        	        	    -465	(  0  0 12)	  0  1
     81.4964	        	        	        	        	       0	(  2  1  0)	  0  1
     81.4964	        	        	        	        	    -465	(  2  1  0)	  0  1
     81.8392	        	        	        	        	       0	(  2  1  1)	  0  1
     81.8392	        	        	        	        	    -465	(  2  1  1)	  0  1
     82.2550	        	        	        	        	       0	(  2  0  8)	  0  1
     82.2550	        	        	        	        	    -465	(  2  0  8)	  0  1
     82.8661	        	        	        	        	       0	(  2  1  2)	  0  1
     82.8661	        	        	        	        	    -465	(  2  1  2)	  0  1
     84.5727	        	        	        	        	       0	(  2  1  3)	  0  1
     84.5727	        	        	        	        	    -465	(  2  1  3)	  0  1
     86.9542	        	        	        	        	       0	(  2  1  4)	  0  1
     86.9542	        	        	        	        	    -465	(  2  1  4)	  0  1
     87.5040	        	        	        	        	       0	(  1  1 10)	  0  1
     87.5040	        	        	        	        	    -465	(  1  1 10)	  0  1
     88.0457	        	        	        	        	       0	(  2  0  9)	  0  1
     88.0457	        	        	        	        	    -465	(  2  0  9)	  0  1
     88.4577	        	        	        	        	       0	(  1  0 12)	  0  1
     88.4577	        	        	        	        	    -465	(  1  0 12)	  0  1
     90.0093	        	        	        	        	       0	(  2  1  5)	  0  1
     90.0093	        	        	        	        	    -465	(  2  1  5)	  0  1
     93.7446	        	        	        	        	       0	(  2  1  6)	  0  1
     93.7446	        	        	        	        	    -465	(  2  1  6)	  0  1
     94.4978	        	        	        	        	       0	(  2  0 10)	  0  1
     94.4978	        	        	        	        	    -465	(  2  0 10)	  0  1
     95.5119	        	        	        	        	       0	(  3  0  0)	  0  1
     95.5119	        	        	        	        	    -465	(  3  0  0)	  0  1
     95.8530	        	        	        	        	       0	(  3  0  1)	  0  1
     95.8530	        	        	        	        	    -465	(  3  0  1)	  0  1
     96.8774	        	        	        	        	       0	(  3  0  2)	  0  1
     96.8774	        	        	        	        	    -465	(  3  0  2)	  0  1
     96.9584	        	        	        	        	       0	(  1  0 13)	  0  1
     96.9584	        	        	        	        	    -465	(  1  0 13)	  0  1
     98.1815	        	        	        	        	       0	(  2  1  7)	  0  1
     98.1815	        	        	        	        	    -465	(  2  1  7)	  0  1
     98.5900	        	        	        	        	       0	(  3  0  3)	  0  1
     98.5900	        	        	        	        	    -465	(  3  0  3)	  0  1
     99.1539	        	        	        	        	       0	(  0  0 14)	  0  1
     99.1539	        	        	        	        	    -465	(  0  0 14)	  0  1
    101.0012	        	        	        	        	       0	(  3  0  4)	  0  1
    101.0012	        	        	        	        	    -465	(  3  0  4)	  0  1
    101.7016	        	        	        	        	       0	(  2  0 11)	  0  1
    101.7016	        	        	        	        	    -465	(  2  0 11)	  0  1
    102.5364	        	        	        	        	       0	(  1  1 12)	  0  1
    102.5364	        	        	        	        	    -465	(  1  1 12)	  0  1
    103.3659	        	        	        	        	       0	(  2  1  8)	  0  1
    103.3659	        	        	        	        	    -465	(  2  1  8)	  0  1
    104.1315	        	        	        	        	       0	(  3  0  5)	  0  1
    104.1315	        	        	        	        	    -465	(  3  0  5)	  0  1
    106.3259	        	        	        	        	       0	(  1  0 14)	  0  1
    106.3259	        	        	        	        	    -465	(  1  0 14)	  0  1
    108.0184	        	        	        	        	       0	(  3  0  6)	  0  1
    108.0184	        	        	        	        	    -465	(  3  0  6)	  0  1
    109.3837	        	        	        	        	       0	(  2  1  9)	  0  1
    109.3837	        	        	        	        	    -465	(  2  1  9)	  0  1
    109.8212	        	        	        	        	       0	(  2  0 12)	  0  1
    109.8212	        	        	        	        	    -465	(  2  0 12)	  0  1
    112.7280	        	        	        	        	       0	(  3  0  7)	  0  1
    112.7280	        	        	        	        	    -465	(  3  0  7)	  0  1
    116.3908	        	        	        	        	       0	(  2  1 10)	  0  1
    116.3908	        	        	        	        	    -465	(  2  1 10)	  0  1
    116.9333	        	        	        	        	       0	(  1  0 15)	  0  1
    116.9333	        	        	        	        	    -465	(  1  0 15)	  0  1
    117.5250	        	        	        	        	       0	(  2  2  0)	  0  1
    117.5250	        	        	        	        	    -465	(  2  2  0)	  0  1
    118.3761	        	        	        	        	       0	(  3  0  8)	  0  1
    118.3761	        	        	        	        	    -465	(  3  0  8)	  0  1
    119.0679	        	        	        	        	       0	(  2  2  2)	  0  1
    119.0679	        	        	        	        	    -465	(  2  2  2)	  0  1
    119.1600	        	        	        	        	       0	(  2  0 13)	  0  1
    119.1600	        	        	        	        	    -465	(  2  0 13)	  0  1
    120.9725	        	        	        	        	       0	(  0  0 16)	  0  1
    120.9725	        	        	        	        	    -465	(  0  0 16)	  0  1
    121.6828	        	        	        	        	       0	(  1  1 14)	  0  1
    121.6828	        	        	        	        	    -465	(  1  1 14)	  0  1
    123.8474	        	        	        	        	       0	(  2  2  4)	  0  1
    123.8474	        	        	        	        	    -465	(  2  2  4)	  0  1
    124.6789	        	        	        	        	       0	(  2  1 11)	  0  1
    124.6789	        	        	        	        	    -465	(  2  1 11)	  0  1
    125.1723	        	        	        	        	       0	(  3  0  9)	  0  1
    125.1723	        	        	        	        	    -465	(  3  0  9)	  0  1
    125.7485	        	        	        	        	       0	(  3  1  0)	  0  1
    125.7485	        	        	        	        	    -465	(  3  1  0)	  0  1
    126.1682	        	        	        	        	       0	(  3  1  1)	  0  1
    126.1682	        	        	        	        	    -465	(  3  1  1)	  0  1
    127.4411	        	        	        	        	       0	(  3  1  2)	  0  1
    127.4411	        	        	        	        	    -465	(  3  1  2)	  0  1
    129.5490	        	        	        	        	       0	(  1  0 16)	  0  1
    129.5490	        	        	        	        	    -465	(  1  0 16)	  0  1
    129.6127	        	        	        	        	       0	(  3  1  3)	  0  1
    129.6127	        	        	        	        	    -465	(  3  1  3)	  0  1
    130.3407	        	        	        	        	       0	(  2  0 14)	  0  1
    130.3407	        	        	        	        	    -465	(  2  0 14)	  0  1
    132.4991	        	        	        	        	       0	(  2  2  6)	  0  1
    132.4991	        	        	        	        	    -465	(  2  2  6)	  0  1
    132.7742	        	        	        	        	       0	(  3  1  4)	  0  1
    132.7742	        	        	        	        	    -465	(  3  1  4)	  0  1
    133.5281	        	        	        	        	       0	(  3  0 10)	  0  1
    133.5281	        	        	        	        	    -465	(  3  0 10)	  0  1
    134.8597	        	        	        	        	       0	(  2  1 12)	  0  1
    134.8597	        	        	        	        	    -465	(  2  1 12)	  0  1
    137.0962	        	        	        	        	       0	(  3  1  5)	  0  1
    137.0962	        	        	        	        	    -465	(  3  1  5)	  0  1
    142.9176	        	        	        	        	       0	(  3  1  6)	  0  1
    142.9176	        	        	        	        	    -465	(  3  1  6)	  0  1
    144.4208	        	        	        	        	       0	(  3  0 11)	  0  1
    144.4208	        	        	        	        	    -465	(  3  0 11)	  0  1
    145.0232	        	        	        	        	       0	(  2  0 15)	  0  1
    145.0232	        	        	        	        	    -465	(  2  0 15)	  0  1
    146.3593	        	        	        	        	       0	(  1  0 17)	  0  1
    146.3593	        	        	        	        	    -465	(  1  0 17)	  0  1
    147.3227	        	        	        	        	       0	(  2  2  8)	  0  1
    147.3227	        	        	        	        	    -465	(  2  2  8)	  0  1
    148.6206	        	        	        	        	       0	(  2  1 13)	  0  1
    148.6206	        	        	        	        	    -465	(  2  1 13)	  0  1
    151.0395	        	        	        	        	       0	(  3  1  7)	  0  1
    151.0395	        	        	        	        	    -465	(  3  1  7)	  0  1
    151.7837	        	        	        	        	       0	(  1  1 16)	  0  1
    151.7837	        	        	        	        	    -465	(  1  1 16)	  0  1
    156.6491	        	        	        	        	       0	(  0  0 18)	  0  1
    156.6491	        	        	        	        	    -465	(  0  0 18)	  0  1
    161.7991	        	        	        	        	       0	(  3  0 12)	  0  1
    161.7991	        	        	        	        	    -465	(  3  0 12)	  0  1
    161.9830	        	        	        	        	       0	(  4  0  0)	  0  1
    161.9830	        	        	        	        	    -465	(  4  0  0)	  0  1
    163.1207	        	        	        	        	       0	(  4  0  1)	  0  1
    163.1207	        	        	        	        	    -465	(  4  0  1)	  0  1
    164.6115	        	        	        	        	       0	(  3  1  8)	  0  1
    164.6115	        	        	        	        	    -465	(  3  1  8)	  0  1
    167.1090	        	        	        	        	       0	(  4  0  2)	  0  1
    167.1090	        	        	        	        	    -465	(  4  0  2)	  0  1
