MSG Master    CELL:    5.91936   5.91936  23.27256   90.0000   90.0000  120.0000   SPGR: P 63/m m c             TEMP:   1071.45
  1   1280     2.52000     0.00000    -0.12052     0.00000     0.00000    0
    99     0     2
       0.00000      10.00000
     125.00000     130.00000
 2Theta	Yobs	Ycal	Yobs-Ycal	Backg	Posr	(hkl)	K
      0.7700	    0.00	  548.61	-1750.25	  431.20
      0.8700	    0.00	  549.29	-1750.25	  431.88
      0.9700	   45.00	  549.97	-1750.25	  432.56
      1.0700	   29.00	  550.63	-1750.25	  433.22
      1.1700	   31.00	  551.29	-1750.25	  433.88
      1.2700	   33.00	  551.93	-1750.25	  434.52
      1.3700	   48.00	  552.56	-1750.25	  435.15
      1.4700	   90.00	  553.19	-1750.25	  435.77
      1.5700	  302.00	  553.80	-1750.25	  436.39
      1.6700	  422.00	  554.40	-1750.25	  436.99
      1.7700	  563.00	  555.00	-1750.25	  437.58
      1.8700	  629.00	  555.58	-1750.25	  438.17
      1.9700	  751.00	  556.15	-1750.25	  438.74
      2.0700	  750.00	  556.72	-1750.25	  439.30
      2.1700	  798.00	  557.27	-1750.25	  439.86
      2.2700	  783.00	  557.81	-1750.25	  440.40
      2.3700	  688.00	  558.35	-1750.25	  440.94
      2.4700	  698.00	  558.87	-1750.25	  441.46
      2.5700	  692.00	  559.39	-1750.25	  441.98
      2.6700	  678.00	  559.89	-1750.25	  442.48
      2.7700	  683.00	  560.39	-1750.25	  442.98
      2.8700	  640.00	  560.88	-1750.25	  443.47
      2.9700	  682.00	  561.36	-1750.25	  443.95
      3.0700	  616.00	  561.83	-1750.25	  444.42
      3.1700	  637.00	  562.29	-1750.25	  444.88
      3.2700	  608.00	  562.74	-1750.25	  445.33
      3.3700	  613.00	  563.18	-1750.25	  445.77
      3.4700	  723.00	  563.62	-1750.25	  446.20
      3.5700	  779.00	  564.04	-1750.25	  446.63
      3.6700	  844.00	  564.46	-1750.25	  447.05
      3.7700	  898.00	  564.86	-1750.25	  447.45
      3.8700	  918.00	  565.26	-1750.25	  447.85
      3.9700	  969.00	  565.65	-1750.25	  448.24
      4.0700	 1025.00	  566.04	-1750.25	  448.62
      4.1700	 1043.00	  566.41	-1750.25	  449.00
      4.2700	 1025.00	  566.78	-1750.25	  449.36
      4.3700	 1181.00	  567.13	-1750.25	  449.72
      4.4700	 1062.00	  567.48	-1750.25	  450.07
      4.5700	 1024.00	  567.82	-1750.25	  450.41
      4.6700	  968.00	  568.16	-1750.25	  450.74
      4.7700	  964.00	  568.48	-1750.25	  451.07
      4.8700	  997.00	  568.80	-1750.25	  451.39
      4.9700	  984.00	  569.11	-1750.25	  451.70
      5.0700	  903.00	  569.41	-1750.25	  452.00
      5.1700	  907.00	  569.70	-1750.25	  452.29
      5.2700	  908.00	  569.99	-1750.25	  452.58
      5.3700	  880.00	  570.27	-1750.25	  452.85
      5.4700	  877.00	  570.54	-1750.25	  453.13
      5.5700	  884.00	  570.80	-1750.25	  453.39
      5.6700	  922.00	  571.06	-1750.25	  453.64
      5.7700	  807.00	  571.30	-1750.25	  453.89
      5.8700	  856.00	  571.55	-1750.25	  454.13
      5.9700	  778.00	  571.78	-1750.25	  454.37
      6.0700	  809.00	  572.01	-1750.25	  454.59
      6.1700	  780.00	  572.23	-1750.25	  454.81
      6.2700	  836.00	  572.44	-1750.25	  455.03
      6.3700	  747.00	  572.64	-1750.25	  455.23
      6.4700	  725.00	  572.84	-1750.25	  455.43
      6.5700	  748.00	  573.03	-1750.25	  455.62
      6.6700	  720.00	  573.22	-1750.25	  455.80
      6.7700	  761.00	  573.39	-1750.25	  455.98
      6.8700	  748.00	  573.57	-1750.25	  456.15
      6.9700	  721.00	  573.73	-1750.25	  456.32
      7.0700	  708.00	  573.89	-1750.25	  456.48
      7.1700	  721.00	  574.04	-1750.25	  456.63
      7.2700	  672.00	  574.18	-1750.25	  456.77
      7.3700	  664.00	  574.32	-1750.25	  456.91
      7.4700	  679.00	  574.45	-1750.25	  457.04
      7.5700	  653.00	  574.58	-1750.25	  457.17
      7.6700	  658.00	  574.70	-1750.25	  457.28
      7.7700	  641.00	  574.81	-1750.25	  457.40
      7.8700	  609.00	  574.92	-1750.25	  457.50
      7.9700	  655.00	  575.02	-1750.25	  457.60
      8.0700	  616.00	  575.11	-1750.25	  457.70
      8.1700	  651.00	  575.20	-1750.25	  457.79
      8.2700	  640.00	  575.28	-1750.25	  457.87
      8.3700	  657.00	  575.36	-1750.25	  457.95
      8.4700	  631.00	  575.43	-1750.25	  458.02
      8.5700	  622.00	  575.49	-1750.25	  458.08
      8.6700	  627.00	  575.55	-1750.25	  458.14
      8.7700	  630.00	  575.60	-1750.25	  458.19
      8.8700	  616.00	  575.65	-1750.25	  458.24
      8.9700	  601.00	  575.69	-1750.25	  458.28
      9.0700	  601.00	  575.73	-1750.25	  458.32
      9.1700	  611.00	  575.76	-1750.25	  458.35
      9.2700	  563.00	  575.79	-1750.25	  458.37
      9.3700	  618.00	  575.81	-1750.25	  458.39
      9.4700	  606.00	  575.82	-1750.25	  458.41
      9.5700	  638.00	  575.83	-1750.25	  458.42
      9.6700	  606.00	  575.84	-1750.25	  458.42
      9.7700	  620.00	  575.83	-1750.25	  458.42
      9.8700	  637.00	  575.83	-1750.25	  458.42
      9.9700	  591.00	  575.82	-1750.25	  458.40
     10.0700	  587.00	  576.54	-1739.79	  458.39
     10.1700	  580.00	  576.59	-1746.84	  458.37
     10.2700	  593.00	  576.66	-1733.91	  458.34
     10.3700	  594.00	  576.75	-1733.00	  458.31
     10.4700	  606.00	  576.88	-1721.13	  458.27
     10.5700	  609.00	  577.11	-1718.36	  458.23
     10.6700	  563.00	  577.51	-1764.76	  458.19
     10.7700	  587.00	  578.20	-1741.45	  458.14
     10.8700	  620.00	  579.22	-1709.47	  458.08
     10.9700	  587.00	  580.59	-1743.84	  458.02
     11.0700	  596.00	  582.27	-1736.52	  457.96
     11.1700	  593.00	  584.25	-1741.50	  457.89
     11.2700	  611.00	  586.56	-1725.81	  457.82
     11.3700	  602.00	  589.27	-1737.52	  457.74
     11.4700	  570.00	  592.50	-1772.75	  457.66
     11.5700	  588.00	  596.41	-1758.66	  457.57
     11.6700	  619.00	  601.32	-1732.57	  457.48
     11.7700	  615.00	  607.75	-1743.00	  457.39
     11.8700	  660.00	  616.51	-1706.76	  457.29
     11.9700	  636.00	  628.23	-1742.48	  457.19
     12.0700	  687.00	  641.70	-1704.95	  457.08
     12.1700	  674.00	  651.66	-1727.91	  456.97
     12.2700	  684.00	  649.46	-1715.71	  456.85
     12.3700	  603.00	  631.80	-1779.05	  456.73
     12.4700	  600.00	  609.36	-1759.61	  456.61
     12.5700	  610.00	  592.63	-1732.88	  456.48
     12.6700	  607.00	  583.43	-1726.68	  456.35
     12.7700	  557.00	  579.22	-1772.47	  456.22
     12.8700	  593.00	  577.32	-1734.57	  456.08
     12.9700	  537.00	  576.27	-1789.52	  455.94
     13.0700	  549.00	  575.56	-1776.81	  455.79
     13.1700	  573.00	  575.01	-1752.26	  455.65
     13.2700	  555.00	  574.55	-1769.80	  455.49
     13.3700	  569.00	  574.17	-1755.42	  455.34
     13.4700	  557.00	  573.83	-1767.08	  455.18
     13.5700	  579.00	  573.52	-1744.77	  455.01
     13.6700	  533.00	  573.24	-1790.49	  454.85
     13.7700	  576.00	  572.97	-1747.22	  454.68
     13.8700	  542.00	  572.72	-1780.97	  454.50
     13.9700	  595.00	  572.48	-1727.73	  454.33
     14.0700	  567.00	  572.24	-1755.49	  454.15
     14.1700	  598.00	  572.01	-1724.26	  453.97
     14.2700	  537.00	  571.78	-1785.03	  453.78
     14.3700	  574.00	  571.55	-1747.80	  453.59
     14.4700	  536.00	  571.33	-1785.58	  453.40
     14.5700	  536.00	  571.11	-1785.36	  453.20
     14.6700	  539.00	  570.88	-1782.13	  453.01
     14.7700	  542.00	  570.66	-1778.91	  452.81
     14.8700	  565.00	  570.44	-1755.69	  452.60
     14.9700	  605.00	  570.21	-1715.46	  452.39
     15.0700	  590.00	  569.99	-1730.24	  452.19
     15.1700	  548.00	  569.76	-1772.01	  451.97
     15.2700	  606.00	  569.53	-1713.78	  451.76
     15.3700	  533.00	  569.30	-1786.55	  451.54
     15.4700	  573.00	  569.07	-1746.32	  451.32
     15.5700	  561.00	  568.84	-1758.09	  451.10
     15.6700	  583.00	  568.61	-1735.86	  450.87
     15.7700	  577.00	  568.37	-1741.62	  450.64
     15.8700	  560.00	  568.13	-1758.38	  450.41
     15.9700	  567.00	  567.89	-1751.14	  450.18
     16.0700	  613.00	  567.65	-1704.90	  449.94
     16.1700	  521.00	  567.43	-1796.68	  449.70
     16.2700	  582.00	  567.18	-1735.43	  449.46
     16.3700	  547.00	  566.94	-1770.19	  449.22
     16.4700	  563.00	  566.69	-1753.94	  448.98
     16.5700	  520.00	  566.44	-1796.69	  448.73
     16.6700	  530.00	  566.18	-1786.43	  448.48
     16.7700	  568.00	  565.93	-1748.18	  448.23
     16.8700	  541.00	  565.67	-1774.92	  447.97
     16.9700	  591.00	  565.41	-1724.66	  447.72
     17.0700	  573.00	  565.15	-1742.40	  447.46
     17.1700	  574.00	  564.89	-1741.14	  447.20
     17.2700	  564.00	  564.63	-1750.88	  446.94
     17.3700	  560.00	  564.36	-1754.61	  446.67
     17.4700	  506.00	  564.09	-1808.34	  446.41
     17.5700	  532.00	  563.83	-1782.08	  446.14
     17.6700	  562.00	  563.55	-1751.80	  445.87
     17.7700	  559.00	  563.28	-1754.53	  445.60
     17.8700	  530.00	  563.01	-1783.26	  445.33
     17.9700	  551.00	  562.84	-1762.09	  445.05
     18.0700	  540.00	  562.56	-1772.81	  444.77
     18.1700	  558.00	  562.29	-1754.54	  444.49
     18.2700	  547.00	  562.01	-1765.26	  444.21
     18.3700	  579.00	  561.73	-1732.98	  443.93
     18.4700	  519.00	  561.45	-1792.70	  443.65
     18.5700	  527.00	  561.17	-1784.42	  443.36
     18.6700	  566.00	  560.88	-1745.13	  443.08
     18.7700	  575.00	  560.60	-1735.85	  442.79
     18.8700	  513.00	  560.39	-1797.64	  442.50
     18.9700	  594.00	  560.10	-1716.35	  442.21
     19.0700	  543.00	  559.81	-1767.06	  441.92
     19.1700	  535.00	  559.53	-1774.78	  441.62
     19.2700	  575.00	  559.24	-1734.49	  441.33
     19.3700	  628.00	  558.95	-1681.20	  441.03
     19.4700	  525.00	  558.66	-1783.91	  440.73
     19.5700	  580.00	  558.36	-1728.61	  440.43
     19.6700	  569.00	  558.07	-1739.32	  440.13
     19.7700	  515.00	  557.78	-1793.03	  439.83
     19.8700	  518.00	  557.48	-1789.73	  439.53
     19.9700	  549.00	  557.19	-1758.44	  439.23
     20.0700	  537.00	  556.89	-1770.14	  438.92
     20.1700	  563.00	  556.60	-1743.85	  438.61
     20.2700	  539.00	  556.30	-1767.55	  438.31
     20.3700	  515.00	  556.00	-1791.25	  438.00
     20.4700	  512.00	  555.68	-1793.93	  437.69
     20.5700	  530.00	  555.38	-1775.63	  437.38
     20.6700	  559.00	  555.08	-1746.33	  437.07
     20.7700	  566.00	  554.78	-1739.03	  436.76
     20.8700	  548.00	  554.52	-1756.77	  436.44
     20.9700	  514.00	  554.23	-1790.48	  436.13
     21.0700	  548.00	  553.93	-1756.18	  435.82
     21.1700	  564.00	  553.63	-1739.88	  435.50
     21.2700	  596.00	  553.34	-1707.59	  435.19
     21.3700	  558.00	  553.04	-1745.29	  434.87
     21.4700	  547.00	  552.74	-1755.99	  434.55
     21.5700	  593.00	  552.45	-1709.70	  434.23
     21.6700	  578.00	  552.16	-1724.41	  433.92
     21.7700	  566.00	  551.86	-1736.11	  433.60
     21.8700	  546.00	  551.57	-1755.82	  433.28
     21.9700	  548.00	  551.28	-1753.53	  432.96
     22.0700	  539.00	  551.00	-1762.25	  432.64
     22.1700	  539.00	  550.71	-1761.96	  432.31
     22.2700	  582.00	  550.43	-1718.68	  431.99
     22.3700	  551.00	  550.15	-1749.40	  431.67
     22.4700	  604.00	  549.87	-1696.12	  431.35
     22.5700	  530.00	  549.60	-1769.85	  431.02
     22.6700	  600.00	  549.34	-1699.59	  430.70
     22.7700	  540.00	  549.08	-1759.33	  430.38
     22.8700	  571.00	  548.83	-1728.08	  430.05
     22.9700	  580.00	  548.59	-1718.84	  429.73
     23.0700	  561.00	  548.36	-1737.61	  429.40
     23.1700	  514.00	  548.15	-1784.40	  429.08
     23.2700	  560.00	  547.96	-1738.21	  428.75
     23.3700	  554.00	  547.79	-1744.04	  428.42
     23.4700	  553.00	  547.65	-1744.90	  428.10
     23.5700	  535.00	  547.56	-1762.81	  427.77
     23.6700	  546.00	  547.53	-1751.78	  427.45
     23.7700	  550.00	  547.74	-1747.99	  427.12
     23.8700	  548.00	  548.02	-1750.27	  426.79
     23.9700	  563.00	  548.70	-1735.95	  426.47
     24.0700	  539.00	  550.19	-1761.44	  426.14
     24.1700	  554.00	  553.11	-1749.36	  425.81
     24.2700	  624.00	  558.28	-1684.53	  425.49
     24.3700	  589.00	  566.60	-1727.85	  425.16
     24.4700	  576.00	  579.07	-1753.32	  424.83
     24.5700	  620.00	  596.01	-1726.26	  424.51
     24.6700	  614.00	  614.92	-1751.17	  424.18
     24.7700	  564.00	  628.53	-1814.78	  423.85
     24.8700	  648.00	  626.61	-1728.86	  423.53
     24.9700	  596.00	  607.08	-1761.33	  423.20
     25.0700	  557.00	  582.48	-1775.73	  422.88
     25.1700	  531.00	  563.72	-1782.97	  422.55
     25.2700	  574.00	  552.99	-1729.24	  422.22
     25.3700	  545.00	  547.91	-1753.16	  421.90
     25.4700	  570.00	  545.60	-1725.85	  421.57
     25.5700	  551.00	  544.39	-1743.64	  421.25
     25.6700	  574.00	  543.61	-1719.86	  420.92
     25.7700	  581.00	  543.05	-1712.30	  420.60
     25.8700	  583.00	  542.62	-1709.87	  420.28
     25.9700	  556.00	  542.30	-1736.55	  419.95
     26.0700	  547.00	  542.06	-1745.31	  419.63
     26.1700	  563.00	  541.90	-1729.15	  419.31
     26.2700	  534.00	  541.82	-1758.07	  418.98
     26.3700	  568.00	  541.81	-1724.06	  418.66
     26.4700	  533.00	  541.89	-1759.14	  418.34
     26.5700	  537.00	  542.07	-1755.32	  418.02
     26.6700	  550.00	  542.36	-1742.61	  417.70
     26.7700	  573.00	  542.79	-1720.04	  417.38
     26.8700	  563.00	  543.40	-1730.65	  417.06
     26.9700	  594.00	  544.23	-1700.48	  416.74
     27.0700	  509.00	  545.36	-1786.61	  416.42
     27.1700	  562.00	  546.94	-1735.19	  416.10
     27.2700	  599.00	  549.21	-1700.46	  415.79
     27.3700	  593.00	  552.67	-1709.92	  415.47
     27.4700	  567.00	  558.31	-1741.56	  415.15
     27.5700	  560.00	  567.88	-1758.13	  414.84
     27.6700	  559.00	  584.17	-1775.42	  414.52
     27.7700	  638.00	  610.78	-1723.03	  414.21
     27.8700	  580.00	  650.90	-1821.15	  413.89
     27.9700	  687.00	  704.76	-1768.01	  413.58
     28.0700	  709.00	  766.38	-1807.63	  413.27
     28.1700	  930.00	  820.67	-1640.92	  412.96
     28.2700	  966.00	  844.48	-1628.73	  412.65
     28.3700	  921.00	  822.91	-1652.16	  412.34
     28.4700	  800.00	  775.86	-1726.11	  412.03
     28.5700	  737.00	  739.36	-1752.61	  411.72
     28.6700	  677.00	  730.90	-1804.15	  411.41
     28.7700	  718.00	  747.22	-1779.47	  411.11
     28.8700	  812.00	  770.44	-1708.69	  410.80
     28.9700	  752.00	  774.84	-1773.09	  410.50
     29.0700	  751.00	  742.97	-1742.22	  410.19
     29.1700	  685.00	  687.06	-1752.31	  409.89
     29.2700	  632.00	  632.80	-1751.05	  409.59
     29.3700	  590.00	  593.12	-1753.37	  409.29
     29.4700	  619.00	  568.83	-1700.08	  408.99
     29.5700	  635.00	  555.56	-1670.81	  408.69
     29.6700	  613.00	  548.51	-1685.76	  408.39
     29.7700	  625.00	  544.52	-1669.77	  408.09
     29.8700	  608.00	  542.06	-1684.31	  407.80
     29.9700	  568.00	  540.52	-1722.77	  407.50
     30.0700	  600.00	  539.76	-1690.01	  407.21
     30.1700	  529.00	  539.96	-1761.21	  406.91
     30.2700	  580.00	  541.65	-1711.90	  406.62
     30.3700	  521.00	  545.88	-1775.13	  406.33
     30.4700	  567.00	  554.28	-1737.53	  406.04
     30.5700	  618.00	  568.57	-1700.82	  405.75
     30.6700	  597.00	  589.31	-1742.56	  405.46
     30.7700	  571.00	  614.09	-1793.34	  405.18
     30.8700	  648.00	  636.10	-1738.35	  404.89
     30.9700	  607.00	  644.69	-1787.94	  404.61
     31.0700	  610.00	  632.11	-1772.36	  404.32
     31.1700	  535.00	  604.68	-1819.93	  404.04
     31.2700	  548.00	  576.50	-1778.75	  403.76
     31.3700	  511.00	  555.39	-1794.64	  403.48
     31.4700	  506.00	  542.40	-1786.65	  403.20
     31.5700	  524.00	  535.40	-1761.65	  402.93
     31.6700	  527.00	  531.79	-1755.04	  402.65
     31.7700	  533.00	  529.80	-1747.05	  402.38
     31.8700	  534.00	  528.56	-1744.81	  402.10
     31.9700	  514.00	  527.70	-1763.95	  401.83
     32.0700	  601.00	  527.09	-1676.34	  401.56
     32.1700	  573.00	  526.66	-1703.91	  401.29
     32.2700	  536.00	  526.40	-1740.65	  401.02
     32.3700	  527.00	  526.29	-1749.54	  400.75
     32.4700	  544.00	  526.34	-1732.59	  400.49
     32.5700	  544.00	  526.55	-1732.80	  400.22
     32.6700	  527.00	  526.95	-1750.20	  399.96
     32.7700	  563.00	  527.59	-1714.84	  399.70
     32.8700	  542.00	  528.54	-1736.79	  399.44
     32.9700	  511.00	  529.89	-1769.14	  399.18
     33.0700	  542.00	  531.85	-1740.10	  398.92
     33.1700	  591.00	  534.86	-1694.11	  398.67
     33.2700	  565.00	  539.90	-1725.15	  398.41
     33.3700	  518.00	  549.06	-1781.31	  398.16
     33.4700	  539.00	  566.54	-1777.79	  397.90
     33.5700	  581.00	  598.89	-1768.14	  397.65
     33.6700	  683.00	  653.87	-1721.12	  397.41
     33.7700	  793.00	  735.29	-1692.54	  397.16
     33.8700	  875.00	  835.00	-1710.25	  396.91
     33.9700	  993.00	  927.18	-1684.43	  396.67
     34.0700	 1047.00	  971.13	-1674.38	  396.42
     34.1700	  953.00	  934.79	-1732.04	  396.18
     34.2700	  886.00	  836.07	-1700.32	  395.94
     34.3700	  747.00	  726.89	-1730.14	  395.70
     34.4700	  605.00	  640.98	-1786.23	  395.46
     34.5700	  613.00	  586.23	-1723.48	  395.23
     34.6700	  509.00	  556.27	-1797.52	  394.99
     34.7700	  516.00	  541.13	-1775.38	  394.76
     34.8700	  514.00	  533.27	-1769.52	  394.53
     34.9700	  522.00	  528.62	-1756.87	  394.30
     35.0700	  530.00	  525.43	-1745.68	  394.07
     35.1700	  542.00	  523.04	-1731.29	  393.84
     35.2700	  518.00	  521.17	-1753.42	  393.62
     35.3700	  479.00	  519.64	-1790.89	  393.40
     35.4700	  541.00	  518.37	-1727.62	  393.17
     35.5700	  534.00	  517.29	-1733.54	  392.95
     35.6700	  498.00	  516.37	-1768.62	  392.73
     35.7700	  483.00	  515.58	-1782.83	  392.52
     35.8700	  506.00	  514.87	-1759.12	  392.30
     35.9700	  526.00	  514.74	-1738.99	  392.09
     36.0700	  490.00	  514.19	-1774.44	  391.87
     36.1700	  525.00	  513.69	-1738.94	  391.66
     36.2700	  509.00	  513.25	-1754.50	  391.45
     36.3700	  538.00	  512.84	-1725.09	  391.25
     36.4700	  561.00	  512.48	-1701.73	  391.04
     36.5700	  528.00	  512.15	-1734.40	  390.84
     36.6700	  518.00	  511.87	-1744.12	  390.63
     36.7700	  508.00	  511.63	-1753.88	  390.43
     36.8700	  537.00	  511.45	-1724.70	  390.23
     36.9700	  511.00	  511.38	-1750.63	  390.04
     37.0700	  500.00	  511.53	-1761.78	  389.84
     37.1700	  540.00	  512.12	-1722.37	  389.65
     37.2700	  514.00	  513.45	-1749.70	  389.45
     37.3700	  537.00	  515.89	-1729.14	  389.26
     37.4700	  552.00	  519.52	-1717.77	  389.07
     37.5700	  571.00	  523.88	-1703.13	  388.88
     37.6700	  522.00	  527.83	-1756.08	  388.70
     37.7700	  548.00	  529.90	-1732.15	  388.51
     37.8700	  512.00	  529.51	-1767.76	  388.33
     37.9700	  541.00	  527.42	-1736.67	  388.15
     38.0700	  537.00	  524.33	-1737.58	  387.97
     38.1700	  503.00	  520.47	-1767.72	  387.79
     38.2700	  509.00	  516.45	-1757.70	  387.62
     38.3700	  519.00	  513.03	-1744.28	  387.44
     38.4700	  495.00	  510.55	-1765.80	  387.27
     38.5700	  515.00	  508.93	-1744.18	  387.10
     38.6700	  497.00	  507.96	-1761.21	  386.93
     38.7700	  504.00	  507.26	-1753.51	  386.76
     38.8700	  482.00	  506.86	-1775.11	  386.60
     38.9700	  473.00	  506.56	-1783.81	  386.44
     39.0700	  480.00	  506.31	-1776.56	  386.27
     39.1700	  549.00	  506.09	-1707.34	  386.11
     39.2700	  490.00	  505.82	-1766.07	  385.95
     39.3700	  522.00	  505.63	-1733.88	  385.80
     39.4700	  503.00	  505.47	-1752.72	  385.64
     39.5700	  502.00	  505.44	-1753.69	  385.49
     39.6700	  539.00	  505.29	-1716.54	  385.34
     39.7700	  513.00	  505.16	-1742.41	  385.19
     39.8700	  502.00	  505.04	-1753.29	  385.04
     39.9700	  529.00	  504.93	-1726.18	  384.89
     40.0700	  508.00	  504.83	-1747.08	  384.75
     40.1700	  514.00	  504.74	-1740.99	  384.61
     40.2700	  496.00	  504.67	-1758.92	  384.47
     40.3700	  455.00	  504.60	-1799.85	  384.33
     40.4700	  560.00	  504.55	-1694.80	  384.19
     40.5700	  503.00	  504.51	-1751.76	  384.05
     40.6700	  492.00	  504.50	-1762.75	  383.92
     40.7700	  540.00	  504.50	-1714.75	  383.79
     40.8700	  459.00	  504.52	-1795.77	  383.66
     40.9700	  479.00	  504.58	-1775.83	  383.53
     41.0700	  507.00	  504.67	-1747.92	  383.40
     41.1700	  579.00	  504.76	-1676.01	  383.28
     41.2700	  462.00	  504.94	-1793.19	  383.15
     41.3700	  482.00	  505.19	-1773.44	  383.03
     41.4700	  519.00	  505.53	-1736.78	  382.91
     41.5700	  520.00	  506.41	-1736.66	  382.79
     41.6700	  488.00	  507.05	-1769.30	  382.68
     41.7700	  494.00	  508.00	-1764.25	  382.56
     41.8700	  536.00	  509.58	-1723.83	  382.45
     41.9700	  476.00	  512.48	-1786.73	  382.34
     42.0700	  524.00	  518.08	-1744.33	  382.23
     42.1700	  494.00	  528.59	-1784.84	  382.12
     42.2700	  519.00	  546.70	-1777.95	  382.02
     42.3700	  512.00	  573.91	-1812.16	  381.91
     42.4700	  602.00	  608.50	-1756.75	  381.81
     42.5700	  602.00	  643.26	-1791.51	  381.71
     42.6700	  604.00	  666.08	-1812.33	  381.61
     42.7700	  640.00	  665.09	-1775.34	  381.51
     42.8700	  581.00	  640.08	-1809.33	  381.42
     42.9700	  589.00	  603.65	-1764.90	  381.33
     43.0700	  507.00	  568.88	-1812.13	  381.24
     43.1700	  533.00	  542.50	-1759.75	  381.15
     43.2700	  541.00	  525.59	-1734.84	  381.06
     43.3700	  461.00	  516.09	-1805.34	  380.97
     43.4700	  510.00	  511.17	-1751.42	  380.89
     43.5700	  483.00	  508.63	-1775.88	  380.80
     43.6700	  488.00	  507.38	-1769.63	  380.72
     43.7700	  498.00	  506.47	-1758.72	  380.64
     43.8700	  503.00	  505.82	-1753.07	  380.57
     43.9700	  522.00	  505.33	-1733.58	  380.49
     44.0700	  496.00	  504.99	-1759.24	  380.42
     44.1700	  466.00	  504.70	-1788.95	  380.34
     44.2700	  497.00	  504.47	-1757.72	  380.27
     44.3700	  501.00	  504.30	-1753.55	  380.21
     44.4700	  487.00	  504.06	-1767.31	  380.14
     44.5700	  521.00	  503.97	-1733.22	  380.07
     44.6700	  508.00	  503.92	-1746.17	  380.01
     44.7700	  538.00	  503.90	-1716.15	  379.95
     44.8700	  493.00	  503.91	-1761.16	  379.89
     44.9700	  508.00	  503.94	-1746.19	  379.83
     45.0700	  537.00	  504.00	-1717.25	  379.77
     45.1700	  503.00	  504.26	-1751.51	  379.72
     45.2700	  530.00	  504.36	-1724.61	  379.66
     45.3700	  564.00	  504.48	-1690.73	  379.61
     45.4700	  471.00	  504.63	-1783.88	  379.56
     45.5700	  470.00	  504.80	-1785.05	  379.51
     45.6700	  504.00	  505.00	-1751.25	  379.47
     45.7700	  494.00	  505.23	-1761.48	  379.42
     45.8700	  511.00	  505.48	-1744.73	  379.38
     45.9700	  514.00	  505.77	-1742.02	  379.34
     46.0700	  524.00	  506.09	-1732.34	  379.30
     46.1700	  500.00	  506.45	-1756.70	  379.26
     46.2700	  509.00	  506.85	-1748.10	  379.23
     46.3700	  541.00	  507.31	-1716.56	  379.19
     46.4700	  517.00	  507.82	-1741.07	  379.16
     46.5700	  508.00	  508.41	-1750.66	  379.13
     46.6700	  487.00	  509.08	-1772.33	  379.10
     46.7700	  485.00	  509.87	-1775.12	  379.07
     46.8700	  466.00	  510.83	-1795.08	  379.04
     46.9700	  513.00	  512.07	-1749.32	  379.02
     47.0700	  518.00	  513.87	-1746.12	  379.00
     47.1700	  514.00	  516.76	-1753.01	  378.97
     47.2700	  487.00	  521.66	-1784.91	  378.95
     47.3700	  545.00	  529.69	-1734.94	  378.94
     47.4700	  542.00	  542.06	-1750.31	  378.92
     47.5700	  532.00	  559.06	-1777.31	  378.91
     47.6700	  590.00	  579.09	-1739.34	  378.89
     47.7700	  617.00	  598.09	-1731.34	  378.88
     47.8700	  568.00	  610.03	-1792.28	  378.87
     47.9700	  608.00	  610.04	-1752.29	  378.86
     48.0700	  577.00	  598.70	-1771.95	  378.86
     48.1700	  595.00	  581.94	-1737.19	  378.85
     48.2700	  558.00	  565.77	-1758.02	  378.85
     48.3700	  532.00	  553.70	-1771.95	  378.84
     48.4700	  584.00	  546.76	-1713.01	  378.84
     48.5700	  541.00	  544.43	-1753.68	  378.85
     48.6700	  546.00	  545.56	-1749.81	  378.85
     48.7700	  541.00	  549.18	-1758.43	  378.85
     48.8700	  545.00	  554.79	-1760.04	  378.86
     48.9700	  568.00	  562.42	-1744.67	  378.87
     49.0700	  571.00	  572.74	-1751.99	  378.87
     49.1700	  552.00	  587.42	-1785.67	  378.89
     49.2700	  636.00	  609.94	-1724.19	  378.90
     49.3700	  696.00	  646.94	-1701.19	  378.91
     49.4700	  730.00	  709.53	-1729.78	  378.93
     49.5700	  796.00	  813.98	-1768.23	  378.94
     49.6700	  870.00	  977.88	-1858.13	  378.96
     49.7700	 1134.00	 1215.24	-1831.49	  378.98
     49.8700	 1467.00	 1524.80	-1808.05	  379.00
     49.9700	 1793.00	 1878.54	-1835.79	  379.02
     50.0700	 2212.00	 2212.27	-1750.52	  379.05
     50.1700	 2652.00	 2429.60	-1527.85	  379.07
     50.2700	 2474.00	 2442.18	-1718.43	  379.10
     50.3700	 2339.00	 2242.02	-1653.27	  379.13
     50.4700	 1882.00	 1913.13	-1781.38	  379.16
     50.5700	 1467.00	 1558.37	-1841.62	  379.19
     50.6700	 1096.00	 1246.67	-1900.92	  379.22
     50.7700	  823.00	 1008.94	-1936.19	  379.26
     50.8700	  694.00	  847.63	-1903.88	  379.29
     50.9700	  676.00	  748.38	-1822.63	  379.33
     51.0700	  632.00	  690.66	-1808.91	  379.37
     51.1700	  629.00	  655.61	-1776.86	  379.41
     51.2700	  600.00	  630.49	-1780.74	  379.45
     51.3700	  599.00	  609.62	-1760.87	  379.49
     51.4700	  582.00	  591.80	-1760.05	  379.54
     51.5700	  565.00	  577.28	-1762.53	  379.58
     51.6700	  512.00	  566.25	-1804.50	  379.63
     51.7700	  547.00	  558.40	-1761.65	  379.68
     51.8700	  571.00	  553.04	-1732.29	  379.73
     51.9700	  581.00	  549.42	-1718.67	  379.78
     52.0700	  497.00	  546.95	-1800.20	  379.83
     52.1700	  535.00	  545.37	-1760.61	  379.88
     52.2700	  563.00	  544.86	-1732.11	  379.94
     52.3700	  561.00	  545.14	-1734.39	  380.00
     52.4700	  532.00	  546.86	-1765.11	  380.05
     52.5700	  603.00	  550.98	-1698.23	  380.11
     52.6700	  607.00	  559.54	-1702.79	  380.17
     52.7700	  570.00	  576.30	-1756.55	  380.23
     52.8700	  664.00	  607.14	-1693.39	  380.30
     52.9700	  695.00	  659.44	-1714.69	  380.36
     53.0700	  802.00	  739.56	-1687.81	  380.43
     53.1700	  866.00	  848.60	-1732.85	  380.49
     53.2700	  996.00	  977.58	-1731.83	  380.56
     53.3700	 1099.00	 1104.25	-1755.50	  380.63
     53.4700	 1180.00	 1194.60	-1764.85	  380.70
     53.5700	 1185.00	 1214.98	-1780.23	  380.77
     53.6700	 1045.00	 1155.98	-1861.23	  380.84
     53.7700	 1009.00	 1041.96	-1783.21	  380.92
     53.8700	  869.00	  910.08	-1791.33	  380.99
     53.9700	  812.00	  789.37	-1727.62	  381.07
     54.0700	  692.00	  695.01	-1753.26	  381.15
     54.1700	  630.00	  630.21	-1750.46	  381.23
     54.2700	  618.00	  590.41	-1722.66	  381.31
     54.3700	  600.00	  568.13	-1718.38	  381.39
     54.4700	  592.00	  556.57	-1714.82	  381.47
     54.5700	  577.00	  550.88	-1724.13	  381.55
     54.6700	  541.00	  548.24	-1757.49	  381.64
     54.7700	  562.00	  547.26	-1735.51	  381.72
     54.8700	  573.00	  547.32	-1724.57	  381.81
     54.9700	  621.00	  548.17	-1677.42	  381.90
     55.0700	  576.00	  549.74	-1723.99	  381.99
     55.1700	  537.00	  552.04	-1765.29	  382.08
     55.2700	  575.00	  555.14	-1730.39	  382.17
     55.3700	  561.00	  559.12	-1748.37	  382.26
     55.4700	  570.00	  564.21	-1744.46	  382.35
     55.5700	  568.00	  570.79	-1753.04	  382.45
     55.6700	  587.00	  579.62	-1742.87	  382.54
     55.7700	  563.00	  592.25	-1779.50	  382.64
     55.8700	  580.00	  611.84	-1782.09	  382.73
     55.9700	  606.00	  644.26	-1788.51	  382.83
     56.0700	  680.00	  699.43	-1769.68	  382.93
     56.1700	  750.00	  791.74	-1791.99	  383.03
     56.2700	  873.00	  938.59	-1815.84	  383.13
     56.3700	 1019.00	 1155.33	-1886.58	  383.24
     56.4700	 1393.00	 1447.14	-1804.39	  383.34
     56.5700	 1720.00	 1799.54	-1829.79	  383.44
     56.6700	 2099.00	 2170.46	-1821.71	  383.55
     56.7700	 2388.00	 2488.00	-1850.25	  383.66
     56.8700	 2539.00	 2662.45	-1873.70	  383.76
     56.9700	 2523.00	 2629.85	-1857.10	  383.87
     57.0700	 2328.00	 2402.75	-1825.00	  383.98
     57.1700	 2076.00	 2060.29	-1734.54	  384.09
     57.2700	 1659.00	 1690.78	-1782.03	  384.20
     57.3700	 1301.00	 1357.40	-1806.65	  384.31
     57.4700	 1047.00	 1092.75	-1796.00	  384.42
     57.5700	  882.00	  904.25	-1772.50	  384.54
     57.6700	  755.00	  782.87	-1778.12	  384.65
     57.7700	  709.00	  712.53	-1753.78	  384.77
     57.8700	  694.00	  677.77	-1734.02	  384.88
     57.9700	  704.00	  667.55	-1713.80	  385.00
     58.0700	  681.00	  675.96	-1745.21	  385.12
     58.1700	  732.00	  701.06	-1719.31	  385.23
     58.2700	  755.00	  742.96	-1738.21	  385.35
     58.3700	  863.00	  801.96	-1689.21	  385.47
     58.4700	 1055.00	  876.84	-1572.09	  385.59
     58.5700	 1151.00	  963.18	-1562.43	  385.71
     58.6700	 1229.00	 1052.79	-1574.04	  385.84
     58.7700	 1446.00	 1135.78	-1440.03	  385.96
     58.8700	 1617.00	 1205.11	-1338.36	  386.08
     58.9700	 1618.00	 1256.81	-1389.06	  386.21
     59.0700	 1585.00	 1285.76	-1451.01	  386.33
     59.1700	 1578.00	 1287.08	-1459.33	  386.46
     59.2700	 1448.00	 1263.96	-1566.21	  386.58
     59.3700	 1388.00	 1228.74	-1590.99	  386.71
     59.4700	 1233.00	 1194.51	-1711.76	  386.84
     59.5700	 1178.00	 1169.97	-1742.22	  386.97
     59.6700	 1184.00	 1162.09	-1728.34	  387.10
     59.7700	 1131.00	 1179.23	-1798.48	  387.23
     59.8700	 1230.00	 1227.36	-1747.61	  387.36
     59.9700	 1304.00	 1303.66	-1749.91	  387.49
     60.0700	 1460.00	 1393.02	-1683.27	  387.62
     60.1700	 1526.00	 1468.45	-1692.70	  387.75
     60.2700	 1625.00	 1497.57	-1622.82	  387.88
     60.3700	 1530.00	 1458.99	-1679.24	  388.02
     60.4700	 1521.00	 1357.61	-1586.86	  388.15
     60.5700	 1289.00	 1219.04	-1680.29	  388.29
     60.6700	 1122.00	 1071.89	-1700.14	  388.42
     60.7700	  924.00	  937.33	-1763.58	  388.56
     60.8700	  792.00	  827.56	-1785.81	  388.69
     60.9700	  730.00	  746.97	-1767.22	  388.83
     61.0700	  661.00	  694.79	-1784.04	  388.97
     61.1700	  705.00	  667.89	-1713.14	  389.10
     61.2700	  647.00	  663.64	-1766.89	  389.24
     61.3700	  627.00	  681.54	-1804.79	  389.38
     61.4700	  668.00	  723.53	-1805.78	  389.52
     61.5700	  697.00	  792.76	-1846.01	  389.66
     61.6700	  839.00	  891.28	-1802.53	  389.80
     61.7700	  948.00	 1017.05	-1819.30	  389.94
     61.8700	 1082.00	 1161.21	-1829.46	  390.08
     61.9700	 1251.00	 1306.35	-1805.60	  390.22
     62.0700	 1337.00	 1426.26	-1839.51	  390.36
     62.1700	 1362.00	 1490.70	-1878.95	  390.50
     62.2700	 1388.00	 1478.88	-1841.13	  390.65
     62.3700	 1322.00	 1394.19	-1822.44	  390.79
     62.4700	 1149.00	 1261.64	-1862.89	  390.93
     62.5700	 1025.00	 1111.41	-1836.66	  391.08
     62.6700	  872.00	  967.42	-1845.67	  391.22
     62.7700	  792.00	  844.42	-1802.67	  391.36
     62.8700	  655.00	  748.74	-1843.99	  391.51
     62.9700	  608.00	  680.12	-1822.37	  391.65
     63.0700	  617.00	  634.33	-1767.58	  391.80
     63.1700	  576.00	  605.62	-1779.87	  391.94
     63.2700	  593.00	  588.62	-1745.87	  392.09
     63.3700	  555.00	  579.25	-1774.50	  392.23
     63.4700	  562.00	  575.06	-1763.31	  392.38
     63.5700	  584.00	  575.06	-1741.31	  392.53
     63.6700	  561.00	  579.53	-1768.78	  392.67
     63.7700	  564.00	  589.70	-1775.95	  392.82
     63.8700	  619.00	  607.51	-1738.76	  392.96
     63.9700	  687.00	  635.02	-1698.27	  393.11
     64.0700	  710.00	  673.71	-1713.96	  393.26
     64.1700	  763.00	  723.46	-1710.71	  393.41
     64.2700	  810.00	  781.72	-1721.97	  393.55
     64.3700	  911.00	  842.85	-1682.10	  393.70
     64.4700	  931.00	  898.07	-1717.32	  393.85
     64.5700	  980.00	  936.84	-1707.09	  394.00
     64.6700	 1016.00	  950.11	-1684.36	  394.15
     64.7700	 1054.00	  936.75	-1633.00	  394.29
     64.8700	  947.00	  900.90	-1704.15	  394.44
     64.9700	  872.00	  851.09	-1729.34	  394.59
     65.0700	  815.00	  796.59	-1731.84	  394.74
     65.1700	  840.00	  744.97	-1655.22	  394.89
     65.2700	  733.00	  700.59	-1717.84	  395.04
     65.3700	  658.00	  664.70	-1756.95	  395.18
     65.4700	  624.00	  636.60	-1762.85	  395.33
     65.5700	  629.00	  614.90	-1736.15	  395.48
     65.6700	  622.00	  598.36	-1726.61	  395.63
     65.7700	  568.00	  586.02	-1768.27	  395.78
     65.8700	  583.00	  577.09	-1744.34	  395.93
     65.9700	  571.00	  571.00	-1750.25	  396.08
     66.0700	  599.00	  567.28	-1718.53	  396.22
     66.1700	  565.00	  565.54	-1750.79	  396.37
     66.2700	  569.00	  565.42	-1746.67	  396.52
     66.3700	  591.00	  566.70	-1725.95	  396.67
     66.4700	  518.00	  569.22	-1801.47	  396.82
     66.5700	  575.00	  573.17	-1748.42	  396.96
     66.6700	  556.00	  578.72	-1772.97	  397.11
     66.7700	  561.00	  586.83	-1776.08	  397.26
     66.8700	  537.00	  599.16	-1812.41	  397.41
     66.9700	  636.00	  618.60	-1732.85	  397.56
     67.0700	  654.00	  649.74	-1745.99	  397.70
     67.1700	  670.00	  699.17	-1779.42	  397.85
     67.2700	  757.00	  775.27	-1768.52	  398.00
     67.3700	  861.00	  887.17	-1776.42	  398.15
     67.4700	 1040.00	 1042.45	-1752.70	  398.29
     67.5700	 1218.00	 1244.22	-1776.47	  398.44
     67.6700	 1525.00	 1487.41	-1712.66	  398.59
     67.7700	 1821.00	 1756.07	-1685.32	  398.73
     67.8700	 2002.00	 2022.06	-1770.31	  398.88
     67.9700	 2306.00	 2245.55	-1689.80	  399.02
     68.0700	 2490.00	 2381.40	-1641.65	  399.17
     68.1700	 2467.00	 2395.10	-1678.35	  399.31
     68.2700	 2316.00	 2282.84	-1717.09	  399.46
     68.3700	 2101.00	 2074.07	-1723.32	  399.60
     68.4700	 1849.00	 1813.62	-1714.87	  399.75
     68.5700	 1525.00	 1543.23	-1768.48	  399.89
     68.6700	 1229.00	 1293.51	-1814.76	  400.03
     68.7700	  959.00	 1082.95	-1874.20	  400.18
     68.8700	  876.00	  918.62	-1792.87	  400.32
     68.9700	  777.00	  798.83	-1772.08	  400.46
     69.0700	  694.00	  716.62	-1772.87	  400.61
     69.1700	  665.00	  662.97	-1748.22	  400.75
     69.2700	  688.00	  629.22	-1691.47	  400.89
     69.3700	  571.00	  608.36	-1787.61	  401.03
     69.4700	  591.00	  595.39	-1754.64	  401.17
     69.5700	  579.00	  587.11	-1758.36	  401.31
     69.6700	  587.00	  581.61	-1744.86	  401.45
     69.7700	  581.00	  577.83	-1747.08	  401.59
     69.8700	  567.00	  575.23	-1758.48	  401.73
     69.9700	  592.00	  573.51	-1731.76	  401.87
     70.0700	  605.00	  572.54	-1717.79	  402.01
     70.1700	  611.00	  572.29	-1711.54	  402.14
     70.2700	  562.00	  572.74	-1760.99	  402.28
     70.3700	  522.00	  573.99	-1802.24	  402.42
     70.4700	  621.00	  576.28	-1705.53	  402.55
     70.5700	  578.00	  580.07	-1752.32	  402.69
     70.6700	  582.00	  586.18	-1754.43	  402.83
     70.7700	  636.00	  596.09	-1710.34	  402.96
     70.8700	  556.00	  612.11	-1806.36	  403.09
     70.9700	  627.00	  637.73	-1760.98	  403.23
     71.0700	  629.00	  677.65	-1798.90	  403.36
     71.1700	  707.00	  737.51	-1780.76	  403.49
     71.2700	  796.00	  823.06	-1777.31	  403.62
     71.3700	  873.00	  939.64	-1816.89	  403.76
     71.4700	 1041.00	 1086.88	-1796.13	  403.89
     71.5700	 1234.00	 1261.86	-1778.11	  404.02
     71.6700	 1481.00	 1454.20	-1723.45	  404.14
     71.7700	 1577.00	 1646.21	-1819.46	  404.27
     71.8700	 1718.00	 1813.48	-1845.73	  404.40
     71.9700	 1847.00	 1927.66	-1830.91	  404.53
     72.0700	 1950.00	 1964.54	-1764.79	  404.66
     72.1700	 1917.00	 1915.38	-1748.63	  404.78
     72.2700	 1774.00	 1791.78	-1768.03	  404.91
     72.3700	 1699.00	 1620.33	-1671.58	  405.03
     72.4700	 1582.00	 1428.63	-1596.88	  405.15
     72.5700	 1392.00	 1239.89	-1598.14	  405.28
     72.6700	 1182.00	 1070.29	-1638.54	  405.40
     72.7700	 1123.00	  928.76	-1556.01	  405.52
     72.8700	 1030.00	  817.86	-1538.11	  405.64
     72.9700	  891.00	  735.61	-1594.86	  405.76
     73.0700	  834.00	  677.36	-1593.61	  405.88
     73.1700	  782.00	  637.56	-1605.81	  406.00
     73.2700	  751.00	  611.02	-1610.27	  406.12
     73.3700	  669.00	  593.44	-1674.69	  406.24
     73.4700	  608.00	  581.72	-1723.97	  406.35
     73.5700	  668.00	  573.80	-1656.05	  406.47
     73.6700	  565.00	  568.36	-1753.61	  406.58
     73.7700	  577.00	  564.65	-1737.90	  406.70
     73.8700	  562.00	  562.20	-1750.45	  406.81
     73.9700	  603.00	  560.74	-1707.99	  406.92
     74.0700	  623.00	  560.07	-1687.32	  407.03
     74.1700	  600.00	  560.02	-1710.27	  407.14
     74.2700	  588.00	  560.38	-1722.63	  407.25
     74.3700	  608.00	  560.94	-1703.19	  407.36
     74.4700	  669.00	  561.42	-1642.67	  407.47
     74.5700	  651.00	  561.54	-1660.79	  407.57
     74.6700	  608.00	  561.10	-1703.35	  407.68
     74.7700	  601.00	  560.03	-1709.28	  407.78
     74.8700	  642.00	  558.46	-1666.71	  407.89
     74.9700	  607.00	  556.63	-1699.88	  407.99
     75.0700	  668.00	  554.87	-1637.12	  408.09
     75.1700	  543.00	  553.48	-1760.73	  408.19
     75.2700	  590.00	  552.78	-1713.03	  408.29
     75.3700	  525.00	  553.14	-1778.39	  408.39
     75.4700	  533.00	  555.05	-1772.30	  408.49
     75.5700	  587.00	  558.93	-1722.18	  408.59
     75.6700	  561.00	  565.18	-1754.43	  408.69
     75.7700	  572.00	  574.45	-1752.70	  408.78
     75.8700	  626.00	  586.95	-1711.20	  408.87
     75.9700	  643.00	  602.69	-1709.94	  408.97
     76.0700	  626.00	  621.20	-1745.45	  409.06
     76.1700	  627.00	  641.47	-1764.72	  409.15
     76.2700	  650.00	  661.85	-1762.10	  409.24
     76.3700	  655.00	  680.14	-1775.39	  409.33
     76.4700	  731.00	  693.77	-1713.02	  409.42
     76.5700	  677.00	  700.34	-1773.59	  409.50
     76.6700	  666.00	  698.48	-1782.73	  409.59
     76.7700	  670.00	  688.57	-1768.82	  409.67
     76.8700	  645.00	  672.49	-1777.74	  409.76
     76.9700	  651.00	  652.64	-1751.89	  409.84
     77.0700	  625.00	  631.82	-1757.07	  409.92
     77.1700	  620.00	  611.83	-1742.08	  410.00
     77.2700	  574.00	  594.03	-1770.28	  410.08
     77.3700	  580.00	  579.17	-1749.42	  410.16
     77.4700	  550.00	  567.47	-1767.72	  410.23
     77.5700	  582.00	  558.73	-1726.98	  410.31
     77.6700	  560.00	  552.50	-1742.75	  410.38
     77.7700	  558.00	  548.25	-1740.50	  410.46
     77.8700	  497.00	  545.45	-1798.70	  410.53
     77.9700	  522.00	  543.65	-1771.90	  410.60
     78.0700	  499.00	  542.52	-1793.77	  410.67
     78.1700	  520.00	  541.81	-1772.06	  410.74
     78.2700	  506.00	  541.37	-1785.62	  410.80
     78.3700	  542.00	  541.11	-1749.36	  410.87
     78.4700	  508.00	  540.98	-1783.23	  410.93
     78.5700	  532.00	  540.94	-1759.19	  411.00
     78.6700	  522.00	  541.01	-1769.26	  411.06
     78.7700	  509.00	  541.18	-1782.43	  411.12
     78.8700	  498.00	  541.48	-1793.73	  411.18
     78.9700	  525.00	  541.94	-1767.19	  411.24
     79.0700	  515.00	  542.61	-1777.86	  411.30
     79.1700	  528.00	  543.53	-1765.78	  411.35
     79.2700	  517.00	  544.59	-1777.84	  411.41
     79.3700	  506.00	  546.21	-1790.46	  411.46
     79.4700	  529.00	  548.28	-1769.53	  411.51
     79.5700	  541.00	  550.86	-1760.11	  411.56
     79.6700	  511.00	  554.05	-1793.30	  411.61
     79.7700	  501.00	  557.93	-1807.18	  411.66
     79.8700	  529.00	  562.65	-1783.90	  411.71
     79.9700	  551.00	  568.37	-1767.62	  411.75
     80.0700	  585.00	  575.31	-1740.56	  411.79
     80.1700	  533.00	  583.78	-1801.03	  411.84
     80.2700	  589.00	  594.09	-1755.34	  411.88
     80.3700	  529.00	  606.55	-1827.80	  411.92
     80.4700	  571.00	  621.27	-1800.52	  411.96
     80.5700	  565.00	  638.13	-1823.38	  411.99
     80.6700	  606.00	  656.61	-1800.86	  412.03
     80.7700	  624.00	  675.79	-1802.04	  412.06
     80.8700	  643.00	  694.39	-1801.64	  412.10
     80.9700	  677.00	  710.89	-1784.14	  412.13
     81.0700	  733.00	  723.87	-1741.12	  412.16
     81.1700	  786.00	  732.18	-1696.43	  412.19
     81.2700	  737.00	  735.09	-1748.34	  412.22
     81.3700	  756.00	  732.34	-1726.59	  412.24
     81.4700	  760.00	  724.25	-1714.50	  412.27
     81.5700	  774.00	  711.65	-1687.90	  412.29
     81.6700	  732.00	  695.70	-1713.95	  412.31
     81.7700	  737.00	  677.62	-1690.87	  412.33
     81.8700	  746.00	  658.60	-1662.85	  412.35
     81.9700	  726.00	  639.72	-1663.97	  412.37
     82.0700	  664.00	  622.02	-1708.27	  412.38
     82.1700	  645.00	  606.13	-1711.38	  412.40
     82.2700	  626.00	  592.44	-1716.69	  412.41
     82.3700	  591.00	  581.09	-1740.34	  412.42
     82.4700	  601.00	  572.05	-1721.30	  412.43
     82.5700	  591.00	  565.15	-1724.40	  412.44
     82.6700	  551.00	  560.24	-1759.49	  412.45
     82.7700	  522.00	  557.11	-1785.36	  412.45
     82.8700	  564.00	  555.58	-1741.83	  412.46
     82.9700	  560.00	  555.51	-1745.76	  412.46
     83.0700	  562.00	  556.80	-1745.05	  412.46
     83.1700	  578.00	  559.36	-1731.61	  412.46
     83.2700	  552.00	  563.09	-1761.34	  412.46
     83.3700	  562.00	  567.84	-1756.09	  412.45
     83.4700	  529.00	  573.38	-1794.63	  412.45
     83.5700	  514.00	  579.38	-1815.63	  412.44
     83.6700	  570.00	  585.40	-1765.65	  412.44
     83.7700	  514.00	  590.89	-1827.14	  412.43
     83.8700	  606.00	  595.24	-1739.49	  412.41
     83.9700	  588.00	  597.84	-1760.09	  412.40
     84.0700	  554.00	  598.28	-1794.53	  412.39
     84.1700	  575.00	  596.45	-1771.70	  412.37
     84.2700	  553.00	  592.62	-1789.87	  412.35
     84.3700	  536.00	  587.31	-1801.56	  412.34
     84.4700	  550.00	  581.12	-1781.37	  412.32
     84.5700	  575.00	  574.64	-1749.89	  412.29
     84.6700	  517.00	  568.33	-1801.58	  412.27
     84.7700	  577.00	  562.54	-1735.79	  412.24
     84.8700	  565.00	  557.50	-1742.75	  412.22
     84.9700	  528.00	  553.33	-1775.58	  412.19
     85.0700	  527.00	  550.05	-1773.30	  412.16
     85.1700	  485.00	  547.61	-1812.86	  412.13
     85.2700	  550.00	  545.93	-1746.18	  412.10
     85.3700	  505.00	  544.91	-1790.16	  412.06
     85.4700	  502.00	  544.43	-1792.68	  412.02
     85.5700	  544.00	  544.43	-1750.68	  411.99
     85.6700	  530.00	  544.82	-1765.07	  411.95
     85.7700	  533.00	  545.57	-1762.82	  411.91
     85.8700	  510.00	  546.67	-1786.92	  411.86
     85.9700	  527.00	  548.13	-1771.38	  411.82
     86.0700	  551.00	  549.98	-1749.23	  411.77
     86.1700	  534.00	  552.28	-1768.53	  411.73
     86.2700	  526.00	  555.11	-1779.36	  411.68
     86.3700	  579.00	  558.57	-1729.82	  411.63
     86.4700	  566.00	  562.77	-1747.02	  411.58
     86.5700	  581.00	  567.81	-1737.06	  411.52
     86.6700	  513.00	  573.76	-1811.01	  411.47
     86.7700	  589.00	  580.26	-1741.51	  411.41
     86.8700	  611.00	  587.78	-1727.03	  411.35
     86.9700	  616.00	  595.70	-1729.95	  411.29
     87.0700	  623.00	  603.56	-1730.81	  411.23
     87.1700	  657.00	  610.78	-1704.03	  411.17
     87.2700	  668.00	  616.67	-1698.92	  411.10
     87.3700	  661.00	  620.55	-1709.80	  411.03
     87.4700	  678.00	  621.88	-1694.13	  410.97
     87.5700	  684.00	  620.44	-1686.69	  410.90
     87.6700	  612.00	  616.44	-1754.69	  410.82
     87.7700	  626.00	  610.43	-1734.68	  410.75
     87.8700	  626.00	  603.17	-1727.42	  410.68
     87.9700	  596.00	  595.46	-1749.71	  410.60
     88.0700	  622.00	  588.02	-1716.27	  410.52
     88.1700	  642.00	  581.48	-1689.73	  410.44
     88.2700	  599.00	  576.32	-1727.57	  410.36
     88.3700	  538.00	  572.87	-1785.12	  410.28
     88.4700	  605.00	  571.29	-1716.54	  410.19
     88.5700	  599.00	  571.59	-1722.84	  410.11
     88.6700	  612.00	  573.64	-1711.89	  410.02
     88.7700	  624.00	  577.18	-1703.43	  409.93
     88.8700	  649.00	  581.83	-1683.08	  409.84
     88.9700	  571.00	  587.13	-1766.38	  409.75
     89.0700	  630.00	  592.53	-1712.78	  409.65
     89.1700	  653.00	  597.47	-1694.72	  409.56
     89.2700	  609.00	  601.33	-1742.58	  409.46
     89.3700	  590.00	  603.58	-1763.83	  409.36
     89.4700	  569.00	  603.86	-1785.11	  409.26
     89.5700	  608.00	  602.10	-1744.35	  409.16
     89.6700	  542.00	  598.50	-1806.75	  409.05
     89.7700	  576.00	  593.46	-1767.71	  408.95
     89.8700	  566.00	  587.50	-1771.75	  408.84
     89.9700	  560.00	  581.10	-1771.35	  408.73
     90.0700	  563.00	  574.70	-1761.95	  408.62
     90.1700	  547.00	  568.64	-1771.89	  408.51
     90.2700	  496.00	  563.17	-1817.42	  408.39
     90.3700	  529.00	  558.44	-1779.69	  408.28
     90.4700	  537.00	  554.53	-1767.78	  408.16
     90.5700	  549.00	  551.42	-1752.67	  408.04
     90.6700	  538.00	  549.07	-1761.32	  407.92
     90.7700	  554.00	  547.39	-1743.64	  407.80
     90.8700	  511.00	  546.28	-1785.53	  407.68
     90.9700	  566.00	  545.66	-1729.91	  407.55
     91.0700	  537.00	  545.46	-1758.71	  407.43
     91.1700	  561.00	  545.64	-1734.89	  407.30
     91.2700	  490.00	  546.20	-1806.45	  407.17
     91.3700	  523.00	  547.17	-1774.42	  407.04
     91.4700	  538.00	  548.63	-1760.88	  406.90
     91.5700	  516.00	  550.68	-1784.93	  406.77
     91.6700	  538.00	  553.47	-1765.72	  406.63
     91.7700	  576.00	  557.17	-1731.42	  406.50
     91.8700	  503.00	  561.76	-1809.01	  406.36
     91.9700	  609.00	  567.86	-1709.11	  406.22
     92.0700	  547.00	  575.41	-1778.66	  406.07
     92.1700	  603.00	  584.53	-1731.78	  405.93
     92.2700	  560.00	  595.25	-1785.50	  405.79
     92.3700	  563.00	  607.51	-1794.76	  405.64
     92.4700	  622.00	  621.13	-1749.38	  405.49
     92.5700	  645.00	  635.81	-1741.06	  405.34
     92.6700	  689.00	  651.12	-1712.37	  405.19
     92.7700	  676.00	  666.50	-1740.75	  405.04
     92.8700	  654.00	  681.34	-1777.59	  404.88
     92.9700	  778.00	  694.99	-1667.24	  404.73
     93.0700	  815.00	  706.93	-1642.18	  404.57
     93.1700	  751.00	  716.90	-1716.15	  404.41
     93.2700	  850.00	  725.06	-1625.31	  404.25
     93.3700	  780.00	  731.89	-1702.14	  404.09
     93.4700	  845.00	  738.11	-1643.36	  403.92
     93.5700	  850.00	  744.48	-1644.73	  403.76
     93.6700	  847.00	  751.73	-1654.98	  403.59
     93.7700	  810.00	  760.47	-1700.72	  403.42
     93.8700	  851.00	  771.19	-1670.44	  403.25
     93.9700	  862.00	  784.31	-1672.56	  403.08
     94.0700	  911.00	  800.05	-1639.30	  402.91
     94.1700	  821.00	  818.38	-1747.63	  402.74
     94.2700	  892.00	  838.90	-1697.15	  402.56
     94.3700	  851.00	  860.77	-1760.02	  402.38
     94.4700	  892.00	  882.70	-1740.95	  402.21
     94.5700	  872.00	  903.02	-1781.27	  402.03
     94.6700	  941.00	  919.75	-1729.00	  401.85
     94.7700	  902.00	  930.88	-1779.13	  401.66
     94.8700	  883.00	  934.72	-1801.97	  401.48
     94.9700	  932.00	  930.30	-1748.55	  401.29
     95.0700	  870.00	  917.67	-1797.92	  401.11
     95.1700	  852.00	  897.87	-1796.12	  400.92
     95.2700	  863.00	  872.68	-1759.93	  400.73
     95.3700	  819.00	  844.18	-1775.43	  400.54
     95.4700	  801.00	  814.54	-1763.79	  400.35
     95.5700	  760.00	  785.81	-1776.06	  400.15
     95.6700	  729.00	  759.87	-1781.12	  399.96
     95.7700	  691.00	  738.42	-1797.67	  399.76
     95.8700	  757.00	  722.93	-1716.18	  399.56
     95.9700	  677.00	  714.71	-1787.96	  399.36
     96.0700	  691.00	  714.88	-1774.13	  399.16
     96.1700	  697.00	  724.36	-1777.61	  398.96
     96.2700	  739.00	  743.87	-1755.12	  398.76
     96.3700	  766.00	  773.86	-1758.11	  398.56
     96.4700	  768.00	  814.42	-1796.67	  398.35
     96.5700	  859.00	  865.25	-1756.50	  398.14
     96.6700	  876.00	  925.51	-1799.76	  397.94
     96.7700	 1002.00	  993.72	-1741.97	  397.73
     96.8700	 1041.00	 1067.71	-1776.96	  397.52
     96.9700	 1112.00	 1144.62	-1782.87	  397.30
     97.0700	 1234.00	 1220.92	-1737.17	  397.09
     97.1700	 1285.00	 1292.50	-1757.75	  396.88
     97.2700	 1380.00	 1354.86	-1725.11	  396.66
     97.3700	 1470.00	 1403.46	-1683.71	  396.45
     97.4700	 1386.00	 1434.38	-1798.63	  396.23
     97.5700	 1419.00	 1445.00	-1776.25	  396.01
     97.6700	 1447.00	 1434.67	-1737.92	  395.79
     97.7700	 1374.00	 1404.78	-1781.03	  395.57
     97.8700	 1389.00	 1358.39	-1719.64	  395.35
     97.9700	 1328.00	 1299.63	-1721.88	  395.12
     98.0700	 1242.00	 1232.89	-1741.14	  394.90
     98.1700	 1148.00	 1162.46	-1764.71	  394.67
     98.2700	 1084.00	 1092.31	-1758.56	  394.44
     98.3700	 1019.00	 1025.87	-1757.12	  394.22
     98.4700	  923.00	  966.02	-1793.27	  393.99
     98.5700	  909.00	  915.04	-1756.29	  393.76
     98.6700	  862.00	  874.71	-1762.96	  393.53
     98.7700	  817.00	  846.36	-1779.61	  393.29
     98.8700	  803.00	  830.94	-1778.19	  393.06
     98.9700	  785.00	  829.09	-1794.34	  392.83
     99.0700	  813.00	  841.23	-1778.48	  392.59
     99.1700	  856.00	  867.56	-1761.81	  392.35
     99.2700	  899.00	  908.10	-1759.35	  392.12
     99.3700	  952.00	  962.64	-1760.89	  391.88
     99.4700	 1026.00	 1030.68	-1754.93	  391.64
     99.5700	 1147.00	 1111.34	-1714.59	  391.40
     99.6700	 1182.00	 1203.29	-1771.54	  391.16
     99.7700	 1263.00	 1304.59	-1791.84	  390.92
     99.8700	 1419.00	 1412.66	-1743.91	  390.67
     99.9700	 1495.00	 1524.19	-1779.44	  390.43
    100.0700	 1640.00	 1635.22	-1745.47	  390.19
    100.1700	 1704.00	 1741.30	-1787.55	  389.94
    100.2700	 1845.00	 1837.91	-1743.16	  389.69
    100.3700	 1998.00	 1920.96	-1673.21	  389.45
    100.4700	 2069.00	 1987.17	-1668.42	  389.20
    100.5700	 2096.00	 2034.25	-1688.50	  388.95
    100.6700	 2171.00	 2060.75	-1640.00	  388.70
    100.7700	 2153.00	 2065.83	-1663.08	  388.45
    100.8700	 2122.00	 2049.25	-1677.50	  388.20
    100.9700	 2143.00	 2011.54	-1618.79	  387.95
    101.0700	 1971.00	 1954.39	-1733.64	  387.69
    101.1700	 1995.00	 1880.90	-1636.15	  387.44
    101.2700	 1805.00	 1795.36	-1740.61	  387.19
    101.3700	 1673.00	 1702.77	-1780.02	  386.93
    101.4700	 1531.00	 1608.18	-1827.43	  386.68
    101.5700	 1509.00	 1516.16	-1757.41	  386.42
    101.6700	 1430.00	 1430.48	-1750.73	  386.16
    101.7700	 1379.00	 1353.90	-1725.15	  385.91
    101.8700	 1295.00	 1288.08	-1743.33	  385.65
    101.9700	 1215.00	 1233.67	-1768.92	  385.39
    102.0700	 1163.00	 1190.29	-1777.54	  385.13
    102.1700	 1146.00	 1156.71	-1760.96	  384.87
    102.2700	 1110.00	 1130.95	-1771.20	  384.61
    102.3700	 1064.00	 1110.52	-1796.77	  384.35
    102.4700	 1141.00	 1092.70	-1701.95	  384.09
    102.5700	 1027.00	 1074.85	-1798.10	  383.83
    102.6700	 1080.00	 1054.78	-1725.03	  383.56
    102.7700	 1003.00	 1031.01	-1778.26	  383.30
    102.8700	 1014.00	 1002.90	-1739.15	  383.04
    102.9700	 1021.00	  970.61	-1699.86	  382.77
    103.0700	  926.00	  934.88	-1759.13	  382.51
    103.1700	  835.00	  896.78	-1812.03	  382.25
    103.2700	  844.00	  857.52	-1763.77	  381.98
    103.3700	  818.00	  818.31	-1750.56	  381.72
    103.4700	  811.00	  780.27	-1719.52	  381.45
    103.5700	  702.00	  744.33	-1792.58	  381.19
    103.6700	  752.00	  711.25	-1709.50	  380.92
    103.7700	  638.00	  681.53	-1793.78	  380.65
    103.8700	  639.00	  655.50	-1766.75	  380.39
    103.9700	  661.00	  633.25	-1722.50	  380.12
    104.0700	  585.00	  614.71	-1779.96	  379.85
    104.1700	  557.00	  599.66	-1792.91	  379.59
    104.2700	  597.00	  587.80	-1741.05	  379.32
    104.3700	  617.00	  578.76	-1712.01	  379.05
    104.4700	  575.00	  572.17	-1747.42	  378.78
    104.5700	  549.00	  567.64	-1768.89	  378.52
    104.6700	  580.00	  564.81	-1735.06	  378.25
    104.7700	  541.00	  563.36	-1772.61	  377.98
    104.8700	  539.00	  562.99	-1774.24	  377.71
    104.9700	  538.00	  563.47	-1775.72	  377.44
    105.0700	  574.00	  564.58	-1740.83	  377.18
    105.1700	  530.00	  566.20	-1786.45	  376.91
    105.2700	  541.00	  568.18	-1777.43	  376.64
    105.3700	  512.00	  570.42	-1808.67	  376.37
    105.4700	  568.00	  572.94	-1755.19	  376.10
    105.5700	  532.00	  575.72	-1793.97	  375.84
    105.6700	  573.00	  578.83	-1756.08	  375.57
    105.7700	  549.00	  582.35	-1783.60	  375.30
    105.8700	  570.00	  586.42	-1766.67	  375.03
    105.9700	  572.00	  591.16	-1769.41	  374.77
    106.0700	  583.00	  596.67	-1763.92	  374.50
    106.1700	  528.00	  603.02	-1825.27	  374.23
    106.2700	  569.00	  610.21	-1791.46	  373.97
    106.3700	  632.00	  618.19	-1736.44	  373.70
    106.4700	  599.00	  626.84	-1778.09	  373.43
    106.5700	  635.00	  635.94	-1751.19	  373.17
    106.6700	  658.00	  645.24	-1737.49	  372.90
    106.7700	  628.00	  654.42	-1776.67	  372.64
    106.8700	  648.00	  663.10	-1765.35	  372.37
    106.9700	  678.00	  670.90	-1743.15	  372.11
    107.0700	  649.00	  677.47	-1778.72	  371.85
    107.1700	  662.00	  682.49	-1770.74	  371.58
    107.2700	  638.00	  685.79	-1798.04	  371.32
    107.3700	  705.00	  687.36	-1732.61	  371.06
    107.4700	  675.00	  687.36	-1762.61	  370.80
    107.5700	  659.00	  686.07	-1777.32	  370.54
    107.6700	  676.00	  683.91	-1758.16	  370.28
    107.7700	  634.00	  681.30	-1797.55	  370.02
    107.8700	  682.00	  678.66	-1746.91	  369.76
    107.9700	  666.00	  676.33	-1760.58	  369.50
    108.0700	  691.00	  674.56	-1733.81	  369.24
    108.1700	  676.00	  673.52	-1747.77	  368.99
    108.2700	  672.00	  673.24	-1751.49	  368.73
    108.3700	  660.00	  673.65	-1763.90	  368.47
    108.4700	  615.00	  674.56	-1809.81	  368.22
    108.5700	  664.00	  675.69	-1761.94	  367.96
    108.6700	  690.00	  676.70	-1736.95	  367.71
    108.7700	  676.00	  677.20	-1751.45	  367.46
    108.8700	  710.00	  676.80	-1717.05	  367.21
    108.9700	  669.00	  675.17	-1756.42	  366.96
    109.0700	  639.00	  672.08	-1783.33	  366.71
    109.1700	  664.00	  667.44	-1753.69	  366.46
    109.2700	  683.00	  661.30	-1728.55	  366.21
    109.3700	  626.00	  653.83	-1778.08	  365.97
    109.4700	  685.00	  645.27	-1710.52	  365.72
    109.5700	  674.00	  635.94	-1712.19	  365.48
    109.6700	  620.00	  626.16	-1756.41	  365.24
    109.7700	  594.00	  616.25	-1772.50	  364.99
    109.8700	  624.00	  606.48	-1732.73	  364.75
    109.9700	  595.00	  597.13	-1752.38	  364.51
    110.0700	  619.00	  588.39	-1719.64	  364.28
    110.1700	  617.00	  580.44	-1713.69	  364.04
    110.2700	  566.00	  573.37	-1757.62	  363.80
    110.3700	  546.00	  567.26	-1771.51	  363.57
    110.4700	  524.00	  562.12	-1788.37	  363.34
    110.5700	  576.00	  557.94	-1732.19	  363.11
    110.6700	  550.00	  554.67	-1754.92	  362.88
    110.7700	  540.00	  552.23	-1762.48	  362.65
    110.8700	  531.00	  550.56	-1769.81	  362.42
    110.9700	  567.00	  549.56	-1732.81	  362.20
    111.0700	  557.00	  549.15	-1742.40	  361.97
    111.1700	  548.00	  549.25	-1751.50	  361.75
    111.2700	  562.00	  549.79	-1738.04	  361.53
    111.3700	  494.00	  550.71	-1806.96	  361.31
    111.4700	  537.00	  551.95	-1765.20	  361.10
    111.5700	  521.00	  553.48	-1782.73	  360.88
    111.6700	  548.00	  555.27	-1757.52	  360.67
    111.7700	  573.00	  557.29	-1734.54	  360.45
    111.8700	  534.00	  559.54	-1775.79	  360.24
    111.9700	  535.00	  562.00	-1777.25	  360.04
    112.0700	  618.00	  564.70	-1696.95	  359.83
    112.1700	  554.00	  567.63	-1763.88	  359.63
    112.2700	  549.00	  570.82	-1772.07	  359.42
    112.3700	  551.00	  574.30	-1773.55	  359.22
    112.4700	  594.00	  578.10	-1734.35	  359.02
    112.5700	  602.00	  582.27	-1730.52	  358.83
    112.6700	  608.00	  586.89	-1729.14	  358.63
    112.7700	  646.00	  592.03	-1696.28	  358.44
    112.8700	  636.00	  597.81	-1712.06	  358.25
    112.9700	  693.00	  604.36	-1661.61	  358.06
    113.0700	  712.00	  611.90	-1650.15	  357.88
    113.1700	  708.00	  620.67	-1662.92	  357.70
    113.2700	  821.00	  630.99	-1560.24	  357.52
    113.3700	  732.00	  643.27	-1661.52	  357.34
    113.4700	  821.00	  658.02	-1587.27	  357.16
    113.5700	  841.00	  675.89	-1585.14	  356.99
    113.6700	  891.00	  697.69	-1556.94	  356.82
    113.7700	  923.00	  724.38	-1551.63	  356.65
    113.8700	 1004.00	  757.12	-1503.37	  356.48
    113.9700	 1039.00	  797.28	-1508.53	  356.32
    114.0700	 1035.00	  846.44	-1561.69	  356.16
    114.1700	 1165.00	  906.42	-1491.67	  356.00
    114.2700	 1213.00	  979.20	-1516.45	  355.84
    114.3700	 1258.00	 1066.94	-1559.19	  355.69
    114.4700	 1391.00	 1171.92	-1531.17	  355.54
    114.5700	 1460.00	 1296.46	-1586.71	  355.39
    114.6700	 1679.00	 1442.88	-1514.13	  355.25
    114.7700	 1818.00	 1613.26	-1545.51	  355.10
    114.8700	 1944.00	 1809.43	-1615.68	  354.96
    114.9700	 2062.00	 2032.72	-1720.97	  354.83
    115.0700	 2360.00	 2283.95	-1674.20	  354.70
    115.1700	 2586.00	 2563.17	-1727.42	  354.57
    115.2700	 2856.00	 2869.48	-1763.73	  354.44
    115.3700	 3074.00	 3200.96	-1877.21	  354.31
    115.4700	 3360.00	 3554.54	-1944.79	  354.19
    115.5700	 3748.00	 3926.05	-1928.30	  354.08
    115.6700	 4095.00	 4310.10	-1965.35	  353.96
    115.7700	 4481.00	 4699.99	-1969.24	  353.85
    115.8700	 4847.00	 5087.87	-1991.12	  353.74
    115.9700	 5105.00	 5464.77	-2110.02	  353.64
    116.0700	 5534.00	 5820.90	-2037.15	  353.54
    116.1700	 5994.00	 6145.80	-1902.05	  353.44
    116.2700	 6438.00	 6428.62	-1740.88	  353.35
    116.3700	 6624.00	 6658.91	-1785.16	  353.26
    116.4700	 6711.00	 6827.26	-1866.51	  353.17
    116.5700	 6862.00	 6926.40	-1814.65	  353.08
    116.6700	 6864.00	 6951.82	-1838.07	  353.00
    116.7700	 6964.00	 6902.47	-1688.72	  352.93
    116.8700	 7001.00	 6780.92	-1530.17	  352.86
    116.9700	 6794.00	 6593.01	-1549.26	  352.79
    117.0700	 6433.00	 6347.01	-1664.26	  352.72
    117.1700	 6118.00	 6052.81	-1685.06	  352.66
    117.2700	 5645.00	 5721.06	-1826.31	  352.60
    117.3700	 5426.00	 5362.45	-1686.70	  352.55
    117.4700	 5072.00	 4987.22	-1665.47	  352.50
    117.5700	 4604.00	 4604.69	-1750.94	  352.46
    117.6700	 4464.00	 4223.14	-1509.39	  352.42
    117.7700	 4045.00	 3849.84	-1555.09	  352.38
    117.8700	 3692.00	 3490.78	-1549.03	  352.35
    117.9700	 3193.00	 3150.75	-1708.00	  352.32
    118.0700	 2881.00	 2833.27	-1702.52	  352.29
    118.1700	 2617.00	 2540.71	-1673.96	  352.27
    118.2700	 2215.00	 2274.48	-1809.73	  352.26
    118.3700	 2007.00	 2035.05	-1778.30	  352.25
    118.4700	 1778.00	 1822.12	-1794.37	  352.24
    118.5700	 1524.00	 1634.69	-1860.94	  352.24
    118.6700	 1383.00	 1471.30	-1838.55	  352.24
    118.7700	 1183.00	 1330.16	-1897.41	  352.24
    118.8700	 1134.00	 1209.25	-1825.50	  352.26
    118.9700	  975.00	 1106.44	-1881.69	  352.27
    119.0700	  923.00	 1019.58	-1846.83	  352.29
    119.1700	  872.00	  946.59	-1824.84	  352.32
    119.2700	  803.00	  885.52	-1832.77	  352.35
    119.3700	  777.00	  834.61	-1807.86	  352.38
    119.4700	  661.00	  792.25	-1881.50	  352.42
    119.5700	  670.00	  757.05	-1837.30	  352.47
    119.6700	  655.00	  727.80	-1823.05	  352.52
    119.7700	  619.00	  703.47	-1834.72	  352.57
    119.8700	  626.00	  683.22	-1807.47	  352.63
    119.9700	  599.00	  666.32	-1817.57	  352.70
    120.0700	  604.00	  652.19	-1798.44	  352.77
    120.1700	  602.00	  640.36	-1788.61	  352.84
    120.2700	  546.00	  630.44	-1834.69	  352.93
    120.3700	  548.00	  622.13	-1824.38	  353.01
    120.4700	  612.00	  615.19	-1753.44	  353.10
    120.5700	  599.00	  609.42	-1760.67	  353.20
    120.6700	  550.00	  604.67	-1804.92	  353.30
    120.7700	  580.00	  600.83	-1771.08	  353.41
    120.8700	  541.00	  597.80	-1807.05	  353.53
    120.9700	  619.00	  595.51	-1726.76	  353.65
    121.0700	  560.00	  593.91	-1784.16	  353.77
    121.1700	  599.00	  592.95	-1744.20	  353.90
    121.2700	  568.00	  592.59	-1774.84	  354.04
    121.3700	  591.00	  592.79	-1752.04	  354.18
    121.4700	  575.00	  593.51	-1768.76	  354.33
    121.5700	  585.00	  594.71	-1759.96	  354.48
    121.6700	  573.00	  596.33	-1773.58	  354.65
    121.7700	  624.00	  598.30	-1724.55	  354.81
    121.8700	  585.00	  600.60	-1765.85	  354.99
    121.9700	  557.00	  603.12	-1796.37	  355.16
    122.0700	  567.00	  605.79	-1789.04	  355.35
    122.1700	  578.00	  608.53	-1780.78	  355.54
    122.2700	  619.00	  611.22	-1742.47	  355.74
    122.3700	  622.00	  613.78	-1742.03	  355.94
    122.4700	  604.00	  616.12	-1762.37	  356.15
    122.5700	  625.00	  618.13	-1743.38	  356.37
    122.6700	  610.00	  619.72	-1759.97	  356.60
    122.7700	  590.00	  620.83	-1781.08	  356.83
    122.8700	  660.00	  621.40	-1711.65	  357.06
    122.9700	  622.00	  621.40	-1749.65	  357.31
    123.0700	  647.00	  620.84	-1724.09	  357.56
    123.1700	  607.00	  619.72	-1762.97	  357.82
    123.2700	  657.00	  618.10	-1711.35	  358.08
    123.3700	  683.00	  616.02	-1683.27	  358.35
    123.4700	  613.00	  613.55	-1750.80	  358.63
    123.5700	  652.00	  610.75	-1709.00	  358.92
    123.6700	  603.00	  607.71	-1754.96	  359.21
    123.7700	  641.00	  604.48	-1713.73	  359.51
    123.8700	  631.00	  601.13	-1720.38	  359.82
    123.9700	  608.00	  597.73	-1739.98	  360.13
    124.0700	  627.00	  594.33	-1717.58	  360.45
    124.1700	  628.00	  590.98	-1713.23	  360.78
    124.2700	  600.00	  587.72	-1737.97	  361.12
    124.3700	  619.00	  584.58	-1715.83	  361.46
    124.4700	  641.00	  581.60	-1690.85	  361.82
    124.5700	  581.00	  578.79	-1748.04	  362.18
    124.6700	  641.00	  576.17	-1685.42	  362.54
    124.7700	  569.00	  573.74	-1754.99	  362.92
    124.8700	  601.00	  571.52	-1720.77	  363.30
    124.9700	  595.00	  481.11	-1636.35	  363.69
    125.0700	  608.00	  481.50	-1750.25	  364.09
    125.1700	  567.00	  481.91	-1750.25	  364.50
    125.2700	  533.00	  482.33	-1750.25	  364.91
    125.3700	  589.00	  482.75	-1750.25	  365.34
    125.4700	  544.00	  483.18	-1750.25	  365.77
    125.5700	  569.00	  483.62	-1750.25	  366.21
    125.6700	  618.00	  484.07	-1750.25	  366.66
    125.7700	  566.00	  484.53	-1750.25	  367.11
    125.8700	  579.00	  484.99	-1750.25	  367.58
    125.9700	  557.00	  485.46	-1750.25	  368.05
    126.0700	  539.00	  485.95	-1750.25	  368.54
    126.1700	  580.00	  486.44	-1750.25	  369.03
    126.2700	  592.00	  486.94	-1750.25	  369.53
    126.3700	  594.00	  487.45	-1750.25	  370.03
    126.4700	  564.00	  487.96	-1750.25	  370.55
    126.5700	  578.00	  488.49	-1750.25	  371.08
    126.6700	  594.00	  489.02	-1750.25	  371.61
    126.7700	  623.00	  489.57	-1750.25	  372.16
    126.8700	  596.00	  490.12	-1750.25	  372.71
    126.9700	  671.00	  490.69	-1750.25	  373.27
    127.0700	  661.00	  491.26	-1750.25	  373.85
    127.1700	  664.00	  491.84	-1750.25	  374.43
    127.2700	  646.00	  492.43	-1750.25	  375.02
    127.3700	  653.00	  493.03	-1750.25	  375.62
    127.4700	  681.00	  493.64	-1750.25	  376.23
    127.5700	  705.00	  494.26	-1750.25	  376.85
    127.6700	  686.00	  494.89	-1750.25	  377.47
    127.7700	  694.00	  495.52	-1750.25	  378.11
    127.8700	  704.00	  496.17	-1750.25	  378.76
    127.9700	  742.00	  496.83	-1750.25	  379.42
    128.0700	  750.00	  497.50	-1750.25	  380.09
    128.1700	  776.00	  498.18	-1750.25	  380.77
    128.2700	  798.00	  498.87	-1750.25	  381.45
    128.3700	  795.00	  499.56	-1750.25	  382.15
    128.4700	  776.00	  500.27	-1750.25	  382.86
    128.5700	    0.00	  500.99	-1750.25	  383.58
    128.6700	    0.00	  501.72	-1750.25	  384.31
     12.3121	        	        	        	        	       0	(  0  0  2)	  0  1
     24.8942	        	        	        	        	       0	(  0  0  4)	  0  1
     28.3367	        	        	        	        	       0	(  1  0  0)	  0  1
     29.0338	        	        	        	        	       0	(  1  0  1)	  0  1
     31.0398	        	        	        	        	       0	(  1  0  2)	  0  1
     34.1478	        	        	        	        	       0	(  1  0  3)	  0  1
     37.7922	        	        	        	        	       0	(  0  0  6)	  0  1
     38.1244	        	        	        	        	       0	(  1  0  4)	  0  1
     42.7739	        	        	        	        	       0	(  1  0  5)	  0  1
     47.9573	        	        	        	        	       0	(  1  0  6)	  0  1
     50.2724	        	        	        	        	       0	(  1  1  0)	  0  1
     51.2123	        	        	        	        	       0	(  0  0  8)	  0  1
     51.9951	        	        	        	        	       0	(  1  1  2)	  0  1
     53.5870	        	        	        	        	       0	(  1  0  7)	  0  1
     56.9423	        	        	        	        	       0	(  1  1  4)	  0  1
     58.7688	        	        	        	        	       0	(  2  0  0)	  0  1
     59.1603	        	        	        	        	       0	(  2  0  1)	  0  1
     59.6165	        	        	        	        	       0	(  1  0  8)	  0  1
     60.3255	        	        	        	        	       0	(  2  0  2)	  0  1
     62.2385	        	        	        	        	       0	(  2  0  3)	  0  1
     64.6359	        	        	        	        	       0	(  1  1  6)	  0  1
     64.8622	        	        	        	        	       0	(  2  0  4)	  0  1
     65.4393	        	        	        	        	       0	(  0  0 10)	  0  1
     66.0319	        	        	        	        	       0	(  1  0  9)	  0  1
     68.1559	        	        	        	        	       0	(  2  0  5)	  0  1
     72.0828	        	        	        	        	       0	(  2  0  6)	  0  1
     72.8468	        	        	        	        	       0	(  1  0 10)	  0  1
     74.6720	        	        	        	        	       0	(  1  1  8)	  0  1
     76.6161	        	        	        	        	       0	(  2  0  7)	  0  1
     80.1031	        	        	        	        	       0	(  1  0 11)	  0  1
     80.9168	        	        	        	        	       0	(  0  0 12)	  0  1
     81.0083	        	        	        	        	       0	(  2  1  0)	  0  1
     81.3481	        	        	        	        	       0	(  2  1  1)	  0  1
     81.7455	        	        	        	        	       0	(  2  0  8)	  0  1
     82.3658	        	        	        	        	       0	(  2  1  2)	  0  1
     84.0568	        	        	        	        	       0	(  2  1  3)	  0  1
     86.4160	        	        	        	        	       0	(  2  1  4)	  0  1
     86.9410	        	        	        	        	       0	(  1  1 10)	  0  1
     87.4824	        	        	        	        	       0	(  2  0  9)	  0  1
     87.8758	        	        	        	        	       0	(  1  0 12)	  0  1
     89.4412	        	        	        	        	       0	(  2  1  5)	  0  1
     93.1379	        	        	        	        	       0	(  2  1  6)	  0  1
     93.8684	        	        	        	        	       0	(  2  0 10)	  0  1
     94.8959	        	        	        	        	       0	(  3  0  0)	  0  1
     95.2331	        	        	        	        	       0	(  3  0  1)	  0  1
     96.2461	        	        	        	        	       0	(  3  0  2)	  0  1
     96.2870	        	        	        	        	       0	(  1  0 13)	  0  1
     97.5255	        	        	        	        	       0	(  2  1  7)	  0  1
     97.9391	        	        	        	        	       0	(  3  0  3)	  0  1
     98.4521	        	        	        	        	       0	(  0  0 14)	  0  1
    100.3216	        	        	        	        	       0	(  3  0  4)	  0  1
    100.9885	        	        	        	        	       0	(  2  0 11)	  0  1
    101.8079	        	        	        	        	       0	(  1  1 12)	  0  1
    102.6467	        	        	        	        	       0	(  2  1  8)	  0  1
    103.4124	        	        	        	        	       0	(  3  0  5)	  0  1
    105.5372	        	        	        	        	       0	(  1  0 14)	  0  1
    107.2466	        	        	        	        	       0	(  3  0  6)	  0  1
    108.5820	        	        	        	        	       0	(  2  1  9)	  0  1
    108.9976	        	        	        	        	       0	(  2  0 12)	  0  1
    111.8856	        	        	        	        	       0	(  3  0  7)	  0  1
    115.4768	        	        	        	        	       0	(  2  1 10)	  0  1
    115.9772	        	        	        	        	       0	(  1  0 15)	  0  1
    116.6181	        	        	        	        	       0	(  2  2  0)	  0  1
    117.4374	        	        	        	        	       0	(  3  0  8)	  0  1
    118.1328	        	        	        	        	       0	(  2  2  2)	  0  1
    118.1790	        	        	        	        	       0	(  2  0 13)	  0  1
    119.9335	        	        	        	        	       0	(  0  0 16)	  0  1
    120.6461	        	        	        	        	       0	(  1  1 14)	  0  1
    122.8168	        	        	        	        	       0	(  2  2  4)	  0  1
    123.6010	        	        	        	        	       0	(  2  1 11)	  0  1
    124.0951	        	        	        	        	       0	(  3  0  9)	  0  1
    124.6818	        	        	        	        	       0	(  3  1  0)	  0  1
    125.0919	        	        	        	        	       0	(  3  1  1)	  0  1
    126.3349	        	        	        	        	       0	(  3  1  2)	  0  1
    128.3157	        	        	        	        	       0	(  1  0 16)	  0  1
    128.4524	        	        	        	        	       0	(  3  1  3)	  0  1
    129.1046	        	        	        	        	       0	(  2  0 14)	  0  1
    131.2536	        	        	        	        	       0	(  2  2  6)	  0  1
    131.5272	        	        	        	        	       0	(  3  1  4)	  0  1
    132.2325	        	        	        	        	       0	(  3  0 10)	  0  1
    133.5093	        	        	        	        	       0	(  2  1 12)	  0  1
    135.7124	        	        	        	        	       0	(  3  1  5)	  0  1
    141.3051	        	        	        	        	       0	(  3  1  6)	  0  1
    142.7061	        	        	        	        	       0	(  3  0 11)	  0  1
    143.2378	        	        	        	        	       0	(  2  0 15)	  0  1
    144.4775	        	        	        	        	       0	(  1  0 17)	  0  1
    145.4806	        	        	        	        	       0	(  2  2  8)	  0  1
    146.6582	        	        	        	        	       0	(  2  1 13)	  0  1
    148.9737	        	        	        	        	       0	(  3  1  7)	  0  1
    149.5683	        	        	        	        	       0	(  1  1 16)	  0  1
    153.9681	        	        	        	        	       0	(  0  0 18)	  0  1
    158.5730	        	        	        	        	       0	(  3  0 12)	  0  1
    158.8232	        	        	        	        	       0	(  4  0  0)	  0  1
    159.7788	        	        	        	        	       0	(  4  0  1)	  0  1
    160.9558	        	        	        	        	       0	(  3  1  8)	  0  1
    162.9528	        	        	        	        	       0	(  4  0  2)	  0  1
    169.6561	        	        	        	        	       0	(  2  0 16)	  0  1
    170.2777	        	        	        	        	       0	(  4  0  3)	  0  1
    174.0619	        	        	        	        	       0	(  2  1 14)	  0  1
