MSG Master    CELL:    5.91970   5.91970  23.27845   90.0000   90.0000  120.0000   SPGR: P 63/m m c             TEMP:   1074.85
  1   1280     2.52000     0.00000    -0.11846     0.00000     0.00000    0
    99     0     2
       0.00000      10.00000
     125.00000     130.00000
 2Theta	Yobs	Ycal	Yobs-Ycal	Backg	Posr	(hkl)	K
      0.7700	    0.00	  548.01	-1746.00	  430.60
      0.8700	    1.00	  548.75	-1746.00	  431.33
      0.9700	   38.00	  549.47	-1746.00	  432.05
      1.0700	   41.00	  550.18	-1746.00	  432.76
      1.1700	   38.00	  550.88	-1746.00	  433.47
      1.2700	   45.00	  551.57	-1746.00	  434.16
      1.3700	   46.00	  552.25	-1746.00	  434.83
      1.4700	  102.00	  552.92	-1746.00	  435.50
      1.5700	  288.00	  553.57	-1746.00	  436.16
      1.6700	  442.00	  554.22	-1746.00	  436.81
      1.7700	  562.00	  554.86	-1746.00	  437.44
      1.8700	  638.00	  555.48	-1746.00	  438.07
      1.9700	  689.00	  556.10	-1746.00	  438.68
      2.0700	  814.00	  556.70	-1746.00	  439.29
      2.1700	  787.00	  557.30	-1746.00	  439.88
      2.2700	  737.00	  557.88	-1746.00	  440.47
      2.3700	  726.00	  558.45	-1746.00	  441.04
      2.4700	  697.00	  559.02	-1746.00	  441.60
      2.5700	  645.00	  559.57	-1746.00	  442.16
      2.6700	  687.00	  560.12	-1746.00	  442.70
      2.7700	  682.00	  560.65	-1746.00	  443.23
      2.8700	  634.00	  561.17	-1746.00	  443.76
      2.9700	  615.00	  561.69	-1746.00	  444.27
      3.0700	  581.00	  562.19	-1746.00	  444.78
      3.1700	  554.00	  562.69	-1746.00	  445.27
      3.2700	  606.00	  563.17	-1746.00	  445.76
      3.3700	  708.00	  563.65	-1746.00	  446.23
      3.4700	  777.00	  564.11	-1746.00	  446.70
      3.5700	  822.00	  564.57	-1746.00	  447.16
      3.6700	  789.00	  565.02	-1746.00	  447.60
      3.7700	  923.00	  565.46	-1746.00	  448.04
      3.8700	  927.00	  565.89	-1746.00	  448.47
      3.9700	 1034.00	  566.31	-1746.00	  448.89
      4.0700	 1091.00	  566.72	-1746.00	  449.30
      4.1700	 1092.00	  567.12	-1746.00	  449.71
      4.2700	 1117.00	  567.52	-1746.00	  450.10
      4.3700	 1068.00	  567.90	-1746.00	  450.49
      4.4700	 1142.00	  568.28	-1746.00	  450.86
      4.5700	 1012.00	  568.65	-1746.00	  451.23
      4.6700	 1016.00	  569.00	-1746.00	  451.59
      4.7700	  956.00	  569.36	-1746.00	  451.94
      4.8700	  973.00	  569.70	-1746.00	  452.28
      4.9700	 1002.00	  570.03	-1746.00	  452.62
      5.0700	  981.00	  570.36	-1746.00	  452.94
      5.1700	  933.00	  570.67	-1746.00	  453.26
      5.2700	  859.00	  570.98	-1746.00	  453.57
      5.3700	  877.00	  571.28	-1746.00	  453.87
      5.4700	  853.00	  571.58	-1746.00	  454.16
      5.5700	  852.00	  571.86	-1746.00	  454.45
      5.6700	  895.00	  572.14	-1746.00	  454.72
      5.7700	  849.00	  572.41	-1746.00	  454.99
      5.8700	  835.00	  572.67	-1746.00	  455.25
      5.9700	  840.00	  572.92	-1746.00	  455.51
      6.0700	  801.00	  573.17	-1746.00	  455.75
      6.1700	  798.00	  573.41	-1746.00	  455.99
      6.2700	  767.00	  573.64	-1746.00	  456.22
      6.3700	  774.00	  573.86	-1746.00	  456.44
      6.4700	  795.00	  574.07	-1746.00	  456.66
      6.5700	  696.00	  574.28	-1746.00	  456.87
      6.6700	  712.00	  574.48	-1746.00	  457.07
      6.7700	  737.00	  574.68	-1746.00	  457.26
      6.8700	  682.00	  574.86	-1746.00	  457.45
      6.9700	  677.00	  575.04	-1746.00	  457.63
      7.0700	  739.00	  575.22	-1746.00	  457.80
      7.1700	  732.00	  575.38	-1746.00	  457.97
      7.2700	  688.00	  575.54	-1746.00	  458.12
      7.3700	  676.00	  575.69	-1746.00	  458.28
      7.4700	  688.00	  575.84	-1746.00	  458.42
      7.5700	  700.00	  575.97	-1746.00	  458.56
      7.6700	  651.00	  576.10	-1746.00	  458.69
      7.7700	  636.00	  576.23	-1746.00	  458.81
      7.8700	  678.00	  576.35	-1746.00	  458.93
      7.9700	  644.00	  576.46	-1746.00	  459.04
      8.0700	  672.00	  576.56	-1746.00	  459.15
      8.1700	  713.00	  576.66	-1746.00	  459.25
      8.2700	  597.00	  576.75	-1746.00	  459.34
      8.3700	  660.00	  576.84	-1746.00	  459.42
      8.4700	  635.00	  576.92	-1746.00	  459.50
      8.5700	  662.00	  576.99	-1746.00	  459.58
      8.6700	  623.00	  577.06	-1746.00	  459.65
      8.7700	  615.00	  577.12	-1746.00	  459.71
      8.8700	  634.00	  577.18	-1746.00	  459.76
      8.9700	  624.00	  577.23	-1746.00	  459.81
      9.0700	  601.00	  577.27	-1746.00	  459.85
      9.1700	  594.00	  577.31	-1746.00	  459.89
      9.2700	  602.00	  577.34	-1746.00	  459.92
      9.3700	  600.00	  577.36	-1746.00	  459.95
      9.4700	  617.00	  577.38	-1746.00	  459.97
      9.5700	  550.00	  577.40	-1746.00	  459.98
      9.6700	  666.00	  577.41	-1746.00	  459.99
      9.7700	  600.00	  577.41	-1746.00	  460.00
      9.8700	  593.00	  577.41	-1746.00	  459.99
      9.9700	  616.00	  577.40	-1746.00	  459.99
     10.0700	  587.00	  578.27	-1737.27	  459.97
     10.1700	  590.00	  578.34	-1734.34	  459.96
     10.2700	  585.00	  578.44	-1739.44	  459.93
     10.3700	  614.00	  578.56	-1710.56	  459.90
     10.4700	  571.00	  578.74	-1753.74	  459.87
     10.5700	  617.00	  579.04	-1708.04	  459.83
     10.6700	  608.00	  579.54	-1717.54	  459.79
     10.7700	  602.00	  580.37	-1724.37	  459.74
     10.8700	  549.00	  581.60	-1778.60	  459.69
     10.9700	  577.00	  583.22	-1752.22	  459.63
     11.0700	  615.00	  585.21	-1716.21	  459.56
     11.1700	  540.00	  587.56	-1793.56	  459.49
     11.2700	  613.00	  590.29	-1723.29	  459.42
     11.3700	  552.00	  593.51	-1787.51	  459.34
     11.4700	  572.00	  597.32	-1771.32	  459.26
     11.5700	  599.00	  601.96	-1748.96	  459.17
     11.6700	  623.00	  607.76	-1730.76	  459.08
     11.7700	  608.00	  615.33	-1753.33	  458.99
     11.8700	  648.00	  625.59	-1723.59	  458.89
     11.9700	  678.00	  639.09	-1707.09	  458.78
     12.0700	  651.00	  654.28	-1749.28	  458.67
     12.1700	  702.00	  665.21	-1709.21	  458.56
     12.2700	  687.00	  662.39	-1721.39	  458.44
     12.3700	  632.00	  642.38	-1756.38	  458.32
     12.4700	  659.00	  617.08	-1704.08	  458.19
     12.5700	  590.00	  598.00	-1754.00	  458.06
     12.6700	  575.00	  587.25	-1758.25	  457.93
     12.7700	  617.00	  582.17	-1711.17	  457.79
     12.8700	  569.00	  579.82	-1756.82	  457.65
     12.9700	  567.00	  578.54	-1757.54	  457.50
     13.0700	  588.00	  577.67	-1735.67	  457.35
     13.1700	  594.00	  577.01	-1729.01	  457.20
     13.2700	  565.00	  576.47	-1757.47	  457.04
     13.3700	  565.00	  576.02	-1757.02	  456.88
     13.4700	  588.00	  575.63	-1733.63	  456.71
     13.5700	  524.00	  575.28	-1797.28	  456.54
     13.6700	  598.00	  574.96	-1722.96	  456.37
     13.7700	  560.00	  574.66	-1760.66	  456.19
     13.8700	  599.00	  574.38	-1721.38	  456.01
     13.9700	  578.00	  574.12	-1742.12	  455.83
     14.0700	  580.00	  573.86	-1739.86	  455.64
     14.1700	  589.00	  573.61	-1730.61	  455.45
     14.2700	  520.00	  573.36	-1799.36	  455.26
     14.3700	  538.00	  573.12	-1781.12	  455.06
     14.4700	  573.00	  572.88	-1745.88	  454.86
     14.5700	  548.00	  572.64	-1770.64	  454.66
     14.6700	  520.00	  572.40	-1798.40	  454.45
     14.7700	  562.00	  572.16	-1756.16	  454.24
     14.8700	  581.00	  571.92	-1736.93	  454.03
     14.9700	  591.00	  571.69	-1726.69	  453.82
     15.0700	  591.00	  571.45	-1726.45	  453.60
     15.1700	  550.00	  571.21	-1767.21	  453.38
     15.2700	  581.00	  570.97	-1735.97	  453.15
     15.3700	  570.00	  570.73	-1746.73	  452.92
     15.4700	  580.00	  570.48	-1736.48	  452.69
     15.5700	  532.00	  570.24	-1784.24	  452.46
     15.6700	  593.00	  569.99	-1722.99	  452.22
     15.7700	  553.00	  569.74	-1762.74	  451.99
     15.8700	  571.00	  569.49	-1744.49	  451.75
     15.9700	  578.00	  569.26	-1737.26	  451.50
     16.0700	  595.00	  569.01	-1720.01	  451.25
     16.1700	  548.00	  568.75	-1766.75	  451.01
     16.2700	  565.00	  568.50	-1749.50	  450.75
     16.3700	  556.00	  568.24	-1758.24	  450.50
     16.4700	  558.00	  567.97	-1755.97	  450.24
     16.5700	  577.00	  567.71	-1736.71	  449.99
     16.6700	  557.00	  567.45	-1756.45	  449.72
     16.7700	  524.00	  567.18	-1789.18	  449.46
     16.8700	  570.00	  566.91	-1742.91	  449.19
     16.9700	  554.00	  566.64	-1758.64	  448.93
     17.0700	  560.00	  566.36	-1752.36	  448.66
     17.1700	  534.00	  566.09	-1778.09	  448.38
     17.2700	  535.00	  565.81	-1776.81	  448.11
     17.3700	  593.00	  565.53	-1718.53	  447.83
     17.4700	  580.00	  565.25	-1731.25	  447.55
     17.5700	  549.00	  564.97	-1761.97	  447.27
     17.6700	  570.00	  564.68	-1740.68	  446.99
     17.7700	  566.00	  564.40	-1744.40	  446.71
     17.8700	  530.00	  564.11	-1780.11	  446.42
     17.9700	  526.00	  563.91	-1783.91	  446.13
     18.0700	  545.00	  563.62	-1764.62	  445.84
     18.1700	  606.00	  563.33	-1703.33	  445.55
     18.2700	  545.00	  563.04	-1764.04	  445.25
     18.3700	  543.00	  562.74	-1765.74	  444.96
     18.4700	  530.00	  562.45	-1778.45	  444.66
     18.5700	  556.00	  562.15	-1752.15	  444.36
     18.6700	  544.00	  561.85	-1763.85	  444.06
     18.7700	  535.00	  561.55	-1772.55	  443.76
     18.8700	  563.00	  561.34	-1744.34	  443.45
     18.9700	  561.00	  561.04	-1746.04	  443.15
     19.0700	  544.00	  560.74	-1762.74	  442.84
     19.1700	  571.00	  560.44	-1735.44	  442.53
     19.2700	  595.00	  560.13	-1711.13	  442.22
     19.3700	  568.00	  559.83	-1737.83	  441.91
     19.4700	  588.00	  559.52	-1717.52	  441.60
     19.5700	  553.00	  559.21	-1752.21	  441.28
     19.6700	  584.00	  558.91	-1720.91	  440.97
     19.7700	  522.00	  558.60	-1782.60	  440.65
     19.8700	  569.00	  558.29	-1735.29	  440.33
     19.9700	  588.00	  557.98	-1715.98	  440.02
     20.0700	  554.00	  557.67	-1749.67	  439.69
     20.1700	  548.00	  557.35	-1755.35	  439.37
     20.2700	  565.00	  557.04	-1738.04	  439.05
     20.3700	  545.00	  556.73	-1757.73	  438.73
     20.4700	  527.00	  556.41	-1775.41	  438.40
     20.5700	  564.00	  556.10	-1738.10	  438.08
     20.6700	  514.00	  555.79	-1787.79	  437.75
     20.7700	  525.00	  555.51	-1776.51	  437.42
     20.8700	  586.00	  555.16	-1715.16	  437.09
     20.9700	  556.00	  554.85	-1744.85	  436.76
     21.0700	  538.00	  554.54	-1762.54	  436.43
     21.1700	  539.00	  554.22	-1761.22	  436.10
     21.2700	  588.00	  553.91	-1711.91	  435.77
     21.3700	  598.00	  553.60	-1701.60	  435.44
     21.4700	  539.00	  553.29	-1760.29	  435.10
     21.5700	  541.00	  552.98	-1757.98	  434.77
     21.6700	  546.00	  552.67	-1752.67	  434.43
     21.7700	  562.00	  552.36	-1736.36	  434.10
     21.8700	  563.00	  552.06	-1735.06	  433.76
     21.9700	  553.00	  551.75	-1744.75	  433.42
     22.0700	  600.00	  551.45	-1697.45	  433.09
     22.1700	  537.00	  551.15	-1760.15	  432.75
     22.2700	  590.00	  550.85	-1706.85	  432.41
     22.3700	  564.00	  550.56	-1732.56	  432.07
     22.4700	  561.00	  550.27	-1735.27	  431.73
     22.5700	  547.00	  549.98	-1748.98	  431.39
     22.6700	  549.00	  549.71	-1746.71	  431.05
     22.7700	  534.00	  549.44	-1761.44	  430.71
     22.8700	  559.00	  549.17	-1736.17	  430.37
     22.9700	  553.00	  548.92	-1741.92	  430.03
     23.0700	  542.00	  548.68	-1752.68	  429.68
     23.1700	  518.00	  548.46	-1776.46	  429.34
     23.2700	  543.00	  548.26	-1751.26	  429.00
     23.3700	  563.00	  548.09	-1731.09	  428.66
     23.4700	  538.00	  547.95	-1755.95	  428.31
     23.5700	  529.00	  547.86	-1764.86	  427.97
     23.6700	  559.00	  547.98	-1734.98	  427.63
     23.7700	  533.00	  548.08	-1761.08	  427.28
     23.8700	  589.00	  548.41	-1705.41	  426.94
     23.9700	  585.00	  549.17	-1710.17	  426.60
     24.0700	  523.00	  550.79	-1773.79	  426.25
     24.1700	  562.00	  553.89	-1737.89	  425.91
     24.2700	  549.00	  559.30	-1756.30	  425.56
     24.3700	  575.00	  567.92	-1738.92	  425.22
     24.4700	  581.00	  580.68	-1745.68	  424.88
     24.5700	  591.00	  597.69	-1752.69	  424.53
     24.6700	  613.00	  616.22	-1749.22	  424.19
     24.7700	  640.00	  629.02	-1735.02	  423.84
     24.8700	  622.00	  626.32	-1750.32	  423.50
     24.9700	  620.00	  606.72	-1732.72	  423.16
     25.0700	  605.00	  582.58	-1723.58	  422.81
     25.1700	  552.00	  564.15	-1758.15	  422.47
     25.2700	  532.00	  553.42	-1767.42	  422.13
     25.3700	  523.00	  548.18	-1771.18	  421.79
     25.4700	  573.00	  545.72	-1718.72	  421.44
     25.5700	  555.00	  544.40	-1735.40	  421.10
     25.6700	  582.00	  543.55	-1707.55	  420.76
     25.7700	  562.00	  542.91	-1726.91	  420.42
     25.8700	  559.00	  542.43	-1729.43	  420.08
     25.9700	  553.00	  542.05	-1735.05	  419.74
     26.0700	  553.00	  541.77	-1734.77	  419.39
     26.1700	  584.00	  541.56	-1703.56	  419.05
     26.2700	  546.00	  541.42	-1741.42	  418.71
     26.3700	  525.00	  541.36	-1762.36	  418.38
     26.4700	  589.00	  541.38	-1698.38	  418.04
     26.5700	  561.00	  541.50	-1726.50	  417.70
     26.6700	  547.00	  541.71	-1740.71	  417.36
     26.7700	  538.00	  542.06	-1750.06	  417.02
     26.8700	  565.00	  542.57	-1723.57	  416.69
     26.9700	  559.00	  543.28	-1730.28	  416.35
     27.0700	  594.00	  544.27	-1696.27	  416.01
     27.1700	  559.00	  545.65	-1732.65	  415.68
     27.2700	  557.00	  547.65	-1736.65	  415.34
     27.3700	  540.00	  550.70	-1756.70	  415.01
     27.4700	  578.00	  555.67	-1723.67	  414.68
     27.5700	  544.00	  564.11	-1766.11	  414.35
     27.6700	  559.00	  578.47	-1765.47	  414.01
     27.7700	  554.00	  601.98	-1793.98	  413.68
     27.8700	  571.00	  637.48	-1812.48	  413.35
     27.9700	  641.00	  685.32	-1790.32	  413.02
     28.0700	  750.00	  740.37	-1736.37	  412.69
     28.1700	  835.00	  789.49	-1700.49	  412.37
     28.2700	  921.00	  812.51	-1637.51	  412.04
     28.3700	  923.00	  796.65	-1619.65	  411.71
     28.4700	  777.00	  760.22	-1729.22	  411.39
     28.5700	  695.00	  735.89	-1786.89	  411.06
     28.6700	  656.00	  739.34	-1829.34	  410.74
     28.7700	  726.00	  766.34	-1786.34	  410.41
     28.8700	  834.00	  797.62	-1709.62	  410.09
     28.9700	  819.00	  805.19	-1732.19	  409.77
     29.0700	  753.00	  770.06	-1763.06	  409.45
     29.1700	  769.00	  706.76	-1683.76	  409.13
     29.2700	  653.00	  645.02	-1738.02	  408.81
     29.3700	  580.00	  599.84	-1765.84	  408.49
     29.4700	  572.00	  572.21	-1746.21	  408.18
     29.5700	  631.00	  557.17	-1672.17	  407.86
     29.6700	  634.00	  549.23	-1661.23	  407.55
     29.7700	  608.00	  544.78	-1682.78	  407.23
     29.8700	  598.00	  542.03	-1690.03	  406.92
     29.9700	  559.00	  540.31	-1727.31	  406.61
     30.0700	  618.00	  539.42	-1667.42	  406.30
     30.1700	  545.00	  539.52	-1740.52	  405.99
     30.2700	  567.00	  541.14	-1720.14	  405.68
     30.3700	  557.00	  545.30	-1734.30	  405.37
     30.4700	  549.00	  553.60	-1750.60	  405.07
     30.5700	  555.00	  567.69	-1758.69	  404.76
     30.6700	  579.00	  588.07	-1755.07	  404.46
     30.7700	  570.00	  612.31	-1788.31	  404.16
     30.8700	  604.00	  633.73	-1775.73	  403.86
     30.9700	  635.00	  641.98	-1752.98	  403.56
     31.0700	  612.00	  629.47	-1763.47	  403.26
     31.1700	  532.00	  602.56	-1816.56	  402.96
     31.2700	  560.00	  574.95	-1760.95	  402.66
     31.3700	  565.00	  554.22	-1735.22	  402.37
     31.4700	  543.00	  541.41	-1744.41	  402.07
     31.5700	  548.00	  534.45	-1732.45	  401.78
     31.6700	  534.00	  530.83	-1742.83	  401.49
     31.7700	  518.00	  528.83	-1756.83	  401.20
     31.8700	  557.00	  527.58	-1716.58	  400.91
     31.9700	  503.00	  526.72	-1769.72	  400.62
     32.0700	  529.00	  526.11	-1743.11	  400.34
     32.1700	  505.00	  525.69	-1766.69	  400.05
     32.2700	  584.00	  525.43	-1687.43	  399.77
     32.3700	  501.00	  525.34	-1770.34	  399.49
     32.4700	  550.00	  525.40	-1721.40	  399.21
     32.5700	  552.00	  525.64	-1719.64	  398.93
     32.6700	  510.00	  526.09	-1762.09	  398.65
     32.7700	  528.00	  526.78	-1744.78	  398.37
     32.8700	  534.00	  527.80	-1739.80	  398.10
     32.9700	  512.00	  529.25	-1763.25	  397.83
     33.0700	  556.00	  531.35	-1721.35	  397.55
     33.1700	  547.00	  534.58	-1733.58	  397.28
     33.2700	  554.00	  539.97	-1731.97	  397.01
     33.3700	  572.00	  549.78	-1723.78	  396.75
     33.4700	  574.00	  568.27	-1740.27	  396.48
     33.5700	  568.00	  602.18	-1780.18	  396.21
     33.6700	  674.00	  659.22	-1731.22	  395.95
     33.7700	  727.00	  742.82	-1761.82	  395.69
     33.8700	  917.00	  844.18	-1673.18	  395.43
     33.9700	 1000.00	  936.91	-1682.91	  395.17
     34.0700	 1013.00	  979.85	-1712.85	  394.91
     34.1700	  988.00	  941.45	-1699.45	  394.66
     34.2700	  940.00	  840.86	-1646.86	  394.40
     34.3700	  784.00	  730.31	-1692.31	  394.15
     34.4700	  646.00	  643.27	-1743.27	  393.90
     34.5700	  590.00	  587.52	-1743.52	  393.65
     34.6700	  524.00	  556.73	-1778.73	  393.40
     34.7700	  564.00	  541.01	-1723.01	  393.16
     34.8700	  540.00	  532.76	-1738.76	  392.91
     34.9700	  528.00	  527.86	-1745.86	  392.67
     35.0700	  515.00	  524.53	-1755.53	  392.43
     35.1700	  515.00	  522.01	-1753.01	  392.19
     35.2700	  554.00	  520.02	-1712.02	  391.95
     35.3700	  505.00	  518.40	-1759.40	  391.71
     35.4700	  481.00	  517.06	-1782.06	  391.48
     35.5700	  526.00	  515.93	-1735.93	  391.24
     35.6700	  498.00	  514.96	-1762.96	  391.01
     35.7700	  519.00	  514.12	-1741.12	  390.78
     35.8700	  550.00	  513.38	-1709.38	  390.55
     35.9700	  520.00	  513.20	-1739.20	  390.33
     36.0700	  535.00	  512.62	-1723.62	  390.10
     36.1700	  520.00	  512.10	-1738.10	  389.88
     36.2700	  531.00	  511.63	-1726.63	  389.66
     36.3700	  517.00	  511.20	-1740.20	  389.44
     36.4700	  485.00	  510.82	-1771.82	  389.22
     36.5700	  477.00	  510.49	-1779.49	  389.00
     36.6700	  484.00	  510.20	-1772.20	  388.79
     36.7700	  509.00	  509.96	-1746.96	  388.58
     36.8700	  539.00	  509.80	-1716.80	  388.36
     36.9700	  506.00	  509.78	-1749.78	  388.15
     37.0700	  499.00	  510.05	-1757.05	  387.95
     37.1700	  466.00	  510.86	-1790.86	  387.74
     37.2700	  500.00	  512.60	-1758.60	  387.54
     37.3700	  506.00	  515.61	-1755.61	  387.33
     37.4700	  515.00	  519.90	-1750.90	  387.13
     37.5700	  553.00	  524.74	-1717.74	  386.93
     37.6700	  522.00	  528.67	-1752.67	  386.74
     37.7700	  532.00	  529.99	-1743.99	  386.54
     37.8700	  499.00	  528.27	-1775.27	  386.35
     37.9700	  579.00	  524.82	-1691.82	  386.16
     38.0700	  526.00	  520.82	-1740.82	  385.97
     38.1700	  502.00	  516.73	-1760.73	  385.78
     38.2700	  522.00	  513.01	-1737.01	  385.59
     38.3700	  511.00	  510.06	-1745.06	  385.41
     38.4700	  485.00	  507.99	-1768.99	  385.22
     38.5700	  502.00	  506.63	-1750.63	  385.04
     38.6700	  507.00	  505.70	-1744.70	  384.86
     38.7700	  522.00	  505.15	-1729.15	  384.68
     38.8700	  521.00	  504.77	-1729.77	  384.51
     38.9700	  515.00	  504.47	-1735.47	  384.33
     39.0700	  501.00	  504.21	-1749.21	  384.16
     39.1700	  498.00	  503.98	-1751.98	  383.99
     39.2700	  514.00	  503.68	-1735.68	  383.82
     39.3700	  484.00	  503.62	-1765.62	  383.66
     39.4700	  496.00	  503.44	-1753.44	  383.49
     39.5700	  528.00	  503.28	-1721.28	  383.33
     39.6700	  469.00	  503.13	-1780.13	  383.17
     39.7700	  551.00	  502.99	-1697.99	  383.01
     39.8700	  492.00	  502.85	-1756.85	  382.85
     39.9700	  484.00	  502.73	-1764.73	  382.70
     40.0700	  500.00	  502.62	-1748.62	  382.54
     40.1700	  510.00	  502.52	-1738.52	  382.39
     40.2700	  514.00	  502.43	-1734.43	  382.24
     40.3700	  530.00	  502.36	-1718.36	  382.09
     40.4700	  492.00	  502.30	-1756.30	  381.94
     40.5700	  473.00	  502.25	-1775.25	  381.80
     40.6700	  499.00	  502.22	-1749.22	  381.66
     40.7700	  497.00	  502.21	-1751.21	  381.52
     40.8700	  497.00	  502.23	-1751.23	  381.38
     40.9700	  526.00	  502.27	-1722.27	  381.24
     41.0700	  522.00	  502.35	-1726.35	  381.10
     41.1700	  518.00	  502.47	-1730.47	  380.97
     41.2700	  528.00	  502.64	-1720.64	  380.84
     41.3700	  544.00	  502.85	-1704.85	  380.71
     41.4700	  487.00	  503.61	-1762.61	  380.58
     41.5700	  471.00	  504.06	-1779.06	  380.45
     41.6700	  507.00	  504.70	-1743.70	  380.33
     41.7700	  513.00	  505.66	-1738.66	  380.21
     41.8700	  506.00	  507.26	-1747.26	  380.09
     41.9700	  538.00	  510.19	-1718.19	  379.97
     42.0700	  490.00	  515.80	-1771.80	  379.85
     42.1700	  531.00	  526.13	-1741.13	  379.73
     42.2700	  497.00	  543.62	-1792.62	  379.62
     42.3700	  522.00	  569.43	-1793.43	  379.51
     42.4700	  611.00	  601.67	-1736.67	  379.40
     42.5700	  610.00	  633.44	-1769.44	  379.29
     42.6700	  610.00	  653.42	-1789.42	  379.19
     42.7700	  606.00	  651.31	-1791.31	  379.08
     42.8700	  585.00	  627.38	-1788.38	  378.98
     42.9700	  527.00	  593.57	-1812.57	  378.88
     43.0700	  513.00	  561.64	-1794.64	  378.78
     43.1700	  519.00	  537.44	-1764.44	  378.68
     43.2700	  485.00	  521.87	-1782.87	  378.59
     43.3700	  498.00	  513.04	-1761.04	  378.50
     43.4700	  528.00	  508.40	-1726.40	  378.40
     43.5700	  502.00	  505.96	-1749.96	  378.31
     43.6700	  466.00	  504.76	-1784.76	  378.23
     43.7700	  488.00	  503.86	-1761.86	  378.14
     43.8700	  506.00	  503.26	-1743.26	  378.06
     43.9700	  497.00	  502.78	-1751.78	  377.98
     44.0700	  527.00	  502.40	-1721.40	  377.89
     44.1700	  506.00	  502.11	-1742.11	  377.82
     44.2700	  498.00	  501.89	-1749.89	  377.74
     44.3700	  517.00	  501.72	-1730.72	  377.66
     44.4700	  489.00	  501.59	-1758.59	  377.59
     44.5700	  530.00	  501.50	-1717.50	  377.52
     44.6700	  444.00	  501.45	-1803.45	  377.45
     44.7700	  494.00	  501.30	-1753.30	  377.38
     44.8700	  509.00	  501.30	-1738.30	  377.32
     44.9700	  491.00	  501.33	-1756.33	  377.25
     45.0700	  546.00	  501.38	-1701.38	  377.19
     45.1700	  487.00	  501.63	-1760.63	  377.13
     45.2700	  517.00	  501.73	-1730.73	  377.07
     45.3700	  499.00	  501.85	-1748.85	  377.01
     45.4700	  505.00	  502.00	-1743.00	  376.96
     45.5700	  468.00	  502.17	-1780.17	  376.91
     45.6700	  497.00	  502.36	-1751.36	  376.85
     45.7700	  522.00	  502.58	-1726.58	  376.80
     45.8700	  500.00	  502.84	-1748.84	  376.76
     45.9700	  484.00	  503.12	-1765.12	  376.71
     46.0700	  475.00	  503.44	-1774.44	  376.66
     46.1700	  475.00	  503.80	-1774.80	  376.62
     46.2700	  519.00	  504.21	-1731.21	  376.58
     46.3700	  508.00	  504.68	-1742.68	  376.54
     46.4700	  517.00	  505.20	-1734.20	  376.50
     46.5700	  505.00	  505.80	-1746.80	  376.47
     46.6700	  521.00	  506.50	-1731.50	  376.43
     46.7700	  531.00	  507.32	-1722.32	  376.40
     46.8700	  519.00	  508.33	-1735.33	  376.37
     46.9700	  511.00	  509.67	-1744.67	  376.34
     47.0700	  497.00	  511.66	-1760.66	  376.31
     47.1700	  496.00	  514.89	-1764.89	  376.29
     47.2700	  545.00	  520.25	-1721.25	  376.26
     47.3700	  522.00	  529.03	-1753.03	  376.24
     47.4700	  507.00	  542.35	-1781.35	  376.22
     47.5700	  532.00	  560.34	-1774.34	  376.20
     47.6700	  585.00	  581.17	-1742.17	  376.19
     47.7700	  652.00	  600.45	-1694.45	  376.17
     47.8700	  621.00	  612.00	-1737.00	  376.16
     47.9700	  582.00	  610.92	-1774.92	  376.14
     48.0700	  615.00	  598.42	-1729.42	  376.13
     48.1700	  591.00	  580.75	-1735.75	  376.12
     48.2700	  564.00	  563.94	-1745.94	  376.12
     48.3700	  544.00	  551.41	-1753.41	  376.11
     48.4700	  550.00	  544.11	-1740.11	  376.11
     48.5700	  506.00	  541.47	-1781.47	  376.11
     48.6700	  523.00	  542.33	-1765.33	  376.10
     48.7700	  523.00	  545.70	-1768.70	  376.11
     48.8700	  504.00	  551.06	-1793.06	  376.11
     48.9700	  523.00	  558.41	-1781.41	  376.11
     49.0700	  600.00	  568.40	-1714.40	  376.12
     49.1700	  542.00	  582.65	-1786.65	  376.13
     49.2700	  629.00	  604.56	-1721.56	  376.13
     49.3700	  655.00	  640.64	-1731.64	  376.15
     49.4700	  701.00	  702.19	-1747.19	  376.16
     49.5700	  782.00	  804.34	-1768.34	  376.17
     49.6700	  875.00	  965.43	-1836.43	  376.19
     49.7700	 1079.00	 1199.09	-1866.09	  376.20
     49.8700	 1434.00	 1504.07	-1816.07	  376.22
     49.9700	 1835.00	 1852.45	-1763.45	  376.24
     50.0700	 2257.00	 2180.64	-1669.64	  376.26
     50.1700	 2461.00	 2393.25	-1678.25	  376.29
     50.2700	 2515.00	 2403.59	-1634.59	  376.31
     50.3700	 2300.00	 2204.75	-1650.75	  376.34
     50.4700	 1850.00	 1880.38	-1776.38	  376.36
     50.5700	 1454.00	 1531.77	-1823.77	  376.39
     50.6700	 1061.00	 1226.61	-1911.61	  376.42
     50.7700	  912.00	  994.85	-1828.85	  376.45
     50.8700	  710.00	  838.42	-1874.42	  376.49
     50.9700	  657.00	  742.68	-1831.68	  376.52
     51.0700	  625.00	  687.04	-1808.04	  376.56
     51.1700	  614.00	  652.82	-1784.82	  376.60
     51.2700	  544.00	  627.75	-1829.75	  376.64
     51.3700	  584.00	  606.62	-1768.62	  376.68
     51.4700	  549.00	  588.52	-1785.52	  376.72
     51.5700	  562.00	  573.77	-1757.77	  376.76
     51.6700	  624.00	  562.54	-1684.54	  376.81
     51.7700	  520.00	  554.55	-1780.55	  376.85
     51.8700	  519.00	  549.15	-1776.15	  376.90
     51.9700	  557.00	  545.64	-1734.64	  376.95
     52.0700	  577.00	  543.47	-1712.47	  377.00
     52.1700	  573.00	  542.57	-1715.57	  377.05
     52.2700	  606.00	  542.38	-1682.38	  377.11
     52.3700	  575.00	  543.28	-1714.28	  377.16
     52.4700	  592.00	  545.73	-1699.73	  377.22
     52.5700	  582.00	  550.85	-1714.85	  377.27
     52.6700	  584.00	  560.93	-1722.93	  377.33
     52.7700	  636.00	  580.05	-1690.05	  377.39
     52.8700	  621.00	  614.33	-1739.33	  377.45
     52.9700	  769.00	  671.11	-1648.11	  377.52
     53.0700	  794.00	  756.24	-1708.24	  377.58
     53.1700	  861.00	  869.76	-1754.76	  377.65
     53.2700	 1035.00	 1001.39	-1712.39	  377.71
     53.3700	 1172.00	 1127.58	-1701.58	  377.78
     53.4700	 1194.00	 1213.55	-1765.55	  377.85
     53.5700	 1169.00	 1226.67	-1803.67	  377.92
     53.6700	 1114.00	 1160.68	-1792.68	  377.99
     53.7700	  969.00	 1042.38	-1819.38	  378.06
     53.8700	  847.00	  908.97	-1807.97	  378.14
     53.9700	  725.00	  788.29	-1809.29	  378.21
     54.0700	  718.00	  694.45	-1722.45	  378.29
     54.1700	  677.00	  630.02	-1699.02	  378.37
     54.2700	  618.00	  590.29	-1718.29	  378.45
     54.3700	  612.00	  567.91	-1701.91	  378.53
     54.4700	  567.00	  556.12	-1735.12	  378.61
     54.5700	  576.00	  550.21	-1720.21	  378.69
     54.6700	  569.00	  547.37	-1724.37	  378.77
     54.7700	  542.00	  546.28	-1750.28	  378.86
     54.8700	  598.00	  546.27	-1694.27	  378.94
     54.9700	  541.00	  547.10	-1752.10	  379.03
     55.0700	  564.00	  548.68	-1730.68	  379.12
     55.1700	  585.00	  551.05	-1712.05	  379.21
     55.2700	  571.00	  554.21	-1729.21	  379.30
     55.3700	  590.00	  558.32	-1714.32	  379.39
     55.4700	  562.00	  563.60	-1747.60	  379.48
     55.5700	  599.00	  570.44	-1717.44	  379.58
     55.6700	  585.00	  579.66	-1740.66	  379.67
     55.7700	  566.00	  592.92	-1772.92	  379.77
     55.8700	  564.00	  613.52	-1795.52	  379.86
     55.9700	  620.00	  647.62	-1773.62	  379.96
     56.0700	  675.00	  705.38	-1776.38	  380.06
     56.1700	  745.00	  801.42	-1802.42	  380.16
     56.2700	  896.00	  953.09	-1803.09	  380.26
     56.3700	 1135.00	 1175.25	-1786.25	  380.36
     56.4700	 1455.00	 1472.27	-1763.27	  380.47
     56.5700	 1711.00	 1828.40	-1863.40	  380.57
     56.6700	 2149.00	 2200.40	-1797.40	  380.67
     56.7700	 2508.00	 2515.15	-1753.15	  380.78
     56.8700	 2603.00	 2682.80	-1825.80	  380.89
     56.9700	 2575.00	 2641.55	-1812.55	  380.99
     57.0700	 2344.00	 2407.30	-1809.30	  381.10
     57.1700	 2090.00	 2060.74	-1716.74	  381.21
     57.2700	 1714.00	 1689.74	-1721.74	  381.32
     57.3700	 1326.00	 1356.32	-1776.32	  381.43
     57.4700	 1018.00	 1092.00	-1820.00	  381.55
     57.5700	  847.00	  903.71	-1802.71	  381.66
     57.6700	  803.00	  782.13	-1725.13	  381.77
     57.7700	  734.00	  711.25	-1723.25	  381.89
     57.8700	  681.00	  675.67	-1740.67	  382.00
     57.9700	  667.00	  664.35	-1743.35	  382.12
     58.0700	  679.00	  671.33	-1738.33	  382.24
     58.1700	  700.00	  694.53	-1740.53	  382.35
     58.2700	  761.00	  733.91	-1718.91	  382.47
     58.3700	  806.00	  789.69	-1729.69	  382.59
     58.4700	  925.00	  860.60	-1681.60	  382.71
     58.5700	 1093.00	  942.42	-1595.42	  382.83
     58.6700	 1222.00	 1027.37	-1551.37	  382.96
     58.7700	 1274.00	 1106.22	-1578.22	  383.08
     58.8700	 1431.00	 1172.55	-1487.55	  383.20
     58.9700	 1455.00	 1222.83	-1513.83	  383.33
     59.0700	 1547.00	 1252.30	-1451.30	  383.45
     59.1700	 1457.00	 1256.41	-1545.41	  383.58
     59.2700	 1405.00	 1238.10	-1579.10	  383.70
     59.3700	 1377.00	 1208.75	-1577.75	  383.83
     59.4700	 1266.00	 1180.27	-1660.27	  383.96
     59.5700	 1144.00	 1160.85	-1762.85	  384.09
     59.6700	 1154.00	 1157.85	-1749.85	  384.21
     59.7700	 1183.00	 1180.32	-1743.32	  384.34
     59.8700	 1279.00	 1234.31	-1701.31	  384.47
     59.9700	 1329.00	 1316.51	-1733.51	  384.61
     60.0700	 1404.00	 1410.92	-1752.92	  384.74
     60.1700	 1498.00	 1489.56	-1737.56	  384.87
     60.2700	 1603.00	 1519.27	-1662.27	  385.00
     60.3700	 1555.00	 1478.74	-1669.74	  385.13
     60.4700	 1474.00	 1373.81	-1645.81	  385.27
     60.5700	 1271.00	 1231.22	-1706.22	  385.40
     60.6700	 1132.00	 1080.28	-1694.28	  385.54
     60.7700	  930.00	  942.58	-1758.58	  385.67
     60.8700	  796.00	  830.44	-1780.44	  385.81
     60.9700	  738.00	  748.22	-1756.22	  385.94
     61.0700	  678.00	  695.05	-1763.05	  386.08
     61.1700	  667.00	  667.65	-1746.65	  386.22
     61.2700	  595.00	  663.26	-1814.26	  386.36
     61.3700	  652.00	  681.24	-1775.24	  386.49
     61.4700	  669.00	  723.38	-1800.38	  386.63
     61.5700	  726.00	  792.67	-1812.67	  386.77
     61.6700	  889.00	  890.92	-1747.92	  386.91
     61.7700	  992.00	 1015.86	-1769.86	  387.05
     61.8700	 1102.00	 1158.48	-1802.48	  387.19
     61.9700	 1228.00	 1301.31	-1819.31	  387.33
     62.0700	 1355.00	 1418.31	-1809.31	  387.47
     62.1700	 1416.00	 1479.68	-1809.68	  387.62
     62.2700	 1416.00	 1465.51	-1795.51	  387.76
     62.3700	 1333.00	 1379.98	-1792.98	  387.90
     62.4700	 1146.00	 1248.16	-1848.16	  388.04
     62.5700	  965.00	 1099.74	-1880.74	  388.19
     62.6700	  928.00	  958.03	-1776.03	  388.33
     62.7700	  742.00	  837.25	-1841.25	  388.47
     62.8700	  661.00	  743.45	-1828.45	  388.62
     62.9700	  673.00	  676.26	-1749.26	  388.76
     63.0700	  639.00	  631.46	-1738.46	  388.91
     63.1700	  615.00	  603.43	-1734.43	  389.05
     63.2700	  613.00	  586.89	-1719.89	  389.19
     63.3700	  582.00	  577.92	-1741.92	  389.34
     63.4700	  593.00	  574.17	-1727.17	  389.49
     63.5700	  598.00	  574.76	-1722.76	  389.63
     63.6700	  553.00	  580.06	-1773.06	  389.78
     63.7700	  636.00	  591.43	-1701.43	  389.92
     63.8700	  586.00	  610.87	-1770.87	  390.07
     63.9700	  647.00	  640.50	-1739.50	  390.22
     64.0700	  682.00	  681.72	-1745.72	  390.36
     64.1700	  778.00	  734.32	-1702.32	  390.51
     64.2700	  832.00	  795.51	-1709.51	  390.66
     64.3700	  885.00	  859.36	-1720.36	  390.80
     64.4700	  968.00	  916.65	-1694.65	  390.95
     64.5700	 1028.00	  956.08	-1674.08	  391.10
     64.6700	  995.00	  970.10	-1721.10	  391.24
     64.7700	 1074.00	  956.23	-1628.23	  391.39
     64.8700	  918.00	  919.35	-1747.35	  391.54
     64.9700	  942.00	  868.14	-1672.14	  391.69
     65.0700	  896.00	  812.08	-1662.08	  391.83
     65.1700	  800.00	  758.79	-1704.79	  391.98
     65.2700	  734.00	  712.63	-1724.63	  392.13
     65.3700	  671.00	  674.82	-1749.82	  392.28
     65.4700	  630.00	  644.67	-1760.67	  392.42
     65.5700	  570.00	  620.97	-1796.97	  392.57
     65.6700	  625.00	  602.63	-1723.63	  392.72
     65.7700	  543.00	  588.79	-1791.79	  392.87
     65.8700	  601.00	  578.70	-1723.70	  393.01
     65.9700	  530.00	  571.77	-1787.77	  393.16
     66.0700	  547.00	  567.48	-1766.48	  393.31
     66.1700	  537.00	  565.39	-1774.39	  393.45
     66.2700	  500.00	  565.10	-1811.10	  393.60
     66.3700	  562.00	  566.32	-1750.32	  393.75
     66.4700	  570.00	  569.00	-1745.00	  393.90
     66.5700	  566.00	  573.00	-1753.00	  394.04
     66.6700	  534.00	  578.81	-1790.81	  394.19
     66.7700	  588.00	  587.35	-1745.35	  394.33
     66.8700	  555.00	  600.38	-1791.38	  394.48
     66.9700	  623.00	  620.90	-1743.90	  394.63
     67.0700	  616.00	  653.65	-1783.65	  394.77
     67.1700	  701.00	  705.36	-1750.36	  394.92
     67.2700	  792.00	  784.50	-1738.50	  395.06
     67.3700	  891.00	  900.18	-1755.18	  395.21
     67.4700	 1090.00	 1059.53	-1715.53	  395.35
     67.5700	 1289.00	 1265.20	-1722.20	  395.50
     67.6700	 1523.00	 1511.55	-1734.55	  395.64
     67.7700	 1757.00	 1782.00	-1771.00	  395.79
     67.8700	 2120.00	 2047.56	-1673.56	  395.93
     67.9700	 2279.00	 2268.18	-1735.18	  396.08
     68.0700	 2457.00	 2398.60	-1687.60	  396.22
     68.1700	 2414.00	 2405.45	-1737.45	  396.36
     68.2700	 2331.00	 2286.79	-1701.79	  396.51
     68.3700	 2097.00	 2073.63	-1722.63	  396.65
     68.4700	 1830.00	 1810.85	-1726.85	  396.79
     68.5700	 1491.00	 1539.77	-1794.77	  396.93
     68.6700	 1278.00	 1290.45	-1758.45	  397.07
     68.7700	  968.00	 1080.74	-1858.74	  397.21
     68.8700	  880.00	  917.19	-1783.19	  397.36
     68.9700	  791.00	  798.02	-1753.02	  397.50
     69.0700	  689.00	  716.16	-1773.16	  397.64
     69.1700	  693.00	  662.63	-1715.63	  397.78
     69.2700	  641.00	  628.85	-1733.85	  397.91
     69.3700	  571.00	  607.88	-1782.88	  398.05
     69.4700	  611.00	  594.79	-1729.79	  398.19
     69.5700	  571.00	  586.40	-1761.40	  398.33
     69.6700	  570.00	  580.82	-1756.82	  398.47
     69.7700	  549.00	  576.99	-1773.99	  398.60
     69.8700	  603.00	  574.35	-1717.35	  398.74
     69.9700	  574.00	  572.63	-1744.63	  398.88
     70.0700	  594.00	  571.70	-1723.70	  399.01
     70.1700	  589.00	  571.49	-1728.49	  399.15
     70.2700	  583.00	  572.03	-1735.03	  399.28
     70.3700	  562.00	  573.43	-1757.43	  399.41
     70.4700	  578.00	  575.94	-1743.94	  399.55
     70.5700	  590.00	  580.07	-1736.07	  399.68
     70.6700	  606.00	  586.71	-1726.71	  399.81
     70.7700	  582.00	  597.43	-1761.44	  399.94
     70.8700	  577.00	  614.70	-1783.70	  400.07
     70.9700	  615.00	  642.12	-1773.12	  400.20
     71.0700	  630.00	  684.52	-1800.52	  400.33
     71.1700	  724.00	  747.61	-1769.61	  400.46
     71.2700	  829.00	  837.02	-1754.02	  400.59
     71.3700	  962.00	  957.02	-1741.02	  400.72
     71.4700	 1111.00	 1109.29	-1744.29	  400.84
     71.5700	 1227.00	 1287.89	-1806.89	  400.97
     71.6700	 1467.00	 1482.63	-1761.63	  401.10
     71.7700	 1640.00	 1675.20	-1781.20	  401.22
     71.8700	 1871.00	 1840.66	-1715.66	  401.35
     71.9700	 1864.00	 1950.41	-1832.41	  401.47
     72.0700	 1969.00	 1980.83	-1757.83	  401.59
     72.1700	 1887.00	 1924.68	-1783.68	  401.71
     72.2700	 1720.00	 1795.55	-1821.55	  401.83
     72.3700	 1655.00	 1619.87	-1710.87	  401.96
     72.4700	 1487.00	 1425.22	-1684.22	  402.07
     72.5700	 1308.00	 1235.27	-1673.27	  402.19
     72.6700	 1177.00	 1065.35	-1634.35	  402.31
     72.7700	 1061.00	  923.99	-1608.99	  402.43
     72.8700	  875.00	  813.46	-1684.46	  402.55
     72.9700	  848.00	  731.67	-1629.67	  402.66
     73.0700	  791.00	  673.84	-1628.84	  402.78
     73.1700	  709.00	  634.42	-1671.42	  402.89
     73.2700	  707.00	  608.19	-1647.19	  403.00
     73.3700	  666.00	  590.85	-1670.85	  403.12
     73.4700	  636.00	  579.31	-1689.31	  403.23
     73.5700	  582.00	  571.48	-1735.48	  403.34
     73.6700	  603.00	  566.06	-1709.06	  403.45
     73.7700	  588.00	  562.28	-1720.28	  403.56
     73.8700	  573.00	  559.67	-1732.67	  403.67
     73.9700	  575.00	  557.98	-1728.98	  403.77
     74.0700	  582.00	  556.99	-1720.99	  403.88
     74.1700	  601.00	  556.56	-1701.56	  403.98
     74.2700	  643.00	  556.50	-1659.50	  404.09
     74.3700	  586.00	  556.63	-1716.63	  404.19
     74.4700	  658.00	  556.72	-1644.72	  404.29
     74.5700	  657.00	  556.55	-1645.55	  404.40
     74.6700	  589.00	  555.97	-1712.97	  404.50
     74.7700	  643.00	  554.93	-1657.93	  404.60
     74.8700	  654.00	  553.56	-1645.56	  404.70
     74.9700	  591.00	  552.06	-1707.06	  404.79
     75.0700	  616.00	  550.72	-1680.72	  404.89
     75.1700	  578.00	  549.81	-1717.81	  404.98
     75.2700	  551.00	  549.59	-1744.59	  405.08
     75.3700	  574.00	  550.54	-1722.54	  405.17
     75.4700	  576.00	  552.99	-1722.99	  405.26
     75.5700	  532.00	  557.50	-1771.50	  405.36
     75.6700	  608.00	  564.48	-1702.48	  405.45
     75.7700	  591.00	  574.56	-1729.56	  405.54
     75.8700	  595.00	  587.96	-1738.96	  405.62
     75.9700	  625.00	  604.63	-1725.63	  405.71
     76.0700	  664.00	  624.06	-1706.06	  405.80
     76.1700	  655.00	  645.12	-1736.12	  405.88
     76.2700	  692.00	  666.09	-1720.09	  405.97
     76.3700	  684.00	  684.64	-1746.64	  406.05
     76.4700	  638.00	  698.10	-1806.10	  406.13
     76.5700	  657.00	  704.07	-1793.07	  406.21
     76.6700	  694.00	  701.29	-1753.29	  406.29
     76.7700	  665.00	  690.32	-1771.32	  406.37
     76.8700	  656.00	  673.22	-1763.22	  406.44
     76.9700	  644.00	  652.66	-1754.66	  406.52
     77.0700	  636.00	  630.93	-1740.93	  406.59
     77.1700	  600.00	  610.39	-1756.39	  406.67
     77.2700	  566.00	  592.18	-1772.18	  406.74
     77.3700	  483.00	  577.03	-1840.03	  406.81
     77.4700	  531.00	  565.12	-1780.12	  406.88
     77.5700	  573.00	  556.22	-1729.22	  406.95
     77.6700	  518.00	  549.87	-1777.87	  407.02
     77.7700	  544.00	  545.53	-1747.53	  407.08
     77.8700	  512.00	  542.66	-1776.66	  407.15
     77.9700	  529.00	  540.80	-1757.80	  407.21
     78.0700	  538.00	  539.61	-1747.61	  407.27
     78.1700	  516.00	  538.86	-1768.86	  407.33
     78.2700	  533.00	  538.39	-1751.39	  407.39
     78.3700	  539.00	  538.09	-1745.09	  407.45
     78.4700	  544.00	  537.93	-1739.93	  407.51
     78.5700	  508.00	  537.88	-1775.88	  407.56
     78.6700	  475.00	  537.92	-1808.92	  407.62
     78.7700	  543.00	  538.08	-1741.08	  407.67
     78.8700	  504.00	  538.36	-1780.36	  407.72
     78.9700	  524.00	  538.80	-1760.80	  407.77
     79.0700	  506.00	  539.44	-1779.44	  407.82
     79.1700	  517.00	  540.33	-1769.33	  407.87
     79.2700	  523.00	  541.53	-1764.53	  407.92
     79.3700	  543.00	  542.90	-1745.90	  407.96
     79.4700	  523.00	  544.88	-1767.88	  408.01
     79.5700	  533.00	  547.36	-1760.36	  408.05
     79.6700	  513.00	  550.44	-1783.44	  408.09
     79.7700	  502.00	  554.21	-1798.21	  408.13
     79.8700	  538.00	  558.83	-1766.83	  408.17
     79.9700	  531.00	  564.48	-1779.48	  408.21
     80.0700	  554.00	  571.40	-1763.40	  408.24
     80.1700	  538.00	  579.89	-1787.89	  408.28
     80.2700	  597.00	  590.27	-1739.27	  408.31
     80.3700	  626.00	  602.80	-1722.80	  408.34
     80.4700	  587.00	  617.57	-1776.57	  408.37
     80.5700	  578.00	  634.39	-1802.39	  408.40
     80.6700	  600.00	  652.74	-1798.74	  408.43
     80.7700	  674.00	  671.70	-1743.70	  408.45
     80.8700	  657.00	  690.01	-1779.01	  408.48
     80.9700	  687.00	  706.24	-1765.24	  408.50
     81.0700	  733.00	  719.11	-1732.11	  408.52
     81.1700	  778.00	  727.65	-1695.65	  408.54
     81.2700	  701.00	  731.33	-1776.33	  408.56
     81.3700	  754.00	  729.99	-1721.99	  408.58
     81.4700	  741.00	  723.84	-1728.84	  408.59
     81.5700	  734.00	  713.48	-1725.48	  408.61
     81.6700	  749.00	  699.67	-1696.68	  408.62
     81.7700	  713.00	  683.33	-1716.33	  408.63
     81.8700	  692.00	  665.45	-1719.45	  408.64
     81.9700	  702.00	  647.15	-1691.15	  408.65
     82.0700	  716.00	  629.42	-1659.42	  408.65
     82.1700	  682.00	  613.00	-1677.00	  408.66
     82.2700	  677.00	  598.49	-1667.49	  408.66
     82.3700	  589.00	  586.09	-1743.09	  408.66
     82.4700	  635.00	  575.86	-1686.86	  408.66
     82.5700	  583.00	  567.74	-1730.74	  408.66
     82.6700	  589.00	  561.60	-1718.60	  408.66
     82.7700	  590.00	  557.33	-1713.33	  408.66
     82.8700	  558.00	  554.76	-1742.76	  408.65
     82.9700	  582.00	  553.75	-1717.75	  408.64
     83.0700	  556.00	  554.18	-1744.18	  408.64
     83.1700	  498.00	  555.94	-1803.94	  408.63
     83.2700	  553.00	  558.91	-1751.91	  408.61
     83.3700	  540.00	  562.91	-1768.91	  408.60
     83.4700	  542.00	  567.71	-1771.71	  408.59
     83.5700	  562.00	  572.97	-1756.97	  408.57
     83.6700	  600.00	  578.28	-1724.28	  408.55
     83.7700	  557.00	  583.13	-1772.13	  408.53
     83.8700	  615.00	  586.93	-1717.93	  408.51
     83.9700	  577.00	  589.14	-1758.14	  408.49
     84.0700	  557.00	  589.38	-1778.38	  408.46
     84.1700	  588.00	  587.57	-1745.57	  408.44
     84.2700	  560.00	  583.96	-1769.96	  408.41
     84.3700	  575.00	  579.04	-1750.04	  408.38
     84.4700	  544.00	  573.35	-1775.35	  408.35
     84.5700	  564.00	  567.42	-1749.42	  408.32
     84.6700	  556.00	  561.65	-1751.65	  408.28
     84.7700	  558.00	  556.37	-1744.37	  408.25
     84.8700	  593.00	  551.76	-1704.76	  408.21
     84.9700	  542.00	  547.93	-1751.93	  408.17
     85.0700	  533.00	  544.89	-1757.89	  408.13
     85.1700	  536.00	  542.57	-1752.57	  408.09
     85.2700	  499.00	  540.90	-1787.90	  408.05
     85.3700	  476.00	  539.77	-1809.77	  408.00
     85.4700	  521.00	  539.08	-1764.08	  407.96
     85.5700	  508.00	  538.77	-1776.77	  407.91
     85.6700	  512.00	  538.77	-1772.77	  407.86
     85.7700	  515.00	  539.08	-1770.08	  407.81
     85.8700	  530.00	  539.72	-1755.72	  407.75
     85.9700	  543.00	  540.76	-1743.76	  407.70
     86.0700	  541.00	  542.28	-1747.28	  407.64
     86.1700	  536.00	  544.44	-1754.44	  407.58
     86.2700	  557.00	  547.38	-1736.38	  407.52
     86.3700	  511.00	  551.28	-1786.28	  407.46
     86.4700	  573.00	  556.29	-1729.29	  407.40
     86.5700	  575.00	  562.54	-1733.54	  407.33
     86.6700	  612.00	  570.04	-1704.04	  407.27
     86.7700	  568.00	  578.69	-1756.69	  407.20
     86.8700	  623.00	  588.25	-1711.25	  407.13
     86.9700	  613.00	  597.96	-1730.96	  407.06
     87.0700	  617.00	  607.88	-1736.88	  406.99
     87.1700	  651.00	  616.92	-1711.92	  406.91
     87.2700	  636.00	  624.25	-1734.25	  406.84
     87.3700	  650.00	  629.06	-1725.06	  406.76
     87.4700	  632.00	  630.71	-1744.71	  406.68
     87.5700	  655.00	  629.00	-1720.00	  406.60
     87.6700	  685.00	  624.22	-1685.22	  406.52
     87.7700	  639.00	  617.06	-1724.06	  406.43
     87.8700	  625.00	  608.39	-1729.39	  406.35
     87.9700	  618.00	  599.14	-1727.14	  406.26
     88.0700	  603.00	  590.13	-1733.13	  406.17
     88.1700	  602.00	  582.04	-1726.04	  406.08
     88.2700	  560.00	  575.39	-1761.39	  405.99
     88.3700	  600.00	  570.51	-1716.51	  405.89
     88.4700	  581.00	  567.56	-1732.56	  405.80
     88.5700	  590.00	  566.53	-1722.53	  405.70
     88.6700	  559.00	  567.27	-1754.27	  405.60
     88.7700	  575.00	  569.51	-1740.51	  405.50
     88.8700	  558.00	  572.88	-1760.88	  405.40
     88.9700	  576.00	  576.93	-1746.93	  405.29
     89.0700	  620.00	  581.16	-1707.16	  405.19
     89.1700	  567.00	  585.05	-1764.05	  405.08
     89.2700	  575.00	  588.06	-1759.06	  404.97
     89.3700	  628.00	  589.74	-1707.74	  404.86
     89.4700	  569.00	  589.79	-1766.79	  404.75
     89.5700	  548.00	  588.14	-1786.14	  404.64
     89.6700	  581.00	  584.99	-1749.99	  404.52
     89.7700	  560.00	  580.68	-1766.68	  404.41
     89.8700	  537.00	  575.62	-1784.62	  404.29
     89.9700	  530.00	  570.24	-1786.24	  404.17
     90.0700	  578.00	  564.90	-1732.90	  404.05
     90.1700	  536.00	  559.86	-1769.86	  403.92
     90.2700	  579.00	  555.34	-1722.34	  403.80
     90.3700	  553.00	  551.45	-1744.45	  403.67
     90.4700	  521.00	  548.26	-1773.26	  403.55
     90.5700	  537.00	  545.75	-1754.75	  403.42
     90.6700	  535.00	  543.88	-1754.88	  403.29
     90.7700	  527.00	  542.59	-1761.59	  403.15
     90.8700	  525.00	  541.79	-1762.79	  403.02
     90.9700	  509.00	  541.44	-1778.44	  402.88
     91.0700	  552.00	  541.47	-1735.47	  402.75
     91.1700	  541.00	  541.89	-1746.89	  402.61
     91.2700	  492.00	  542.71	-1796.71	  402.47
     91.3700	  538.00	  543.98	-1751.98	  402.32
     91.4700	  509.00	  545.82	-1782.82	  402.18
     91.5700	  516.00	  548.38	-1778.38	  402.04
     91.6700	  578.00	  551.82	-1719.82	  401.89
     91.7700	  536.00	  556.38	-1766.38	  401.74
     91.8700	  510.00	  562.27	-1798.27	  401.59
     91.9700	  556.00	  569.71	-1759.71	  401.44
     92.0700	  564.00	  578.68	-1760.68	  401.29
     92.1700	  555.00	  589.77	-1780.77	  401.13
     92.2700	  571.00	  602.77	-1777.77	  400.98
     92.3700	  585.00	  617.61	-1778.61	  400.82
     92.4700	  653.00	  634.05	-1727.05	  400.66
     92.5700	  658.00	  651.73	-1739.73	  400.50
     92.6700	  703.00	  670.10	-1713.10	  400.34
     92.7700	  662.00	  688.48	-1772.48	  400.18
     92.8700	  728.00	  706.10	-1724.10	  400.01
     92.9700	  724.00	  722.13	-1744.13	  399.85
     93.0700	  764.00	  735.92	-1717.92	  399.68
     93.1700	  770.00	  747.13	-1723.13	  399.51
     93.2700	  812.00	  755.87	-1689.87	  399.34
     93.3700	  786.00	  762.64	-1722.64	  399.17
     93.4700	  813.00	  768.16	-1701.16	  399.00
     93.5700	  857.00	  773.24	-1662.24	  398.82
     93.6700	  849.00	  778.59	-1675.59	  398.64
     93.7700	  792.00	  784.85	-1738.85	  398.47
     93.8700	  811.00	  792.56	-1727.56	  398.29
     93.9700	  772.00	  802.25	-1776.25	  398.11
     94.0700	  810.00	  814.27	-1750.27	  397.93
     94.1700	  824.00	  828.75	-1750.75	  397.74
     94.2700	  876.00	  845.43	-1715.43	  397.56
     94.3700	  925.00	  863.58	-1684.58	  397.37
     94.4700	  932.00	  882.03	-1696.03	  397.18
     94.5700	  893.00	  899.17	-1752.17	  397.00
     94.6700	  898.00	  913.15	-1761.15	  396.81
     94.7700	  928.00	  922.00	-1740.00	  396.61
     94.8700	  973.00	  924.10	-1697.10	  396.42
     94.9700	  911.00	  918.52	-1753.52	  396.23
     95.0700	  902.00	  905.32	-1749.32	  396.03
     95.1700	  841.00	  885.48	-1790.48	  395.84
     95.2700	  860.00	  860.69	-1746.69	  395.64
     95.3700	  793.00	  832.96	-1785.96	  395.44
     95.4700	  821.00	  804.37	-1729.37	  395.24
     95.5700	  804.00	  776.89	-1718.89	  395.04
     95.6700	  732.00	  752.36	-1766.36	  394.83
     95.7700	  696.00	  732.44	-1782.44	  394.63
     95.8700	  646.00	  718.60	-1818.60	  394.42
     95.9700	  713.00	  712.15	-1745.15	  394.22
     96.0700	  725.00	  714.19	-1735.19	  394.01
     96.1700	  719.00	  725.66	-1752.66	  393.80
     96.2700	  749.00	  747.27	-1744.27	  393.59
     96.3700	  769.00	  779.44	-1756.44	  393.38
     96.4700	  851.00	  822.27	-1717.27	  393.17
     96.5700	  839.00	  875.38	-1782.38	  392.95
     96.6700	  990.00	  937.85	-1693.85	  392.74
     96.7700	  964.00	 1008.14	-1790.14	  392.52
     96.8700	 1076.00	 1084.00	-1754.00	  392.31
     96.9700	 1135.00	 1162.46	-1773.46	  392.09
     97.0700	 1251.00	 1239.86	-1734.86	  391.87
     97.1700	 1298.00	 1312.01	-1760.01	  391.65
     97.2700	 1323.00	 1374.31	-1797.31	  391.43
     97.3700	 1440.00	 1422.20	-1728.20	  391.20
     97.4700	 1455.00	 1451.78	-1742.78	  390.98
     97.5700	 1416.00	 1460.61	-1790.61	  390.75
     97.6700	 1465.00	 1448.21	-1729.21	  390.53
     97.7700	 1401.00	 1416.20	-1761.20	  390.30
     97.8700	 1311.00	 1367.84	-1802.84	  390.07
     97.9700	 1308.00	 1307.27	-1745.27	  389.85
     98.0700	 1248.00	 1238.95	-1736.95	  389.62
     98.1700	 1159.00	 1167.18	-1754.18	  389.38
     98.2700	 1129.00	 1095.90	-1712.90	  389.15
     98.3700	 1001.00	 1028.52	-1773.52	  388.92
     98.4700	  936.00	  967.89	-1777.89	  388.69
     98.5700	  870.00	  916.29	-1792.29	  388.45
     98.6700	  880.00	  875.49	-1741.49	  388.22
     98.7700	  821.00	  846.79	-1771.79	  387.98
     98.8700	  852.00	  831.14	-1725.14	  387.74
     98.9700	  810.00	  829.18	-1765.18	  387.51
     99.0700	  799.00	  841.31	-1788.31	  387.27
     99.1700	  816.00	  867.72	-1797.72	  387.03
     99.2700	  849.00	  908.41	-1805.41	  386.79
     99.3700	  910.00	  963.16	-1799.16	  386.54
     99.4700	  966.00	 1031.44	-1811.44	  386.30
     99.5700	 1103.00	 1112.33	-1755.33	  386.06
     99.6700	 1157.00	 1204.43	-1793.43	  385.82
     99.7700	 1288.00	 1305.76	-1763.76	  385.57
     99.8700	 1345.00	 1413.70	-1814.70	  385.33
     99.9700	 1557.00	 1524.85	-1713.85	  385.08
    100.0700	 1592.00	 1635.19	-1789.19	  384.83
    100.1700	 1770.00	 1740.26	-1716.26	  384.59
    100.2700	 2014.00	 1835.53	-1567.53	  384.34
    100.3700	 1903.00	 1916.95	-1759.95	  384.09
    100.4700	 2007.00	 1981.25	-1720.25	  383.84
    100.5700	 1995.00	 2026.20	-1777.20	  383.59
    100.6700	 2005.00	 2050.34	-1791.34	  383.34
    100.7700	 2076.00	 2052.84	-1722.84	  383.09
    100.8700	 2092.00	 2033.53	-1687.53	  382.84
    100.9700	 1993.00	 1993.15	-1746.15	  382.59
    101.0700	 1955.00	 1933.70	-1724.70	  382.33
    101.1700	 1918.00	 1858.58	-1686.58	  382.08
    101.2700	 1815.00	 1772.35	-1703.35	  381.83
    101.3700	 1750.00	 1680.08	-1676.08	  381.57
    101.4700	 1578.00	 1586.84	-1754.84	  381.32
    101.5700	 1514.00	 1497.05	-1729.05	  381.06
    101.6700	 1414.00	 1414.32	-1746.32	  380.81
    101.7700	 1359.00	 1341.19	-1728.19	  380.55
    101.8700	 1297.00	 1279.10	-1728.10	  380.30
    101.9700	 1302.00	 1228.47	-1672.47	  380.04
    102.0700	 1203.00	 1188.68	-1731.68	  379.78
    102.1700	 1141.00	 1158.31	-1763.31	  379.53
    102.2700	 1164.00	 1135.22	-1717.22	  379.27
    102.3700	 1145.00	 1116.78	-1717.78	  379.01
    102.4700	 1147.00	 1100.21	-1699.21	  378.75
    102.5700	 1071.00	 1082.86	-1757.86	  378.50
    102.6700	 1020.00	 1062.60	-1788.60	  378.24
    102.7700	  977.00	 1038.09	-1807.09	  377.98
    102.8700	 1049.00	 1008.83	-1705.83	  377.72
    102.9700	  977.00	  975.17	-1744.17	  377.46
    103.0700	  909.00	  937.96	-1774.96	  377.20
    103.1700	  897.00	  898.39	-1747.39	  376.94
    103.2700	  808.00	  857.76	-1795.76	  376.68
    103.3700	  779.00	  817.32	-1784.32	  376.43
    103.4700	  813.00	  778.22	-1711.22	  376.17
    103.5700	  726.00	  741.42	-1761.42	  375.91
    103.6700	  735.00	  707.65	-1718.65	  375.65
    103.7700	  740.00	  677.42	-1683.42	  375.39
    103.8700	  629.00	  651.00	-1768.00	  375.13
    103.9700	  660.00	  628.48	-1714.48	  374.87
    104.0700	  582.00	  609.73	-1773.73	  374.61
    104.1700	  566.00	  594.54	-1774.54	  374.35
    104.2700	  556.00	  582.55	-1772.55	  374.09
    104.3700	  535.00	  573.38	-1784.38	  373.83
    104.4700	  569.00	  566.65	-1743.65	  373.57
    104.5700	  571.00	  561.94	-1736.94	  373.31
    104.6700	  550.00	  558.91	-1754.91	  373.06
    104.7700	  594.00	  557.22	-1709.22	  372.80
    104.8700	  622.00	  556.59	-1680.59	  372.54
    104.9700	  580.00	  556.77	-1722.77	  372.28
    105.0700	  535.00	  557.62	-1768.62	  372.03
    105.1700	  536.00	  558.96	-1768.96	  371.77
    105.2700	  502.00	  560.69	-1804.69	  371.51
    105.3700	  551.00	  562.79	-1757.79	  371.26
    105.4700	  555.00	  565.21	-1756.21	  371.00
    105.5700	  545.00	  568.01	-1769.01	  370.75
    105.6700	  591.00	  571.25	-1726.25	  370.49
    105.7700	  527.00	  575.04	-1794.04	  370.24
    105.8700	  593.00	  579.50	-1732.50	  369.98
    105.9700	  568.00	  584.74	-1762.74	  369.73
    106.0700	  539.00	  590.85	-1797.85	  369.48
    106.1700	  572.00	  597.87	-1771.87	  369.22
    106.2700	  587.00	  605.78	-1764.78	  368.97
    106.3700	  638.00	  614.51	-1722.51	  368.72
    106.4700	  616.00	  623.88	-1753.88	  368.47
    106.5700	  615.00	  633.69	-1764.69	  368.22
    106.6700	  569.00	  643.65	-1820.65	  367.97
    106.7700	  637.00	  653.40	-1762.40	  367.73
    106.8700	  619.00	  662.58	-1789.58	  367.48
    106.9700	  688.00	  670.79	-1728.79	  367.23
    107.0700	  670.00	  677.66	-1753.66	  366.99
    107.1700	  671.00	  682.91	-1757.91	  366.74
    107.2700	  726.00	  686.36	-1706.36	  366.50
    107.3700	  661.00	  688.03	-1773.03	  366.25
    107.4700	  686.00	  688.09	-1748.09	  366.01
    107.5700	  703.00	  686.86	-1729.86	  365.77
    107.6700	  723.00	  684.77	-1707.77	  365.53
    107.7700	  664.00	  682.26	-1764.26	  365.29
    107.8700	  699.00	  679.71	-1726.71	  365.05
    107.9700	  703.00	  677.49	-1720.49	  364.82
    108.0700	  642.00	  675.84	-1779.84	  364.58
    108.1700	  646.00	  674.88	-1774.88	  364.35
    108.2700	  685.00	  674.65	-1735.65	  364.11
    108.3700	  603.00	  675.05	-1818.05	  363.88
    108.4700	  643.00	  675.88	-1778.88	  363.65
    108.5700	  688.00	  676.84	-1734.84	  363.42
    108.6700	  737.00	  677.57	-1686.57	  363.19
    108.7700	  676.00	  677.67	-1747.67	  362.97
    108.8700	  735.00	  676.78	-1687.78	  362.74
    108.9700	  683.00	  674.57	-1737.57	  362.52
    109.0700	  715.00	  670.86	-1701.86	  362.29
    109.1700	  640.00	  665.59	-1771.59	  362.07
    109.2700	  653.00	  658.83	-1751.83	  361.85
    109.3700	  648.00	  650.79	-1748.79	  361.63
    109.4700	  644.00	  641.75	-1743.75	  361.42
    109.5700	  633.00	  632.02	-1745.02	  361.20
    109.6700	  616.00	  621.93	-1751.93	  360.99
    109.7700	  642.00	  611.80	-1715.80	  360.78
    109.8700	  639.00	  601.89	-1708.89	  360.57
    109.9700	  662.00	  592.47	-1676.47	  360.36
    110.0700	  584.00	  583.73	-1745.73	  360.15
    110.1700	  622.00	  575.82	-1699.82	  359.95
    110.2700	  588.00	  568.83	-1726.83	  359.74
    110.3700	  559.00	  562.83	-1749.83	  359.54
    110.4700	  569.00	  557.82	-1734.82	  359.34
    110.5700	  523.00	  553.77	-1776.77	  359.14
    110.6700	  525.00	  550.64	-1771.64	  358.95
    110.7700	  533.00	  548.35	-1761.35	  358.76
    110.8700	  568.00	  546.82	-1724.82	  358.56
    110.9700	  579.00	  545.95	-1712.95	  358.37
    111.0700	  575.00	  545.67	-1716.67	  358.19
    111.1700	  570.00	  545.89	-1721.89	  358.00
    111.2700	  536.00	  546.54	-1756.54	  357.82
    111.3700	  530.00	  547.55	-1763.55	  357.64
    111.4700	  560.00	  548.88	-1734.88	  357.46
    111.5700	  497.00	  550.47	-1799.47	  357.28
    111.6700	  508.00	  552.31	-1790.31	  357.11
    111.7700	  537.00	  554.36	-1763.36	  356.94
    111.8700	  545.00	  556.62	-1757.62	  356.77
    111.9700	  615.00	  559.08	-1690.08	  356.60
    112.0700	  569.00	  561.75	-1738.75	  356.44
    112.1700	  606.00	  564.64	-1704.64	  356.28
    112.2700	  538.00	  567.77	-1775.77	  356.12
    112.3700	  511.00	  571.17	-1806.17	  355.96
    112.4700	  565.00	  574.88	-1755.88	  355.81
    112.5700	  565.00	  578.95	-1759.95	  355.66
    112.6700	  585.00	  583.46	-1744.46	  355.51
    112.7700	  618.00	  588.48	-1716.48	  355.36
    112.8700	  590.00	  594.14	-1750.14	  355.22
    112.9700	  616.00	  600.58	-1730.58	  355.08
    113.0700	  678.00	  608.00	-1676.00	  354.94
    113.1700	  675.00	  616.63	-1687.63	  354.81
    113.2700	  700.00	  626.81	-1672.81	  354.67
    113.3700	  692.00	  638.93	-1692.93	  354.55
    113.4700	  744.00	  653.54	-1655.54	  354.42
    113.5700	  749.00	  671.26	-1668.26	  354.30
    113.6700	  818.00	  692.91	-1620.91	  354.18
    113.7700	  843.00	  719.44	-1622.44	  354.06
    113.8700	  875.00	  752.04	-1623.04	  353.95
    113.9700	  906.00	  792.07	-1632.07	  353.84
    114.0700	 1048.00	  841.14	-1539.14	  353.73
    114.1700	 1070.00	  901.05	-1577.05	  353.63
    114.2700	 1112.00	  973.79	-1607.79	  353.53
    114.3700	 1141.00	 1061.57	-1666.57	  353.43
    114.4700	 1322.00	 1166.64	-1590.64	  353.34
    114.5700	 1455.00	 1291.38	-1582.38	  353.25
    114.6700	 1511.00	 1438.06	-1673.06	  353.16
    114.7700	 1722.00	 1608.77	-1632.77	  353.08
    114.8700	 1906.00	 1805.36	-1645.36	  353.00
    114.9700	 2195.00	 2029.15	-1580.15	  352.93
    115.0700	 2382.00	 2280.95	-1644.95	  352.85
    115.1700	 2611.00	 2560.71	-1695.71	  352.79
    115.2700	 2935.00	 2867.47	-1678.47	  352.72
    115.3700	 3145.00	 3199.36	-1800.36	  352.66
    115.4700	 3473.00	 3553.18	-1826.18	  352.61
    115.5700	 3790.00	 3924.75	-1880.75	  352.55
    115.6700	 4206.00	 4308.48	-1848.48	  352.50
    115.7700	 4471.00	 4697.59	-1972.59	  352.46
    115.8700	 4822.00	 5084.25	-2008.25	  352.42
    115.9700	 5190.00	 5459.37	-2015.37	  352.38
    116.0700	 5551.00	 5813.14	-2008.14	  352.35
    116.1700	 6186.00	 6134.98	-1694.98	  352.32
    116.2700	 6204.00	 6414.06	-1956.06	  352.30
    116.3700	 6623.00	 6640.09	-1763.09	  352.28
    116.4700	 6784.00	 6803.79	-1765.79	  352.26
    116.5700	 6880.00	 6898.08	-1764.08	  352.25
    116.6700	 6866.00	 6918.73	-1798.73	  352.25
    116.7700	 6984.00	 6865.02	-1627.02	  352.25
    116.8700	 6802.00	 6739.78	-1683.78	  352.25
    116.9700	 6599.00	 6549.04	-1696.04	  352.26
    117.0700	 6495.00	 6301.19	-1552.19	  352.27
    117.1700	 5871.00	 6006.20	-1881.20	  352.28
    117.2700	 5666.00	 5674.76	-1754.76	  352.31
    117.3700	 5285.00	 5317.34	-1778.34	  352.33
    117.4700	 4865.00	 4944.13	-1825.13	  352.36
    117.5700	 4542.00	 4564.27	-1768.27	  352.40
    117.6700	 4250.00	 4185.99	-1681.99	  352.44
    117.7700	 3955.00	 3816.43	-1607.43	  352.48
    117.8700	 3621.00	 3461.28	-1586.28	  352.53
    117.9700	 3290.00	 3125.28	-1581.28	  352.59
    118.0700	 2900.00	 2811.73	-1657.73	  352.65
    118.1700	 2635.00	 2523.00	-1634.00	  352.72
    118.2700	 2229.00	 2260.39	-1777.39	  352.79
    118.3700	 2036.00	 2024.21	-1734.21	  352.86
    118.4700	 1809.00	 1814.17	-1751.17	  352.95
    118.5700	 1508.00	 1629.21	-1867.21	  353.03
    118.6700	 1370.00	 1467.91	-1843.91	  353.13
    118.7700	 1238.00	 1328.49	-1836.49	  353.22
    118.8700	 1169.00	 1208.90	-1785.90	  353.33
    118.9700	 1095.00	 1107.08	-1758.08	  353.44
    119.0700	 1029.00	 1020.89	-1737.89	  353.55
    119.1700	  841.00	  948.31	-1853.31	  353.67
    119.2700	  818.00	  887.44	-1815.44	  353.80
    119.3700	  760.00	  836.55	-1822.55	  353.93
    119.4700	  751.00	  794.08	-1789.08	  354.07
    119.5700	  736.00	  758.67	-1768.67	  354.21
    119.6700	  686.00	  729.15	-1789.15	  354.36
    119.7700	  675.00	  704.53	-1775.53	  354.52
    119.8700	  653.00	  683.98	-1776.98	  354.68
    119.9700	  606.00	  666.80	-1806.80	  354.85
    120.0700	  598.00	  652.43	-1800.43	  355.02
    120.1700	  614.00	  640.40	-1772.40	  355.20
    120.2700	  568.00	  630.34	-1808.34	  355.39
    120.3700	  583.00	  621.95	-1784.95	  355.58
    120.4700	  570.00	  614.99	-1790.99	  355.78
    120.5700	  581.00	  609.27	-1774.27	  355.99
    120.6700	  570.00	  604.64	-1780.64	  356.20
    120.7700	  606.00	  600.98	-1740.98	  356.42
    120.8700	  565.00	  598.20	-1779.20	  356.64
    120.9700	  547.00	  596.21	-1795.21	  356.88
    121.0700	  592.00	  594.97	-1748.97	  357.12
    121.1700	  567.00	  594.42	-1773.42	  357.36
    121.2700	  554.00	  594.50	-1786.50	  357.61
    121.3700	  590.00	  595.18	-1751.18	  357.87
    121.4700	  570.00	  596.40	-1772.40	  358.14
    121.5700	  557.00	  598.11	-1787.11	  358.41
    121.6700	  578.00	  600.26	-1768.26	  358.70
    121.7700	  586.00	  602.77	-1762.77	  358.98
    121.8700	  607.00	  605.59	-1744.59	  359.28
    121.9700	  622.00	  608.60	-1732.60	  359.58
    122.0700	  638.00	  611.77	-1719.77	  359.89
    122.1700	  649.00	  614.96	-1711.96	  360.21
    122.2700	  581.00	  618.09	-1783.09	  360.53
    122.3700	  622.00	  621.05	-1745.05	  360.87
    122.4700	  647.00	  623.74	-1722.74	  361.21
    122.5700	  603.00	  626.05	-1769.05	  361.55
    122.6700	  611.00	  627.89	-1762.89	  361.91
    122.7700	  681.00	  629.21	-1694.21	  362.27
    122.8700	  641.00	  629.94	-1734.94	  362.64
    122.9700	  642.00	  630.05	-1734.05	  363.02
    123.0700	  656.00	  629.55	-1719.55	  363.41
    123.1700	  687.00	  628.47	-1687.47	  363.80
    123.2700	  664.00	  626.83	-1708.83	  364.20
    123.3700	  666.00	  624.71	-1704.71	  364.62
    123.4700	  649.00	  622.17	-1719.17	  365.03
    123.5700	  646.00	  619.29	-1719.29	  365.46
    123.6700	  613.00	  616.13	-1749.13	  365.90
    123.7700	  620.00	  612.78	-1738.78	  366.34
    123.8700	  630.00	  609.31	-1725.31	  366.79
    123.9700	  614.00	  605.77	-1737.77	  367.26
    124.0700	  651.00	  602.25	-1697.25	  367.73
    124.1700	  547.00	  598.78	-1797.78	  368.20
    124.2700	  617.00	  595.42	-1724.42	  368.69
    124.3700	  590.00	  592.20	-1748.20	  369.19
    124.4700	  622.00	  589.16	-1713.16	  369.69
    124.5700	  592.00	  586.32	-1740.32	  370.21
    124.6700	  594.00	  583.70	-1735.70	  370.73
    124.7700	  573.00	  581.32	-1754.32	  371.26
    124.8700	  575.00	  579.18	-1750.18	  371.80
    124.9700	  608.00	  489.77	-1627.77	  372.35
    125.0700	  574.00	  490.33	-1746.00	  372.91
    125.1700	  621.00	  490.90	-1746.00	  373.48
    125.2700	  572.00	  491.47	-1746.00	  374.06
    125.3700	  580.00	  492.06	-1746.00	  374.65
    125.4700	  572.00	  492.66	-1746.00	  375.24
    125.5700	  570.00	  493.27	-1746.00	  375.85
    125.6700	  555.00	  493.88	-1746.00	  376.47
    125.7700	  549.00	  494.51	-1746.00	  377.09
    125.8700	  569.00	  495.14	-1746.00	  377.73
    125.9700	  545.00	  495.79	-1746.00	  378.38
    126.0700	  592.00	  496.45	-1746.00	  379.03
    126.1700	  552.00	  497.11	-1746.00	  379.70
    126.2700	  529.00	  497.79	-1746.00	  380.37
    126.3700	  541.00	  498.47	-1746.00	  381.06
    126.4700	  601.00	  499.17	-1746.00	  381.76
    126.5700	  574.00	  499.88	-1746.00	  382.46
    126.6700	  563.00	  500.60	-1746.00	  383.18
    126.7700	  660.00	  501.32	-1746.00	  383.91
    126.8700	  598.00	  502.06	-1746.00	  384.65
    126.9700	  616.00	  502.81	-1746.00	  385.40
    127.0700	  619.00	  503.57	-1746.00	  386.16
    127.1700	  587.00	  504.34	-1746.00	  386.93
    127.2700	  626.00	  505.12	-1746.00	  387.71
    127.3700	  604.00	  505.91	-1746.00	  388.50
    127.4700	  667.00	  506.72	-1746.00	  389.30
    127.5700	  705.00	  507.53	-1746.00	  390.12
    127.6700	  715.00	  508.36	-1746.00	  390.94
    127.7700	  733.00	  509.19	-1746.00	  391.78
    127.8700	  746.00	  510.04	-1746.00	  392.63
    127.9700	  699.00	  510.90	-1746.00	  393.49
    128.0700	  724.00	  511.77	-1746.00	  394.36
    128.1700	  741.00	  512.65	-1746.00	  395.24
    128.2700	  754.00	  513.55	-1746.00	  396.13
    128.3700	  763.00	  514.45	-1746.00	  397.04
    128.4700	  811.00	  515.37	-1746.00	  397.95
    128.5700	    0.00	  516.30	-1746.00	  398.88
    128.6700	    0.00	  517.24	-1746.00	  399.82
     12.3111	        	        	        	        	       0	(  0  0  2)	  0  1
     24.8899	        	        	        	        	       0	(  0  0  4)	  0  1
     28.3371	        	        	        	        	       0	(  1  0  0)	  0  1
     29.0339	        	        	        	        	       0	(  1  0  1)	  0  1
     31.0390	        	        	        	        	       0	(  1  0  2)	  0  1
     34.1457	        	        	        	        	       0	(  1  0  3)	  0  1
     37.7844	        	        	        	        	       0	(  0  0  6)	  0  1
     38.1208	        	        	        	        	       0	(  1  0  4)	  0  1
     42.7686	        	        	        	        	       0	(  1  0  5)	  0  1
     47.9501	        	        	        	        	       0	(  1  0  6)	  0  1
     50.2713	        	        	        	        	       0	(  1  1  0)	  0  1
     51.2005	        	        	        	        	       0	(  0  0  8)	  0  1
     51.9933	        	        	        	        	       0	(  1  1  2)	  0  1
     53.5778	        	        	        	        	       0	(  1  0  7)	  0  1
     56.9383	        	        	        	        	       0	(  1  1  4)	  0  1
     58.7671	        	        	        	        	       0	(  2  0  0)	  0  1
     59.1584	        	        	        	        	       0	(  2  0  1)	  0  1
     59.6052	        	        	        	        	       0	(  1  0  8)	  0  1
     60.3231	        	        	        	        	       0	(  2  0  2)	  0  1
     62.2352	        	        	        	        	       0	(  2  0  3)	  0  1
     64.6286	        	        	        	        	       0	(  1  1  6)	  0  1
     64.8577	        	        	        	        	       0	(  2  0  4)	  0  1
     65.4228	        	        	        	        	       0	(  0  0 10)	  0  1
     66.0181	        	        	        	        	       0	(  1  0  9)	  0  1
     68.1500	        	        	        	        	       0	(  2  0  5)	  0  1
     72.0751	        	        	        	        	       0	(  2  0  6)	  0  1
     72.8304	        	        	        	        	       0	(  1  0 10)	  0  1
     74.6604	        	        	        	        	       0	(  1  1  8)	  0  1
     76.6064	        	        	        	        	       0	(  2  0  7)	  0  1
     80.0837	        	        	        	        	       0	(  1  0 11)	  0  1
     80.8943	        	        	        	        	       0	(  0  0 12)	  0  1
     81.0047	        	        	        	        	       0	(  2  1  0)	  0  1
     81.3444	        	        	        	        	       0	(  2  1  1)	  0  1
     81.7334	        	        	        	        	       0	(  2  0  8)	  0  1
     82.3615	        	        	        	        	       0	(  2  1  2)	  0  1
     84.0517	        	        	        	        	       0	(  2  1  3)	  0  1
     86.4098	        	        	        	        	       0	(  2  1  4)	  0  1
     86.9238	        	        	        	        	       0	(  1  1 10)	  0  1
     87.4676	        	        	        	        	       0	(  2  0  9)	  0  1
     87.8528	        	        	        	        	       0	(  1  0 12)	  0  1
     89.4335	        	        	        	        	       0	(  2  1  5)	  0  1
     93.1283	        	        	        	        	       0	(  2  1  6)	  0  1
     93.8503	        	        	        	        	       0	(  2  0 10)	  0  1
     94.8907	        	        	        	        	       0	(  3  0  0)	  0  1
     95.2278	        	        	        	        	       0	(  3  0  1)	  0  1
     96.2403	        	        	        	        	       0	(  3  0  2)	  0  1
     96.2596	        	        	        	        	       0	(  1  0 13)	  0  1
     97.5136	        	        	        	        	       0	(  2  1  7)	  0  1
     97.9324	        	        	        	        	       0	(  3  0  3)	  0  1
     98.4207	        	        	        	        	       0	(  0  0 14)	  0  1
    100.3135	        	        	        	        	       0	(  3  0  4)	  0  1
    100.9666	        	        	        	        	       0	(  2  0 11)	  0  1
    101.7827	        	        	        	        	       0	(  1  1 12)	  0  1
    102.6320	        	        	        	        	       0	(  2  1  8)	  0  1
    103.4027	        	        	        	        	       0	(  3  0  5)	  0  1
    105.5041	        	        	        	        	       0	(  1  0 14)	  0  1
    107.2347	        	        	        	        	       0	(  3  0  6)	  0  1
    108.5637	        	        	        	        	       0	(  2  1  9)	  0  1
    108.9706	        	        	        	        	       0	(  2  0 12)	  0  1
    111.8710	        	        	        	        	       0	(  3  0  7)	  0  1
    115.4539	        	        	        	        	       0	(  2  1 10)	  0  1
    115.9362	        	        	        	        	       0	(  1  0 15)	  0  1
    116.6094	        	        	        	        	       0	(  2  2  0)	  0  1
    117.4191	        	        	        	        	       0	(  3  0  8)	  0  1
    118.1232	        	        	        	        	       0	(  2  2  2)	  0  1
    118.1450	        	        	        	        	       0	(  2  0 13)	  0  1
    119.8857	        	        	        	        	       0	(  0  0 16)	  0  1
    120.6070	        	        	        	        	       0	(  1  1 14)	  0  1
    122.8042	        	        	        	        	       0	(  2  2  4)	  0  1
    123.5718	        	        	        	        	       0	(  2  1 11)	  0  1
    124.0719	        	        	        	        	       0	(  3  0  9)	  0  1
    124.6712	        	        	        	        	       0	(  3  1  0)	  0  1
    125.0810	        	        	        	        	       0	(  3  1  1)	  0  1
    126.3232	        	        	        	        	       0	(  3  1  2)	  0  1
    128.2617	        	        	        	        	       0	(  1  0 16)	  0  1
    128.4392	        	        	        	        	       0	(  3  1  3)	  0  1
    129.0599	        	        	        	        	       0	(  2  0 14)	  0  1
    131.2348	        	        	        	        	       0	(  2  2  6)	  0  1
    131.5117	        	        	        	        	       0	(  3  1  4)	  0  1
    132.2020	        	        	        	        	       0	(  3  0 10)	  0  1
    133.4701	        	        	        	        	       0	(  2  1 12)	  0  1
    135.6935	        	        	        	        	       0	(  3  1  5)	  0  1
    141.2807	        	        	        	        	       0	(  3  1  6)	  0  1
    142.6625	        	        	        	        	       0	(  3  0 11)	  0  1
    143.1710	        	        	        	        	       0	(  2  0 15)	  0  1
    144.3942	        	        	        	        	       0	(  1  0 17)	  0  1
    145.4466	        	        	        	        	       0	(  2  2  8)	  0  1
    146.5980	        	        	        	        	       0	(  2  1 13)	  0  1
    148.9394	        	        	        	        	       0	(  3  1  7)	  0  1
    149.4802	        	        	        	        	       0	(  1  1 16)	  0  1
    153.8455	        	        	        	        	       0	(  0  0 18)	  0  1
    158.4885	        	        	        	        	       0	(  3  0 12)	  0  1
    158.7895	        	        	        	        	       0	(  4  0  0)	  0  1
    159.7430	        	        	        	        	       0	(  4  0  1)	  0  1
    160.8926	        	        	        	        	       0	(  3  1  8)	  0  1
    162.9084	        	        	        	        	       0	(  4  0  2)	  0  1
    169.4003	        	        	        	        	       0	(  2  0 16)	  0  1
    170.1939	        	        	        	        	       0	(  4  0  3)	  0  1
    173.6944	        	        	        	        	       0	(  2  1 14)	  0  1
