MSG Master    CELL:    5.91454   5.91454  23.23985   90.0000   90.0000  120.0000   SPGR: P 63/m m c             TEMP:    987.75
  1   1280     2.52000     0.00000    -0.12899     0.00000     0.00000    0
    99     0     2
       0.00000      10.00000
     125.00000     130.00000
 2Theta	Yobs	Ycal	Yobs-Ycal	Backg	Posr	(hkl)	K
      0.7700	    0.00	  522.06	-1830.50	  408.12
      0.8700	    0.00	  523.00	-1830.50	  409.07
      0.9700	   42.00	  523.94	-1830.50	  410.00
      1.0700	   51.00	  524.86	-1830.50	  410.92
      1.1700	   34.00	  525.77	-1830.50	  411.83
      1.2700	   46.00	  526.67	-1830.50	  412.73
      1.3700	   50.00	  527.55	-1830.50	  413.61
      1.4700	  104.00	  528.43	-1830.50	  414.49
      1.5700	  291.00	  529.29	-1830.50	  415.35
      1.6700	  410.00	  530.14	-1830.50	  416.20
      1.7700	  560.00	  530.98	-1830.50	  417.04
      1.8700	  647.00	  531.80	-1830.50	  417.87
      1.9700	  728.00	  532.62	-1830.50	  418.68
      2.0700	  733.00	  533.42	-1830.50	  419.48
      2.1700	  756.00	  534.21	-1830.50	  420.28
      2.2700	  788.00	  534.99	-1830.50	  421.06
      2.3700	  750.00	  535.76	-1830.50	  421.83
      2.4700	  697.00	  536.52	-1830.50	  422.59
      2.5700	  660.00	  537.27	-1830.50	  423.33
      2.6700	  662.00	  538.01	-1830.50	  424.07
      2.7700	  671.00	  538.73	-1830.50	  424.80
      2.8700	  658.00	  539.45	-1830.50	  425.51
      2.9700	  613.00	  540.15	-1830.50	  426.21
      3.0700	  585.00	  540.85	-1830.50	  426.91
      3.1700	  610.00	  541.53	-1830.50	  427.59
      3.2700	  644.00	  542.20	-1830.50	  428.26
      3.3700	  659.00	  542.86	-1830.50	  428.92
      3.4700	  712.00	  543.51	-1830.50	  429.58
      3.5700	  790.00	  544.15	-1830.50	  430.22
      3.6700	  852.00	  544.78	-1830.50	  430.85
      3.7700	  914.00	  545.40	-1830.50	  431.47
      3.8700	  980.00	  546.01	-1830.50	  432.08
      3.9700	 1043.00	  546.61	-1830.50	  432.68
      4.0700	 1003.00	  547.20	-1830.50	  433.27
      4.1700	 1065.00	  547.78	-1830.50	  433.85
      4.2700	 1009.00	  548.35	-1830.50	  434.42
      4.3700	 1078.00	  548.91	-1830.50	  434.98
      4.4700	 1069.00	  549.47	-1830.50	  435.53
      4.5700	  983.00	  550.01	-1830.50	  436.07
      4.6700	 1003.00	  550.54	-1830.50	  436.60
      4.7700	  931.00	  551.06	-1830.50	  437.12
      4.8700	  936.00	  551.57	-1830.50	  437.64
      4.9700	  930.00	  552.08	-1830.50	  438.14
      5.0700	  964.00	  552.57	-1830.50	  438.63
      5.1700	  936.00	  553.05	-1830.50	  439.12
      5.2700	  917.00	  553.53	-1830.50	  439.59
      5.3700	  880.00	  554.00	-1830.50	  440.06
      5.4700	  882.00	  554.45	-1830.50	  440.52
      5.5700	  851.00	  554.90	-1830.50	  440.96
      5.6700	  842.00	  555.34	-1830.50	  441.40
      5.7700	  886.00	  555.77	-1830.50	  441.83
      5.8700	  839.00	  556.19	-1830.50	  442.26
      5.9700	  801.00	  556.61	-1830.50	  442.67
      6.0700	  750.00	  557.01	-1830.50	  443.07
      6.1700	  785.00	  557.41	-1830.50	  443.47
      6.2700	  763.00	  557.79	-1830.50	  443.86
      6.3700	  718.00	  558.17	-1830.50	  444.24
      6.4700	  737.00	  558.54	-1830.50	  444.61
      6.5700	  773.00	  558.90	-1830.50	  444.97
      6.6700	  693.00	  559.26	-1830.50	  445.32
      6.7700	  726.00	  559.60	-1830.50	  445.67
      6.8700	  696.00	  559.94	-1830.50	  446.00
      6.9700	  714.00	  560.27	-1830.50	  446.33
      7.0700	  762.00	  560.59	-1830.50	  446.66
      7.1700	  710.00	  560.91	-1830.50	  446.97
      7.2700	  670.00	  561.21	-1830.50	  447.27
      7.3700	  649.00	  561.51	-1830.50	  447.57
      7.4700	  653.00	  561.80	-1830.50	  447.86
      7.5700	  632.00	  562.08	-1830.50	  448.15
      7.6700	  619.00	  562.36	-1830.50	  448.42
      7.7700	  649.00	  562.62	-1830.50	  448.69
      7.8700	  590.00	  562.88	-1830.50	  448.95
      7.9700	  628.00	  563.14	-1830.50	  449.20
      8.0700	  631.00	  563.38	-1830.50	  449.44
      8.1700	  629.00	  563.62	-1830.50	  449.68
      8.2700	  636.00	  563.85	-1830.50	  449.91
      8.3700	  607.00	  564.07	-1830.50	  450.13
      8.4700	  606.00	  564.29	-1830.50	  450.35
      8.5700	  593.00	  564.50	-1830.50	  450.56
      8.6700	  589.00	  564.70	-1830.50	  450.76
      8.7700	  582.00	  564.89	-1830.50	  450.96
      8.8700	  587.00	  565.08	-1830.50	  451.14
      8.9700	  625.00	  565.26	-1830.50	  451.32
      9.0700	  626.00	  565.44	-1830.50	  451.50
      9.1700	  628.00	  565.60	-1830.50	  451.67
      9.2700	  555.00	  565.76	-1830.50	  451.83
      9.3700	  584.00	  565.92	-1830.50	  451.98
      9.4700	  641.00	  566.07	-1830.50	  452.13
      9.5700	  576.00	  566.21	-1830.50	  452.27
      9.6700	  609.00	  566.34	-1830.50	  452.40
      9.7700	  608.00	  566.47	-1830.50	  452.53
      9.8700	  589.00	  566.59	-1830.50	  452.65
      9.9700	  612.00	  566.71	-1830.50	  452.77
     10.0700	  590.00	  567.68	-1808.18	  452.88
     10.1700	  601.00	  567.86	-1797.36	  452.98
     10.2700	  582.00	  568.06	-1816.56	  453.08
     10.3700	  610.00	  568.27	-1788.77	  453.17
     10.4700	  567.00	  568.53	-1832.03	  453.26
     10.5700	  598.00	  568.88	-1801.38	  453.33
     10.6700	  606.00	  569.41	-1793.91	  453.41
     10.7700	  584.00	  570.24	-1816.74	  453.47
     10.8700	  570.00	  571.44	-1831.94	  453.54
     10.9700	  570.00	  573.02	-1833.52	  453.59
     11.0700	  610.00	  574.95	-1795.45	  453.64
     11.1700	  570.00	  577.21	-1837.71	  453.69
     11.2700	  572.00	  579.82	-1838.32	  453.73
     11.3700	  615.00	  582.86	-1798.36	  453.76
     11.4700	  591.00	  586.45	-1825.95	  453.79
     11.5700	  576.00	  590.77	-1845.27	  453.81
     11.6700	  604.00	  596.14	-1822.64	  453.83
     11.7700	  608.00	  603.12	-1825.62	  453.84
     11.8700	  657.00	  612.60	-1786.10	  453.84
     11.9700	  624.00	  625.43	-1831.93	  453.84
     12.0700	  632.00	  640.64	-1839.14	  453.84
     12.1700	  633.00	  652.80	-1850.30	  453.83
     12.2700	  655.00	  652.17	-1827.67	  453.82
     12.3700	  619.00	  633.71	-1845.21	  453.80
     12.4700	  602.00	  608.50	-1837.00	  453.77
     12.5700	  606.00	  589.21	-1813.71	  453.74
     12.6700	  609.00	  578.58	-1800.08	  453.71
     12.7700	  550.00	  573.83	-1854.33	  453.67
     12.8700	  500.00	  571.80	-1902.30	  453.63
     12.9700	  586.00	  570.75	-1815.25	  453.58
     13.0700	  532.00	  570.08	-1868.58	  453.53
     13.1700	  547.00	  569.59	-1853.09	  453.47
     13.2700	  526.00	  569.20	-1873.70	  453.41
     13.3700	  568.00	  568.89	-1831.39	  453.34
     13.4700	  589.00	  568.63	-1810.13	  453.27
     13.5700	  556.00	  568.40	-1842.90	  453.19
     13.6700	  598.00	  568.19	-1800.69	  453.11
     13.7700	  568.00	  568.01	-1830.51	  453.03
     13.8700	  552.00	  567.83	-1846.33	  452.94
     13.9700	  531.00	  567.67	-1867.17	  452.85
     14.0700	  543.00	  567.51	-1855.01	  452.75
     14.1700	  500.00	  567.36	-1897.86	  452.65
     14.2700	  557.00	  567.21	-1840.71	  452.54
     14.3700	  548.00	  567.06	-1849.56	  452.43
     14.4700	  594.00	  566.91	-1803.41	  452.32
     14.5700	  603.00	  566.77	-1794.27	  452.20
     14.6700	  554.00	  566.62	-1843.12	  452.08
     14.7700	  554.00	  566.47	-1842.97	  451.96
     14.8700	  557.00	  566.32	-1839.82	  451.83
     14.9700	  580.00	  566.17	-1816.67	  451.70
     15.0700	  595.00	  566.02	-1801.52	  451.56
     15.1700	  549.00	  565.86	-1847.36	  451.42
     15.2700	  569.00	  565.70	-1827.20	  451.27
     15.3700	  584.00	  565.54	-1812.04	  451.13
     15.4700	  564.00	  565.38	-1831.88	  450.98
     15.5700	  572.00	  565.22	-1823.72	  450.82
     15.6700	  567.00	  565.05	-1828.55	  450.66
     15.7700	  539.00	  564.88	-1856.38	  450.50
     15.8700	  540.00	  564.71	-1855.21	  450.34
     15.9700	  588.00	  564.53	-1807.03	  450.17
     16.0700	  556.00	  564.35	-1838.85	  450.00
     16.1700	  496.00	  564.17	-1898.67	  449.82
     16.2700	  581.00	  564.01	-1813.51	  449.64
     16.3700	  601.00	  563.83	-1793.33	  449.46
     16.4700	  573.00	  563.64	-1821.14	  449.28
     16.5700	  555.00	  563.45	-1838.95	  449.09
     16.6700	  574.00	  563.25	-1819.75	  448.90
     16.7700	  539.00	  563.06	-1854.56	  448.71
     16.8700	  542.00	  562.86	-1851.36	  448.51
     16.9700	  583.00	  562.65	-1810.15	  448.31
     17.0700	  574.00	  562.45	-1818.95	  448.11
     17.1700	  549.00	  562.24	-1843.74	  447.90
     17.2700	  555.00	  562.03	-1837.53	  447.69
     17.3700	  534.00	  561.82	-1858.32	  447.48
     17.4700	  570.00	  561.60	-1822.10	  447.27
     17.5700	  533.00	  561.39	-1858.89	  447.05
     17.6700	  578.00	  561.17	-1813.67	  446.83
     17.7700	  573.00	  560.94	-1818.44	  446.61
     17.8700	  590.00	  560.72	-1801.22	  446.39
     17.9700	  550.00	  560.49	-1840.99	  446.16
     18.0700	  555.00	  560.37	-1835.87	  445.93
     18.1700	  553.00	  560.14	-1837.64	  445.70
     18.2700	  555.00	  559.90	-1835.40	  445.46
     18.3700	  554.00	  559.67	-1836.17	  445.23
     18.4700	  547.00	  559.43	-1842.93	  444.99
     18.5700	  526.00	  559.19	-1863.69	  444.75
     18.6700	  555.00	  558.95	-1834.45	  444.50
     18.7700	  563.00	  558.71	-1826.21	  444.26
     18.8700	  527.00	  558.46	-1861.96	  444.01
     18.9700	  606.00	  558.30	-1782.80	  443.76
     19.0700	  546.00	  558.06	-1842.56	  443.51
     19.1700	  529.00	  557.81	-1859.31	  443.25
     19.2700	  525.00	  557.56	-1863.06	  442.99
     19.3700	  565.00	  557.31	-1822.81	  442.74
     19.4700	  541.00	  557.05	-1846.55	  442.47
     19.5700	  575.00	  556.80	-1812.30	  442.21
     19.6700	  564.00	  556.54	-1823.04	  441.95
     19.7700	  586.00	  556.28	-1800.78	  441.68
     19.8700	  506.00	  556.02	-1880.52	  441.41
     19.9700	  541.00	  555.76	-1845.26	  441.14
     20.0700	  526.00	  555.50	-1860.00	  440.87
     20.1700	  556.00	  555.23	-1829.73	  440.60
     20.2700	  558.00	  554.97	-1827.47	  440.32
     20.3700	  528.00	  554.70	-1857.20	  440.04
     20.4700	  521.00	  554.43	-1863.93	  439.76
     20.5700	  526.00	  554.14	-1858.64	  439.48
     20.6700	  519.00	  553.87	-1865.37	  439.20
     20.7700	  552.00	  553.60	-1832.10	  438.92
     20.8700	  551.00	  553.33	-1832.83	  438.63
     20.9700	  602.00	  553.09	-1781.59	  438.35
     21.0700	  571.00	  552.82	-1812.32	  438.06
     21.1700	  519.00	  552.55	-1864.05	  437.77
     21.2700	  517.00	  552.27	-1865.77	  437.48
     21.3700	  558.00	  552.00	-1824.50	  437.18
     21.4700	  517.00	  551.73	-1865.23	  436.89
     21.5700	  538.00	  551.46	-1843.96	  436.60
     21.6700	  556.00	  551.19	-1825.69	  436.30
     21.7700	  527.00	  550.91	-1854.41	  436.00
     21.8700	  553.00	  550.64	-1828.14	  435.70
     21.9700	  543.00	  550.37	-1837.87	  435.40
     22.0700	  543.00	  550.11	-1837.61	  435.10
     22.1700	  550.00	  549.84	-1830.34	  434.80
     22.2700	  545.00	  549.58	-1835.08	  434.50
     22.3700	  534.00	  549.31	-1845.81	  434.19
     22.4700	  556.00	  549.05	-1823.55	  433.89
     22.5700	  564.00	  548.80	-1815.30	  433.58
     22.6700	  551.00	  548.55	-1828.05	  433.27
     22.7700	  550.00	  548.30	-1828.80	  432.96
     22.8700	  562.00	  548.06	-1816.56	  432.65
     22.9700	  559.00	  547.83	-1819.33	  432.34
     23.0700	  564.00	  547.62	-1814.12	  432.03
     23.1700	  549.00	  547.41	-1828.91	  431.72
     23.2700	  547.00	  547.22	-1830.72	  431.41
     23.3700	  582.00	  547.05	-1795.55	  431.09
     23.4700	  585.00	  546.92	-1792.42	  430.78
     23.5700	  504.00	  546.82	-1873.32	  430.46
     23.6700	  555.00	  546.78	-1822.28	  430.15
     23.7700	  536.00	  546.82	-1841.32	  429.83
     23.8700	  551.00	  547.16	-1826.66	  429.51
     23.9700	  558.00	  547.70	-1820.20	  429.20
     24.0700	  556.00	  548.91	-1823.41	  428.88
     24.1700	  533.00	  551.38	-1848.88	  428.56
     24.2700	  577.00	  555.91	-1809.41	  428.24
     24.3700	  611.00	  563.41	-1782.91	  427.92
     24.4700	  565.00	  574.94	-1840.44	  427.60
     24.5700	  619.00	  591.27	-1802.77	  427.28
     24.6700	  613.00	  611.00	-1828.50	  426.96
     24.7700	  616.00	  627.93	-1842.43	  426.64
     24.8700	  623.00	  631.41	-1838.91	  426.31
     24.9700	  623.00	  615.21	-1822.71	  425.99
     25.0700	  570.00	  589.39	-1849.89	  425.67
     25.1700	  613.00	  567.67	-1785.17	  425.34
     25.2700	  571.00	  554.54	-1814.04	  425.02
     25.3700	  572.00	  548.19	-1806.69	  424.70
     25.4700	  557.00	  545.38	-1818.88	  424.37
     25.5700	  558.00	  544.00	-1816.50	  424.05
     25.6700	  574.00	  543.16	-1799.66	  423.73
     25.7700	  565.00	  542.56	-1808.06	  423.40
     25.8700	  566.00	  542.11	-1806.61	  423.08
     25.9700	  585.00	  541.77	-1787.27	  422.75
     26.0700	  616.00	  541.52	-1756.02	  422.43
     26.1700	  523.00	  541.35	-1848.85	  422.10
     26.2700	  592.00	  541.26	-1779.76	  421.78
     26.3700	  540.00	  541.24	-1831.74	  421.45
     26.4700	  539.00	  541.31	-1832.81	  421.13
     26.5700	  549.00	  541.46	-1822.96	  420.80
     26.6700	  558.00	  541.73	-1814.23	  420.48
     26.7700	  540.00	  542.14	-1832.64	  420.15
     26.8700	  604.00	  542.71	-1769.21	  419.83
     26.9700	  581.00	  543.49	-1792.99	  419.50
     27.0700	  545.00	  544.56	-1830.06	  419.18
     27.1700	  568.00	  546.04	-1808.54	  418.85
     27.2700	  578.00	  548.16	-1800.66	  418.53
     27.3700	  597.00	  551.35	-1784.85	  418.20
     27.4700	  541.00	  556.51	-1846.01	  417.88
     27.5700	  584.00	  565.24	-1811.74	  417.56
     27.6700	  552.00	  580.19	-1858.69	  417.23
     27.7700	  591.00	  604.92	-1844.42	  416.91
     27.8700	  598.00	  642.91	-1875.41	  416.59
     27.9700	  675.00	  695.15	-1850.65	  416.26
     28.0700	  739.00	  756.93	-1848.43	  415.94
     28.1700	  876.00	  814.57	-1769.07	  415.62
     28.2700	  982.00	  845.51	-1694.01	  415.30
     28.3700	  945.00	  831.56	-1717.06	  414.98
     28.4700	  830.00	  787.63	-1788.13	  414.66
     28.5700	  659.00	  751.24	-1922.74	  414.34
     28.6700	  694.00	  743.95	-1880.45	  414.02
     28.7700	  740.00	  764.74	-1855.24	  413.70
     28.8700	  770.00	  795.70	-1856.20	  413.38
     28.9700	  852.00	  808.42	-1786.92	  413.06
     29.0700	  800.00	  779.55	-1810.05	  412.74
     29.1700	  719.00	  717.78	-1829.28	  412.43
     29.2700	  636.00	  653.62	-1848.12	  412.11
     29.3700	  624.00	  605.15	-1811.65	  411.79
     29.4700	  604.00	  575.00	-1801.50	  411.48
     29.5700	  583.00	  558.47	-1805.97	  411.16
     29.6700	  606.00	  549.79	-1774.29	  410.85
     29.7700	  594.00	  544.96	-1781.46	  410.53
     29.8700	  603.00	  541.98	-1769.48	  410.22
     29.9700	  556.00	  540.04	-1814.54	  409.91
     30.0700	  580.00	  538.88	-1789.38	  409.60
     30.1700	  598.00	  538.59	-1771.09	  409.29
     30.2700	  591.00	  539.55	-1779.05	  408.98
     30.3700	  532.00	  542.62	-1841.12	  408.67
     30.4700	  539.00	  549.21	-1840.71	  408.36
     30.5700	  541.00	  560.97	-1850.47	  408.05
     30.6700	  561.00	  578.86	-1848.36	  407.74
     30.7700	  588.00	  601.36	-1843.86	  407.44
     30.8700	  576.00	  623.04	-1877.54	  407.13
     30.9700	  581.00	  634.42	-1883.92	  406.82
     31.0700	  597.00	  626.69	-1860.19	  406.52
     31.1700	  569.00	  602.84	-1864.34	  406.22
     31.2700	  555.00	  575.87	-1851.37	  405.92
     31.3700	  584.00	  554.72	-1801.22	  405.61
     31.4700	  531.00	  541.34	-1840.84	  405.31
     31.5700	  546.00	  534.02	-1818.52	  405.01
     31.6700	  558.00	  530.26	-1802.76	  404.72
     31.7700	  533.00	  528.23	-1825.73	  404.42
     31.8700	  579.00	  526.98	-1778.48	  404.12
     31.9700	  523.00	  526.11	-1833.61	  403.83
     32.0700	  554.00	  525.49	-1801.99	  403.53
     32.1700	  532.00	  525.04	-1823.54	  403.24
     32.2700	  576.00	  524.75	-1779.25	  402.95
     32.3700	  491.00	  524.61	-1864.11	  402.65
     32.4700	  528.00	  524.61	-1827.11	  402.36
     32.5700	  578.00	  524.77	-1777.27	  402.07
     32.6700	  526.00	  525.11	-1829.60	  401.79
     32.7700	  533.00	  525.66	-1823.16	  401.50
     32.8700	  534.00	  526.50	-1823.00	  401.21
     32.9700	  527.00	  527.70	-1831.20	  400.93
     33.0700	  564.00	  529.44	-1795.94	  400.64
     33.1700	  557.00	  532.07	-1805.57	  400.36
     33.2700	  551.00	  536.38	-1815.88	  400.08
     33.3700	  560.00	  544.14	-1814.64	  399.80
     33.4700	  574.00	  558.95	-1815.45	  399.52
     33.5700	  563.00	  587.02	-1854.52	  399.24
     33.6700	  602.00	  636.51	-1865.01	  398.96
     33.7700	  726.00	  713.56	-1818.06	  398.69
     33.8700	  916.00	  814.03	-1728.53	  398.41
     33.9700	  937.00	  916.11	-1809.61	  398.14
     34.0700	 1110.00	  980.02	-1700.52	  397.87
     34.1700	 1096.00	  965.26	-1699.76	  397.60
     34.2700	  956.00	  874.35	-1748.85	  397.33
     34.3700	  739.00	  758.58	-1850.08	  397.06
     34.4700	  690.00	  661.20	-1801.70	  396.79
     34.5700	  582.00	  596.49	-1844.99	  396.53
     34.6700	  500.00	  560.21	-1890.71	  396.26
     34.7700	  554.00	  541.88	-1818.38	  396.00
     34.8700	  549.00	  532.61	-1814.11	  395.74
     34.9700	  516.00	  527.35	-1841.85	  395.48
     35.0700	  533.00	  523.85	-1821.35	  395.22
     35.1700	  495.00	  521.27	-1856.77	  394.96
     35.2700	  520.00	  519.24	-1829.74	  394.70
     35.3700	  519.00	  517.61	-1829.11	  394.45
     35.4700	  547.00	  516.25	-1799.75	  394.20
     35.5700	  512.00	  515.10	-1833.60	  393.94
     35.6700	  538.00	  514.11	-1806.61	  393.69
     35.7700	  521.00	  513.25	-1822.75	  393.44
     35.8700	  489.00	  512.50	-1854.00	  393.20
     35.9700	  554.00	  511.82	-1788.32	  392.95
     36.0700	  514.00	  511.70	-1828.20	  392.70
     36.1700	  508.00	  511.15	-1833.65	  392.46
     36.2700	  528.00	  510.66	-1813.16	  392.22
     36.3700	  464.00	  510.20	-1876.70	  391.98
     36.4700	  476.00	  509.79	-1864.29	  391.74
     36.5700	  530.00	  509.41	-1809.91	  391.50
     36.6700	  498.00	  509.07	-1841.57	  391.26
     36.7700	  543.00	  508.76	-1796.26	  391.03
     36.8700	  483.00	  508.51	-1856.01	  390.79
     36.9700	  484.00	  508.33	-1854.83	  390.56
     37.0700	  506.00	  508.30	-1832.80	  390.33
     37.1700	  514.00	  508.57	-1825.07	  390.10
     37.2700	  505.00	  509.43	-1834.93	  389.88
     37.3700	  491.00	  511.23	-1850.73	  389.65
     37.4700	  552.00	  514.20	-1792.70	  389.43
     37.5700	  482.00	  518.11	-1866.61	  389.20
     37.6700	  530.00	  522.02	-1822.52	  388.98
     37.7700	  511.00	  524.39	-1843.89	  388.76
     37.8700	  491.00	  524.04	-1863.54	  388.54
     37.9700	  517.00	  521.41	-1834.91	  388.33
     38.0700	  538.00	  517.86	-1810.36	  388.11
     38.1700	  512.00	  514.21	-1832.71	  387.90
     38.2700	  506.00	  510.86	-1835.36	  387.69
     38.3700	  499.00	  508.19	-1839.69	  387.48
     38.4700	  533.00	  506.28	-1803.78	  387.27
     38.5700	  503.00	  505.01	-1832.51	  387.06
     38.6700	  540.00	  504.20	-1794.70	  386.86
     38.7700	  494.00	  503.57	-1840.07	  386.65
     38.8700	  487.00	  503.19	-1846.69	  386.45
     38.9700	  468.00	  502.89	-1865.39	  386.25
     39.0700	  465.00	  502.62	-1868.12	  386.05
     39.1700	  456.00	  502.38	-1876.88	  385.85
     39.2700	  527.00	  502.07	-1805.57	  385.66
     39.3700	  514.00	  501.86	-1818.36	  385.46
     39.4700	  489.00	  501.67	-1843.17	  385.27
     39.5700	  473.00	  501.48	-1858.98	  385.08
     39.6700	  473.00	  501.43	-1858.93	  384.89
     39.7700	  500.00	  501.26	-1831.76	  384.70
     39.8700	  497.00	  501.10	-1834.60	  384.52
     39.9700	  494.00	  500.96	-1837.46	  384.33
     40.0700	  491.00	  500.82	-1840.32	  384.15
     40.1700	  513.00	  500.69	-1818.19	  383.97
     40.2700	  506.00	  500.57	-1825.07	  383.79
     40.3700	  469.00	  500.47	-1861.97	  383.61
     40.4700	  518.00	  500.38	-1812.88	  383.44
     40.5700	  455.00	  500.30	-1875.80	  383.26
     40.6700	  528.00	  500.23	-1802.73	  383.09
     40.7700	  461.00	  500.19	-1869.69	  382.92
     40.8700	  495.00	  500.17	-1835.67	  382.75
     40.9700	  493.00	  500.17	-1837.67	  382.58
     41.0700	  502.00	  500.21	-1828.71	  382.42
     41.1700	  501.00	  500.28	-1829.78	  382.25
     41.2700	  519.00	  500.36	-1811.86	  382.09
     41.3700	  493.00	  500.54	-1838.04	  381.93
     41.4700	  504.00	  500.80	-1827.30	  381.77
     41.5700	  497.00	  501.16	-1834.66	  381.61
     41.6700	  502.00	  502.09	-1830.59	  381.46
     41.7700	  504.00	  502.84	-1829.34	  381.30
     41.8700	  463.00	  504.04	-1871.54	  381.15
     41.9700	  522.00	  506.21	-1814.71	  381.00
     42.0700	  502.00	  510.41	-1838.91	  380.85
     42.1700	  516.00	  518.59	-1833.09	  380.70
     42.2700	  541.00	  533.46	-1822.96	  380.56
     42.3700	  538.00	  557.56	-1850.06	  380.42
     42.4700	  541.00	  590.83	-1880.33	  380.27
     42.5700	  591.00	  628.40	-1867.90	  380.13
     42.6700	  603.00	  659.32	-1886.82	  380.00
     42.7700	  631.00	  669.97	-1869.47	  379.86
     42.8700	  591.00	  653.43	-1892.93	  379.72
     42.9700	  542.00	  618.39	-1906.89	  379.59
     43.0700	  535.00	  579.99	-1875.49	  379.46
     43.1700	  503.00	  548.34	-1875.84	  379.33
     43.2700	  505.00	  526.78	-1852.28	  379.20
     43.3700	  505.00	  514.13	-1839.63	  379.07
     43.4700	  508.00	  507.47	-1829.97	  378.95
     43.5700	  481.00	  504.08	-1853.58	  378.83
     43.6700	  502.00	  502.26	-1830.76	  378.71
     43.7700	  432.00	  501.31	-1899.81	  378.59
     43.8700	  502.00	  500.53	-1829.03	  378.47
     43.9700	  499.00	  499.94	-1831.44	  378.35
     44.0700	  469.00	  499.48	-1860.98	  378.24
     44.1700	  512.00	  499.15	-1817.65	  378.12
     44.2700	  517.00	  498.86	-1812.36	  378.01
     44.3700	  492.00	  498.63	-1837.13	  377.90
     44.4700	  537.00	  498.45	-1791.95	  377.80
     44.5700	  532.00	  498.18	-1796.68	  377.69
     44.6700	  521.00	  498.07	-1807.57	  377.59
     44.7700	  507.00	  498.00	-1821.50	  377.48
     44.8700	  505.00	  497.95	-1823.45	  377.38
     44.9700	  509.00	  497.93	-1819.43	  377.29
     45.0700	  528.00	  497.93	-1800.43	  377.19
     45.1700	  507.00	  497.95	-1821.45	  377.09
     45.2700	  529.00	  498.18	-1799.68	  377.00
     45.3700	  484.00	  498.25	-1844.75	  376.91
     45.4700	  560.00	  498.34	-1768.84	  376.82
     45.5700	  517.00	  498.45	-1811.95	  376.73
     45.6700	  482.00	  498.58	-1847.08	  376.64
     45.7700	  530.00	  498.75	-1799.25	  376.55
     45.8700	  487.00	  498.93	-1842.43	  376.47
     45.9700	  520.00	  499.15	-1809.65	  376.39
     46.0700	  493.00	  499.39	-1836.90	  376.31
     46.1700	  485.00	  499.68	-1845.18	  376.23
     46.2700	  523.00	  500.00	-1807.50	  376.15
     46.3700	  533.00	  500.36	-1797.86	  376.08
     46.4700	  486.00	  500.77	-1845.27	  376.00
     46.5700	  504.00	  501.24	-1827.74	  375.93
     46.6700	  469.00	  501.79	-1863.29	  375.86
     46.7700	  501.00	  502.41	-1831.91	  375.79
     46.8700	  523.00	  503.16	-1810.66	  375.73
     46.9700	  523.00	  504.09	-1811.59	  375.66
     47.0700	  473.00	  505.34	-1862.84	  375.60
     47.1700	  478.00	  507.22	-1859.72	  375.54
     47.2700	  535.00	  510.34	-1805.84	  375.48
     47.3700	  475.00	  515.66	-1871.16	  375.42
     47.4700	  532.00	  524.11	-1822.61	  375.36
     47.5700	  541.00	  536.53	-1826.03	  375.31
     47.6700	  565.00	  552.54	-1818.04	  375.25
     47.7700	  513.00	  569.81	-1887.31	  375.20
     47.8700	  627.00	  583.92	-1787.42	  375.15
     47.9700	  603.00	  589.72	-1817.22	  375.10
     48.0700	  565.00	  584.93	-1850.43	  375.05
     48.1700	  510.00	  572.66	-1893.16	  375.01
     48.2700	  541.00	  558.50	-1848.00	  374.97
     48.3700	  558.00	  546.66	-1819.16	  374.92
     48.4700	  565.00	  539.05	-1804.55	  374.88
     48.5700	  553.00	  535.80	-1813.30	  374.84
     48.6700	  513.00	  536.11	-1853.61	  374.81
     48.7700	  509.00	  539.03	-1860.53	  374.77
     48.8700	  557.00	  543.96	-1817.46	  374.74
     48.9700	  545.00	  550.78	-1836.28	  374.70
     49.0700	  537.00	  559.91	-1853.41	  374.67
     49.1700	  560.00	  572.59	-1843.09	  374.64
     49.2700	  588.00	  591.51	-1834.01	  374.61
     49.3700	  672.00	  622.01	-1780.51	  374.59
     49.4700	  714.00	  673.57	-1790.07	  374.56
     49.5700	  777.00	  760.77	-1814.27	  374.54
     49.6700	  887.00	  902.25	-1845.75	  374.52
     49.7700	 1019.00	 1114.31	-1925.81	  374.50
     49.8700	 1292.00	 1403.01	-1941.51	  374.48
     49.9700	 1696.00	 1750.96	-1885.46	  374.46
     50.0700	 2045.00	 2106.61	-1892.11	  374.45
     50.1700	 2526.00	 2381.15	-1685.65	  374.43
     50.2700	 2455.00	 2473.97	-1849.47	  374.42
     50.3700	 2446.00	 2340.96	-1725.46	  374.41
     50.4700	 2093.00	 2040.48	-1777.98	  374.40
     50.5700	 1591.00	 1679.53	-1919.03	  374.39
     50.6700	 1222.00	 1342.94	-1951.44	  374.39
     50.7700	  919.00	 1074.93	-1986.43	  374.38
     50.8700	  724.00	  887.00	-1993.50	  374.38
     50.9700	  664.00	  769.15	-1935.65	  374.38
     51.0700	  668.00	  701.40	-1863.90	  374.38
     51.1700	  581.00	  662.91	-1912.41	  374.38
     51.2700	  599.00	  637.40	-1868.90	  374.38
     51.3700	  578.00	  615.87	-1868.37	  374.38
     51.4700	  625.00	  595.88	-1801.38	  374.39
     51.5700	  544.00	  578.13	-1864.63	  374.40
     51.6700	  581.00	  563.64	-1813.14	  374.40
     51.7700	  629.00	  552.79	-1754.29	  374.41
     51.8700	  554.00	  545.23	-1821.73	  374.42
     51.9700	  575.00	  540.24	-1795.74	  374.44
     52.0700	  556.00	  537.05	-1811.55	  374.45
     52.1700	  511.00	  535.13	-1854.63	  374.47
     52.2700	  532.00	  534.18	-1832.68	  374.48
     52.3700	  538.00	  534.36	-1826.86	  374.50
     52.4700	  546.00	  535.40	-1819.90	  374.52
     52.5700	  568.00	  538.06	-1800.56	  374.54
     52.6700	  552.00	  543.67	-1822.17	  374.56
     52.7700	  625.00	  554.91	-1760.41	  374.59
     52.8700	  656.00	  576.51	-1751.01	  374.61
     52.9700	  647.00	  615.46	-1798.96	  374.64
     53.0700	  745.00	  679.65	-1765.15	  374.67
     53.1700	  829.00	  774.51	-1776.01	  374.69
     53.2700	  975.00	  897.99	-1753.49	  374.73
     53.3700	 1045.00	 1035.67	-1821.17	  374.76
     53.4700	 1145.00	 1158.94	-1844.44	  374.79
     53.5700	 1160.00	 1229.76	-1900.26	  374.82
     53.6700	 1167.00	 1219.27	-1882.77	  374.86
     53.7700	 1071.00	 1131.55	-1891.05	  374.90
     53.8700	  939.00	 1000.67	-1892.17	  374.93
     53.9700	  830.00	  864.14	-1864.64	  374.97
     54.0700	  736.00	  747.23	-1841.73	  375.01
     54.1700	  617.00	  660.77	-1874.27	  375.06
     54.2700	  603.00	  604.29	-1831.79	  375.10
     54.3700	  609.00	  571.16	-1792.66	  375.14
     54.4700	  548.00	  553.36	-1835.86	  375.19
     54.5700	  546.00	  544.37	-1828.87	  375.24
     54.6700	  528.00	  540.09	-1842.59	  375.28
     54.7700	  529.00	  538.22	-1839.72	  375.33
     54.8700	  524.00	  537.71	-1844.21	  375.38
     54.9700	  522.00	  538.13	-1846.63	  375.44
     55.0700	  533.00	  539.31	-1836.81	  375.49
     55.1700	  560.00	  541.21	-1811.71	  375.54
     55.2700	  556.00	  543.88	-1818.38	  375.60
     55.3700	  525.00	  547.41	-1852.91	  375.65
     55.4700	  512.00	  551.93	-1870.43	  375.71
     55.5700	  558.00	  557.71	-1830.21	  375.77
     55.6700	  545.00	  565.32	-1850.82	  375.83
     55.7700	  623.00	  575.83	-1783.33	  375.89
     55.8700	  580.00	  591.54	-1842.04	  375.95
     55.9700	  605.00	  616.92	-1842.42	  376.02
     56.0700	  597.00	  660.05	-1893.55	  376.08
     56.1700	  692.00	  733.70	-1872.20	  376.15
     56.2700	  777.00	  855.09	-1908.59	  376.21
     56.3700	  950.00	 1042.58	-1923.08	  376.28
     56.4700	 1187.00	 1308.61	-1952.11	  376.35
     56.5700	 1525.00	 1649.63	-1955.13	  376.42
     56.6700	 1971.00	 2036.79	-1896.29	  376.49
     56.7700	 2278.00	 2409.52	-1962.02	  376.56
     56.8700	 2549.00	 2679.22	-1960.72	  376.63
     56.9700	 2755.00	 2757.35	-1832.85	  376.71
     57.0700	 2516.00	 2612.99	-1927.49	  376.78
     57.1700	 2272.00	 2300.88	-1859.38	  376.86
     57.2700	 1863.00	 1916.39	-1883.89	  376.94
     57.3700	 1535.00	 1541.37	-1836.87	  377.01
     57.4700	 1233.00	 1225.92	-1823.42	  377.09
     57.5700	  966.00	  990.04	-1854.54	  377.17
     57.6700	  814.00	  831.06	-1847.56	  377.25
     57.7700	  781.00	  734.27	-1783.77	  377.33
     57.8700	  723.00	  682.06	-1789.56	  377.42
     57.9700	  666.00	  660.16	-1824.66	  377.50
     58.0700	  617.00	  659.74	-1873.24	  377.59
     58.1700	  658.00	  676.94	-1849.44	  377.67
     58.2700	  721.00	  711.06	-1820.56	  377.76
     58.3700	  821.00	  762.58	-1772.08	  377.84
     58.4700	  888.00	  831.24	-1773.74	  377.93
     58.5700	 1022.00	  914.30	-1722.80	  378.02
     58.6700	 1155.00	 1005.17	-1680.67	  378.11
     58.7700	 1326.00	 1094.00	-1598.50	  378.20
     58.8700	 1513.00	 1171.54	-1489.04	  378.29
     58.9700	 1572.00	 1232.24	-1490.74	  378.39
     59.0700	 1697.00	 1271.11	-1404.61	  378.48
     59.1700	 1711.00	 1281.89	-1401.39	  378.57
     59.2700	 1567.00	 1263.59	-1527.09	  378.67
     59.3700	 1400.00	 1226.56	-1657.06	  378.76
     59.4700	 1331.00	 1186.65	-1686.15	  378.86
     59.5700	 1212.00	 1156.20	-1774.70	  378.96
     59.6700	 1101.00	 1142.39	-1871.89	  379.05
     59.7700	 1123.00	 1151.10	-1858.60	  379.15
     59.8700	 1234.00	 1188.31	-1784.81	  379.25
     59.9700	 1268.00	 1255.22	-1817.72	  379.35
     60.0700	 1401.00	 1342.64	-1772.14	  379.45
     60.1700	 1487.00	 1429.10	-1772.60	  379.55
     60.2700	 1602.00	 1483.57	-1712.07	  379.66
     60.3700	 1577.00	 1477.19	-1730.69	  379.76
     60.4700	 1473.00	 1401.85	-1759.35	  379.86
     60.5700	 1326.00	 1275.71	-1780.21	  379.97
     60.6700	 1163.00	 1128.18	-1795.68	  380.07
     60.7700	  967.00	  984.64	-1848.14	  380.18
     60.8700	  837.00	  861.62	-1855.12	  380.28
     60.9700	  733.00	  766.89	-1864.39	  380.39
     61.0700	  676.00	  701.67	-1856.17	  380.50
     61.1700	  606.00	  663.40	-1887.90	  380.61
     61.2700	  676.00	  648.81	-1803.31	  380.72
     61.3700	  668.00	  656.27	-1818.77	  380.82
     61.4700	  664.00	  686.76	-1853.26	  380.93
     61.5700	  731.00	  743.39	-1842.89	  381.04
     61.6700	  752.00	  829.47	-1907.97	  381.16
     61.7700	  890.00	  945.67	-1886.17	  381.27
     61.8700	 1014.00	 1086.85	-1903.35	  381.38
     61.9700	 1150.00	 1239.73	-1920.23	  381.49
     62.0700	 1314.00	 1381.64	-1898.14	  381.61
     62.1700	 1432.00	 1482.18	-1880.68	  381.72
     62.2700	 1428.00	 1512.45	-1914.95	  381.83
     62.3700	 1352.00	 1461.79	-1940.29	  381.95
     62.4700	 1251.00	 1346.18	-1925.68	  382.06
     62.5700	 1150.00	 1196.32	-1876.82	  382.18
     62.6700	  974.00	 1041.29	-1897.79	  382.29
     62.7700	  781.00	  901.42	-1950.92	  382.41
     62.8700	  734.00	  787.66	-1884.16	  382.53
     62.9700	  615.00	  702.91	-1918.41	  382.65
     63.0700	  615.00	  644.50	-1860.00	  382.76
     63.1700	  608.00	  606.88	-1829.38	  382.88
     63.2700	  537.00	  584.01	-1877.51	  383.00
     63.3700	  577.00	  570.89	-1824.39	  383.12
     63.4700	  566.00	  564.06	-1828.56	  383.24
     63.5700	  587.00	  561.71	-1805.21	  383.36
     63.6700	  583.00	  563.45	-1810.95	  383.48
     63.7700	  593.00	  570.03	-1807.53	  383.60
     63.8700	  584.00	  583.14	-1829.64	  383.72
     63.9700	  610.00	  605.01	-1825.51	  383.84
     64.0700	  693.00	  637.83	-1775.33	  383.96
     64.1700	  689.00	  682.80	-1824.30	  384.08
     64.2700	  796.00	  739.18	-1773.68	  384.20
     64.3700	  886.00	  803.30	-1747.80	  384.33
     64.4700	  908.00	  868.06	-1790.56	  384.45
     64.5700	 1023.00	  923.23	-1730.73	  384.57
     64.6700	 1053.00	  957.22	-1734.72	  384.69
     64.7700	 1040.00	  963.45	-1753.95	  384.82
     64.8700	 1007.00	  941.44	-1764.94	  384.94
     64.9700	  943.00	  897.74	-1785.24	  385.06
     65.0700	  901.00	  842.19	-1771.69	  385.19
     65.1700	  871.00	  784.65	-1744.15	  385.31
     65.2700	  771.00	  732.30	-1791.80	  385.44
     65.3700	  677.00	  688.64	-1842.14	  385.56
     65.4700	  709.00	  654.03	-1775.53	  385.68
     65.5700	  618.00	  626.97	-1839.47	  385.81
     65.6700	  627.00	  605.76	-1809.26	  385.93
     65.7700	  539.00	  589.14	-1880.64	  386.06
     65.8700	  550.00	  576.29	-1856.79	  386.18
     65.9700	  515.00	  566.70	-1882.20	  386.31
     66.0700	  541.00	  559.95	-1849.45	  386.43
     66.1700	  539.00	  555.71	-1847.21	  386.56
     66.2700	  543.00	  553.62	-1841.12	  386.68
     66.3700	  489.00	  553.34	-1894.84	  386.81
     66.4700	  520.00	  554.60	-1865.10	  386.94
     66.5700	  525.00	  557.24	-1862.74	  387.06
     66.6700	  573.00	  561.38	-1818.88	  387.19
     66.7700	  570.00	  567.59	-1828.09	  387.31
     66.8700	  602.00	  576.72	-1805.22	  387.44
     66.9700	  604.00	  590.92	-1817.42	  387.56
     67.0700	  574.00	  613.64	-1870.14	  387.69
     67.1700	  616.00	  650.25	-1864.75	  387.81
     67.2700	  701.00	  708.20	-1837.70	  387.94
     67.3700	  742.00	  796.58	-1885.08	  388.06
     67.4700	  903.00	  924.61	-1852.11	  388.19
     67.5700	 1133.00	 1099.16	-1796.66	  388.31
     67.6700	 1383.00	 1320.68	-1768.18	  388.44
     67.7700	 1608.00	 1580.80	-1803.30	  388.56
     67.8700	 1906.00	 1858.74	-1783.24	  388.69
     67.9700	 2116.00	 2121.07	-1835.57	  388.81
     68.0700	 2431.00	 2323.94	-1723.44	  388.94
     68.1700	 2494.00	 2422.47	-1758.97	  389.06
     68.2700	 2335.00	 2390.32	-1885.82	  389.19
     68.3700	 2209.00	 2236.43	-1857.93	  389.31
     68.4700	 2051.00	 1999.01	-1778.51	  389.44
     68.5700	 1767.00	 1724.44	-1787.94	  389.56
     68.6700	 1426.00	 1452.09	-1856.59	  389.68
     68.7700	 1216.00	 1209.33	-1823.83	  389.81
     68.8700	  903.00	 1010.58	-1938.08	  389.93
     68.9700	  822.00	  859.68	-1868.18	  390.05
     69.0700	  698.00	  752.50	-1885.00	  390.18
     69.1700	  670.00	  680.57	-1841.07	  390.30
     69.2700	  613.00	  634.52	-1852.02	  390.42
     69.3700	  585.00	  605.92	-1851.42	  390.54
     69.4700	  582.00	  588.34	-1836.84	  390.66
     69.5700	  558.00	  577.36	-1849.86	  390.79
     69.6700	  566.00	  570.26	-1834.76	  390.91
     69.7700	  588.00	  565.48	-1807.98	  391.03
     69.8700	  578.00	  562.17	-1814.67	  391.15
     69.9700	  593.00	  559.89	-1797.39	  391.27
     70.0700	  527.00	  558.41	-1861.91	  391.39
     70.1700	  544.00	  557.65	-1844.15	  391.51
     70.2700	  566.00	  557.56	-1822.06	  391.63
     70.3700	  556.00	  558.20	-1832.70	  391.75
     70.4700	  541.00	  559.66	-1849.16	  391.86
     70.5700	  600.00	  562.22	-1792.72	  391.98
     70.6700	  539.00	  566.41	-1857.91	  392.10
     70.7700	  539.00	  573.22	-1864.72	  392.22
     70.8700	  585.00	  584.31	-1829.81	  392.33
     70.9700	  551.00	  602.30	-1881.80	  392.45
     71.0700	  580.00	  631.05	-1881.55	  392.57
     71.1700	  676.00	  675.67	-1830.17	  392.68
     71.2700	  714.00	  742.09	-1858.59	  392.80
     71.3700	  795.00	  836.10	-1871.60	  392.91
     71.4700	  980.00	  961.75	-1812.25	  393.02
     71.5700	 1121.00	 1120.14	-1829.64	  393.14
     71.6700	 1287.00	 1304.16	-1847.66	  393.25
     71.7700	 1455.00	 1502.16	-1877.66	  393.36
     71.8700	 1607.00	 1694.14	-1917.64	  393.48
     71.9700	 1862.00	 1853.60	-1822.10	  393.59
     72.0700	 1874.00	 1951.70	-1908.20	  393.70
     72.1700	 1968.00	 1966.73	-1829.23	  393.81
     72.2700	 1862.00	 1895.18	-1863.68	  393.92
     72.3700	 1752.00	 1753.53	-1832.03	  394.03
     72.4700	 1629.00	 1570.49	-1771.99	  394.14
     72.5700	 1497.00	 1373.54	-1707.04	  394.24
     72.6700	 1364.00	 1184.77	-1651.27	  394.35
     72.7700	 1191.00	 1018.84	-1658.34	  394.46
     72.8700	  998.00	  883.12	-1715.62	  394.56
     72.9700	  952.00	  778.78	-1657.28	  394.67
     73.0700	  854.00	  702.75	-1679.25	  394.77
     73.1700	  803.00	  649.77	-1677.27	  394.88
     73.2700	  734.00	  614.05	-1710.55	  394.98
     73.3700	  690.00	  590.45	-1730.95	  395.08
     73.4700	  671.00	  574.94	-1734.44	  395.19
     73.5700	  648.00	  564.65	-1747.15	  395.29
     73.6700	  657.00	  557.77	-1731.27	  395.39
     73.7700	  584.00	  553.19	-1799.69	  395.49
     73.8700	  556.00	  550.28	-1824.78	  395.59
     73.9700	  572.00	  548.70	-1807.20	  395.69
     74.0700	  553.00	  548.22	-1825.72	  395.78
     74.1700	  610.00	  548.67	-1769.17	  395.88
     74.2700	  565.00	  549.84	-1815.34	  395.98
     74.3700	  599.00	  551.46	-1782.96	  396.07
     74.4700	  629.00	  553.19	-1754.69	  396.17
     74.5700	  620.00	  554.61	-1765.11	  396.26
     74.6700	  638.00	  555.30	-1747.80	  396.36
     74.7700	  612.00	  554.94	-1773.44	  396.45
     74.8700	  595.00	  553.47	-1788.97	  396.54
     74.9700	  541.00	  551.12	-1840.62	  396.63
     75.0700	  568.00	  548.28	-1810.78	  396.72
     75.1700	  581.00	  545.45	-1794.95	  396.81
     75.2700	  584.00	  543.06	-1789.56	  396.90
     75.3700	  612.00	  541.56	-1760.06	  396.98
     75.4700	  565.00	  541.49	-1806.99	  397.07
     75.5700	  555.00	  543.28	-1818.78	  397.16
     75.6700	  579.00	  547.33	-1798.83	  397.24
     75.7700	  556.00	  554.40	-1828.90	  397.32
     75.8700	  561.00	  564.84	-1834.34	  397.41
     75.9700	  560.00	  578.94	-1849.44	  397.49
     76.0700	  630.00	  596.61	-1797.11	  397.57
     76.1700	  652.00	  617.25	-1795.75	  397.65
     76.2700	  629.00	  639.63	-1841.13	  397.73
     76.3700	  662.00	  661.84	-1830.34	  397.81
     76.4700	  652.00	  681.35	-1859.85	  397.89
     76.5700	  703.00	  695.32	-1822.82	  397.96
     76.6700	  725.00	  701.22	-1806.72	  398.04
     76.7700	  715.00	  697.80	-1813.30	  398.11
     76.8700	  688.00	  685.75	-1828.25	  398.18
     76.9700	  621.00	  667.33	-1876.83	  398.26
     77.0700	  641.00	  645.19	-1834.69	  398.33
     77.1700	  576.00	  622.34	-1876.84	  398.40
     77.2700	  575.00	  600.66	-1856.16	  398.47
     77.3700	  556.00	  581.58	-1856.08	  398.54
     77.4700	  517.00	  565.81	-1879.31	  398.60
     77.5700	  528.00	  553.52	-1856.02	  398.67
     77.6700	  457.00	  544.43	-1917.93	  398.73
     77.7700	  530.00	  538.01	-1838.51	  398.80
     77.8700	  533.00	  533.67	-1831.17	  398.86
     77.9700	  543.00	  530.82	-1818.32	  398.92
     78.0700	  534.00	  529.00	-1825.50	  398.98
     78.1700	  552.00	  527.86	-1806.36	  399.04
     78.2700	  489.00	  527.14	-1868.64	  399.10
     78.3700	  518.00	  526.69	-1839.19	  399.16
     78.4700	  527.00	  526.42	-1829.92	  399.21
     78.5700	  525.00	  526.27	-1831.77	  399.27
     78.6700	  571.00	  526.22	-1785.72	  399.32
     78.7700	  519.00	  526.26	-1837.76	  399.38
     78.8700	  502.00	  526.41	-1854.91	  399.43
     78.9700	  546.00	  526.69	-1811.19	  399.48
     79.0700	  469.00	  527.11	-1888.61	  399.53
     79.1700	  534.00	  527.74	-1824.24	  399.58
     79.2700	  545.00	  528.62	-1814.12	  399.62
     79.3700	  515.00	  529.64	-1845.14	  399.67
     79.4700	  548.00	  531.24	-1813.74	  399.71
     79.5700	  520.00	  533.31	-1843.81	  399.76
     79.6700	  515.00	  535.96	-1851.46	  399.80
     79.7700	  500.00	  539.27	-1869.77	  399.84
     79.8700	  491.00	  543.39	-1882.89	  399.88
     79.9700	  524.00	  548.46	-1854.96	  399.92
     80.0700	  511.00	  554.69	-1874.19	  399.96
     80.1700	  517.00	  562.29	-1875.79	  399.99
     80.2700	  531.00	  571.54	-1871.04	  400.03
     80.3700	  557.00	  582.71	-1856.21	  400.06
     80.4700	  558.00	  596.02	-1868.52	  400.09
     80.5700	  581.00	  611.54	-1861.04	  400.12
     80.6700	  573.00	  629.00	-1886.50	  400.15
     80.7700	  560.00	  647.83	-1918.33	  400.18
     80.8700	  603.00	  667.01	-1894.51	  400.21
     80.9700	  656.00	  685.21	-1859.71	  400.23
     81.0700	  720.00	  701.00	-1811.50	  400.26
     81.1700	  726.00	  713.08	-1817.58	  400.28
     81.2700	  704.00	  720.56	-1847.06	  400.30
     81.3700	  752.00	  722.93	-1801.43	  400.32
     81.4700	  749.00	  720.13	-1801.63	  400.34
     81.5700	  760.00	  712.54	-1783.04	  400.36
     81.6700	  757.00	  700.96	-1774.46	  400.38
     81.7700	  785.00	  686.29	-1731.79	  400.39
     81.8700	  753.00	  669.47	-1746.97	  400.41
     81.9700	  689.00	  651.48	-1792.98	  400.42
     82.0700	  714.00	  633.28	-1749.78	  400.43
     82.1700	  679.00	  615.89	-1767.39	  400.44
     82.2700	  629.00	  599.93	-1801.43	  400.45
     82.3700	  625.00	  585.84	-1791.34	  400.46
     82.4700	  655.00	  573.83	-1749.33	  400.46
     82.5700	  601.00	  563.92	-1793.43	  400.47
     82.6700	  616.00	  556.06	-1770.56	  400.47
     82.7700	  561.00	  550.18	-1819.68	  400.47
     82.8700	  595.00	  546.14	-1781.64	  400.47
     82.9700	  510.00	  543.80	-1864.30	  400.47
     83.0700	  531.00	  543.04	-1842.54	  400.47
     83.1700	  529.00	  543.77	-1845.27	  400.46
     83.2700	  562.00	  545.88	-1814.38	  400.46
     83.3700	  524.00	  549.24	-1855.74	  400.45
     83.4700	  522.00	  553.66	-1862.16	  400.44
     83.5700	  511.00	  558.88	-1878.38	  400.43
     83.6700	  534.00	  564.54	-1861.04	  400.42
     83.7700	  513.00	  570.17	-1887.67	  400.41
     83.8700	  587.00	  575.21	-1818.71	  400.39
     83.9700	  613.00	  579.05	-1796.55	  400.38
     84.0700	  585.00	  581.11	-1826.61	  400.36
     84.1700	  530.00	  581.04	-1881.54	  400.34
     84.2700	  618.00	  578.81	-1791.31	  400.32
     84.3700	  513.00	  574.73	-1892.23	  400.30
     84.4700	  557.00	  569.35	-1842.85	  400.28
     84.5700	  573.00	  563.25	-1820.75	  400.25
     84.6700	  556.00	  556.96	-1831.46	  400.23
     84.7700	  544.00	  550.91	-1837.41	  400.20
     84.8700	  505.00	  545.42	-1870.92	  400.17
     84.9700	  509.00	  540.68	-1862.18	  400.14
     85.0700	  515.00	  536.78	-1852.28	  400.11
     85.1700	  498.00	  533.73	-1866.23	  400.07
     85.2700	  492.00	  531.45	-1869.95	  400.04
     85.3700	  488.00	  529.85	-1872.35	  400.00
     85.4700	  512.00	  528.83	-1847.33	  399.96
     85.5700	  521.00	  528.28	-1837.78	  399.92
     85.6700	  505.00	  528.12	-1853.62	  399.88
     85.7700	  526.00	  528.30	-1832.80	  399.84
     85.8700	  460.00	  528.77	-1899.27	  399.80
     85.9700	  478.00	  529.56	-1882.06	  399.75
     86.0700	  496.00	  530.70	-1865.20	  399.70
     86.1700	  498.00	  532.26	-1864.76	  399.66
     86.2700	  529.00	  534.33	-1835.83	  399.61
     86.3700	  525.00	  537.07	-1842.57	  399.55
     86.4700	  527.00	  540.60	-1844.10	  399.50
     86.5700	  527.00	  545.10	-1848.60	  399.45
     86.6700	  530.00	  550.69	-1851.19	  399.39
     86.7700	  550.00	  557.45	-1837.95	  399.33
     86.8700	  582.00	  565.02	-1813.52	  399.27
     86.9700	  611.00	  573.84	-1793.34	  399.21
     87.0700	  620.00	  583.25	-1793.75	  399.15
     87.1700	  566.00	  592.71	-1857.21	  399.09
     87.2700	  611.00	  601.55	-1821.05	  399.02
     87.3700	  672.00	  608.98	-1767.48	  398.95
     87.4700	  650.00	  614.21	-1794.71	  398.88
     87.5700	  670.00	  616.59	-1777.09	  398.81
     87.6700	  625.00	  615.79	-1821.29	  398.74
     87.7700	  623.00	  612.00	-1819.50	  398.67
     87.8700	  582.00	  605.78	-1854.28	  398.59
     87.9700	  640.00	  598.01	-1788.51	  398.52
     88.0700	  643.00	  589.58	-1777.08	  398.44
     88.1700	  626.00	  581.36	-1785.86	  398.36
     88.2700	  600.00	  574.12	-1804.62	  398.28
     88.3700	  593.00	  568.44	-1805.94	  398.20
     88.4700	  572.00	  564.74	-1823.24	  398.11
     88.5700	  534.00	  563.23	-1859.73	  398.03
     88.6700	  568.00	  563.95	-1826.45	  397.94
     88.7700	  565.00	  566.76	-1832.26	  397.85
     88.8700	  601.00	  571.33	-1800.83	  397.76
     88.9700	  567.00	  577.22	-1840.72	  397.67
     89.0700	  616.00	  583.86	-1798.36	  397.57
     89.1700	  577.00	  590.58	-1844.08	  397.48
     89.2700	  584.00	  596.66	-1843.16	  397.38
     89.3700	  618.00	  601.35	-1813.85	  397.28
     89.4700	  664.00	  604.00	-1770.50	  397.18
     89.5700	  573.00	  604.20	-1861.70	  397.08
     89.6700	  594.00	  601.85	-1838.35	  396.98
     89.7700	  566.00	  597.24	-1861.74	  396.88
     89.8700	  595.00	  590.87	-1826.37	  396.77
     89.9700	  579.00	  583.39	-1834.89	  396.66
     90.0700	  544.00	  575.39	-1861.89	  396.55
     90.1700	  539.00	  567.41	-1858.91	  396.44
     90.2700	  533.00	  559.87	-1857.37	  396.33
     90.3700	  529.00	  553.08	-1854.58	  396.22
     90.4700	  506.00	  547.22	-1871.72	  396.10
     90.5700	  506.00	  542.36	-1866.86	  395.98
     90.6700	  519.00	  538.50	-1850.00	  395.87
     90.7700	  534.00	  535.56	-1832.06	  395.75
     90.8700	  516.00	  533.43	-1847.93	  395.62
     90.9700	  517.00	  531.99	-1845.49	  395.50
     91.0700	  515.00	  531.12	-1846.62	  395.38
     91.1700	  504.00	  530.74	-1857.24	  395.25
     91.2700	  485.00	  530.77	-1876.27	  395.12
     91.3700	  510.00	  531.20	-1851.70	  394.99
     91.4700	  492.00	  532.04	-1870.54	  394.86
     91.5700	  546.00	  533.35	-1817.85	  394.73
     91.6700	  517.00	  535.22	-1848.72	  394.60
     91.7700	  481.00	  537.81	-1887.31	  394.46
     91.8700	  580.00	  541.25	-1791.75	  394.33
     91.9700	  548.00	  545.74	-1828.24	  394.19
     92.0700	  525.00	  551.25	-1856.75	  394.05
     92.1700	  529.00	  558.36	-1859.86	  393.91
     92.2700	  562.00	  566.97	-1835.47	  393.76
     92.3700	  558.00	  577.15	-1849.65	  393.62
     92.4700	  601.00	  588.86	-1818.36	  393.47
     92.5700	  593.00	  601.95	-1839.45	  393.33
     92.6700	  650.00	  616.18	-1796.68	  393.18
     92.7700	  657.00	  631.17	-1804.67	  393.03
     92.8700	  666.00	  646.47	-1810.97	  392.88
     92.9700	  719.00	  661.50	-1773.00	  392.72
     93.0700	  733.00	  675.71	-1773.21	  392.57
     93.1700	  739.00	  688.62	-1780.12	  392.41
     93.2700	  742.00	  700.00	-1788.50	  392.25
     93.3700	  821.00	  709.96	-1719.46	  392.10
     93.4700	  763.00	  718.92	-1786.42	  391.94
     93.5700	  843.00	  727.50	-1715.00	  391.77
     93.6700	  810.00	  736.35	-1756.85	  391.61
     93.7700	  798.00	  746.05	-1778.55	  391.45
     93.8700	  800.00	  757.06	-1787.56	  391.28
     93.9700	  835.00	  769.75	-1765.25	  391.11
     94.0700	  851.00	  784.38	-1763.88	  390.94
     94.1700	  819.00	  801.13	-1812.63	  390.77
     94.2700	  867.00	  819.95	-1783.45	  390.60
     94.3700	  893.00	  840.47	-1777.97	  390.43
     94.4700	  891.00	  861.89	-1801.39	  390.25
     94.5700	  873.00	  883.01	-1840.51	  390.08
     94.6700	  914.00	  902.18	-1818.68	  389.90
     94.7700	  911.00	  917.50	-1837.00	  389.72
     94.8700	  920.00	  927.01	-1837.51	  389.54
     94.9700	  912.00	  929.09	-1847.59	  389.36
     95.0700	  878.00	  922.86	-1875.36	  389.18
     95.1700	  906.00	  908.48	-1832.98	  388.99
     95.2700	  880.00	  887.05	-1837.55	  388.81
     95.3700	  859.00	  860.39	-1831.89	  388.62
     95.4700	  779.00	  830.62	-1882.12	  388.43
     95.5700	  749.00	  799.89	-1881.39	  388.24
     95.6700	  766.00	  770.24	-1834.74	  388.05
     95.7700	  711.00	  743.53	-1863.03	  387.86
     95.8700	  646.00	  721.41	-1905.91	  387.67
     95.9700	  667.00	  705.37	-1868.87	  387.47
     96.0700	  667.00	  696.67	-1860.17	  387.27
     96.1700	  681.00	  696.45	-1845.95	  387.08
     96.2700	  688.00	  705.64	-1848.14	  386.88
     96.3700	  704.00	  725.01	-1851.51	  386.68
     96.4700	  748.00	  755.04	-1837.54	  386.48
     96.5700	  781.00	  795.95	-1845.45	  386.28
     96.6700	  795.00	  847.50	-1883.00	  386.07
     96.7700	  937.00	  908.93	-1802.43	  385.87
     96.8700	  941.00	  978.85	-1868.35	  385.66
     96.9700	 1062.00	 1055.17	-1823.67	  385.45
     97.0700	 1073.00	 1135.08	-1892.58	  385.25
     97.1700	 1214.00	 1215.02	-1831.52	  385.04
     97.2700	 1265.00	 1290.81	-1856.31	  384.83
     97.3700	 1339.00	 1357.86	-1849.36	  384.61
     97.4700	 1407.00	 1411.43	-1834.93	  384.40
     97.5700	 1452.00	 1447.33	-1825.83	  384.19
     97.6700	 1502.00	 1462.53	-1791.03	  383.97
     97.7700	 1456.00	 1455.94	-1830.44	  383.75
     97.8700	 1423.00	 1428.64	-1836.14	  383.54
     97.9700	 1374.00	 1383.51	-1840.01	  383.32
     98.0700	 1318.00	 1324.61	-1837.11	  383.10
     98.1700	 1214.00	 1256.54	-1873.04	  382.88
     98.2700	 1161.00	 1183.84	-1853.34	  382.66
     98.3700	 1103.00	 1110.70	-1838.20	  382.43
     98.4700	 1020.00	 1040.86	-1851.36	  382.21
     98.5700	  908.00	  977.39	-1899.89	  381.98
     98.6700	  926.00	  922.79	-1827.29	  381.76
     98.7700	  880.00	  878.99	-1829.49	  381.53
     98.8700	  842.00	  847.38	-1835.88	  381.30
     98.9700	  791.00	  828.98	-1868.48	  381.07
     99.0700	  800.00	  824.44	-1854.94	  380.84
     99.1700	  835.00	  834.19	-1829.69	  380.61
     99.2700	  809.00	  858.43	-1879.93	  380.38
     99.3700	  856.00	  897.11	-1871.61	  380.15
     99.4700	  908.00	  950.00	-1872.50	  379.91
     99.5700	  999.00	 1016.56	-1848.06	  379.68
     99.6700	 1084.00	 1095.90	-1842.40	  379.44
     99.7700	 1144.00	 1186.68	-1873.18	  379.21
     99.8700	 1263.00	 1287.02	-1854.52	  378.97
     99.9700	 1389.00	 1394.40	-1835.90	  378.73
    100.0700	 1489.00	 1505.63	-1847.13	  378.49
    100.1700	 1559.00	 1616.88	-1888.38	  378.25
    100.2700	 1742.00	 1723.84	-1812.34	  378.01
    100.3700	 1859.00	 1822.12	-1793.62	  377.77
    100.4700	 1918.00	 1907.67	-1820.17	  377.52
    100.5700	 2055.00	 1977.35	-1752.85	  377.28
    100.6700	 2024.00	 2028.94	-1835.44	  377.04
    100.7700	 2029.00	 2061.03	-1862.53	  376.79
    100.8700	 2152.00	 2072.81	-1751.31	  376.55
    100.9700	 2164.00	 2063.82	-1730.32	  376.30
    101.0700	 2125.00	 2034.15	-1739.65	  376.05
    101.1700	 2073.00	 1984.78	-1742.28	  375.81
    101.2700	 1872.00	 1917.96	-1876.46	  375.56
    101.3700	 1893.00	 1837.28	-1774.78	  375.31
    101.4700	 1797.00	 1747.34	-1780.84	  375.06
    101.5700	 1665.00	 1653.13	-1818.63	  374.81
    101.6700	 1612.00	 1559.41	-1777.91	  374.56
    101.7700	 1453.00	 1470.33	-1847.83	  374.31
    101.8700	 1383.00	 1389.09	-1836.59	  374.05
    101.9700	 1370.00	 1317.88	-1778.38	  373.80
    102.0700	 1303.00	 1257.81	-1785.31	  373.55
    102.1700	 1248.00	 1208.96	-1791.46	  373.29
    102.2700	 1186.00	 1170.46	-1814.96	  373.04
    102.3700	 1132.00	 1140.62	-1839.12	  372.78
    102.4700	 1120.00	 1117.14	-1827.64	  372.53
    102.5700	 1052.00	 1097.36	-1875.86	  372.27
    102.6700	 1092.00	 1078.57	-1817.07	  372.02
    102.7700	 1004.00	 1058.35	-1884.85	  371.76
    102.8700	 1058.00	 1034.92	-1807.42	  371.50
    102.9700	 1017.00	 1007.34	-1820.84	  371.24
    103.0700	  921.00	  975.47	-1884.97	  370.99
    103.1700	  922.00	  939.86	-1848.36	  370.73
    103.2700	  881.00	  901.50	-1851.00	  370.47
    103.3700	  851.00	  861.57	-1841.07	  370.21
    103.4700	  812.00	  821.31	-1839.81	  369.95
    103.5700	  815.00	  781.89	-1797.39	  369.69
    103.6700	  757.00	  744.33	-1817.83	  369.43
    103.7700	  718.00	  709.46	-1821.96	  369.17
    103.8700	  680.00	  677.88	-1828.38	  368.91
    103.9700	  627.00	  649.98	-1853.48	  368.65
    104.0700	  614.00	  625.92	-1842.42	  368.39
    104.1700	  635.00	  605.66	-1801.16	  368.13
    104.2700	  623.00	  589.04	-1796.54	  367.87
    104.3700	  530.00	  575.76	-1876.26	  367.61
    104.4700	  556.00	  565.47	-1839.97	  367.34
    104.5700	  578.00	  557.77	-1810.27	  367.08
    104.6700	  529.00	  552.29	-1853.79	  366.82
    104.7700	  554.00	  548.65	-1825.15	  366.56
    104.8700	  540.00	  546.52	-1837.02	  366.30
    104.9700	  531.00	  545.61	-1845.11	  366.04
    105.0700	  528.00	  545.66	-1848.16	  365.77
    105.1700	  520.00	  546.50	-1857.00	  365.51
    105.2700	  529.00	  547.96	-1849.46	  365.25
    105.3700	  553.00	  549.91	-1827.41	  364.99
    105.4700	  491.00	  552.30	-1891.80	  364.73
    105.5700	  533.00	  555.07	-1852.57	  364.47
    105.6700	  534.00	  558.20	-1854.70	  364.21
    105.7700	  526.00	  561.74	-1866.24	  363.94
    105.8700	  570.00	  565.76	-1826.26	  363.68
    105.9700	  543.00	  570.34	-1857.84	  363.42
    106.0700	  561.00	  575.59	-1845.09	  363.16
    106.1700	  567.00	  581.62	-1845.12	  362.90
    106.2700	  581.00	  588.48	-1837.98	  362.64
    106.3700	  595.00	  596.19	-1831.69	  362.38
    106.4700	  562.00	  604.70	-1873.20	  362.12
    106.5700	  565.00	  613.90	-1879.40	  361.86
    106.6700	  621.00	  623.59	-1833.09	  361.61
    106.7700	  619.00	  633.52	-1845.02	  361.35
    106.8700	  568.00	  643.36	-1905.86	  361.09
    106.9700	  610.00	  652.75	-1873.25	  360.83
    107.0700	  650.00	  661.29	-1841.79	  360.58
    107.1700	  679.00	  668.59	-1820.09	  360.32
    107.2700	  635.00	  674.32	-1869.82	  360.06
    107.3700	  647.00	  678.24	-1861.74	  359.81
    107.4700	  654.00	  680.30	-1856.80	  359.55
    107.5700	  656.00	  680.59	-1855.09	  359.30
    107.6700	  714.00	  679.42	-1795.92	  359.04
    107.7700	  712.00	  677.18	-1795.68	  358.79
    107.8700	  684.00	  674.35	-1820.85	  358.54
    107.9700	  664.00	  671.38	-1837.88	  358.29
    108.0700	  641.00	  668.68	-1858.18	  358.04
    108.1700	  718.00	  666.60	-1779.10	  357.79
    108.2700	  653.00	  665.35	-1842.85	  357.54
    108.3700	  643.00	  665.04	-1852.54	  357.29
    108.4700	  643.00	  665.64	-1853.14	  357.04
    108.5700	  682.00	  667.01	-1815.51	  356.79
    108.6700	  660.00	  668.89	-1839.39	  356.55
    108.7700	  646.00	  670.95	-1855.45	  356.30
    108.8700	  618.00	  672.75	-1885.25	  356.06
    108.9700	  687.00	  673.86	-1817.36	  355.81
    109.0700	  704.00	  673.87	-1800.37	  355.57
    109.1700	  653.00	  672.41	-1849.91	  355.33
    109.2700	  691.00	  669.27	-1808.77	  355.09
    109.3700	  657.00	  664.36	-1837.86	  354.85
    109.4700	  668.00	  657.77	-1820.27	  354.61
    109.5700	  647.00	  649.71	-1833.21	  354.37
    109.6700	  656.00	  640.47	-1814.97	  354.14
    109.7700	  637.00	  630.39	-1823.89	  353.90
    109.8700	  640.00	  619.84	-1810.34	  353.67
    109.9700	  625.00	  609.16	-1814.66	  353.44
    110.0700	  597.00	  598.67	-1832.17	  353.21
    110.1700	  638.00	  588.65	-1781.15	  352.98
    110.2700	  573.00	  579.33	-1836.83	  352.75
    110.3700	  610.00	  570.87	-1791.37	  352.52
    110.4700	  600.00	  563.39	-1793.89	  352.30
    110.5700	  547.00	  556.96	-1840.46	  352.07
    110.6700	  546.00	  551.58	-1836.08	  351.85
    110.7700	  499.00	  547.24	-1878.74	  351.63
    110.8700	  558.00	  543.88	-1816.38	  351.41
    110.9700	  525.00	  541.42	-1846.92	  351.19
    111.0700	  532.00	  539.78	-1838.28	  350.97
    111.1700	  534.00	  538.85	-1835.35	  350.76
    111.2700	  529.00	  538.55	-1840.05	  350.54
    111.3700	  505.00	  538.78	-1864.28	  350.33
    111.4700	  541.00	  539.47	-1828.97	  350.12
    111.5700	  536.00	  540.54	-1835.04	  349.91
    111.6700	  565.00	  541.95	-1807.45	  349.71
    111.7700	  553.00	  543.65	-1821.15	  349.50
    111.8700	  517.00	  545.61	-1859.11	  349.30
    111.9700	  544.00	  547.80	-1834.30	  349.10
    112.0700	  526.00	  550.21	-1854.71	  348.90
    112.1700	  561.00	  552.84	-1822.34	  348.70
    112.2700	  554.00	  555.70	-1832.20	  348.51
    112.3700	  581.00	  558.80	-1808.30	  348.32
    112.4700	  581.00	  562.17	-1811.67	  348.12
    112.5700	  580.00	  565.85	-1816.35	  347.94
    112.6700	  612.00	  569.87	-1788.37	  347.75
    112.7700	  559.00	  574.31	-1845.81	  347.56
    112.8700	  590.00	  579.24	-1819.74	  347.38
    112.9700	  637.00	  584.78	-1778.28	  347.20
    113.0700	  693.00	  591.04	-1728.54	  347.02
    113.1700	  703.00	  598.23	-1725.73	  346.85
    113.2700	  692.00	  606.54	-1745.04	  346.67
    113.3700	  693.00	  616.32	-1753.82	  346.50
    113.4700	  764.00	  627.92	-1694.42	  346.33
    113.5700	  790.00	  641.83	-1682.33	  346.17
    113.6700	  806.00	  658.67	-1683.17	  346.00
    113.7700	  830.00	  679.19	-1679.69	  345.84
    113.8700	  964.00	  704.33	-1570.83	  345.68
    113.9700	  961.00	  735.19	-1604.69	  345.53
    114.0700	  957.00	  773.11	-1646.61	  345.37
    114.1700	  973.00	  819.63	-1677.13	  345.22
    114.2700	 1101.00	  876.54	-1606.04	  345.07
    114.3700	 1115.00	  945.82	-1661.32	  344.93
    114.4700	 1256.00	 1029.66	-1604.16	  344.79
    114.5700	 1312.00	 1130.35	-1648.85	  344.65
    114.6700	 1434.00	 1250.32	-1646.82	  344.51
    114.7700	 1587.00	 1391.99	-1635.49	  344.37
    114.8700	 1676.00	 1557.62	-1712.12	  344.24
    114.9700	 1902.00	 1749.26	-1677.76	  344.12
    115.0700	 2050.00	 1968.51	-1749.01	  343.99
    115.1700	 2283.00	 2216.48	-1763.98	  343.87
    115.2700	 2535.00	 2493.59	-1789.09	  343.75
    115.3700	 2757.00	 2799.29	-1872.79	  343.63
    115.4700	 3094.00	 3132.07	-1868.57	  343.52
    115.5700	 3350.00	 3489.22	-1969.72	  343.41
    115.6700	 3681.00	 3866.93	-2016.43	  343.30
    115.7700	 3982.00	 4260.15	-2108.65	  343.20
    115.8700	 4390.00	 4662.43	-2102.93	  343.10
    115.9700	 4783.00	 5066.15	-2113.65	  343.00
    116.0700	 5417.00	 5462.46	-1875.96	  342.91
    116.1700	 5588.00	 5841.62	-2084.12	  342.82
    116.2700	 5876.00	 6193.06	-2147.56	  342.74
    116.3700	 6272.00	 6505.66	-2064.16	  342.65
    116.4700	 6672.00	 6768.38	-1926.88	  342.57
    116.5700	 6901.00	 6970.98	-1900.48	  342.50
    116.6700	 7116.00	 7104.96	-1819.46	  342.43
    116.7700	 7190.00	 7164.35	-1804.85	  342.36
    116.8700	 7322.00	 7146.50	-1655.00	  342.29
    116.9700	 7028.00	 7052.47	-1854.97	  342.23
    117.0700	 6979.00	 6886.91	-1738.41	  342.18
    117.1700	 6921.00	 6657.34	-1566.84	  342.12
    117.2700	 6584.00	 6373.33	-1619.83	  342.08
    117.3700	 6214.00	 6045.66	-1662.16	  342.03
    117.4700	 5673.00	 5685.38	-1842.88	  341.99
    117.5700	 5234.00	 5303.37	-1899.87	  341.95
    117.6700	 4899.00	 4909.66	-1841.16	  341.92
    117.7700	 4478.00	 4513.32	-1865.82	  341.89
    117.8700	 4301.00	 4122.41	-1651.91	  341.87
    117.9700	 3949.00	 3743.71	-1625.21	  341.85
    118.0700	 3507.00	 3382.76	-1706.26	  341.83
    118.1700	 3236.00	 3043.74	-1638.24	  341.82
    118.2700	 2909.00	 2729.62	-1651.12	  341.81
    118.3700	 2440.00	 2442.30	-1832.80	  341.81
    118.4700	 2190.00	 2182.65	-1823.15	  341.81
    118.5700	 1914.00	 1950.68	-1867.18	  341.82
    118.6700	 1635.00	 1745.60	-1941.10	  341.83
    118.7700	 1378.00	 1566.06	-2018.56	  341.85
    118.8700	 1245.00	 1410.35	-1995.85	  341.87
    118.9700	 1132.00	 1276.45	-1974.95	  341.89
    119.0700	 1052.00	 1162.19	-1940.69	  341.92
    119.1700	 1001.00	 1065.33	-1894.83	  341.96
    119.2700	  855.00	  983.68	-1959.18	  341.99
    119.3700	  835.00	  915.17	-1910.67	  342.04
    119.4700	  765.00	  857.89	-1923.39	  342.09
    119.5700	  778.00	  810.13	-1862.63	  342.14
    119.6700	  739.00	  770.35	-1861.85	  342.20
    119.7700	  702.00	  737.23	-1865.73	  342.27
    119.8700	  618.00	  709.65	-1922.15	  342.34
    119.9700	  647.00	  686.65	-1870.15	  342.41
    120.0700	  605.00	  667.46	-1892.96	  342.49
    120.1700	  612.00	  651.40	-1869.90	  342.57
    120.2700	  606.00	  637.96	-1862.46	  342.67
    120.3700	  573.00	  626.71	-1884.21	  342.76
    120.4700	  572.00	  617.30	-1875.80	  342.86
    120.5700	  540.00	  609.45	-1899.95	  342.97
    120.6700	  535.00	  602.95	-1898.45	  343.08
    120.7700	  530.00	  597.62	-1898.12	  343.20
    120.8700	  540.00	  593.33	-1883.83	  343.32
    120.9700	  529.00	  589.95	-1891.45	  343.45
    121.0700	  606.00	  587.42	-1811.92	  343.59
    121.1700	  541.00	  585.66	-1875.16	  343.73
    121.2700	  573.00	  584.61	-1842.11	  343.88
    121.3700	  503.00	  584.24	-1911.74	  344.03
    121.4700	  596.00	  584.48	-1818.98	  344.19
    121.5700	  561.00	  585.31	-1854.81	  344.35
    121.6700	  598.00	  586.67	-1819.17	  344.52
    121.7700	  554.00	  588.51	-1865.01	  344.70
    121.8700	  559.00	  590.78	-1862.28	  344.89
    121.9700	  566.00	  593.39	-1857.89	  345.08
    122.0700	  583.00	  596.31	-1843.81	  345.27
    122.1700	  600.00	  599.43	-1829.93	  345.47
    122.2700	  562.00	  602.67	-1871.17	  345.68
    122.3700	  589.00	  605.93	-1847.43	  345.90
    122.4700	  614.00	  609.10	-1825.60	  346.12
    122.5700	  632.00	  612.09	-1810.59	  346.35
    122.6700	  560.00	  614.76	-1885.26	  346.58
    122.7700	  631.00	  617.05	-1816.55	  346.82
    122.8700	  647.00	  618.86	-1802.36	  347.07
    122.9700	  645.00	  620.10	-1805.60	  347.33
    123.0700	  686.00	  620.74	-1765.24	  347.59
    123.1700	  700.00	  620.75	-1751.25	  347.86
    123.2700	  617.00	  620.14	-1833.64	  348.13
    123.3700	  642.00	  618.93	-1807.43	  348.42
    123.4700	  638.00	  617.16	-1809.66	  348.71
    123.5700	  650.00	  614.91	-1795.41	  349.00
    123.6700	  646.00	  612.23	-1796.73	  349.31
    123.7700	  651.00	  609.21	-1788.71	  349.62
    123.8700	  608.00	  605.91	-1828.41	  349.94
    123.9700	  615.00	  602.42	-1817.92	  350.27
    124.0700	  580.00	  598.79	-1849.29	  350.60
    124.1700	  608.00	  595.10	-1817.60	  350.94
    124.2700	  627.00	  591.41	-1794.91	  351.29
    124.3700	  604.00	  587.76	-1814.26	  351.65
    124.4700	  559.00	  584.21	-1855.71	  352.01
    124.5700	  617.00	  580.78	-1794.28	  352.38
    124.6700	  616.00	  577.51	-1792.01	  352.76
    124.7700	  654.00	  574.42	-1750.92	  353.15
    124.8700	  634.00	  571.52	-1768.02	  353.55
    124.9700	  599.00	  467.89	-1699.39	  353.95
    125.0700	  608.00	  468.30	-1830.50	  354.36
    125.1700	  594.00	  468.72	-1830.50	  354.78
    125.2700	  601.00	  469.15	-1830.50	  355.21
    125.3700	  579.00	  469.58	-1830.50	  355.65
    125.4700	  573.00	  470.03	-1830.50	  356.09
    125.5700	  591.00	  470.48	-1830.50	  356.55
    125.6700	  539.00	  470.94	-1830.50	  357.01
    125.7700	  539.00	  471.41	-1830.50	  357.48
    125.8700	  502.00	  471.89	-1830.50	  357.96
    125.9700	  543.00	  472.38	-1830.50	  358.44
    126.0700	  565.00	  472.88	-1830.50	  358.94
    126.1700	  581.00	  473.38	-1830.50	  359.44
    126.2700	  579.00	  473.89	-1830.50	  359.96
    126.3700	  561.00	  474.42	-1830.50	  360.48
    126.4700	  560.00	  474.95	-1830.50	  361.01
    126.5700	  522.00	  475.49	-1830.50	  361.55
    126.6700	  558.00	  476.04	-1830.50	  362.10
    126.7700	  635.00	  476.60	-1830.50	  362.66
    126.8700	  632.00	  477.17	-1830.50	  363.23
    126.9700	  614.00	  477.74	-1830.50	  363.81
    127.0700	  601.00	  478.33	-1830.50	  364.39
    127.1700	  586.00	  478.92	-1830.50	  364.99
    127.2700	  635.00	  479.53	-1830.50	  365.59
    127.3700	  578.00	  480.15	-1830.50	  366.21
    127.4700	  600.00	  480.77	-1830.50	  366.83
    127.5700	  659.00	  481.40	-1830.50	  367.47
    127.6700	  628.00	  482.05	-1830.50	  368.11
    127.7700	  657.00	  482.70	-1830.50	  368.77
    127.8700	  671.00	  483.37	-1830.50	  369.43
    127.9700	  654.00	  484.04	-1830.50	  370.10
    128.0700	  740.00	  484.73	-1830.50	  370.79
    128.1700	  678.00	  485.42	-1830.50	  371.48
    128.2700	  710.00	  486.12	-1830.50	  372.19
    128.3700	  753.00	  486.84	-1830.50	  372.90
    128.4700	  790.00	  487.56	-1830.50	  373.63
    128.5700	    0.00	  488.30	-1830.50	  374.36
    128.6700	    0.00	  489.04	-1830.50	  375.11
     12.3212	        	        	        	        	       0	(  0  0  2)	  0  1
     24.9214	        	        	        	        	       0	(  0  0  4)	  0  1
     28.3518	        	        	        	        	       0	(  1  0  0)	  0  1
     29.0504	        	        	        	        	       0	(  1  0  1)	  0  1
     31.0603	        	        	        	        	       0	(  1  0  2)	  0  1
     34.1743	        	        	        	        	       0	(  1  0  3)	  0  1
     37.8389	        	        	        	        	       0	(  0  0  6)	  0  1
     38.1584	        	        	        	        	       0	(  1  0  4)	  0  1
     42.8166	        	        	        	        	       0	(  1  0  5)	  0  1
     48.0095	        	        	        	        	       0	(  1  0  6)	  0  1
     50.3077	        	        	        	        	       0	(  1  1  0)	  0  1
     51.2810	        	        	        	        	       0	(  0  0  8)	  0  1
     52.0342	        	        	        	        	       0	(  1  1  2)	  0  1
     53.6497	        	        	        	        	       0	(  1  0  7)	  0  1
     56.9920	        	        	        	        	       0	(  1  1  4)	  0  1
     58.8129	        	        	        	        	       0	(  2  0  0)	  0  1
     59.2053	        	        	        	        	       0	(  2  0  1)	  0  1
     59.6909	        	        	        	        	       0	(  1  0  8)	  0  1
     60.3731	        	        	        	        	       0	(  2  0  2)	  0  1
     62.2904	        	        	        	        	       0	(  2  0  3)	  0  1
     64.7022	        	        	        	        	       0	(  1  1  6)	  0  1
     64.9200	        	        	        	        	       0	(  2  0  4)	  0  1
     65.5343	        	        	        	        	       0	(  0  0 10)	  0  1
     66.1191	        	        	        	        	       0	(  1  0  9)	  0  1
     68.2212	        	        	        	        	       0	(  2  0  5)	  0  1
     72.1572	        	        	        	        	       0	(  2  0  6)	  0  1
     72.9487	        	        	        	        	       0	(  1  0 10)	  0  1
     74.7610	        	        	        	        	       0	(  1  1  8)	  0  1
     76.7013	        	        	        	        	       0	(  2  0  7)	  0  1
     80.2218	        	        	        	        	       0	(  1  0 11)	  0  1
     81.0457	        	        	        	        	       0	(  0  0 12)	  0  1
     81.0796	        	        	        	        	       0	(  2  1  0)	  0  1
     81.4202	        	        	        	        	       0	(  2  1  1)	  0  1
     81.8434	        	        	        	        	       0	(  2  0  8)	  0  1
     82.4406	        	        	        	        	       0	(  2  1  2)	  0  1
     84.1360	        	        	        	        	       0	(  2  1  3)	  0  1
     86.5016	        	        	        	        	       0	(  2  1  4)	  0  1
     87.0607	        	        	        	        	       0	(  1  1 10)	  0  1
     87.5953	        	        	        	        	       0	(  2  0  9)	  0  1
     88.0144	        	        	        	        	       0	(  1  0 12)	  0  1
     89.5351	        	        	        	        	       0	(  2  1  5)	  0  1
     93.2423	        	        	        	        	       0	(  2  1  6)	  0  1
     93.9995	        	        	        	        	       0	(  2  0 10)	  0  1
     94.9890	        	        	        	        	       0	(  3  0  0)	  0  1
     95.3273	        	        	        	        	       0	(  3  0  1)	  0  1
     96.3434	        	        	        	        	       0	(  3  0  2)	  0  1
     96.4502	        	        	        	        	       0	(  1  0 13)	  0  1
     97.6431	        	        	        	        	       0	(  2  1  7)	  0  1
     98.0415	        	        	        	        	       0	(  3  0  3)	  0  1
     98.6305	        	        	        	        	       0	(  0  0 14)	  0  1
    100.4314	        	        	        	        	       0	(  3  0  4)	  0  1
    101.1422	        	        	        	        	       0	(  2  0 11)	  0  1
    101.9727	        	        	        	        	       0	(  1  1 12)	  0  1
    102.7809	        	        	        	        	       0	(  2  1  8)	  0  1
    103.5324	        	        	        	        	       0	(  3  0  5)	  0  1
    105.7323	        	        	        	        	       0	(  1  0 14)	  0  1
    107.3798	        	        	        	        	       0	(  3  0  6)	  0  1
    108.7374	        	        	        	        	       0	(  2  1  9)	  0  1
    109.1805	        	        	        	        	       0	(  2  0 12)	  0  1
    112.0363	        	        	        	        	       0	(  3  0  7)	  0  1
    115.6603	        	        	        	        	       0	(  2  1 10)	  0  1
    116.2177	        	        	        	        	       0	(  1  0 15)	  0  1
    116.7609	        	        	        	        	       0	(  2  2  0)	  0  1
    117.6113	        	        	        	        	       0	(  3  0  8)	  0  1
    118.2820	        	        	        	        	       0	(  2  2  2)	  0  1
    118.4028	        	        	        	        	       0	(  2  0 13)	  0  1
    120.2042	        	        	        	        	       0	(  0  0 16)	  0  1
    120.8923	        	        	        	        	       0	(  1  1 14)	  0  1
    122.9874	        	        	        	        	       0	(  2  2  4)	  0  1
    123.8247	        	        	        	        	       0	(  2  1 11)	  0  1
    124.3016	        	        	        	        	       0	(  3  0  9)	  0  1
    124.8517	        	        	        	        	       0	(  3  1  0)	  0  1
    125.2638	        	        	        	        	       0	(  3  1  1)	  0  1
    126.5132	        	        	        	        	       0	(  3  1  2)	  0  1
    128.6304	        	        	        	        	       0	(  1  0 16)	  0  1
    128.6422	        	        	        	        	       0	(  3  1  3)	  0  1
    129.3934	        	        	        	        	       0	(  2  0 14)	  0  1
    131.4707	        	        	        	        	       0	(  2  2  6)	  0  1
    131.7350	        	        	        	        	       0	(  3  1  4)	  0  1
    132.4892	        	        	        	        	       0	(  3  0 10)	  0  1
    133.7979	        	        	        	        	       0	(  2  1 12)	  0  1
    135.9483	        	        	        	        	       0	(  3  1  5)	  0  1
    141.5866	        	        	        	        	       0	(  3  1  6)	  0  1
    143.0555	        	        	        	        	       0	(  3  0 11)	  0  1
    143.6624	        	        	        	        	       0	(  2  0 15)	  0  1
    144.9617	        	        	        	        	       0	(  1  0 17)	  0  1
    145.8195	        	        	        	        	       0	(  2  2  8)	  0  1
    147.0867	        	        	        	        	       0	(  2  1 13)	  0  1
    149.3420	        	        	        	        	       0	(  3  1  7)	  0  1
    150.1093	        	        	        	        	       0	(  1  1 16)	  0  1
    154.6675	        	        	        	        	       0	(  0  0 18)	  0  1
    159.2265	        	        	        	        	       0	(  3  0 12)	  0  1
    159.3216	        	        	        	        	       0	(  4  0  0)	  0  1
    160.3037	        	        	        	        	       0	(  4  0  1)	  0  1
    161.5951	        	        	        	        	       0	(  3  1  8)	  0  1
    163.5874	        	        	        	        	       0	(  4  0  2)	  0  1
    171.4117	        	        	        	        	       0	(  2  0 16)	  0  1
    171.4742	        	        	        	        	       0	(  4  0  3)	  0  1
    177.9689	        	        	        	        	       0	(  2  1 14)	  0  1
