MSG Master    CELL:    5.91900   5.91900  23.26741   90.0000   90.0000  120.0000   SPGR: P 63/m m c             TEMP:   1074.95
  1   1280     2.52000     0.00000    -0.13040     0.00000     0.00000    0
    99     0     2
       0.00000      10.00000
     125.00000     130.00000
 2Theta	Yobs	Ycal	Yobs-Ycal	Backg	Posr	(hkl)	K
      0.7700	    0.00	  542.74	-1730.76	  425.35
      0.8700	    0.00	  543.46	-1730.76	  426.07
      0.9700	   51.00	  544.17	-1730.76	  426.78
      1.0700	   38.00	  544.86	-1730.76	  427.47
      1.1700	   33.00	  545.55	-1730.76	  428.16
      1.2700	   44.00	  546.23	-1730.76	  428.84
      1.3700	   37.00	  546.89	-1730.76	  429.50
      1.4700	   96.00	  547.55	-1730.76	  430.16
      1.5700	  259.00	  548.19	-1730.76	  430.80
      1.6700	  474.00	  548.83	-1730.76	  431.44
      1.7700	  558.00	  549.45	-1730.76	  432.06
      1.8700	  664.00	  550.06	-1730.76	  432.68
      1.9700	  763.00	  550.67	-1730.76	  433.28
      2.0700	  807.00	  551.26	-1730.76	  433.87
      2.1700	  779.00	  551.85	-1730.76	  434.46
      2.2700	  812.00	  552.42	-1730.76	  435.03
      2.3700	  745.00	  552.99	-1730.76	  435.60
      2.4700	  689.00	  553.54	-1730.76	  436.15
      2.5700	  659.00	  554.09	-1730.76	  436.70
      2.6700	  650.00	  554.63	-1730.76	  437.24
      2.7700	  642.00	  555.15	-1730.76	  437.76
      2.8700	  632.00	  555.67	-1730.76	  438.28
      2.9700	  618.00	  556.18	-1730.76	  438.79
      3.0700	  588.00	  556.68	-1730.76	  439.29
      3.1700	  579.00	  557.17	-1730.76	  439.78
      3.2700	  630.00	  557.65	-1730.76	  440.26
      3.3700	  662.00	  558.12	-1730.76	  440.73
      3.4700	  784.00	  558.58	-1730.76	  441.19
      3.5700	  823.00	  559.04	-1730.76	  441.65
      3.6700	  826.00	  559.48	-1730.76	  442.09
      3.7700	  888.00	  559.92	-1730.76	  442.53
      3.8700	  948.00	  560.35	-1730.76	  442.96
      3.9700	  985.00	  560.76	-1730.76	  443.37
      4.0700	 1101.00	  561.17	-1730.76	  443.78
      4.1700	 1107.00	  561.58	-1730.76	  444.19
      4.2700	 1086.00	  561.97	-1730.76	  444.58
      4.3700	 1104.00	  562.35	-1730.76	  444.96
      4.4700	 1086.00	  562.73	-1730.76	  445.34
      4.5700	 1103.00	  563.10	-1730.76	  445.71
      4.6700	  988.00	  563.46	-1730.76	  446.07
      4.7700	 1007.00	  563.81	-1730.76	  446.42
      4.8700	  964.00	  564.15	-1730.76	  446.77
      4.9700	  909.00	  564.49	-1730.76	  447.10
      5.0700	  972.00	  564.82	-1730.76	  447.43
      5.1700	  905.00	  565.14	-1730.76	  447.75
      5.2700	  887.00	  565.45	-1730.76	  448.06
      5.3700	  889.00	  565.76	-1730.76	  448.37
      5.4700	  833.00	  566.05	-1730.76	  448.66
      5.5700	  852.00	  566.34	-1730.76	  448.95
      5.6700	  843.00	  566.62	-1730.76	  449.23
      5.7700	  782.00	  566.90	-1730.76	  449.51
      5.8700	  814.00	  567.16	-1730.76	  449.77
      5.9700	  793.00	  567.42	-1730.76	  450.03
      6.0700	  878.00	  567.68	-1730.76	  450.29
      6.1700	  784.00	  567.92	-1730.76	  450.53
      6.2700	  815.00	  568.16	-1730.76	  450.77
      6.3700	  758.00	  568.39	-1730.76	  451.00
      6.4700	  758.00	  568.61	-1730.76	  451.22
      6.5700	  741.00	  568.83	-1730.76	  451.44
      6.6700	  749.00	  569.04	-1730.76	  451.65
      6.7700	  732.00	  569.24	-1730.76	  451.85
      6.8700	  702.00	  569.43	-1730.76	  452.04
      6.9700	  706.00	  569.62	-1730.76	  452.23
      7.0700	  660.00	  569.80	-1730.76	  452.41
      7.1700	  658.00	  569.98	-1730.76	  452.59
      7.2700	  666.00	  570.15	-1730.76	  452.76
      7.3700	  619.00	  570.31	-1730.76	  452.92
      7.4700	  635.00	  570.47	-1730.76	  453.08
      7.5700	  636.00	  570.61	-1730.76	  453.23
      7.6700	  666.00	  570.76	-1730.76	  453.37
      7.7700	  657.00	  570.89	-1730.76	  453.50
      7.8700	  628.00	  571.02	-1730.76	  453.63
      7.9700	  616.00	  571.15	-1730.76	  453.76
      8.0700	  631.00	  571.26	-1730.76	  453.88
      8.1700	  647.00	  571.38	-1730.76	  453.99
      8.2700	  616.00	  571.48	-1730.76	  454.09
      8.3700	  611.00	  571.58	-1730.76	  454.19
      8.4700	  618.00	  571.67	-1730.76	  454.28
      8.5700	  598.00	  571.76	-1730.76	  454.37
      8.6700	  602.00	  571.84	-1730.76	  454.45
      8.7700	  588.00	  571.92	-1730.76	  454.53
      8.8700	  628.00	  571.99	-1730.76	  454.60
      8.9700	  626.00	  572.05	-1730.76	  454.66
      9.0700	  630.00	  572.11	-1730.76	  454.72
      9.1700	  627.00	  572.17	-1730.76	  454.78
      9.2700	  589.00	  572.21	-1730.76	  454.82
      9.3700	  612.00	  572.26	-1730.76	  454.87
      9.4700	  622.00	  572.29	-1730.76	  454.90
      9.5700	  668.00	  572.32	-1730.76	  454.93
      9.6700	  620.00	  572.35	-1730.76	  454.96
      9.7700	  617.00	  572.37	-1730.76	  454.98
      9.8700	  625.00	  572.39	-1730.76	  455.00
      9.9700	  595.00	  572.40	-1730.76	  455.01
     10.0700	  582.00	  573.13	-1721.89	  455.01
     10.1700	  590.00	  573.21	-1713.97	  455.01
     10.2700	  593.00	  573.30	-1711.06	  455.01
     10.3700	  571.00	  573.41	-1733.17	  455.00
     10.4700	  594.00	  573.57	-1710.33	  454.98
     10.5700	  562.00	  573.84	-1742.60	  454.96
     10.6700	  600.00	  574.31	-1705.07	  454.94
     10.7700	  593.00	  575.08	-1712.85	  454.91
     10.8700	  573.00	  576.24	-1734.00	  454.88
     10.9700	  588.00	  577.77	-1720.53	  454.84
     11.0700	  616.00	  579.63	-1694.39	  454.79
     11.1700	  570.00	  581.82	-1742.58	  454.75
     11.2700	  577.00	  584.36	-1738.12	  454.69
     11.3700	  595.00	  587.35	-1723.11	  454.64
     11.4700	  570.00	  590.89	-1751.65	  454.58
     11.5700	  565.00	  595.20	-1760.96	  454.51
     11.6700	  662.00	  600.62	-1669.38	  454.44
     11.7700	  647.00	  607.73	-1691.50	  454.37
     11.8700	  598.00	  617.52	-1750.28	  454.29
     11.9700	  688.00	  630.74	-1673.50	  454.21
     12.0700	  689.00	  645.93	-1687.69	  454.12
     12.1700	  656.00	  656.77	-1731.53	  454.03
     12.2700	  687.00	  653.21	-1696.97	  453.93
     12.3700	  678.00	  632.41	-1685.17	  453.83
     12.4700	  637.00	  607.43	-1701.19	  453.73
     12.5700	  561.00	  589.59	-1759.35	  453.62
     12.6700	  540.00	  580.25	-1771.01	  453.51
     12.7700	  545.00	  576.19	-1761.95	  453.40
     12.8700	  566.00	  574.40	-1739.16	  453.28
     12.9700	  558.00	  573.41	-1746.17	  453.16
     13.0700	  556.00	  572.73	-1747.49	  453.03
     13.1700	  597.00	  572.20	-1705.96	  452.90
     13.2700	  545.00	  571.78	-1757.54	  452.77
     13.3700	  554.00	  571.41	-1748.17	  452.63
     13.4700	  591.00	  571.10	-1710.86	  452.49
     13.5700	  559.00	  570.81	-1742.57	  452.35
     13.6700	  544.00	  570.55	-1757.31	  452.20
     13.7700	  585.00	  570.30	-1716.06	  452.05
     13.8700	  564.00	  570.07	-1736.83	  451.90
     13.9700	  578.00	  569.85	-1722.61	  451.74
     14.0700	  553.00	  569.63	-1747.39	  451.58
     14.1700	  570.00	  569.42	-1730.18	  451.41
     14.2700	  553.00	  569.21	-1746.97	  451.25
     14.3700	  550.00	  569.00	-1749.77	  451.08
     14.4700	  556.00	  568.80	-1743.56	  450.90
     14.5700	  561.00	  568.60	-1738.36	  450.73
     14.6700	  558.00	  568.39	-1741.15	  450.55
     14.7700	  529.00	  568.19	-1769.95	  450.37
     14.8700	  557.00	  567.98	-1741.74	  450.18
     14.9700	  548.00	  567.78	-1750.54	  449.99
     15.0700	  511.00	  567.57	-1787.33	  449.80
     15.1700	  552.00	  567.36	-1746.12	  449.61
     15.2700	  551.00	  567.15	-1746.91	  449.41
     15.3700	  570.00	  566.94	-1727.70	  449.21
     15.4700	  560.00	  566.73	-1737.49	  449.01
     15.5700	  549.00	  566.51	-1748.28	  448.81
     15.6700	  549.00	  566.30	-1748.06	  448.60
     15.7700	  602.00	  566.08	-1694.84	  448.39
     15.8700	  602.00	  565.86	-1694.62	  448.18
     15.9700	  574.00	  565.64	-1722.40	  447.96
     16.0700	  520.00	  565.41	-1776.18	  447.74
     16.1700	  557.00	  565.19	-1738.95	  447.52
     16.2700	  578.00	  564.96	-1717.72	  447.30
     16.3700	  575.00	  564.76	-1720.52	  447.08
     16.4700	  555.00	  564.52	-1740.29	  446.85
     16.5700	  608.00	  564.29	-1687.05	  446.62
     16.6700	  532.00	  564.06	-1762.82	  446.39
     16.7700	  546.00	  563.82	-1748.58	  446.15
     16.8700	  529.00	  563.58	-1765.34	  445.92
     16.9700	  558.00	  563.34	-1736.10	  445.68
     17.0700	  533.00	  563.10	-1760.86	  445.44
     17.1700	  523.00	  562.85	-1770.61	  445.20
     17.2700	  525.00	  562.61	-1768.37	  444.95
     17.3700	  584.00	  562.36	-1709.12	  444.71
     17.4700	  550.00	  562.11	-1742.87	  444.46
     17.5700	  534.00	  561.86	-1758.62	  444.21
     17.6700	  507.00	  561.60	-1785.36	  443.96
     17.7700	  547.00	  561.35	-1745.11	  443.70
     17.8700	  552.00	  561.09	-1739.85	  443.45
     17.9700	  528.00	  560.93	-1763.69	  443.19
     18.0700	  551.00	  560.67	-1740.43	  442.93
     18.1700	  608.00	  560.41	-1683.17	  442.67
     18.2700	  542.00	  560.15	-1748.91	  442.40
     18.3700	  607.00	  559.89	-1683.65	  442.14
     18.4700	  535.00	  559.62	-1755.39	  441.87
     18.5700	  569.00	  559.36	-1721.12	  441.60
     18.6700	  601.00	  559.09	-1688.85	  441.34
     18.7700	  552.00	  558.82	-1737.58	  441.06
     18.8700	  608.00	  558.64	-1681.40	  440.79
     18.9700	  577.00	  558.37	-1712.13	  440.52
     19.0700	  525.00	  558.10	-1763.86	  440.24
     19.1700	  589.00	  557.83	-1699.59	  439.97
     19.2700	  546.00	  557.56	-1742.32	  439.69
     19.3700	  582.00	  557.28	-1706.05	  439.41
     19.4700	  599.00	  557.01	-1688.77	  439.13
     19.5700	  539.00	  556.73	-1748.50	  438.85
     19.6700	  572.00	  556.46	-1715.22	  438.56
     19.7700	  576.00	  556.18	-1710.94	  438.28
     19.8700	  578.00	  555.90	-1708.66	  437.99
     19.9700	  590.00	  555.63	-1696.39	  437.71
     20.0700	  551.00	  555.35	-1735.11	  437.42
     20.1700	  579.00	  555.07	-1706.83	  437.13
     20.2700	  533.00	  554.79	-1752.55	  436.84
     20.3700	  584.00	  554.51	-1701.27	  436.55
     20.4700	  549.00	  554.20	-1735.96	  436.25
     20.5700	  548.00	  553.91	-1736.68	  435.96
     20.6700	  535.00	  553.63	-1749.39	  435.67
     20.7700	  538.00	  553.35	-1746.11	  435.37
     20.8700	  494.00	  553.07	-1789.83	  435.08
     20.9700	  584.00	  552.83	-1699.59	  434.78
     21.0700	  559.00	  552.54	-1724.30	  434.48
     21.1700	  546.00	  552.26	-1737.02	  434.18
     21.2700	  595.00	  551.98	-1687.74	  433.88
     21.3700	  539.00	  551.70	-1743.46	  433.58
     21.4700	  507.00	  551.42	-1775.18	  433.28
     21.5700	  538.00	  551.14	-1743.90	  432.98
     21.6700	  529.00	  550.87	-1752.63	  432.68
     21.7700	  553.00	  550.59	-1728.35	  432.38
     21.8700	  582.00	  550.31	-1699.07	  432.07
     21.9700	  535.00	  550.04	-1745.80	  431.77
     22.0700	  544.00	  549.77	-1736.53	  431.46
     22.1700	  553.00	  549.50	-1727.26	  431.16
     22.2700	  525.00	  549.23	-1754.99	  430.85
     22.3700	  514.00	  548.96	-1765.72	  430.55
     22.4700	  552.00	  548.70	-1727.46	  430.24
     22.5700	  530.00	  548.45	-1749.21	  429.93
     22.6700	  539.00	  548.19	-1739.96	  429.63
     22.7700	  555.00	  547.95	-1723.71	  429.32
     22.8700	  557.00	  547.71	-1721.47	  429.01
     22.9700	  535.00	  547.48	-1743.24	  428.70
     23.0700	  574.00	  547.27	-1704.03	  428.39
     23.1700	  563.00	  547.06	-1714.82	  428.08
     23.2700	  556.00	  546.88	-1721.64	  427.77
     23.3700	  568.00	  546.72	-1709.48	  427.46
     23.4700	  566.00	  546.59	-1711.35	  427.15
     23.5700	  523.00	  546.50	-1754.26	  426.84
     23.6700	  530.00	  546.47	-1747.23	  426.53
     23.7700	  547.00	  546.67	-1730.43	  426.22
     23.8700	  570.00	  546.94	-1707.70	  425.91
     23.9700	  525.00	  547.62	-1753.38	  425.60
     24.0700	  549.00	  549.11	-1730.88	  425.29
     24.1700	  571.00	  552.09	-1711.85	  424.98
     24.2700	  515.00	  557.37	-1773.13	  424.67
     24.3700	  551.00	  565.92	-1745.68	  424.36
     24.4700	  614.00	  578.82	-1695.58	  424.05
     24.5700	  599.00	  596.51	-1728.27	  423.74
     24.6700	  577.00	  616.37	-1770.13	  423.43
     24.7700	  593.00	  630.44	-1768.20	  423.12
     24.8700	  614.00	  627.75	-1744.51	  422.81
     24.9700	  576.00	  606.65	-1761.41	  422.50
     25.0700	  609.00	  580.94	-1702.70	  422.19
     25.1700	  557.00	  561.90	-1735.66	  421.88
     25.2700	  519.00	  551.42	-1763.18	  421.57
     25.3700	  576.00	  546.66	-1701.42	  421.26
     25.4700	  580.00	  544.56	-1695.32	  420.95
     25.5700	  622.00	  543.46	-1652.22	  420.64
     25.6700	  561.00	  542.75	-1712.51	  420.33
     25.7700	  521.00	  542.23	-1751.99	  420.02
     25.8700	  540.00	  541.83	-1732.59	  419.71
     25.9700	  542.00	  541.54	-1730.30	  419.40
     26.0700	  550.00	  541.32	-1722.08	  419.10
     26.1700	  587.00	  541.18	-1684.94	  418.79
     26.2700	  552.00	  541.11	-1719.88	  418.48
     26.3700	  522.00	  541.12	-1749.88	  418.18
     26.4700	  580.00	  541.21	-1691.97	  417.87
     26.5700	  636.00	  541.38	-1636.14	  417.56
     26.6700	  516.00	  541.67	-1756.43	  417.26
     26.7700	  535.00	  542.09	-1737.85	  416.95
     26.8700	  537.00	  542.68	-1736.44	  416.65
     26.9700	  557.00	  543.48	-1717.25	  416.35
     27.0700	  591.00	  544.58	-1684.34	  416.04
     27.1700	  500.00	  546.10	-1776.86	  415.74
     27.2700	  583.00	  548.30	-1696.06	  415.44
     27.3700	  535.00	  551.65	-1747.41	  415.14
     27.4700	  567.00	  557.10	-1720.86	  414.84
     27.5700	  564.00	  566.32	-1733.08	  414.54
     27.6700	  610.00	  581.92	-1702.68	  414.24
     27.7700	  607.00	  607.22	-1730.98	  413.94
     27.8700	  595.00	  644.96	-1780.72	  413.64
     27.9700	  692.00	  695.04	-1733.80	  413.34
     28.0700	  789.00	  751.49	-1693.25	  413.05
     28.1700	  864.00	  800.07	-1666.84	  412.75
     28.2700	  922.00	  819.91	-1628.67	  412.45
     28.3700	  908.00	  799.84	-1622.60	  412.16
     28.4700	  748.00	  761.06	-1743.82	  411.87
     28.5700	  693.00	  736.18	-1773.94	  411.57
     28.6700	  706.00	  739.43	-1764.19	  411.28
     28.7700	  747.00	  765.46	-1749.22	  410.99
     28.8700	  814.00	  794.37	-1711.13	  410.70
     28.9700	  826.00	  798.35	-1703.11	  410.41
     29.0700	  764.00	  760.58	-1727.34	  410.12
     29.1700	  686.00	  697.75	-1742.51	  409.83
     29.2700	  600.00	  638.42	-1769.18	  409.55
     29.3700	  609.00	  595.85	-1717.61	  409.26
     29.4700	  637.00	  570.21	-1663.97	  408.97
     29.5700	  646.00	  556.38	-1641.14	  408.69
     29.6700	  632.00	  549.09	-1647.85	  408.41
     29.7700	  623.00	  544.97	-1652.73	  408.12
     29.8700	  602.00	  542.42	-1671.18	  407.84
     29.9700	  578.00	  540.82	-1693.58	  407.56
     30.0700	  528.00	  540.04	-1742.80	  407.28
     30.1700	  554.00	  540.25	-1717.01	  407.00
     30.2700	  580.00	  542.02	-1692.78	  406.73
     30.3700	  638.00	  546.45	-1639.21	  406.45
     30.4700	  540.00	  555.23	-1745.99	  406.18
     30.5700	  561.00	  570.09	-1739.85	  405.90
     30.6700	  585.00	  591.52	-1737.28	  405.63
     30.7700	  565.00	  616.80	-1782.56	  405.36
     30.8700	  640.00	  638.66	-1729.42	  405.09
     30.9700	  663.00	  646.07	-1713.83	  404.82
     31.0700	  544.00	  631.74	-1818.50	  404.55
     31.1700	  588.00	  603.34	-1746.10	  404.28
     31.2700	  565.00	  575.06	-1740.82	  404.01
     31.3700	  558.00	  554.33	-1727.09	  403.75
     31.4700	  527.00	  541.81	-1745.57	  403.48
     31.5700	  541.00	  535.17	-1724.93	  403.22
     31.6700	  538.00	  531.77	-1724.53	  402.96
     31.7700	  565.00	  529.89	-1695.65	  402.70
     31.8700	  569.00	  528.71	-1690.47	  402.44
     31.9700	  513.00	  527.89	-1745.65	  402.18
     32.0700	  549.00	  527.30	-1709.07	  401.93
     32.1700	  559.00	  526.90	-1698.66	  401.67
     32.2700	  544.00	  526.66	-1713.42	  401.42
     32.3700	  575.00	  526.57	-1682.33	  401.16
     32.4700	  565.00	  526.63	-1692.39	  400.91
     32.5700	  523.00	  526.85	-1734.61	  400.66
     32.6700	  581.00	  527.27	-1677.03	  400.41
     32.7700	  562.00	  527.92	-1696.68	  400.16
     32.8700	  559.00	  528.87	-1700.64	  399.92
     32.9700	  515.00	  530.24	-1746.00	  399.67
     33.0700	  550.00	  532.22	-1712.98	  399.43
     33.1700	  525.00	  535.26	-1741.03	  399.19
     33.2700	  497.00	  540.39	-1774.15	  398.95
     33.3700	  556.00	  549.85	-1724.61	  398.71
     33.4700	  567.00	  567.97	-1731.73	  398.47
     33.5700	  580.00	  601.70	-1752.46	  398.23
     33.6700	  619.00	  659.16	-1770.92	  398.00
     33.7700	  724.00	  744.06	-1750.82	  397.76
     33.8700	  873.00	  847.24	-1705.00	  397.53
     33.9700	  996.00	  940.84	-1675.60	  397.30
     34.0700	 1102.00	  982.04	-1610.80	  397.07
     34.1700	 1071.00	  939.45	-1599.21	  396.84
     34.2700	  885.00	  835.26	-1681.02	  396.61
     34.3700	  734.00	  723.56	-1720.32	  396.39
     34.4700	  589.00	  637.53	-1779.29	  396.17
     34.5700	  578.00	  583.82	-1736.58	  395.94
     34.6700	  558.00	  555.02	-1727.78	  395.72
     34.7700	  537.00	  540.69	-1734.45	  395.50
     34.8700	  545.00	  533.26	-1719.03	  395.29
     34.9700	  542.00	  528.84	-1717.60	  395.07
     35.0700	  538.00	  525.79	-1718.55	  394.85
     35.1700	  491.00	  523.48	-1763.24	  394.64
     35.2700	  537.00	  521.66	-1715.42	  394.43
     35.3700	  528.00	  520.20	-1722.96	  394.22
     35.4700	  482.00	  518.97	-1767.73	  394.01
     35.5700	  533.00	  517.94	-1715.70	  393.80
     35.6700	  511.00	  517.05	-1736.82	  393.60
     35.7700	  493.00	  516.29	-1754.05	  393.39
     35.8700	  503.00	  515.61	-1743.37	  393.19
     35.9700	  537.00	  515.50	-1709.26	  392.99
     36.0700	  524.00	  514.97	-1721.73	  392.79
     36.1700	  515.00	  514.50	-1730.26	  392.59
     36.2700	  520.00	  514.07	-1724.83	  392.40
     36.3700	  492.00	  513.69	-1752.45	  392.20
     36.4700	  534.00	  513.34	-1710.11	  392.01
     36.5700	  486.00	  513.04	-1757.80	  391.82
     36.6700	  526.00	  512.77	-1717.53	  391.63
     36.7700	  529.00	  512.55	-1714.31	  391.44
     36.8700	  452.00	  512.39	-1791.15	  391.25
     36.9700	  509.00	  512.34	-1734.10	  391.07
     37.0700	  523.00	  512.53	-1720.30	  390.88
     37.1700	  528.00	  513.20	-1715.96	  390.70
     37.2700	  501.00	  514.71	-1744.47	  390.52
     37.3700	  532.00	  517.47	-1716.24	  390.34
     37.4700	  555.00	  521.62	-1697.38	  390.17
     37.5700	  535.00	  526.59	-1722.35	  389.99
     37.6700	  530.00	  531.04	-1731.80	  389.82
     37.7700	  507.00	  533.26	-1757.02	  389.65
     37.8700	  532.00	  532.61	-1731.37	  389.48
     37.9700	  517.00	  530.04	-1743.80	  389.31
     38.0700	  544.00	  526.44	-1713.20	  389.14
     38.1700	  510.00	  522.15	-1742.91	  388.97
     38.2700	  512.00	  517.83	-1736.59	  388.81
     38.3700	  538.00	  514.25	-1707.01	  388.65
     38.4700	  488.00	  511.69	-1754.45	  388.49
     38.5700	  491.00	  510.07	-1749.83	  388.33
     38.6700	  537.00	  509.10	-1702.86	  388.17
     38.7700	  459.00	  508.44	-1780.20	  388.02
     38.8700	  494.00	  508.05	-1744.82	  387.86
     38.9700	  512.00	  507.77	-1726.53	  387.71
     39.0700	  485.00	  507.53	-1753.29	  387.56
     39.1700	  485.00	  507.32	-1753.08	  387.41
     39.2700	  494.00	  507.05	-1743.81	  387.27
     39.3700	  489.00	  506.88	-1748.64	  387.12
     39.4700	  502.00	  506.72	-1735.48	  386.98
     39.5700	  555.00	  506.57	-1682.33	  386.84
     39.6700	  520.00	  506.56	-1717.32	  386.70
     39.7700	  524.00	  506.43	-1713.20	  386.56
     39.8700	  542.00	  506.32	-1695.08	  386.42
     39.9700	  461.00	  506.22	-1775.98	  386.29
     40.0700	  534.00	  506.13	-1702.89	  386.15
     40.1700	  529.00	  506.05	-1707.81	  386.02
     40.2700	  474.00	  505.98	-1762.74	  385.89
     40.3700	  475.00	  505.92	-1761.68	  385.77
     40.4700	  493.00	  505.88	-1743.64	  385.64
     40.5700	  503.00	  505.84	-1733.61	  385.51
     40.6700	  483.00	  505.83	-1753.59	  385.39
     40.7700	  502.00	  505.84	-1734.60	  385.27
     40.8700	  499.00	  505.86	-1737.63	  385.15
     40.9700	  510.00	  505.92	-1726.68	  385.03
     41.0700	  488.00	  506.01	-1748.77	  384.92
     41.1700	  528.00	  506.10	-1708.86	  384.80
     41.2700	  505.00	  506.27	-1732.03	  384.69
     41.3700	  533.00	  506.51	-1704.27	  384.58
     41.4700	  436.00	  506.84	-1801.60	  384.47
     41.5700	  534.00	  507.27	-1704.03	  384.36
     41.6700	  523.00	  508.30	-1716.06	  384.26
     41.7700	  501.00	  509.21	-1738.97	  384.15
     41.8700	  516.00	  510.72	-1725.48	  384.05
     41.9700	  480.00	  513.52	-1764.28	  383.95
     42.0700	  547.00	  518.99	-1702.75	  383.85
     42.1700	  502.00	  529.40	-1758.16	  383.76
     42.2700	  543.00	  547.52	-1735.28	  383.66
     42.3700	  510.00	  574.91	-1795.67	  383.57
     42.4700	  577.00	  609.78	-1763.54	  383.47
     42.5700	  557.00	  644.63	-1818.39	  383.38
     42.6700	  620.00	  667.05	-1777.81	  383.30
     42.7700	  608.00	  665.17	-1787.93	  383.21
     42.8700	  615.00	  639.30	-1755.07	  383.12
     42.9700	  585.00	  602.49	-1748.25	  383.04
     43.0700	  561.00	  567.85	-1737.61	  382.96
     43.1700	  526.00	  541.96	-1746.73	  382.88
     43.2700	  496.00	  525.67	-1760.43	  382.80
     43.3700	  527.00	  516.69	-1720.45	  382.72
     43.4700	  523.00	  512.14	-1719.90	  382.65
     43.5700	  542.00	  509.82	-1698.58	  382.57
     43.6700	  537.00	  508.71	-1702.47	  382.50
     43.7700	  550.00	  507.87	-1688.63	  382.43
     43.8700	  514.00	  507.28	-1724.04	  382.37
     43.9700	  498.00	  506.84	-1739.60	  382.30
     44.0700	  484.00	  506.50	-1753.26	  382.23
     44.1700	  505.00	  506.27	-1732.03	  382.17
     44.2700	  500.00	  506.08	-1736.84	  382.11
     44.3700	  490.00	  505.93	-1746.69	  382.05
     44.4700	  502.00	  505.83	-1734.59	  381.99
     44.5700	  519.00	  505.64	-1717.40	  381.94
     44.6700	  504.00	  505.61	-1732.37	  381.88
     44.7700	  525.00	  505.61	-1711.37	  381.83
     44.8700	  520.00	  505.63	-1716.39	  381.78
     44.9700	  523.00	  505.67	-1713.43	  381.73
     45.0700	  514.00	  505.74	-1722.50	  381.68
     45.1700	  471.00	  505.83	-1765.59	  381.63
     45.2700	  513.00	  506.12	-1723.88	  381.59
     45.3700	  542.00	  506.25	-1695.01	  381.54
     45.4700	  502.00	  506.41	-1735.17	  381.50
     45.5700	  459.00	  506.59	-1778.35	  381.46
     45.6700	  504.00	  506.80	-1733.56	  381.42
     45.7700	  505.00	  507.03	-1732.79	  381.39
     45.8700	  525.00	  507.29	-1713.05	  381.35
     45.9700	  478.00	  507.58	-1760.35	  381.32
     46.0700	  500.00	  507.91	-1738.67	  381.29
     46.1700	  495.00	  508.28	-1744.04	  381.26
     46.2700	  542.00	  508.69	-1697.45	  381.23
     46.3700	  512.00	  509.15	-1727.91	  381.20
     46.4700	  513.00	  509.67	-1727.43	  381.18
     46.5700	  535.00	  510.26	-1706.02	  381.15
     46.6700	  483.00	  510.93	-1758.69	  381.13
     46.7700	  525.00	  511.72	-1717.48	  381.11
     46.8700	  498.00	  512.68	-1745.44	  381.09
     46.9700	  543.00	  513.92	-1701.68	  381.07
     47.0700	  485.00	  515.72	-1761.48	  381.06
     47.1700	  470.00	  518.64	-1779.40	  381.04
     47.2700	  530.00	  523.59	-1724.36	  381.03
     47.3700	  532.00	  531.98	-1730.74	  381.02
     47.4700	  584.00	  544.96	-1691.72	  381.01
     47.5700	  579.00	  562.92	-1714.68	  381.00
     47.6700	  600.00	  584.16	-1714.92	  380.99
     47.7700	  633.00	  604.26	-1702.02	  380.99
     47.8700	  622.00	  616.73	-1725.49	  380.99
     47.9700	  560.00	  616.36	-1787.12	  380.98
     48.0700	  606.00	  603.97	-1728.74	  380.98
     48.1700	  564.00	  585.98	-1752.74	  380.98
     48.2700	  605.00	  568.73	-1694.49	  380.99
     48.3700	  530.00	  555.96	-1756.73	  380.99
     48.4700	  553.00	  548.71	-1726.47	  381.00
     48.5700	  527.00	  546.29	-1750.06	  381.00
     48.6700	  537.00	  547.46	-1741.22	  381.01
     48.7700	  520.00	  551.14	-1761.90	  381.02
     48.8700	  558.00	  556.82	-1729.58	  381.03
     48.9700	  542.00	  564.54	-1753.30	  381.05
     49.0700	  559.00	  575.01	-1746.77	  381.06
     49.1700	  623.00	  589.97	-1697.73	  381.08
     49.2700	  587.00	  613.03	-1756.79	  381.09
     49.3700	  640.00	  651.00	-1741.76	  381.11
     49.4700	  759.00	  715.19	-1686.95	  381.13
     49.5700	  797.00	  821.82	-1755.58	  381.16
     49.6700	  899.00	  988.11	-1819.87	  381.18
     49.7700	 1172.00	 1227.15	-1785.91	  381.20
     49.8700	 1490.00	 1536.16	-1776.92	  381.23
     49.9700	 1813.00	 1885.46	-1803.22	  381.26
     50.0700	 2252.00	 2209.47	-1688.23	  381.29
     50.1700	 2435.00	 2412.13	-1707.89	  381.32
     50.2700	 2526.00	 2409.69	-1614.45	  381.35
     50.3700	 2311.00	 2201.18	-1620.94	  381.38
     50.4700	 1914.00	 1872.98	-1689.74	  381.41
     50.5700	 1371.00	 1524.99	-1884.75	  381.45
     50.6700	 1008.00	 1222.53	-1945.29	  381.49
     50.7700	  850.00	  993.88	-1874.64	  381.52
     50.8700	  726.00	  840.23	-1844.99	  381.56
     50.9700	  689.00	  746.67	-1788.43	  381.61
     51.0700	  629.00	  692.71	-1794.47	  381.65
     51.1700	  625.00	  659.66	-1765.42	  381.69
     51.2700	  602.00	  635.05	-1763.81	  381.74
     51.3700	  599.00	  613.67	-1745.43	  381.78
     51.4700	  584.00	  594.87	-1741.63	  381.83
     51.5700	  576.00	  579.34	-1734.10	  381.88
     51.6700	  541.00	  567.50	-1757.26	  381.93
     51.7700	  575.00	  559.09	-1714.85	  381.98
     51.8700	  589.00	  553.42	-1695.18	  382.03
     51.9700	  556.00	  549.66	-1724.42	  382.09
     52.0700	  553.00	  547.19	-1724.95	  382.14
     52.1700	  492.00	  545.68	-1784.44	  382.20
     52.2700	  548.00	  545.02	-1727.79	  382.26
     52.3700	  592.00	  545.54	-1684.30	  382.32
     52.4700	  543.00	  547.16	-1734.92	  382.38
     52.5700	  564.00	  551.02	-1717.78	  382.44
     52.6700	  623.00	  559.10	-1666.86	  382.50
     52.7700	  607.00	  575.15	-1698.91	  382.56
     52.8700	  614.00	  605.15	-1721.91	  382.63
     52.9700	  712.00	  656.74	-1675.50	  382.69
     53.0700	  826.00	  736.74	-1641.50	  382.76
     53.1700	  877.00	  846.61	-1700.37	  382.83
     53.2700	 1064.00	  977.34	-1644.10	  382.90
     53.3700	 1077.00	 1106.13	-1759.89	  382.97
     53.4700	 1174.00	 1198.09	-1754.85	  383.04
     53.5700	 1184.00	 1218.80	-1765.56	  383.12
     53.6700	 1051.00	 1158.66	-1838.42	  383.19
     53.7700	  984.00	 1042.60	-1789.36	  383.27
     53.8700	  846.00	  908.71	-1793.47	  383.34
     53.9700	  768.00	  786.71	-1749.47	  383.42
     54.0700	  717.00	  692.10	-1705.86	  383.50
     54.1700	  604.00	  627.84	-1754.60	  383.58
     54.2700	  581.00	  588.94	-1738.70	  383.66
     54.3700	  554.00	  567.57	-1744.33	  383.74
     54.4700	  551.00	  556.65	-1736.42	  383.82
     54.5700	  546.00	  551.42	-1736.18	  383.91
     54.6700	  573.00	  549.08	-1706.85	  383.99
     54.7700	  584.00	  548.31	-1695.07	  384.08
     54.8700	  534.00	  548.51	-1745.27	  384.16
     54.9700	  600.00	  549.48	-1680.24	  384.25
     55.0700	  563.00	  551.14	-1718.90	  384.34
     55.1700	  576.00	  553.51	-1708.27	  384.43
     55.2700	  586.00	  556.66	-1701.42	  384.52
     55.3700	  603.00	  560.73	-1688.49	  384.61
     55.4700	  552.00	  565.87	-1744.64	  384.71
     55.5700	  588.00	  572.51	-1715.28	  384.80
     55.6700	  570.00	  581.42	-1742.18	  384.89
     55.7700	  594.00	  594.19	-1730.95	  384.99
     55.8700	  624.00	  614.07	-1720.84	  385.09
     55.9700	  569.00	  647.20	-1808.96	  385.18
     56.0700	  658.00	  703.87	-1776.63	  385.28
     56.1700	  756.00	  799.13	-1773.89	  385.38
     56.2700	  824.00	  951.15	-1857.91	  385.48
     56.3700	 1020.00	 1175.85	-1886.61	  385.58
     56.4700	 1366.00	 1478.33	-1843.09	  385.68
     56.5700	 1797.00	 1842.79	-1776.55	  385.79
     56.6700	 2184.00	 2224.48	-1771.24	  385.89
     56.7700	 2378.00	 2547.78	-1900.54	  385.99
     56.8700	 2684.00	 2719.83	-1766.59	  386.10
     56.9700	 2546.00	 2676.93	-1861.69	  386.21
     57.0700	 2434.00	 2435.67	-1732.43	  386.31
     57.1700	 2067.00	 2079.52	-1743.28	  386.42
     57.2700	 1669.00	 1699.20	-1760.96	  386.53
     57.3700	 1377.00	 1358.78	-1712.54	  386.64
     57.4700	 1050.00	 1090.65	-1771.41	  386.75
     57.5700	  908.00	  901.26	-1724.03	  386.86
     57.6700	  759.00	  780.37	-1752.13	  386.97
     57.7700	  662.00	  710.96	-1779.72	  387.08
     57.8700	  694.00	  677.01	-1713.77	  387.19
     57.9700	  649.00	  667.28	-1749.04	  387.31
     58.0700	  690.00	  675.80	-1716.56	  387.42
     58.1700	  755.00	  700.59	-1676.35	  387.54
     58.2700	  790.00	  741.70	-1682.46	  387.65
     58.3700	  874.00	  799.34	-1656.10	  387.77
     58.4700	  932.00	  872.20	-1670.96	  387.89
     58.5700	 1084.00	  955.84	-1602.60	  388.00
     58.6700	 1239.00	 1042.16	-1533.92	  388.12
     58.7700	 1426.00	 1121.74	-1426.50	  388.24
     58.8700	 1487.00	 1188.02	-1431.78	  388.36
     58.9700	 1543.00	 1237.31	-1425.07	  388.48
     59.0700	 1617.00	 1264.62	-1378.38	  388.60
     59.1700	 1570.00	 1265.61	-1426.37	  388.72
     59.2700	 1517.00	 1244.16	-1457.92	  388.85
     59.3700	 1306.00	 1212.58	-1637.34	  388.97
     59.4700	 1329.00	 1183.29	-1585.05	  389.09
     59.5700	 1208.00	 1164.22	-1686.98	  389.21
     59.6700	 1117.00	 1161.70	-1775.46	  389.34
     59.7700	 1191.00	 1183.63	-1723.39	  389.46
     59.8700	 1223.00	 1235.74	-1743.50	  389.59
     59.9700	 1350.00	 1314.88	-1695.64	  389.71
     60.0700	 1439.00	 1405.58	-1697.34	  389.84
     60.1700	 1625.00	 1480.27	-1586.03	  389.97
     60.2700	 1652.00	 1506.44	-1585.20	  390.09
     60.3700	 1469.00	 1463.68	-1725.44	  390.22
     60.4700	 1415.00	 1358.39	-1674.15	  390.35
     60.5700	 1228.00	 1217.13	-1719.89	  390.48
     60.6700	 1042.00	 1068.56	-1757.32	  390.61
     60.7700	  864.00	  933.64	-1800.40	  390.74
     60.8700	  800.00	  824.22	-1754.98	  390.87
     60.9700	  727.00	  744.37	-1748.13	  391.00
     61.0700	  667.00	  692.96	-1756.73	  391.13
     61.1700	  663.00	  666.73	-1734.49	  391.26
     61.2700	  677.00	  662.92	-1716.69	  391.39
     61.3700	  680.00	  681.06	-1731.83	  391.52
     61.4700	  668.00	  723.10	-1785.86	  391.65
     61.5700	  733.00	  792.17	-1789.93	  391.79
     61.6700	  837.00	  890.22	-1783.98	  391.92
     61.7700	  990.00	 1015.02	-1755.78	  392.05
     61.8700	 1084.00	 1157.50	-1804.26	  392.19
     61.9700	 1195.00	 1300.03	-1835.79	  392.32
     62.0700	 1361.00	 1416.34	-1786.10	  392.45
     62.1700	 1369.00	 1476.68	-1838.44	  392.59
     62.2700	 1396.00	 1461.35	-1796.11	  392.72
     62.3700	 1251.00	 1374.95	-1854.71	  392.86
     62.4700	 1195.00	 1242.78	-1778.54	  392.99
     62.5700	  996.00	 1094.56	-1829.32	  393.13
     62.6700	  877.00	  953.48	-1807.24	  393.26
     62.7700	  768.00	  833.72	-1796.48	  393.40
     62.8700	  660.00	  741.10	-1811.86	  393.53
     62.9700	  635.00	  675.08	-1770.84	  393.67
     63.0700	  581.00	  631.30	-1781.07	  393.81
     63.1700	  554.00	  604.03	-1780.79	  393.94
     63.2700	  621.00	  587.97	-1697.73	  394.08
     63.3700	  607.00	  579.22	-1702.98	  394.21
     63.4700	  572.00	  575.44	-1734.20	  394.35
     63.5700	  558.00	  575.76	-1748.52	  394.49
     63.6700	  586.00	  580.56	-1725.32	  394.63
     63.7700	  601.00	  591.23	-1720.99	  394.76
     63.8700	  626.00	  609.85	-1714.61	  394.90
     63.9700	  615.00	  638.66	-1754.42	  395.04
     64.0700	  755.00	  679.26	-1655.02	  395.17
     64.1700	  796.00	  731.59	-1666.35	  395.31
     64.2700	  850.00	  792.97	-1673.73	  395.45
     64.3700	  908.00	  857.39	-1680.15	  395.59
     64.4700	  936.00	  915.56	-1710.32	  395.72
     64.5700	  991.00	  956.40	-1696.16	  395.86
     64.6700	 1081.00	  970.37	-1620.13	  396.00
     64.7700	  983.00	  956.27	-1704.04	  396.14
     64.8700	  987.00	  918.57	-1662.33	  396.27
     64.9700	  972.00	  866.31	-1625.07	  396.41
     65.0700	  848.00	  809.37	-1692.13	  396.55
     65.1700	  802.00	  755.68	-1684.44	  396.68
     65.2700	  762.00	  709.75	-1678.51	  396.82
     65.3700	  630.00	  672.72	-1773.48	  396.96
     65.4700	  690.00	  643.68	-1684.44	  397.10
     65.5700	  644.00	  621.04	-1707.80	  397.23
     65.6700	  591.00	  603.51	-1743.27	  397.37
     65.7700	  568.00	  590.15	-1752.91	  397.51
     65.8700	  598.00	  580.29	-1713.05	  397.64
     65.9700	  593.00	  573.41	-1711.17	  397.78
     66.0700	  528.00	  569.08	-1771.84	  397.92
     66.1700	  568.00	  566.89	-1729.65	  398.05
     66.2700	  516.00	  566.48	-1781.24	  398.19
     66.3700	  552.00	  567.54	-1746.30	  398.32
     66.4700	  502.00	  569.91	-1798.67	  398.46
     66.5700	  548.00	  573.61	-1756.37	  398.59
     66.6700	  566.00	  579.01	-1743.77	  398.73
     66.7700	  551.00	  587.06	-1766.82	  398.86
     66.8700	  564.00	  599.19	-1765.95	  399.00
     66.9700	  649.00	  618.43	-1700.19	  399.13
     67.0700	  645.00	  649.42	-1735.18	  399.27
     67.1700	  687.00	  698.85	-1742.61	  399.40
     67.2700	  756.00	  775.31	-1750.07	  399.54
     67.3700	  927.00	  888.18	-1691.94	  399.67
     67.4700	 1031.00	 1045.42	-1745.18	  399.80
     67.5700	 1279.00	 1249.85	-1701.61	  399.93
     67.6700	 1551.00	 1496.58	-1676.34	  400.07
     67.7700	 1812.00	 1769.18	-1687.94	  400.20
     67.8700	 2067.00	 2038.70	-1702.46	  400.33
     67.9700	 2240.00	 2264.38	-1755.14	  400.46
     68.0700	 2438.00	 2400.25	-1693.01	  400.59
     68.1700	 2449.00	 2411.67	-1693.43	  400.72
     68.2700	 2306.00	 2295.46	-1720.22	  400.85
     68.3700	 2114.00	 2082.05	-1698.81	  400.98
     68.4700	 1811.00	 1817.09	-1736.85	  401.11
     68.5700	 1526.00	 1542.91	-1747.67	  401.24
     68.6700	 1272.00	 1290.68	-1749.44	  401.37
     68.7700	 1052.00	 1078.89	-1757.65	  401.50
     68.8700	  883.00	  914.22	-1761.98	  401.63
     68.9700	  747.00	  794.85	-1778.61	  401.75
     69.0700	  758.00	  713.36	-1686.13	  401.88
     69.1700	  633.00	  660.50	-1758.26	  402.01
     69.2700	  621.00	  627.42	-1737.18	  402.13
     69.3700	  596.00	  607.06	-1741.82	  402.26
     69.4700	  557.00	  594.44	-1768.20	  402.38
     69.5700	  599.00	  586.38	-1718.14	  402.51
     69.6700	  596.00	  581.02	-1715.78	  402.63
     69.7700	  590.00	  577.33	-1718.09	  402.75
     69.8700	  561.00	  574.76	-1744.52	  402.88
     69.9700	  540.00	  573.06	-1763.82	  403.00
     70.0700	  581.00	  572.08	-1721.84	  403.12
     70.1700	  530.00	  571.77	-1772.53	  403.24
     70.2700	  573.00	  572.18	-1729.94	  403.36
     70.3700	  596.00	  573.35	-1708.11	  403.48
     70.4700	  562.00	  575.52	-1744.28	  403.60
     70.5700	  571.00	  579.13	-1738.89	  403.72
     70.6700	  590.00	  585.01	-1725.77	  403.83
     70.7700	  546.00	  594.59	-1779.35	  403.95
     70.8700	  594.00	  610.21	-1746.97	  404.07
     70.9700	  633.00	  635.32	-1733.08	  404.18
     71.0700	  617.00	  674.69	-1788.45	  404.30
     71.1700	  703.00	  734.01	-1761.78	  404.41
     71.2700	  831.00	  819.19	-1718.95	  404.53
     71.3700	  891.00	  935.70	-1775.46	  404.64
     71.4700	 1068.00	 1083.24	-1746.00	  404.75
     71.5700	 1239.00	 1258.94	-1750.70	  404.86
     71.6700	 1352.00	 1452.25	-1831.01	  404.97
     71.7700	 1631.00	 1645.20	-1744.96	  405.08
     71.8700	 1769.00	 1813.06	-1774.82	  405.19
     71.9700	 1884.00	 1927.21	-1773.97	  405.30
     72.0700	 1919.00	 1963.35	-1775.11	  405.41
     72.1700	 1982.00	 1912.83	-1661.59	  405.52
     72.2700	 1785.00	 1788.04	-1733.80	  405.62
     72.3700	 1629.00	 1614.55	-1716.31	  405.73
     72.4700	 1589.00	 1421.50	-1563.26	  405.83
     72.5700	 1369.00	 1231.85	-1593.61	  405.94
     72.6700	 1203.00	 1061.95	-1589.71	  406.04
     72.7700	 1035.00	  920.73	-1616.49	  406.14
     72.8700	 1032.00	  810.60	-1509.36	  406.24
     72.9700	  878.00	  729.39	-1582.15	  406.34
     73.0700	  829.00	  672.23	-1573.99	  406.44
     73.1700	  679.00	  633.46	-1685.22	  406.54
     73.2700	  700.00	  607.76	-1638.52	  406.64
     73.3700	  692.00	  590.84	-1629.60	  406.74
     73.4700	  630.00	  579.61	-1680.37	  406.83
     73.5700	  630.00	  572.01	-1672.77	  406.93
     73.6700	  661.00	  566.77	-1636.53	  407.02
     73.7700	  590.00	  563.13	-1703.89	  407.12
     73.8700	  579.00	  560.66	-1712.42	  407.21
     73.9700	  592.00	  559.09	-1697.85	  407.30
     74.0700	  593.00	  558.24	-1696.00	  407.39
     74.1700	  618.00	  557.95	-1670.71	  407.48
     74.2700	  631.00	  558.05	-1657.81	  407.57
     74.3700	  602.00	  558.34	-1687.10	  407.65
     74.4700	  639.00	  558.60	-1650.36	  407.74
     74.5700	  631.00	  558.60	-1658.36	  407.83
     74.6700	  659.00	  558.15	-1629.91	  407.91
     74.7700	  655.00	  557.19	-1632.95	  407.99
     74.8700	  628.00	  555.84	-1658.60	  408.08
     74.9700	  688.00	  554.30	-1597.06	  408.16
     75.0700	  586.00	  552.85	-1697.61	  408.24
     75.1700	  572.00	  551.74	-1710.50	  408.32
     75.2700	  584.00	  551.29	-1698.06	  408.40
     75.3700	  582.00	  551.96	-1700.72	  408.47
     75.4700	  573.00	  554.09	-1711.85	  408.55
     75.5700	  583.00	  558.19	-1705.95	  408.62
     75.6700	  559.00	  564.68	-1736.44	  408.70
     75.7700	  563.00	  574.27	-1742.03	  408.77
     75.8700	  609.00	  587.21	-1708.97	  408.84
     75.9700	  594.00	  603.51	-1740.27	  408.91
     76.0700	  593.00	  622.73	-1760.49	  408.98
     76.1700	  672.00	  643.80	-1702.56	  409.05
     76.2700	  677.00	  665.03	-1718.79	  409.12
     76.3700	  702.00	  684.11	-1712.87	  409.18
     76.4700	  703.00	  698.35	-1726.11	  409.25
     76.5700	  701.00	  705.24	-1735.00	  409.31
     76.6700	  688.00	  703.36	-1746.12	  409.38
     76.7700	  708.00	  693.09	-1715.85	  409.44
     76.8700	  645.00	  676.37	-1762.13	  409.50
     76.9700	  608.00	  655.71	-1778.47	  409.56
     77.0700	  583.00	  634.04	-1781.80	  409.61
     77.1700	  605.00	  613.24	-1739.00	  409.67
     77.2700	  525.00	  594.75	-1800.51	  409.73
     77.3700	  520.00	  579.35	-1790.11	  409.78
     77.4700	  567.00	  567.25	-1731.01	  409.83
     77.5700	  561.00	  558.25	-1728.01	  409.88
     77.6700	  552.00	  551.86	-1730.62	  409.93
     77.7700	  533.00	  547.51	-1745.27	  409.98
     77.8700	  505.00	  544.65	-1770.41	  410.03
     77.9700	  565.00	  542.82	-1708.58	  410.08
     78.0700	  568.00	  541.67	-1704.43	  410.12
     78.1700	  520.00	  540.94	-1751.70	  410.17
     78.2700	  495.00	  540.48	-1776.24	  410.21
     78.3700	  519.00	  540.20	-1751.96	  410.25
     78.4700	  563.00	  540.05	-1707.81	  410.29
     78.5700	  531.00	  539.99	-1739.75	  410.33
     78.6700	  548.00	  540.02	-1722.78	  410.37
     78.7700	  537.00	  540.15	-1733.91	  410.40
     78.8700	  492.00	  540.39	-1779.16	  410.44
     78.9700	  517.00	  540.79	-1754.55	  410.47
     79.0700	  514.00	  541.37	-1758.13	  410.51
     79.1700	  503.00	  542.19	-1769.95	  410.54
     79.2700	  582.00	  543.13	-1691.90	  410.57
     79.3700	  569.00	  544.62	-1706.38	  410.59
     79.4700	  523.00	  546.55	-1754.31	  410.62
     79.5700	  506.00	  548.99	-1773.75	  410.65
     79.6700	  483.00	  552.05	-1799.81	  410.67
     79.7700	  528.00	  555.85	-1758.61	  410.69
     79.8700	  503.00	  560.52	-1788.28	  410.71
     79.9700	  578.00	  566.26	-1719.02	  410.73
     80.0700	  557.00	  573.29	-1747.05	  410.75
     80.1700	  566.00	  581.89	-1746.65	  410.77
     80.2700	  581.00	  592.35	-1742.11	  410.79
     80.3700	  544.00	  604.92	-1791.68	  410.80
     80.4700	  620.00	  619.70	-1730.46	  410.81
     80.5700	  607.00	  636.49	-1760.25	  410.82
     80.6700	  647.00	  654.78	-1738.54	  410.83
     80.7700	  643.00	  673.65	-1761.41	  410.84
     80.8700	  668.00	  691.83	-1754.59	  410.85
     80.9700	  682.00	  707.90	-1756.66	  410.86
     81.0700	  727.00	  720.54	-1724.30	  410.86
     81.1700	  715.00	  728.78	-1744.54	  410.86
     81.2700	  723.00	  732.06	-1739.82	  410.86
     81.3700	  748.00	  730.20	-1712.96	  410.86
     81.4700	  706.00	  723.50	-1748.26	  410.86
     81.5700	  783.00	  712.63	-1660.39	  410.86
     81.6700	  796.00	  698.47	-1633.23	  410.86
     81.7700	  755.00	  681.98	-1657.74	  410.85
     81.8700	  733.00	  664.17	-1661.93	  410.84
     81.9700	  687.00	  646.02	-1689.78	  410.83
     82.0700	  695.00	  628.59	-1664.35	  410.82
     82.1700	  655.00	  612.56	-1688.32	  410.81
     82.2700	  644.00	  598.40	-1685.16	  410.80
     82.3700	  620.00	  586.32	-1697.08	  410.78
     82.4700	  583.00	  576.37	-1724.13	  410.77
     82.5700	  590.00	  568.47	-1709.23	  410.75
     82.6700	  561.00	  562.55	-1732.31	  410.73
     82.7700	  571.00	  558.42	-1718.18	  410.71
     82.8700	  529.00	  555.95	-1757.72	  410.69
     82.9700	  533.00	  555.01	-1752.77	  410.66
     83.0700	  532.00	  555.48	-1754.24	  410.64
     83.1700	  553.00	  557.26	-1735.02	  410.61
     83.2700	  528.00	  560.24	-1763.00	  410.58
     83.3700	  582.00	  564.25	-1713.01	  410.55
     83.4700	  569.00	  569.05	-1730.82	  410.52
     83.5700	  567.00	  574.34	-1738.10	  410.48
     83.6700	  569.00	  579.67	-1741.44	  410.45
     83.7700	  575.00	  584.55	-1740.31	  410.41
     83.8700	  554.00	  588.39	-1765.15	  410.38
     83.9700	  533.00	  590.64	-1788.40	  410.34
     84.0700	  578.00	  590.91	-1743.67	  410.29
     84.1700	  518.00	  589.12	-1801.88	  410.25
     84.2700	  607.00	  585.51	-1709.27	  410.21
     84.3700	  573.00	  580.57	-1738.33	  410.16
     84.4700	  533.00	  574.85	-1772.61	  410.11
     84.5700	  565.00	  568.86	-1734.63	  410.07
     84.6700	  545.00	  563.05	-1748.81	  410.02
     84.7700	  519.00	  557.71	-1769.47	  409.96
     84.8700	  529.00	  553.05	-1754.81	  409.91
     84.9700	  519.00	  549.18	-1760.94	  409.85
     85.0700	  566.00	  546.09	-1710.86	  409.80
     85.1700	  566.00	  543.75	-1708.51	  409.74
     85.2700	  506.00	  542.06	-1766.82	  409.68
     85.3700	  527.00	  540.92	-1744.68	  409.62
     85.4700	  504.00	  540.23	-1766.99	  409.55
     85.5700	  550.00	  539.91	-1720.67	  409.49
     85.6700	  517.00	  539.91	-1753.67	  409.42
     85.7700	  497.00	  540.19	-1773.95	  409.36
     85.8700	  515.00	  540.77	-1756.53	  409.29
     85.9700	  502.00	  541.70	-1770.46	  409.22
     86.0700	  507.00	  543.04	-1766.80	  409.14
     86.1700	  547.00	  544.91	-1728.67	  409.07
     86.2700	  533.00	  547.45	-1745.21	  408.99
     86.3700	  557.00	  550.80	-1724.56	  408.91
     86.4700	  540.00	  555.12	-1745.88	  408.84
     86.5700	  618.00	  560.53	-1673.29	  408.76
     86.6700	  557.00	  567.07	-1740.83	  408.67
     86.7700	  638.00	  574.39	-1667.15	  408.59
     86.8700	  576.00	  582.90	-1737.66	  408.50
     86.9700	  575.00	  591.93	-1747.69	  408.42
     87.0700	  608.00	  600.96	-1723.72	  408.33
     87.1700	  630.00	  609.32	-1710.08	  408.24
     87.2700	  611.00	  616.26	-1736.02	  408.15
     87.3700	  606.00	  621.00	-1745.76	  408.05
     87.4700	  662.00	  622.94	-1691.70	  407.96
     87.5700	  640.00	  621.82	-1712.58	  407.86
     87.6700	  603.00	  617.82	-1745.58	  407.76
     87.7700	  688.00	  611.52	-1654.29	  407.66
     87.8700	  632.00	  603.74	-1702.50	  407.56
     87.9700	  597.00	  595.33	-1729.09	  407.46
     88.0700	  618.00	  587.07	-1699.83	  407.35
     88.1700	  602.00	  579.65	-1708.41	  407.25
     88.2700	  620.00	  573.58	-1684.34	  407.14
     88.3700	  555.00	  569.20	-1744.96	  407.03
     88.4700	  580.00	  566.69	-1717.45	  406.92
     88.5700	  544.00	  566.05	-1752.81	  406.81
     88.6700	  596.00	  567.15	-1701.91	  406.69
     88.7700	  615.00	  569.73	-1685.49	  406.58
     88.8700	  604.00	  573.43	-1700.19	  406.46
     88.9700	  586.00	  577.80	-1722.56	  406.34
     89.0700	  582.00	  582.35	-1731.11	  406.22
     89.1700	  597.00	  586.54	-1720.30	  406.10
     89.2700	  596.00	  589.82	-1724.58	  405.98
     89.3700	  586.00	  591.72	-1736.48	  405.85
     89.4700	  555.00	  591.92	-1767.68	  405.72
     89.5700	  572.00	  590.34	-1749.10	  405.60
     89.6700	  546.00	  587.16	-1771.92	  405.47
     89.7700	  556.00	  582.73	-1757.49	  405.33
     89.8700	  574.00	  577.50	-1734.27	  405.20
     89.9700	  536.00	  571.90	-1766.67	  405.07
     90.0700	  517.00	  566.31	-1780.07	  404.93
     90.1700	  533.00	  561.02	-1758.78	  404.79
     90.2700	  564.00	  556.26	-1723.02	  404.65
     90.3700	  570.00	  552.15	-1712.92	  404.51
     90.4700	  561.00	  548.77	-1718.53	  404.37
     90.5700	  512.00	  546.10	-1764.86	  404.23
     90.6700	  507.00	  544.09	-1767.85	  404.08
     90.7700	  523.00	  542.68	-1750.44	  403.94
     90.8700	  531.00	  541.78	-1741.54	  403.79
     90.9700	  550.00	  541.32	-1722.08	  403.64
     91.0700	  476.00	  541.26	-1796.02	  403.49
     91.1700	  543.00	  541.56	-1729.32	  403.33
     91.2700	  526.00	  542.24	-1747.00	  403.18
     91.3700	  474.00	  543.35	-1800.11	  403.02
     91.4700	  553.00	  544.98	-1722.74	  402.87
     91.5700	  530.00	  547.27	-1748.04	  402.71
     91.6700	  547.00	  550.39	-1734.15	  402.55
     91.7700	  519.00	  554.54	-1766.30	  402.39
     91.8700	  531.00	  559.73	-1759.49	  402.22
     91.9700	  545.00	  566.61	-1752.37	  402.06
     92.0700	  530.00	  575.14	-1775.91	  401.89
     92.1700	  570.00	  585.48	-1746.24	  401.73
     92.2700	  574.00	  597.64	-1754.41	  401.56
     92.3700	  584.00	  611.59	-1758.35	  401.39
     92.4700	  622.00	  627.10	-1735.86	  401.21
     92.5700	  611.00	  643.83	-1763.59	  401.04
     92.6700	  724.00	  661.28	-1668.04	  400.87
     92.7700	  683.00	  678.82	-1726.58	  400.69
     92.8700	  732.00	  695.72	-1694.48	  400.51
     92.9700	  781.00	  711.21	-1660.97	  400.33
     93.0700	  753.00	  724.67	-1702.43	  400.15
     93.1700	  806.00	  735.76	-1660.52	  399.97
     93.2700	  830.00	  744.58	-1645.34	  399.79
     93.3700	  809.00	  751.62	-1673.38	  399.60
     93.4700	  786.00	  757.61	-1702.37	  399.42
     93.5700	  827.00	  763.35	-1667.11	  399.23
     93.6700	  869.00	  769.55	-1631.31	  399.04
     93.7700	  866.00	  776.85	-1641.61	  398.85
     93.8700	  882.00	  785.76	-1634.52	  398.66
     93.9700	  853.00	  796.71	-1674.47	  398.47
     94.0700	  855.00	  810.01	-1685.77	  398.28
     94.1700	  851.00	  825.70	-1705.47	  398.08
     94.2700	  877.00	  843.52	-1697.28	  397.88
     94.3700	  896.00	  862.71	-1697.47	  397.69
     94.4700	  869.00	  882.10	-1743.86	  397.49
     94.5700	  913.00	  900.10	-1717.86	  397.29
     94.6700	  908.00	  914.81	-1737.57	  397.08
     94.7700	  911.00	  924.30	-1744.06	  396.88
     94.8700	  941.00	  926.91	-1716.67	  396.68
     94.9700	  847.00	  921.68	-1805.44	  396.47
     95.0700	  865.00	  908.63	-1774.39	  396.27
     95.1700	  904.00	  888.75	-1715.51	  396.06
     95.2700	  818.00	  863.72	-1776.48	  395.85
     95.3700	  831.00	  835.54	-1735.30	  395.64
     95.4700	  747.00	  806.29	-1790.05	  395.43
     95.5700	  739.00	  777.97	-1769.73	  395.21
     95.6700	  707.00	  752.40	-1776.16	  395.00
     95.7700	  703.00	  731.24	-1759.00	  394.79
     95.8700	  668.00	  715.96	-1778.73	  394.57
     95.9700	  643.00	  707.89	-1795.65	  394.35
     96.0700	  699.00	  708.13	-1739.89	  394.13
     96.1700	  703.00	  717.65	-1745.41	  393.91
     96.2700	  808.00	  737.21	-1659.97	  393.69
     96.3700	  765.00	  767.30	-1733.06	  393.47
     96.4700	  847.00	  808.09	-1691.85	  393.25
     96.5700	  769.00	  859.28	-1821.04	  393.02
     96.6700	  875.00	  920.08	-1775.84	  392.80
     96.7700	 1001.00	  989.05	-1718.81	  392.57
     96.8700	 1072.00	 1064.01	-1722.78	  392.35
     96.9700	 1117.00	 1142.10	-1755.86	  392.12
     97.0700	 1261.00	 1219.72	-1689.49	  391.89
     97.1700	 1232.00	 1292.72	-1791.48	  391.66
     97.2700	 1364.00	 1356.52	-1723.28	  391.43
     97.3700	 1349.00	 1406.50	-1788.27	  391.20
     97.4700	 1425.00	 1438.65	-1744.41	  390.96
     97.5700	 1460.00	 1450.25	-1721.01	  390.73
     97.6700	 1421.00	 1440.55	-1750.32	  390.49
     97.7700	 1456.00	 1410.89	-1685.66	  390.26
     97.8700	 1384.00	 1364.34	-1711.10	  390.02
     97.9700	 1262.00	 1304.98	-1773.74	  389.78
     98.0700	 1181.00	 1237.33	-1787.09	  389.54
     98.1700	 1171.00	 1165.78	-1725.54	  389.30
     98.2700	 1083.00	 1094.34	-1742.10	  389.06
     98.3700	 1012.00	 1026.55	-1745.31	  388.82
     98.4700	  976.00	  965.32	-1720.08	  388.58
     98.5700	  921.00	  913.03	-1722.79	  388.34
     98.6700	  879.00	  871.44	-1723.20	  388.09
     98.7700	  824.00	  841.89	-1748.65	  387.85
     98.8700	  780.00	  825.33	-1776.09	  387.60
     98.9700	  763.00	  822.37	-1790.13	  387.36
     99.0700	  793.00	  833.43	-1771.19	  387.11
     99.1700	  825.00	  858.69	-1764.45	  386.86
     99.2700	  909.00	  898.14	-1719.91	  386.61
     99.3700	  913.00	  951.59	-1769.35	  386.36
     99.4700	 1020.00	 1018.52	-1729.28	  386.11
     99.5700	 1110.00	 1098.10	-1718.86	  385.86
     99.6700	 1175.00	 1189.01	-1744.77	  385.61
     99.7700	 1306.00	 1289.34	-1714.10	  385.36
     99.8700	 1346.00	 1396.60	-1781.36	  385.11
     99.9700	 1483.00	 1507.52	-1755.28	  384.85
    100.0700	 1661.00	 1618.24	-1688.00	  384.60
    100.1700	 1793.00	 1724.35	-1662.11	  384.35
    100.2700	 1799.00	 1821.36	-1753.13	  384.09
    100.3700	 1968.00	 1905.23	-1667.99	  383.84
    100.4700	 1997.00	 1972.65	-1706.41	  383.58
    100.5700	 2046.00	 2021.34	-1706.10	  383.32
    100.6700	 2078.00	 2049.78	-1702.54	  383.07
    100.7700	 2022.00	 2057.08	-1765.84	  382.81
    100.8700	 2087.00	 2042.85	-1686.61	  382.55
    100.9700	 2135.00	 2007.48	-1603.24	  382.29
    101.0700	 2015.00	 1952.48	-1668.24	  382.03
    101.1700	 1850.00	 1880.75	-1761.51	  381.78
    101.2700	 1819.00	 1796.50	-1708.26	  381.52
    101.3700	 1671.00	 1704.64	-1764.40	  381.26
    101.4700	 1635.00	 1610.31	-1706.07	  381.00
    101.5700	 1564.00	 1518.15	-1684.91	  380.73
    101.6700	 1415.00	 1432.08	-1747.84	  380.47
    101.7700	 1425.00	 1355.01	-1660.77	  380.21
    101.8700	 1316.00	 1288.72	-1703.48	  379.95
    101.9700	 1229.00	 1233.98	-1735.74	  379.69
    102.0700	 1183.00	 1190.44	-1738.20	  379.43
    102.1700	 1094.00	 1156.90	-1793.66	  379.16
    102.2700	 1163.00	 1131.39	-1699.15	  378.90
    102.3700	 1110.00	 1111.34	-1732.10	  378.64
    102.4700	 1125.00	 1093.99	-1699.75	  378.38
    102.5700	 1096.00	 1076.60	-1711.36	  378.11
    102.6700	 1065.00	 1056.89	-1722.65	  377.85
    102.7700	 1007.00	 1033.30	-1757.06	  377.59
    102.8700	 1008.00	 1005.14	-1727.91	  377.32
    102.9700	  959.00	  972.56	-1744.32	  377.06
    103.0700	  908.00	  936.30	-1759.06	  376.80
    103.1700	  831.00	  897.45	-1797.21	  376.53
    103.2700	  806.00	  857.31	-1782.07	  376.27
    103.3700	  793.00	  817.13	-1754.89	  376.01
    103.4700	  777.00	  778.09	-1731.85	  375.74
    103.5700	  741.00	  741.17	-1730.93	  375.48
    103.6700	  711.00	  707.17	-1726.93	  375.22
    103.7700	  693.00	  676.64	-1714.40	  374.95
    103.8700	  623.00	  649.89	-1757.65	  374.69
    103.9700	  652.00	  627.04	-1705.80	  374.43
    104.0700	  668.00	  607.99	-1670.75	  374.16
    104.1700	  600.00	  592.53	-1723.29	  373.90
    104.2700	  596.00	  580.34	-1715.10	  373.64
    104.3700	  554.00	  571.03	-1747.79	  373.38
    104.4700	  546.00	  564.22	-1748.98	  373.12
    104.5700	  526.00	  559.50	-1764.26	  372.85
    104.6700	  565.00	  556.51	-1722.28	  372.59
    104.7700	  550.00	  554.92	-1735.69	  372.33
    104.8700	  532.00	  554.45	-1753.21	  372.07
    104.9700	  554.00	  554.82	-1731.58	  371.81
    105.0700	  544.00	  555.89	-1742.65	  371.55
    105.1700	  558.00	  557.49	-1730.25	  371.29
    105.2700	  542.00	  559.50	-1748.26	  371.03
    105.3700	  538.00	  561.84	-1754.60	  370.78
    105.4700	  570.00	  564.50	-1725.26	  370.52
    105.5700	  551.00	  567.50	-1747.26	  370.26
    105.6700	  539.00	  570.88	-1762.64	  370.00
    105.7700	  530.00	  574.74	-1775.50	  369.75
    105.8700	  594.00	  579.20	-1715.96	  369.49
    105.9700	  543.00	  584.38	-1772.14	  369.24
    106.0700	  560.00	  590.37	-1761.13	  368.98
    106.1700	  563.00	  597.24	-1765.00	  368.73
    106.2700	  611.00	  604.99	-1724.75	  368.48
    106.3700	  594.00	  613.54	-1750.30	  368.23
    106.4700	  609.00	  622.76	-1744.52	  367.98
    106.5700	  577.00	  632.45	-1786.21	  367.72
    106.6700	  654.00	  642.32	-1719.08	  367.48
    106.7700	  620.00	  652.03	-1762.79	  367.23
    106.8700	  642.00	  661.20	-1749.96	  366.98
    106.9700	  662.00	  669.42	-1738.18	  366.73
    107.0700	  640.00	  676.32	-1767.08	  366.49
    107.1700	  665.00	  681.59	-1747.35	  366.24
    107.2700	  651.00	  685.03	-1764.79	  366.00
    107.3700	  657.00	  686.63	-1760.39	  365.75
    107.4700	  696.00	  686.54	-1721.30	  365.51
    107.5700	  674.00	  685.09	-1741.85	  365.27
    107.6700	  661.00	  682.70	-1752.46	  365.03
    107.7700	  663.00	  679.81	-1747.57	  364.79
    107.8700	  706.00	  676.88	-1701.64	  364.55
    107.9700	  653.00	  674.27	-1752.03	  364.32
    108.0700	  687.00	  672.27	-1716.03	  364.08
    108.1700	  668.00	  671.05	-1733.81	  363.85
    108.2700	  741.00	  670.66	-1660.42	  363.62
    108.3700	  648.00	  671.03	-1753.79	  363.39
    108.4700	  669.00	  671.99	-1733.75	  363.16
    108.5700	  681.00	  673.26	-1723.02	  362.93
    108.6700	  652.00	  674.46	-1753.22	  362.70
    108.7700	  685.00	  675.20	-1720.97	  362.47
    108.8700	  698.00	  675.07	-1707.83	  362.25
    108.9700	  710.00	  673.72	-1694.48	  362.03
    109.0700	  634.00	  670.89	-1767.65	  361.81
    109.1700	  648.00	  666.46	-1749.22	  361.59
    109.2700	  693.00	  660.44	-1698.20	  361.37
    109.3700	  605.00	  653.00	-1778.77	  361.15
    109.4700	  650.00	  644.40	-1725.16	  360.94
    109.5700	  620.00	  634.94	-1745.70	  360.72
    109.6700	  641.00	  624.96	-1714.72	  360.51
    109.7700	  661.00	  614.79	-1684.55	  360.30
    109.8700	  608.00	  604.73	-1727.49	  360.10
    109.9700	  649.00	  595.07	-1676.83	  359.89
    110.0700	  621.00	  586.03	-1695.79	  359.69
    110.1700	  562.00	  577.78	-1746.54	  359.48
    110.2700	  601.00	  570.45	-1700.21	  359.28
    110.3700	  558.00	  564.11	-1736.87	  359.08
    110.4700	  589.00	  558.79	-1700.55	  358.89
    110.5700	  580.00	  554.46	-1705.22	  358.69
    110.6700	  559.00	  551.09	-1722.85	  358.50
    110.7700	  563.00	  548.60	-1716.36	  358.31
    110.8700	  535.00	  546.91	-1742.67	  358.12
    110.9700	  499.00	  545.93	-1777.69	  357.94
    111.0700	  537.00	  545.57	-1739.33	  357.75
    111.1700	  546.00	  545.73	-1730.49	  357.57
    111.2700	  525.00	  546.35	-1752.11	  357.39
    111.3700	  537.00	  547.36	-1741.12	  357.22
    111.4700	  509.00	  548.69	-1770.45	  357.04
    111.5700	  563.00	  550.31	-1718.07	  356.87
    111.6700	  535.00	  552.18	-1747.94	  356.70
    111.7700	  533.00	  554.27	-1752.03	  356.53
    111.8700	  562.00	  556.58	-1725.34	  356.37
    111.9700	  520.00	  559.09	-1769.85	  356.21
    112.0700	  533.00	  561.81	-1759.57	  356.05
    112.1700	  578.00	  564.75	-1717.52	  355.89
    112.2700	  585.00	  567.94	-1713.70	  355.74
    112.3700	  655.00	  571.40	-1647.16	  355.58
    112.4700	  554.00	  575.17	-1751.93	  355.44
    112.5700	  572.00	  579.31	-1738.07	  355.29
    112.6700	  630.00	  583.87	-1684.63	  355.15
    112.7700	  654.00	  588.96	-1665.72	  355.00
    112.8700	  675.00	  594.67	-1650.43	  354.87
    112.9700	  634.00	  601.16	-1697.93	  354.73
    113.0700	  702.00	  608.61	-1637.38	  354.60
    113.1700	  719.00	  617.29	-1629.05	  354.47
    113.2700	  750.00	  627.50	-1608.26	  354.35
    113.3700	  774.00	  639.65	-1596.41	  354.22
    113.4700	  743.00	  654.25	-1642.01	  354.10
    113.5700	  793.00	  671.94	-1609.70	  353.99
    113.6700	  857.00	  693.51	-1567.27	  353.87
    113.7700	  872.00	  719.93	-1578.69	  353.76
    113.8700	  941.00	  752.35	-1542.11	  353.66
    113.9700	  924.00	  792.13	-1598.89	  353.55
    114.0700	 1036.00	  840.83	-1535.59	  353.45
    114.1700	 1022.00	  900.27	-1609.03	  353.36
    114.2700	 1050.00	  972.41	-1653.17	  353.26
    114.3700	 1258.00	 1059.41	-1532.18	  353.17
    114.4700	 1361.00	 1163.54	-1533.30	  353.09
    114.5700	 1416.00	 1287.11	-1601.87	  353.00
    114.6700	 1533.00	 1432.43	-1630.19	  352.93
    114.7700	 1671.00	 1601.59	-1661.35	  352.85
    114.8700	 1916.00	 1796.40	-1611.16	  352.78
    114.9700	 2114.00	 2018.22	-1634.98	  352.71
    115.0700	 2427.00	 2267.86	-1571.62	  352.65
    115.1700	 2578.00	 2545.40	-1698.16	  352.59
    115.2700	 2855.00	 2849.94	-1725.70	  352.53
    115.3700	 3133.00	 3179.62	-1777.38	  352.48
    115.4700	 3492.00	 3531.39	-1770.15	  352.43
    115.5700	 3723.00	 3901.11	-1908.87	  352.38
    115.6700	 4077.00	 4283.45	-1937.21	  352.34
    115.7700	 4423.00	 4671.74	-1979.50	  352.31
    115.8700	 4783.00	 5058.21	-2005.97	  352.27
    115.9700	 5212.00	 5433.92	-1952.68	  352.25
    116.0700	 5486.00	 5789.14	-2033.90	  352.22
    116.1700	 6086.00	 6113.47	-1758.23	  352.20
    116.2700	 6220.00	 6396.11	-1906.87	  352.19
    116.3700	 6476.00	 6626.64	-1881.40	  352.18
    116.4700	 6826.00	 6795.70	-1700.47	  352.17
    116.5700	 6845.00	 6896.01	-1781.77	  352.17
    116.6700	 6861.00	 6923.04	-1792.80	  352.17
    116.7700	 6892.00	 6875.73	-1714.49	  352.18
    116.8700	 6892.00	 6756.58	-1595.34	  352.19
    116.9700	 6687.00	 6571.37	-1615.13	  352.21
    117.0700	 6428.00	 6328.32	-1631.08	  352.23
    117.1700	 6149.00	 6037.22	-1618.98	  352.25
    117.2700	 5727.00	 5708.69	-1712.45	  352.28
    117.3700	 5322.00	 5353.32	-1762.08	  352.32
    117.4700	 5103.00	 4981.30	-1609.06	  352.36
    117.5700	 4653.00	 4601.89	-1679.65	  352.40
    117.6700	 4290.00	 4223.30	-1664.06	  352.45
    117.7700	 4002.00	 3852.75	-1581.51	  352.51
    117.8700	 3671.00	 3496.19	-1555.95	  352.57
    117.9700	 3241.00	 3158.37	-1648.13	  352.64
    118.0700	 2944.00	 2842.77	-1629.53	  352.71
    118.1700	 2573.00	 2551.74	-1709.50	  352.78
    118.2700	 2297.00	 2286.69	-1720.45	  352.86
    118.3700	 2047.00	 2048.09	-1731.85	  352.95
    118.4700	 1742.00	 1835.66	-1824.42	  353.04
    118.5700	 1600.00	 1648.42	-1779.18	  353.14
    118.6700	 1405.00	 1484.94	-1810.70	  353.24
    118.7700	 1243.00	 1343.47	-1831.23	  353.35
    118.8700	 1089.00	 1222.03	-1863.79	  353.47
    118.9700	 1062.00	 1118.54	-1787.30	  353.59
    119.0700	  993.00	 1030.89	-1768.65	  353.71
    119.1700	  866.00	  957.02	-1821.78	  353.84
    119.2700	  870.00	  895.04	-1755.80	  353.98
    119.3700	  770.00	  843.19	-1803.95	  354.12
    119.4700	  710.00	  799.92	-1820.68	  354.27
    119.5700	  708.00	  763.85	-1786.61	  354.43
    119.6700	  663.00	  733.77	-1801.53	  354.59
    119.7700	  665.00	  708.69	-1774.45	  354.75
    119.8700	  635.00	  687.75	-1783.51	  354.93
    119.9700	  635.00	  670.25	-1766.01	  355.11
    120.0700	  649.00	  655.61	-1737.37	  355.29
    120.1700	  573.00	  643.36	-1801.12	  355.48
    120.2700	  576.00	  633.10	-1787.86	  355.68
    120.3700	  589.00	  624.54	-1766.31	  355.89
    120.4700	  558.00	  617.43	-1790.20	  356.10
    120.5700	  572.00	  611.58	-1770.34	  356.32
    120.6700	  588.00	  606.81	-1749.57	  356.54
    120.7700	  575.00	  603.03	-1758.79	  356.77
    120.8700	  571.00	  600.12	-1759.88	  357.01
    120.9700	  585.00	  598.01	-1743.77	  357.25
    121.0700	  580.00	  596.65	-1747.41	  357.50
    121.1700	  557.00	  595.97	-1769.73	  357.76
    121.2700	  580.00	  595.93	-1746.69	  358.03
    121.3700	  582.00	  596.49	-1745.25	  358.30
    121.4700	  542.00	  597.60	-1786.36	  358.58
    121.5700	  559.00	  599.20	-1770.96	  358.86
    121.6700	  583.00	  601.25	-1749.01	  359.16
    121.7700	  590.00	  603.67	-1744.43	  359.46
    121.8700	  554.00	  606.39	-1783.15	  359.77
    121.9700	  589.00	  609.36	-1751.12	  360.08
    122.0700	  635.00	  612.47	-1708.23	  360.40
    122.1700	  621.00	  615.63	-1725.39	  360.73
    122.2700	  617.00	  618.73	-1732.50	  361.07
    122.3700	  591.00	  621.69	-1761.45	  361.42
    122.4700	  617.00	  624.38	-1738.14	  361.77
    122.5700	  656.00	  626.72	-1701.48	  362.13
    122.6700	  620.00	  628.61	-1739.37	  362.50
    122.7700	  636.00	  629.98	-1724.74	  362.87
    122.8700	  629.00	  630.76	-1732.53	  363.26
    122.9700	  696.00	  630.94	-1665.70	  363.65
    123.0700	  672.00	  630.51	-1689.27	  364.05
    123.1700	  658.00	  629.48	-1702.24	  364.46
    123.2700	  646.00	  627.91	-1712.67	  364.87
    123.3700	  621.00	  625.84	-1735.60	  365.30
    123.4700	  629.00	  623.35	-1725.11	  365.73
    123.5700	  643.00	  620.51	-1708.27	  366.17
    123.6700	  650.00	  617.39	-1698.15	  366.62
    123.7700	  612.00	  614.08	-1732.84	  367.08
    123.8700	  654.00	  610.63	-1687.39	  367.54
    123.9700	  563.00	  607.12	-1774.89	  368.02
    124.0700	  639.00	  603.61	-1695.37	  368.50
    124.1700	  647.00	  600.15	-1683.91	  368.99
    124.2700	  660.00	  596.79	-1667.55	  369.50
    124.3700	  641.00	  593.57	-1683.33	  370.01
    124.4700	  633.00	  590.51	-1688.27	  370.52
    124.5700	  572.00	  587.64	-1746.40	  371.05
    124.6700	  601.00	  584.97	-1714.73	  371.59
    124.7700	  612.00	  582.53	-1701.29	  372.13
    124.8700	  564.00	  580.32	-1747.08	  372.69
    124.9700	  568.00	  490.64	-1653.40	  373.25
    125.0700	  603.00	  491.22	-1730.76	  373.83
    125.1700	  587.00	  491.80	-1730.76	  374.41
    125.2700	  546.00	  492.39	-1730.76	  375.00
    125.3700	  597.00	  492.99	-1730.76	  375.60
    125.4700	  562.00	  493.60	-1730.76	  376.21
    125.5700	  550.00	  494.23	-1730.76	  376.84
    125.6700	  582.00	  494.86	-1730.76	  377.47
    125.7700	  596.00	  495.50	-1730.76	  378.11
    125.8700	  591.00	  496.15	-1730.76	  378.76
    125.9700	  579.00	  496.81	-1730.76	  379.42
    126.0700	  546.00	  497.48	-1730.76	  380.09
    126.1700	  554.00	  498.16	-1730.76	  380.77
    126.2700	  551.00	  498.85	-1730.76	  381.46
    126.3700	  582.00	  499.55	-1730.76	  382.16
    126.4700	  600.00	  500.26	-1730.76	  382.87
    126.5700	  604.00	  500.98	-1730.76	  383.59
    126.6700	  623.00	  501.71	-1730.76	  384.32
    126.7700	  609.00	  502.46	-1730.76	  385.07
    126.8700	  616.00	  503.21	-1730.76	  385.82
    126.9700	  593.00	  503.97	-1730.76	  386.58
    127.0700	  582.00	  504.75	-1730.76	  387.36
    127.1700	  615.00	  505.53	-1730.76	  388.14
    127.2700	  663.00	  506.33	-1730.76	  388.94
    127.3700	  598.00	  507.13	-1730.76	  389.74
    127.4700	  662.00	  507.95	-1730.76	  390.56
    127.5700	  682.00	  508.78	-1730.76	  391.39
    127.6700	  707.00	  509.62	-1730.76	  392.23
    127.7700	  722.00	  510.47	-1730.76	  393.08
    127.8700	  708.00	  511.33	-1730.76	  393.94
    127.9700	  729.00	  512.21	-1730.76	  394.82
    128.0700	  734.00	  513.09	-1730.76	  395.70
    128.1700	  764.00	  513.99	-1730.76	  396.60
    128.2700	  778.00	  514.90	-1730.76	  397.51
    128.3700	  806.00	  515.82	-1730.76	  398.43
    128.4700	  778.00	  516.75	-1730.76	  399.36
    128.5700	    0.00	  517.69	-1730.76	  400.30
    128.6700	    1.00	  518.65	-1730.76	  401.26
     12.3049	        	        	        	        	       0	(  0  0  2)	  0  1
     24.8897	        	        	        	        	       0	(  0  0  4)	  0  1
     28.3285	        	        	        	        	       0	(  1  0  0)	  0  1
     29.0259	        	        	        	        	       0	(  1  0  1)	  0  1
     31.0325	        	        	        	        	       0	(  1  0  2)	  0  1
     34.1416	        	        	        	        	       0	(  1  0  3)	  0  1
     37.7907	        	        	        	        	       0	(  0  0  6)	  0  1
     38.1195	        	        	        	        	       0	(  1  0  4)	  0  1
     42.7704	        	        	        	        	       0	(  1  0  5)	  0  1
     47.9554	        	        	        	        	       0	(  1  0  6)	  0  1
     50.2656	        	        	        	        	       0	(  1  1  0)	  0  1
     51.2141	        	        	        	        	       0	(  0  0  8)	  0  1
     51.9890	        	        	        	        	       0	(  1  1  2)	  0  1
     53.5868	        	        	        	        	       0	(  1  0  7)	  0  1
     56.9380	        	        	        	        	       0	(  1  1  4)	  0  1
     58.7626	        	        	        	        	       0	(  2  0  0)	  0  1
     59.1543	        	        	        	        	       0	(  2  0  1)	  0  1
     59.6181	        	        	        	        	       0	(  1  0  8)	  0  1
     60.3200	        	        	        	        	       0	(  2  0  2)	  0  1
     62.2337	        	        	        	        	       0	(  2  0  3)	  0  1
     64.6343	        	        	        	        	       0	(  1  1  6)	  0  1
     64.8583	        	        	        	        	       0	(  2  0  4)	  0  1
     65.4450	        	        	        	        	       0	(  0  0 10)	  0  1
     66.0355	        	        	        	        	       0	(  1  0  9)	  0  1
     68.1533	        	        	        	        	       0	(  2  0  5)	  0  1
     72.0816	        	        	        	        	       0	(  2  0  6)	  0  1
     72.8527	        	        	        	        	       0	(  1  0 10)	  0  1
     74.6740	        	        	        	        	       0	(  1  1  8)	  0  1
     76.6167	        	        	        	        	       0	(  2  0  7)	  0  1
     80.1115	        	        	        	        	       0	(  1  0 11)	  0  1
     80.9277	        	        	        	        	       0	(  0  0 12)	  0  1
     81.0041	        	        	        	        	       0	(  2  1  0)	  0  1
     81.3441	        	        	        	        	       0	(  2  1  1)	  0  1
     81.7480	        	        	        	        	       0	(  2  0  8)	  0  1
     82.3621	        	        	        	        	       0	(  2  1  2)	  0  1
     84.0538	        	        	        	        	       0	(  2  1  3)	  0  1
     86.4140	        	        	        	        	       0	(  2  1  4)	  0  1
     86.9478	        	        	        	        	       0	(  1  1 10)	  0  1
     87.4872	        	        	        	        	       0	(  2  0  9)	  0  1
     87.8873	        	        	        	        	       0	(  1  0 12)	  0  1
     89.4405	        	        	        	        	       0	(  2  1  5)	  0  1
     93.1388	        	        	        	        	       0	(  2  1  6)	  0  1
     93.8760	        	        	        	        	       0	(  2  0 10)	  0  1
     94.8932	        	        	        	        	       0	(  3  0  0)	  0  1
     95.2306	        	        	        	        	       0	(  3  0  1)	  0  1
     96.2441	        	        	        	        	       0	(  3  0  2)	  0  1
     96.3022	        	        	        	        	       0	(  1  0 13)	  0  1
     97.5283	        	        	        	        	       0	(  2  1  7)	  0  1
     97.9378	        	        	        	        	       0	(  3  0  3)	  0  1
     98.4705	        	        	        	        	       0	(  0  0 14)	  0  1
    100.3213	        	        	        	        	       0	(  3  0  4)	  0  1
    100.9995	        	        	        	        	       0	(  2  0 11)	  0  1
    101.8215	        	        	        	        	       0	(  1  1 12)	  0  1
    102.6519	        	        	        	        	       0	(  2  1  8)	  0  1
    103.4136	        	        	        	        	       0	(  3  0  5)	  0  1
    105.5571	        	        	        	        	       0	(  1  0 14)	  0  1
    107.2496	        	        	        	        	       0	(  3  0  6)	  0  1
    108.5902	        	        	        	        	       0	(  2  1  9)	  0  1
    109.0128	        	        	        	        	       0	(  2  0 12)	  0  1
    111.8910	        	        	        	        	       0	(  3  0  7)	  0  1
    115.4889	        	        	        	        	       0	(  2  1 10)	  0  1
    116.0040	        	        	        	        	       0	(  1  0 15)	  0  1
    116.6189	        	        	        	        	       0	(  2  2  0)	  0  1
    117.4459	        	        	        	        	       0	(  3  0  8)	  0  1
    118.1345	        	        	        	        	       0	(  2  2  2)	  0  1
    118.2001	        	        	        	        	       0	(  2  0 13)	  0  1
    119.9658	        	        	        	        	       0	(  0  0 16)	  0  1
    120.6716	        	        	        	        	       0	(  1  1 14)	  0  1
    122.8211	        	        	        	        	       0	(  2  2  4)	  0  1
    123.6186	        	        	        	        	       0	(  2  1 11)	  0  1
    124.1078	        	        	        	        	       0	(  3  0  9)	  0  1
    124.6846	        	        	        	        	       0	(  3  1  0)	  0  1
    125.0949	        	        	        	        	       0	(  3  1  1)	  0  1
    126.3387	        	        	        	        	       0	(  3  1  2)	  0  1
    128.3535	        	        	        	        	       0	(  1  0 16)	  0  1
    128.4575	        	        	        	        	       0	(  3  1  3)	  0  1
    129.1350	        	        	        	        	       0	(  2  0 14)	  0  1
    131.2634	        	        	        	        	       0	(  2  2  6)	  0  1
    131.5343	        	        	        	        	       0	(  3  1  4)	  0  1
    132.2517	        	        	        	        	       0	(  3  0 10)	  0  1
    133.5356	        	        	        	        	       0	(  2  1 12)	  0  1
    135.7226	        	        	        	        	       0	(  3  1  5)	  0  1
    141.3202	        	        	        	        	       0	(  3  1  6)	  0  1
    142.7367	        	        	        	        	       0	(  3  0 11)	  0  1
    143.2871	        	        	        	        	       0	(  2  0 15)	  0  1
    144.5402	        	        	        	        	       0	(  1  0 17)	  0  1
    145.5039	        	        	        	        	       0	(  2  2  8)	  0  1
    146.7025	        	        	        	        	       0	(  2  1 13)	  0  1
    148.9977	        	        	        	        	       0	(  3  1  7)	  0  1
    149.6356	        	        	        	        	       0	(  1  1 16)	  0  1
    154.0642	        	        	        	        	       0	(  0  0 18)	  0  1
    158.6395	        	        	        	        	       0	(  3  0 12)	  0  1
    158.8489	        	        	        	        	       0	(  4  0  0)	  0  1
    159.8066	        	        	        	        	       0	(  4  0  1)	  0  1
    161.0062	        	        	        	        	       0	(  3  1  8)	  0  1
    162.9888	        	        	        	        	       0	(  4  0  2)	  0  1
    169.8725	        	        	        	        	       0	(  2  0 16)	  0  1
    170.3525	        	        	        	        	       0	(  4  0  3)	  0  1
    174.3930	        	        	        	        	       0	(  2  1 14)	  0  1
