MSG Master    CELL:    5.89969   5.89969  23.17011   90.0000   90.0000  120.0000   SPGR: P 63/m m c             TEMP:    776.45
  1   1280     2.52000     0.00000    -0.12744     0.00000     0.00000    0
    97     0     2
       0.00000      10.00000
     125.00000     130.00000
 2Theta	Yobs	Ycal	Yobs-Ycal	Backg	Posr	(hkl)	K
      0.7700	    0.00	  468.80	-1773.50	  365.81
      0.8700	    0.00	  471.07	-1773.50	  368.08
      0.9700	   46.00	  473.31	-1773.50	  370.32
      1.0700	   39.00	  475.53	-1773.50	  372.54
      1.1700	   42.00	  477.73	-1773.50	  374.74
      1.2700	   40.00	  479.91	-1773.50	  376.92
      1.3700	   44.00	  482.06	-1773.50	  379.07
      1.4700	  103.00	  484.19	-1773.50	  381.20
      1.5700	  282.00	  486.30	-1773.50	  383.31
      1.6700	  440.00	  488.39	-1773.50	  385.40
      1.7700	  568.00	  490.45	-1773.50	  387.46
      1.8700	  641.00	  492.49	-1773.50	  389.50
      1.9700	  735.00	  494.51	-1773.50	  391.52
      2.0700	  763.00	  496.51	-1773.50	  393.52
      2.1700	  773.00	  498.48	-1773.50	  395.49
      2.2700	  722.00	  500.44	-1773.50	  397.45
      2.3700	  720.00	  502.37	-1773.50	  399.38
      2.4700	  762.00	  504.28	-1773.50	  401.29
      2.5700	  663.00	  506.17	-1773.50	  403.18
      2.6700	  720.00	  508.04	-1773.50	  405.05
      2.7700	  624.00	  509.88	-1773.50	  406.89
      2.8700	  629.00	  511.71	-1773.50	  408.72
      2.9700	  643.00	  513.51	-1773.50	  410.52
      3.0700	  598.00	  515.30	-1773.50	  412.31
      3.1700	  572.00	  517.06	-1773.50	  414.07
      3.2700	  730.00	  518.80	-1773.50	  415.81
      3.3700	  845.00	  520.53	-1773.50	  417.54
      3.4700	  949.00	  522.23	-1773.50	  419.24
      3.5700	 1066.00	  523.91	-1773.50	  420.92
      3.6700	 1191.00	  525.57	-1773.50	  422.58
      3.7700	 1233.00	  527.22	-1773.50	  424.23
      3.8700	 1394.00	  528.84	-1773.50	  425.85
      3.9700	 1432.00	  530.44	-1773.50	  427.45
      4.0700	 1438.00	  532.03	-1773.50	  429.04
      4.1700	 1486.00	  533.59	-1773.50	  430.60
      4.2700	 1528.00	  535.14	-1773.50	  432.15
      4.3700	 1507.00	  536.66	-1773.50	  433.68
      4.4700	 1410.00	  538.17	-1773.50	  435.18
      4.5700	 1427.00	  539.66	-1773.50	  436.67
      4.6700	 1316.00	  541.13	-1773.50	  438.14
      4.7700	 1286.00	  542.58	-1773.50	  439.59
      4.8700	 1265.00	  544.02	-1773.50	  441.03
      4.9700	 1213.00	  545.43	-1773.50	  442.44
      5.0700	 1130.00	  546.83	-1773.50	  443.84
      5.1700	 1184.00	  548.20	-1773.50	  445.21
      5.2700	 1085.00	  549.56	-1773.50	  446.57
      5.3700	 1101.00	  550.91	-1773.50	  447.92
      5.4700	 1075.00	  552.23	-1773.50	  449.24
      5.5700	 1037.00	  553.54	-1773.50	  450.55
      5.6700	  998.00	  554.83	-1773.50	  451.84
      5.7700	  948.00	  556.10	-1773.50	  453.11
      5.8700	  957.00	  557.35	-1773.50	  454.36
      5.9700	  884.00	  558.59	-1773.50	  455.60
      6.0700	  961.00	  559.81	-1773.50	  456.82
      6.1700	  918.00	  561.01	-1773.50	  458.02
      6.2700	  863.00	  562.20	-1773.50	  459.21
      6.3700	  899.00	  563.37	-1773.50	  460.38
      6.4700	  873.00	  564.52	-1773.50	  461.53
      6.5700	  861.00	  565.66	-1773.50	  462.67
      6.6700	  818.00	  566.78	-1773.50	  463.79
      6.7700	  813.00	  567.88	-1773.50	  464.89
      6.8700	  898.00	  568.97	-1773.50	  465.98
      6.9700	  798.00	  570.04	-1773.50	  467.05
      7.0700	  820.00	  571.10	-1773.50	  468.11
      7.1700	  728.00	  572.14	-1773.50	  469.15
      7.2700	  768.00	  573.16	-1773.50	  470.17
      7.3700	  728.00	  574.17	-1773.50	  471.18
      7.4700	  707.00	  575.16	-1773.50	  472.17
      7.5700	  777.00	  576.14	-1773.50	  473.15
      7.6700	  767.00	  577.10	-1773.50	  474.11
      7.7700	  703.00	  578.05	-1773.50	  475.06
      7.8700	  728.00	  578.98	-1773.50	  475.99
      7.9700	  705.00	  579.90	-1773.50	  476.91
      8.0700	  668.00	  580.80	-1773.50	  477.81
      8.1700	  676.00	  581.68	-1773.50	  478.69
      8.2700	  665.00	  582.56	-1773.50	  479.57
      8.3700	  692.00	  583.41	-1773.50	  480.42
      8.4700	  713.00	  584.26	-1773.50	  481.27
      8.5700	  682.00	  585.09	-1773.50	  482.10
      8.6700	  674.00	  585.90	-1773.50	  482.91
      8.7700	  661.00	  586.70	-1773.50	  483.71
      8.8700	  678.00	  587.49	-1773.50	  484.50
      8.9700	  679.00	  588.26	-1773.50	  485.27
      9.0700	  706.00	  589.02	-1773.50	  486.03
      9.1700	  656.00	  589.76	-1773.50	  486.77
      9.2700	  620.00	  590.49	-1773.50	  487.51
      9.3700	  689.00	  591.21	-1773.50	  488.22
      9.4700	  673.00	  591.92	-1773.50	  488.93
      9.5700	  677.00	  592.61	-1773.50	  489.62
      9.6700	  664.00	  593.29	-1773.50	  490.30
      9.7700	  694.00	  593.95	-1773.50	  490.96
      9.8700	  683.00	  594.60	-1773.50	  491.61
      9.9700	  646.00	  595.24	-1773.50	  492.25
     10.0700	  676.00	  599.36	-1696.86	  492.87
     10.1700	  620.00	  600.18	-1753.68	  493.49
     10.2700	  647.00	  601.03	-1727.53	  494.09
     10.3700	  660.00	  601.94	-1715.44	  494.68
     10.4700	  628.00	  602.93	-1748.43	  495.25
     10.5700	  609.00	  604.05	-1768.55	  495.81
     10.6700	  666.00	  605.40	-1712.90	  496.36
     10.7700	  650.00	  607.05	-1730.55	  496.90
     10.8700	  638.00	  609.10	-1744.60	  497.43
     10.9700	  598.00	  611.61	-1787.11	  497.94
     11.0700	  615.00	  614.58	-1773.08	  498.44
     11.1700	  654.00	  618.02	-1737.52	  498.93
     11.2700	  651.00	  621.97	-1744.47	  499.41
     11.3700	  640.00	  626.48	-1759.98	  499.88
     11.4700	  636.00	  631.70	-1769.20	  500.34
     11.5700	  662.00	  637.83	-1749.33	  500.78
     11.6700	  655.00	  645.16	-1763.66	  501.21
     11.7700	  670.00	  654.09	-1757.59	  501.63
     11.8700	  689.00	  664.95	-1749.45	  502.05
     11.9700	  713.00	  677.60	-1738.10	  502.44
     12.0700	  722.00	  690.74	-1742.24	  502.83
     12.1700	  762.00	  701.20	-1712.70	  503.21
     12.2700	  753.00	  703.67	-1724.17	  503.58
     12.3700	  732.00	  693.66	-1735.16	  503.93
     12.4700	  662.00	  674.41	-1785.91	  504.28
     12.5700	  660.00	  654.70	-1768.20	  504.61
     12.6700	  641.00	  639.56	-1772.06	  504.94
     12.7700	  596.00	  629.62	-1807.12	  505.25
     12.8700	  654.00	  623.71	-1743.21	  505.56
     12.9700	  587.00	  620.36	-1806.86	  505.85
     13.0700	  636.00	  618.42	-1755.92	  506.13
     13.1700	  592.00	  617.24	-1798.74	  506.41
     13.2700	  589.00	  616.47	-1800.97	  506.67
     13.3700	  619.00	  615.95	-1770.45	  506.92
     13.4700	  560.00	  615.59	-1829.09	  507.17
     13.5700	  605.00	  615.37	-1783.87	  507.40
     13.6700	  591.00	  615.21	-1797.71	  507.63
     13.7700	  627.00	  615.11	-1761.61	  507.84
     13.8700	  574.00	  615.05	-1814.55	  508.05
     13.9700	  546.00	  615.03	-1842.53	  508.24
     14.0700	  580.00	  615.03	-1808.53	  508.43
     14.1700	  566.00	  615.05	-1822.55	  508.61
     14.2700	  604.00	  615.08	-1784.58	  508.78
     14.3700	  571.00	  615.12	-1817.62	  508.94
     14.4700	  604.00	  615.17	-1784.67	  509.09
     14.5700	  624.00	  615.22	-1764.72	  509.23
     14.6700	  591.00	  615.28	-1797.78	  509.36
     14.7700	  592.00	  615.34	-1796.84	  509.49
     14.8700	  604.00	  615.39	-1784.89	  509.60
     14.9700	  543.00	  615.44	-1845.94	  509.71
     15.0700	  576.00	  615.49	-1812.99	  509.81
     15.1700	  627.00	  615.54	-1762.04	  509.90
     15.2700	  600.00	  615.58	-1789.08	  509.98
     15.3700	  588.00	  615.62	-1801.12	  510.06
     15.4700	  619.00	  615.66	-1770.16	  510.12
     15.5700	  585.00	  615.69	-1804.19	  510.18
     15.6700	  626.00	  615.71	-1763.21	  510.23
     15.7700	  639.00	  615.73	-1750.23	  510.27
     15.8700	  598.00	  615.74	-1791.24	  510.31
     15.9700	  573.00	  615.75	-1816.25	  510.33
     16.0700	  611.00	  615.75	-1778.25	  510.35
     16.1700	  587.00	  615.75	-1802.25	  510.36
     16.2700	  609.00	  615.74	-1780.24	  510.37
     16.3700	  653.00	  615.72	-1736.22	  510.36
     16.4700	  598.00	  615.70	-1791.20	  510.35
     16.5700	  601.00	  615.67	-1788.17	  510.33
     16.6700	  602.00	  615.63	-1787.13	  510.31
     16.7700	  574.00	  615.59	-1815.09	  510.28
     16.8700	  602.00	  615.54	-1787.04	  510.24
     16.9700	  618.00	  615.49	-1770.99	  510.19
     17.0700	  618.00	  615.43	-1770.93	  510.14
     17.1700	  582.00	  615.36	-1806.86	  510.07
     17.2700	  622.00	  615.29	-1766.79	  510.01
     17.3700	  589.00	  615.21	-1799.71	  509.93
     17.4700	  594.00	  615.24	-1794.74	  509.85
     17.5700	  543.00	  615.16	-1845.66	  509.76
     17.6700	  646.00	  615.06	-1742.56	  509.67
     17.7700	  581.00	  614.96	-1807.46	  509.57
     17.8700	  558.00	  614.99	-1830.49	  509.46
     17.9700	  612.00	  614.88	-1776.38	  509.35
     18.0700	  612.00	  614.77	-1776.27	  509.23
     18.1700	  626.00	  614.65	-1762.15	  509.11
     18.2700	  599.00	  614.52	-1789.02	  508.97
     18.3700	  586.00	  614.39	-1801.89	  508.84
     18.4700	  611.00	  614.25	-1776.75	  508.69
     18.5700	  603.00	  614.11	-1784.61	  508.54
     18.6700	  634.00	  613.96	-1753.46	  508.39
     18.7700	  612.00	  613.81	-1775.31	  508.23
     18.8700	  584.00	  613.65	-1803.15	  508.06
     18.9700	  601.00	  613.49	-1785.99	  507.89
     19.0700	  598.00	  613.32	-1788.82	  507.71
     19.1700	  615.00	  613.15	-1771.65	  507.53
     19.2700	  548.00	  612.97	-1838.47	  507.34
     19.3700	  570.00	  612.79	-1816.29	  507.14
     19.4700	  587.00	  612.60	-1799.10	  506.94
     19.5700	  585.00	  612.45	-1800.95	  506.74
     19.6700	  588.00	  612.26	-1797.76	  506.53
     19.7700	  595.00	  612.06	-1790.56	  506.31
     19.8700	  589.00	  611.86	-1796.36	  506.09
     19.9700	  552.00	  611.65	-1833.15	  505.87
     20.0700	  617.00	  611.44	-1767.94	  505.64
     20.1700	  546.00	  611.22	-1838.72	  505.40
     20.2700	  605.00	  611.00	-1779.50	  505.16
     20.3700	  591.00	  610.78	-1793.28	  504.92
     20.4700	  602.00	  610.55	-1782.05	  504.67
     20.5700	  560.00	  610.32	-1823.82	  504.42
     20.6700	  587.00	  610.09	-1796.59	  504.16
     20.7700	  584.00	  609.85	-1799.35	  503.90
     20.8700	  625.00	  609.61	-1758.11	  503.63
     20.9700	  601.00	  609.37	-1781.87	  503.36
     21.0700	  645.00	  609.12	-1737.62	  503.08
     21.1700	  597.00	  608.88	-1785.38	  502.80
     21.2700	  571.00	  608.63	-1811.13	  502.52
     21.3700	  591.00	  608.37	-1790.88	  502.23
     21.4700	  584.00	  608.12	-1797.62	  501.93
     21.5700	  581.00	  607.87	-1800.37	  501.64
     21.6700	  614.00	  607.61	-1767.11	  501.34
     21.7700	  580.00	  607.36	-1800.86	  501.03
     21.8700	  617.00	  607.10	-1763.60	  500.72
     21.9700	  598.00	  606.84	-1782.34	  500.41
     22.0700	  589.00	  606.74	-1791.24	  500.09
     22.1700	  599.00	  606.49	-1780.99	  499.78
     22.2700	  625.00	  606.24	-1754.74	  499.45
     22.3700	  633.00	  606.00	-1746.50	  499.12
     22.4700	  584.00	  605.75	-1795.25	  498.79
     22.5700	  591.00	  605.52	-1788.02	  498.46
     22.6700	  588.00	  605.29	-1790.79	  498.12
     22.7700	  617.00	  605.07	-1761.57	  497.78
     22.8700	  617.00	  604.86	-1761.36	  497.44
     22.9700	  608.00	  604.67	-1770.17	  497.09
     23.0700	  580.00	  604.49	-1797.99	  496.74
     23.1700	  573.00	  604.34	-1804.84	  496.39
     23.2700	  662.00	  604.16	-1715.66	  496.03
     23.3700	  645.00	  604.08	-1732.58	  495.67
     23.4700	  624.00	  604.04	-1753.54	  495.31
     23.5700	  599.00	  604.07	-1778.57	  494.94
     23.6700	  560.00	  604.19	-1817.69	  494.57
     23.7700	  565.00	  604.45	-1812.95	  494.20
     23.8700	  608.00	  604.92	-1770.42	  493.82
     23.9700	  569.00	  605.74	-1810.24	  493.45
     24.0700	  626.00	  607.13	-1754.63	  493.07
     24.1700	  619.00	  609.47	-1763.97	  492.68
     24.2700	  658.00	  613.27	-1728.77	  492.30
     24.3700	  598.00	  619.11	-1794.61	  491.91
     24.4700	  617.00	  627.49	-1783.99	  491.52
     24.5700	  649.00	  638.46	-1762.96	  491.13
     24.6700	  705.00	  651.25	-1719.75	  490.73
     24.7700	  656.00	  663.69	-1781.19	  490.34
     24.8700	  658.00	  671.72	-1787.22	  489.94
     24.9700	  700.00	  670.33	-1743.83	  489.53
     25.0700	  689.00	  658.54	-1743.04	  489.13
     25.1700	  647.00	  642.20	-1768.70	  488.72
     25.2700	  662.00	  627.46	-1738.96	  488.31
     25.3700	  623.00	  616.60	-1767.10	  487.90
     25.4700	  649.00	  609.49	-1733.99	  487.49
     25.5700	  628.00	  605.15	-1750.65	  487.08
     25.6700	  685.00	  602.53	-1691.03	  486.66
     25.7700	  651.00	  600.88	-1723.38	  486.24
     25.8700	  632.00	  599.75	-1741.25	  485.82
     25.9700	  662.00	  598.93	-1710.43	  485.40
     26.0700	  594.00	  598.33	-1777.83	  484.97
     26.1700	  622.00	  597.89	-1749.39	  484.55
     26.2700	  656.00	  597.58	-1715.08	  484.12
     26.3700	  627.00	  597.41	-1743.91	  483.69
     26.4700	  622.00	  597.35	-1748.85	  483.26
     26.5700	  621.00	  597.43	-1749.93	  482.83
     26.6700	  647.00	  597.64	-1724.14	  482.39
     26.7700	  670.00	  598.02	-1701.52	  481.96
     26.8700	  690.00	  598.60	-1682.10	  481.52
     26.9700	  620.00	  599.41	-1752.91	  481.08
     27.0700	  658.00	  600.53	-1716.03	  480.65
     27.1700	  668.00	  602.07	-1707.57	  480.20
     27.2700	  617.00	  604.20	-1760.70	  479.76
     27.3700	  677.00	  607.24	-1703.74	  479.32
     27.4700	  687.00	  611.82	-1698.32	  478.87
     27.5700	  704.00	  619.08	-1688.58	  478.43
     27.6700	  670.00	  630.91	-1734.41	  477.98
     27.7700	  708.00	  650.15	-1715.65	  477.53
     27.8700	  690.00	  680.14	-1763.64	  477.09
     27.9700	  754.00	  723.27	-1742.77	  476.64
     28.0700	  789.00	  778.69	-1763.19	  476.19
     28.1700	  867.00	  839.80	-1746.30	  475.73
     28.2700	  965.00	  892.29	-1700.79	  475.28
     28.3700	  991.00	  916.16	-1698.66	  474.83
     28.4700	  995.00	  902.07	-1680.57	  474.37
     28.5700	  923.00	  871.71	-1722.21	  473.92
     28.6700	  858.00	  856.63	-1772.13	  473.46
     28.7700	  892.00	  869.67	-1751.17	  473.01
     28.8700	  848.00	  903.92	-1829.42	  472.55
     28.9700	  983.00	  937.75	-1728.25	  472.09
     29.0700	  951.00	  941.39	-1763.89	  471.63
     29.1700	  867.00	  896.83	-1803.33	  471.18
     29.2700	  853.00	  821.48	-1741.98	  470.72
     29.3700	  817.00	  746.85	-1703.35	  470.26
     29.4700	  728.00	  689.29	-1734.79	  469.80
     29.5700	  688.00	  650.98	-1736.48	  469.34
     29.6700	  692.00	  627.85	-1709.35	  468.88
     29.7700	  687.00	  614.46	-1700.96	  468.41
     29.8700	  687.00	  606.57	-1693.07	  467.95
     29.9700	  691.00	  601.65	-1684.15	  467.49
     30.0700	  691.00	  598.51	-1681.01	  467.03
     30.1700	  596.00	  596.71	-1774.21	  466.57
     30.2700	  690.00	  596.31	-1679.81	  466.10
     30.3700	  650.00	  597.72	-1721.22	  465.64
     30.4700	  695.00	  601.79	-1680.29	  465.18
     30.5700	  626.00	  609.59	-1757.09	  464.72
     30.6700	  671.00	  622.03	-1724.53	  464.25
     30.7700	  689.00	  638.92	-1723.42	  463.79
     30.8700	  739.00	  658.00	-1692.50	  463.33
     30.9700	  711.00	  674.34	-1736.84	  462.86
     31.0700	  680.00	  680.64	-1774.14	  462.40
     31.1700	  687.00	  671.54	-1758.04	  461.94
     31.2700	  636.00	  650.81	-1788.31	  461.48
     31.3700	  642.00	  627.97	-1759.47	  461.01
     31.4700	  633.00	  609.14	-1749.64	  460.55
     31.5700	  568.00	  595.89	-1801.39	  460.09
     31.6700	  647.00	  587.49	-1713.99	  459.63
     31.7700	  610.00	  582.46	-1745.96	  459.17
     31.8700	  599.00	  579.42	-1753.92	  458.71
     31.9700	  546.00	  577.49	-1804.99	  458.25
     32.0700	  576.00	  576.17	-1773.67	  457.79
     32.1700	  613.00	  575.24	-1735.74	  457.33
     32.2700	  628.00	  574.59	-1720.09	  456.87
     32.3700	  584.00	  574.17	-1763.67	  456.41
     32.4700	  564.00	  573.99	-1783.49	  455.95
     32.5700	  566.00	  574.03	-1781.53	  455.49
     32.6700	  559.00	  574.32	-1788.82	  455.03
     32.7700	  544.00	  574.90	-1804.40	  454.58
     32.8700	  597.00	  575.83	-1752.33	  454.12
     32.9700	  599.00	  577.21	-1751.71	  453.66
     33.0700	  610.00	  579.21	-1742.71	  453.21
     33.1700	  622.00	  582.15	-1733.65	  452.75
     33.2700	  608.00	  586.58	-1752.08	  452.30
     33.3700	  587.00	  593.65	-1780.15	  451.85
     33.4700	  618.00	  605.43	-1760.93	  451.39
     33.5700	  593.00	  625.22	-1805.72	  450.94
     33.6700	  649.00	  657.44	-1781.94	  450.49
     33.7700	  674.00	  706.30	-1805.80	  450.04
     33.8700	  791.00	  772.81	-1755.31	  449.59
     33.9700	  876.00	  850.73	-1748.23	  449.14
     34.0700	 1010.00	  923.62	-1687.12	  448.70
     34.1700	 1034.00	  965.36	-1704.86	  448.25
     34.2700	 1012.00	  951.64	-1713.14	  447.81
     34.3700	  918.00	  886.02	-1741.52	  447.36
     34.4700	  876.00	  800.52	-1698.02	  446.92
     34.5700	  709.00	  723.06	-1787.56	  446.47
     34.6700	  686.00	  664.71	-1752.21	  446.03
     34.7700	  588.00	  625.75	-1811.25	  445.59
     34.8700	  587.00	  601.75	-1788.25	  445.15
     34.9700	  605.00	  587.44	-1755.94	  444.71
     35.0700	  601.00	  578.66	-1751.16	  444.28
     35.1700	  537.00	  572.84	-1809.34	  443.84
     35.2700	  571.00	  568.63	-1771.13	  443.41
     35.3700	  536.00	  565.37	-1802.87	  442.97
     35.4700	  577.00	  563.23	-1759.73	  442.54
     35.5700	  540.00	  561.04	-1794.54	  442.11
     35.6700	  514.00	  559.19	-1818.69	  441.68
     35.7700	  552.00	  557.60	-1779.10	  441.25
     35.8700	  570.00	  556.21	-1759.71	  440.82
     35.9700	  517.00	  554.98	-1811.48	  440.39
     36.0700	  505.00	  553.88	-1822.38	  439.97
     36.1700	  546.00	  552.89	-1780.39	  439.54
     36.2700	  534.00	  552.00	-1791.50	  439.12
     36.3700	  560.00	  551.15	-1764.65	  438.70
     36.4700	  549.00	  550.41	-1774.91	  438.28
     36.5700	  543.00	  549.73	-1780.23	  437.86
     36.6700	  504.00	  549.12	-1818.62	  437.45
     36.7700	  547.00	  548.58	-1775.08	  437.03
     36.8700	  587.00	  548.11	-1734.61	  436.62
     36.9700	  542.00	  547.75	-1779.25	  436.20
     37.0700	  528.00	  547.56	-1793.06	  435.79
     37.1700	  537.00	  547.62	-1784.12	  435.38
     37.2700	  530.00	  548.09	-1791.59	  434.97
     37.3700	  533.00	  549.32	-1789.82	  434.57
     37.4700	  530.00	  551.12	-1794.62	  434.16
     37.5700	  528.00	  553.67	-1799.17	  433.76
     37.6700	  579.00	  556.70	-1751.20	  433.36
     37.7700	  607.00	  559.51	-1726.01	  432.96
     37.8700	  532.00	  561.04	-1802.54	  432.56
     37.9700	  550.00	  560.36	-1783.86	  432.16
     38.0700	  551.00	  557.65	-1780.15	  431.77
     38.1700	  505.00	  553.96	-1822.46	  431.37
     38.2700	  535.00	  550.23	-1788.73	  430.98
     38.3700	  494.00	  546.93	-1826.43	  430.59
     38.4700	  509.00	  544.29	-1808.79	  430.20
     38.5700	  548.00	  542.31	-1767.81	  429.81
     38.6700	  521.00	  540.87	-1793.37	  429.43
     38.7700	  487.00	  539.81	-1826.31	  429.04
     38.8700	  535.00	  539.00	-1777.50	  428.66
     38.9700	  485.00	  538.34	-1826.84	  428.28
     39.0700	  522.00	  537.77	-1789.27	  427.90
     39.1700	  507.00	  537.26	-1803.76	  427.53
     39.2700	  526.00	  536.79	-1784.29	  427.15
     39.3700	  517.00	  536.35	-1792.85	  426.78
     39.4700	  477.00	  535.93	-1832.43	  426.41
     39.5700	  526.00	  535.48	-1782.98	  426.04
     39.6700	  521.00	  535.10	-1787.60	  425.67
     39.7700	  532.00	  534.74	-1776.24	  425.31
     39.8700	  549.00	  534.39	-1758.89	  424.94
     39.9700	  532.00	  534.06	-1775.56	  424.58
     40.0700	  493.00	  533.74	-1814.24	  424.22
     40.1700	  537.00	  533.98	-1770.48	  423.86
     40.2700	  530.00	  533.69	-1777.19	  423.51
     40.3700	  489.00	  533.42	-1817.92	  423.15
     40.4700	  545.00	  533.04	-1761.54	  422.80
     40.5700	  512.00	  532.81	-1794.31	  422.45
     40.6700	  466.00	  532.59	-1840.09	  422.10
     40.7700	  534.00	  532.40	-1771.90	  421.75
     40.8700	  481.00	  532.23	-1824.73	  421.41
     40.9700	  517.00	  532.09	-1788.59	  421.07
     41.0700	  519.00	  531.98	-1786.48	  420.73
     41.1700	  514.00	  531.92	-1791.42	  420.39
     41.2700	  515.00	  531.90	-1790.40	  420.05
     41.3700	  473.00	  531.95	-1832.45	  419.72
     41.4700	  529.00	  532.07	-1776.57	  419.38
     41.5700	  490.00	  532.29	-1815.79	  419.05
     41.6700	  564.00	  532.64	-1742.14	  418.73
     41.7700	  541.00	  533.25	-1765.75	  418.40
     41.8700	  542.00	  534.17	-1765.67	  418.08
     41.9700	  512.00	  535.69	-1797.19	  417.75
     42.0700	  483.00	  538.08	-1828.58	  417.43
     42.1700	  531.00	  542.11	-1784.61	  417.12
     42.2700	  518.00	  548.69	-1804.19	  416.80
     42.3700	  552.00	  558.86	-1780.36	  416.49
     42.4700	  534.00	  573.29	-1812.79	  416.17
     42.5700	  558.00	  591.66	-1807.16	  415.86
     42.6700	  597.00	  611.86	-1788.36	  415.56
     42.7700	  610.00	  629.53	-1793.03	  415.25
     42.8700	  643.00	  638.02	-1768.52	  414.95
     42.9700	  631.00	  633.12	-1775.62	  414.65
     43.0700	  621.00	  616.85	-1769.35	  414.35
     43.1700	  589.00	  595.90	-1780.40	  414.05
     43.2700	  554.00	  575.98	-1795.48	  413.76
     43.3700	  546.00	  559.87	-1787.37	  413.46
     43.4700	  519.00	  548.19	-1802.69	  413.17
     43.5700	  540.00	  540.39	-1773.89	  412.88
     43.6700	  492.00	  535.45	-1816.95	  412.60
     43.7700	  546.00	  532.36	-1759.86	  412.31
     43.8700	  515.00	  530.37	-1788.87	  412.03
     43.9700	  514.00	  528.99	-1788.49	  411.75
     44.0700	  518.00	  528.18	-1783.68	  411.48
     44.1700	  540.00	  527.38	-1760.88	  411.20
     44.2700	  536.00	  526.72	-1764.22	  410.93
     44.3700	  532.00	  526.17	-1767.67	  410.66
     44.4700	  506.00	  525.71	-1793.21	  410.39
     44.5700	  502.00	  525.32	-1796.82	  410.12
     44.6700	  509.00	  524.99	-1789.49	  409.86
     44.7700	  508.00	  524.70	-1790.20	  409.59
     44.8700	  529.00	  524.46	-1768.96	  409.33
     44.9700	  532.00	  524.26	-1765.76	  409.08
     45.0700	  544.00	  524.09	-1753.59	  408.82
     45.1700	  498.00	  523.95	-1799.45	  408.57
     45.2700	  563.00	  523.85	-1734.35	  408.32
     45.3700	  519.00	  523.77	-1778.27	  408.07
     45.4700	  549.00	  523.73	-1748.23	  407.82
     45.5700	  526.00	  523.79	-1771.29	  407.58
     45.6700	  516.00	  523.81	-1781.31	  407.34
     45.7700	  539.00	  523.86	-1758.36	  407.10
     45.8700	  509.00	  524.00	-1788.50	  406.86
     45.9700	  533.00	  524.12	-1764.62	  406.62
     46.0700	  551.00	  524.29	-1746.79	  406.39
     46.1700	  522.00	  524.49	-1775.99	  406.16
     46.2700	  504.00	  524.75	-1794.25	  405.93
     46.3700	  508.00	  525.06	-1790.56	  405.70
     46.4700	  515.00	  525.29	-1783.79	  405.48
     46.5700	  561.00	  525.74	-1738.24	  405.26
     46.6700	  519.00	  526.28	-1780.78	  405.04
     46.7700	  505.00	  526.93	-1795.43	  404.82
     46.8700	  517.00	  527.72	-1784.22	  404.60
     46.9700	  511.00	  528.71	-1791.21	  404.39
     47.0700	  575.00	  530.01	-1728.51	  404.18
     47.1700	  574.00	  531.80	-1731.30	  403.97
     47.2700	  527.00	  534.39	-1780.89	  403.76
     47.3700	  567.00	  538.26	-1744.76	  403.56
     47.4700	  538.00	  544.00	-1779.50	  403.36
     47.5700	  573.00	  552.20	-1752.70	  403.16
     47.6700	  536.00	  563.19	-1800.69	  402.96
     47.7700	  584.00	  576.73	-1766.23	  402.76
     47.8700	  577.00	  591.55	-1788.05	  402.57
     47.9700	  598.00	  605.06	-1780.56	  402.38
     48.0700	  590.00	  613.98	-1797.48	  402.19
     48.1700	  599.00	  614.49	-1788.99	  402.00
     48.2700	  585.00	  607.51	-1796.01	  401.82
     48.3700	  636.00	  596.61	-1734.11	  401.64
     48.4700	  554.00	  585.55	-1805.05	  401.46
     48.5700	  559.00	  576.67	-1791.17	  401.28
     48.6700	  548.00	  570.95	-1796.45	  401.10
     48.7700	  567.00	  568.54	-1775.04	  400.93
     48.8700	  546.00	  569.19	-1796.69	  400.76
     48.9700	  581.00	  572.47	-1764.97	  400.59
     49.0700	  551.00	  578.20	-1800.70	  400.42
     49.1700	  567.00	  586.61	-1793.11	  400.26
     49.2700	  593.00	  598.62	-1779.12	  400.10
     49.3700	  563.00	  616.39	-1826.89	  399.94
     49.4700	  591.00	  644.12	-1826.62	  399.78
     49.5700	  661.00	  689.03	-1801.53	  399.62
     49.6700	  671.00	  761.96	-1864.46	  399.47
     49.7700	  788.00	  876.57	-1862.07	  399.32
     49.8700	  983.00	 1045.96	-1836.46	  399.17
     49.9700	 1131.00	 1276.67	-1919.17	  399.02
     50.0700	 1464.00	 1560.38	-1869.88	  398.88
     50.1700	 1931.00	 1865.33	-1707.83	  398.73
     50.2700	 2170.00	 2130.09	-1733.59	  398.59
     50.3700	 2439.00	 2272.25	-1606.75	  398.45
     50.4700	 2326.00	 2232.21	-1679.71	  398.32
     50.5700	 2093.00	 2026.92	-1707.42	  398.18
     50.6700	 1764.00	 1735.09	-1744.59	  398.05
     50.7700	 1305.00	 1436.26	-1904.76	  397.92
     50.8700	 1021.00	 1179.02	-1931.52	  397.79
     50.9700	  864.00	  983.13	-1892.63	  397.66
     51.0700	  762.00	  848.64	-1860.14	  397.54
     51.1700	  734.00	  764.06	-1803.56	  397.42
     51.2700	  731.00	  713.66	-1756.16	  397.30
     51.3700	  658.00	  682.63	-1798.13	  397.18
     51.4700	  658.00	  660.15	-1775.65	  397.06
     51.5700	  653.00	  640.80	-1761.30	  396.95
     51.6700	  648.00	  623.27	-1748.77	  396.84
     51.7700	  602.00	  607.94	-1779.44	  396.73
     51.8700	  612.00	  595.30	-1756.80	  396.62
     51.9700	  574.00	  585.49	-1784.99	  396.52
     52.0700	  570.00	  578.38	-1781.88	  396.41
     52.1700	  581.00	  573.65	-1766.15	  396.31
     52.2700	  571.00	  570.93	-1773.43	  396.21
     52.3700	  579.00	  569.93	-1764.43	  396.12
     52.4700	  594.00	  570.55	-1750.05	  396.02
     52.5700	  589.00	  572.98	-1757.48	  395.93
     52.6700	  587.00	  577.81	-1764.31	  395.84
     52.7700	  631.00	  586.25	-1728.75	  395.75
     52.8700	  590.00	  600.35	-1783.85	  395.66
     52.9700	  651.00	  623.10	-1745.60	  395.57
     53.0700	  652.00	  658.27	-1779.77	  395.49
     53.1700	  705.00	  709.65	-1778.15	  395.41
     53.2700	  819.00	  779.79	-1734.29	  395.33
     53.3700	  859.00	  868.17	-1782.67	  395.25
     53.4700	 1049.00	  969.17	-1693.67	  395.17
     53.5700	 1107.00	 1069.79	-1736.29	  395.10
     53.6700	 1159.00	 1148.85	-1763.35	  395.03
     53.7700	 1174.00	 1181.97	-1781.47	  394.96
     53.8700	 1212.00	 1156.17	-1717.67	  394.89
     53.9700	 1130.00	 1081.41	-1724.91	  394.82
     54.0700	 1020.00	  982.10	-1735.60	  394.76
     54.1700	  848.00	  880.70	-1806.20	  394.70
     54.2700	  860.00	  791.09	-1704.59	  394.64
     54.3700	  703.00	  719.55	-1790.05	  394.58
     54.4700	  675.00	  667.00	-1765.50	  394.52
     54.5700	  671.00	  631.11	-1733.61	  394.47
     54.6700	  613.00	  608.11	-1768.61	  394.41
     54.7700	  581.00	  594.15	-1786.65	  394.36
     54.8700	  618.00	  586.13	-1741.63	  394.31
     54.9700	  590.00	  581.89	-1765.39	  394.26
     55.0700	  587.00	  580.10	-1766.60	  394.22
     55.1700	  582.00	  580.04	-1771.54	  394.17
     55.2700	  580.00	  581.37	-1774.87	  394.13
     55.3700	  635.00	  583.97	-1722.47	  394.09
     55.4700	  633.00	  587.87	-1728.37	  394.05
     55.5700	  560.00	  593.23	-1806.73	  394.01
     55.6700	  623.00	  600.37	-1750.87	  393.98
     55.7700	  619.00	  609.94	-1764.44	  393.94
     55.8700	  589.00	  623.11	-1807.61	  393.91
     55.9700	  669.00	  642.03	-1746.53	  393.88
     56.0700	  687.00	  670.48	-1756.98	  393.85
     56.1700	  703.00	  714.46	-1784.96	  393.82
     56.2700	  734.00	  782.71	-1822.21	  393.80
     56.3700	  825.00	  886.20	-1834.70	  393.77
     56.4700	  937.00	 1036.42	-1872.92	  393.75
     56.5700	 1124.00	 1241.93	-1891.43	  393.73
     56.6700	 1480.00	 1503.34	-1796.84	  393.71
     56.7700	 1817.00	 1808.32	-1764.82	  393.69
     56.8700	 2132.00	 2125.93	-1767.43	  393.68
     56.9700	 2330.00	 2402.76	-1846.26	  393.66
     57.0700	 2522.00	 2569.07	-1820.57	  393.65
     57.1700	 2600.00	 2569.16	-1742.66	  393.64
     57.2700	 2359.00	 2402.84	-1817.34	  393.63
     57.3700	 2138.00	 2126.38	-1761.88	  393.62
     57.4700	 1723.00	 1810.54	-1861.04	  393.61
     57.5700	 1521.00	 1508.79	-1761.29	  393.61
     57.6700	 1180.00	 1251.80	-1845.30	  393.61
     57.7700	 1007.00	 1051.76	-1818.26	  393.60
     57.8700	  881.00	  908.17	-1800.67	  393.60
     57.9700	  777.00	  813.05	-1809.55	  393.60
     58.0700	  762.00	  755.97	-1767.47	  393.61
     58.1700	  774.00	  727.47	-1726.97	  393.61
     58.2700	  701.00	  720.75	-1793.25	  393.61
     58.3700	  791.00	  731.96	-1714.46	  393.62
     58.4700	  745.00	  759.22	-1787.72	  393.63
     58.5700	  840.00	  801.46	-1734.96	  393.64
     58.6700	  837.00	  856.98	-1793.48	  393.65
     58.7700	  970.00	  922.11	-1725.61	  393.66
     58.8700	  969.00	  990.50	-1795.00	  393.67
     58.9700	 1163.00	 1054.58	-1665.08	  393.69
     59.0700	 1185.00	 1108.71	-1697.21	  393.70
     59.1700	 1280.00	 1149.76	-1643.26	  393.72
     59.2700	 1250.00	 1174.20	-1697.70	  393.74
     59.3700	 1249.00	 1178.75	-1703.25	  393.76
     59.4700	 1305.00	 1166.10	-1634.60	  393.78
     59.5700	 1255.00	 1146.68	-1665.18	  393.80
     59.6700	 1240.00	 1132.65	-1666.15	  393.83
     59.7700	 1171.00	 1132.23	-1734.73	  393.85
     59.8700	 1123.00	 1149.44	-1799.94	  393.88
     59.9700	 1242.00	 1186.90	-1718.40	  393.91
     60.0700	 1333.00	 1246.19	-1686.69	  393.94
     60.1700	 1367.00	 1324.49	-1730.99	  393.97
     60.2700	 1533.00	 1410.51	-1651.01	  394.00
     60.3700	 1555.00	 1483.30	-1701.80	  394.03
     60.4700	 1586.00	 1516.14	-1703.64	  394.06
     60.5700	 1543.00	 1489.10	-1719.60	  394.10
     60.6700	 1445.00	 1403.14	-1731.64	  394.13
     60.7700	 1324.00	 1278.86	-1728.36	  394.17
     60.8700	 1233.00	 1141.80	-1682.30	  394.21
     60.9700	  969.00	 1011.79	-1816.29	  394.24
     61.0700	  929.00	  900.97	-1745.47	  394.28
     61.1700	  734.00	  815.06	-1854.56	  394.33
     61.2700	  717.00	  755.33	-1811.83	  394.37
     61.3700	  794.00	  720.52	-1700.02	  394.41
     61.4700	  750.00	  708.79	-1732.29	  394.45
     61.5700	  716.00	  719.05	-1776.55	  394.50
     61.6700	  787.00	  751.47	-1737.97	  394.55
     61.7700	  808.00	  806.94	-1772.44	  394.59
     61.8700	  870.00	  885.79	-1789.29	  394.64
     61.9700	  983.00	  986.07	-1776.57	  394.69
     62.0700	 1065.00	 1101.77	-1810.27	  394.74
     62.1700	 1167.00	 1221.30	-1827.80	  394.79
     62.2700	 1255.00	 1326.42	-1844.92	  394.84
     62.3700	 1366.00	 1393.98	-1801.48	  394.89
     62.4700	 1315.00	 1404.20	-1862.70	  394.95
     62.5700	 1318.00	 1353.14	-1808.64	  395.00
     62.6700	 1223.00	 1255.75	-1806.25	  395.06
     62.7700	 1020.00	 1135.36	-1888.86	  395.11
     62.8700	  930.00	 1012.38	-1855.88	  395.17
     62.9700	  869.00	  900.58	-1805.08	  395.23
     63.0700	  777.00	  807.34	-1803.84	  395.28
     63.1700	  700.00	  735.03	-1808.53	  395.34
     63.2700	  706.00	  682.55	-1750.05	  395.40
     63.3700	  619.00	  646.71	-1801.21	  395.46
     63.4700	  638.00	  623.72	-1759.22	  395.52
     63.5700	  648.00	  610.17	-1735.67	  395.59
     63.6700	  647.00	  603.57	-1730.07	  395.65
     63.7700	  586.00	  602.59	-1790.09	  395.71
     63.8700	  639.00	  606.93	-1741.43	  395.78
     63.9700	  631.00	  617.22	-1759.72	  395.84
     64.0700	  664.00	  634.73	-1744.23	  395.91
     64.1700	  701.00	  660.84	-1733.34	  395.97
     64.2700	  778.00	  696.83	-1692.33	  396.04
     64.3700	  838.00	  743.12	-1678.62	  396.11
     64.4700	  859.00	  798.64	-1713.14	  396.17
     64.5700	  931.00	  860.25	-1702.75	  396.24
     64.6700	 1011.00	  922.13	-1684.63	  396.31
     64.7700	 1038.00	  976.01	-1711.51	  396.38
     64.8700	 1020.00	 1012.12	-1765.62	  396.45
     64.9700	 1047.00	 1023.73	-1750.23	  396.52
     65.0700	  976.00	 1009.57	-1807.07	  396.59
     65.1700	  962.00	  974.07	-1785.57	  396.66
     65.2700	  897.00	  925.21	-1801.71	  396.73
     65.3700	  895.00	  871.65	-1750.15	  396.81
     65.4700	  836.00	  819.68	-1757.18	  396.88
     65.5700	  777.00	  774.03	-1770.53	  396.95
     65.6700	  714.00	  735.32	-1794.82	  397.02
     65.7700	  641.00	  703.03	-1835.53	  397.10
     65.8700	  656.00	  676.20	-1793.70	  397.17
     65.9700	  632.00	  654.36	-1795.86	  397.25
     66.0700	  680.00	  636.76	-1730.26	  397.32
     66.1700	  600.00	  623.28	-1796.78	  397.40
     66.2700	  567.00	  613.25	-1819.75	  397.47
     66.3700	  598.00	  606.38	-1781.88	  397.55
     66.4700	  581.00	  602.33	-1794.83	  397.62
     66.5700	  554.00	  600.86	-1820.36	  397.70
     66.6700	  598.00	  601.83	-1777.33	  397.78
     66.7700	  600.00	  605.34	-1778.84	  397.85
     66.8700	  621.00	  611.54	-1764.04	  397.93
     66.9700	  596.00	  621.30	-1798.80	  398.01
     67.0700	  614.00	  636.07	-1795.57	  398.08
     67.1700	  654.00	  658.29	-1777.79	  398.16
     67.2700	  683.00	  691.61	-1782.11	  398.24
     67.3700	  695.00	  740.99	-1819.49	  398.32
     67.4700	  815.00	  812.58	-1771.08	  398.40
     67.5700	  940.00	  912.83	-1746.33	  398.47
     67.6700	 1055.00	 1047.43	-1765.93	  398.55
     67.7700	 1213.00	 1219.41	-1779.91	  398.63
     67.8700	 1334.00	 1427.19	-1866.69	  398.71
     67.9700	 1727.00	 1662.47	-1708.97	  398.79
     68.0700	 1906.00	 1908.68	-1776.18	  398.87
     68.1700	 2074.00	 2139.42	-1838.92	  398.94
     68.2700	 2282.00	 2319.25	-1810.75	  399.02
     68.3700	 2367.00	 2410.93	-1817.43	  399.10
     68.4700	 2354.00	 2391.27	-1810.77	  399.18
     68.5700	 2280.00	 2265.46	-1758.96	  399.26
     68.6700	 2203.00	 2063.75	-1634.25	  399.34
     68.7700	 1899.00	 1824.31	-1698.81	  399.41
     68.8700	 1571.00	 1579.73	-1782.23	  399.49
     68.9700	 1318.00	 1352.98	-1808.48	  399.57
     69.0700	 1090.00	 1157.50	-1841.00	  399.65
     69.1700	 1029.00	  999.04	-1743.54	  399.73
     69.2700	  850.00	  877.37	-1800.87	  399.80
     69.3700	  749.00	  788.24	-1812.74	  399.88
     69.4700	  737.00	  725.55	-1762.05	  399.96
     69.5700	  632.00	  682.73	-1824.23	  400.03
     69.6700	  626.00	  654.06	-1801.56	  400.11
     69.7700	  620.00	  634.91	-1788.41	  400.19
     69.8700	  598.00	  622.02	-1797.52	  400.26
     69.9700	  618.00	  613.21	-1768.71	  400.34
     70.0700	  652.00	  607.12	-1728.62	  400.42
     70.1700	  632.00	  602.74	-1744.24	  400.49
     70.2700	  603.00	  600.02	-1770.52	  400.57
     70.3700	  588.00	  598.54	-1784.04	  400.64
     70.4700	  606.00	  598.24	-1765.74	  400.72
     70.5700	  606.00	  600.13	-1767.63	  400.79
     70.6700	  614.00	  602.47	-1761.97	  400.87
     70.7700	  588.00	  606.66	-1792.16	  400.94
     70.8700	  602.00	  613.39	-1784.89	  401.01
     70.9700	  648.00	  623.84	-1749.34	  401.08
     71.0700	  630.00	  639.77	-1783.27	  401.16
     71.1700	  674.00	  663.63	-1763.13	  401.23
     71.2700	  689.00	  698.66	-1783.16	  401.30
     71.3700	  742.00	  748.68	-1780.18	  401.37
     71.4700	  857.00	  817.67	-1734.17	  401.44
     71.5700	  910.00	  909.13	-1772.63	  401.51
     71.6700	 1033.00	 1025.00	-1765.50	  401.58
     71.7700	 1163.00	 1164.64	-1775.14	  401.65
     71.8700	 1230.00	 1323.80	-1867.30	  401.72
     71.9700	 1462.00	 1493.56	-1805.06	  401.79
     72.0700	 1595.00	 1659.77	-1838.27	  401.85
     72.1700	 1763.00	 1802.71	-1813.21	  401.92
     72.2700	 1844.00	 1899.31	-1828.81	  401.99
     72.3700	 1924.00	 1929.81	-1779.31	  402.05
     72.4700	 1867.00	 1887.12	-1793.62	  402.12
     72.5700	 1665.00	 1781.02	-1889.52	  402.18
     72.6700	 1603.00	 1632.54	-1803.04	  402.25
     72.7700	 1480.00	 1464.50	-1758.00	  402.31
     72.8700	 1290.00	 1295.61	-1779.11	  402.37
     72.9700	 1153.00	 1139.10	-1759.60	  402.43
     73.0700	  993.00	 1002.83	-1783.33	  402.49
     73.1700	  898.00	  890.32	-1765.82	  402.55
     73.2700	  844.00	  801.65	-1731.15	  402.61
     73.3700	  802.00	  734.51	-1706.01	  402.67
     73.4700	  748.00	  685.38	-1710.88	  402.73
     73.5700	  697.00	  650.35	-1726.85	  402.79
     73.6700	  679.00	  625.78	-1720.28	  402.84
     73.7700	  624.00	  608.64	-1758.14	  402.90
     73.8700	  683.00	  596.63	-1687.13	  402.95
     73.9700	  615.00	  588.15	-1746.65	  403.01
     74.0700	  617.00	  582.12	-1738.62	  403.06
     74.1700	  586.00	  577.32	-1764.82	  403.11
     74.2700	  606.00	  574.41	-1741.91	  403.17
     74.3700	  629.00	  572.55	-1717.05	  403.22
     74.4700	  614.00	  571.51	-1731.01	  403.27
     74.5700	  647.00	  571.06	-1697.56	  403.31
     74.6700	  654.00	  570.98	-1690.48	  403.36
     74.7700	  656.00	  571.00	-1688.50	  403.41
     74.8700	  675.00	  570.82	-1669.32	  403.45
     74.9700	  688.00	  570.18	-1655.68	  403.50
     75.0700	  639.00	  568.98	-1703.48	  403.54
     75.1700	  637.00	  567.27	-1703.77	  403.59
     75.2700	  681.00	  565.33	-1657.83	  403.63
     75.3700	  594.00	  563.49	-1742.99	  403.67
     75.4700	  606.00	  562.12	-1729.62	  403.71
     75.5700	  620.00	  561.60	-1715.10	  403.75
     75.6700	  630.00	  562.34	-1705.84	  403.78
     75.7700	  580.00	  564.76	-1758.26	  403.82
     75.8700	  599.00	  569.27	-1743.77	  403.86
     75.9700	  582.00	  576.30	-1767.80	  403.89
     76.0700	  623.00	  586.16	-1736.66	  403.92
     76.1700	  647.00	  599.03	-1725.53	  403.96
     76.2700	  638.00	  614.77	-1750.27	  403.99
     76.3700	  646.00	  633.05	-1760.55	  404.02
     76.4700	  706.00	  652.98	-1720.48	  404.05
     76.5700	  693.00	  673.23	-1753.73	  404.07
     76.6700	  696.00	  691.92	-1769.42	  404.10
     76.7700	  696.00	  706.76	-1784.26	  404.13
     76.8700	  705.00	  715.27	-1783.77	  404.15
     76.9700	  726.00	  715.96	-1763.46	  404.17
     77.0700	  703.00	  708.53	-1779.03	  404.19
     77.1700	  686.00	  694.37	-1781.87	  404.21
     77.2700	  711.00	  675.74	-1738.24	  404.23
     77.3700	  625.00	  655.02	-1803.52	  404.25
     77.4700	  582.00	  634.16	-1825.66	  404.27
     77.5700	  615.00	  614.59	-1773.09	  404.28
     77.6700	  588.00	  597.24	-1782.74	  404.30
     77.7700	  619.00	  582.57	-1737.07	  404.31
     77.8700	  542.00	  570.64	-1802.14	  404.32
     77.9700	  557.00	  561.39	-1777.89	  404.33
     78.0700	  585.00	  554.43	-1742.93	  404.34
     78.1700	  572.00	  549.34	-1750.84	  404.34
     78.2700	  507.00	  545.70	-1812.20	  404.35
     78.3700	  509.00	  542.92	-1807.42	  404.35
     78.4700	  537.00	  541.13	-1777.63	  404.36
     78.5700	  519.00	  539.87	-1794.37	  404.36
     78.6700	  522.00	  538.99	-1790.49	  404.36
     78.7700	  508.00	  538.37	-1803.87	  404.36
     78.8700	  537.00	  537.95	-1774.45	  404.35
     78.9700	  519.00	  537.68	-1792.18	  404.35
     79.0700	  495.00	  537.55	-1816.05	  404.34
     79.1700	  502.00	  537.56	-1809.06	  404.34
     79.2700	  566.00	  537.71	-1745.21	  404.33
     79.3700	  556.00	  538.02	-1755.52	  404.32
     79.4700	  537.00	  538.52	-1775.02	  404.31
     79.5700	  518.00	  539.23	-1794.73	  404.29
     79.6700	  582.00	  540.21	-1731.71	  404.28
     79.7700	  539.00	  541.49	-1775.99	  404.26
     79.8700	  538.00	  543.14	-1778.64	  404.24
     79.9700	  541.00	  545.24	-1777.74	  404.22
     80.0700	  530.00	  547.87	-1791.37	  404.20
     80.1700	  552.00	  551.15	-1772.65	  404.18
     80.2700	  546.00	  555.19	-1782.69	  404.16
     80.3700	  580.00	  560.11	-1753.61	  404.13
     80.4700	  575.00	  566.04	-1764.54	  404.10
     80.5700	  587.00	  573.14	-1759.64	  404.07
     80.6700	  590.00	  581.53	-1765.03	  404.04
     80.7700	  623.00	  591.33	-1741.83	  404.01
     80.8700	  579.00	  602.55	-1797.05	  403.98
     80.9700	  667.00	  614.82	-1721.32	  403.94
     81.0700	  655.00	  628.23	-1746.73	  403.90
     81.1700	  617.00	  642.03	-1798.53	  403.86
     81.2700	  700.00	  655.56	-1729.06	  403.82
     81.3700	  688.00	  668.17	-1753.67	  403.78
     81.4700	  736.00	  679.41	-1716.91	  403.74
     81.5700	  717.00	  688.98	-1745.48	  403.69
     81.6700	  789.00	  696.67	-1681.17	  403.64
     81.7700	  718.00	  702.29	-1757.79	  403.59
     81.8700	  728.00	  705.59	-1751.09	  403.54
     81.9700	  762.00	  706.21	-1717.71	  403.49
     82.0700	  725.00	  703.79	-1752.29	  403.43
     82.1700	  809.00	  698.17	-1662.67	  403.38
     82.2700	  723.00	  689.62	-1740.12	  403.32
     82.3700	  684.00	  678.78	-1768.28	  403.26
     82.4700	  712.00	  666.44	-1727.94	  403.20
     82.5700	  672.00	  653.27	-1754.77	  403.13
     82.6700	  690.00	  639.77	-1723.27	  403.07
     82.7700	  609.00	  626.37	-1790.87	  403.00
     82.8700	  629.00	  613.53	-1758.03	  402.93
     82.9700	  561.00	  601.69	-1814.19	  402.86
     83.0700	  609.00	  591.26	-1755.76	  402.79
     83.1700	  564.00	  582.54	-1792.04	  402.72
     83.2700	  558.00	  575.71	-1791.21	  402.64
     83.3700	  549.00	  570.83	-1795.33	  402.56
     83.4700	  518.00	  567.87	-1823.37	  402.48
     83.5700	  552.00	  566.71	-1788.21	  402.40
     83.6700	  563.00	  567.17	-1777.67	  402.31
     83.7700	  525.00	  568.97	-1817.47	  402.23
     83.8700	  580.00	  571.77	-1765.27	  402.14
     83.9700	  561.00	  575.17	-1787.67	  402.05
     84.0700	  550.00	  578.69	-1802.19	  401.96
     84.1700	  571.00	  581.77	-1784.27	  401.87
     84.2700	  576.00	  583.82	-1781.32	  401.77
     84.3700	  558.00	  584.51	-1800.01	  401.68
     84.4700	  598.00	  583.50	-1759.00	  401.58
     84.5700	  528.00	  580.93	-1826.43	  401.48
     84.6700	  597.00	  577.06	-1753.56	  401.37
     84.7700	  520.00	  572.32	-1825.82	  401.27
     84.8700	  524.00	  567.16	-1816.66	  401.16
     84.9700	  559.00	  561.97	-1776.47	  401.05
     85.0700	  534.00	  557.04	-1796.54	  400.94
     85.1700	  504.00	  552.58	-1822.08	  400.83
     85.2700	  574.00	  548.74	-1748.24	  400.71
     85.3700	  549.00	  545.56	-1770.06	  400.60
     85.4700	  567.00	  543.07	-1749.57	  400.48
     85.5700	  526.00	  541.22	-1788.72	  400.36
     85.6700	  492.00	  539.94	-1821.44	  400.24
     85.7700	  552.00	  539.21	-1760.71	  400.11
     85.8700	  530.00	  538.94	-1782.44	  399.99
     85.9700	  531.00	  539.09	-1781.59	  399.86
     86.0700	  578.00	  539.66	-1735.16	  399.73
     86.1700	  522.00	  540.65	-1792.15	  399.59
     86.2700	  575.00	  542.11	-1740.61	  399.46
     86.3700	  567.00	  544.09	-1750.59	  399.32
     86.4700	  537.00	  546.71	-1783.21	  399.18
     86.5700	  554.00	  550.07	-1769.57	  399.04
     86.6700	  546.00	  554.31	-1781.81	  398.90
     86.7700	  528.00	  559.54	-1805.04	  398.76
     86.8700	  607.00	  565.89	-1732.39	  398.61
     86.9700	  535.00	  573.42	-1811.92	  398.46
     87.0700	  572.00	  582.16	-1783.66	  398.31
     87.1700	  591.00	  592.01	-1774.51	  398.16
     87.2700	  593.00	  602.75	-1783.25	  398.00
     87.3700	  523.00	  614.02	-1864.52	  397.85
     87.4700	  595.00	  625.28	-1803.78	  397.69
     87.5700	  628.00	  635.84	-1781.34	  397.53
     87.6700	  622.00	  644.84	-1796.34	  397.36
     87.7700	  658.00	  651.41	-1766.91	  397.20
     87.8700	  672.00	  654.81	-1756.31	  397.03
     87.9700	  672.00	  654.65	-1756.15	  396.86
     88.0700	  638.00	  651.05	-1786.55	  396.69
     88.1700	  613.00	  644.63	-1805.13	  396.52
     88.2700	  621.00	  636.26	-1788.76	  396.34
     88.3700	  609.00	  626.90	-1791.40	  396.17
     88.4700	  587.00	  617.46	-1803.96	  395.99
     88.5700	  588.00	  608.68	-1794.19	  395.81
     88.6700	  607.00	  601.21	-1767.71	  395.62
     88.7700	  547.00	  595.47	-1821.97	  395.44
     88.8700	  630.00	  591.31	-1734.81	  395.25
     88.9700	  589.00	  589.69	-1774.19	  395.06
     89.0700	  619.00	  590.10	-1744.60	  394.87
     89.1700	  592.00	  592.29	-1773.79	  394.67
     89.2700	  605.00	  595.90	-1764.40	  394.48
     89.3700	  619.00	  600.43	-1754.93	  394.28
     89.4700	  577.00	  605.27	-1801.77	  394.08
     89.5700	  647.00	  609.76	-1736.26	  393.88
     89.6700	  609.00	  613.20	-1777.70	  393.68
     89.7700	  595.00	  614.98	-1793.48	  393.47
     89.8700	  620.00	  614.68	-1768.18	  393.26
     89.9700	  585.00	  612.19	-1800.69	  393.05
     90.0700	  545.00	  607.74	-1836.24	  392.84
     90.1700	  594.00	  601.76	-1781.26	  392.63
     90.2700	  553.00	  594.80	-1815.30	  392.41
     90.3700	  548.00	  587.37	-1812.87	  392.19
     90.4700	  593.00	  579.92	-1760.42	  391.97
     90.5700	  501.00	  572.82	-1845.32	  391.75
     90.6700	  609.00	  566.31	-1730.81	  391.52
     90.7700	  559.00	  560.58	-1775.08	  391.30
     90.8700	  530.00	  555.72	-1799.22	  391.07
     90.9700	  527.00	  551.75	-1798.25	  390.84
     91.0700	  508.00	  548.65	-1814.15	  390.61
     91.1700	  508.00	  546.34	-1811.84	  390.37
     91.2700	  525.00	  544.76	-1793.26	  390.14
     91.3700	  540.00	  543.83	-1777.33	  389.90
     91.4700	  527.00	  543.47	-1789.97	  389.66
     91.5700	  508.00	  543.67	-1809.17	  389.41
     91.6700	  523.00	  544.40	-1794.90	  389.17
     91.7700	  516.00	  545.69	-1803.19	  388.92
     91.8700	  544.00	  547.61	-1777.11	  388.67
     91.9700	  520.00	  550.25	-1803.75	  388.42
     92.0700	  540.00	  553.74	-1787.24	  388.17
     92.1700	  472.00	  558.23	-1859.73	  387.92
     92.2700	  585.00	  563.89	-1752.39	  387.66
     92.3700	  515.00	  570.86	-1829.36	  387.40
     92.4700	  589.00	  579.27	-1763.77	  387.14
     92.5700	  595.00	  589.23	-1767.73	  386.88
     92.6700	  584.00	  600.78	-1790.28	  386.62
     92.7700	  561.00	  613.88	-1826.38	  386.35
     92.8700	  651.00	  628.41	-1750.91	  386.08
     92.9700	  648.00	  644.15	-1769.65	  385.81
     93.0700	  626.00	  660.78	-1808.28	  385.54
     93.1700	  690.00	  677.87	-1761.37	  385.27
     93.2700	  692.00	  694.87	-1776.37	  384.99
     93.3700	  740.00	  711.21	-1744.71	  384.71
     93.4700	  686.00	  726.38	-1813.88	  384.43
     93.5700	  748.00	  740.09	-1765.59	  384.15
     93.6700	  726.00	  752.34	-1799.84	  383.87
     93.7700	  760.00	  763.48	-1776.98	  383.58
     93.8700	  786.00	  774.03	-1761.53	  383.30
     93.9700	  769.00	  784.49	-1788.99	  383.01
     94.0700	  837.00	  795.25	-1731.75	  382.72
     94.1700	  807.00	  806.21	-1772.71	  382.43
     94.2700	  869.00	  818.02	-1722.52	  382.13
     94.3700	  853.00	  830.33	-1750.83	  381.84
     94.4700	  880.00	  843.09	-1736.59	  381.54
     94.5700	  823.00	  856.25	-1806.75	  381.24
     94.6700	  912.00	  869.70	-1731.20	  380.94
     94.7700	  897.00	  883.13	-1759.63	  380.63
     94.8700	  873.00	  895.92	-1796.42	  380.33
     94.9700	  932.00	  907.11	-1748.61	  380.02
     95.0700	  991.00	  915.46	-1697.96	  379.71
     95.1700	  910.00	  919.58	-1783.08	  379.40
     95.2700	  882.00	  918.29	-1809.79	  379.09
     95.3700	  964.00	  910.90	-1720.40	  378.78
     95.4700	  861.00	  897.45	-1809.95	  378.46
     95.5700	  897.00	  878.79	-1755.29	  378.14
     95.6700	  815.00	  856.34	-1814.84	  377.82
     95.7700	  837.00	  831.79	-1768.29	  377.50
     95.8700	  777.00	  806.90	-1803.40	  377.18
     95.9700	  713.00	  783.35	-1843.85	  376.86
     96.0700	  785.00	  762.67	-1751.17	  376.53
     96.1700	  718.00	  746.25	-1801.75	  376.21
     96.2700	  652.00	  735.31	-1856.81	  375.88
     96.3700	  750.00	  730.93	-1754.43	  375.55
     96.4700	  739.00	  734.04	-1768.54	  375.21
     96.5700	  735.00	  745.40	-1783.90	  374.88
     96.6700	  744.00	  765.59	-1795.09	  374.55
     96.7700	  808.00	  794.94	-1760.44	  374.21
     96.8700	  852.00	  833.58	-1755.08	  373.87
     96.9700	  912.00	  881.27	-1742.77	  373.53
     97.0700	  925.00	  937.41	-1785.91	  373.19
     97.1700	  954.00	 1000.96	-1820.46	  372.85
     97.2700	 1051.00	 1070.35	-1792.85	  372.50
     97.3700	 1126.00	 1143.50	-1791.00	  372.16
     97.4700	 1163.00	 1217.72	-1828.22	  371.81
     97.5700	 1261.00	 1289.79	-1802.29	  371.46
     97.6700	 1327.00	 1355.92	-1802.42	  371.11
     97.7700	 1335.00	 1412.04	-1850.54	  370.76
     97.8700	 1396.00	 1454.15	-1831.65	  370.41
     97.9700	 1492.00	 1478.95	-1760.45	  370.05
     98.0700	 1434.00	 1484.56	-1824.06	  369.70
     98.1700	 1436.00	 1470.92	-1808.42	  369.34
     98.2700	 1489.00	 1439.78	-1724.28	  368.98
     98.3700	 1372.00	 1394.27	-1795.77	  368.63
     98.4700	 1277.00	 1338.22	-1834.72	  368.26
     98.5700	 1227.00	 1275.62	-1822.12	  367.90
     98.6700	 1226.00	 1210.30	-1757.80	  367.54
     98.7700	 1142.00	 1145.69	-1777.19	  367.17
     98.8700	 1046.00	 1084.75	-1812.25	  366.81
     98.9700	 1019.00	 1029.97	-1784.47	  366.44
     99.0700	  948.00	  983.35	-1808.85	  366.07
     99.1700	  988.00	  946.49	-1731.99	  365.70
     99.2700	  860.00	  920.62	-1834.12	  365.33
     99.3700	  856.00	  906.65	-1824.15	  364.96
     99.4700	  896.00	  905.18	-1782.68	  364.59
     99.5700	  928.00	  916.54	-1762.04	  364.22
     99.6700	  965.00	  940.78	-1749.28	  363.84
     99.7700	  967.00	  977.71	-1784.21	  363.47
     99.8700	  997.00	 1026.89	-1803.39	  363.09
     99.9700	 1070.00	 1087.53	-1791.03	  362.71
    100.0700	 1072.00	 1158.55	-1860.05	  362.33
    100.1700	 1286.00	 1238.45	-1725.95	  361.95
    100.2700	 1326.00	 1325.31	-1772.81	  361.57
    100.3700	 1436.00	 1416.71	-1754.21	  361.19
    100.4700	 1520.00	 1509.69	-1763.19	  360.81
    100.5700	 1648.00	 1601.01	-1726.51	  360.42
    100.6700	 1727.00	 1687.20	-1733.70	  360.04
    100.7700	 1785.00	 1765.00	-1753.50	  359.65
    100.8700	 1921.00	 1831.74	-1684.24	  359.27
    100.9700	 1940.00	 1885.52	-1719.02	  358.88
    101.0700	 1970.00	 1925.24	-1728.74	  358.49
    101.1700	 1936.00	 1950.21	-1787.71	  358.10
    101.2700	 1988.00	 1959.92	-1745.42	  357.72
    101.3700	 1981.00	 1953.92	-1746.42	  357.33
    101.4700	 1934.00	 1932.06	-1771.56	  356.94
    101.5700	 1953.00	 1894.90	-1715.40	  356.54
    101.6700	 1906.00	 1843.97	-1711.47	  356.15
    101.7700	 1808.00	 1781.95	-1747.45	  355.76
    101.8700	 1767.00	 1712.33	-1718.83	  355.37
    101.9700	 1569.00	 1638.96	-1843.46	  354.97
    102.0700	 1516.00	 1565.47	-1822.97	  354.58
    102.1700	 1446.00	 1494.96	-1822.46	  354.18
    102.2700	 1412.00	 1429.80	-1791.30	  353.79
    102.3700	 1387.00	 1371.54	-1758.04	  353.39
    102.4700	 1358.00	 1320.96	-1736.46	  353.00
    102.5700	 1332.00	 1278.06	-1719.56	  352.60
    102.6700	 1189.00	 1242.18	-1826.68	  352.20
    102.7700	 1208.00	 1212.09	-1777.59	  351.81
    102.8700	 1164.00	 1186.10	-1795.60	  351.41
    102.9700	 1157.00	 1162.22	-1778.72	  351.01
    103.0700	 1126.00	 1138.43	-1785.93	  350.61
    103.1700	 1055.00	 1112.98	-1831.48	  350.22
    103.2700	 1047.00	 1084.65	-1811.15	  349.82
    103.3700	  993.00	 1052.91	-1833.41	  349.42
    103.4700	 1029.00	 1017.85	-1762.35	  349.02
    103.5700	  977.00	  980.09	-1776.59	  348.62
    103.6700	  909.00	  940.53	-1805.03	  348.22
    103.7700	  904.00	  900.17	-1769.67	  347.82
    103.8700	  839.00	  859.98	-1794.48	  347.42
    103.9700	  849.00	  820.86	-1745.36	  347.02
    104.0700	  796.00	  783.56	-1761.06	  346.62
    104.1700	  763.00	  748.70	-1759.20	  346.22
    104.2700	  749.00	  716.72	-1741.22	  345.82
    104.3700	  748.00	  687.92	-1713.42	  345.42
    104.4700	  762.00	  662.45	-1673.95	  345.03
    104.5700	  713.00	  640.31	-1700.81	  344.63
    104.6700	  617.00	  621.42	-1777.92	  344.23
    104.7700	  665.00	  605.57	-1714.07	  343.83
    104.8700	  626.00	  592.51	-1740.01	  343.43
    104.9700	  570.00	  581.96	-1785.46	  343.03
    105.0700	  621.00	  573.62	-1726.12	  342.64
    105.1700	  574.00	  567.18	-1766.68	  342.24
    105.2700	  639.00	  562.37	-1696.87	  341.84
    105.3700	  564.00	  558.96	-1768.46	  341.44
    105.4700	  625.00	  556.74	-1705.24	  341.05
    105.5700	  612.00	  555.54	-1717.04	  340.65
    105.6700	  542.00	  555.25	-1786.75	  340.26
    105.7700	  586.00	  555.77	-1743.27	  339.86
    105.8700	  571.00	  557.05	-1759.55	  339.47
    105.9700	  496.00	  559.05	-1836.55	  339.08
    106.0700	  504.00	  561.77	-1831.27	  338.68
    106.1700	  528.00	  565.22	-1810.72	  338.29
    106.2700	  581.00	  569.43	-1761.93	  337.90
    106.3700	  574.00	  574.44	-1773.94	  337.51
    106.4700	  553.00	  580.27	-1800.77	  337.12
    106.5700	  546.00	  586.94	-1814.44	  336.73
    106.6700	  570.00	  594.45	-1797.95	  336.34
    106.7700	  594.00	  602.76	-1782.26	  335.96
    106.8700	  655.00	  611.79	-1730.29	  335.57
    106.9700	  621.00	  621.40	-1773.90	  335.18
    107.0700	  641.00	  631.40	-1763.90	  334.80
    107.1700	  669.00	  641.56	-1746.06	  334.42
    107.2700	  640.00	  651.60	-1785.10	  334.03
    107.3700	  663.00	  661.21	-1771.71	  333.65
    107.4700	  640.00	  670.03	-1803.53	  333.27
    107.5700	  714.00	  677.72	-1737.22	  332.90
    107.6700	  745.00	  683.96	-1712.46	  332.52
    107.7700	  688.00	  688.57	-1774.07	  332.14
    107.8700	  687.00	  691.46	-1777.96	  331.77
    107.9700	  692.00	  692.71	-1774.21	  331.39
    108.0700	  688.00	  692.55	-1778.05	  331.02
    108.1700	  700.00	  691.32	-1764.82	  330.65
    108.2700	  736.00	  689.41	-1726.91	  330.28
    108.3700	  684.00	  687.24	-1776.74	  329.91
    108.4700	  701.00	  685.17	-1757.67	  329.55
    108.5700	  679.00	  683.50	-1778.00	  329.18
    108.6700	  672.00	  682.43	-1783.93	  328.82
    108.7700	  698.00	  682.08	-1757.58	  328.46
    108.8700	  690.00	  682.47	-1765.97	  328.10
    108.9700	  675.00	  683.54	-1782.04	  327.74
    109.0700	  683.00	  685.11	-1775.61	  327.39
    109.1700	  721.00	  686.92	-1739.42	  327.03
    109.2700	  715.00	  688.66	-1747.16	  326.68
    109.3700	  722.00	  689.95	-1741.45	  326.33
    109.4700	  706.00	  690.40	-1757.90	  325.98
    109.5700	  666.00	  689.68	-1797.18	  325.64
    109.6700	  673.00	  687.53	-1788.03	  325.29
    109.7700	  739.00	  683.80	-1718.30	  324.95
    109.8700	  662.00	  678.49	-1789.99	  324.61
    109.9700	  711.00	  671.76	-1734.26	  324.27
    110.0700	  666.00	  663.82	-1771.32	  323.94
    110.1700	  682.00	  654.97	-1746.47	  323.60
    110.2700	  653.00	  645.53	-1766.03	  323.27
    110.3700	  689.00	  635.81	-1720.31	  322.95
    110.4700	  626.00	  626.10	-1773.60	  322.62
    110.5700	  643.00	  616.64	-1747.14	  322.30
    110.6700	  606.00	  607.66	-1775.16	  321.98
    110.7700	  599.00	  599.35	-1773.85	  321.66
    110.8700	  638.00	  591.84	-1727.34	  321.34
    110.9700	  615.00	  585.23	-1743.73	  321.03
    111.0700	  601.00	  579.58	-1752.08	  320.72
    111.1700	  573.00	  574.92	-1775.42	  320.41
    111.2700	  593.00	  571.25	-1751.75	  320.11
    111.3700	  580.00	  568.54	-1762.04	  319.81
    111.4700	  599.00	  566.72	-1741.22	  319.51
    111.5700	  610.00	  565.73	-1729.23	  319.21
    111.6700	  554.00	  565.49	-1784.99	  318.92
    111.7700	  538.00	  565.91	-1801.41	  318.63
    111.8700	  557.00	  566.90	-1783.40	  318.34
    111.9700	  574.00	  568.37	-1767.87	  318.06
    112.0700	  580.00	  570.22	-1763.72	  317.78
    112.1700	  573.00	  572.37	-1772.87	  317.50
    112.2700	  549.00	  574.76	-1799.26	  317.23
    112.3700	  576.00	  577.32	-1774.82	  316.96
    112.4700	  567.00	  580.00	-1786.50	  316.69
    112.5700	  563.00	  582.80	-1793.30	  316.43
    112.6700	  646.00	  585.70	-1713.20	  316.17
    112.7700	  547.00	  588.72	-1815.22	  315.91
    112.8700	  599.00	  591.92	-1766.42	  315.66
    112.9700	  635.00	  595.33	-1733.83	  315.41
    113.0700	  560.00	  599.05	-1812.55	  315.17
    113.1700	  611.00	  603.16	-1765.66	  314.92
    113.2700	  589.00	  607.77	-1792.27	  314.69
    113.3700	  552.00	  613.01	-1834.51	  314.45
    113.4700	  600.00	  619.04	-1792.54	  314.22
    113.5700	  636.00	  626.05	-1763.55	  314.00
    113.6700	  648.00	  634.29	-1759.79	  313.78
    113.7700	  670.00	  644.04	-1747.54	  313.56
    113.8700	  649.00	  655.69	-1780.19	  313.35
    113.9700	  686.00	  669.68	-1757.18	  313.14
    114.0700	  719.00	  686.59	-1741.09	  312.93
    114.1700	  737.00	  707.11	-1743.61	  312.73
    114.2700	  743.00	  732.08	-1762.58	  312.54
    114.3700	  747.00	  762.51	-1789.01	  312.35
    114.4700	  817.00	  799.56	-1756.06	  312.16
    114.5700	  797.00	  844.61	-1821.11	  311.98
    114.6700	  920.00	  899.22	-1752.72	  311.80
    114.7700	  977.00	  965.13	-1761.63	  311.63
    114.8700	 1084.00	 1044.24	-1733.74	  311.46
    114.9700	 1192.00	 1138.58	-1720.08	  311.30
    115.0700	 1243.00	 1250.27	-1780.77	  311.14
    115.1700	 1432.00	 1381.42	-1722.92	  310.99
    115.2700	 1544.00	 1534.03	-1763.53	  310.84
    115.3700	 1806.00	 1709.99	-1677.49	  310.70
    115.4700	 1983.00	 1910.80	-1701.30	  310.56
    115.5700	 2191.00	 2137.61	-1720.11	  310.43
    115.6700	 2521.00	 2390.95	-1643.45	  310.30
    115.7700	 2729.00	 2670.61	-1715.11	  310.18
    115.8700	 2916.00	 2975.71	-1833.21	  310.06
    115.9700	 3362.00	 3304.26	-1715.76	  309.95
    116.0700	 3647.00	 3653.45	-1779.95	  309.85
    116.1700	 4039.00	 4019.30	-1753.80	  309.75
    116.2700	 4470.00	 4396.68	-1700.18	  309.65
    116.3700	 4747.00	 4779.52	-1806.02	  309.57
    116.4700	 5080.00	 5160.47	-1853.97	  309.48
    116.5700	 5336.00	 5531.35	-1968.85	  309.41
    116.6700	 5812.00	 5882.96	-1844.46	  309.34
    116.7700	 6186.00	 6205.39	-1792.89	  309.27
    116.8700	 6399.00	 6488.54	-1863.04	  309.21
    116.9700	 6750.00	 6722.35	-1745.85	  309.16
    117.0700	 6852.00	 6897.79	-1819.29	  309.11
    117.1700	 7026.00	 7007.51	-1755.01	  309.07
    117.2700	 7094.00	 7046.77	-1726.27	  309.04
    117.3700	 7055.00	 7014.04	-1732.54	  309.01
    117.4700	 6950.00	 6911.15	-1734.65	  308.99
    117.5700	 6623.00	 6743.06	-1893.56	  308.98
    117.6700	 6476.00	 6517.26	-1814.76	  308.97
    117.7700	 6135.00	 6242.94	-1881.44	  308.97
    117.8700	 5773.00	 5929.98	-1930.48	  308.98
    117.9700	 5537.00	 5588.56	-1825.06	  308.99
    118.0700	 5073.00	 5228.27	-1928.77	  309.01
    118.1700	 4932.00	 4858.13	-1699.63	  309.03
    118.2700	 4574.00	 4486.23	-1685.73	  309.07
    118.3700	 4134.00	 4119.44	-1758.94	  309.11
    118.4700	 3846.00	 3763.75	-1691.25	  309.16
    118.5700	 3511.00	 3423.85	-1686.35	  309.21
    118.6700	 3238.00	 3103.45	-1638.95	  309.27
    118.7700	 2803.00	 2805.27	-1775.77	  309.34
    118.8700	 2540.00	 2530.88	-1764.38	  309.42
    118.9700	 2258.00	 2281.20	-1796.70	  309.51
    119.0700	 2032.00	 2056.23	-1797.73	  309.60
    119.1700	 1851.00	 1855.47	-1777.97	  309.70
    119.2700	 1709.00	 1677.94	-1742.44	  309.81
    119.3700	 1529.00	 1522.18	-1766.68	  309.92
    119.4700	 1366.00	 1386.59	-1794.09	  310.04
    119.5700	 1306.00	 1269.31	-1736.81	  310.18
    119.6700	 1254.00	 1168.47	-1687.97	  310.32
    119.7700	 1122.00	 1082.22	-1733.72	  310.46
    119.8700	 1025.00	 1008.70	-1757.20	  310.62
    119.9700	  934.00	  946.23	-1785.73	  310.78
    120.0700	  908.00	  893.23	-1758.73	  310.96
    120.1700	  810.00	  848.31	-1811.81	  311.14
    120.2700	  766.00	  810.25	-1817.75	  311.33
    120.3700	  855.00	  777.97	-1696.47	  311.53
    120.4700	  764.00	  750.57	-1760.07	  311.73
    120.5700	  684.00	  727.27	-1816.77	  311.95
    120.6700	  681.00	  707.44	-1799.94	  312.17
    120.7700	  698.00	  690.57	-1766.07	  312.41
    120.8700	  697.00	  676.21	-1752.71	  312.65
    120.9700	  635.00	  664.03	-1802.53	  312.90
    121.0700	  629.00	  653.72	-1798.22	  313.16
    121.1700	  634.00	  645.07	-1784.57	  313.43
    121.2700	  610.00	  637.89	-1801.39	  313.71
    121.3700	  600.00	  632.01	-1805.51	  314.00
    121.4700	  616.00	  627.33	-1784.83	  314.30
    121.5700	  626.00	  623.72	-1771.22	  314.61
    121.6700	  585.00	  621.10	-1809.60	  314.93
    121.7700	  608.00	  619.39	-1784.89	  315.25
    121.8700	  599.00	  618.52	-1793.02	  315.59
    121.9700	  637.00	  618.42	-1754.92	  315.94
    122.0700	  601.00	  619.01	-1791.51	  316.30
    122.1700	  608.00	  620.25	-1785.75	  316.66
    122.2700	  627.00	  622.06	-1768.56	  317.04
    122.3700	  603.00	  624.36	-1794.86	  317.43
    122.4700	  635.00	  627.08	-1765.58	  317.83
    122.5700	  612.00	  630.15	-1791.65	  318.23
    122.6700	  643.00	  633.46	-1763.96	  318.65
    122.7700	  592.00	  636.93	-1818.43	  319.08
    122.8700	  597.00	  640.46	-1816.96	  319.52
    122.9700	  656.00	  643.94	-1761.44	  319.98
    123.0700	  645.00	  647.27	-1775.77	  320.44
    123.1700	  630.00	  650.33	-1793.83	  320.91
    123.2700	  641.00	  653.02	-1785.52	  321.39
    123.3700	  645.00	  655.25	-1783.75	  321.89
    123.4700	  658.00	  656.95	-1772.45	  322.40
    123.5700	  673.00	  658.04	-1758.54	  322.91
    123.6700	  679.00	  658.51	-1753.01	  323.44
    123.7700	  653.00	  658.35	-1778.85	  323.98
    123.8700	  698.00	  657.58	-1733.08	  324.54
    123.9700	  658.00	  656.23	-1771.73	  325.10
    124.0700	  646.00	  654.38	-1781.88	  325.68
    124.1700	  638.00	  652.08	-1787.58	  326.26
    124.2700	  691.00	  649.41	-1731.91	  326.86
    124.3700	  624.00	  646.43	-1795.93	  327.48
    124.4700	  667.00	  643.25	-1749.75	  328.10
    124.5700	  620.00	  639.92	-1793.42	  328.74
    124.6700	  645.00	  636.50	-1765.00	  329.39
    124.7700	  589.00	  633.07	-1817.57	  330.05
    124.8700	  675.00	  629.67	-1728.17	  330.72
    124.9700	  648.00	  434.40	-1559.90	  331.41
    125.0700	  596.00	  435.09	-1773.50	  332.10
    125.1700	  620.00	  435.81	-1773.50	  332.82
    125.2700	  674.00	  436.53	-1773.50	  333.54
    125.3700	  618.00	  437.27	-1773.50	  334.28
    125.4700	  575.00	  438.02	-1773.50	  335.03
    125.5700	  569.00	  438.78	-1773.50	  335.79
    125.6700	  565.00	  439.56	-1773.50	  336.57
    125.7700	  565.00	  440.35	-1773.50	  337.36
    125.8700	  576.00	  441.16	-1773.50	  338.17
    125.9700	  589.00	  441.97	-1773.50	  338.98
    126.0700	  618.00	  442.81	-1773.50	  339.82
    126.1700	  642.00	  443.65	-1773.50	  340.66
    126.2700	  576.00	  444.51	-1773.50	  341.52
    126.3700	  556.00	  445.38	-1773.50	  342.39
    126.4700	  594.00	  446.27	-1773.50	  343.28
    126.5700	  578.00	  447.17	-1773.50	  344.18
    126.6700	  557.00	  448.09	-1773.50	  345.10
    126.7700	  585.00	  449.02	-1773.50	  346.03
    126.8700	  572.00	  449.97	-1773.50	  346.98
    126.9700	  515.00	  450.93	-1773.50	  347.94
    127.0700	  544.00	  451.90	-1773.50	  348.91
    127.1700	  617.00	  452.89	-1773.50	  349.90
    127.2700	  587.00	  453.89	-1773.50	  350.90
    127.3700	  526.00	  454.91	-1773.50	  351.92
    127.4700	  581.00	  455.95	-1773.50	  352.96
    127.5700	  591.00	  457.00	-1773.50	  354.01
    127.6700	  562.00	  458.06	-1773.50	  355.07
    127.7700	  563.00	  459.14	-1773.50	  356.15
    127.8700	  592.00	  460.24	-1773.50	  357.25
    127.9700	  620.00	  461.35	-1773.50	  358.36
    128.0700	  656.00	  462.48	-1773.50	  359.49
    128.1700	  611.00	  463.62	-1773.50	  360.63
    128.2700	  676.00	  464.78	-1773.50	  361.79
    128.3700	  646.00	  465.96	-1773.50	  362.97
    128.4700	  669.00	  467.15	-1773.50	  364.16
    128.5700	    0.00	  468.36	-1773.50	  365.37
    128.6700	    0.00	  469.58	-1773.50	  366.59
     12.3604	        	        	        	        	       0	(  0  0  2)	  0  1
     24.9996	        	        	        	        	       0	(  0  0  4)	  0  1
     28.4266	        	        	        	        	       0	(  1  0  0)	  0  1
     29.1277	        	        	        	        	       0	(  1  0  1)	  0  1
     31.1450	        	        	        	        	       0	(  1  0  2)	  0  1
     34.2702	        	        	        	        	       0	(  1  0  3)	  0  1
     37.9592	        	        	        	        	       0	(  0  0  6)	  0  1
     38.2687	        	        	        	        	       0	(  1  0  4)	  0  1
     42.9438	        	        	        	        	       0	(  1  0  5)	  0  1
     48.1561	        	        	        	        	       0	(  1  0  6)	  0  1
     50.4451	        	        	        	        	       0	(  1  1  0)	  0  1
     51.4488	        	        	        	        	       0	(  0  0  8)	  0  1
     52.1787	        	        	        	        	       0	(  1  1  2)	  0  1
     53.8179	        	        	        	        	       0	(  1  0  7)	  0  1
     57.1570	        	        	        	        	       0	(  1  1  4)	  0  1
     58.9775	        	        	        	        	       0	(  2  0  0)	  0  1
     59.3716	        	        	        	        	       0	(  2  0  1)	  0  1
     59.8832	        	        	        	        	       0	(  1  0  8)	  0  1
     60.5445	        	        	        	        	       0	(  2  0  2)	  0  1
     62.4702	        	        	        	        	       0	(  2  0  3)	  0  1
     64.9003	        	        	        	        	       0	(  1  1  6)	  0  1
     65.1115	        	        	        	        	       0	(  2  0  4)	  0  1
     65.7587	        	        	        	        	       0	(  0  0 10)	  0  1
     66.3385	        	        	        	        	       0	(  1  0  9)	  0  1
     68.4278	        	        	        	        	       0	(  2  0  5)	  0  1
     72.3822	        	        	        	        	       0	(  2  0  6)	  0  1
     73.1990	        	        	        	        	       0	(  1  0 10)	  0  1
     75.0057	        	        	        	        	       0	(  1  1  8)	  0  1
     76.9486	        	        	        	        	       0	(  2  0  7)	  0  1
     80.5081	        	        	        	        	       0	(  1  0 11)	  0  1
     81.3287	        	        	        	        	       0	(  2  1  0)	  0  1
     81.3433	        	        	        	        	       0	(  0  0 12)	  0  1
     81.6712	        	        	        	        	       0	(  2  1  1)	  0  1
     82.1174	        	        	        	        	       0	(  2  0  8)	  0  1
     82.6971	        	        	        	        	       0	(  2  1  2)	  0  1
     84.4019	        	        	        	        	       0	(  2  1  3)	  0  1
     86.7808	        	        	        	        	       0	(  2  1  4)	  0  1
     87.3707	        	        	        	        	       0	(  1  1 10)	  0  1
     87.9016	        	        	        	        	       0	(  2  0  9)	  0  1
     88.3437	        	        	        	        	       0	(  1  0 12)	  0  1
     89.8322	        	        	        	        	       0	(  2  1  5)	  0  1
     93.5624	        	        	        	        	       0	(  2  1  6)	  0  1
     94.3451	        	        	        	        	       0	(  2  0 10)	  0  1
     95.3066	        	        	        	        	       0	(  3  0  0)	  0  1
     95.6471	        	        	        	        	       0	(  3  0  1)	  0  1
     96.6699	        	        	        	        	       0	(  3  0  2)	  0  1
     96.8328	        	        	        	        	       0	(  1  0 13)	  0  1
     97.9923	        	        	        	        	       0	(  2  1  7)	  0  1
     98.3795	        	        	        	        	       0	(  3  0  3)	  0  1
     99.0353	        	        	        	        	       0	(  0  0 14)	  0  1
    100.7863	        	        	        	        	       0	(  3  0  4)	  0  1
    101.5374	        	        	        	        	       0	(  2  0 11)	  0  1
    102.3811	        	        	        	        	       0	(  1  1 12)	  0  1
    103.1673	        	        	        	        	       0	(  2  1  8)	  0  1
    103.9103	        	        	        	        	       0	(  3  0  5)	  0  1
    106.1849	        	        	        	        	       0	(  1  0 14)	  0  1
    107.7885	        	        	        	        	       0	(  3  0  6)	  0  1
    109.1721	        	        	        	        	       0	(  2  1  9)	  0  1
    109.6410	        	        	        	        	       0	(  2  0 12)	  0  1
    112.4858	        	        	        	        	       0	(  3  0  7)	  0  1
    116.1604	        	        	        	        	       0	(  2  1 10)	  0  1
    116.7699	        	        	        	        	       0	(  1  0 15)	  0  1
    117.2338	        	        	        	        	       0	(  2  2  0)	  0  1
    118.1165	        	        	        	        	       0	(  3  0  8)	  0  1
    118.7709	        	        	        	        	       0	(  2  2  2)	  0  1
    118.9559	        	        	        	        	       0	(  2  0 13)	  0  1
    120.8104	        	        	        	        	       0	(  0  0 16)	  0  1
    121.4829	        	        	        	        	       0	(  1  1 14)	  0  1
    123.5303	        	        	        	        	       0	(  2  2  4)	  0  1
    124.4198	        	        	        	        	       0	(  2  1 11)	  0  1
    124.8863	        	        	        	        	       0	(  3  0  9)	  0  1
    125.4099	        	        	        	        	       0	(  3  1  0)	  0  1
    125.8274	        	        	        	        	       0	(  3  1  1)	  0  1
    127.0935	        	        	        	        	       0	(  3  1  2)	  0  1
    129.2527	        	        	        	        	       0	(  3  1  3)	  0  1
    129.3476	        	        	        	        	       0	(  1  0 16)	  0  1
    130.0962	        	        	        	        	       0	(  2  0 14)	  0  1
    132.1345	        	        	        	        	       0	(  2  2  6)	  0  1
    132.3939	        	        	        	        	       0	(  3  1  4)	  0  1
    133.1985	        	        	        	        	       0	(  3  0 10)	  0  1
    134.5504	        	        	        	        	       0	(  2  1 12)	  0  1
    136.6831	        	        	        	        	       0	(  3  1  5)	  0  1
    142.4480	        	        	        	        	       0	(  3  1  6)	  0  1
    144.0030	        	        	        	        	       0	(  3  0 11)	  0  1
    144.6873	        	        	        	        	       0	(  2  0 15)	  0  1
    146.0659	        	        	        	        	       0	(  1  0 17)	  0  1
    146.8154	        	        	        	        	       0	(  2  2  8)	  0  1
    148.1911	        	        	        	        	       0	(  2  1 13)	  0  1
    150.4526	        	        	        	        	       0	(  3  1  7)	  0  1
    151.3955	        	        	        	        	       0	(  1  1 16)	  0  1
    156.2627	        	        	        	        	       0	(  0  0 18)	  0  1
    160.9810	        	        	        	        	       0	(  4  0  0)	  0  1
    161.0258	        	        	        	        	       0	(  3  0 12)	  0  1
    162.0572	        	        	        	        	       0	(  4  0  1)	  0  1
    163.5633	        	        	        	        	       0	(  3  1  8)	  0  1
    165.7535	        	        	        	        	       0	(  4  0  2)	  0  1
    177.8279	        	        	        	        	       0	(  4  0  3)	  0  1
