MSG Master    CELL:    5.91914   5.91914  23.27586   90.0000   90.0000  120.0000   SPGR: P 63/m m c             TEMP:   1074.85
  1   1280     2.52000     0.00000    -0.13118     0.00000     0.00000    0
    99     0     2
       0.00000      10.00000
     125.00000     130.00000
 2Theta	Yobs	Ycal	Yobs-Ycal	Backg	Posr	(hkl)	K
      0.7700	    0.00	  547.49	-1745.50	  429.15
      0.8700	    0.00	  548.19	-1745.50	  429.85
      0.9700	   38.00	  548.87	-1745.50	  430.53
      1.0700	   31.00	  549.55	-1745.50	  431.21
      1.1700	   46.00	  550.21	-1745.50	  431.87
      1.2700	   44.00	  550.86	-1745.50	  432.52
      1.3700	   42.00	  551.51	-1745.50	  433.17
      1.4700	  101.00	  552.14	-1745.50	  433.80
      1.5700	  272.00	  552.76	-1745.50	  434.42
      1.6700	  489.00	  553.38	-1745.50	  435.04
      1.7700	  581.00	  553.98	-1745.50	  435.64
      1.8700	  632.00	  554.57	-1745.50	  436.23
      1.9700	  695.00	  555.15	-1745.50	  436.81
      2.0700	  844.00	  555.73	-1745.50	  437.39
      2.1700	  806.00	  556.29	-1745.50	  437.95
      2.2700	  728.00	  556.84	-1745.50	  438.50
      2.3700	  739.00	  557.39	-1745.50	  439.05
      2.4700	  721.00	  557.92	-1745.50	  439.58
      2.5700	  703.00	  558.44	-1745.50	  440.10
      2.6700	  668.00	  558.96	-1745.50	  440.62
      2.7700	  649.00	  559.46	-1745.50	  441.12
      2.8700	  590.00	  559.96	-1745.50	  441.62
      2.9700	  633.00	  560.45	-1745.50	  442.11
      3.0700	  602.00	  560.93	-1745.50	  442.58
      3.1700	  629.00	  561.39	-1745.50	  443.05
      3.2700	  624.00	  561.85	-1745.50	  443.51
      3.3700	  663.00	  562.30	-1745.50	  443.96
      3.4700	  750.00	  562.74	-1745.50	  444.40
      3.5700	  802.00	  563.18	-1745.50	  444.84
      3.6700	  873.00	  563.60	-1745.50	  445.26
      3.7700	  971.00	  564.02	-1745.50	  445.67
      3.8700	  933.00	  564.42	-1745.50	  446.08
      3.9700	 1077.00	  564.82	-1745.50	  446.48
      4.0700	 1056.00	  565.21	-1745.50	  446.87
      4.1700	 1101.00	  565.59	-1745.50	  447.25
      4.2700	 1133.00	  565.96	-1745.50	  447.62
      4.3700	 1125.00	  566.32	-1745.50	  447.98
      4.4700	 1063.00	  566.68	-1745.50	  448.34
      4.5700	 1021.00	  567.03	-1745.50	  448.69
      4.6700	 1022.00	  567.37	-1745.50	  449.02
      4.7700	  959.00	  567.70	-1745.50	  449.36
      4.8700	  940.00	  568.02	-1745.50	  449.68
      4.9700	  956.00	  568.33	-1745.50	  449.99
      5.0700	  933.00	  568.64	-1745.50	  450.30
      5.1700	  949.00	  568.94	-1745.50	  450.60
      5.2700	  947.00	  569.23	-1745.50	  450.89
      5.3700	  882.00	  569.51	-1745.50	  451.17
      5.4700	  908.00	  569.79	-1745.50	  451.45
      5.5700	  891.00	  570.06	-1745.50	  451.72
      5.6700	  883.00	  570.32	-1745.50	  451.98
      5.7700	  872.00	  570.57	-1745.50	  452.23
      5.8700	  847.00	  570.82	-1745.50	  452.48
      5.9700	  780.00	  571.06	-1745.50	  452.72
      6.0700	  845.00	  571.29	-1745.50	  452.95
      6.1700	  724.00	  571.51	-1745.50	  453.17
      6.2700	  802.00	  571.73	-1745.50	  453.39
      6.3700	  753.00	  571.94	-1745.50	  453.60
      6.4700	  735.00	  572.14	-1745.50	  453.80
      6.5700	  765.00	  572.33	-1745.50	  453.99
      6.6700	  686.00	  572.52	-1745.50	  454.18
      6.7700	  680.00	  572.70	-1745.50	  454.36
      6.8700	  664.00	  572.88	-1745.50	  454.54
      6.9700	  746.00	  573.05	-1745.50	  454.71
      7.0700	  719.00	  573.21	-1745.50	  454.87
      7.1700	  700.00	  573.36	-1745.50	  455.02
      7.2700	  686.00	  573.51	-1745.50	  455.17
      7.3700	  683.00	  573.65	-1745.50	  455.31
      7.4700	  732.00	  573.79	-1745.50	  455.44
      7.5700	  635.00	  573.91	-1745.50	  455.57
      7.6700	  641.00	  574.04	-1745.50	  455.69
      7.7700	  631.00	  574.15	-1745.50	  455.81
      7.8700	  665.00	  574.26	-1745.50	  455.92
      7.9700	  655.00	  574.36	-1745.50	  456.02
      8.0700	  622.00	  574.46	-1745.50	  456.12
      8.1700	  678.00	  574.55	-1745.50	  456.21
      8.2700	  711.00	  574.64	-1745.50	  456.29
      8.3700	  609.00	  574.71	-1745.50	  456.37
      8.4700	  618.00	  574.79	-1745.50	  456.45
      8.5700	  657.00	  574.85	-1745.50	  456.51
      8.6700	  678.00	  574.91	-1745.50	  456.57
      8.7700	  634.00	  574.97	-1745.50	  456.63
      8.8700	  617.00	  575.02	-1745.50	  456.68
      8.9700	  590.00	  575.06	-1745.50	  456.72
      9.0700	  571.00	  575.10	-1745.50	  456.76
      9.1700	  598.00	  575.13	-1745.50	  456.79
      9.2700	  583.00	  575.16	-1745.50	  456.82
      9.3700	  598.00	  575.18	-1745.50	  456.84
      9.4700	  576.00	  575.20	-1745.50	  456.86
      9.5700	  631.00	  575.21	-1745.50	  456.87
      9.6700	  619.00	  575.21	-1745.50	  456.87
      9.7700	  612.00	  575.21	-1745.50	  456.87
      9.8700	  560.00	  575.21	-1745.50	  456.87
      9.9700	  608.00	  575.20	-1745.50	  456.86
     10.0700	  628.00	  576.19	-1693.69	  456.84
     10.1700	  607.00	  576.29	-1714.79	  456.82
     10.2700	  599.00	  576.40	-1722.90	  456.80
     10.3700	  635.00	  576.55	-1687.05	  456.76
     10.4700	  622.00	  576.78	-1700.28	  456.73
     10.5700	  577.00	  577.15	-1745.65	  456.69
     10.6700	  572.00	  577.76	-1751.26	  456.64
     10.7700	  589.00	  578.73	-1735.23	  456.59
     10.8700	  590.00	  580.13	-1735.63	  456.54
     10.9700	  595.00	  581.95	-1732.45	  456.48
     11.0700	  600.00	  584.16	-1729.66	  456.42
     11.1700	  569.00	  586.77	-1763.27	  456.35
     11.2700	  587.00	  589.81	-1748.31	  456.27
     11.3700	  611.00	  593.38	-1727.88	  456.20
     11.4700	  598.00	  597.64	-1745.14	  456.11
     11.5700	  601.00	  602.81	-1747.31	  456.03
     11.6700	  588.00	  609.31	-1766.81	  455.94
     11.7700	  614.00	  617.81	-1749.31	  455.84
     11.8700	  605.00	  629.21	-1769.71	  455.74
     11.9700	  640.00	  643.82	-1749.32	  455.64
     12.0700	  687.00	  659.44	-1717.94	  455.53
     12.1700	  716.00	  669.40	-1698.90	  455.42
     12.2700	  652.00	  664.15	-1757.65	  455.30
     12.3700	  685.00	  641.96	-1702.46	  455.18
     12.4700	  607.00	  615.96	-1754.46	  455.06
     12.5700	  572.00	  596.80	-1770.30	  454.93
     12.6700	  574.00	  585.96	-1757.46	  454.80
     12.7700	  608.00	  580.73	-1718.23	  454.67
     12.8700	  568.00	  578.22	-1755.72	  454.53
     12.9700	  562.00	  576.82	-1760.32	  454.38
     13.0700	  572.00	  575.87	-1749.37	  454.24
     13.1700	  533.00	  575.14	-1787.64	  454.09
     13.2700	  629.00	  574.56	-1691.06	  453.93
     13.3700	  556.00	  574.08	-1763.58	  453.77
     13.4700	  544.00	  573.66	-1775.16	  453.61
     13.5700	  521.00	  573.29	-1797.79	  453.45
     13.6700	  543.00	  572.95	-1775.45	  453.28
     13.7700	  559.00	  572.64	-1759.14	  453.11
     13.8700	  584.00	  572.35	-1733.85	  452.93
     13.9700	  574.00	  572.08	-1743.58	  452.75
     14.0700	  566.00	  571.81	-1751.31	  452.57
     14.1700	  542.00	  571.56	-1775.06	  452.39
     14.2700	  540.00	  571.31	-1776.81	  452.20
     14.3700	  578.00	  571.06	-1738.56	  452.01
     14.4700	  529.00	  570.82	-1787.32	  451.82
     14.5700	  587.00	  570.58	-1729.08	  451.62
     14.6700	  558.00	  570.35	-1757.85	  451.42
     14.7700	  579.00	  570.11	-1736.61	  451.21
     14.8700	  585.00	  569.88	-1730.38	  451.01
     14.9700	  534.00	  569.64	-1781.14	  450.80
     15.0700	  564.00	  569.40	-1750.90	  450.59
     15.1700	  627.00	  569.17	-1687.67	  450.37
     15.2700	  580.00	  568.93	-1734.43	  450.15
     15.3700	  548.00	  568.69	-1766.19	  449.93
     15.4700	  558.00	  568.46	-1755.96	  449.71
     15.5700	  502.00	  568.21	-1811.71	  449.48
     15.6700	  544.00	  567.97	-1769.47	  449.26
     15.7700	  571.00	  567.76	-1742.26	  449.02
     15.8700	  572.00	  567.51	-1741.01	  448.79
     15.9700	  562.00	  567.27	-1750.77	  448.55
     16.0700	  578.00	  567.02	-1734.52	  448.32
     16.1700	  583.00	  566.77	-1729.27	  448.07
     16.2700	  533.00	  566.52	-1779.02	  447.83
     16.3700	  574.00	  566.27	-1737.77	  447.58
     16.4700	  607.00	  566.01	-1704.51	  447.34
     16.5700	  540.00	  565.75	-1771.25	  447.09
     16.6700	  504.00	  565.50	-1807.00	  446.83
     16.7700	  559.00	  565.24	-1751.74	  446.58
     16.8700	  571.00	  564.97	-1739.47	  446.32
     16.9700	  538.00	  564.71	-1772.21	  446.06
     17.0700	  541.00	  564.44	-1768.94	  445.80
     17.1700	  589.00	  564.18	-1720.68	  445.53
     17.2700	  543.00	  563.91	-1766.41	  445.27
     17.3700	  535.00	  563.64	-1774.14	  445.00
     17.4700	  580.00	  563.36	-1728.86	  444.73
     17.5700	  618.00	  563.09	-1690.59	  444.46
     17.6700	  499.00	  562.82	-1809.32	  444.19
     17.7700	  580.00	  562.54	-1728.04	  443.91
     17.8700	  562.00	  562.26	-1745.76	  443.63
     17.9700	  559.00	  561.98	-1748.48	  443.35
     18.0700	  601.00	  561.80	-1706.30	  443.07
     18.1700	  543.00	  561.52	-1764.02	  442.79
     18.2700	  563.00	  561.24	-1743.74	  442.51
     18.3700	  585.00	  560.95	-1721.45	  442.22
     18.4700	  552.00	  560.67	-1754.17	  441.93
     18.5700	  559.00	  560.38	-1746.88	  441.64
     18.6700	  515.00	  560.09	-1790.59	  441.35
     18.7700	  537.00	  559.80	-1768.30	  441.06
     18.8700	  515.00	  559.59	-1790.09	  440.76
     18.9700	  591.00	  559.30	-1713.80	  440.47
     19.0700	  528.00	  559.01	-1776.51	  440.17
     19.1700	  575.00	  558.71	-1729.21	  439.87
     19.2700	  610.00	  558.42	-1693.92	  439.57
     19.3700	  556.00	  558.12	-1747.62	  439.27
     19.4700	  549.00	  557.83	-1754.33	  438.97
     19.5700	  586.00	  557.53	-1717.03	  438.67
     19.6700	  556.00	  557.23	-1746.73	  438.36
     19.7700	  570.00	  556.93	-1732.44	  438.06
     19.8700	  575.00	  556.64	-1727.14	  437.75
     19.9700	  481.00	  556.34	-1820.84	  437.44
     20.0700	  532.00	  556.04	-1769.54	  437.13
     20.1700	  555.00	  555.73	-1746.23	  436.82
     20.2700	  542.00	  555.43	-1758.93	  436.51
     20.3700	  515.00	  555.13	-1785.63	  436.19
     20.4700	  575.00	  554.83	-1725.33	  435.88
     20.5700	  539.00	  554.53	-1761.03	  435.56
     20.6700	  585.00	  554.22	-1714.72	  435.25
     20.7700	  578.00	  553.95	-1721.45	  434.93
     20.8700	  539.00	  553.61	-1760.11	  434.61
     20.9700	  552.00	  553.31	-1746.81	  434.30
     21.0700	  548.00	  553.01	-1750.51	  433.98
     21.1700	  526.00	  552.71	-1772.21	  433.66
     21.2700	  552.00	  552.41	-1745.91	  433.33
     21.3700	  559.00	  552.11	-1738.61	  433.01
     21.4700	  556.00	  551.81	-1741.31	  432.69
     21.5700	  560.00	  551.51	-1737.01	  432.37
     21.6700	  579.00	  551.21	-1717.71	  432.04
     21.7700	  514.00	  550.92	-1782.42	  431.72
     21.8700	  562.00	  550.62	-1734.12	  431.39
     21.9700	  569.00	  550.33	-1726.83	  431.07
     22.0700	  522.00	  550.04	-1773.54	  430.74
     22.1700	  575.00	  549.75	-1720.25	  430.41
     22.2700	  551.00	  549.47	-1743.97	  430.08
     22.3700	  549.00	  549.19	-1745.69	  429.76
     22.4700	  527.00	  548.91	-1767.41	  429.43
     22.5700	  497.00	  548.64	-1797.14	  429.10
     22.6700	  562.00	  548.37	-1731.87	  428.77
     22.7700	  615.00	  548.12	-1678.62	  428.44
     22.8700	  568.00	  547.87	-1725.37	  428.11
     22.9700	  539.00	  547.63	-1754.13	  427.78
     23.0700	  519.00	  547.41	-1773.91	  427.45
     23.1700	  546.00	  547.20	-1746.70	  427.12
     23.2700	  526.00	  547.02	-1766.52	  426.79
     23.3700	  535.00	  546.87	-1757.37	  426.45
     23.4700	  577.00	  546.75	-1715.25	  426.12
     23.5700	  562.00	  546.83	-1730.33	  425.79
     23.6700	  568.00	  546.85	-1724.35	  425.46
     23.7700	  511.00	  547.00	-1781.50	  425.12
     23.8700	  561.00	  547.38	-1731.88	  424.79
     23.9700	  569.00	  548.24	-1724.74	  424.46
     24.0700	  546.00	  549.97	-1749.47	  424.13
     24.1700	  568.00	  553.20	-1730.70	  423.79
     24.2700	  594.00	  558.70	-1710.20	  423.46
     24.3700	  595.00	  567.32	-1717.82	  423.13
     24.4700	  627.00	  579.79	-1698.29	  422.79
     24.5700	  649.00	  595.90	-1692.40	  422.46
     24.6700	  646.00	  612.65	-1712.15	  422.13
     24.7700	  612.00	  623.08	-1756.58	  421.80
     24.8700	  596.00	  618.72	-1768.22	  421.46
     24.9700	  630.00	  599.79	-1715.29	  421.13
     25.0700	  540.00	  577.90	-1783.40	  420.80
     25.1700	  578.00	  561.47	-1728.97	  420.47
     25.2700	  588.00	  551.86	-1709.36	  420.13
     25.3700	  545.00	  547.06	-1747.56	  419.80
     25.4700	  592.00	  544.74	-1698.24	  419.47
     25.5700	  555.00	  543.46	-1733.96	  419.14
     25.6700	  529.00	  542.63	-1759.13	  418.81
     25.7700	  563.00	  542.02	-1724.52	  418.48
     25.8700	  532.00	  541.56	-1755.06	  418.15
     25.9700	  559.00	  541.20	-1727.70	  417.82
     26.0700	  558.00	  540.94	-1728.44	  417.49
     26.1700	  567.00	  540.76	-1719.26	  417.16
     26.2700	  563.00	  540.66	-1723.16	  416.83
     26.3700	  556.00	  540.63	-1730.13	  416.50
     26.4700	  499.00	  540.69	-1787.19	  416.17
     26.5700	  549.00	  540.85	-1737.35	  415.84
     26.6700	  564.00	  541.13	-1722.63	  415.51
     26.7700	  602.00	  541.54	-1685.04	  415.19
     26.8700	  589.00	  542.13	-1698.63	  414.86
     26.9700	  570.00	  542.95	-1718.45	  414.54
     27.0700	  527.00	  544.08	-1762.58	  414.21
     27.1700	  530.00	  545.64	-1761.14	  413.89
     27.2700	  551.00	  547.92	-1742.42	  413.56
     27.3700	  562.00	  551.43	-1734.93	  413.24
     27.4700	  539.00	  557.20	-1763.70	  412.91
     27.5700	  549.00	  567.08	-1763.58	  412.59
     27.6700	  585.00	  584.00	-1744.50	  412.27
     27.7700	  544.00	  611.68	-1813.18	  411.95
     27.8700	  581.00	  653.30	-1817.80	  411.63
     27.9700	  648.00	  708.86	-1806.36	  411.31
     28.0700	  780.00	  771.62	-1737.12	  410.99
     28.1700	  969.00	  825.22	-1601.72	  410.67
     28.2700	  968.00	  845.56	-1623.06	  410.35
     28.3700	  890.00	  819.71	-1675.21	  410.04
     28.4700	  778.00	  771.63	-1739.13	  409.72
     28.5700	  686.00	  737.56	-1797.06	  409.40
     28.6700	  752.00	  733.04	-1726.54	  409.09
     28.7700	  697.00	  752.75	-1801.25	  408.78
     28.8700	  767.00	  776.89	-1755.39	  408.46
     28.9700	  802.00	  778.72	-1722.22	  408.15
     29.0700	  749.00	  742.56	-1739.06	  407.84
     29.1700	  677.00	  684.06	-1752.56	  407.53
     29.2700	  601.00	  629.27	-1773.77	  407.22
     29.3700	  634.00	  590.04	-1701.54	  406.91
     29.4700	  568.00	  566.39	-1743.89	  406.60
     29.5700	  607.00	  553.56	-1692.06	  406.30
     29.6700	  575.00	  546.74	-1717.24	  405.99
     29.7700	  577.00	  542.83	-1711.33	  405.69
     29.8700	  592.00	  540.39	-1693.89	  405.38
     29.9700	  599.00	  538.84	-1685.34	  405.08
     30.0700	  563.00	  538.06	-1720.56	  404.78
     30.1700	  543.00	  538.22	-1740.72	  404.48
     30.2700	  593.00	  539.83	-1692.33	  404.18
     30.3700	  590.00	  543.89	-1699.39	  403.88
     30.4700	  608.00	  551.83	-1689.33	  403.58
     30.5700	  552.00	  565.12	-1758.62	  403.29
     30.6700	  565.00	  583.97	-1764.47	  402.99
     30.7700	  619.00	  605.89	-1732.39	  402.70
     30.8700	  665.00	  624.39	-1704.89	  402.40
     30.9700	  623.00	  630.08	-1752.58	  402.11
     31.0700	  619.00	  617.07	-1743.57	  401.82
     31.1700	  589.00	  592.28	-1748.78	  401.53
     31.2700	  562.00	  567.82	-1751.32	  401.24
     31.3700	  547.00	  549.81	-1748.31	  400.95
     31.4700	  500.00	  538.80	-1784.30	  400.67
     31.5700	  550.00	  532.85	-1728.35	  400.38
     31.6700	  552.00	  529.75	-1723.25	  400.10
     31.7700	  513.00	  528.02	-1760.52	  399.82
     31.8700	  534.00	  526.94	-1738.44	  399.53
     31.9700	  544.00	  526.20	-1727.70	  399.25
     32.0700	  532.00	  525.69	-1739.19	  398.98
     32.1700	  525.00	  525.37	-1745.87	  398.70
     32.2700	  561.00	  525.21	-1709.71	  398.42
     32.3700	  530.00	  525.20	-1740.70	  398.15
     32.4700	  536.00	  525.36	-1734.86	  397.87
     32.5700	  529.00	  525.71	-1742.21	  397.60
     32.6700	  548.00	  526.28	-1723.78	  397.33
     32.7700	  540.00	  527.12	-1732.62	  397.06
     32.8700	  584.00	  528.31	-1689.81	  396.79
     32.9700	  518.00	  529.99	-1757.49	  396.52
     33.0700	  558.00	  532.41	-1719.91	  396.26
     33.1700	  505.00	  536.11	-1776.61	  395.99
     33.2700	  528.00	  542.31	-1759.81	  395.73
     33.3700	  558.00	  553.56	-1741.06	  395.47
     33.4700	  573.00	  574.60	-1747.10	  395.21
     33.5700	  640.00	  612.61	-1718.11	  394.95
     33.6700	  661.00	  675.37	-1759.87	  394.69
     33.7700	  760.00	  765.38	-1750.88	  394.44
     33.8700	  915.00	  871.74	-1702.24	  394.18
     33.9700	 1088.00	  965.24	-1622.74	  393.93
     34.0700	 1089.00	 1002.75	-1659.25	  393.68
     34.1700	 1019.00	  954.97	-1681.47	  393.43
     34.2700	  908.00	  847.13	-1684.63	  393.18
     34.3700	  722.00	  733.14	-1756.64	  392.93
     34.4700	  609.00	  644.97	-1781.47	  392.69
     34.5700	  609.00	  588.95	-1725.45	  392.44
     34.6700	  562.00	  558.03	-1741.53	  392.20
     34.7700	  553.00	  542.14	-1734.64	  391.96
     34.8700	  531.00	  533.69	-1748.19	  391.72
     34.9700	  526.00	  528.63	-1748.13	  391.48
     35.0700	  553.00	  525.12	-1717.62	  391.24
     35.1700	  495.00	  522.48	-1772.98	  391.01
     35.2700	  510.00	  520.39	-1755.89	  390.78
     35.3700	  498.00	  518.70	-1766.20	  390.54
     35.4700	  517.00	  517.29	-1745.79	  390.31
     35.5700	  504.00	  516.11	-1757.61	  390.08
     35.6700	  521.00	  515.09	-1739.59	  389.86
     35.7700	  533.00	  514.21	-1726.71	  389.63
     35.8700	  542.00	  513.44	-1716.94	  389.41
     35.9700	  464.00	  512.76	-1794.26	  389.18
     36.0700	  530.00	  512.61	-1728.11	  388.96
     36.1700	  493.00	  512.07	-1764.57	  388.74
     36.2700	  470.00	  511.58	-1787.08	  388.53
     36.3700	  548.00	  511.14	-1708.64	  388.31
     36.4700	  473.00	  510.75	-1783.25	  388.10
     36.5700	  507.00	  510.40	-1748.90	  387.88
     36.6700	  487.00	  510.09	-1768.59	  387.67
     36.7700	  474.00	  509.84	-1781.34	  387.46
     36.8700	  518.00	  509.67	-1737.17	  387.25
     36.9700	  504.00	  509.65	-1751.15	  387.05
     37.0700	  469.00	  509.93	-1786.43	  386.84
     37.1700	  524.00	  510.73	-1732.23	  386.64
     37.2700	  522.00	  512.41	-1735.91	  386.44
     37.3700	  501.00	  515.21	-1759.71	  386.24
     37.4700	  544.00	  519.02	-1720.52	  386.04
     37.5700	  508.00	  523.07	-1760.57	  385.84
     37.6700	  534.00	  525.90	-1737.40	  385.65
     37.7700	  486.00	  526.02	-1785.52	  385.46
     37.8700	  508.00	  523.33	-1760.83	  385.26
     37.9700	  533.00	  519.34	-1731.84	  385.07
     38.0700	  513.00	  515.41	-1747.91	  384.89
     38.1700	  485.00	  512.08	-1772.58	  384.70
     38.2700	  511.00	  509.53	-1744.03	  384.52
     38.3700	  524.00	  507.75	-1729.25	  384.33
     38.4700	  520.00	  506.56	-1732.06	  384.15
     38.5700	  493.00	  505.77	-1758.27	  383.97
     38.6700	  504.00	  505.14	-1746.64	  383.79
     38.7700	  502.00	  504.76	-1748.26	  383.62
     38.8700	  499.00	  504.46	-1750.96	  383.44
     38.9700	  495.00	  504.20	-1754.70	  383.27
     39.0700	  522.00	  503.98	-1727.48	  383.10
     39.1700	  494.00	  503.69	-1755.19	  382.93
     39.2700	  460.00	  503.64	-1789.14	  382.76
     39.3700	  495.00	  503.46	-1753.96	  382.60
     39.4700	  552.00	  503.30	-1696.80	  382.43
     39.5700	  496.00	  503.14	-1752.64	  382.27
     39.6700	  492.00	  503.00	-1756.50	  382.11
     39.7700	  510.00	  502.87	-1738.37	  381.95
     39.8700	  494.00	  502.74	-1754.24	  381.80
     39.9700	  473.00	  502.63	-1775.13	  381.64
     40.0700	  506.00	  502.52	-1742.02	  381.49
     40.1700	  490.00	  502.43	-1757.93	  381.33
     40.2700	  485.00	  502.35	-1762.85	  381.18
     40.3700	  508.00	  502.28	-1739.78	  381.04
     40.4700	  491.00	  502.22	-1756.72	  380.89
     40.5700	  466.00	  502.18	-1781.68	  380.74
     40.6700	  525.00	  502.16	-1722.66	  380.60
     40.7700	  514.00	  502.16	-1733.66	  380.46
     40.8700	  499.00	  502.19	-1748.69	  380.32
     40.9700	  511.00	  502.25	-1736.75	  380.18
     41.0700	  519.00	  502.34	-1728.84	  380.05
     41.1700	  503.00	  502.48	-1744.98	  379.91
     41.2700	  490.00	  502.64	-1758.14	  379.78
     41.3700	  478.00	  502.90	-1770.40	  379.65
     41.4700	  500.00	  503.71	-1749.21	  379.52
     41.5700	  523.00	  504.21	-1726.71	  379.39
     41.6700	  481.00	  504.91	-1769.41	  379.27
     41.7700	  520.00	  505.97	-1731.47	  379.14
     41.8700	  522.00	  507.76	-1731.26	  379.02
     41.9700	  496.00	  511.01	-1760.51	  378.90
     42.0700	  511.00	  517.14	-1751.64	  378.78
     42.1700	  521.00	  528.22	-1752.72	  378.67
     42.2700	  568.00	  546.50	-1724.00	  378.55
     42.3700	  562.00	  572.99	-1756.49	  378.44
     42.4700	  580.00	  605.27	-1770.77	  378.33
     42.5700	  585.00	  636.16	-1796.66	  378.22
     42.6700	  590.00	  654.34	-1809.84	  378.11
     42.7700	  574.00	  650.26	-1821.76	  378.00
     42.8700	  616.00	  625.32	-1754.82	  377.90
     42.9700	  578.00	  591.66	-1759.16	  377.80
     43.0700	  567.00	  560.41	-1738.91	  377.69
     43.1700	  521.00	  536.89	-1761.39	  377.60
     43.2700	  508.00	  521.74	-1759.24	  377.50
     43.3700	  494.00	  513.08	-1764.58	  377.40
     43.4700	  518.00	  508.48	-1735.98	  377.31
     43.5700	  512.00	  506.02	-1739.52	  377.22
     43.6700	  498.00	  504.83	-1752.33	  377.13
     43.7700	  492.00	  503.90	-1757.40	  377.04
     43.8700	  527.00	  503.23	-1721.73	  376.95
     43.9700	  541.00	  502.72	-1707.22	  376.86
     44.0700	  501.00	  502.33	-1746.83	  376.78
     44.1700	  505.00	  502.02	-1742.52	  376.70
     44.2700	  537.00	  501.78	-1710.28	  376.62
     44.3700	  469.00	  501.59	-1778.09	  376.54
     44.4700	  504.00	  501.45	-1742.95	  376.46
     44.5700	  506.00	  501.35	-1740.85	  376.39
     44.6700	  523.00	  501.14	-1723.64	  376.32
     44.7700	  477.00	  501.11	-1769.61	  376.24
     44.8700	  500.00	  501.10	-1746.60	  376.18
     44.9700	  443.00	  501.12	-1803.62	  376.11
     45.0700	  506.00	  501.16	-1740.66	  376.04
     45.1700	  522.00	  501.41	-1724.91	  375.98
     45.2700	  548.00	  501.50	-1699.00	  375.91
     45.3700	  507.00	  501.61	-1740.11	  375.85
     45.4700	  495.00	  501.75	-1752.25	  375.79
     45.5700	  511.00	  501.91	-1736.41	  375.73
     45.6700	  529.00	  502.10	-1718.60	  375.68
     45.7700	  473.00	  502.31	-1774.81	  375.62
     45.8700	  511.00	  502.55	-1737.05	  375.57
     45.9700	  527.00	  502.83	-1721.33	  375.52
     46.0700	  517.00	  503.14	-1731.64	  375.47
     46.1700	  500.00	  503.50	-1749.00	  375.42
     46.2700	  488.00	  503.90	-1761.40	  375.38
     46.3700	  507.00	  504.35	-1742.85	  375.33
     46.4700	  513.00	  504.87	-1737.37	  375.29
     46.5700	  495.00	  505.46	-1755.96	  375.25
     46.6700	  487.00	  506.15	-1764.65	  375.21
     46.7700	  512.00	  506.97	-1740.47	  375.17
     46.8700	  494.00	  507.99	-1759.49	  375.14
     46.9700	  492.00	  509.35	-1762.85	  375.10
     47.0700	  446.00	  511.45	-1810.95	  375.07
     47.1700	  530.00	  514.70	-1730.20	  375.04
     47.2700	  545.00	  520.11	-1720.61	  375.01
     47.3700	  529.00	  528.84	-1745.33	  374.98
     47.4700	  519.00	  541.81	-1768.31	  374.95
     47.5700	  606.00	  559.01	-1698.51	  374.93
     47.6700	  652.00	  578.54	-1672.04	  374.90
     47.7700	  582.00	  596.17	-1759.67	  374.88
     47.8700	  601.00	  606.17	-1750.67	  374.86
     47.9700	  586.00	  604.31	-1763.81	  374.84
     48.0700	  594.00	  592.19	-1743.69	  374.83
     48.1700	  561.00	  575.71	-1760.21	  374.81
     48.2700	  577.00	  560.30	-1728.80	  374.80
     48.3700	  579.00	  548.94	-1715.44	  374.79
     48.4700	  516.00	  542.42	-1771.92	  374.78
     48.5700	  513.00	  540.19	-1772.69	  374.77
     48.6700	  538.00	  541.21	-1748.71	  374.76
     48.7700	  528.00	  544.60	-1762.10	  374.75
     48.8700	  546.00	  549.91	-1749.41	  374.75
     48.9700	  554.00	  557.19	-1748.69	  374.75
     49.0700	  529.00	  567.12	-1783.62	  374.75
     49.1700	  552.00	  581.35	-1774.85	  374.75
     49.2700	  593.00	  603.40	-1755.90	  374.75
     49.3700	  679.00	  640.33	-1706.83	  374.75
     49.4700	  647.00	  702.81	-1801.31	  374.76
     49.5700	  780.00	  807.39	-1772.89	  374.76
     49.6700	  826.00	  972.42	-1891.92	  374.77
     49.7700	 1122.00	 1211.26	-1834.76	  374.78
     49.8700	 1509.00	 1521.27	-1757.77	  374.79
     49.9700	 1801.00	 1872.10	-1816.60	  374.80
     50.0700	 2257.00	 2196.62	-1685.12	  374.82
     50.1700	 2450.00	 2397.22	-1692.72	  374.83
     50.2700	 2422.00	 2390.16	-1713.66	  374.85
     50.3700	 2296.00	 2176.77	-1626.27	  374.87
     50.4700	 1830.00	 1845.89	-1761.39	  374.89
     50.5700	 1403.00	 1498.21	-1840.71	  374.91
     50.6700	 1025.00	 1198.79	-1919.29	  374.93
     50.7700	  761.00	  974.99	-1959.49	  374.95
     50.8700	  735.00	  826.62	-1837.12	  374.98
     50.9700	  648.00	  737.49	-1834.99	  375.01
     51.0700	  653.00	  686.33	-1778.83	  375.03
     51.1700	  603.00	  654.42	-1796.92	  375.06
     51.2700	  603.00	  629.94	-1772.44	  375.09
     51.3700	  613.00	  608.48	-1740.98	  375.13
     51.4700	  652.00	  589.71	-1683.21	  375.16
     51.5700	  574.00	  574.26	-1745.76	  375.20
     51.6700	  535.00	  562.48	-1772.98	  375.23
     51.7700	  573.00	  554.12	-1726.62	  375.27
     51.8700	  544.00	  548.55	-1750.05	  375.31
     51.9700	  531.00	  545.06	-1759.56	  375.35
     52.0700	  543.00	  543.30	-1745.80	  375.39
     52.1700	  525.00	  542.46	-1762.96	  375.43
     52.2700	  556.00	  542.66	-1732.16	  375.48
     52.3700	  543.00	  544.04	-1746.54	  375.52
     52.4700	  615.00	  547.13	-1677.63	  375.57
     52.5700	  563.00	  553.21	-1735.71	  375.62
     52.6700	  603.00	  564.77	-1707.27	  375.67
     52.7700	  590.00	  586.15	-1741.65	  375.72
     52.8700	  659.00	  623.64	-1710.14	  375.77
     52.9700	  728.00	  684.42	-1701.92	  375.83
     53.0700	  797.00	  773.81	-1722.31	  375.88
     53.1700	  894.00	  890.99	-1742.49	  375.94
     53.2700	 1088.00	 1024.65	-1682.15	  375.99
     53.3700	 1142.00	 1150.31	-1753.81	  376.05
     53.4700	 1220.00	 1232.76	-1758.26	  376.11
     53.5700	 1230.00	 1240.31	-1755.81	  376.17
     53.6700	 1120.00	 1169.14	-1794.64	  376.23
     53.7700	 1103.00	 1047.72	-1690.22	  376.30
     53.8700	  912.00	  913.08	-1746.58	  376.36
     53.9700	  793.00	  792.10	-1744.60	  376.43
     54.0700	  706.00	  698.13	-1737.63	  376.49
     54.1700	  655.00	  633.40	-1723.90	  376.56
     54.2700	  584.00	  593.18	-1754.68	  376.63
     54.3700	  575.00	  570.26	-1740.76	  376.70
     54.4700	  574.00	  558.01	-1729.51	  376.77
     54.5700	  552.00	  551.74	-1745.24	  376.85
     54.6700	  565.00	  548.65	-1729.15	  376.92
     54.7700	  529.00	  547.39	-1763.89	  376.99
     54.8700	  527.00	  547.28	-1765.78	  377.07
     54.9700	  548.00	  548.05	-1745.55	  377.15
     55.0700	  587.00	  549.65	-1708.15	  377.22
     55.1700	  568.00	  552.02	-1729.52	  377.30
     55.2700	  588.00	  555.25	-1712.75	  377.38
     55.3700	  554.00	  559.48	-1750.98	  377.47
     55.4700	  559.00	  564.94	-1751.44	  377.55
     55.5700	  557.00	  572.06	-1760.56	  377.63
     55.6700	  595.00	  581.71	-1732.21	  377.72
     55.7700	  599.00	  595.70	-1742.20	  377.80
     55.8700	  618.00	  617.55	-1745.05	  377.89
     55.9700	  595.00	  653.75	-1804.25	  377.97
     56.0700	  650.00	  714.88	-1810.38	  378.06
     56.1700	  770.00	  815.89	-1791.39	  378.15
     56.2700	  951.00	  974.06	-1768.56	  378.24
     56.3700	 1137.00	 1203.76	-1812.26	  378.33
     56.4700	 1425.00	 1507.92	-1828.42	  378.43
     56.5700	 1751.00	 1868.98	-1863.48	  378.52
     56.6700	 2193.00	 2241.50	-1794.00	  378.61
     56.7700	 2509.00	 2550.34	-1786.84	  378.71
     56.8700	 2623.00	 2705.58	-1828.08	  378.80
     56.9700	 2652.00	 2649.32	-1742.82	  378.90
     57.0700	 2452.00	 2403.28	-1696.78	  379.00
     57.1700	 2106.00	 2050.77	-1690.27	  379.10
     57.2700	 1572.00	 1678.65	-1852.15	  379.20
     57.3700	 1294.00	 1346.85	-1798.35	  379.30
     57.4700	 1011.00	 1085.32	-1819.82	  379.40
     57.5700	  828.00	  899.63	-1817.13	  379.50
     57.6700	  785.00	  779.97	-1740.47	  379.60
     57.7700	  674.00	  710.26	-1781.76	  379.71
     57.8700	  707.00	  675.30	-1713.80	  379.81
     57.9700	  701.00	  664.32	-1708.82	  379.92
     58.0700	  743.00	  671.57	-1674.07	  380.03
     58.1700	  706.00	  695.09	-1734.59	  380.13
     58.2700	  772.00	  734.89	-1708.39	  380.24
     58.3700	  840.00	  791.03	-1696.53	  380.35
     58.4700	  919.00	  862.09	-1688.59	  380.46
     58.5700	 1043.00	  943.55	-1646.05	  380.57
     58.6700	 1168.00	 1027.37	-1604.87	  380.68
     58.7700	 1252.00	 1104.40	-1597.90	  380.79
     58.8700	 1450.00	 1168.48	-1463.98	  380.90
     58.9700	 1485.00	 1216.17	-1476.67	  381.02
     59.0700	 1553.00	 1242.74	-1435.24	  381.13
     59.1700	 1523.00	 1244.01	-1466.51	  381.25
     59.2700	 1380.00	 1223.74	-1589.24	  381.36
     59.3700	 1405.00	 1193.72	-1534.22	  381.48
     59.4700	 1308.00	 1165.78	-1603.28	  381.59
     59.5700	 1164.00	 1148.04	-1729.54	  381.71
     59.6700	 1230.00	 1147.98	-1663.48	  381.83
     59.7700	 1119.00	 1174.35	-1800.85	  381.95
     59.8700	 1243.00	 1232.45	-1734.95	  382.07
     59.9700	 1319.00	 1317.77	-1744.27	  382.19
     60.0700	 1493.00	 1413.32	-1665.82	  382.31
     60.1700	 1592.00	 1490.42	-1643.92	  382.43
     60.2700	 1646.00	 1516.19	-1615.69	  382.55
     60.3700	 1532.00	 1470.98	-1684.48	  382.67
     60.4700	 1392.00	 1362.63	-1716.13	  382.79
     60.5700	 1308.00	 1218.67	-1656.17	  382.92
     60.6700	 1081.00	 1068.12	-1732.62	  383.04
     60.7700	  919.00	  931.99	-1758.49	  383.16
     60.8700	  831.00	  821.95	-1736.45	  383.29
     60.9700	  715.00	  742.02	-1772.52	  383.41
     61.0700	  644.00	  690.97	-1792.47	  383.54
     61.1700	  662.00	  665.49	-1748.99	  383.67
     61.2700	  588.00	  662.94	-1820.44	  383.79
     61.3700	  653.00	  682.88	-1775.38	  383.92
     61.4700	  655.00	  727.31	-1817.81	  384.05
     61.5700	  708.00	  799.24	-1836.74	  384.18
     61.6700	  870.00	  900.34	-1775.84	  384.30
     61.7700	 1005.00	 1027.94	-1768.44	  384.43
     61.8700	 1148.00	 1172.50	-1770.00	  384.56
     61.9700	 1206.00	 1315.82	-1855.32	  384.69
     62.0700	 1368.00	 1431.18	-1808.68	  384.82
     62.1700	 1334.00	 1488.70	-1900.20	  384.95
     62.2700	 1363.00	 1469.49	-1851.99	  385.08
     62.3700	 1330.00	 1379.44	-1794.94	  385.22
     62.4700	 1154.00	 1244.60	-1836.10	  385.35
     62.5700	  991.00	 1094.77	-1849.27	  385.48
     62.6700	  878.00	  952.81	-1820.31	  385.61
     62.7700	  766.00	  832.58	-1812.08	  385.74
     62.8700	  697.00	  739.66	-1788.16	  385.88
     62.9700	  668.00	  673.39	-1750.89	  386.01
     63.0700	  643.00	  629.39	-1731.89	  386.14
     63.1700	  619.00	  601.96	-1728.46	  386.28
     63.2700	  573.00	  585.86	-1758.36	  386.41
     63.3700	  592.00	  577.24	-1730.74	  386.55
     63.4700	  597.00	  573.81	-1722.31	  386.68
     63.5700	  640.00	  574.76	-1680.26	  386.82
     63.6700	  611.00	  580.54	-1715.04	  386.95
     63.7700	  600.00	  592.53	-1738.03	  387.09
     63.8700	  648.00	  612.76	-1710.26	  387.22
     63.9700	  640.00	  643.31	-1748.81	  387.36
     64.0700	  727.00	  685.57	-1704.07	  387.49
     64.1700	  756.00	  739.28	-1728.78	  387.63
     64.2700	  803.00	  801.65	-1744.15	  387.76
     64.3700	  892.00	  866.68	-1720.18	  387.90
     64.4700	  933.00	  925.16	-1737.66	  388.04
     64.5700	 1042.00	  965.77	-1669.27	  388.17
     64.6700	 1045.00	  980.96	-1681.46	  388.31
     64.7700	 1022.00	  968.17	-1691.67	  388.45
     64.8700	  959.00	  931.94	-1718.44	  388.58
     64.9700	  942.00	  880.81	-1684.31	  388.72
     65.0700	  815.00	  824.28	-1754.78	  388.86
     65.1700	  825.00	  770.16	-1690.66	  389.00
     65.2700	  715.00	  722.85	-1753.35	  389.13
     65.3700	  723.00	  683.67	-1706.17	  389.27
     65.4700	  689.00	  652.03	-1708.53	  389.41
     65.5700	  654.00	  626.84	-1718.34	  389.54
     65.6700	  587.00	  607.16	-1765.66	  389.68
     65.7700	  591.00	  592.18	-1746.68	  389.82
     65.8700	  550.00	  581.19	-1776.69	  389.96
     65.9700	  581.00	  573.56	-1738.06	  390.09
     66.0700	  545.00	  568.76	-1769.26	  390.23
     66.1700	  576.00	  566.31	-1735.81	  390.37
     66.2700	  538.00	  565.80	-1773.30	  390.50
     66.3700	  579.00	  566.92	-1733.42	  390.64
     66.4700	  531.00	  569.62	-1784.12	  390.78
     66.5700	  571.00	  573.75	-1748.25	  390.92
     66.6700	  572.00	  579.84	-1753.34	  391.05
     66.7700	  536.00	  588.87	-1798.37	  391.19
     66.8700	  616.00	  602.69	-1732.19	  391.33
     66.9700	  583.00	  624.49	-1786.99	  391.46
     67.0700	  661.00	  659.18	-1743.68	  391.60
     67.1700	  735.00	  713.71	-1724.21	  391.73
     67.2700	  789.00	  796.67	-1753.17	  391.87
     67.3700	  918.00	  917.18	-1744.68	  392.01
     67.4700	 1080.00	 1082.14	-1747.64	  392.14
     67.5700	 1379.00	 1293.65	-1660.15	  392.28
     67.6700	 1553.00	 1545.33	-1737.83	  392.41
     67.7700	 1836.00	 1819.61	-1729.11	  392.55
     67.8700	 2038.00	 2086.92	-1794.42	  392.68
     67.9700	 2340.00	 2305.89	-1711.39	  392.82
     68.0700	 2468.00	 2431.01	-1708.51	  392.95
     68.1700	 2450.00	 2430.15	-1725.65	  393.08
     68.2700	 2339.00	 2303.31	-1709.81	  393.22
     68.3700	 2071.00	 2083.32	-1757.82	  393.35
     68.4700	 1770.00	 1815.83	-1791.33	  393.48
     68.5700	 1542.00	 1541.96	-1745.46	  393.62
     68.6700	 1291.00	 1291.34	-1745.84	  393.75
     68.7700	 1083.00	 1081.06	-1743.56	  393.88
     68.8700	  889.00	  917.41	-1773.91	  394.01
     68.9700	  796.00	  798.25	-1747.75	  394.15
     69.0700	  712.00	  716.41	-1749.91	  394.28
     69.1700	  658.00	  662.82	-1750.32	  394.41
     69.2700	  663.00	  628.91	-1711.41	  394.54
     69.3700	  583.00	  607.79	-1770.29	  394.67
     69.4700	  571.00	  594.54	-1769.04	  394.80
     69.5700	  586.00	  586.00	-1745.50	  394.93
     69.6700	  565.00	  580.28	-1760.78	  395.06
     69.7700	  581.00	  576.34	-1740.84	  395.19
     69.8700	  574.00	  573.63	-1745.12	  395.31
     69.9700	  540.00	  571.84	-1777.34	  395.44
     70.0700	  586.00	  570.88	-1730.38	  395.57
     70.1700	  625.00	  570.65	-1691.15	  395.70
     70.2700	  596.00	  571.20	-1720.70	  395.82
     70.3700	  576.00	  572.64	-1742.14	  395.95
     70.4700	  544.00	  575.25	-1776.75	  396.07
     70.5700	  551.00	  579.54	-1774.04	  396.20
     70.6700	  593.00	  586.47	-1738.97	  396.32
     70.7700	  597.00	  597.62	-1746.12	  396.45
     70.8700	  643.00	  615.52	-1718.02	  396.57
     70.9700	  626.00	  643.84	-1763.34	  396.69
     71.0700	  625.00	  687.33	-1807.83	  396.81
     71.1700	  733.00	  751.62	-1764.12	  396.93
     71.2700	  804.00	  842.22	-1783.72	  397.06
     71.3700	  959.00	  963.09	-1749.59	  397.18
     71.4700	 1091.00	 1114.78	-1769.28	  397.30
     71.5700	 1325.00	 1293.47	-1713.97	  397.42
     71.6700	 1445.00	 1486.34	-1786.84	  397.53
     71.7700	 1676.00	 1675.90	-1745.40	  397.65
     71.8700	 1751.00	 1837.22	-1831.72	  397.77
     71.9700	 1987.00	 1942.15	-1700.65	  397.89
     72.0700	 1868.00	 1967.85	-1845.35	  398.00
     72.1700	 1862.00	 1908.16	-1791.66	  398.12
     72.2700	 1761.00	 1777.29	-1761.79	  398.23
     72.3700	 1699.00	 1601.25	-1647.75	  398.35
     72.4700	 1470.00	 1408.39	-1683.89	  398.46
     72.5700	 1284.00	 1220.57	-1682.07	  398.57
     72.6700	 1140.00	 1052.95	-1658.45	  398.68
     72.7700	 1027.00	  913.72	-1632.22	  398.80
     72.8700	  928.00	  805.05	-1622.55	  398.91
     72.9700	  813.00	  724.77	-1657.27	  399.02
     73.0700	  734.00	  668.19	-1679.69	  399.13
     73.1700	  716.00	  629.76	-1659.26	  399.23
     73.2700	  628.00	  604.30	-1721.80	  399.34
     73.3700	  690.00	  587.58	-1643.08	  399.45
     73.4700	  643.00	  576.53	-1679.03	  399.55
     73.5700	  586.00	  569.11	-1728.61	  399.66
     73.6700	  568.00	  564.02	-1741.52	  399.76
     73.7700	  635.00	  560.54	-1671.04	  399.87
     73.8700	  610.00	  558.23	-1693.73	  399.97
     73.9700	  529.00	  556.84	-1773.33	  400.07
     74.0700	  579.00	  556.18	-1722.68	  400.17
     74.1700	  619.00	  556.10	-1682.60	  400.27
     74.2700	  552.00	  556.40	-1749.90	  400.37
     74.3700	  587.00	  556.86	-1715.36	  400.47
     74.4700	  599.00	  557.21	-1703.71	  400.57
     74.5700	  588.00	  557.20	-1714.70	  400.67
     74.6700	  620.00	  556.63	-1682.13	  400.76
     74.7700	  640.00	  555.46	-1660.96	  400.86
     74.8700	  634.00	  553.85	-1665.35	  400.95
     74.9700	  633.00	  552.08	-1664.58	  401.04
     75.0700	  597.00	  550.45	-1698.95	  401.14
     75.1700	  578.00	  549.26	-1716.76	  401.23
     75.2700	  548.00	  548.96	-1746.46	  401.32
     75.3700	  575.00	  549.90	-1720.40	  401.41
     75.4700	  569.00	  552.55	-1729.05	  401.50
     75.5700	  546.00	  557.29	-1756.79	  401.58
     75.6700	  624.00	  564.92	-1686.42	  401.67
     75.7700	  587.00	  575.79	-1734.29	  401.76
     75.8700	  639.00	  590.18	-1696.68	  401.84
     75.9700	  597.00	  608.01	-1756.51	  401.93
     76.0700	  572.00	  628.69	-1802.19	  402.01
     76.1700	  632.00	  651.03	-1764.53	  402.09
     76.2700	  682.00	  673.17	-1736.67	  402.17
     76.3700	  712.00	  692.63	-1726.13	  402.25
     76.4700	  713.00	  706.60	-1739.10	  402.33
     76.5700	  691.00	  712.56	-1767.06	  402.41
     76.6700	  699.00	  709.24	-1755.74	  402.48
     76.7700	  698.00	  697.33	-1744.83	  402.56
     76.8700	  663.00	  679.03	-1761.53	  402.63
     76.9700	  674.00	  656.99	-1728.49	  402.71
     77.0700	  617.00	  634.18	-1762.68	  402.78
     77.1700	  603.00	  612.46	-1754.96	  402.85
     77.2700	  587.00	  593.22	-1751.72	  402.92
     77.3700	  536.00	  577.21	-1786.71	  402.99
     77.4700	  555.00	  564.60	-1755.10	  403.06
     77.5700	  538.00	  555.17	-1762.67	  403.12
     77.6700	  516.00	  548.42	-1777.92	  403.19
     77.7700	  491.00	  543.78	-1798.28	  403.25
     77.8700	  506.00	  540.69	-1780.19	  403.32
     77.9700	  488.00	  538.68	-1796.18	  403.38
     78.0700	  536.00	  537.39	-1746.89	  403.44
     78.1700	  495.00	  536.56	-1787.06	  403.50
     78.2700	  544.00	  536.03	-1737.53	  403.56
     78.3700	  564.00	  535.70	-1717.20	  403.62
     78.4700	  517.00	  535.51	-1764.01	  403.67
     78.5700	  509.00	  535.44	-1771.94	  403.73
     78.6700	  475.00	  535.49	-1805.99	  403.78
     78.7700	  520.00	  535.67	-1761.17	  403.83
     78.8700	  519.00	  536.00	-1762.50	  403.89
     78.9700	  530.00	  536.53	-1752.03	  403.94
     79.0700	  496.00	  537.30	-1786.80	  403.99
     79.1700	  497.00	  538.37	-1786.87	  404.03
     79.2700	  550.00	  539.80	-1735.30	  404.08
     79.3700	  483.00	  541.45	-1803.95	  404.13
     79.4700	  507.00	  543.75	-1782.25	  404.17
     79.5700	  517.00	  546.54	-1775.04	  404.21
     79.6700	  494.00	  549.89	-1801.39	  404.25
     79.7700	  536.00	  553.83	-1763.33	  404.30
     79.8700	  505.00	  558.46	-1798.96	  404.33
     79.9700	  548.00	  563.89	-1761.39	  404.37
     80.0700	  572.00	  570.29	-1743.79	  404.41
     80.1700	  516.00	  577.97	-1807.47	  404.44
     80.2700	  538.00	  587.27	-1794.77	  404.48
     80.3700	  571.00	  598.53	-1773.03	  404.51
     80.4700	  566.00	  611.95	-1791.45	  404.54
     80.5700	  614.00	  627.49	-1758.99	  404.57
     80.6700	  656.00	  644.77	-1734.27	  404.60
     80.7700	  619.00	  663.03	-1789.53	  404.63
     80.8700	  639.00	  681.16	-1787.66	  404.66
     80.9700	  730.00	  697.84	-1713.34	  404.68
     81.0700	  721.00	  711.81	-1736.31	  404.70
     81.1700	  740.00	  722.01	-1727.51	  404.73
     81.2700	  772.00	  727.70	-1701.20	  404.75
     81.3700	  783.00	  728.46	-1690.96	  404.77
     81.4700	  754.00	  724.31	-1715.81	  404.78
     81.5700	  754.00	  715.65	-1707.15	  404.80
     81.6700	  716.00	  703.14	-1732.64	  404.82
     81.7700	  708.00	  687.61	-1725.11	  404.83
     81.8700	  734.00	  670.09	-1681.59	  404.84
     81.9700	  722.00	  651.76	-1675.26	  404.85
     82.0700	  664.00	  633.71	-1715.21	  404.86
     82.1700	  674.00	  616.77	-1688.27	  404.87
     82.2700	  636.00	  601.64	-1711.14	  404.88
     82.3700	  641.00	  588.55	-1693.05	  404.89
     82.4700	  606.00	  577.64	-1717.14	  404.89
     82.5700	  632.00	  568.88	-1682.38	  404.89
     82.6700	  614.00	  562.19	-1693.69	  404.89
     82.7700	  603.00	  557.48	-1699.98	  404.89
     82.8700	  564.00	  554.62	-1736.12	  404.89
     82.9700	  582.00	  553.47	-1716.97	  404.89
     83.0700	  523.00	  553.92	-1776.42	  404.89
     83.1700	  538.00	  555.86	-1763.36	  404.88
     83.2700	  503.00	  559.15	-1801.65	  404.87
     83.3700	  574.00	  563.60	-1735.10	  404.87
     83.4700	  562.00	  568.94	-1752.44	  404.86
     83.5700	  542.00	  574.80	-1778.30	  404.84
     83.6700	  555.00	  580.71	-1771.21	  404.83
     83.7700	  532.00	  586.08	-1799.58	  404.82
     83.8700	  558.00	  590.28	-1777.78	  404.80
     83.9700	  567.00	  592.69	-1771.19	  404.78
     84.0700	  531.00	  592.90	-1807.40	  404.77
     84.1700	  568.00	  590.83	-1768.33	  404.75
     84.2700	  557.00	  586.77	-1775.27	  404.72
     84.3700	  570.00	  581.27	-1756.77	  404.70
     84.4700	  547.00	  574.95	-1773.45	  404.68
     84.5700	  561.00	  568.35	-1752.85	  404.65
     84.6700	  581.00	  561.96	-1726.46	  404.62
     84.7700	  558.00	  556.12	-1743.62	  404.60
     84.8700	  577.00	  551.03	-1719.53	  404.56
     84.9700	  548.00	  546.80	-1744.30	  404.53
     85.0700	  525.00	  543.44	-1763.94	  404.50
     85.1700	  576.00	  540.89	-1710.39	  404.47
     85.2700	  535.00	  539.05	-1749.55	  404.43
     85.3700	  523.00	  537.79	-1760.29	  404.39
     85.4700	  519.00	  537.02	-1763.52	  404.35
     85.5700	  558.00	  536.65	-1724.15	  404.31
     85.6700	  520.00	  536.63	-1762.13	  404.27
     85.7700	  519.00	  536.95	-1763.45	  404.23
     85.8700	  537.00	  537.64	-1746.14	  404.18
     85.9700	  538.00	  538.77	-1746.27	  404.13
     86.0700	  493.00	  540.47	-1792.97	  404.09
     86.1700	  545.00	  542.90	-1743.40	  404.04
     86.2700	  582.00	  546.23	-1709.73	  403.98
     86.3700	  562.00	  550.66	-1734.16	  403.93
     86.4700	  548.00	  556.38	-1753.88	  403.88
     86.5700	  571.00	  563.49	-1737.99	  403.82
     86.6700	  554.00	  572.02	-1763.52	  403.76
     86.7700	  587.00	  581.85	-1740.35	  403.71
     86.8700	  576.00	  592.36	-1761.86	  403.65
     86.9700	  605.00	  603.73	-1744.23	  403.58
     87.0700	  642.00	  614.95	-1718.45	  403.52
     87.1700	  598.00	  625.18	-1772.68	  403.46
     87.2700	  677.00	  633.49	-1701.99	  403.39
     87.3700	  661.00	  638.96	-1723.46	  403.32
     87.4700	  645.00	  640.88	-1741.38	  403.25
     87.5700	  634.00	  639.04	-1750.54	  403.18
     87.6700	  647.00	  633.74	-1732.24	  403.11
     87.7700	  666.00	  625.77	-1705.27	  403.04
     87.8700	  633.00	  616.10	-1728.60	  402.96
     87.9700	  620.00	  605.74	-1731.24	  402.88
     88.0700	  664.00	  595.62	-1677.12	  402.81
     88.1700	  594.00	  586.50	-1738.00	  402.73
     88.2700	  626.00	  578.94	-1698.44	  402.64
     88.3700	  542.00	  573.33	-1776.83	  402.56
     88.4700	  645.00	  569.83	-1670.33	  402.48
     88.5700	  611.00	  568.46	-1702.96	  402.39
     88.6700	  575.00	  569.04	-1739.54	  402.30
     88.7700	  616.00	  571.29	-1700.79	  402.22
     88.8700	  611.00	  574.78	-1709.28	  402.13
     88.9700	  562.00	  579.04	-1762.54	  402.03
     89.0700	  586.00	  583.53	-1743.03	  401.94
     89.1700	  592.00	  587.65	-1741.15	  401.85
     89.2700	  580.00	  590.83	-1756.33	  401.75
     89.3700	  584.00	  592.57	-1754.07	  401.65
     89.4700	  615.00	  592.55	-1723.05	  401.55
     89.5700	  545.00	  590.70	-1791.20	  401.45
     89.6700	  590.00	  587.23	-1742.73	  401.35
     89.7700	  595.00	  582.51	-1733.01	  401.25
     89.8700	  576.00	  577.01	-1746.51	  401.14
     89.9700	  527.00	  571.15	-1789.65	  401.03
     90.0700	  538.00	  565.34	-1772.84	  400.93
     90.1700	  528.00	  559.86	-1777.36	  400.82
     90.2700	  511.00	  554.95	-1789.45	  400.71
     90.3700	  549.00	  550.72	-1747.22	  400.59
     90.4700	  520.00	  547.24	-1772.74	  400.48
     90.5700	  552.00	  544.50	-1738.00	  400.36
     90.6700	  532.00	  542.44	-1755.94	  400.25
     90.7700	  599.00	  541.00	-1687.50	  400.13
     90.8700	  558.00	  540.09	-1727.59	  400.01
     90.9700	  527.00	  539.63	-1758.14	  399.89
     91.0700	  548.00	  539.59	-1737.09	  399.77
     91.1700	  508.00	  539.92	-1777.42	  399.64
     91.2700	  565.00	  540.63	-1721.13	  399.52
     91.3700	  516.00	  541.79	-1771.29	  399.39
     91.4700	  548.00	  543.46	-1740.96	  399.26
     91.5700	  502.00	  545.79	-1789.29	  399.13
     91.6700	  496.00	  548.93	-1798.43	  399.00
     91.7700	  530.00	  553.06	-1768.56	  398.87
     91.8700	  522.00	  558.41	-1781.91	  398.73
     91.9700	  562.00	  565.18	-1748.68	  398.60
     92.0700	  556.00	  573.30	-1762.80	  398.46
     92.1700	  530.00	  583.39	-1798.89	  398.32
     92.2700	  568.00	  595.27	-1772.77	  398.18
     92.3700	  587.00	  608.88	-1767.38	  398.04
     92.4700	  651.00	  624.06	-1718.56	  397.90
     92.5700	  600.00	  640.53	-1786.03	  397.76
     92.6700	  689.00	  657.83	-1714.33	  397.61
     92.7700	  678.00	  675.40	-1742.90	  397.46
     92.8700	  649.00	  692.57	-1789.07	  397.32
     92.9700	  745.00	  708.64	-1709.14	  397.17
     93.0700	  713.00	  723.02	-1755.52	  397.02
     93.1700	  766.00	  735.38	-1714.88	  396.86
     93.2700	  850.00	  745.79	-1641.29	  396.71
     93.3700	  797.00	  754.61	-1703.11	  396.56
     93.4700	  778.00	  762.40	-1729.90	  396.40
     93.5700	  770.00	  769.77	-1745.27	  396.24
     93.6700	  804.00	  777.24	-1718.74	  396.09
     93.7700	  907.00	  785.29	-1623.79	  395.93
     93.8700	  783.00	  794.35	-1756.85	  395.76
     93.9700	  858.00	  804.88	-1692.38	  395.60
     94.0700	  847.00	  817.27	-1715.77	  395.44
     94.1700	  906.00	  831.68	-1671.18	  395.27
     94.2700	  862.00	  847.92	-1731.42	  395.11
     94.3700	  829.00	  865.37	-1781.87	  394.94
     94.4700	  873.00	  882.93	-1755.43	  394.77
     94.5700	  879.00	  899.10	-1765.60	  394.60
     94.6700	  908.00	  912.05	-1749.55	  394.43
     94.7700	  995.00	  919.94	-1670.44	  394.26
     94.8700	  915.00	  921.19	-1751.69	  394.08
     94.9700	  948.00	  914.90	-1712.40	  393.91
     95.0700	  922.00	  901.18	-1724.68	  393.73
     95.1700	  855.00	  881.03	-1771.53	  393.56
     95.2700	  877.00	  856.12	-1724.62	  393.38
     95.3700	  802.00	  828.46	-1771.96	  393.20
     95.4700	  799.00	  800.10	-1746.60	  393.02
     95.5700	  769.00	  773.00	-1749.50	  392.84
     95.6700	  735.00	  749.00	-1759.50	  392.65
     95.7700	  692.00	  729.71	-1783.21	  392.47
     95.8700	  660.00	  716.62	-1802.12	  392.28
     95.9700	  686.00	  711.00	-1770.50	  392.10
     96.0700	  742.00	  713.97	-1717.47	  391.91
     96.1700	  701.00	  726.45	-1770.95	  391.72
     96.2700	  707.00	  749.13	-1787.63	  391.53
     96.3700	  790.00	  782.44	-1737.94	  391.34
     96.4700	  835.00	  826.44	-1736.94	  391.15
     96.5700	  878.00	  880.75	-1748.25	  390.96
     96.6700	  939.00	  944.45	-1750.95	  390.76
     96.7700	 1026.00	 1015.92	-1735.42	  390.57
     96.8700	 1053.00	 1092.93	-1785.43	  390.37
     96.9700	 1165.00	 1172.45	-1752.95	  390.17
     97.0700	 1247.00	 1250.84	-1749.34	  389.98
     97.1700	 1288.00	 1323.80	-1781.30	  389.78
     97.2700	 1410.00	 1386.70	-1722.20	  389.58
     97.3700	 1397.00	 1434.94	-1783.44	  389.38
     97.4700	 1400.00	 1464.58	-1810.08	  389.17
     97.5700	 1441.00	 1473.16	-1777.66	  388.97
     97.6700	 1398.00	 1460.22	-1807.72	  388.77
     97.7700	 1468.00	 1427.46	-1704.96	  388.56
     97.8700	 1407.00	 1378.18	-1716.68	  388.36
     97.9700	 1282.00	 1316.64	-1780.14	  388.15
     98.0700	 1213.00	 1247.30	-1779.80	  387.94
     98.1700	 1147.00	 1174.60	-1773.10	  387.73
     98.2700	 1109.00	 1102.47	-1738.97	  387.52
     98.3700	  998.00	 1034.31	-1781.81	  387.31
     98.4700	  969.00	  973.02	-1749.52	  387.10
     98.5700	  928.00	  920.85	-1738.35	  386.89
     98.6700	  943.00	  879.58	-1682.08	  386.68
     98.7700	  839.00	  850.54	-1757.04	  386.46
     98.8700	  802.00	  834.65	-1778.15	  386.25
     98.9700	  792.00	  832.56	-1786.06	  386.04
     99.0700	  795.00	  844.63	-1795.13	  385.82
     99.1700	  872.00	  871.07	-1744.57	  385.60
     99.2700	  855.00	  911.85	-1802.35	  385.39
     99.3700	  938.00	  966.72	-1774.22	  385.17
     99.4700	 1035.00	 1035.10	-1745.60	  384.95
     99.5700	 1088.00	 1116.07	-1773.57	  384.73
     99.6700	 1245.00	 1208.19	-1708.69	  384.51
     99.7700	 1302.00	 1309.44	-1752.94	  384.29
     99.8700	 1429.00	 1417.15	-1733.65	  384.07
     99.9700	 1522.00	 1527.92	-1751.42	  383.85
    100.0700	 1672.00	 1637.72	-1711.22	  383.62
    100.1700	 1814.00	 1742.08	-1673.58	  383.40
    100.2700	 1867.00	 1836.53	-1715.03	  383.18
    100.3700	 1957.00	 1917.03	-1705.53	  382.95
    100.4700	 1999.00	 1980.41	-1726.91	  382.73
    100.5700	 1947.00	 2024.47	-1822.97	  382.50
    100.6700	 2137.00	 2047.79	-1656.29	  382.28
    100.7700	 2078.00	 2049.62	-1717.12	  382.05
    100.8700	 2048.00	 2029.81	-1727.31	  381.82
    100.9700	 1949.00	 1989.09	-1785.59	  381.59
    101.0700	 1916.00	 1929.45	-1758.95	  381.37
    101.1700	 1817.00	 1854.25	-1782.75	  381.14
    101.2700	 1797.00	 1768.00	-1716.50	  380.91
    101.3700	 1682.00	 1675.74	-1739.24	  380.68
    101.4700	 1615.00	 1582.47	-1712.97	  380.45
    101.5700	 1484.00	 1492.61	-1754.11	  380.22
    101.6700	 1451.00	 1409.70	-1704.20	  379.99
    101.7700	 1438.00	 1336.24	-1643.74	  379.76
    101.8700	 1301.00	 1273.67	-1718.17	  379.53
    101.9700	 1226.00	 1222.42	-1741.92	  379.30
    102.0700	 1163.00	 1181.94	-1764.44	  379.07
    102.1700	 1161.00	 1150.84	-1735.34	  378.83
    102.2700	 1119.00	 1127.04	-1753.54	  378.60
    102.3700	 1104.00	 1108.01	-1749.51	  378.37
    102.4700	 1131.00	 1091.01	-1705.51	  378.14
    102.5700	 1059.00	 1073.48	-1759.98	  377.90
    102.6700	 1024.00	 1053.32	-1774.82	  377.67
    102.7700	 1046.00	 1029.18	-1728.68	  377.44
    102.8700	  971.00	 1000.56	-1775.06	  377.21
    102.9700	  979.00	  967.75	-1734.25	  376.97
    103.0700	  885.00	  931.55	-1792.05	  376.74
    103.1700	  843.00	  893.08	-1795.58	  376.51
    103.2700	  800.00	  853.57	-1799.07	  376.27
    103.3700	  763.00	  814.22	-1796.72	  376.04
    103.4700	  783.00	  776.12	-1738.62	  375.81
    103.5700	  781.00	  740.17	-1704.67	  375.57
    103.6700	  707.00	  707.10	-1745.60	  375.34
    103.7700	  664.00	  677.39	-1758.89	  375.10
    103.8700	  593.00	  651.32	-1803.82	  374.87
    103.9700	  638.00	  628.96	-1736.46	  374.64
    104.0700	  644.00	  610.22	-1711.72	  374.40
    104.1700	  571.00	  594.88	-1769.38	  374.17
    104.2700	  563.00	  582.61	-1765.11	  373.94
    104.3700	  598.00	  573.07	-1720.57	  373.71
    104.4700	  589.00	  565.85	-1722.35	  373.47
    104.5700	  557.00	  560.60	-1749.10	  373.24
    104.6700	  582.00	  556.97	-1720.47	  373.01
    104.7700	  548.00	  554.65	-1752.15	  372.78
    104.8700	  524.00	  553.38	-1774.88	  372.55
    104.9700	  500.00	  552.96	-1798.46	  372.31
    105.0700	  526.00	  553.21	-1772.71	  372.08
    105.1700	  553.00	  554.03	-1746.53	  371.85
    105.2700	  539.00	  555.31	-1761.81	  371.62
    105.3700	  540.00	  557.04	-1762.54	  371.39
    105.4700	  540.00	  559.22	-1764.72	  371.16
    105.5700	  519.00	  561.87	-1788.37	  370.93
    105.6700	  519.00	  565.07	-1791.57	  370.71
    105.7700	  527.00	  568.90	-1787.40	  370.48
    105.8700	  577.00	  573.47	-1741.97	  370.25
    105.9700	  542.00	  578.86	-1782.36	  370.02
    106.0700	  539.00	  585.14	-1791.64	  369.80
    106.1700	  603.00	  592.33	-1734.83	  369.57
    106.2700	  579.00	  600.38	-1766.88	  369.35
    106.3700	  613.00	  609.22	-1741.72	  369.12
    106.4700	  561.00	  618.68	-1803.18	  368.90
    106.5700	  672.00	  628.55	-1702.05	  368.68
    106.6700	  668.00	  638.54	-1716.04	  368.45
    106.7700	  612.00	  648.34	-1781.84	  368.23
    106.8700	  653.00	  657.58	-1750.08	  368.01
    106.9700	  679.00	  665.89	-1732.39	  367.79
    107.0700	  674.00	  672.94	-1744.44	  367.57
    107.1700	  708.00	  678.45	-1715.95	  367.35
    107.2700	  682.00	  682.28	-1745.78	  367.13
    107.3700	  682.00	  684.44	-1747.94	  366.92
    107.4700	  689.00	  685.11	-1741.61	  366.70
    107.5700	  684.00	  684.60	-1746.10	  366.49
    107.6700	  703.00	  683.33	-1725.83	  366.27
    107.7700	  644.00	  681.70	-1783.20	  366.06
    107.8700	  717.00	  680.11	-1708.61	  365.85
    107.9700	  655.00	  678.88	-1769.38	  365.64
    108.0700	  693.00	  678.23	-1730.73	  365.43
    108.1700	  713.00	  678.29	-1710.79	  365.22
    108.2700	  702.00	  679.05	-1722.55	  365.01
    108.3700	  673.00	  680.39	-1752.89	  364.81
    108.4700	  687.00	  682.10	-1740.60	  364.60
    108.5700	  716.00	  683.87	-1713.37	  364.40
    108.6700	  686.00	  685.31	-1744.81	  364.20
    108.7700	  687.00	  686.02	-1744.52	  364.00
    108.8700	  695.00	  685.58	-1736.08	  363.80
    108.9700	  663.00	  683.70	-1766.20	  363.60
    109.0700	  664.00	  680.16	-1761.66	  363.40
    109.1700	  627.00	  674.91	-1793.41	  363.21
    109.2700	  667.00	  668.03	-1746.53	  363.01
    109.3700	  632.00	  659.75	-1773.25	  362.82
    109.4700	  667.00	  650.37	-1728.87	  362.63
    109.5700	  642.00	  640.23	-1743.73	  362.44
    109.6700	  648.00	  629.66	-1727.16	  362.25
    109.7700	  629.00	  619.01	-1735.51	  362.06
    109.8700	  606.00	  608.58	-1748.08	  361.88
    109.9700	  623.00	  598.62	-1721.12	  361.70
    110.0700	  582.00	  589.36	-1752.86	  361.51
    110.1700	  555.00	  580.94	-1771.44	  361.33
    110.2700	  561.00	  573.48	-1757.98	  361.16
    110.3700	  561.00	  567.04	-1751.54	  360.98
    110.4700	  583.00	  561.63	-1724.13	  360.81
    110.5700	  597.00	  557.23	-1705.73	  360.63
    110.6700	  558.00	  553.79	-1741.29	  360.46
    110.7700	  559.00	  551.23	-1737.73	  360.29
    110.8700	  564.00	  549.46	-1730.96	  360.13
    110.9700	  587.00	  548.41	-1706.91	  359.96
    111.0700	  577.00	  547.96	-1716.46	  359.80
    111.1700	  525.00	  548.05	-1768.55	  359.64
    111.2700	  521.00	  548.58	-1773.08	  359.48
    111.3700	  542.00	  549.50	-1753.00	  359.32
    111.4700	  565.00	  550.74	-1731.24	  359.17
    111.5700	  525.00	  552.25	-1772.75	  359.02
    111.6700	  552.00	  554.01	-1747.51	  358.87
    111.7700	  525.00	  555.99	-1776.49	  358.72
    111.8700	  570.00	  558.17	-1733.67	  358.57
    111.9700	  620.00	  560.54	-1686.04	  358.43
    112.0700	  538.00	  563.11	-1770.61	  358.29
    112.1700	  563.00	  565.89	-1748.39	  358.15
    112.2700	  552.00	  568.90	-1762.40	  358.02
    112.3700	  591.00	  572.17	-1726.67	  357.88
    112.4700	  578.00	  575.74	-1743.24	  357.75
    112.5700	  591.00	  579.66	-1734.16	  357.62
    112.6700	  564.00	  583.99	-1765.49	  357.50
    112.7700	  630.00	  588.83	-1704.33	  357.38
    112.8700	  627.00	  594.27	-1712.77	  357.26
    112.9700	  640.00	  600.46	-1705.96	  357.14
    113.0700	  691.00	  607.59	-1662.09	  357.02
    113.1700	  654.00	  615.91	-1707.41	  356.91
    113.2700	  711.00	  625.70	-1660.20	  356.80
    113.3700	  762.00	  637.39	-1620.89	  356.70
    113.4700	  785.00	  651.47	-1611.97	  356.59
    113.5700	  767.00	  668.59	-1647.09	  356.49
    113.6700	  816.00	  689.52	-1619.02	  356.39
    113.7700	  747.00	  715.21	-1713.71	  356.30
    113.8700	  792.00	  746.84	-1700.34	  356.21
    113.9700	  965.00	  785.73	-1566.23	  356.12
    114.0700	  943.00	  833.50	-1636.00	  356.03
    114.1700	 1044.00	  891.93	-1593.43	  355.95
    114.2700	 1086.00	  963.04	-1622.54	  355.87
    114.3700	 1181.00	 1048.99	-1613.49	  355.80
    114.4700	 1273.00	 1152.09	-1624.59	  355.72
    114.5700	 1319.00	 1274.71	-1701.21	  355.65
    114.6700	 1596.00	 1419.17	-1568.67	  355.59
    114.7700	 1804.00	 1587.64	-1529.14	  355.52
    114.8700	 1975.00	 1781.96	-1552.46	  355.47
    114.9700	 2143.00	 2003.54	-1606.04	  355.41
    115.0700	 2343.00	 2253.22	-1655.72	  355.36
    115.1700	 2470.00	 2531.09	-1806.59	  355.31
    115.2700	 2820.00	 2836.27	-1761.77	  355.26
    115.3700	 3169.00	 3166.86	-1743.36	  355.22
    115.4700	 3480.00	 3519.78	-1785.28	  355.19
    115.5700	 3766.00	 3890.81	-1870.31	  355.15
    115.6700	 4029.00	 4274.52	-1991.02	  355.12
    115.7700	 4377.00	 4664.13	-2032.63	  355.10
    115.8700	 4716.00	 5051.73	-2081.23	  355.07
    115.9700	 5231.00	 5428.24	-1942.74	  355.06
    116.0700	 5558.00	 5783.81	-1971.31	  355.04
    116.1700	 6112.00	 6107.92	-1741.42	  355.03
    116.2700	 6369.00	 6389.71	-1766.21	  355.02
    116.3700	 6472.00	 6618.72	-1892.22	  355.02
    116.4700	 6747.00	 6785.63	-1784.13	  355.02
    116.5700	 6943.00	 6883.24	-1685.74	  355.03
    116.6700	 6982.00	 6907.17	-1670.67	  355.04
    116.7700	 6965.00	 6856.54	-1637.04	  355.05
    116.8700	 6698.00	 6734.01	-1781.51	  355.07
    116.9700	 6616.00	 6545.54	-1675.04	  355.10
    117.0700	 6418.00	 6299.45	-1626.95	  355.12
    117.1700	 5983.00	 6005.64	-1768.14	  355.15
    117.2700	 5688.00	 5674.78	-1732.28	  355.19
    117.3700	 5254.00	 5317.51	-1809.01	  355.23
    117.4700	 4871.00	 4944.05	-1818.55	  355.28
    117.5700	 4485.00	 4563.67	-1824.17	  355.33
    117.6700	 4279.00	 4184.62	-1651.12	  355.38
    117.7700	 3939.00	 3814.11	-1620.61	  355.44
    117.8700	 3620.00	 3458.05	-1583.55	  355.51
    117.9700	 3370.00	 3121.18	-1496.68	  355.58
    118.0700	 2953.00	 2806.93	-1599.43	  355.65
    118.1700	 2555.00	 2517.59	-1708.09	  355.73
    118.2700	 2329.00	 2254.51	-1671.01	  355.81
    118.3700	 1985.00	 2018.10	-1778.60	  355.90
    118.4700	 1711.00	 1808.01	-1842.51	  356.00
    118.5700	 1573.00	 1623.19	-1795.69	  356.10
    118.6700	 1401.00	 1462.15	-1806.65	  356.20
    118.7700	 1249.00	 1323.10	-1819.60	  356.31
    118.8700	 1179.00	 1203.98	-1770.48	  356.42
    118.9700	 1035.00	 1102.70	-1813.20	  356.54
    119.0700	  956.00	 1017.10	-1806.60	  356.67
    119.1700	  889.00	  945.11	-1801.61	  356.80
    119.2700	  878.00	  884.83	-1752.33	  356.94
    119.3700	  791.00	  834.50	-1789.00	  357.08
    119.4700	  779.00	  792.57	-1759.07	  357.23
    119.5700	  701.00	  757.65	-1802.15	  357.38
    119.6700	  709.00	  728.58	-1765.08	  357.54
    119.7700	  659.00	  704.36	-1790.86	  357.70
    119.8700	  644.00	  684.15	-1785.65	  357.87
    119.9700	  652.00	  667.27	-1760.77	  358.05
    120.0700	  633.00	  653.14	-1765.64	  358.23
    120.1700	  549.00	  641.31	-1837.81	  358.42
    120.2700	  584.00	  631.41	-1792.91	  358.61
    120.3700	  560.00	  623.13	-1808.63	  358.81
    120.4700	  569.00	  616.24	-1792.74	  359.02
    120.5700	  572.00	  610.54	-1784.04	  359.23
    120.6700	  549.00	  605.90	-1802.40	  359.45
    120.7700	  536.00	  602.18	-1811.68	  359.67
    120.8700	  553.00	  599.30	-1791.80	  359.90
    120.9700	  571.00	  597.19	-1771.69	  360.14
    121.0700	  547.00	  595.78	-1794.28	  360.38
    121.1700	  590.00	  595.03	-1750.53	  360.63
    121.2700	  575.00	  594.88	-1765.38	  360.89
    121.3700	  550.00	  595.30	-1790.80	  361.15
    121.4700	  610.00	  596.25	-1731.75	  361.42
    121.5700	  616.00	  597.67	-1727.17	  361.70
    121.6700	  542.00	  599.51	-1803.01	  361.98
    121.7700	  545.00	  601.73	-1802.23	  362.27
    121.8700	  633.00	  604.22	-1716.72	  362.57
    121.9700	  569.00	  606.97	-1783.47	  362.87
    122.0700	  576.00	  609.87	-1779.37	  363.18
    122.1700	  625.00	  612.83	-1733.33	  363.50
    122.2700	  627.00	  615.76	-1734.26	  363.83
    122.3700	  631.00	  618.58	-1733.08	  364.16
    122.4700	  645.00	  621.17	-1721.67	  364.50
    122.5700	  630.00	  623.45	-1738.95	  364.84
    122.6700	  641.00	  625.32	-1729.82	  365.20
    122.7700	  670.00	  626.74	-1702.24	  365.56
    122.8700	  634.00	  627.64	-1739.14	  365.93
    122.9700	  688.00	  628.00	-1685.50	  366.30
    123.0700	  659.00	  627.80	-1714.30	  366.69
    123.1700	  626.00	  627.06	-1746.56	  367.08
    123.2700	  613.00	  625.82	-1758.32	  367.48
    123.3700	  627.00	  624.12	-1742.62	  367.88
    123.4700	  667.00	  622.02	-1700.52	  368.30
    123.5700	  640.00	  619.58	-1725.08	  368.72
    123.6700	  655.00	  616.87	-1707.37	  369.15
    123.7700	  642.00	  613.96	-1717.46	  369.59
    123.8700	  648.00	  610.89	-1708.39	  370.04
    123.9700	  600.00	  607.75	-1753.25	  370.49
    124.0700	  590.00	  604.58	-1760.08	  370.95
    124.1700	  631.00	  601.44	-1715.94	  371.42
    124.2700	  643.00	  598.36	-1700.86	  371.90
    124.3700	  616.00	  595.39	-1724.89	  372.39
    124.4700	  613.00	  592.56	-1725.06	  372.89
    124.5700	  614.00	  589.89	-1721.39	  373.39
    124.6700	  565.00	  587.40	-1767.90	  373.90
    124.7700	  611.00	  585.11	-1719.61	  374.42
    124.8700	  560.00	  583.03	-1768.53	  374.95
    124.9700	  586.00	  493.83	-1653.33	  375.49
    125.0700	  586.00	  494.38	-1745.50	  376.04
    125.1700	  558.00	  494.94	-1745.50	  376.60
    125.2700	  566.00	  495.50	-1745.50	  377.16
    125.3700	  586.00	  496.08	-1745.50	  377.74
    125.4700	  561.00	  496.66	-1745.50	  378.32
    125.5700	  516.00	  497.25	-1745.50	  378.91
    125.6700	  605.00	  497.86	-1745.50	  379.52
    125.7700	  559.00	  498.47	-1745.50	  380.13
    125.8700	  584.00	  499.09	-1745.50	  380.75
    125.9700	  619.00	  499.72	-1745.50	  381.38
    126.0700	  539.00	  500.36	-1745.50	  382.02
    126.1700	  585.00	  501.00	-1745.50	  382.66
    126.2700	  593.00	  501.66	-1745.50	  383.32
    126.3700	  542.00	  502.33	-1745.50	  383.99
    126.4700	  621.00	  503.01	-1745.50	  384.67
    126.5700	  612.00	  503.70	-1745.50	  385.36
    126.6700	  590.00	  504.39	-1745.50	  386.05
    126.7700	  584.00	  505.10	-1745.50	  386.76
    126.8700	  654.00	  505.82	-1745.50	  387.48
    126.9700	  615.00	  506.55	-1745.50	  388.20
    127.0700	  661.00	  507.28	-1745.50	  388.94
    127.1700	  664.00	  508.03	-1745.50	  389.69
    127.2700	  635.00	  508.79	-1745.50	  390.45
    127.3700	  651.00	  509.56	-1745.50	  391.22
    127.4700	  689.00	  510.34	-1745.50	  391.99
    127.5700	  696.00	  511.12	-1745.50	  392.78
    127.6700	  696.00	  511.92	-1745.50	  393.58
    127.7700	  736.00	  512.73	-1745.50	  394.39
    127.8700	  747.00	  513.56	-1745.50	  395.21
    127.9700	  736.00	  514.39	-1745.50	  396.05
    128.0700	  798.00	  515.23	-1745.50	  396.89
    128.1700	  791.00	  516.08	-1745.50	  397.74
    128.2700	  786.00	  516.95	-1745.50	  398.61
    128.3700	  796.00	  517.82	-1745.50	  399.48
    128.4700	  788.00	  518.71	-1745.50	  400.37
    128.5700	    0.00	  519.61	-1745.50	  401.27
    128.6700	    0.00	  520.52	-1745.50	  402.18
     12.2997	        	        	        	        	       0	(  0  0  2)	  0  1
     24.8799	        	        	        	        	       0	(  0  0  4)	  0  1
     28.3270	        	        	        	        	       0	(  1  0  0)	  0  1
     29.0239	        	        	        	        	       0	(  1  0  1)	  0  1
     31.0293	        	        	        	        	       0	(  1  0  2)	  0  1
     34.1364	        	        	        	        	       0	(  1  0  3)	  0  1
     37.7758	        	        	        	        	       0	(  0  0  6)	  0  1
     38.1119	        	        	        	        	       0	(  1  0  4)	  0  1
     42.7603	        	        	        	        	       0	(  1  0  5)	  0  1
     47.9425	        	        	        	        	       0	(  1  0  6)	  0  1
     50.2635	        	        	        	        	       0	(  1  1  0)	  0  1
     51.1936	        	        	        	        	       0	(  0  0  8)	  0  1
     51.9857	        	        	        	        	       0	(  1  1  2)	  0  1
     53.5710	        	        	        	        	       0	(  1  0  7)	  0  1
     56.9315	        	        	        	        	       0	(  1  1  4)	  0  1
     58.7603	        	        	        	        	       0	(  2  0  0)	  0  1
     59.1517	        	        	        	        	       0	(  2  0  1)	  0  1
     59.5992	        	        	        	        	       0	(  1  0  8)	  0  1
     60.3165	        	        	        	        	       0	(  2  0  2)	  0  1
     62.2289	        	        	        	        	       0	(  2  0  3)	  0  1
     64.6229	        	        	        	        	       0	(  1  1  6)	  0  1
     64.8518	        	        	        	        	       0	(  2  0  4)	  0  1
     65.4179	        	        	        	        	       0	(  0  0 10)	  0  1
     66.0131	        	        	        	        	       0	(  1  0  9)	  0  1
     68.1446	        	        	        	        	       0	(  2  0  5)	  0  1
     72.0704	        	        	        	        	       0	(  2  0  6)	  0  1
     72.8265	        	        	        	        	       0	(  1  0 10)	  0  1
     74.6563	        	        	        	        	       0	(  1  1  8)	  0  1
     76.6025	        	        	        	        	       0	(  2  0  7)	  0  1
     80.0810	        	        	        	        	       0	(  1  0 11)	  0  1
     80.8920	        	        	        	        	       0	(  0  0 12)	  0  1
     81.0009	        	        	        	        	       0	(  2  1  0)	  0  1
     81.3406	        	        	        	        	       0	(  2  1  1)	  0  1
     81.7304	        	        	        	        	       0	(  2  0  8)	  0  1
     82.3580	        	        	        	        	       0	(  2  1  2)	  0  1
     84.0485	        	        	        	        	       0	(  2  1  3)	  0  1
     86.4070	        	        	        	        	       0	(  2  1  4)	  0  1
     86.9220	        	        	        	        	       0	(  1  1 10)	  0  1
     87.4657	        	        	        	        	       0	(  2  0  9)	  0  1
     87.8516	        	        	        	        	       0	(  1  0 12)	  0  1
     89.4314	        	        	        	        	       0	(  2  1  5)	  0  1
     93.1270	        	        	        	        	       0	(  2  1  6)	  0  1
     93.8498	        	        	        	        	       0	(  2  0 10)	  0  1
     94.8894	        	        	        	        	       0	(  3  0  0)	  0  1
     95.2266	        	        	        	        	       0	(  3  0  1)	  0  1
     96.2393	        	        	        	        	       0	(  3  0  2)	  0  1
     96.2603	        	        	        	        	       0	(  1  0 13)	  0  1
     97.5133	        	        	        	        	       0	(  2  1  7)	  0  1
     97.9318	        	        	        	        	       0	(  3  0  3)	  0  1
     98.4221	        	        	        	        	       0	(  0  0 14)	  0  1
    100.3135	        	        	        	        	       0	(  3  0  4)	  0  1
    100.9678	        	        	        	        	       0	(  2  0 11)	  0  1
    101.7843	        	        	        	        	       0	(  1  1 12)	  0  1
    102.6330	        	        	        	        	       0	(  2  1  8)	  0  1
    103.4035	        	        	        	        	       0	(  3  0  5)	  0  1
    105.5072	        	        	        	        	       0	(  1  0 14)	  0  1
    107.2366	        	        	        	        	       0	(  3  0  6)	  0  1
    108.5664	        	        	        	        	       0	(  2  1  9)	  0  1
    108.9740	        	        	        	        	       0	(  2  0 12)	  0  1
    111.8743	        	        	        	        	       0	(  3  0  7)	  0  1
    115.4589	        	        	        	        	       0	(  2  1 10)	  0  1
    115.9427	        	        	        	        	       0	(  1  0 15)	  0  1
    116.6136	        	        	        	        	       0	(  2  2  0)	  0  1
    117.4244	        	        	        	        	       0	(  3  0  8)	  0  1
    118.1280	        	        	        	        	       0	(  2  2  2)	  0  1
    118.1517	        	        	        	        	       0	(  2  0 13)	  0  1
    119.8941	        	        	        	        	       0	(  0  0 16)	  0  1
    120.6149	        	        	        	        	       0	(  1  1 14)	  0  1
    122.8109	        	        	        	        	       0	(  2  2  4)	  0  1
    123.5801	        	        	        	        	       0	(  2  1 11)	  0  1
    124.0799	        	        	        	        	       0	(  3  0  9)	  0  1
    124.6785	        	        	        	        	       0	(  3  1  0)	  0  1
    125.0885	        	        	        	        	       0	(  3  1  1)	  0  1
    126.3313	        	        	        	        	       0	(  3  1  2)	  0  1
    128.2739	        	        	        	        	       0	(  1  0 16)	  0  1
    128.4483	        	        	        	        	       0	(  3  1  3)	  0  1
    129.0718	        	        	        	        	       0	(  2  0 14)	  0  1
    131.2457	        	        	        	        	       0	(  2  2  6)	  0  1
    131.5225	        	        	        	        	       0	(  3  1  4)	  0  1
    132.2143	        	        	        	        	       0	(  3  0 10)	  0  1
    133.4838	        	        	        	        	       0	(  2  1 12)	  0  1
    135.7069	        	        	        	        	       0	(  3  1  5)	  0  1
    141.2985	        	        	        	        	       0	(  3  1  6)	  0  1
    142.6829	        	        	        	        	       0	(  3  0 11)	  0  1
    143.1936	        	        	        	        	       0	(  2  0 15)	  0  1
    144.4192	        	        	        	        	       0	(  1  0 17)	  0  1
    145.4688	        	        	        	        	       0	(  2  2  8)	  0  1
    146.6234	        	        	        	        	       0	(  2  1 13)	  0  1
    148.9655	        	        	        	        	       0	(  3  1  7)	  0  1
    149.5111	        	        	        	        	       0	(  1  1 16)	  0  1
    153.8854	        	        	        	        	       0	(  0  0 18)	  0  1
    158.5352	        	        	        	        	       0	(  3  0 12)	  0  1
    158.8331	        	        	        	        	       0	(  4  0  0)	  0  1
    159.7894	        	        	        	        	       0	(  4  0  1)	  0  1
    160.9445	        	        	        	        	       0	(  3  1  8)	  0  1
    162.9662	        	        	        	        	       0	(  4  0  2)	  0  1
    169.5165	        	        	        	        	       0	(  2  0 16)	  0  1
    170.3061	        	        	        	        	       0	(  4  0  3)	  0  1
    173.8973	        	        	        	        	       0	(  2  1 14)	  0  1
