MSG Master    CELL:    5.89406   5.89406  23.16392   90.0000   90.0000  120.0000   SPGR: P 63/m m c             TEMP:    697.95
  2   1280     2.52000     0.00000    -0.10748     0.00000     0.00000    0
    96    96     0     0     2
       0.00000      10.00000
     125.00000     130.00000
 2Theta	Yobs	Ycal	Yobs-Ycal	Backg	Posr	(hkl)	K
      0.7700	    0.00	  643.29	-1830.66	  524.46
      0.8700	    0.00	  643.57	-1830.66	  524.74
      0.9700	   46.00	  643.85	-1830.66	  525.01
      1.0700	   42.00	  644.11	-1830.66	  525.28
      1.1700	   41.00	  644.37	-1830.66	  525.53
      1.2700	   53.00	  644.61	-1830.66	  525.78
      1.3700	   45.00	  644.86	-1830.66	  526.02
      1.4700	  122.00	  645.09	-1830.66	  526.26
      1.5700	  280.00	  645.31	-1830.66	  526.48
      1.6700	  435.00	  645.53	-1830.66	  526.70
      1.7700	  497.00	  645.74	-1830.66	  526.91
      1.8700	  631.00	  645.94	-1830.66	  527.11
      1.9700	  751.00	  646.14	-1830.66	  527.31
      2.0700	  763.00	  646.33	-1830.66	  527.50
      2.1700	  750.00	  646.51	-1830.66	  527.68
      2.2700	  762.00	  646.68	-1830.66	  527.85
      2.3700	  713.00	  646.85	-1830.66	  528.02
      2.4700	  725.00	  647.01	-1830.66	  528.17
      2.5700	  702.00	  647.16	-1830.66	  528.33
      2.6700	  665.00	  647.30	-1830.66	  528.47
      2.7700	  690.00	  647.44	-1830.66	  528.61
      2.8700	  664.00	  647.57	-1830.66	  528.74
      2.9700	  654.00	  647.70	-1830.66	  528.87
      3.0700	  598.00	  647.81	-1830.66	  528.98
      3.1700	  648.00	  647.93	-1830.66	  529.09
      3.2700	  698.00	  648.03	-1830.66	  529.20
      3.3700	  907.00	  648.13	-1830.66	  529.30
      3.4700	 1033.00	  648.22	-1830.66	  529.39
      3.5700	 1165.00	  648.30	-1830.66	  529.47
      3.6700	 1344.00	  648.38	-1830.66	  529.55
      3.7700	 1395.00	  648.45	-1830.66	  529.62
      3.8700	 1444.00	  648.52	-1830.66	  529.69
      3.9700	 1466.00	  648.58	-1830.66	  529.74
      4.0700	 1465.00	  648.63	-1830.66	  529.80
      4.1700	 1509.00	  648.67	-1830.66	  529.84
      4.2700	 1660.00	  648.72	-1830.66	  529.88
      4.3700	 1576.00	  648.75	-1830.66	  529.92
      4.4700	 1496.00	  648.78	-1830.66	  529.95
      4.5700	 1469.00	  648.80	-1830.66	  529.97
      4.6700	 1420.00	  648.82	-1830.66	  529.98
      4.7700	 1428.00	  648.83	-1830.66	  529.99
      4.8700	 1338.00	  648.83	-1830.66	  530.00
      4.9700	 1261.00	  648.83	-1830.66	  530.00
      5.0700	 1218.00	  648.82	-1830.66	  529.99
      5.1700	 1288.00	  648.81	-1830.66	  529.98
      5.2700	 1206.00	  648.79	-1830.66	  529.96
      5.3700	 1156.00	  648.77	-1830.66	  529.94
      5.4700	 1144.00	  648.74	-1830.66	  529.91
      5.5700	 1069.00	  648.70	-1830.66	  529.87
      5.6700	 1076.00	  648.66	-1830.66	  529.83
      5.7700	 1044.00	  648.62	-1830.66	  529.79
      5.8700	 1119.00	  648.57	-1830.66	  529.74
      5.9700	 1035.00	  648.51	-1830.66	  529.68
      6.0700	  994.00	  648.45	-1830.66	  529.62
      6.1700	 1013.00	  648.38	-1830.66	  529.55
      6.2700	  935.00	  648.31	-1830.66	  529.48
      6.3700	  973.00	  648.23	-1830.66	  529.40
      6.4700	  996.00	  648.15	-1830.66	  529.32
      6.5700	  943.00	  648.06	-1830.66	  529.23
      6.6700	  928.00	  647.97	-1830.66	  529.14
      6.7700	  830.00	  647.88	-1830.66	  529.04
      6.8700	  910.00	  647.77	-1830.66	  528.94
      6.9700	  846.00	  647.67	-1830.66	  528.84
      7.0700	  864.00	  647.56	-1830.66	  528.72
      7.1700	  802.00	  647.44	-1830.66	  528.61
      7.2700	  824.00	  647.32	-1830.66	  528.49
      7.3700	  795.00	  647.19	-1830.66	  528.36
      7.4700	  833.00	  647.06	-1830.66	  528.23
      7.5700	  774.00	  646.93	-1830.66	  528.10
      7.6700	  706.00	  646.79	-1830.66	  527.96
      7.7700	  783.00	  646.65	-1830.66	  527.82
      7.8700	  699.00	  646.50	-1830.66	  527.67
      7.9700	  756.00	  646.35	-1830.66	  527.52
      8.0700	  744.00	  646.19	-1830.66	  527.36
      8.1700	  728.00	  646.03	-1830.66	  527.20
      8.2700	  705.00	  645.87	-1830.66	  527.03
      8.3700	  750.00	  645.70	-1830.66	  526.87
      8.4700	  734.00	  645.52	-1830.66	  526.69
      8.5700	  702.00	  645.35	-1830.66	  526.52
      8.6700	  753.00	  645.17	-1830.66	  526.33
      8.7700	  744.00	  644.98	-1830.66	  526.15
      8.8700	  730.00	  644.79	-1830.66	  525.96
      8.9700	  737.00	  644.60	-1830.66	  525.77
      9.0700	  732.00	  644.40	-1830.66	  525.57
      9.1700	  703.00	  644.20	-1830.66	  525.37
      9.2700	  694.00	  644.00	-1830.66	  525.16
      9.3700	  729.00	  643.79	-1830.66	  524.96
      9.4700	  686.00	  643.57	-1830.66	  524.74
      9.5700	  690.00	  643.36	-1830.66	  524.53
      9.6700	  662.00	  643.14	-1830.66	  524.31
      9.7700	  677.00	  642.92	-1830.66	  524.09
      9.8700	  647.00	  642.69	-1830.66	  523.86
      9.9700	  691.00	  642.46	-1830.66	  523.63
     10.0700	  650.00	  644.30	-1824.96	  523.40
     10.1700	  693.00	  644.30	-1781.96	  523.16
     10.2700	  702.00	  644.35	-1773.00	  522.92
     10.3700	  649.00	  644.46	-1826.11	  522.67
     10.4700	  742.00	  644.67	-1733.32	  522.43
     10.5700	  697.00	  645.03	-1778.69	  522.18
     10.6700	  648.00	  645.62	-1828.28	  521.92
     10.7700	  657.00	  646.55	-1820.20	  521.67
     10.8700	  663.00	  647.90	-1815.56	  521.41
     10.9700	  659.00	  649.77	-1821.42	  521.15
     11.0700	  695.00	  652.15	-1787.81	  520.88
     11.1700	  670.00	  655.08	-1815.74	  520.61
     11.2700	  641.00	  658.57	-1848.23	  520.34
     11.3700	  687.00	  662.70	-1806.35	  520.06
     11.4700	  674.00	  667.59	-1824.24	  519.79
     11.5700	  735.00	  673.44	-1769.10	  519.51
     11.6700	  652.00	  680.56	-1859.22	  519.22
     11.7700	  746.00	  689.33	-1773.99	  518.94
     11.8700	  757.00	  700.08	-1773.74	  518.65
     11.9700	  737.00	  712.73	-1806.38	  518.36
     12.0700	  807.00	  726.17	-1749.82	  518.06
     12.1700	  773.00	  737.52	-1795.18	  517.77
     12.2700	  810.00	  741.72	-1762.38	  517.47
     12.3700	  780.00	  733.45	-1784.11	  517.16
     12.4700	  693.00	  713.86	-1851.52	  516.86
     12.5700	  710.00	  691.54	-1812.20	  516.55
     12.6700	  638.00	  673.09	-1865.75	  516.24
     12.7700	  673.00	  660.12	-1817.77	  515.93
     12.8700	  633.00	  651.78	-1849.43	  515.62
     12.9700	  628.00	  646.61	-1849.26	  515.30
     13.0700	  631.00	  643.33	-1842.99	  514.98
     13.1700	  577.00	  641.09	-1894.75	  514.66
     13.2700	  616.00	  639.46	-1854.12	  514.33
     13.3700	  612.00	  638.14	-1856.80	  514.01
     13.4700	  589.00	  637.05	-1878.71	  513.68
     13.5700	  620.00	  636.11	-1846.77	  513.35
     13.6700	  640.00	  635.29	-1825.95	  513.02
     13.7700	  582.00	  634.56	-1883.21	  512.68
     13.8700	  590.00	  633.89	-1874.54	  512.35
     13.9700	  653.00	  633.27	-1810.93	  512.01
     14.0700	  661.00	  632.70	-1802.35	  511.67
     14.1700	  589.00	  632.15	-1873.81	  511.32
     14.2700	  605.00	  631.64	-1857.29	  510.98
     14.3700	  602.00	  631.14	-1859.80	  510.63
     14.4700	  631.00	  630.66	-1830.32	  510.29
     14.5700	  569.00	  630.20	-1891.85	  509.94
     14.6700	  637.00	  629.75	-1823.40	  509.58
     14.7700	  597.00	  629.30	-1862.96	  509.23
     14.8700	  596.00	  628.87	-1863.53	  508.88
     14.9700	  623.00	  628.44	-1836.10	  508.52
     15.0700	  625.00	  628.02	-1833.68	  508.16
     15.1700	  644.00	  627.60	-1814.26	  507.80
     15.2700	  622.00	  627.19	-1835.84	  507.44
     15.3700	  641.00	  626.78	-1816.43	  507.07
     15.4700	  608.00	  626.37	-1849.03	  506.71
     15.5700	  645.00	  625.97	-1811.62	  506.34
     15.6700	  589.00	  625.56	-1867.22	  505.97
     15.7700	  586.00	  625.16	-1869.82	  505.60
     15.8700	  608.00	  624.76	-1847.42	  505.23
     15.9700	  611.00	  624.36	-1844.02	  504.86
     16.0700	  645.00	  623.96	-1809.62	  504.49
     16.1700	  626.00	  623.57	-1828.22	  504.11
     16.2700	  610.00	  623.17	-1843.82	  503.74
     16.3700	  622.00	  622.77	-1831.43	  503.36
     16.4700	  623.00	  622.37	-1830.03	  502.98
     16.5700	  624.00	  621.98	-1828.63	  502.60
     16.6700	  605.00	  621.58	-1847.24	  502.22
     16.7700	  610.00	  621.18	-1841.84	  501.84
     16.8700	  579.00	  620.79	-1872.44	  501.45
     16.9700	  581.00	  620.39	-1870.05	  501.07
     17.0700	  583.00	  619.99	-1867.65	  500.68
     17.1700	  622.00	  619.60	-1828.25	  500.30
     17.2700	  587.00	  619.20	-1862.85	  499.91
     17.3700	  605.00	  618.80	-1844.46	  499.52
     17.4700	  577.00	  618.40	-1872.06	  499.13
     17.5700	  616.00	  618.00	-1832.66	  498.74
     17.6700	  632.00	  617.61	-1816.26	  498.35
     17.7700	  659.00	  617.21	-1788.86	  497.95
     17.8700	  609.00	  616.81	-1838.46	  497.56
     17.9700	  641.00	  617.11	-1806.77	  497.17
     18.0700	  565.00	  616.73	-1882.38	  496.77
     18.1700	  593.00	  616.34	-1854.00	  496.38
     18.2700	  550.00	  616.39	-1897.05	  495.98
     18.3700	  563.00	  616.02	-1883.67	  495.58
     18.4700	  601.00	  615.64	-1845.30	  495.19
     18.5700	  604.00	  615.26	-1841.92	  494.79
     18.6700	  601.00	  614.89	-1844.54	  494.39
     18.7700	  605.00	  614.51	-1840.17	  493.99
     18.8700	  579.00	  614.14	-1865.79	  493.59
     18.9700	  630.00	  613.76	-1814.42	  493.19
     19.0700	  592.00	  613.39	-1852.05	  492.78
     19.1700	  592.00	  613.02	-1851.67	  492.38
     19.2700	  598.00	  612.65	-1845.30	  491.98
     19.3700	  607.00	  612.27	-1835.93	  491.58
     19.4700	  585.00	  611.90	-1857.56	  491.17
     19.5700	  621.00	  611.54	-1821.19	  490.77
     19.6700	  584.00	  611.17	-1857.82	  490.36
     19.7700	  595.00	  610.86	-1846.51	  489.96
     19.8700	  532.00	  610.49	-1909.15	  489.55
     19.9700	  578.00	  610.13	-1862.79	  489.15
     20.0700	  613.00	  609.77	-1827.43	  488.74
     20.1700	  582.00	  609.41	-1858.07	  488.34
     20.2700	  624.00	  609.05	-1815.71	  487.93
     20.3700	  549.00	  608.70	-1890.35	  487.52
     20.4700	  615.00	  608.34	-1824.00	  487.12
     20.5700	  610.00	  607.99	-1828.65	  486.71
     20.6700	  602.00	  607.65	-1836.30	  486.30
     20.7700	  579.00	  607.30	-1858.96	  485.89
     20.8700	  623.00	  606.96	-1814.61	  485.49
     20.9700	  575.00	  606.62	-1862.27	  485.08
     21.0700	  622.00	  606.28	-1814.94	  484.67
     21.1700	  612.00	  605.95	-1824.60	  484.26
     21.2700	  628.00	  605.62	-1808.27	  483.86
     21.3700	  617.00	  605.29	-1818.95	  483.45
     21.4700	  577.00	  604.97	-1858.63	  483.04
     21.5700	  575.00	  604.66	-1860.31	  482.63
     21.6700	  566.00	  604.34	-1869.00	  482.22
     21.7700	  602.00	  604.04	-1832.70	  481.82
     21.8700	  638.00	  603.74	-1796.40	  481.41
     21.9700	  581.00	  603.45	-1853.10	  481.00
     22.0700	  595.00	  603.16	-1838.82	  480.59
     22.1700	  566.00	  603.06	-1867.71	  480.19
     22.2700	  600.00	  602.79	-1833.45	  479.78
     22.3700	  617.00	  602.54	-1816.20	  479.37
     22.4700	  601.00	  602.30	-1831.95	  478.96
     22.5700	  579.00	  602.06	-1853.72	  478.56
     22.6700	  591.00	  601.85	-1841.50	  478.15
     22.7700	  613.00	  601.65	-1819.30	  477.75
     22.8700	  593.00	  601.47	-1839.12	  477.34
     22.9700	  644.00	  601.31	-1787.96	  476.93
     23.0700	  650.00	  601.17	-1781.83	  476.53
     23.1700	  627.00	  601.07	-1804.72	  476.12
     23.2700	  586.00	  601.00	-1845.65	  475.72
     23.3700	  599.00	  600.97	-1832.63	  475.31
     23.4700	  580.00	  601.00	-1851.66	  474.91
     23.5700	  612.00	  601.10	-1819.76	  474.51
     23.6700	  633.00	  601.29	-1798.94	  474.10
     23.7700	  630.00	  601.55	-1802.20	  473.70
     23.8700	  637.00	  602.05	-1795.71	  473.30
     23.9700	  615.00	  602.86	-1818.51	  472.90
     24.0700	  638.00	  604.13	-1796.79	  472.50
     24.1700	  647.00	  606.16	-1789.82	  472.09
     24.2700	  639.00	  609.36	-1801.02	  471.69
     24.3700	  632.00	  614.21	-1812.86	  471.29
     24.4700	  663.00	  621.12	-1788.78	  470.89
     24.5700	  648.00	  630.23	-1812.88	  470.50
     24.6700	  658.00	  641.04	-1813.70	  470.10
     24.7700	  697.00	  652.07	-1785.73	  469.70
     24.8700	  736.00	  660.39	-1755.04	  469.30
     24.9700	  670.00	  661.92	-1822.57	  468.91
     25.0700	  723.00	  654.57	-1762.22	  468.51
     25.1700	  695.00	  641.85	-1777.51	  468.12
     25.2700	  656.00	  629.27	-1803.92	  467.72
     25.3700	  633.00	  619.60	-1817.25	  467.33
     25.4700	  661.00	  613.17	-1782.82	  466.94
     25.5700	  610.00	  609.37	-1830.02	  466.54
     25.6700	  631.00	  607.37	-1807.03	  466.15
     25.7700	  663.00	  606.48	-1774.14	  465.76
     25.8700	  586.00	  606.28	-1850.94	  465.37
     25.9700	  643.00	  606.53	-1794.19	  464.98
     26.0700	  613.00	  607.15	-1824.80	  464.59
     26.1700	  634.00	  608.08	-1804.74	  464.21
     26.2700	  595.00	  609.34	-1845.00	  463.82
     26.3700	  648.00	  610.95	-1793.61	  463.43
     26.4700	  629.00	  612.95	-1814.61	  463.05
     26.5700	  667.00	  615.41	-1779.07	  462.66
     26.6700	  626.00	  618.41	-1823.06	  462.28
     26.7700	  668.00	  622.06	-1784.71	  461.90
     26.8700	  635.00	  626.53	-1822.18	  461.52
     26.9700	  656.00	  632.03	-1806.69	  461.14
     27.0700	  652.00	  638.87	-1817.53	  460.76
     27.1700	  676.00	  647.51	-1802.17	  460.38
     27.2700	  643.00	  658.68	-1846.34	  460.00
     27.3700	  753.00	  673.70	-1751.36	  459.62
     27.4700	  717.00	  695.17	-1808.82	  459.25
     27.5700	  746.00	  728.18	-1812.84	  458.87
     27.6700	  788.00	  782.15	-1824.81	  458.50
     27.7700	  845.00	  872.72	-1858.37	  458.13
     27.8700	  939.00	 1021.95	-1913.61	  457.75
     27.9700	  984.00	 1252.90	-2099.56	  457.38
     28.0700	 1321.00	 1575.86	-2085.52	  457.01
     28.1700	 1896.00	 1968.69	-1903.34	  456.64
     28.2700	 2574.00	 2356.16	-1612.82	  456.28
     28.3700	 2922.00	 2602.58	-1511.24	  455.91
     28.4700	 2927.00	 2567.68	-1471.33	  455.54
     28.5700	 2375.00	 2282.25	-1737.91	  455.18
     28.6700	 1885.00	 1965.96	-1911.61	  454.82
     28.7700	 1482.00	 1782.39	-2131.05	  454.45
     28.8700	 1645.00	 1758.97	-1944.62	  454.09
     28.9700	 1889.00	 1830.15	-1771.80	  453.73
     29.0700	 1953.00	 1878.16	-1755.82	  453.38
     29.1700	 1823.00	 1788.51	-1796.16	  453.02
     29.2700	 1541.00	 1551.79	-1841.45	  452.66
     29.3700	 1311.00	 1272.98	-1792.64	  452.31
     29.4700	 1028.00	 1039.57	-1842.23	  451.95
     29.5700	  929.00	  877.48	-1779.13	  451.60
     29.6700	  808.00	  777.80	-1800.46	  451.25
     29.7700	  798.00	  720.40	-1753.05	  450.90
     29.8700	  766.00	  687.10	-1751.76	  450.55
     29.9700	  716.00	  666.37	-1781.02	  450.20
     30.0700	  708.00	  652.33	-1774.99	  449.86
     30.1700	  731.00	  642.43	-1742.09	  449.51
     30.2700	  718.00	  635.71	-1748.37	  449.17
     30.3700	  660.00	  632.10	-1802.76	  448.82
     30.4700	  662.00	  632.20	-1800.85	  448.48
     30.5700	  638.00	  637.19	-1829.85	  448.14
     30.6700	  637.00	  648.49	-1842.14	  447.80
     30.7700	  691.00	  666.68	-1806.34	  447.47
     30.8700	  712.00	  690.18	-1808.84	  447.13
     30.9700	  711.00	  714.01	-1833.66	  446.79
     31.0700	  717.00	  729.34	-1843.00	  446.46
     31.1700	  654.00	  726.19	-1902.84	  446.13
     31.2700	  749.00	  703.01	-1784.67	  445.80
     31.3700	  657.00	  671.04	-1844.70	  445.47
     31.4700	  683.00	  641.81	-1789.47	  445.14
     31.5700	  672.00	  619.98	-1778.64	  444.81
     31.6700	  641.00	  605.59	-1795.25	  444.49
     31.7700	  606.00	  596.80	-1821.45	  444.17
     31.8700	  585.00	  591.50	-1837.15	  443.84
     31.9700	  616.00	  588.15	-1802.81	  443.52
     32.0700	  626.00	  585.87	-1790.53	  443.20
     32.1700	  589.00	  584.22	-1825.88	  442.88
     32.2700	  581.00	  583.01	-1832.66	  442.57
     32.3700	  598.00	  582.14	-1814.79	  442.25
     32.4700	  606.00	  581.57	-1806.23	  441.94
     32.5700	  622.00	  581.30	-1789.95	  441.63
     32.6700	  616.00	  581.33	-1795.98	  441.32
     32.7700	  556.00	  581.68	-1856.34	  441.01
     32.8700	  578.00	  582.42	-1835.08	  440.70
     32.9700	  624.00	  583.65	-1790.31	  440.39
     33.0700	  564.00	  585.46	-1852.12	  440.09
     33.1700	  578.00	  588.12	-1840.78	  439.78
     33.2700	  590.00	  592.12	-1832.77	  439.48
     33.3700	  602.00	  598.37	-1827.03	  439.18
     33.4700	  605.00	  608.65	-1834.30	  438.88
     33.5700	  634.00	  625.96	-1822.62	  438.58
     33.6700	  646.00	  654.77	-1839.43	  438.29
     33.7700	  674.00	  700.25	-1856.90	  437.99
     33.8700	  773.00	  765.78	-1823.43	  437.70
     33.9700	  843.00	  848.75	-1836.41	  437.41
     34.0700	 1009.00	  936.31	-1757.96	  437.12
     34.1700	 1095.00	 1003.61	-1739.26	  436.83
     34.2700	 1144.00	 1019.37	-1706.02	  436.54
     34.3700	 1062.00	  969.66	-1738.31	  436.26
     34.4700	  857.00	  879.26	-1852.91	  435.97
     34.5700	  767.00	  785.77	-1849.42	  435.69
     34.6700	  714.00	  710.08	-1826.73	  435.41
     34.7700	  634.00	  657.05	-1853.71	  435.13
     34.8700	  624.00	  623.47	-1830.13	  434.85
     34.9700	  612.00	  603.39	-1822.05	  434.58
     35.0700	  580.00	  591.42	-1842.08	  434.30
     35.1700	  579.00	  583.88	-1835.54	  434.03
     35.2700	  583.00	  578.68	-1826.34	  433.76
     35.3700	  566.00	  574.81	-1839.46	  433.49
     35.4700	  591.00	  571.77	-1811.43	  433.22
     35.5700	  571.00	  569.31	-1828.97	  432.96
     35.6700	  577.00	  567.28	-1820.94	  432.69
     35.7700	  587.00	  565.58	-1809.23	  432.43
     35.8700	  527.00	  564.13	-1867.79	  432.17
     35.9700	  541.00	  562.89	-1852.55	  431.91
     36.0700	  538.00	  562.31	-1854.97	  431.65
     36.1700	  561.00	  561.39	-1831.05	  431.39
     36.2700	  569.00	  560.59	-1822.25	  431.14
     36.3700	  524.00	  559.91	-1866.56	  430.88
     36.4700	  589.00	  559.32	-1800.98	  430.63
     36.5700	  588.00	  558.83	-1801.48	  430.38
     36.6700	  589.00	  558.43	-1800.09	  430.13
     36.7700	  556.00	  558.14	-1832.80	  429.88
     36.8700	  536.00	  557.94	-1852.60	  429.64
     36.9700	  567.00	  557.92	-1821.58	  429.40
     37.0700	  553.00	  558.11	-1835.77	  429.15
     37.1700	  554.00	  558.63	-1835.28	  428.91
     37.2700	  557.00	  559.83	-1833.49	  428.67
     37.3700	  558.00	  561.61	-1834.27	  428.44
     37.4700	  579.00	  564.55	-1816.21	  428.20
     37.5700	  609.00	  569.10	-1790.76	  427.97
     37.6700	  587.00	  575.70	-1819.36	  427.73
     37.7700	  556.00	  584.52	-1859.18	  427.50
     37.8700	  594.00	  595.16	-1831.82	  427.27
     37.9700	  554.00	  606.41	-1883.07	  427.05
     38.0700	  636.00	  616.41	-1811.06	  426.82
     38.1700	  615.00	  622.66	-1838.32	  426.60
     38.2700	  637.00	  622.12	-1815.78	  426.37
     38.3700	  591.00	  613.55	-1853.20	  426.15
     38.4700	  573.00	  599.97	-1857.62	  425.93
     38.5700	  542.00	  585.95	-1874.61	  425.72
     38.6700	  552.00	  574.24	-1852.90	  425.50
     38.7700	  540.00	  565.62	-1856.28	  425.29
     38.8700	  577.00	  559.82	-1813.47	  425.07
     38.9700	  569.00	  556.11	-1817.77	  424.86
     39.0700	  513.00	  553.16	-1870.81	  424.65
     39.1700	  561.00	  551.63	-1821.28	  424.45
     39.2700	  519.00	  550.54	-1862.20	  424.24
     39.3700	  556.00	  549.71	-1824.37	  424.03
     39.4700	  590.00	  549.04	-1789.70	  423.83
     39.5700	  596.00	  548.47	-1783.13	  423.63
     39.6700	  532.00	  547.99	-1846.65	  423.43
     39.7700	  566.00	  547.57	-1812.22	  423.23
     39.8700	  504.00	  547.20	-1873.85	  423.04
     39.9700	  502.00	  546.87	-1875.53	  422.84
     40.0700	  567.00	  546.58	-1810.23	  422.65
     40.1700	  528.00	  545.90	-1848.56	  422.46
     40.2700	  568.00	  545.68	-1808.34	  422.27
     40.3700	  577.00	  546.04	-1799.69	  422.08
     40.4700	  516.00	  545.88	-1860.53	  421.89
     40.5700	  544.00	  545.74	-1832.40	  421.71
     40.6700	  533.00	  545.63	-1843.29	  421.53
     40.7700	  523.00	  545.55	-1853.21	  421.35
     40.8700	  584.00	  545.50	-1792.16	  421.17
     40.9700	  508.00	  545.49	-1868.14	  420.99
     41.0700	  559.00	  545.51	-1817.16	  420.81
     41.1700	  564.00	  545.57	-1812.23	  420.64
     41.2700	  540.00	  545.69	-1836.35	  420.46
     41.3700	  538.00	  545.87	-1838.53	  420.29
     41.4700	  512.00	  546.13	-1864.78	  420.12
     41.5700	  549.00	  546.53	-1828.19	  419.95
     41.6700	  473.00	  547.02	-1904.67	  419.79
     41.7700	  550.00	  547.69	-1828.34	  419.62
     41.8700	  534.00	  548.64	-1845.30	  419.46
     41.9700	  514.00	  550.07	-1866.73	  419.30
     42.0700	  525.00	  552.32	-1857.98	  419.13
     42.1700	  564.00	  555.99	-1822.65	  418.98
     42.2700	  564.00	  561.95	-1828.60	  418.82
     42.3700	  539.00	  571.30	-1862.96	  418.66
     42.4700	  547.00	  584.96	-1868.62	  418.51
     42.5700	  579.00	  603.02	-1854.67	  418.36
     42.6700	  590.00	  624.27	-1864.93	  418.21
     42.7700	  655.00	  645.07	-1820.73	  418.06
     42.8700	  613.00	  659.47	-1877.13	  417.91
     42.9700	  622.00	  661.19	-1869.84	  417.76
     43.0700	  673.00	  648.91	-1806.57	  417.62
     43.1700	  605.00	  628.38	-1854.04	  417.48
     43.2700	  581.00	  606.24	-1855.90	  417.34
     43.3700	  556.00	  587.05	-1861.71	  417.20
     43.4700	  556.00	  572.43	-1847.08	  417.06
     43.5700	  566.00	  562.28	-1826.94	  416.92
     43.6700	  574.00	  555.72	-1812.38	  416.79
     43.7700	  520.00	  551.64	-1862.30	  416.65
     43.8700	  533.00	  549.10	-1846.76	  416.52
     43.9700	  516.00	  547.45	-1862.10	  416.39
     44.0700	  515.00	  546.30	-1861.96	  416.26
     44.1700	  591.00	  545.46	-1785.11	  416.13
     44.2700	  584.00	  544.81	-1791.46	  416.01
     44.3700	  539.00	  544.50	-1836.16	  415.89
     44.4700	  515.00	  544.10	-1859.75	  415.76
     44.5700	  583.00	  543.77	-1791.43	  415.64
     44.6700	  570.00	  543.51	-1804.17	  415.52
     44.7700	  530.00	  543.31	-1843.97	  415.40
     44.8700	  581.00	  543.16	-1792.82	  415.29
     44.9700	  576.00	  543.05	-1797.71	  415.17
     45.0700	  565.00	  542.98	-1808.64	  415.06
     45.1700	  565.00	  542.95	-1808.61	  414.95
     45.2700	  535.00	  542.95	-1838.61	  414.84
     45.3700	  519.00	  542.98	-1854.64	  414.73
     45.4700	  557.00	  543.06	-1816.72	  414.62
     45.5700	  560.00	  543.24	-1813.90	  414.51
     45.6700	  595.00	  543.37	-1779.02	  414.41
     45.7700	  541.00	  543.53	-1833.19	  414.31
     45.8700	  532.00	  543.72	-1842.38	  414.21
     45.9700	  540.00	  543.96	-1834.61	  414.11
     46.0700	  488.00	  544.29	-1886.95	  414.01
     46.1700	  602.00	  544.61	-1773.27	  413.91
     46.2700	  543.00	  544.98	-1832.64	  413.81
     46.3700	  547.00	  545.41	-1829.06	  413.72
     46.4700	  572.00	  545.90	-1804.55	  413.63
     46.5700	  519.00	  546.30	-1857.95	  413.53
     46.6700	  536.00	  546.96	-1841.61	  413.45
     46.7700	  521.00	  547.73	-1857.38	  413.36
     46.8700	  555.00	  548.64	-1824.30	  413.27
     46.9700	  586.00	  549.75	-1794.41	  413.18
     47.0700	  534.00	  551.16	-1847.82	  413.10
     47.1700	  560.00	  553.05	-1823.71	  413.02
     47.2700	  562.00	  555.72	-1824.37	  412.93
     47.3700	  561.00	  559.63	-1829.29	  412.85
     47.4700	  579.00	  565.44	-1817.09	  412.78
     47.5700	  591.00	  573.84	-1813.49	  412.70
     47.6700	  559.00	  585.39	-1857.04	  412.62
     47.7700	  575.00	  600.13	-1855.79	  412.55
     47.8700	  605.00	  617.18	-1842.83	  412.47
     47.9700	  655.00	  634.20	-1809.86	  412.40
     48.0700	  672.00	  647.30	-1805.95	  412.33
     48.1700	  603.00	  652.62	-1880.28	  412.26
     48.2700	  691.00	  647.74	-1787.39	  412.20
     48.3700	  630.00	  635.90	-1836.55	  412.13
     48.4700	  605.00	  621.82	-1847.48	  412.06
     48.5700	  587.00	  609.10	-1852.75	  412.00
     48.6700	  584.00	  599.52	-1846.17	  411.94
     48.7700	  556.00	  593.68	-1868.33	  411.88
     48.8700	  582.00	  591.41	-1840.06	  411.82
     48.9700	  619.00	  592.23	-1803.88	  411.76
     49.0700	  552.00	  595.68	-1874.34	  411.70
     49.1700	  592.00	  601.57	-1840.23	  411.64
     49.2700	  610.00	  610.17	-1830.82	  411.59
     49.3700	  611.00	  622.56	-1842.22	  411.53
     49.4700	  603.00	  641.28	-1868.93	  411.48
     49.5700	  599.00	  671.37	-1903.03	  411.43
     49.6700	  679.00	  721.74	-1873.40	  411.38
     49.7700	  765.00	  805.95	-1871.60	  411.33
     49.8700	  885.00	  940.98	-1886.64	  411.29
     49.9700	 1075.00	 1142.55	-1898.21	  411.24
     50.0700	 1425.00	 1416.52	-1822.18	  411.19
     50.1700	 1823.00	 1748.11	-1755.77	  411.15
     50.2700	 2221.00	 2091.47	-1701.13	  411.11
     50.3700	 2468.00	 2365.63	-1728.29	  411.07
     50.4700	 2596.00	 2474.46	-1709.12	  411.03
     50.5700	 2416.00	 2368.60	-1783.25	  410.99
     50.6700	 2071.00	 2094.95	-1854.60	  410.95
     50.7700	 1697.00	 1752.87	-1886.53	  410.91
     50.8700	 1293.00	 1426.07	-1963.73	  410.88
     50.9700	 1089.00	 1160.08	-1901.74	  410.84
     51.0700	  840.00	  968.77	-1959.42	  410.81
     51.1700	  795.00	  845.07	-1880.72	  410.78
     51.2700	  749.00	  771.50	-1853.16	  410.75
     51.3700	  731.00	  728.80	-1828.45	  410.72
     51.4700	  665.00	  701.45	-1867.10	  410.69
     51.5700	  664.00	  680.18	-1846.84	  410.66
     51.6700	  648.00	  661.63	-1844.29	  410.64
     51.7700	  638.00	  645.52	-1838.18	  410.61
     51.8700	  612.00	  632.25	-1850.91	  410.59
     51.9700	  643.00	  622.00	-1809.65	  410.56
     52.0700	  576.00	  614.50	-1869.16	  410.54
     52.1700	  617.00	  609.19	-1822.85	  410.52
     52.2700	  655.00	  605.48	-1781.14	  410.50
     52.3700	  597.00	  603.07	-1836.72	  410.48
     52.4700	  583.00	  602.02	-1849.68	  410.46
     52.5700	  637.00	  602.69	-1796.35	  410.45
     52.6700	  627.00	  605.66	-1809.32	  410.43
     52.7700	  617.00	  611.96	-1825.62	  410.41
     52.8700	  607.00	  623.25	-1846.90	  410.40
     52.9700	  634.00	  642.03	-1838.69	  410.39
     53.0700	  634.00	  671.63	-1868.29	  410.38
     53.1700	  731.00	  715.75	-1815.41	  410.36
     53.2700	  785.00	  777.45	-1823.11	  410.35
     53.3700	  925.00	  857.67	-1763.33	  410.35
     53.4700	  980.00	  953.41	-1804.07	  410.34
     53.5700	 1131.00	 1055.39	-1755.05	  410.33
     53.6700	 1203.00	 1146.62	-1774.28	  410.32
     53.7700	 1248.00	 1203.42	-1786.08	  410.32
     53.8700	 1258.00	 1205.76	-1778.41	  410.31
     53.9700	 1222.00	 1152.47	-1761.13	  410.31
     54.0700	 1114.00	 1062.79	-1779.44	  410.31
     54.1700	 1036.00	  961.08	-1755.74	  410.31
     54.2700	  817.00	  865.17	-1878.82	  410.31
     54.3700	  808.00	  784.54	-1807.19	  410.31
     54.4700	  696.00	  722.46	-1857.12	  410.31
     54.5700	  704.00	  678.13	-1804.79	  410.31
     54.6700	  706.00	  648.48	-1773.13	  410.31
     54.7700	  630.00	  629.73	-1830.38	  410.32
     54.8700	  637.00	  618.44	-1812.10	  410.32
     54.9700	  637.00	  612.02	-1805.67	  410.33
     55.0700	  653.00	  608.72	-1786.37	  410.33
     55.1700	  611.00	  607.51	-1827.17	  410.34
     55.2700	  663.00	  607.86	-1775.52	  410.35
     55.3700	  628.00	  609.53	-1812.18	  410.35
     55.4700	  629.00	  612.44	-1814.10	  410.36
     55.5700	  621.00	  616.68	-1826.34	  410.37
     55.6700	  630.00	  622.43	-1823.09	  410.38
     55.7700	  665.00	  630.09	-1795.75	  410.40
     55.8700	  658.00	  640.40	-1813.06	  410.41
     55.9700	  639.00	  654.76	-1846.41	  410.42
     56.0700	  687.00	  675.71	-1819.36	  410.44
     56.1700	  690.00	  707.63	-1848.29	  410.45
     56.2700	  783.00	  757.45	-1805.11	  410.47
     56.3700	  834.00	  834.90	-1831.56	  410.48
     56.4700	  890.00	  951.85	-1892.51	  410.50
     56.5700	 1068.00	 1119.87	-1882.53	  410.51
     56.6700	 1317.00	 1346.24	-1859.90	  410.53
     56.7700	 1588.00	 1628.67	-1871.32	  410.55
     56.8700	 1990.00	 1949.43	-1790.08	  410.57
     56.9700	 2320.00	 2270.16	-1780.81	  410.59
     57.0700	 2421.00	 2529.35	-1939.01	  410.61
     57.1700	 2672.00	 2654.80	-1813.45	  410.63
     57.2700	 2540.00	 2602.12	-1892.77	  410.65
     57.3700	 2276.00	 2390.62	-1945.27	  410.68
     57.4700	 2039.00	 2087.77	-1879.43	  410.70
     57.5700	 1742.00	 1763.31	-1851.97	  410.72
     57.6700	 1354.00	 1465.41	-1942.07	  410.75
     57.7700	 1119.00	 1219.41	-1931.06	  410.77
     57.8700	 1000.00	 1033.38	-1864.03	  410.80
     57.9700	  853.00	  903.72	-1881.37	  410.82
     58.0700	  792.00	  820.89	-1859.54	  410.85
     58.1700	  715.00	  774.25	-1889.90	  410.88
     58.2700	  765.00	  755.13	-1820.79	  410.90
     58.3700	  763.00	  758.12	-1825.78	  410.93
     58.4700	  748.00	  780.64	-1863.29	  410.96
     58.5700	  770.00	  821.68	-1882.34	  410.99
     58.6700	  879.00	  880.18	-1831.84	  411.02
     58.7700	  964.00	  953.39	-1820.04	  411.05
     58.8700	 1096.00	 1035.30	-1769.96	  411.08
     58.9700	 1085.00	 1116.41	-1862.07	  411.11
     59.0700	 1208.00	 1186.57	-1809.22	  411.14
     59.1700	 1243.00	 1239.68	-1827.34	  411.17
     59.2700	 1273.00	 1273.63	-1831.29	  411.21
     59.3700	 1319.00	 1285.78	-1797.44	  411.24
     59.4700	 1273.00	 1274.25	-1831.91	  411.27
     59.5700	 1271.00	 1244.39	-1804.04	  411.30
     59.6700	 1223.00	 1209.17	-1816.82	  411.34
     59.7700	 1144.00	 1181.83	-1868.49	  411.37
     59.8700	 1196.00	 1171.36	-1806.01	  411.41
     59.9700	 1191.00	 1183.44	-1823.10	  411.44
     60.0700	 1220.00	 1222.45	-1833.10	  411.48
     60.1700	 1285.00	 1289.69	-1835.35	  411.51
     60.2700	 1416.00	 1379.40	-1794.06	  411.55
     60.3700	 1514.00	 1475.85	-1792.50	  411.59
     60.4700	 1636.00	 1553.45	-1748.11	  411.62
     60.5700	 1657.00	 1582.59	-1756.24	  411.66
     60.6700	 1629.00	 1544.51	-1746.17	  411.70
     60.7700	 1445.00	 1444.86	-1830.52	  411.73
     60.8700	 1365.00	 1308.44	-1774.10	  411.77
     60.9700	 1185.00	 1162.55	-1808.21	  411.81
     61.0700	 1061.00	 1027.37	-1797.02	  411.85
     61.1700	  929.00	  914.76	-1816.42	  411.89
     61.2700	  838.00	  829.74	-1822.40	  411.93
     61.3700	  803.00	  772.66	-1800.31	  411.97
     61.4700	  801.00	  741.52	-1771.17	  412.00
     61.5700	  750.00	  734.09	-1814.75	  412.04
     61.6700	  743.00	  749.39	-1837.04	  412.08
     61.7700	  772.00	  787.88	-1846.53	  412.12
     61.8700	  912.00	  850.81	-1769.46	  412.16
     61.9700	  958.00	  938.55	-1811.20	  412.20
     62.0700	 1084.00	 1048.58	-1795.23	  412.24
     62.1700	 1216.00	 1173.67	-1788.32	  412.29
     62.2700	 1284.00	 1300.13	-1846.79	  412.33
     62.3700	 1466.00	 1407.19	-1771.85	  412.37
     62.4700	 1461.00	 1469.77	-1839.42	  412.41
     62.5700	 1469.00	 1468.77	-1830.43	  412.45
     62.6700	 1328.00	 1403.92	-1906.58	  412.49
     62.7700	 1292.00	 1294.04	-1832.69	  412.53
     62.8700	 1112.00	 1164.26	-1882.92	  412.57
     62.9700	  976.00	 1035.30	-1889.95	  412.61
     63.0700	  861.00	  920.65	-1890.31	  412.66
     63.1700	  803.00	  827.04	-1854.69	  412.70
     63.2700	  737.00	  756.09	-1849.75	  412.74
     63.3700	  683.00	  705.86	-1853.52	  412.78
     63.4700	  654.00	  672.56	-1849.21	  412.82
     63.5700	  675.00	  652.12	-1807.78	  412.86
     63.6700	  715.00	  641.06	-1756.72	  412.91
     63.7700	  635.00	  637.11	-1832.76	  412.95
     63.8700	  631.00	  639.26	-1838.92	  412.99
     63.9700	  657.00	  647.73	-1821.38	  413.03
     64.0700	  715.00	  663.67	-1779.33	  413.07
     64.1700	  707.00	  688.91	-1812.57	  413.12
     64.2700	  728.00	  725.45	-1828.11	  413.16
     64.3700	  811.00	  774.83	-1794.49	  413.20
     64.4700	  856.00	  837.39	-1812.05	  413.24
     64.5700	  873.00	  911.46	-1869.12	  413.28
     64.6700	 1054.00	  992.54	-1769.20	  413.32
     64.7700	 1146.00	 1072.48	-1757.14	  413.36
     64.8700	 1145.00	 1140.01	-1825.67	  413.41
     64.9700	 1231.00	 1183.44	-1783.10	  413.45
     65.0700	 1191.00	 1194.02	-1833.67	  413.49
     65.1700	 1174.00	 1171.80	-1828.45	  413.53
     65.2700	 1080.00	 1122.01	-1872.67	  413.57
     65.3700	 1089.00	 1055.03	-1796.68	  413.61
     65.4700	 1041.00	  982.05	-1771.71	  413.65
     65.5700	  864.00	  911.79	-1878.44	  413.69
     65.6700	  822.00	  849.16	-1857.81	  413.73
     65.7700	  740.00	  796.07	-1886.72	  413.77
     65.8700	  701.00	  752.15	-1881.80	  413.81
     65.9700	  692.00	  716.87	-1855.52	  413.85
     66.0700	  687.00	  689.32	-1832.98	  413.89
     66.1700	  605.00	  668.45	-1894.11	  413.93
     66.2700	  616.00	  653.11	-1867.77	  413.97
     66.3700	  623.00	  642.26	-1849.91	  414.01
     66.4700	  628.00	  635.05	-1837.71	  414.04
     66.5700	  615.00	  631.01	-1846.66	  414.08
     66.6700	  669.00	  629.49	-1791.15	  414.12
     66.7700	  623.00	  630.42	-1838.08	  414.16
     66.8700	  590.00	  633.90	-1874.56	  414.19
     66.9700	  582.00	  640.14	-1888.80	  414.23
     67.0700	  647.00	  650.13	-1833.79	  414.27
     67.1700	  643.00	  665.38	-1853.04	  414.30
     67.2700	  706.00	  688.59	-1813.24	  414.34
     67.3700	  713.00	  723.65	-1841.31	  414.38
     67.4700	  803.00	  775.82	-1803.48	  414.41
     67.5700	  817.00	  851.42	-1865.08	  414.45
     67.6700	  943.00	  957.05	-1844.71	  414.48
     67.7700	 1120.00	 1098.24	-1808.90	  414.52
     67.8700	 1260.00	 1277.44	-1848.10	  414.55
     67.9700	 1466.00	 1492.06	-1856.72	  414.58
     68.0700	 1712.00	 1732.34	-1850.99	  414.62
     68.1700	 2047.00	 1979.79	-1763.44	  414.65
     68.2700	 2227.00	 2206.02	-1809.67	  414.68
     68.3700	 2365.00	 2373.99	-1839.64	  414.71
     68.4700	 2365.00	 2447.23	-1912.89	  414.74
     68.5700	 2435.00	 2406.81	-1802.46	  414.78
     68.6700	 2285.00	 2263.42	-1809.08	  414.81
     68.7700	 2041.00	 2050.26	-1839.92	  414.84
     68.8700	 1777.00	 1805.62	-1859.28	  414.87
     68.9700	 1529.00	 1560.88	-1862.54	  414.90
     69.0700	 1257.00	 1337.44	-1911.10	  414.92
     69.1700	 1094.00	 1147.37	-1884.03	  414.95
     69.2700	  997.00	  995.16	-1828.82	  414.98
     69.3700	  815.00	  879.64	-1895.29	  415.01
     69.4700	  827.00	  795.91	-1799.57	  415.03
     69.5700	  757.00	  737.55	-1811.21	  415.06
     69.6700	  712.00	  698.00	-1816.66	  415.09
     69.7700	  692.00	  671.60	-1810.25	  415.11
     69.8700	  646.00	  653.98	-1838.64	  415.14
     69.9700	  619.00	  642.09	-1853.75	  415.16
     70.0700	  642.00	  633.92	-1822.57	  415.18
     70.1700	  638.00	  628.23	-1820.89	  415.21
     70.2700	  663.00	  624.32	-1791.97	  415.23
     70.3700	  585.00	  621.78	-1867.44	  415.25
     70.4700	  600.00	  620.44	-1851.10	  415.27
     70.5700	  629.00	  620.08	-1821.73	  415.29
     70.6700	  630.00	  621.11	-1821.77	  415.31
     70.7700	  638.00	  623.60	-1816.26	  415.33
     70.8700	  671.00	  627.98	-1787.64	  415.35
     70.9700	  644.00	  635.04	-1821.70	  415.37
     71.0700	  638.00	  646.01	-1838.67	  415.39
     71.1700	  639.00	  662.74	-1854.40	  415.40
     71.2700	  673.00	  687.79	-1845.45	  415.42
     71.3700	  734.00	  725.38	-1822.04	  415.43
     71.4700	  765.00	  777.56	-1843.21	  415.45
     71.5700	  855.00	  849.16	-1824.82	  415.46
     71.6700	  951.00	  943.44	-1823.10	  415.48
     71.7700	 1021.00	 1061.97	-1871.62	  415.49
     71.8700	 1204.00	 1203.59	-1830.24	  415.50
     71.9700	 1379.00	 1363.30	-1814.95	  415.51
     72.0700	 1488.00	 1531.48	-1874.14	  415.52
     72.1700	 1724.00	 1693.11	-1799.76	  415.53
     72.2700	 1750.00	 1827.85	-1908.51	  415.54
     72.3700	 1858.00	 1912.95	-1885.60	  415.55
     72.4700	 1815.00	 1930.36	-1946.02	  415.56
     72.5700	 1921.00	 1875.97	-1785.62	  415.57
     72.6700	 1727.00	 1761.98	-1865.64	  415.57
     72.7700	 1571.00	 1610.11	-1869.77	  415.58
     72.8700	 1468.00	 1442.42	-1805.08	  415.58
     72.9700	 1308.00	 1276.58	-1799.24	  415.59
     73.0700	 1228.00	 1124.68	-1727.33	  415.59
     73.1700	 1070.00	  993.79	-1754.44	  415.59
     73.2700	  921.00	  886.77	-1796.42	  415.59
     73.3700	  808.00	  803.19	-1825.84	  415.59
     73.4700	  760.00	  740.52	-1811.18	  415.59
     73.5700	  711.00	  695.10	-1814.76	  415.59
     73.6700	  722.00	  663.04	-1771.70	  415.59
     73.7700	  701.00	  640.81	-1770.46	  415.59
     73.8700	  685.00	  625.50	-1771.16	  415.58
     73.9700	  639.00	  615.01	-1806.66	  415.58
     74.0700	  595.00	  607.84	-1843.50	  415.57
     74.1700	  612.00	  602.51	-1821.17	  415.57
     74.2700	  642.00	  599.51	-1788.16	  415.56
     74.3700	  705.00	  597.89	-1723.55	  415.55
     74.4700	  613.00	  597.39	-1815.04	  415.54
     74.5700	  645.00	  597.74	-1783.40	  415.53
     74.6700	  667.00	  598.68	-1762.33	  415.52
     74.7700	  620.00	  599.87	-1810.52	  415.51
     74.8700	  631.00	  600.91	-1800.57	  415.50
     74.9700	  697.00	  601.39	-1735.04	  415.49
     75.0700	  638.00	  600.96	-1793.61	  415.47
     75.1700	  680.00	  599.52	-1750.17	  415.46
     75.2700	  716.00	  597.28	-1711.94	  415.44
     75.3700	  646.00	  594.69	-1779.34	  415.42
     75.4700	  658.00	  592.27	-1764.93	  415.41
     75.5700	  655.00	  590.59	-1766.25	  415.39
     75.6700	  625.00	  590.22	-1795.88	  415.37
     75.7700	  664.00	  591.73	-1758.39	  415.35
     75.8700	  668.00	  595.67	-1758.32	  415.32
     75.9700	  620.00	  602.76	-1813.42	  415.30
     76.0700	  627.00	  613.51	-1817.17	  415.28
     76.1700	  646.00	  628.36	-1813.01	  415.25
     76.2700	  663.00	  647.46	-1815.12	  415.23
     76.3700	  687.00	  670.64	-1814.30	  415.20
     76.4700	  712.00	  697.10	-1815.76	  415.17
     76.5700	  759.00	  725.72	-1797.37	  415.14
     76.6700	  794.00	  754.38	-1791.03	  415.11
     76.7700	  790.00	  780.32	-1820.98	  415.08
     76.8700	  826.00	  800.22	-1804.88	  415.05
     76.9700	  815.00	  810.78	-1826.43	  415.02
     77.0700	  775.00	  809.90	-1865.56	  414.98
     77.1700	  843.00	  797.69	-1785.34	  414.95
     77.2700	  735.00	  776.38	-1872.04	  414.91
     77.3700	  750.00	  749.31	-1829.96	  414.88
     77.4700	  664.00	  719.74	-1886.40	  414.84
     77.5700	  680.00	  690.34	-1840.99	  414.80
     77.6700	  645.00	  663.01	-1848.67	  414.76
     77.7700	  576.00	  638.97	-1893.62	  414.72
     77.8700	  554.00	  618.77	-1895.43	  414.67
     77.9700	  621.00	  602.53	-1812.18	  414.63
     78.0700	  547.00	  589.94	-1873.60	  414.59
     78.1700	  597.00	  580.30	-1813.96	  414.54
     78.2700	  583.00	  573.45	-1821.11	  414.49
     78.3700	  550.00	  568.53	-1849.18	  414.45
     78.4700	  567.00	  565.12	-1828.77	  414.40
     78.5700	  597.00	  562.75	-1796.41	  414.35
     78.6700	  548.00	  561.12	-1843.78	  414.30
     78.7700	  561.00	  560.01	-1829.67	  414.24
     78.8700	  551.00	  559.27	-1838.92	  414.19
     78.9700	  554.00	  558.81	-1835.46	  414.14
     79.0700	  530.00	  558.58	-1859.24	  414.08
     79.1700	  552.00	  558.58	-1837.24	  414.02
     79.2700	  584.00	  558.80	-1805.45	  413.97
     79.3700	  554.00	  559.26	-1835.91	  413.91
     79.4700	  545.00	  559.99	-1845.64	  413.85
     79.5700	  508.00	  561.05	-1883.70	  413.78
     79.6700	  545.00	  562.51	-1848.17	  413.72
     79.7700	  579.00	  564.48	-1816.13	  413.66
     79.8700	  604.00	  567.10	-1793.75	  413.59
     79.9700	  553.00	  570.57	-1848.23	  413.53
     80.0700	  572.00	  575.19	-1833.85	  413.46
     80.1700	  597.00	  581.33	-1814.99	  413.39
     80.2700	  579.00	  589.44	-1841.10	  413.32
     80.3700	  646.00	  600.08	-1784.74	  413.25
     80.4700	  632.00	  613.84	-1812.49	  413.18
     80.5700	  715.00	  631.32	-1746.98	  413.11
     80.6700	  660.00	  653.07	-1823.73	  413.03
     80.7700	  665.00	  679.45	-1845.11	  412.96
     80.8700	  689.00	  710.29	-1851.95	  412.88
     80.9700	  711.00	  745.51	-1865.17	  412.80
     81.0700	  801.00	  783.81	-1813.47	  412.73
     81.1700	  851.00	  823.35	-1803.01	  412.65
     81.2700	  841.00	  861.63	-1851.29	  412.56
     81.3700	  853.00	  895.76	-1873.42	  412.48
     81.4700	  921.00	  923.07	-1832.72	  412.40
     81.5700	  909.00	  941.68	-1863.33	  412.31
     81.6700	  991.00	  950.76	-1790.42	  412.23
     81.7700	  932.00	  950.37	-1849.03	  412.14
     81.8700	  919.00	  941.29	-1852.95	  412.05
     81.9700	  902.00	  924.89	-1853.55	  411.96
     82.0700	  914.00	  902.81	-1819.47	  411.87
     82.1700	  860.00	  876.65	-1847.31	  411.78
     82.2700	  821.00	  847.93	-1857.59	  411.69
     82.3700	  814.00	  818.14	-1834.80	  411.59
     82.4700	  740.00	  788.66	-1879.32	  411.50
     82.5700	  770.00	  760.53	-1821.18	  411.40
     82.6700	  730.00	  734.26	-1834.92	  411.30
     82.7700	  657.00	  709.99	-1883.64	  411.20
     82.8700	  624.00	  687.66	-1894.32	  411.10
     82.9700	  679.00	  667.29	-1818.94	  411.00
     83.0700	  628.00	  649.02	-1851.68	  410.90
     83.1700	  632.00	  633.07	-1831.73	  410.79
     83.2700	  620.00	  619.63	-1830.28	  410.69
     83.3700	  600.00	  608.80	-1839.45	  410.58
     83.4700	  616.00	  600.61	-1815.27	  410.47
     83.5700	  570.00	  595.01	-1855.67	  410.36
     83.6700	  584.00	  591.85	-1838.51	  410.25
     83.7700	  618.00	  590.90	-1803.55	  410.14
     83.8700	  585.00	  591.83	-1837.48	  410.03
     83.9700	  535.00	  594.22	-1889.87	  409.91
     84.0700	  586.00	  597.56	-1842.22	  409.80
     84.1700	  584.00	  601.26	-1847.91	  409.68
     84.2700	  649.00	  604.64	-1786.30	  409.57
     84.3700	  575.00	  606.99	-1862.64	  409.45
     84.4700	  573.00	  607.74	-1865.40	  409.33
     84.5700	  600.00	  606.67	-1837.33	  409.21
     84.6700	  599.00	  603.69	-1835.35	  409.08
     84.7700	  593.00	  599.13	-1836.78	  408.96
     84.8700	  575.00	  593.49	-1849.14	  408.83
     84.9700	  533.00	  587.31	-1884.97	  408.71
     85.0700	  606.00	  581.08	-1805.73	  408.58
     85.1700	  604.00	  575.18	-1801.84	  408.45
     85.2700	  592.00	  569.91	-1808.57	  408.32
     85.3700	  598.00	  565.47	-1798.12	  408.19
     85.4700	  554.00	  561.97	-1838.63	  408.06
     85.5700	  548.00	  559.47	-1842.13	  407.92
     85.6700	  570.00	  557.98	-1818.64	  407.79
     85.7700	  560.00	  557.47	-1828.13	  407.65
     85.8700	  551.00	  557.92	-1837.58	  407.52
     85.9700	  589.00	  559.28	-1800.94	  407.38
     86.0700	  538.00	  561.52	-1854.18	  407.24
     86.1700	  514.00	  564.59	-1881.25	  407.10
     86.2700	  570.00	  568.48	-1829.14	  406.96
     86.3700	  571.00	  573.13	-1832.79	  406.81
     86.4700	  534.00	  578.50	-1875.16	  406.67
     86.5700	  571.00	  584.52	-1844.17	  406.52
     86.6700	  531.00	  591.09	-1890.75	  406.38
     86.7700	  565.00	  598.12	-1863.78	  406.23
     86.8700	  586.00	  605.54	-1850.20	  406.08
     86.9700	  566.00	  613.33	-1877.99	  405.93
     87.0700	  585.00	  621.56	-1867.22	  405.78
     87.1700	  617.00	  630.37	-1844.03	  405.62
     87.2700	  608.00	  639.86	-1862.51	  405.47
     87.3700	  592.00	  649.99	-1888.65	  405.32
     87.4700	  639.00	  660.54	-1852.20	  405.16
     87.5700	  646.00	  671.04	-1855.70	  405.00
     87.6700	  691.00	  680.77	-1820.43	  404.84
     87.7700	  710.00	  688.82	-1809.48	  404.68
     87.8700	  738.00	  694.20	-1786.85	  404.52
     87.9700	  700.00	  696.04	-1826.70	  404.36
     88.0700	  684.00	  693.93	-1840.59	  404.20
     88.1700	  705.00	  687.99	-1813.64	  404.03
     88.2700	  662.00	  678.87	-1847.52	  403.87
     88.3700	  710.00	  667.51	-1788.16	  403.70
     88.4700	  651.00	  654.93	-1834.58	  403.53
     88.5700	  638.00	  642.08	-1834.74	  403.36
     88.6700	  608.00	  629.80	-1852.46	  403.19
     88.7700	  620.00	  618.75	-1829.40	  403.02
     88.8700	  625.00	  608.98	-1814.63	  402.85
     88.9700	  647.00	  601.66	-1785.32	  402.68
     89.0700	  636.00	  596.49	-1791.14	  402.50
     89.1700	  633.00	  593.41	-1791.07	  402.33
     89.2700	  640.00	  592.24	-1782.89	  402.15
     89.3700	  585.00	  592.65	-1838.30	  401.97
     89.4700	  621.00	  594.22	-1803.88	  401.79
     89.5700	  656.00	  596.46	-1771.12	  401.61
     89.6700	  656.00	  598.83	-1773.49	  401.43
     89.7700	  628.00	  600.75	-1803.41	  401.25
     89.8700	  606.00	  601.72	-1826.38	  401.07
     89.9700	  638.00	  601.36	-1794.01	  400.88
     90.0700	  642.00	  599.51	-1788.17	  400.70
     90.1700	  604.00	  596.29	-1822.94	  400.51
     90.2700	  586.00	  591.95	-1836.61	  400.32
     90.3700	  602.00	  586.89	-1815.54	  400.14
     90.4700	  597.00	  581.46	-1815.12	  399.95
     90.5700	  599.00	  576.01	-1807.66	  399.75
     90.6700	  560.00	  570.79	-1841.45	  399.56
     90.7700	  603.00	  566.02	-1793.67	  399.37
     90.8700	  531.00	  561.82	-1861.48	  399.18
     90.9700	  583.00	  558.28	-1805.94	  398.98
     91.0700	  538.00	  555.42	-1848.08	  398.79
     91.1700	  546.00	  553.23	-1837.89	  398.59
     91.2700	  565.00	  551.68	-1817.33	  398.39
     91.3700	  518.00	  550.71	-1863.36	  398.19
     91.4700	  560.00	  550.28	-1820.93	  397.99
     91.5700	  572.00	  550.36	-1809.02	  397.79
     91.6700	  584.00	  550.96	-1797.61	  397.59
     91.7700	  551.00	  552.09	-1831.75	  397.39
     91.8700	  514.00	  553.84	-1870.49	  397.19
     91.9700	  542.00	  556.29	-1844.95	  396.98
     92.0700	  575.00	  559.60	-1815.26	  396.78
     92.1700	  582.00	  563.94	-1812.60	  396.57
     92.2700	  527.00	  569.53	-1873.19	  396.36
     92.3700	  573.00	  576.58	-1834.24	  396.16
     92.4700	  563.00	  585.31	-1852.97	  395.95
     92.5700	  579.00	  595.91	-1847.57	  395.74
     92.6700	  596.00	  608.52	-1843.17	  395.53
     92.7700	  624.00	  623.20	-1829.86	  395.32
     92.8700	  590.00	  639.93	-1880.58	  395.10
     92.9700	  605.00	  658.55	-1884.21	  394.89
     93.0700	  653.00	  678.77	-1856.43	  394.68
     93.1700	  668.00	  700.16	-1862.82	  394.46
     93.2700	  707.00	  722.12	-1845.78	  394.25
     93.3700	  654.00	  743.91	-1920.57	  394.03
     93.4700	  712.00	  764.69	-1883.35	  393.81
     93.5700	  741.00	  783.69	-1873.34	  393.59
     93.6700	  805.00	  800.34	-1826.00	  393.38
     93.7700	  754.00	  814.50	-1891.16	  393.16
     93.8700	  829.00	  826.45	-1828.11	  392.94
     93.9700	  746.00	  836.75	-1921.40	  392.71
     94.0700	  838.00	  846.03	-1838.68	  392.49
     94.1700	  852.00	  854.81	-1833.47	  392.27
     94.2700	  839.00	  863.45	-1855.10	  392.05
     94.3700	  870.00	  871.81	-1832.46	  391.82
     94.4700	  923.00	  880.64	-1788.29	  391.60
     94.5700	  844.00	  889.81	-1876.47	  391.37
     94.6700	  875.00	  899.55	-1855.21	  391.15
     94.7700	  911.00	  910.00	-1829.66	  390.92
     94.8700	  964.00	  921.07	-1787.73	  390.69
     94.9700	  947.00	  932.30	-1815.96	  390.46
     95.0700	  917.00	  942.82	-1856.48	  390.24
     95.1700	  958.00	  951.38	-1824.03	  390.01
     95.2700	  910.00	  956.48	-1877.14	  389.78
     95.3700	 1007.00	  956.67	-1780.33	  389.55
     95.4700	  961.00	  950.88	-1820.54	  389.31
     95.5700	  982.00	  938.73	-1787.39	  389.08
     95.6700	  896.00	  920.72	-1855.37	  388.85
     95.7700	  905.00	  898.05	-1823.70	  388.62
     95.8700	  861.00	  872.39	-1842.05	  388.39
     95.9700	  824.00	  845.62	-1852.27	  388.15
     96.0700	  785.00	  819.57	-1865.23	  387.92
     96.1700	  823.00	  795.99	-1803.65	  387.68
     96.2700	  783.00	  776.49	-1824.14	  387.45
     96.3700	  772.00	  762.48	-1821.13	  387.21
     96.4700	  808.00	  755.21	-1777.87	  386.97
     96.5700	  749.00	  755.74	-1837.39	  386.74
     96.6700	  811.00	  764.93	-1784.58	  386.50
     96.7700	  805.00	  783.44	-1809.10	  386.26
     96.8700	  822.00	  811.72	-1820.37	  386.03
     96.9700	  854.00	  849.90	-1826.56	  385.79
     97.0700	  912.00	  897.84	-1816.49	  385.55
     97.1700	  900.00	  954.97	-1885.63	  385.31
     97.2700	 1012.00	 1020.32	-1838.97	  385.07
     97.3700	 1093.00	 1092.35	-1830.01	  384.83
     97.4700	 1175.00	 1168.98	-1824.64	  384.59
     97.5700	 1229.00	 1247.50	-1849.15	  384.35
     97.6700	 1336.00	 1324.61	-1819.26	  384.11
     97.7700	 1386.00	 1396.44	-1841.09	  383.87
     97.8700	 1463.00	 1458.70	-1826.36	  383.63
     97.9700	 1484.00	 1507.09	-1853.75	  383.39
     98.0700	 1513.00	 1537.88	-1855.54	  383.15
     98.1700	 1530.00	 1548.67	-1849.32	  382.90
     98.2700	 1491.00	 1538.91	-1878.57	  382.66
     98.3700	 1514.00	 1510.05	-1826.70	  382.42
     98.4700	 1524.00	 1465.07	-1771.73	  382.18
     98.5700	 1412.00	 1407.91	-1826.56	  381.93
     98.6700	 1302.00	 1342.72	-1871.38	  381.69
     98.7700	 1264.00	 1273.56	-1840.21	  381.45
     98.8700	 1163.00	 1204.12	-1871.77	  381.21
     98.9700	 1130.00	 1137.62	-1838.27	  380.96
     99.0700	 1054.00	 1076.81	-1853.47	  380.72
     99.1700	 1020.00	 1023.96	-1834.62	  380.48
     99.2700	  955.00	  980.89	-1856.55	  380.23
     99.3700	  915.00	  949.07	-1864.73	  379.99
     99.4700	  943.00	  929.59	-1817.25	  379.75
     99.5700	  928.00	  923.24	-1825.90	  379.51
     99.6700	  974.00	  930.49	-1787.14	  379.26
     99.7700	  949.00	  951.50	-1833.16	  379.02
     99.8700	  998.00	  986.22	-1818.88	  378.78
     99.9700	 1062.00	 1034.25	-1802.90	  378.53
    100.0700	 1114.00	 1094.91	-1811.56	  378.29
    100.1700	 1141.00	 1167.14	-1856.80	  378.05
    100.2700	 1232.00	 1249.46	-1848.12	  377.81
    100.3700	 1365.00	 1339.96	-1805.62	  377.56
    100.4700	 1442.00	 1436.14	-1824.79	  377.32
    100.5700	 1612.00	 1535.03	-1753.69	  377.08
    100.6700	 1637.00	 1633.09	-1826.75	  376.84
    100.7700	 1768.00	 1726.65	-1789.30	  376.60
    100.8700	 1870.00	 1811.95	-1772.61	  376.36
    100.9700	 1952.00	 1885.71	-1764.37	  376.12
    101.0700	 1981.00	 1945.47	-1795.13	  375.88
    101.1700	 1951.00	 1989.62	-1869.28	  375.64
    101.2700	 2022.00	 2017.21	-1825.87	  375.40
    101.3700	 2092.00	 2027.74	-1766.39	  375.16
    101.4700	 2034.00	 2020.92	-1817.58	  374.92
    101.5700	 1992.00	 1996.90	-1835.55	  374.68
    101.6700	 1973.00	 1956.54	-1814.19	  374.44
    101.7700	 1938.00	 1901.77	-1794.42	  374.20
    101.8700	 1897.00	 1835.57	-1769.23	  373.97
    101.9700	 1811.00	 1761.76	-1781.42	  373.73
    102.0700	 1719.00	 1684.39	-1796.05	  373.49
    102.1700	 1633.00	 1607.33	-1804.98	  373.26
    102.2700	 1494.00	 1533.81	-1870.46	  373.02
    102.3700	 1465.00	 1466.25	-1831.91	  372.79
    102.4700	 1407.00	 1406.27	-1829.93	  372.55
    102.5700	 1315.00	 1354.61	-1870.27	  372.32
    102.6700	 1312.00	 1311.29	-1829.95	  372.09
    102.7700	 1227.00	 1275.63	-1879.29	  371.86
    102.8700	 1213.00	 1246.29	-1863.95	  371.62
    102.9700	 1198.00	 1221.51	-1854.17	  371.39
    103.0700	 1125.00	 1199.18	-1904.83	  371.16
    103.1700	 1199.00	 1177.12	-1808.78	  370.93
    103.2700	 1152.00	 1153.40	-1832.05	  370.71
    103.3700	 1120.00	 1126.54	-1837.20	  370.48
    103.4700	 1069.00	 1095.81	-1857.47	  370.25
    103.5700	 1001.00	 1061.19	-1890.84	  370.03
    103.6700	 1035.00	 1023.21	-1818.86	  369.80
    103.7700	  948.00	  982.81	-1865.47	  369.58
    103.8700	 1010.00	  941.06	-1761.72	  369.35
    103.9700	  978.00	  899.06	-1751.71	  369.13
    104.0700	  882.00	  857.78	-1806.44	  368.91
    104.1700	  850.00	  818.10	-1798.75	  368.69
    104.2700	  831.00	  780.71	-1780.37	  368.47
    104.3700	  814.00	  746.17	-1762.83	  368.25
    104.4700	  776.00	  714.85	-1769.50	  368.03
    104.5700	  717.00	  686.95	-1800.61	  367.82
    104.6700	  678.00	  662.53	-1815.19	  367.60
    104.7700	  653.00	  641.53	-1819.19	  367.39
    104.8700	  654.00	  623.77	-1800.43	  367.18
    104.9700	  612.00	  609.01	-1827.67	  366.97
    105.0700	  660.00	  596.96	-1767.62	  366.75
    105.1700	  606.00	  587.29	-1811.95	  366.55
    105.2700	  613.00	  579.71	-1797.37	  366.34
    105.3700	  612.00	  573.92	-1792.58	  366.13
    105.4700	  619.00	  569.68	-1781.33	  365.93
    105.5700	  563.00	  566.76	-1834.41	  365.72
    105.6700	  617.00	  565.00	-1778.66	  365.52
    105.7700	  584.00	  564.25	-1810.91	  365.32
    105.8700	  577.00	  564.50	-1818.15	  365.12
    105.9700	  614.00	  565.67	-1782.33	  364.92
    106.0700	  599.00	  567.76	-1799.42	  364.73
    106.1700	  598.00	  570.79	-1803.45	  364.53
    106.2700	  599.00	  574.81	-1806.46	  364.34
    106.3700	  608.00	  579.84	-1802.50	  364.14
    106.4700	  553.00	  586.01	-1863.67	  363.95
    106.5700	  636.00	  593.34	-1787.99	  363.77
    106.6700	  650.00	  601.85	-1782.51	  363.58
    106.7700	  648.00	  611.55	-1794.20	  363.39
    106.8700	  641.00	  622.38	-1812.04	  363.21
    106.9700	  631.00	  634.25	-1833.91	  363.03
    107.0700	  651.00	  646.99	-1826.65	  362.85
    107.1700	  662.00	  660.39	-1829.05	  362.67
    107.2700	  656.00	  674.15	-1848.81	  362.49
    107.3700	  663.00	  687.94	-1855.59	  362.32
    107.4700	  692.00	  701.35	-1840.00	  362.15
    107.5700	  696.00	  713.94	-1848.60	  361.98
    107.6700	  704.00	  725.27	-1851.93	  361.81
    107.7700	  705.00	  734.90	-1860.56	  361.64
    107.8700	  678.00	  742.49	-1895.14	  361.47
    107.9700	  673.00	  747.79	-1905.44	  361.31
    108.0700	  718.00	  750.85	-1863.51	  361.15
    108.1700	  716.00	  751.83	-1866.49	  360.99
    108.2700	  713.00	  751.08	-1868.73	  360.84
    108.3700	  710.00	  749.05	-1869.71	  360.68
    108.4700	  681.00	  746.27	-1895.93	  360.53
    108.5700	  687.00	  743.20	-1886.85	  360.38
    108.6700	  734.00	  740.25	-1836.91	  360.23
    108.7700	  725.00	  737.75	-1843.41	  360.09
    108.8700	  678.00	  735.92	-1888.57	  359.94
    108.9700	  715.00	  734.83	-1850.49	  359.80
    109.0700	  744.00	  734.47	-1821.13	  359.67
    109.1700	  690.00	  734.70	-1875.35	  359.53
    109.2700	  733.00	  735.26	-1832.92	  359.40
    109.3700	  708.00	  735.83	-1858.49	  359.27
    109.4700	  747.00	  736.00	-1819.66	  359.14
    109.5700	  742.00	  735.34	-1824.00	  359.01
    109.6700	  743.00	  733.46	-1821.12	  358.89
    109.7700	  737.00	  730.06	-1823.72	  358.77
    109.8700	  720.00	  724.97	-1835.63	  358.65
    109.9700	  719.00	  718.17	-1829.83	  358.54
    110.0700	  690.00	  709.80	-1850.45	  358.42
    110.1700	  681.00	  700.10	-1849.76	  358.31
    110.2700	  686.00	  689.40	-1834.05	  358.21
    110.3700	  638.00	  678.03	-1870.69	  358.10
    110.4700	  681.00	  666.34	-1816.00	  358.00
    110.5700	  654.00	  654.63	-1831.29	  357.90
    110.6700	  655.00	  643.21	-1818.87	  357.81
    110.7700	  665.00	  632.30	-1797.96	  357.72
    110.8700	  651.00	  622.11	-1801.76	  357.63
    110.9700	  587.00	  612.78	-1856.43	  357.54
    111.0700	  594.00	  604.42	-1841.08	  357.46
    111.1700	  560.00	  597.12	-1867.78	  357.38
    111.2700	  616.00	  590.91	-1805.56	  357.30
    111.3700	  578.00	  585.77	-1838.43	  357.23
    111.4700	  593.00	  581.68	-1819.34	  357.16
    111.5700	  592.00	  578.59	-1817.24	  357.09
    111.6700	  617.00	  576.42	-1790.07	  357.03
    111.7700	  592.00	  575.09	-1813.74	  356.97
    111.8700	  562.00	  574.50	-1843.16	  356.91
    111.9700	  591.00	  574.57	-1814.22	  356.86
    112.0700	  575.00	  575.19	-1830.84	  356.81
    112.1700	  561.00	  576.28	-1845.93	  356.76
    112.2700	  593.00	  577.75	-1815.40	  356.72
    112.3700	  548.00	  579.53	-1862.18	  356.68
    112.4700	  574.00	  581.55	-1838.20	  356.64
    112.5700	  548.00	  583.76	-1866.42	  356.61
    112.6700	  599.00	  586.14	-1817.79	  356.58
    112.7700	  544.00	  588.65	-1875.31	  356.56
    112.8700	  632.00	  591.30	-1789.96	  356.54
    112.9700	  600.00	  594.12	-1824.78	  356.52
    113.0700	  536.00	  597.13	-1891.79	  356.51
    113.1700	  601.00	  600.39	-1830.05	  356.50
    113.2700	  640.00	  603.95	-1794.61	  356.49
    113.3700	  538.00	  607.90	-1900.56	  356.49
    113.4700	  610.00	  612.33	-1832.98	  356.50
    113.5700	  577.00	  617.34	-1871.00	  356.50
    113.6700	  613.00	  623.09	-1840.75	  356.51
    113.7700	  604.00	  629.75	-1856.40	  356.53
    113.8700	  623.00	  637.54	-1845.20	  356.55
    113.9700	  612.00	  646.75	-1865.41	  356.57
    114.0700	  617.00	  657.72	-1871.38	  356.60
    114.1700	  712.00	  670.92	-1789.57	  356.63
    114.2700	  695.00	  686.90	-1822.56	  356.67
    114.3700	  702.00	  706.35	-1835.01	  356.71
    114.4700	  686.00	  730.13	-1874.79	  356.76
    114.5700	  754.00	  759.25	-1835.90	  356.81
    114.6700	  788.00	  794.93	-1837.58	  356.86
    114.7700	  796.00	  838.60	-1873.26	  356.92
    114.8700	  947.00	  891.90	-1775.55	  356.98
    114.9700	  952.00	  956.66	-1835.32	  357.05
    115.0700	 1051.00	 1034.93	-1814.58	  357.12
    115.1700	 1156.00	 1128.88	-1803.54	  357.20
    115.2700	 1240.00	 1240.85	-1831.51	  357.29
    115.3700	 1393.00	 1373.14	-1810.80	  357.37
    115.4700	 1678.00	 1528.01	-1680.67	  357.46
    115.5700	 1822.00	 1707.52	-1716.18	  357.56
    115.6700	 2110.00	 1913.47	-1634.12	  357.66
    115.7700	 2258.00	 2147.20	-1719.86	  357.77
    115.8700	 2457.00	 2409.42	-1783.07	  357.88
    115.9700	 2852.00	 2700.09	-1678.75	  358.00
    116.0700	 3030.00	 3018.24	-1818.90	  358.12
    116.1700	 3447.00	 3361.99	-1745.64	  358.25
    116.2700	 3803.00	 3728.35	-1756.01	  358.39
    116.3700	 3996.00	 4113.05	-1947.70	  358.52
    116.4700	 4549.00	 4510.72	-1792.37	  358.67
    116.5700	 4911.00	 4914.66	-1834.32	  358.82
    116.6700	 5310.00	 5317.18	-1837.84	  358.97
    116.7700	 5563.00	 5709.48	-1977.14	  359.13
    116.8700	 6012.00	 6081.73	-1900.39	  359.30
    116.9700	 6276.00	 6423.47	-1978.13	  359.47
    117.0700	 6737.00	 6723.90	-1817.56	  359.65
    117.1700	 7058.00	 6972.55	-1745.21	  359.83
    117.2700	 7046.00	 7159.91	-1944.57	  360.02
    117.3700	 7247.00	 7278.26	-1861.92	  360.21
    117.4700	 7167.00	 7322.62	-1986.28	  360.41
    117.5700	 7226.00	 7291.36	-1896.01	  360.62
    117.6700	 7079.00	 7186.34	-1938.00	  360.83
    117.7700	 6880.00	 7012.70	-1963.36	  361.05
    117.8700	 6723.00	 6778.22	-1885.87	  361.27
    117.9700	 6390.00	 6492.43	-1933.08	  361.50
    118.0700	 6101.00	 6165.81	-1895.47	  361.74
    118.1700	 5721.00	 5808.93	-1918.59	  361.98
    118.2700	 5267.00	 5431.97	-1995.62	  362.23
    118.3700	 4947.00	 5044.47	-1928.13	  362.48
    118.4700	 4691.00	 4655.00	-1794.65	  362.74
    118.5700	 4462.00	 4271.05	-1639.71	  363.01
    118.6700	 4003.00	 3898.84	-1726.49	  363.29
    118.7700	 3763.00	 3543.40	-1611.05	  363.57
    118.8700	 3326.00	 3208.69	-1713.35	  363.85
    118.9700	 2981.00	 2897.49	-1747.14	  364.15
    119.0700	 2739.00	 2611.58	-1703.23	  364.45
    119.1700	 2408.00	 2351.74	-1774.39	  364.75
    119.2700	 2120.00	 2117.98	-1828.64	  365.07
    119.3700	 1986.00	 1909.73	-1754.39	  365.39
    119.4700	 1700.00	 1725.86	-1856.52	  365.72
    119.5700	 1635.00	 1564.88	-1760.53	  366.05
    119.6700	 1520.00	 1424.95	-1735.61	  366.39
    119.7700	 1330.00	 1304.12	-1804.78	  366.74
    119.8700	 1228.00	 1200.38	-1803.04	  367.10
    119.9700	 1147.00	 1111.74	-1795.39	  367.46
    120.0700	 1128.00	 1036.28	-1738.93	  367.83
    120.1700	  977.00	  972.19	-1825.84	  368.21
    120.2700	  981.00	  917.85	-1767.50	  368.59
    120.3700	  933.00	  871.80	-1769.46	  368.98
    120.4700	  815.00	  832.79	-1848.45	  369.38
    120.5700	  827.00	  799.72	-1803.38	  369.79
    120.6700	  838.00	  771.66	-1764.32	  370.20
    120.7700	  787.00	  747.83	-1791.49	  370.62
    120.8700	  707.00	  727.60	-1851.25	  371.05
    120.9700	  716.00	  710.42	-1825.08	  371.49
    121.0700	  680.00	  695.88	-1846.53	  371.93
    121.1700	  697.00	  683.60	-1817.26	  372.39
    121.2700	  618.00	  673.31	-1885.96	  372.85
    121.3700	  675.00	  664.76	-1820.41	  373.32
    121.4700	  665.00	  657.76	-1823.42	  373.79
    121.5700	  635.00	  652.16	-1847.82	  374.28
    121.6700	  674.00	  647.82	-1804.48	  374.77
    121.7700	  634.00	  644.64	-1841.29	  375.27
    121.8700	  633.00	  642.51	-1840.16	  375.78
    121.9700	  604.00	  641.35	-1868.01	  376.30
    122.0700	  651.00	  641.10	-1820.75	  376.82
    122.1700	  683.00	  641.67	-1789.33	  377.36
    122.2700	  621.00	  643.01	-1852.67	  377.90
    122.3700	  578.00	  645.04	-1897.70	  378.45
    122.4700	  620.00	  647.70	-1858.36	  379.01
    122.5700	  666.00	  650.92	-1815.57	  379.58
    122.6700	  658.00	  654.60	-1827.26	  380.15
    122.7700	  672.00	  658.68	-1817.34	  380.74
    122.8700	  651.00	  663.07	-1842.72	  381.33
    122.9700	  660.00	  667.66	-1838.31	  381.94
    123.0700	  647.00	  672.35	-1856.01	  382.55
    123.1700	  667.00	  677.05	-1840.70	  383.17
    123.2700	  651.00	  681.63	-1861.29	  383.80
    123.3700	  720.00	  685.99	-1796.65	  384.44
    123.4700	  694.00	  690.02	-1826.67	  385.09
    123.5700	  659.00	  693.62	-1865.27	  385.75
    123.6700	  687.00	  696.71	-1840.36	  386.42
    123.7700	  730.00	  699.22	-1799.88	  387.09
    123.8700	  727.00	  701.13	-1804.79	  387.78
    123.9700	  692.00	  702.43	-1841.08	  388.47
    124.0700	  745.00	  703.12	-1788.78	  389.18
    124.1700	  707.00	  703.26	-1826.92	  389.89
    124.2700	  718.00	  702.90	-1815.56	  390.62
    124.3700	  679.00	  702.10	-1853.76	  391.35
    124.4700	  728.00	  700.91	-1803.56	  392.10
    124.5700	  662.00	  699.45	-1868.10	  392.85
    124.6700	  695.00	  697.75	-1833.41	  393.61
    124.7700	  641.00	  695.88	-1885.54	  394.39
    124.8700	  642.00	  693.89	-1882.55	  395.17
    124.9700	  695.00	  514.80	-1650.45	  395.97
    125.0700	  697.00	  515.60	-1830.66	  396.77
    125.1700	  654.00	  516.42	-1830.66	  397.59
    125.2700	  677.00	  517.24	-1830.66	  398.41
    125.3700	  659.00	  518.08	-1830.66	  399.25
    125.4700	  713.00	  518.92	-1830.66	  400.09
    125.5700	  630.00	  519.78	-1830.66	  400.95
    125.6700	  639.00	  520.65	-1830.66	  401.82
    125.7700	  656.00	  521.53	-1830.66	  402.69
    125.8700	  608.00	  522.41	-1830.66	  403.58
    125.9700	  596.00	  523.31	-1830.66	  404.48
    126.0700	  674.00	  524.22	-1830.66	  405.39
    126.1700	  632.00	  525.15	-1830.66	  406.31
    126.2700	  628.00	  526.08	-1830.66	  407.25
    126.3700	  635.00	  527.02	-1830.66	  408.19
    126.4700	  649.00	  527.98	-1830.66	  409.14
    126.5700	  619.00	  528.94	-1830.66	  410.11
    126.6700	  632.00	  529.92	-1830.66	  411.09
    126.7700	  572.00	  530.91	-1830.66	  412.08
    126.8700	  614.00	  531.91	-1830.66	  413.08
    126.9700	  599.00	  532.92	-1830.66	  414.09
    127.0700	  592.00	  533.94	-1830.66	  415.11
    127.1700	  589.00	  534.98	-1830.66	  416.15
    127.2700	  585.00	  536.02	-1830.66	  417.19
    127.3700	  581.00	  537.08	-1830.66	  418.25
    127.4700	  610.00	  538.15	-1830.66	  419.32
    127.5700	  578.00	  539.24	-1830.66	  420.40
    127.6700	  574.00	  540.33	-1830.66	  421.50
    127.7700	  578.00	  541.44	-1830.66	  422.61
    127.8700	  646.00	  542.56	-1830.66	  423.72
    127.9700	  625.00	  543.69	-1830.66	  424.85
    128.0700	  647.00	  544.83	-1830.66	  426.00
    128.1700	  595.00	  545.98	-1830.66	  427.15
    128.2700	  663.00	  547.15	-1830.66	  428.32
    128.3700	  622.00	  548.33	-1830.66	  429.50
    128.4700	  666.00	  549.53	-1830.66	  430.70
    128.5700	    0.00	  550.73	-1830.66	  431.90
    128.6700	    0.00	  551.95	-1830.66	  433.12
     12.3837	        	        	        	        	       0	(  0  0  2)	  0  1
     12.3837	        	        	        	        	    -457	(  0  0  2)	  0  1
     25.0264	        	        	        	        	       0	(  0  0  4)	  0  1
     25.0264	        	        	        	        	    -457	(  0  0  4)	  0  1
     28.4744	        	        	        	        	       0	(  1  0  0)	  0  1
     28.4744	        	        	        	        	    -457	(  1  0  0)	  0  1
     29.1753	        	        	        	        	       0	(  1  0  1)	  0  1
     29.1753	        	        	        	        	    -457	(  1  0  1)	  0  1
     31.1920	        	        	        	        	       0	(  1  0  2)	  0  1
     31.1920	        	        	        	        	    -457	(  1  0  2)	  0  1
     34.3166	        	        	        	        	       0	(  1  0  3)	  0  1
     34.3166	        	        	        	        	    -457	(  1  0  3)	  0  1
     37.9897	        	        	        	        	       0	(  0  0  6)	  0  1
     37.9897	        	        	        	        	    -457	(  0  0  6)	  0  1
     38.3148	        	        	        	        	       0	(  1  0  4)	  0  1
     38.3148	        	        	        	        	    -457	(  1  0  4)	  0  1
     42.9899	        	        	        	        	       0	(  1  0  5)	  0  1
     42.9899	        	        	        	        	    -457	(  1  0  5)	  0  1
     48.2026	        	        	        	        	       0	(  1  0  6)	  0  1
     48.2026	        	        	        	        	    -457	(  1  0  6)	  0  1
     50.5168	        	        	        	        	       0	(  1  1  0)	  0  1
     50.5168	        	        	        	        	    -457	(  1  1  0)	  0  1
     51.4835	        	        	        	        	       0	(  0  0  8)	  0  1
     51.4835	        	        	        	        	    -457	(  0  0  8)	  0  1
     52.2500	        	        	        	        	       0	(  1  1  2)	  0  1
     52.2500	        	        	        	        	    -457	(  1  1  2)	  0  1
     53.8653	        	        	        	        	       0	(  1  0  7)	  0  1
     53.8653	        	        	        	        	    -457	(  1  0  7)	  0  1
     57.2279	        	        	        	        	       0	(  1  1  4)	  0  1
     57.2279	        	        	        	        	    -457	(  1  1  4)	  0  1
     59.0595	        	        	        	        	       0	(  2  0  0)	  0  1
     59.0595	        	        	        	        	    -457	(  2  0  0)	  0  1
     59.4536	        	        	        	        	       0	(  2  0  1)	  0  1
     59.4536	        	        	        	        	    -457	(  2  0  1)	  0  1
     59.9319	        	        	        	        	       0	(  1  0  8)	  0  1
     59.9319	        	        	        	        	    -457	(  1  0  8)	  0  1
     60.6264	        	        	        	        	       0	(  2  0  2)	  0  1
     60.6264	        	        	        	        	    -457	(  2  0  2)	  0  1
     62.5520	        	        	        	        	       0	(  2  0  3)	  0  1
     62.5520	        	        	        	        	    -457	(  2  0  3)	  0  1
     64.9715	        	        	        	        	       0	(  1  1  6)	  0  1
     64.9715	        	        	        	        	    -457	(  1  1  6)	  0  1
     65.1933	        	        	        	        	       0	(  2  0  4)	  0  1
     65.1933	        	        	        	        	    -457	(  2  0  4)	  0  1
     65.7985	        	        	        	        	       0	(  0  0 10)	  0  1
     65.7985	        	        	        	        	    -457	(  0  0 10)	  0  1
     66.3890	        	        	        	        	       0	(  1  0  9)	  0  1
     66.3890	        	        	        	        	    -457	(  1  0  9)	  0  1
     68.5098	        	        	        	        	       0	(  2  0  5)	  0  1
     68.5098	        	        	        	        	    -457	(  2  0  5)	  0  1
     72.4648	        	        	        	        	       0	(  2  0  6)	  0  1
     72.4648	        	        	        	        	    -457	(  2  0  6)	  0  1
     73.2517	        	        	        	        	       0	(  1  0 10)	  0  1
     73.2517	        	        	        	        	    -457	(  1  0 10)	  0  1
     75.0790	        	        	        	        	       0	(  1  1  8)	  0  1
     75.0790	        	        	        	        	    -457	(  1  1  8)	  0  1
     77.0323	        	        	        	        	       0	(  2  0  7)	  0  1
     77.0323	        	        	        	        	    -457	(  2  0  7)	  0  1
     80.5637	        	        	        	        	       0	(  1  0 11)	  0  1
     80.5637	        	        	        	        	    -457	(  1  0 11)	  0  1
     81.3896	        	        	        	        	       0	(  0  0 12)	  0  1
     81.3896	        	        	        	        	    -457	(  0  0 12)	  0  1
     81.4429	        	        	        	        	       0	(  2  1  0)	  0  1
     81.4429	        	        	        	        	    -457	(  2  1  0)	  0  1
     81.7855	        	        	        	        	       0	(  2  1  1)	  0  1
     81.7855	        	        	        	        	    -457	(  2  1  1)	  0  1
     82.2028	        	        	        	        	       0	(  2  0  8)	  0  1
     82.2028	        	        	        	        	    -457	(  2  0  8)	  0  1
     82.8117	        	        	        	        	       0	(  2  1  2)	  0  1
     82.8117	        	        	        	        	    -457	(  2  1  2)	  0  1
     84.5171	        	        	        	        	       0	(  2  1  3)	  0  1
     84.5171	        	        	        	        	    -457	(  2  1  3)	  0  1
     86.8970	        	        	        	        	       0	(  2  1  4)	  0  1
     86.8970	        	        	        	        	    -457	(  2  1  4)	  0  1
     87.4487	        	        	        	        	       0	(  1  1 10)	  0  1
     87.4487	        	        	        	        	    -457	(  1  1 10)	  0  1
     87.9895	        	        	        	        	       0	(  2  0  9)	  0  1
     87.9895	        	        	        	        	    -457	(  2  0  9)	  0  1
     88.4030	        	        	        	        	       0	(  1  0 12)	  0  1
     88.4030	        	        	        	        	    -457	(  1  0 12)	  0  1
     89.9499	        	        	        	        	       0	(  2  1  5)	  0  1
     89.9499	        	        	        	        	    -457	(  2  1  5)	  0  1
     93.6822	        	        	        	        	       0	(  2  1  6)	  0  1
     93.6822	        	        	        	        	    -457	(  2  1  6)	  0  1
     94.4366	        	        	        	        	       0	(  2  0 10)	  0  1
     94.4366	        	        	        	        	    -457	(  2  0 10)	  0  1
     95.4469	        	        	        	        	       0	(  3  0  0)	  0  1
     95.4469	        	        	        	        	    -457	(  3  0  0)	  0  1
     95.7877	        	        	        	        	       0	(  3  0  1)	  0  1
     95.7877	        	        	        	        	    -457	(  3  0  1)	  0  1
     96.8113	        	        	        	        	       0	(  3  0  2)	  0  1
     96.8113	        	        	        	        	    -457	(  3  0  2)	  0  1
     96.8970	        	        	        	        	       0	(  1  0 13)	  0  1
     96.8970	        	        	        	        	    -457	(  1  0 13)	  0  1
     98.1154	        	        	        	        	       0	(  2  1  7)	  0  1
     98.1154	        	        	        	        	    -457	(  2  1  7)	  0  1
     98.5223	        	        	        	        	       0	(  3  0  3)	  0  1
     98.5223	        	        	        	        	    -457	(  3  0  3)	  0  1
     99.0911	        	        	        	        	       0	(  0  0 14)	  0  1
     99.0911	        	        	        	        	    -457	(  0  0 14)	  0  1
    100.9313	        	        	        	        	       0	(  3  0  4)	  0  1
    100.9313	        	        	        	        	    -457	(  3  0  4)	  0  1
    101.6341	        	        	        	        	       0	(  2  0 11)	  0  1
    101.6341	        	        	        	        	    -457	(  2  0 11)	  0  1
    102.4687	        	        	        	        	       0	(  1  1 12)	  0  1
    102.4687	        	        	        	        	    -457	(  1  1 12)	  0  1
    103.2949	        	        	        	        	       0	(  2  1  8)	  0  1
    103.2949	        	        	        	        	    -457	(  2  1  8)	  0  1
    104.0585	        	        	        	        	       0	(  3  0  5)	  0  1
    104.0585	        	        	        	        	    -457	(  3  0  5)	  0  1
    106.2556	        	        	        	        	       0	(  1  0 14)	  0  1
    106.2556	        	        	        	        	    -457	(  1  0 14)	  0  1
    107.9413	        	        	        	        	       0	(  3  0  6)	  0  1
    107.9413	        	        	        	        	    -457	(  3  0  6)	  0  1
    109.3063	        	        	        	        	       0	(  2  1  9)	  0  1
    109.3063	        	        	        	        	    -457	(  2  1  9)	  0  1
    109.7452	        	        	        	        	       0	(  2  0 12)	  0  1
    109.7452	        	        	        	        	    -457	(  2  0 12)	  0  1
    112.6453	        	        	        	        	       0	(  3  0  7)	  0  1
    112.6453	        	        	        	        	    -457	(  3  0  7)	  0  1
    116.3046	        	        	        	        	       0	(  2  1 10)	  0  1
    116.3046	        	        	        	        	    -457	(  2  1 10)	  0  1
    116.8504	        	        	        	        	       0	(  1  0 15)	  0  1
    116.8504	        	        	        	        	    -457	(  1  0 15)	  0  1
    117.4339	        	        	        	        	       0	(  2  2  0)	  0  1
    117.4339	        	        	        	        	    -457	(  2  2  0)	  0  1
    118.2857	        	        	        	        	       0	(  3  0  8)	  0  1
    118.2857	        	        	        	        	    -457	(  3  0  8)	  0  1
    118.9744	        	        	        	        	       0	(  2  2  2)	  0  1
    118.9744	        	        	        	        	    -457	(  2  2  2)	  0  1
    119.0718	        	        	        	        	       0	(  2  0 13)	  0  1
    119.0718	        	        	        	        	    -457	(  2  0 13)	  0  1
    120.8844	        	        	        	        	       0	(  0  0 16)	  0  1
    120.8844	        	        	        	        	    -457	(  0  0 16)	  0  1
    121.5914	        	        	        	        	       0	(  1  1 14)	  0  1
    121.5914	        	        	        	        	    -457	(  1  1 14)	  0  1
    123.7460	        	        	        	        	       0	(  2  2  4)	  0  1
    123.7460	        	        	        	        	    -457	(  2  2  4)	  0  1
    124.5796	        	        	        	        	       0	(  2  1 11)	  0  1
    124.5796	        	        	        	        	    -457	(  2  1 11)	  0  1
    125.0706	        	        	        	        	       0	(  3  0  9)	  0  1
    125.0706	        	        	        	        	    -457	(  3  0  9)	  0  1
    125.6428	        	        	        	        	       0	(  3  1  0)	  0  1
    125.6428	        	        	        	        	    -457	(  3  1  0)	  0  1
    126.0617	        	        	        	        	       0	(  3  1  1)	  0  1
    126.0617	        	        	        	        	    -457	(  3  1  1)	  0  1
    127.3321	        	        	        	        	       0	(  3  1  2)	  0  1
    127.3321	        	        	        	        	    -457	(  3  1  2)	  0  1
    129.4448	        	        	        	        	       0	(  1  0 16)	  0  1
    129.4448	        	        	        	        	    -457	(  1  0 16)	  0  1
    129.4991	        	        	        	        	       0	(  3  1  3)	  0  1
    129.4991	        	        	        	        	    -457	(  3  1  3)	  0  1
    130.2324	        	        	        	        	       0	(  2  0 14)	  0  1
    130.2324	        	        	        	        	    -457	(  2  0 14)	  0  1
    132.3795	        	        	        	        	       0	(  2  2  6)	  0  1
    132.3795	        	        	        	        	    -457	(  2  2  6)	  0  1
    132.6531	        	        	        	        	       0	(  3  1  4)	  0  1
    132.6531	        	        	        	        	    -457	(  3  1  4)	  0  1
    133.4084	        	        	        	        	       0	(  3  0 10)	  0  1
    133.4084	        	        	        	        	    -457	(  3  0 10)	  0  1
    134.7383	        	        	        	        	       0	(  2  1 12)	  0  1
    134.7383	        	        	        	        	    -457	(  2  1 12)	  0  1
    136.9632	        	        	        	        	       0	(  3  1  5)	  0  1
    136.9632	        	        	        	        	    -457	(  3  1  5)	  0  1
    142.7645	        	        	        	        	       0	(  3  1  6)	  0  1
    142.7645	        	        	        	        	    -457	(  3  1  6)	  0  1
    144.2655	        	        	        	        	       0	(  3  0 11)	  0  1
    144.2655	        	        	        	        	    -457	(  3  0 11)	  0  1
    144.8706	        	        	        	        	       0	(  2  0 15)	  0  1
    144.8706	        	        	        	        	    -457	(  2  0 15)	  0  1
    146.2039	        	        	        	        	       0	(  1  0 17)	  0  1
    146.2039	        	        	        	        	    -457	(  1  0 17)	  0  1
    147.1508	        	        	        	        	       0	(  2  2  8)	  0  1
    147.1508	        	        	        	        	    -457	(  2  2  8)	  0  1
    148.4475	        	        	        	        	       0	(  2  1 13)	  0  1
    148.4475	        	        	        	        	    -457	(  2  1 13)	  0  1
    150.8451	        	        	        	        	       0	(  3  1  7)	  0  1
    150.8451	        	        	        	        	    -457	(  3  1  7)	  0  1
    151.5969	        	        	        	        	       0	(  1  1 16)	  0  1
    151.5969	        	        	        	        	    -457	(  1  1 16)	  0  1
    156.4293	        	        	        	        	       0	(  0  0 18)	  0  1
    156.4293	        	        	        	        	    -457	(  0  0 18)	  0  1
    161.5026	        	        	        	        	       0	(  3  0 12)	  0  1
    161.5026	        	        	        	        	    -457	(  3  0 12)	  0  1
    161.6704	        	        	        	        	       0	(  4  0  0)	  0  1
    161.6704	        	        	        	        	    -457	(  4  0  0)	  0  1
    162.7878	        	        	        	        	       0	(  4  0  1)	  0  1
    162.7878	        	        	        	        	    -457	(  4  0  1)	  0  1
    164.2543	        	        	        	        	       0	(  3  1  8)	  0  1
    164.2543	        	        	        	        	    -457	(  3  1  8)	  0  1
    166.6782	        	        	        	        	       0	(  4  0  2)	  0  1
    166.6782	        	        	        	        	    -457	(  4  0  2)	  0  1
