MSG Master    CELL:    5.91904   5.91904  23.27474   90.0000   90.0000  120.0000   SPGR: P 63/m m c             TEMP:   1074.85
  1   1280     2.52000     0.00000    -0.12632     0.00000     0.00000    0
    99     0     2
       0.00000      10.00000
     125.00000     130.00000
 2Theta	Yobs	Ycal	Yobs-Ycal	Backg	Posr	(hkl)	K
      0.7700	    1.00	  529.79	-1743.75	  412.22
      0.8700	    0.00	  530.70	-1743.75	  413.14
      0.9700	   32.00	  531.60	-1743.75	  414.04
      1.0700	   46.00	  532.49	-1743.75	  414.92
      1.1700	   43.00	  533.36	-1743.75	  415.80
      1.2700	   43.00	  534.22	-1743.75	  416.66
      1.3700	   42.00	  535.07	-1743.75	  417.51
      1.4700	  102.00	  535.91	-1743.75	  418.35
      1.5700	  283.00	  536.74	-1743.75	  419.17
      1.6700	  452.00	  537.55	-1743.75	  419.99
      1.7700	  578.00	  538.35	-1743.75	  420.79
      1.8700	  645.00	  539.14	-1743.75	  421.58
      1.9700	  757.00	  539.92	-1743.75	  422.36
      2.0700	  786.00	  540.68	-1743.75	  423.12
      2.1700	  823.00	  541.44	-1743.75	  423.88
      2.2700	  797.00	  542.18	-1743.75	  424.62
      2.3700	  730.00	  542.91	-1743.75	  425.35
      2.4700	  669.00	  543.64	-1743.75	  426.07
      2.5700	  676.00	  544.34	-1743.75	  426.78
      2.6700	  677.00	  545.04	-1743.75	  427.48
      2.7700	  674.00	  545.73	-1743.75	  428.17
      2.8700	  685.00	  546.41	-1743.75	  428.84
      2.9700	  656.00	  547.07	-1743.75	  429.51
      3.0700	  579.00	  547.72	-1743.75	  430.16
      3.1700	  577.00	  548.37	-1743.75	  430.80
      3.2700	  611.00	  549.00	-1743.75	  431.44
      3.3700	  672.00	  549.62	-1743.75	  432.06
      3.4700	  745.00	  550.23	-1743.75	  432.67
      3.5700	  841.00	  550.83	-1743.75	  433.27
      3.6700	  851.00	  551.42	-1743.75	  433.86
      3.7700	  907.00	  552.00	-1743.75	  434.44
      3.8700	  940.00	  552.57	-1743.75	  435.01
      3.9700	 1008.00	  553.13	-1743.75	  435.57
      4.0700	 1066.00	  553.68	-1743.75	  436.12
      4.1700	 1049.00	  554.22	-1743.75	  436.66
      4.2700	 1090.00	  554.75	-1743.75	  437.19
      4.3700	 1049.00	  555.27	-1743.75	  437.71
      4.4700	 1060.00	  555.78	-1743.75	  438.22
      4.5700	 1023.00	  556.28	-1743.75	  438.72
      4.6700	 1022.00	  556.77	-1743.75	  439.21
      4.7700	 1036.00	  557.25	-1743.75	  439.69
      4.8700	  951.00	  557.72	-1743.75	  440.16
      4.9700	  941.00	  558.18	-1743.75	  440.62
      5.0700	  902.00	  558.64	-1743.75	  441.07
      5.1700	  904.00	  559.08	-1743.75	  441.51
      5.2700	  872.00	  559.51	-1743.75	  441.95
      5.3700	  837.00	  559.94	-1743.75	  442.37
      5.4700	  813.00	  560.35	-1743.75	  442.79
      5.5700	  887.00	  560.76	-1743.75	  443.19
      5.6700	  861.00	  561.15	-1743.75	  443.59
      5.7700	  816.00	  561.54	-1743.75	  443.98
      5.8700	  822.00	  561.92	-1743.75	  444.36
      5.9700	  797.00	  562.29	-1743.75	  444.73
      6.0700	  803.00	  562.65	-1743.75	  445.09
      6.1700	  801.00	  563.01	-1743.75	  445.44
      6.2700	  756.00	  563.35	-1743.75	  445.79
      6.3700	  779.00	  563.69	-1743.75	  446.13
      6.4700	  769.00	  564.02	-1743.75	  446.45
      6.5700	  735.00	  564.34	-1743.75	  446.77
      6.6700	  682.00	  564.65	-1743.75	  447.08
      6.7700	  743.00	  564.95	-1743.75	  447.39
      6.8700	  734.00	  565.25	-1743.75	  447.68
      6.9700	  719.00	  565.53	-1743.75	  447.97
      7.0700	  716.00	  565.81	-1743.75	  448.25
      7.1700	  686.00	  566.08	-1743.75	  448.52
      7.2700	  700.00	  566.35	-1743.75	  448.78
      7.3700	  650.00	  566.60	-1743.75	  449.04
      7.4700	  677.00	  566.85	-1743.75	  449.28
      7.5700	  648.00	  567.09	-1743.75	  449.52
      7.6700	  652.00	  567.32	-1743.75	  449.76
      7.7700	  666.00	  567.54	-1743.75	  449.98
      7.8700	  675.00	  567.76	-1743.75	  450.20
      7.9700	  676.00	  567.97	-1743.75	  450.41
      8.0700	  669.00	  568.17	-1743.75	  450.61
      8.1700	  637.00	  568.37	-1743.75	  450.80
      8.2700	  630.00	  568.55	-1743.75	  450.99
      8.3700	  623.00	  568.74	-1743.75	  451.17
      8.4700	  643.00	  568.91	-1743.75	  451.35
      8.5700	  599.00	  569.07	-1743.75	  451.51
      8.6700	  622.00	  569.23	-1743.75	  451.67
      8.7700	  598.00	  569.39	-1743.75	  451.82
      8.8700	  594.00	  569.53	-1743.75	  451.97
      8.9700	  589.00	  569.67	-1743.75	  452.11
      9.0700	  622.00	  569.80	-1743.75	  452.24
      9.1700	  603.00	  569.93	-1743.75	  452.36
      9.2700	  610.00	  570.05	-1743.75	  452.48
      9.3700	  587.00	  570.16	-1743.75	  452.60
      9.4700	  614.00	  570.26	-1743.75	  452.70
      9.5700	  645.00	  570.36	-1743.75	  452.80
      9.6700	  645.00	  570.46	-1743.75	  452.89
      9.7700	  593.00	  570.54	-1743.75	  452.98
      9.8700	  595.00	  570.62	-1743.75	  453.06
      9.9700	  601.00	  570.70	-1743.75	  453.13
     10.0700	  613.00	  571.48	-1702.23	  453.20
     10.1700	  608.00	  571.61	-1707.36	  453.26
     10.2700	  633.00	  571.76	-1682.51	  453.32
     10.3700	  587.00	  571.93	-1728.68	  453.37
     10.4700	  594.00	  572.14	-1721.89	  453.41
     10.5700	  602.00	  572.46	-1714.21	  453.45
     10.6700	  577.00	  572.97	-1739.72	  453.48
     10.7700	  607.00	  573.79	-1710.54	  453.51
     10.8700	  622.00	  574.98	-1696.73	  453.53
     10.9700	  581.00	  576.53	-1739.28	  453.54
     11.0700	  529.00	  578.40	-1793.15	  453.55
     11.1700	  597.00	  580.60	-1727.35	  453.55
     11.2700	  541.00	  583.14	-1785.89	  453.55
     11.3700	  608.00	  586.11	-1721.86	  453.55
     11.4700	  578.00	  589.64	-1755.39	  453.53
     11.5700	  601.00	  593.91	-1736.66	  453.52
     11.6700	  581.00	  599.26	-1762.01	  453.49
     11.7700	  614.00	  606.29	-1736.04	  453.46
     11.8700	  605.00	  615.93	-1754.68	  453.43
     11.9700	  632.00	  628.97	-1740.72	  453.39
     12.0700	  668.00	  643.99	-1719.74	  453.35
     12.1700	  709.00	  654.77	-1689.52	  453.30
     12.2700	  644.00	  651.37	-1751.12	  453.25
     12.3700	  607.00	  630.93	-1767.68	  453.19
     12.4700	  633.00	  606.34	-1717.09	  453.13
     12.5700	  575.00	  588.81	-1757.56	  453.06
     12.6700	  555.00	  579.67	-1768.42	  452.98
     12.7700	  580.00	  575.73	-1739.48	  452.91
     12.8700	  591.00	  574.02	-1726.77	  452.82
     12.9700	  551.00	  573.09	-1765.84	  452.74
     13.0700	  564.00	  572.46	-1752.21	  452.65
     13.1700	  568.00	  571.98	-1747.73	  452.55
     13.2700	  573.00	  571.59	-1742.34	  452.45
     13.3700	  540.00	  571.27	-1775.02	  452.35
     13.4700	  522.00	  570.99	-1792.74	  452.24
     13.5700	  567.00	  570.74	-1747.49	  452.13
     13.6700	  543.00	  570.51	-1771.26	  452.01
     13.7700	  539.00	  570.29	-1775.04	  451.89
     13.8700	  530.00	  570.09	-1783.84	  451.76
     13.9700	  539.00	  569.90	-1774.65	  451.63
     14.0700	  596.00	  569.71	-1717.46	  451.50
     14.1700	  557.00	  569.53	-1756.28	  451.36
     14.2700	  540.00	  569.34	-1773.09	  451.22
     14.3700	  527.00	  569.16	-1785.91	  451.07
     14.4700	  538.00	  568.98	-1774.73	  450.92
     14.5700	  587.00	  568.80	-1725.55	  450.77
     14.6700	  631.00	  568.62	-1681.37	  450.62
     14.7700	  534.00	  568.44	-1778.19	  450.45
     14.8700	  584.00	  568.26	-1728.01	  450.29
     14.9700	  526.00	  568.07	-1785.82	  450.12
     15.0700	  556.00	  567.89	-1755.64	  449.95
     15.1700	  512.00	  567.70	-1799.45	  449.78
     15.2700	  595.00	  567.51	-1716.26	  449.60
     15.3700	  599.00	  567.31	-1712.06	  449.42
     15.4700	  547.00	  567.12	-1763.87	  449.23
     15.5700	  568.00	  566.92	-1742.67	  449.04
     15.6700	  530.00	  566.72	-1780.47	  448.85
     15.7700	  579.00	  566.52	-1731.27	  448.66
     15.8700	  551.00	  566.31	-1759.06	  448.46
     15.9700	  536.00	  566.10	-1773.85	  448.26
     16.0700	  629.00	  565.89	-1680.64	  448.05
     16.1700	  530.00	  565.68	-1779.43	  447.85
     16.2700	  558.00	  565.47	-1751.22	  447.64
     16.3700	  599.00	  565.27	-1710.02	  447.42
     16.4700	  589.00	  565.05	-1719.80	  447.21
     16.5700	  566.00	  564.83	-1742.58	  446.99
     16.6700	  578.00	  564.60	-1730.35	  446.77
     16.7700	  609.00	  564.37	-1699.12	  446.54
     16.8700	  545.00	  564.14	-1762.89	  446.31
     16.9700	  540.00	  563.91	-1767.66	  446.08
     17.0700	  570.00	  563.68	-1737.43	  445.85
     17.1700	  574.00	  563.44	-1733.19	  445.61
     17.2700	  557.00	  563.20	-1749.95	  445.38
     17.3700	  517.00	  562.96	-1789.71	  445.13
     17.4700	  539.00	  562.71	-1767.46	  444.89
     17.5700	  520.00	  562.46	-1786.21	  444.65
     17.6700	  557.00	  562.21	-1748.96	  444.40
     17.7700	  565.00	  561.96	-1740.71	  444.15
     17.8700	  552.00	  561.71	-1753.46	  443.89
     17.9700	  578.00	  561.56	-1727.31	  443.64
     18.0700	  538.00	  561.30	-1767.05	  443.38
     18.1700	  560.00	  561.04	-1744.79	  443.12
     18.2700	  528.00	  560.78	-1776.53	  442.86
     18.3700	  575.00	  560.52	-1729.27	  442.59
     18.4700	  606.00	  560.26	-1698.01	  442.33
     18.5700	  552.00	  559.99	-1751.74	  442.06
     18.6700	  628.00	  559.72	-1675.47	  441.79
     18.7700	  608.00	  559.45	-1695.20	  441.52
     18.8700	  574.00	  559.18	-1728.93	  441.24
     18.9700	  604.00	  559.00	-1698.75	  440.97
     19.0700	  520.00	  558.72	-1782.47	  440.69
     19.1700	  542.00	  558.45	-1760.20	  440.41
     19.2700	  594.00	  558.17	-1707.92	  440.13
     19.3700	  540.00	  557.89	-1761.64	  439.84
     19.4700	  568.00	  557.62	-1733.37	  439.56
     19.5700	  559.00	  557.34	-1742.09	  439.27
     19.6700	  509.00	  557.05	-1791.80	  438.98
     19.7700	  525.00	  556.77	-1775.52	  438.69
     19.8700	  564.00	  556.49	-1736.24	  438.40
     19.9700	  550.00	  556.20	-1749.95	  438.10
     20.0700	  519.00	  555.92	-1780.67	  437.81
     20.1700	  560.00	  555.63	-1739.38	  437.51
     20.2700	  552.00	  555.34	-1747.09	  437.21
     20.3700	  479.00	  555.05	-1819.80	  436.91
     20.4700	  544.00	  554.73	-1754.48	  436.61
     20.5700	  568.00	  554.44	-1730.19	  436.31
     20.6700	  514.00	  554.15	-1783.90	  436.01
     20.7700	  548.00	  553.86	-1749.61	  435.70
     20.8700	  552.00	  553.57	-1745.32	  435.40
     20.9700	  574.00	  553.31	-1723.06	  435.09
     21.0700	  570.00	  553.02	-1726.77	  434.78
     21.1700	  569.00	  552.73	-1727.48	  434.47
     21.2700	  541.00	  552.44	-1755.19	  434.16
     21.3700	  533.00	  552.15	-1762.90	  433.85
     21.4700	  510.00	  551.85	-1785.60	  433.53
     21.5700	  594.00	  551.56	-1701.31	  433.22
     21.6700	  528.00	  551.27	-1767.02	  432.90
     21.7700	  549.00	  550.98	-1745.73	  432.59
     21.8700	  528.00	  550.69	-1766.44	  432.27
     21.9700	  566.00	  550.40	-1728.15	  431.95
     22.0700	  535.00	  550.12	-1758.87	  431.63
     22.1700	  540.00	  549.83	-1753.58	  431.31
     22.2700	  524.00	  549.55	-1769.30	  430.99
     22.3700	  567.00	  549.27	-1726.02	  430.67
     22.4700	  561.00	  548.99	-1731.74	  430.35
     22.5700	  547.00	  548.72	-1745.47	  430.03
     22.6700	  572.00	  548.45	-1720.20	  429.70
     22.7700	  546.00	  548.19	-1745.94	  429.38
     22.8700	  545.00	  547.93	-1746.68	  429.05
     22.9700	  553.00	  547.69	-1738.44	  428.73
     23.0700	  550.00	  547.45	-1741.20	  428.40
     23.1700	  554.00	  547.23	-1736.98	  428.08
     23.2700	  570.00	  547.03	-1720.78	  427.75
     23.3700	  510.00	  546.85	-1780.60	  427.42
     23.4700	  613.00	  546.69	-1677.44	  427.09
     23.5700	  578.00	  546.58	-1712.33	  426.76
     23.6700	  558.00	  546.53	-1732.28	  426.44
     23.7700	  577.00	  546.58	-1713.33	  426.11
     23.8700	  564.00	  546.96	-1726.71	  425.78
     23.9700	  562.00	  547.60	-1729.35	  425.45
     24.0700	  544.00	  549.07	-1748.82	  425.12
     24.1700	  542.00	  552.01	-1753.76	  424.78
     24.2700	  556.00	  557.23	-1744.98	  424.45
     24.3700	  577.00	  565.69	-1732.44	  424.12
     24.4700	  608.00	  578.43	-1714.18	  423.79
     24.5700	  593.00	  595.86	-1746.61	  423.46
     24.6700	  632.00	  615.26	-1727.01	  423.13
     24.7700	  630.00	  628.62	-1742.37	  422.80
     24.8700	  611.00	  625.23	-1757.98	  422.46
     24.9700	  579.00	  604.07	-1768.82	  422.13
     25.0700	  630.00	  578.97	-1692.72	  421.80
     25.1700	  564.00	  560.65	-1740.40	  421.47
     25.2700	  600.00	  550.67	-1694.42	  421.14
     25.3700	  513.00	  546.16	-1776.91	  420.80
     25.4700	  527.00	  544.17	-1760.92	  420.47
     25.5700	  517.00	  543.10	-1769.85	  420.14
     25.6700	  557.00	  542.40	-1729.15	  419.81
     25.7700	  559.00	  541.88	-1726.63	  419.48
     25.8700	  567.00	  541.48	-1718.23	  419.15
     25.9700	  573.00	  541.18	-1711.93	  418.81
     26.0700	  585.00	  540.96	-1699.71	  418.48
     26.1700	  544.00	  540.81	-1740.56	  418.15
     26.2700	  562.00	  540.74	-1722.49	  417.82
     26.3700	  528.00	  540.73	-1756.48	  417.49
     26.4700	  544.00	  540.82	-1740.57	  417.16
     26.5700	  563.00	  540.99	-1721.74	  416.83
     26.6700	  512.00	  541.28	-1773.03	  416.50
     26.7700	  567.00	  541.70	-1718.45	  416.17
     26.8700	  592.00	  542.30	-1694.05	  415.84
     26.9700	  564.00	  543.12	-1722.87	  415.52
     27.0700	  561.00	  544.25	-1727.00	  415.19
     27.1700	  600.00	  545.81	-1689.56	  414.86
     27.2700	  560.00	  548.05	-1731.80	  414.53
     27.3700	  565.00	  551.49	-1730.24	  414.21
     27.4700	  558.00	  557.09	-1742.84	  413.88
     27.5700	  569.00	  566.61	-1741.36	  413.56
     27.6700	  591.00	  582.78	-1735.53	  413.23
     27.7700	  547.00	  609.13	-1805.88	  412.91
     27.8700	  627.00	  648.73	-1765.48	  412.58
     27.9700	  684.00	  701.65	-1761.40	  412.26
     28.0700	  793.00	  761.85	-1712.60	  411.94
     28.1700	  907.00	  814.37	-1651.12	  411.61
     28.2700	  881.00	  836.79	-1699.54	  411.29
     28.3700	  890.00	  815.99	-1669.74	  410.97
     28.4700	  782.00	  773.35	-1735.10	  410.65
     28.5700	  723.00	  744.13	-1764.88	  410.33
     28.6700	  739.00	  744.45	-1749.20	  410.02
     28.7700	  695.00	  769.53	-1818.28	  409.70
     28.8700	  796.00	  799.05	-1746.80	  409.38
     28.9700	  827.00	  804.23	-1720.98	  409.06
     29.0700	  767.00	  766.69	-1743.44	  408.75
     29.1700	  727.00	  702.45	-1719.20	  408.44
     29.2700	  630.00	  641.14	-1754.89	  408.12
     29.3700	  620.00	  596.94	-1720.69	  407.81
     29.4700	  616.00	  570.27	-1698.02	  407.50
     29.5700	  606.00	  555.90	-1693.65	  407.19
     29.6700	  604.00	  548.34	-1688.09	  406.88
     29.7700	  557.00	  544.07	-1730.82	  406.57
     29.8700	  550.00	  541.42	-1735.17	  406.26
     29.9700	  538.00	  539.75	-1745.50	  405.95
     30.0700	  571.00	  538.92	-1711.67	  405.64
     30.1700	  581.00	  539.09	-1701.84	  405.34
     30.2700	  554.00	  540.84	-1730.59	  405.04
     30.3700	  562.00	  545.31	-1727.06	  404.73
     30.4700	  535.00	  554.23	-1762.98	  404.43
     30.5700	  542.00	  569.44	-1771.19	  404.13
     30.6700	  595.00	  591.51	-1740.26	  403.83
     30.7700	  607.00	  617.74	-1754.49	  403.53
     30.8700	  609.00	  640.67	-1775.42	  403.23
     30.9700	  619.00	  648.85	-1773.60	  402.94
     31.0700	  623.00	  634.41	-1755.16	  402.64
     31.1700	  558.00	  605.00	-1790.75	  402.35
     31.2700	  545.00	  575.49	-1774.24	  402.05
     31.3700	  585.00	  553.78	-1712.53	  401.76
     31.4700	  505.00	  540.66	-1779.41	  401.47
     31.5700	  566.00	  533.70	-1711.45	  401.18
     31.6700	  567.00	  530.15	-1706.90	  400.89
     31.7700	  545.00	  528.18	-1726.93	  400.60
     31.8700	  565.00	  526.94	-1705.69	  400.32
     31.9700	  542.00	  526.06	-1727.81	  400.03
     32.0700	  507.00	  525.44	-1762.19	  399.75
     32.1700	  574.00	  525.00	-1694.75	  399.47
     32.2700	  539.00	  524.72	-1729.47	  399.19
     32.3700	  505.00	  524.59	-1763.34	  398.91
     32.4700	  556.00	  524.62	-1712.37	  398.63
     32.5700	  548.00	  524.81	-1720.56	  398.35
     32.6700	  566.00	  525.20	-1702.95	  398.08
     32.7700	  568.00	  525.83	-1701.58	  397.80
     32.8700	  530.00	  526.76	-1740.51	  397.53
     32.9700	  538.00	  528.10	-1733.85	  397.26
     33.0700	  566.00	  530.06	-1707.81	  396.99
     33.1700	  531.00	  533.09	-1745.84	  396.72
     33.2700	  502.00	  538.21	-1779.96	  396.45
     33.3700	  560.00	  547.69	-1731.44	  396.19
     33.4700	  576.00	  565.91	-1733.66	  395.92
     33.5700	  594.00	  600.01	-1749.76	  395.66
     33.6700	  583.00	  658.28	-1819.03	  395.40
     33.7700	  787.00	  744.68	-1701.43	  395.14
     33.8700	  893.00	  850.00	-1700.75	  394.88
     33.9700	 1050.00	  945.87	-1639.62	  394.62
     34.0700	 1075.00	  988.44	-1657.19	  394.37
     34.1700	 1021.00	  945.34	-1668.09	  394.11
     34.2700	  917.00	  838.97	-1665.72	  393.86
     34.3700	  739.00	  724.77	-1729.52	  393.61
     34.4700	  642.00	  636.83	-1738.58	  393.36
     34.5700	  535.00	  582.05	-1790.80	  393.11
     34.6700	  571.00	  552.75	-1725.50	  392.87
     34.7700	  538.00	  538.21	-1743.96	  392.62
     34.8700	  566.00	  530.69	-1708.44	  392.38
     34.9700	  568.00	  526.21	-1701.96	  392.14
     35.0700	  538.00	  523.10	-1728.85	  391.90
     35.1700	  517.00	  520.76	-1747.51	  391.66
     35.2700	  552.00	  518.90	-1710.65	  391.42
     35.3700	  467.00	  517.40	-1794.15	  391.19
     35.4700	  482.00	  516.14	-1777.89	  390.96
     35.5700	  509.00	  515.07	-1749.82	  390.72
     35.6700	  499.00	  514.16	-1758.91	  390.49
     35.7700	  524.00	  513.36	-1733.11	  390.27
     35.8700	  517.00	  512.65	-1739.40	  390.04
     35.9700	  523.00	  512.51	-1733.26	  389.81
     36.0700	  516.00	  511.95	-1739.70	  389.59
     36.1700	  516.00	  511.45	-1739.20	  389.37
     36.2700	  477.00	  511.00	-1777.75	  389.15
     36.3700	  496.00	  510.58	-1758.33	  388.93
     36.4700	  505.00	  510.21	-1748.96	  388.71
     36.5700	  505.00	  509.87	-1748.62	  388.50
     36.6700	  500.00	  509.58	-1753.33	  388.29
     36.7700	  550.00	  509.32	-1703.07	  388.08
     36.8700	  515.00	  509.14	-1737.89	  387.87
     36.9700	  536.00	  509.07	-1716.82	  387.66
     37.0700	  537.00	  509.25	-1716.00	  387.45
     37.1700	  488.00	  509.92	-1765.67	  387.25
     37.2700	  541.00	  511.47	-1714.22	  387.04
     37.3700	  520.00	  514.28	-1738.03	  386.84
     37.4700	  498.00	  518.40	-1764.15	  386.64
     37.5700	  498.00	  523.15	-1768.90	  386.45
     37.6700	  516.00	  527.05	-1754.80	  386.25
     37.7700	  492.00	  528.42	-1780.17	  386.06
     37.8700	  492.00	  526.84	-1778.59	  385.87
     37.9700	  500.00	  523.60	-1767.35	  385.68
     38.0700	  522.00	  519.81	-1741.56	  385.49
     38.1700	  496.00	  515.87	-1763.62	  385.30
     38.2700	  514.00	  512.24	-1741.99	  385.12
     38.3700	  518.00	  509.35	-1735.10	  384.93
     38.4700	  495.00	  507.32	-1756.07	  384.75
     38.5700	  504.00	  506.01	-1745.76	  384.57
     38.6700	  482.00	  505.22	-1766.97	  384.40
     38.7700	  536.00	  504.62	-1712.37	  384.22
     38.8700	  513.00	  504.27	-1735.02	  384.05
     38.9700	  484.00	  503.98	-1763.73	  383.87
     39.0700	  510.00	  503.74	-1737.49	  383.70
     39.1700	  537.00	  503.44	-1710.19	  383.54
     39.2700	  497.00	  503.24	-1749.99	  383.37
     39.3700	  482.00	  503.06	-1764.81	  383.20
     39.4700	  519.00	  502.88	-1727.63	  383.04
     39.5700	  498.00	  502.72	-1748.47	  382.88
     39.6700	  489.00	  502.57	-1757.32	  382.72
     39.7700	  502.00	  502.55	-1744.30	  382.56
     39.8700	  489.00	  502.42	-1757.17	  382.41
     39.9700	  487.00	  502.30	-1759.05	  382.26
     40.0700	  485.00	  502.19	-1760.94	  382.10
     40.1700	  517.00	  502.09	-1728.84	  381.95
     40.2700	  476.00	  502.00	-1769.75	  381.81
     40.3700	  522.00	  501.92	-1723.68	  381.66
     40.4700	  475.00	  501.86	-1770.61	  381.52
     40.5700	  494.00	  501.81	-1751.56	  381.37
     40.6700	  463.00	  501.77	-1782.52	  381.23
     40.7700	  483.00	  501.76	-1762.51	  381.10
     40.8700	  478.00	  501.76	-1767.51	  380.96
     40.9700	  498.00	  501.79	-1747.54	  380.82
     41.0700	  516.00	  501.86	-1729.61	  380.69
     41.1700	  476.00	  501.92	-1769.67	  380.56
     41.2700	  508.00	  502.07	-1737.82	  380.43
     41.3700	  530.00	  502.28	-1716.03	  380.31
     41.4700	  506.00	  502.57	-1740.32	  380.18
     41.5700	  494.00	  502.97	-1752.72	  380.06
     41.6700	  512.00	  503.95	-1735.70	  379.94
     41.7700	  521.00	  504.80	-1727.55	  379.82
     41.8700	  508.00	  506.25	-1742.00	  379.70
     41.9700	  483.00	  508.96	-1769.71	  379.58
     42.0700	  462.00	  514.29	-1796.04	  379.47
     42.1700	  529.00	  524.45	-1739.20	  379.36
     42.2700	  559.00	  542.13	-1726.88	  379.25
     42.3700	  556.00	  568.77	-1756.52	  379.14
     42.4700	  554.00	  602.48	-1792.23	  379.03
     42.5700	  593.00	  635.86	-1786.61	  378.93
     42.6700	  636.00	  656.68	-1764.43	  378.83
     42.7700	  545.00	  654.03	-1852.78	  378.73
     42.8700	  612.00	  628.44	-1760.19	  378.63
     42.9700	  542.00	  592.84	-1794.59	  378.53
     43.0700	  523.00	  559.71	-1780.46	  378.44
     43.1700	  560.00	  535.15	-1718.90	  378.34
     43.2700	  523.00	  519.81	-1740.56	  378.25
     43.3700	  541.00	  511.42	-1714.17	  378.16
     43.4700	  502.00	  507.17	-1748.92	  378.07
     43.5700	  497.00	  505.01	-1751.76	  377.99
     43.6700	  513.00	  503.79	-1734.54	  377.91
     43.7700	  498.00	  503.18	-1748.93	  377.82
     43.8700	  518.00	  502.61	-1728.36	  377.74
     43.9700	  468.00	  502.18	-1777.93	  377.67
     44.0700	  527.00	  501.85	-1718.60	  377.59
     44.1700	  506.00	  501.63	-1739.38	  377.52
     44.2700	  483.00	  501.44	-1762.19	  377.44
     44.3700	  504.00	  501.29	-1741.04	  377.37
     44.4700	  500.00	  501.19	-1744.94	  377.30
     44.5700	  505.00	  500.99	-1739.74	  377.24
     44.6700	  504.00	  500.96	-1740.71	  377.17
     44.7700	  485.00	  500.95	-1759.70	  377.11
     44.8700	  523.00	  500.96	-1721.71	  377.05
     44.9700	  548.00	  501.00	-1696.75	  376.99
     45.0700	  497.00	  501.06	-1747.81	  376.93
     45.1700	  487.00	  501.14	-1757.89	  376.88
     45.2700	  528.00	  501.42	-1717.17	  376.82
     45.3700	  493.00	  501.55	-1752.30	  376.77
     45.4700	  510.00	  501.70	-1735.45	  376.72
     45.5700	  489.00	  501.87	-1756.62	  376.67
     45.6700	  492.00	  502.07	-1753.82	  376.63
     45.7700	  459.00	  502.29	-1787.04	  376.58
     45.8700	  537.00	  502.54	-1709.29	  376.54
     45.9700	  526.00	  502.82	-1720.57	  376.50
     46.0700	  506.00	  503.14	-1740.89	  376.46
     46.1700	  502.00	  503.49	-1745.24	  376.42
     46.2700	  506.00	  503.89	-1741.64	  376.39
     46.3700	  497.00	  504.33	-1751.08	  376.35
     46.4700	  491.00	  504.84	-1757.59	  376.32
     46.5700	  504.00	  505.41	-1745.16	  376.29
     46.6700	  466.00	  506.07	-1783.82	  376.26
     46.7700	  501.00	  506.84	-1749.59	  376.24
     46.8700	  499.00	  507.78	-1752.53	  376.21
     46.9700	  511.00	  509.00	-1741.75	  376.19
     47.0700	  531.00	  510.78	-1723.53	  376.17
     47.1700	  542.00	  513.67	-1715.42	  376.15
     47.2700	  512.00	  518.63	-1750.38	  376.13
     47.3700	  558.00	  526.97	-1712.72	  376.12
     47.4700	  565.00	  539.84	-1718.59	  376.10
     47.5700	  549.00	  557.53	-1752.28	  376.09
     47.6700	  537.00	  578.23	-1784.98	  376.08
     47.7700	  592.00	  597.50	-1749.25	  376.07
     47.8700	  586.00	  608.99	-1766.74	  376.06
     47.9700	  597.00	  607.85	-1754.60	  376.06
     48.0700	  614.00	  595.31	-1725.06	  376.05
     48.1700	  544.00	  577.71	-1777.46	  376.05
     48.2700	  563.00	  561.23	-1741.98	  376.05
     48.3700	  557.00	  549.19	-1735.94	  376.05
     48.4700	  576.00	  542.51	-1710.26	  376.06
     48.5700	  511.00	  540.47	-1773.22	  376.06
     48.6700	  560.00	  541.83	-1725.58	  376.07
     48.7700	  544.00	  545.57	-1745.32	  376.08
     48.8700	  554.00	  551.22	-1740.97	  376.09
     48.9700	  534.00	  558.84	-1768.59	  376.10
     49.0700	  544.00	  569.13	-1768.88	  376.11
     49.1700	  644.00	  583.78	-1683.53	  376.13
     49.2700	  649.00	  606.30	-1701.05	  376.14
     49.3700	  687.00	  643.36	-1700.11	  376.16
     49.4700	  796.00	  706.17	-1653.92	  376.18
     49.5700	  763.00	  810.70	-1791.45	  376.20
     49.6700	  889.00	  975.41	-1830.16	  376.23
     49.7700	 1109.00	 1213.16	-1847.91	  376.25
     49.8700	 1423.00	 1522.40	-1843.15	  376.28
     49.9700	 1857.00	 1874.40	-1761.15	  376.30
     50.0700	 2214.00	 2204.16	-1733.91	  376.33
     50.1700	 2501.00	 2415.14	-1657.89	  376.37
     50.2700	 2512.00	 2420.85	-1652.60	  376.40
     50.3700	 2237.00	 2216.50	-1723.25	  376.43
     50.4700	 1892.00	 1887.52	-1739.27	  376.47
     50.5700	 1403.00	 1535.73	-1876.48	  376.51
     50.6700	 1008.00	 1228.63	-1964.38	  376.54
     50.7700	  823.00	  995.85	-1916.60	  376.59
     50.8700	  734.00	  839.05	-1848.80	  376.63
     50.9700	  644.00	  743.24	-1842.99	  376.67
     51.0700	  594.00	  687.62	-1837.37	  376.72
     51.1700	  678.00	  653.32	-1719.07	  376.76
     51.2700	  593.00	  627.96	-1778.71	  376.81
     51.3700	  587.00	  606.40	-1763.15	  376.86
     51.4700	  579.00	  587.87	-1752.62	  376.91
     51.5700	  521.00	  572.83	-1795.58	  376.96
     51.6700	  557.00	  561.47	-1748.22	  377.02
     51.7700	  581.00	  553.47	-1716.22	  377.07
     51.8700	  519.00	  548.07	-1772.82	  377.13
     51.9700	  560.00	  544.51	-1728.26	  377.19
     52.0700	  545.00	  542.18	-1740.93	  377.25
     52.1700	  581.00	  540.79	-1703.54	  377.31
     52.2700	  556.00	  540.25	-1728.00	  377.37
     52.3700	  568.00	  540.90	-1716.65	  377.44
     52.4700	  580.00	  542.71	-1706.46	  377.51
     52.5700	  564.00	  546.89	-1726.64	  377.57
     52.6700	  589.00	  555.60	-1710.35	  377.64
     52.7700	  623.00	  572.83	-1693.58	  377.71
     52.8700	  645.00	  604.91	-1703.66	  377.78
     52.9700	  704.00	  659.74	-1699.49	  377.85
     53.0700	  785.00	  744.09	-1702.84	  377.93
     53.1700	  882.00	  858.80	-1720.55	  378.00
     53.2700	 1068.00	  993.54	-1669.29	  378.08
     53.3700	 1127.00	 1123.74	-1740.49	  378.16
     53.4700	 1130.00	 1212.90	-1826.65	  378.24
     53.5700	 1180.00	 1226.94	-1790.69	  378.32
     53.6700	 1052.00	 1159.10	-1850.85	  378.40
     53.7700	  930.00	 1037.20	-1850.95	  378.48
     53.8700	  859.00	  900.15	-1784.90	  378.57
     53.9700	  723.00	  777.29	-1798.04	  378.65
     54.0700	  652.00	  683.26	-1775.01	  378.74
     54.1700	  652.00	  620.14	-1711.89	  378.83
     54.2700	  551.00	  582.33	-1775.08	  378.92
     54.3700	  549.00	  561.70	-1756.45	  379.01
     54.4700	  551.00	  551.28	-1744.03	  379.10
     54.5700	  511.00	  546.27	-1779.02	  379.20
     54.6700	  581.00	  544.03	-1706.78	  379.29
     54.7700	  572.00	  543.28	-1715.03	  379.39
     54.8700	  526.00	  543.47	-1761.22	  379.48
     54.9700	  536.00	  544.42	-1752.17	  379.58
     55.0700	  556.00	  546.05	-1733.80	  379.68
     55.1700	  571.00	  548.38	-1721.13	  379.78
     55.2700	  535.00	  551.48	-1760.23	  379.88
     55.3700	  537.00	  555.47	-1762.22	  379.99
     55.4700	  534.00	  560.54	-1770.29	  380.09
     55.5700	  575.00	  567.06	-1735.81	  380.20
     55.6700	  554.00	  575.81	-1765.56	  380.30
     55.7700	  582.00	  588.37	-1750.12	  380.41
     55.8700	  632.00	  607.92	-1719.67	  380.52
     55.9700	  653.00	  640.55	-1731.30	  380.63
     56.0700	  678.00	  696.51	-1762.26	  380.74
     56.1700	  721.00	  790.80	-1813.55	  380.85
     56.2700	  879.00	  941.59	-1806.34	  380.96
     56.3700	 1045.00	 1164.85	-1863.60	  381.08
     56.4700	 1408.00	 1465.85	-1801.60	  381.19
     56.5700	 1746.00	 1828.77	-1826.52	  381.31
     56.6700	 2075.00	 2209.00	-1877.75	  381.42
     56.7700	 2425.00	 2530.92	-1849.67	  381.54
     56.8700	 2673.00	 2701.91	-1772.66	  381.66
     56.9700	 2617.00	 2658.60	-1785.35	  381.78
     57.0700	 2431.00	 2417.77	-1730.52	  381.90
     57.1700	 2056.00	 2062.71	-1750.46	  382.02
     57.2700	 1623.00	 1683.96	-1804.71	  382.14
     57.3700	 1297.00	 1345.36	-1792.11	  382.27
     57.4700	  995.00	 1079.09	-1827.84	  382.39
     57.5700	  877.00	  891.40	-1758.15	  382.52
     57.6700	  767.00	  771.86	-1748.61	  382.64
     57.7700	  682.00	  703.40	-1765.15	  382.77
     57.8700	  640.00	  670.03	-1773.78	  382.90
     57.9700	  646.00	  660.54	-1758.29	  383.03
     58.0700	  695.00	  669.08	-1717.83	  383.16
     58.1700	  695.00	  693.76	-1742.51	  383.29
     58.2700	  738.00	  734.76	-1740.51	  383.42
     58.3700	  860.00	  792.43	-1676.18	  383.55
     58.4700	  981.00	  865.60	-1628.35	  383.69
     58.5700	 1082.00	  950.03	-1611.78	  383.82
     58.6700	 1298.00	 1037.75	-1483.50	  383.96
     58.7700	 1369.00	 1119.26	-1494.01	  384.09
     58.8700	 1519.00	 1187.85	-1412.60	  384.23
     58.9700	 1571.00	 1239.60	-1412.35	  384.36
     59.0700	 1646.00	 1269.31	-1367.06	  384.50
     59.1700	 1542.00	 1272.09	-1473.84	  384.64
     59.2700	 1441.00	 1251.06	-1553.81	  384.78
     59.3700	 1360.00	 1218.12	-1601.87	  384.92
     59.4700	 1225.00	 1185.77	-1704.52	  385.06
     59.5700	 1272.00	 1162.51	-1634.26	  385.20
     59.6700	 1190.00	 1155.88	-1709.63	  385.34
     59.7700	 1137.00	 1175.01	-1781.76	  385.49
     59.8700	 1191.00	 1226.17	-1778.92	  385.63
     59.9700	 1374.00	 1306.17	-1675.92	  385.77
     60.0700	 1515.00	 1399.14	-1627.89	  385.92
     60.1700	 1586.00	 1477.01	-1634.76	  386.06
     60.2700	 1527.00	 1506.51	-1723.26	  386.21
     60.3700	 1571.00	 1466.25	-1639.00	  386.36
     60.4700	 1471.00	 1361.99	-1634.74	  386.50
     60.5700	 1310.00	 1220.35	-1654.10	  386.65
     60.6700	 1045.00	 1070.54	-1769.29	  386.80
     60.7700	  866.00	  934.09	-1811.84	  386.95
     60.8700	  809.00	  823.21	-1757.96	  387.10
     60.9700	  698.00	  742.22	-1787.97	  387.25
     61.0700	  695.00	  690.03	-1738.78	  387.40
     61.1700	  635.00	  663.32	-1772.07	  387.55
     61.2700	  629.00	  659.30	-1774.05	  387.70
     61.3700	  598.00	  677.47	-1823.22	  387.85
     61.4700	  638.00	  719.83	-1825.58	  388.01
     61.5700	  734.00	  789.65	-1799.40	  388.16
     61.6700	  813.00	  889.04	-1819.79	  388.31
     61.7700	  922.00	 1015.84	-1837.59	  388.47
     61.8700	 1117.00	 1160.96	-1787.71	  388.62
     61.9700	 1241.00	 1306.52	-1809.27	  388.78
     62.0700	 1342.00	 1425.84	-1827.59	  388.93
     62.1700	 1429.00	 1488.47	-1803.22	  389.09
     62.2700	 1369.00	 1474.07	-1848.82	  389.24
     62.3700	 1361.00	 1386.91	-1769.66	  389.40
     62.4700	 1218.00	 1252.61	-1778.36	  389.55
     62.5700	 1078.00	 1101.59	-1767.34	  389.71
     62.6700	  885.00	  957.63	-1816.38	  389.87
     62.7700	  784.00	  835.37	-1795.12	  390.03
     62.8700	  670.00	  740.82	-1814.57	  390.18
     62.9700	  667.00	  673.47	-1750.22	  390.34
     63.0700	  568.00	  628.85	-1804.60	  390.50
     63.1700	  643.00	  601.07	-1701.82	  390.66
     63.2700	  583.00	  584.74	-1745.49	  390.82
     63.3700	  575.00	  575.82	-1744.57	  390.98
     63.4700	  518.00	  571.91	-1797.66	  391.14
     63.5700	  630.00	  572.11	-1685.86	  391.30
     63.6700	  576.00	  576.75	-1744.50	  391.46
     63.7700	  617.00	  587.17	-1713.92	  391.62
     63.8700	  661.00	  605.41	-1688.16	  391.78
     63.9700	  639.00	  633.62	-1738.37	  391.94
     64.0700	  688.00	  673.33	-1729.08	  392.10
     64.1700	  762.00	  724.43	-1706.18	  392.26
     64.2700	  811.00	  784.20	-1716.95	  392.42
     64.3700	  892.00	  846.73	-1698.48	  392.58
     64.4700	  953.00	  902.88	-1693.63	  392.74
     64.5700	  994.00	  941.94	-1691.69	  392.90
     64.6700	 1028.00	  954.85	-1670.60	  393.06
     64.7700	 1010.00	  940.76	-1674.51	  393.22
     64.8700	  914.00	  904.07	-1733.82	  393.39
     64.9700	  917.00	  853.52	-1680.27	  393.55
     65.0700	  798.00	  798.54	-1744.29	  393.71
     65.1700	  775.00	  746.69	-1715.44	  393.87
     65.2700	  764.00	  702.19	-1681.94	  394.03
     65.3700	  729.00	  666.10	-1680.85	  394.19
     65.4700	  621.00	  637.58	-1760.33	  394.36
     65.5700	  676.00	  615.27	-1683.02	  394.52
     65.6700	  566.00	  598.02	-1775.77	  394.68
     65.7700	  616.00	  584.97	-1712.72	  394.84
     65.8700	  574.00	  575.45	-1745.20	  395.00
     65.9700	  587.00	  568.92	-1725.67	  395.16
     66.0700	  524.00	  564.92	-1784.67	  395.32
     66.1700	  569.00	  563.01	-1737.76	  395.49
     66.2700	  549.00	  562.81	-1757.56	  395.65
     66.3700	  521.00	  564.02	-1786.77	  395.81
     66.4700	  499.00	  566.47	-1811.22	  395.97
     66.5700	  537.00	  570.22	-1776.97	  396.13
     66.6700	  556.00	  575.61	-1763.36	  396.29
     66.7700	  566.00	  583.60	-1761.35	  396.45
     66.8700	  592.00	  595.65	-1747.40	  396.61
     66.9700	  615.00	  614.75	-1743.50	  396.77
     67.0700	  587.00	  645.55	-1802.30	  396.93
     67.1700	  687.00	  694.73	-1751.48	  397.09
     67.2700	  792.00	  770.87	-1722.62	  397.25
     67.3700	  875.00	  883.34	-1752.09	  397.41
     67.4700	 1056.00	 1039.83	-1727.58	  397.57
     67.5700	 1283.00	 1243.75	-1704.50	  397.73
     67.6700	 1498.00	 1489.46	-1735.21	  397.88
     67.7700	 1824.00	 1760.59	-1680.34	  398.04
     67.8700	 2086.00	 2028.10	-1685.85	  398.20
     67.9700	 2189.00	 2251.23	-1805.98	  398.36
     68.0700	 2432.00	 2384.27	-1696.02	  398.51
     68.1700	 2367.00	 2393.19	-1769.94	  398.67
     68.2700	 2320.00	 2275.51	-1699.26	  398.83
     68.3700	 2031.00	 2062.00	-1774.75	  398.98
     68.4700	 1854.00	 1798.12	-1687.87	  399.14
     68.5700	 1558.00	 1525.87	-1711.62	  399.30
     68.6700	 1294.00	 1276.04	-1725.79	  399.45
     68.7700	 1068.00	 1066.79	-1742.54	  399.61
     68.8700	  854.00	  904.50	-1794.25	  399.76
     68.9700	  776.00	  787.19	-1754.94	  399.91
     69.0700	  711.00	  707.34	-1740.09	  400.07
     69.1700	  659.00	  655.70	-1740.45	  400.22
     69.2700	  631.00	  623.47	-1736.22	  400.37
     69.3700	  626.00	  603.70	-1721.45	  400.52
     69.4700	  561.00	  591.48	-1774.23	  400.68
     69.5700	  571.00	  583.69	-1756.44	  400.83
     69.6700	  598.00	  578.53	-1724.28	  400.98
     69.7700	  594.00	  574.99	-1724.74	  401.13
     69.8700	  622.00	  572.55	-1694.30	  401.28
     69.9700	  591.00	  570.95	-1723.70	  401.43
     70.0700	  563.00	  570.06	-1750.81	  401.57
     70.1700	  523.00	  569.85	-1790.60	  401.72
     70.2700	  572.00	  570.32	-1742.07	  401.87
     70.3700	  600.00	  571.59	-1715.34	  402.02
     70.4700	  538.00	  573.85	-1779.60	  402.16
     70.5700	  550.00	  577.57	-1771.32	  402.31
     70.6700	  584.00	  583.59	-1743.34	  402.45
     70.7700	  550.00	  593.39	-1787.14	  402.60
     70.8700	  606.00	  609.35	-1747.10	  402.74
     70.9700	  591.00	  635.03	-1787.78	  402.88
     71.0700	  677.00	  675.25	-1742.00	  403.03
     71.1700	  706.00	  735.85	-1773.60	  403.17
     71.2700	  887.00	  822.78	-1679.53	  403.31
     71.3700	  876.00	  940.66	-1808.41	  403.45
     71.4700	 1093.00	 1091.59	-1742.34	  403.59
     71.5700	 1229.00	 1269.93	-1784.68	  403.73
     71.6700	 1416.00	 1465.56	-1793.31	  403.86
     71.7700	 1559.00	 1659.97	-1844.72	  404.00
     71.8700	 1767.00	 1827.91	-1804.66	  404.14
     71.9700	 1951.00	 1940.42	-1733.17	  404.27
     72.0700	 1933.00	 1973.33	-1784.08	  404.41
     72.1700	 1905.00	 1918.79	-1757.54	  404.54
     72.2700	 1805.00	 1789.65	-1728.40	  404.68
     72.3700	 1727.00	 1613.30	-1630.05	  404.81
     72.4700	 1527.00	 1417.86	-1634.61	  404.94
     72.5700	 1393.00	 1226.73	-1577.48	  405.07
     72.6700	 1209.00	 1056.16	-1590.91	  405.20
     72.7700	 1028.00	  914.90	-1630.65	  405.33
     72.8700	  892.00	  805.17	-1656.92	  405.46
     72.9700	  900.00	  724.61	-1568.36	  405.59
     73.0700	  828.00	  668.20	-1583.95	  405.72
     73.1700	  734.00	  630.16	-1639.91	  405.84
     73.2700	  675.00	  605.12	-1673.86	  405.97
     73.3700	  691.00	  588.74	-1641.49	  406.09
     73.4700	  632.00	  577.97	-1689.72	  406.21
     73.5700	  611.00	  570.74	-1703.49	  406.34
     73.6700	  650.00	  565.82	-1659.57	  406.46
     73.7700	  636.00	  562.46	-1670.21	  406.58
     73.8700	  590.00	  560.25	-1714.00	  406.70
     73.9700	  606.00	  558.94	-1696.69	  406.81
     74.0700	  572.00	  558.36	-1730.11	  406.93
     74.1700	  592.00	  558.34	-1710.09	  407.05
     74.2700	  649.00	  558.70	-1653.45	  407.16
     74.3700	  621.00	  559.22	-1681.97	  407.28
     74.4700	  593.00	  559.65	-1710.40	  407.39
     74.5700	  643.00	  559.74	-1660.49	  407.50
     74.6700	  627.00	  559.28	-1676.03	  407.62
     74.7700	  616.00	  558.24	-1685.99	  407.73
     74.8700	  642.00	  556.74	-1658.49	  407.83
     74.9700	  632.00	  555.03	-1666.78	  407.94
     75.0700	  549.00	  553.38	-1748.13	  408.05
     75.1700	  617.00	  552.16	-1678.91	  408.16
     75.2700	  572.00	  551.62	-1723.37	  408.26
     75.3700	  559.00	  552.23	-1736.98	  408.36
     75.4700	  523.00	  554.37	-1775.12	  408.47
     75.5700	  525.00	  558.54	-1777.29	  408.57
     75.6700	  568.00	  565.16	-1740.91	  408.67
     75.7700	  580.00	  574.93	-1738.68	  408.77
     75.8700	  578.00	  588.07	-1753.82	  408.87
     75.9700	  602.00	  604.58	-1746.33	  408.96
     76.0700	  620.00	  623.96	-1747.71	  409.06
     76.1700	  629.00	  645.13	-1759.88	  409.15
     76.2700	  645.00	  666.33	-1765.08	  409.25
     76.3700	  660.00	  685.20	-1768.95	  409.34
     76.4700	  689.00	  699.05	-1753.80	  409.43
     76.5700	  691.00	  705.42	-1758.17	  409.52
     76.6700	  729.00	  702.97	-1717.72	  409.61
     76.7700	  711.00	  692.21	-1724.96	  409.70
     76.8700	  660.00	  675.18	-1758.93	  409.78
     76.9700	  639.00	  654.38	-1759.13	  409.87
     77.0700	  603.00	  632.73	-1773.48	  409.95
     77.1700	  602.00	  612.07	-1753.82	  410.03
     77.2700	  616.00	  593.80	-1721.55	  410.11
     77.3700	  561.00	  578.66	-1761.41	  410.19
     77.4700	  521.00	  566.83	-1789.58	  410.27
     77.5700	  500.00	  558.07	-1801.82	  410.35
     77.6700	  540.00	  551.88	-1755.63	  410.42
     77.7700	  561.00	  547.69	-1730.44	  410.50
     77.8700	  519.00	  544.96	-1769.71	  410.57
     77.9700	  522.00	  543.22	-1764.97	  410.64
     78.0700	  558.00	  542.13	-1727.88	  410.71
     78.1700	  528.00	  541.46	-1757.21	  410.78
     78.2700	  555.00	  541.04	-1729.79	  410.85
     78.3700	  539.00	  540.79	-1745.54	  410.92
     78.4700	  545.00	  540.66	-1739.41	  410.98
     78.5700	  513.00	  540.63	-1771.38	  411.04
     78.6700	  513.00	  540.69	-1771.44	  411.11
     78.7700	  521.00	  540.85	-1763.60	  411.17
     78.8700	  538.00	  541.13	-1746.89	  411.23
     78.9700	  508.00	  541.58	-1777.33	  411.28
     79.0700	  552.00	  542.22	-1733.97	  411.34
     79.1700	  523.00	  543.11	-1763.86	  411.40
     79.2700	  502.00	  544.14	-1785.89	  411.45
     79.3700	  498.00	  545.71	-1791.46	  411.50
     79.4700	  551.00	  547.72	-1740.47	  411.55
     79.5700	  516.00	  550.22	-1777.97	  411.60
     79.6700	  526.00	  553.28	-1771.03	  411.65
     79.7700	  542.00	  557.01	-1758.76	  411.70
     79.8700	  546.00	  561.50	-1759.25	  411.74
     79.9700	  536.00	  566.92	-1774.67	  411.79
     80.0700	  552.00	  573.49	-1765.24	  411.83
     80.1700	  538.00	  581.46	-1787.21	  411.87
     80.2700	  571.00	  591.16	-1763.91	  411.91
     80.3700	  594.00	  602.86	-1752.61	  411.94
     80.4700	  605.00	  616.68	-1755.43	  411.98
     80.5700	  564.00	  632.48	-1812.23	  412.01
     80.6700	  609.00	  649.79	-1784.54	  412.05
     80.7700	  660.00	  667.76	-1751.51	  412.08
     80.8700	  650.00	  685.21	-1778.96	  412.11
     80.9700	  678.00	  700.78	-1766.53	  412.14
     81.0700	  692.00	  713.18	-1764.93	  412.16
     81.1700	  700.00	  721.46	-1765.21	  412.19
     81.2700	  752.00	  725.00	-1716.75	  412.21
     81.3700	  741.00	  723.58	-1726.33	  412.23
     81.4700	  785.00	  717.44	-1676.19	  412.25
     81.5700	  726.00	  707.17	-1724.92	  412.27
     81.6700	  738.00	  693.64	-1699.39	  412.29
     81.7700	  737.00	  677.78	-1684.53	  412.31
     81.8700	  774.00	  660.60	-1630.35	  412.32
     81.9700	  716.00	  643.11	-1670.86	  412.33
     82.0700	  660.00	  626.34	-1710.09	  412.34
     82.1700	  668.00	  610.95	-1686.70	  412.35
     82.2700	  634.00	  597.39	-1707.14	  412.36
     82.3700	  602.00	  585.86	-1727.61	  412.37
     82.4700	  605.00	  576.39	-1715.14	  412.37
     82.5700	  612.00	  568.90	-1700.65	  412.37
     82.6700	  589.00	  563.31	-1718.06	  412.38
     82.7700	  572.00	  559.45	-1731.20	  412.37
     82.8700	  527.00	  557.19	-1773.94	  412.37
     82.9700	  541.00	  556.42	-1759.17	  412.37
     83.0700	  546.00	  557.03	-1754.78	  412.36
     83.1700	  557.00	  558.94	-1745.69	  412.36
     83.2700	  559.00	  562.04	-1746.79	  412.35
     83.3700	  545.00	  566.18	-1764.93	  412.34
     83.4700	  586.00	  571.12	-1728.87	  412.32
     83.5700	  535.00	  576.55	-1785.30	  412.31
     83.6700	  516.00	  582.03	-1809.78	  412.30
     83.7700	  574.00	  587.05	-1756.80	  412.28
     83.8700	  555.00	  591.02	-1779.77	  412.26
     83.9700	  567.00	  593.38	-1770.13	  412.24
     84.0700	  603.00	  593.72	-1734.47	  412.22
     84.1700	  579.00	  591.96	-1756.71	  412.19
     84.2700	  548.00	  588.34	-1784.09	  412.17
     84.3700	  574.00	  583.36	-1753.11	  412.14
     84.4700	  557.00	  577.57	-1764.32	  412.11
     84.5700	  588.00	  571.51	-1727.26	  412.08
     84.6700	  550.00	  565.62	-1759.37	  412.05
     84.7700	  558.00	  560.22	-1745.97	  412.01
     84.8700	  533.00	  555.51	-1766.26	  411.98
     84.9700	  509.00	  551.60	-1786.35	  411.94
     85.0700	  552.00	  548.51	-1740.26	  411.90
     85.1700	  512.00	  546.18	-1777.93	  411.86
     85.2700	  537.00	  544.53	-1751.28	  411.82
     85.3700	  515.00	  543.45	-1772.20	  411.77
     85.4700	  461.00	  542.84	-1825.59	  411.73
     85.5700	  531.00	  542.62	-1755.37	  411.68
     85.6700	  525.00	  542.74	-1761.49	  411.63
     85.7700	  528.00	  543.17	-1758.92	  411.58
     85.8700	  516.00	  543.92	-1771.67	  411.52
     85.9700	  507.00	  545.03	-1781.78	  411.47
     86.0700	  555.00	  546.57	-1735.32	  411.41
     86.1700	  535.00	  548.65	-1757.40	  411.35
     86.2700	  517.00	  551.40	-1778.15	  411.29
     86.3700	  543.00	  554.98	-1755.73	  411.23
     86.4700	  547.00	  559.53	-1756.28	  411.17
     86.5700	  609.00	  565.17	-1699.92	  411.10
     86.6700	  606.00	  571.94	-1709.69	  411.04
     86.7700	  585.00	  579.49	-1738.24	  410.97
     86.8700	  579.00	  588.20	-1752.95	  410.90
     86.9700	  612.00	  597.39	-1729.14	  410.82
     87.0700	  586.00	  606.51	-1764.26	  410.75
     87.1700	  622.00	  614.86	-1736.61	  410.67
     87.2700	  603.00	  621.67	-1762.42	  410.60
     87.3700	  621.00	  626.16	-1748.91	  410.52
     87.4700	  663.00	  627.75	-1708.50	  410.44
     87.5700	  640.00	  626.23	-1729.98	  410.35
     87.6700	  684.00	  621.83	-1681.58	  410.27
     87.7700	  631.00	  615.20	-1727.95	  410.18
     87.8700	  630.00	  607.19	-1720.94	  410.09
     87.9700	  651.00	  598.68	-1691.43	  410.00
     88.0700	  593.00	  590.48	-1741.23	  409.91
     88.1700	  619.00	  583.28	-1708.03	  409.82
     88.2700	  607.00	  577.59	-1714.34	  409.72
     88.3700	  585.00	  573.77	-1732.52	  409.63
     88.4700	  606.00	  571.99	-1709.74	  409.53
     88.5700	  556.00	  572.24	-1759.99	  409.43
     88.6700	  594.00	  574.38	-1724.13	  409.33
     88.7700	  586.00	  578.11	-1735.86	  409.22
     88.8700	  602.00	  583.02	-1724.77	  409.12
     88.9700	  614.00	  588.62	-1718.37	  409.01
     89.0700	  624.00	  594.32	-1714.07	  408.90
     89.1700	  579.00	  599.51	-1764.26	  408.79
     89.2700	  616.00	  603.55	-1731.30	  408.68
     89.3700	  626.00	  605.87	-1723.62	  408.56
     89.4700	  615.00	  606.11	-1734.86	  408.45
     89.5700	  633.00	  604.19	-1714.94	  408.33
     89.6700	  618.00	  600.34	-1726.09	  408.21
     89.7700	  613.00	  594.98	-1725.73	  408.09
     89.8700	  611.00	  588.65	-1721.40	  407.97
     89.9700	  524.00	  581.88	-1801.63	  407.84
     90.0700	  554.00	  575.12	-1764.87	  407.71
     90.1700	  499.00	  568.73	-1813.48	  407.59
     90.2700	  546.00	  562.97	-1760.72	  407.46
     90.3700	  521.00	  558.01	-1780.76	  407.33
     90.4700	  535.00	  553.90	-1762.65	  407.19
     90.5700	  516.00	  550.65	-1778.40	  407.06
     90.6700	  522.00	  548.19	-1769.94	  406.92
     90.7700	  539.00	  546.43	-1751.18	  406.78
     90.8700	  495.00	  545.27	-1794.02	  406.64
     90.9700	  526.00	  544.62	-1762.37	  406.50
     91.0700	  520.00	  544.40	-1768.15	  406.36
     91.1700	  550.00	  544.59	-1738.34	  406.21
     91.2700	  480.00	  545.16	-1808.91	  406.07
     91.3700	  521.00	  546.17	-1768.92	  405.92
     91.4700	  542.00	  547.70	-1749.45	  405.77
     91.5700	  502.00	  549.86	-1791.61	  405.62
     91.6700	  519.00	  552.81	-1777.56	  405.46
     91.7700	  546.00	  556.76	-1754.51	  405.31
     91.8700	  542.00	  561.69	-1763.44	  405.15
     91.9700	  534.00	  568.25	-1778.00	  404.99
     92.0700	  563.00	  576.39	-1757.14	  404.83
     92.1700	  547.00	  586.26	-1783.01	  404.67
     92.2700	  590.00	  597.90	-1751.65	  404.51
     92.3700	  619.00	  611.24	-1735.99	  404.34
     92.4700	  611.00	  626.10	-1758.85	  404.18
     92.5700	  667.00	  642.16	-1718.91	  404.01
     92.6700	  653.00	  658.94	-1749.69	  403.84
     92.7700	  735.00	  675.85	-1684.60	  403.67
     92.8700	  729.00	  692.20	-1706.95	  403.50
     92.9700	  773.00	  707.26	-1678.01	  403.32
     93.0700	  764.00	  720.44	-1700.19	  403.15
     93.1700	  809.00	  731.44	-1666.19	  402.97
     93.2700	  762.00	  740.34	-1722.09	  402.79
     93.3700	  810.00	  747.59	-1681.34	  402.61
     93.4700	  844.00	  753.89	-1653.64	  402.43
     93.5700	  849.00	  759.96	-1654.71	  402.24
     93.6700	  810.00	  766.49	-1700.24	  402.06
     93.7700	  861.00	  774.08	-1656.83	  401.87
     93.8700	  880.00	  783.24	-1646.99	  401.68
     93.9700	  834.00	  794.44	-1704.19	  401.49
     94.0700	  863.00	  807.99	-1688.74	  401.30
     94.1700	  866.00	  823.96	-1701.71	  401.11
     94.2700	  889.00	  842.06	-1696.81	  400.91
     94.3700	  905.00	  861.56	-1700.31	  400.72
     94.4700	  892.00	  881.26	-1733.01	  400.52
     94.5700	  949.00	  899.55	-1694.30	  400.32
     94.6700	  928.00	  914.56	-1730.31	  400.12
     94.7700	  918.00	  924.30	-1750.05	  399.92
     94.8700	  918.00	  927.12	-1752.87	  399.72
     94.9700	  855.00	  922.04	-1810.79	  399.51
     95.0700	  839.00	  909.08	-1813.83	  399.31
     95.1700	  851.00	  889.24	-1781.99	  399.10
     95.2700	  832.00	  864.22	-1775.97	  398.89
     95.3700	  812.00	  836.06	-1767.81	  398.68
     95.4700	  747.00	  806.86	-1803.61	  398.47
     95.5700	  746.00	  778.63	-1776.38	  398.26
     95.6700	  747.00	  753.21	-1749.96	  398.04
     95.7700	  717.00	  732.27	-1759.02	  397.83
     95.8700	  708.00	  717.29	-1753.04	  397.61
     95.9700	  645.00	  709.59	-1808.34	  397.39
     96.0700	  684.00	  710.30	-1770.05	  397.18
     96.1700	  710.00	  720.36	-1754.11	  396.95
     96.2700	  689.00	  740.54	-1795.29	  396.73
     96.3700	  783.00	  771.33	-1732.08	  396.51
     96.4700	  806.00	  812.86	-1750.61	  396.28
     96.5700	  844.00	  864.85	-1764.60	  396.06
     96.6700	  885.00	  926.43	-1785.18	  395.83
     96.7700	  939.00	  996.13	-1800.88	  395.60
     96.8700	 1063.00	 1071.75	-1752.50	  395.37
     96.9700	 1158.00	 1150.35	-1736.10	  395.14
     97.0700	 1207.00	 1228.30	-1765.05	  394.91
     97.1700	 1312.00	 1301.38	-1733.13	  394.68
     97.2700	 1360.00	 1364.99	-1748.74	  394.44
     97.3700	 1431.00	 1414.54	-1727.29	  394.21
     97.4700	 1473.00	 1446.02	-1716.77	  393.97
     97.5700	 1431.00	 1456.81	-1769.56	  393.73
     97.6700	 1459.00	 1446.27	-1731.02	  393.50
     97.7700	 1429.00	 1415.83	-1730.58	  393.26
     97.8700	 1325.00	 1368.58	-1787.33	  393.02
     97.9700	 1332.00	 1308.67	-1720.42	  392.77
     98.0700	 1285.00	 1240.54	-1699.29	  392.53
     98.1700	 1141.00	 1168.59	-1771.34	  392.29
     98.2700	 1086.00	 1096.81	-1754.56	  392.04
     98.3700	 1053.00	 1028.71	-1719.46	  391.79
     98.4700	  944.00	  967.24	-1766.99	  391.55
     98.5700	  896.00	  914.73	-1762.48	  391.30
     98.6700	  852.00	  873.02	-1764.77	  391.05
     98.7700	  797.00	  843.43	-1790.18	  390.80
     98.8700	  794.00	  826.93	-1776.68	  390.55
     98.9700	  810.00	  824.16	-1757.91	  390.30
     99.0700	  801.00	  835.54	-1778.29	  390.04
     99.1700	  786.00	  861.28	-1819.03	  389.79
     99.2700	  838.00	  901.40	-1807.15	  389.53
     99.3700	  929.00	  955.72	-1770.47	  389.28
     99.4700	 1077.00	 1023.74	-1690.49	  389.02
     99.5700	 1123.00	 1104.60	-1725.35	  388.76
     99.6700	 1161.00	 1196.96	-1779.71	  388.51
     99.7700	 1289.00	 1298.88	-1753.63	  388.25
     99.8700	 1390.00	 1407.78	-1761.53	  387.99
     99.9700	 1528.00	 1520.30	-1736.05	  387.73
    100.0700	 1554.00	 1632.43	-1822.18	  387.47
    100.1700	 1763.00	 1739.63	-1720.38	  387.20
    100.2700	 1854.00	 1837.28	-1727.03	  386.94
    100.3700	 1953.00	 1921.19	-1711.94	  386.68
    100.4700	 2060.00	 1987.94	-1671.69	  386.41
    100.5700	 2071.00	 2035.14	-1707.89	  386.15
    100.6700	 2111.00	 2061.26	-1694.01	  385.88
    100.7700	 2104.00	 2065.42	-1705.17	  385.62
    100.8700	 2098.00	 2047.40	-1693.15	  385.35
    100.9700	 2078.00	 2007.86	-1673.61	  385.08
    101.0700	 2036.00	 1948.72	-1656.47	  384.81
    101.1700	 1958.00	 1873.30	-1659.05	  384.55
    101.2700	 1673.00	 1786.13	-1856.88	  384.28
    101.3700	 1756.00	 1692.34	-1680.09	  384.01
    101.4700	 1548.00	 1597.11	-1792.86	  383.74
    101.5700	 1531.00	 1505.08	-1717.83	  383.47
    101.6700	 1402.00	 1420.02	-1761.77	  383.20
    101.7700	 1416.00	 1344.70	-1672.45	  382.92
    101.8700	 1263.00	 1280.71	-1761.46	  382.65
    101.9700	 1227.00	 1228.59	-1745.34	  382.38
    102.0700	 1219.00	 1187.81	-1712.56	  382.11
    102.1700	 1185.00	 1156.94	-1715.69	  381.83
    102.2700	 1130.00	 1133.81	-1747.56	  381.56
    102.3700	 1079.00	 1115.77	-1780.52	  381.29
    102.4700	 1100.00	 1099.91	-1743.66	  381.01
    102.5700	 1050.00	 1083.47	-1777.22	  380.74
    102.6700	 1078.00	 1064.21	-1729.96	  380.47
    102.7700	 1040.00	 1040.62	-1744.37	  380.19
    102.8700	  953.00	 1012.13	-1802.88	  379.92
    102.9700	  960.00	  978.99	-1762.74	  379.64
    103.0700	  920.00	  942.03	-1765.78	  379.36
    103.1700	  855.00	  902.46	-1791.21	  379.09
    103.2700	  878.00	  861.60	-1727.35	  378.81
    103.3700	  788.00	  820.76	-1776.51	  378.54
    103.4700	  790.00	  781.14	-1734.89	  378.26
    103.5700	  755.00	  743.77	-1732.52	  377.99
    103.6700	  724.00	  709.43	-1729.18	  377.71
    103.7700	  626.00	  678.66	-1796.41	  377.43
    103.8700	  635.00	  651.78	-1760.53	  377.16
    103.9700	  649.00	  628.86	-1723.61	  376.88
    104.0700	  602.00	  609.82	-1751.57	  376.61
    104.1700	  614.00	  594.40	-1724.15	  376.33
    104.2700	  568.00	  582.28	-1758.03	  376.06
    104.3700	  560.00	  573.05	-1756.80	  375.78
    104.4700	  558.00	  566.31	-1752.06	  375.51
    104.5700	  634.00	  561.64	-1671.39	  375.23
    104.6700	  554.00	  558.68	-1748.43	  374.96
    104.7700	  538.00	  557.08	-1762.83	  374.68
    104.8700	  596.00	  556.55	-1704.30	  374.41
    104.9700	  571.00	  556.84	-1729.59	  374.13
    105.0700	  553.00	  557.79	-1748.54	  373.86
    105.1700	  544.00	  559.21	-1758.96	  373.59
    105.2700	  563.00	  561.01	-1741.76	  373.31
    105.3700	  527.00	  563.11	-1779.86	  373.04
    105.4700	  542.00	  565.51	-1767.26	  372.77
    105.5700	  550.00	  568.22	-1761.97	  372.50
    105.6700	  526.00	  571.33	-1789.08	  372.22
    105.7700	  567.00	  574.92	-1751.67	  371.95
    105.8700	  529.00	  579.13	-1793.88	  371.68
    105.9700	  548.00	  584.07	-1779.82	  371.41
    106.0700	  560.00	  589.85	-1773.60	  371.14
    106.1700	  606.00	  596.52	-1734.27	  370.88
    106.2700	  597.00	  604.08	-1750.83	  370.61
    106.3700	  567.00	  612.45	-1789.20	  370.34
    106.4700	  650.00	  621.50	-1715.25	  370.07
    106.5700	  593.00	  631.02	-1781.77	  369.81
    106.6700	  606.00	  640.72	-1778.47	  369.54
    106.7700	  574.00	  650.29	-1820.04	  369.28
    106.8700	  615.00	  659.34	-1788.09	  369.01
    106.9700	  719.00	  667.48	-1692.23	  368.75
    107.0700	  630.00	  674.36	-1788.11	  368.49
    107.1700	  698.00	  679.67	-1725.42	  368.23
    107.2700	  643.00	  683.25	-1784.00	  367.97
    107.3700	  654.00	  685.09	-1774.84	  367.71
    107.4700	  695.00	  685.35	-1734.10	  367.45
    107.5700	  717.00	  684.35	-1711.10	  367.20
    107.6700	  656.00	  682.51	-1770.26	  366.94
    107.7700	  672.00	  680.25	-1752.00	  366.68
    107.8700	  663.00	  677.99	-1758.74	  366.43
    107.9700	  711.00	  676.09	-1708.84	  366.18
    108.0700	  661.00	  674.79	-1757.54	  365.93
    108.1700	  684.00	  674.23	-1733.98	  365.68
    108.2700	  675.00	  674.44	-1743.19	  365.43
    108.3700	  708.00	  675.32	-1711.07	  365.18
    108.4700	  686.00	  676.65	-1734.40	  364.93
    108.5700	  695.00	  678.14	-1726.89	  364.69
    108.6700	  705.00	  679.40	-1718.15	  364.44
    108.7700	  664.00	  680.04	-1759.79	  364.20
    108.8700	  729.00	  679.63	-1694.38	  363.96
    108.9700	  706.00	  677.87	-1715.62	  363.72
    109.0700	  644.00	  674.52	-1774.27	  363.48
    109.1700	  664.00	  669.51	-1749.26	  363.25
    109.2700	  626.00	  662.90	-1780.65	  363.01
    109.3700	  619.00	  654.88	-1779.63	  362.78
    109.4700	  562.00	  645.75	-1827.50	  362.55
    109.5700	  598.00	  635.83	-1781.58	  362.32
    109.6700	  586.00	  625.47	-1783.22	  362.09
    109.7700	  593.00	  615.00	-1765.75	  361.86
    109.8700	  609.00	  604.72	-1739.47	  361.64
    109.9700	  588.00	  594.92	-1750.67	  361.42
    110.0700	  625.00	  585.81	-1704.56	  361.19
    110.1700	  545.00	  577.54	-1776.29	  360.98
    110.2700	  598.00	  570.25	-1716.00	  360.76
    110.3700	  578.00	  563.97	-1729.72	  360.54
    110.4700	  545.00	  558.74	-1757.49	  360.33
    110.5700	  550.00	  554.51	-1748.26	  360.12
    110.6700	  585.00	  551.24	-1709.99	  359.91
    110.7700	  529.00	  548.85	-1763.60	  359.70
    110.8700	  522.00	  547.25	-1769.00	  359.50
    110.9700	  595.00	  546.34	-1695.09	  359.30
    111.0700	  591.00	  546.04	-1698.79	  359.10
    111.1700	  516.00	  546.25	-1774.00	  358.90
    111.2700	  527.00	  546.90	-1763.65	  358.70
    111.3700	  526.00	  547.92	-1765.67	  358.51
    111.4700	  549.00	  549.25	-1744.00	  358.32
    111.5700	  571.00	  550.86	-1723.61	  358.13
    111.6700	  562.00	  552.71	-1734.46	  357.94
    111.7700	  540.00	  554.77	-1758.52	  357.76
    111.8700	  537.00	  557.04	-1763.79	  357.58
    111.9700	  573.00	  559.51	-1730.26	  357.40
    112.0700	  537.00	  562.18	-1768.93	  357.22
    112.1700	  553.00	  565.07	-1755.82	  357.05
    112.2700	  616.00	  568.20	-1695.95	  356.88
    112.3700	  570.00	  571.59	-1745.34	  356.71
    112.4700	  633.00	  575.29	-1686.04	  356.54
    112.5700	  618.00	  579.35	-1705.10	  356.38
    112.6700	  604.00	  583.84	-1723.59	  356.22
    112.7700	  628.00	  588.84	-1704.59	  356.07
    112.8700	  676.00	  594.46	-1662.21	  355.91
    112.9700	  608.00	  600.86	-1736.61	  355.76
    113.0700	  710.00	  608.20	-1641.95	  355.61
    113.1700	  769.00	  616.75	-1591.50	  355.47
    113.2700	  683.00	  626.83	-1687.58	  355.33
    113.3700	  746.00	  638.82	-1636.57	  355.19
    113.4700	  786.00	  653.25	-1611.00	  355.05
    113.5700	  841.00	  670.73	-1573.48	  354.92
    113.6700	  878.00	  692.07	-1557.82	  354.79
    113.7700	  939.00	  718.21	-1522.96	  354.67
    113.8700	  873.00	  750.31	-1621.06	  354.55
    113.9700	  984.00	  789.72	-1549.47	  354.43
    114.0700	  957.00	  838.00	-1624.75	  354.31
    114.1700	 1112.00	  896.94	-1528.69	  354.20
    114.2700	 1112.00	  968.54	-1600.29	  354.09
    114.3700	 1247.00	 1054.95	-1551.70	  353.99
    114.4700	 1426.00	 1158.44	-1476.19	  353.89
    114.5700	 1451.00	 1281.32	-1574.07	  353.79
    114.6700	 1556.00	 1425.90	-1613.65	  353.70
    114.7700	 1644.00	 1594.33	-1694.08	  353.61
    114.8700	 1907.00	 1788.43	-1625.18	  353.52
    114.9700	 2128.00	 2009.62	-1625.37	  353.44
    115.0700	 2320.00	 2258.67	-1682.42	  353.36
    115.1700	 2555.00	 2535.67	-1724.42	  353.29
    115.2700	 2805.00	 2839.87	-1778.62	  353.22
    115.3700	 3129.00	 3169.36	-1784.11	  353.16
    115.4700	 3420.00	 3521.20	-1844.95	  353.09
    115.5700	 3689.00	 3891.15	-1945.90	  353.04
    115.6700	 4070.00	 4273.90	-1947.65	  352.98
    115.7700	 4350.00	 4662.91	-2056.66	  352.93
    115.8700	 4750.00	 5050.33	-2044.08	  352.89
    115.9700	 5082.00	 5427.29	-2089.04	  352.85
    116.0700	 5583.00	 5783.95	-1944.70	  352.81
    116.1700	 5950.00	 6109.88	-1903.63	  352.78
    116.2700	 6325.00	 6394.35	-1813.10	  352.75
    116.3700	 6773.00	 6626.83	-1597.58	  352.73
    116.4700	 6690.00	 6797.95	-1851.70	  352.71
    116.5700	 6929.00	 6900.25	-1715.00	  352.70
    116.6700	 6975.00	 6929.16	-1697.91	  352.69
    116.7700	 6970.00	 6883.52	-1657.27	  352.69
    116.8700	 6955.00	 6765.73	-1554.48	  352.69
    116.9700	 6633.00	 6581.46	-1692.21	  352.70
    117.0700	 6408.00	 6338.96	-1674.71	  352.71
    117.1700	 6212.00	 6048.02	-1579.77	  352.72
    117.2700	 5644.00	 5719.20	-1818.95	  352.74
    117.3700	 5228.00	 5363.16	-1878.91	  352.77
    117.4700	 5061.00	 4990.09	-1672.84	  352.80
    117.5700	 4616.00	 4609.43	-1737.18	  352.84
    117.6700	 4287.00	 4229.47	-1686.22	  352.88
    117.7700	 3976.00	 3857.36	-1625.11	  352.93
    117.8700	 3696.00	 3499.17	-1546.92	  352.98
    117.9700	 3344.00	 3159.69	-1559.44	  353.04
    118.0700	 2944.00	 2842.54	-1642.29	  353.10
    118.1700	 2567.00	 2550.11	-1726.86	  353.17
    118.2700	 2280.00	 2283.77	-1747.52	  353.24
    118.3700	 2023.00	 2044.06	-1764.81	  353.32
    118.4700	 1807.00	 1830.69	-1767.44	  353.41
    118.5700	 1552.00	 1642.75	-1834.50	  353.50
    118.6700	 1363.00	 1478.80	-1859.55	  353.59
    118.7700	 1247.00	 1337.02	-1833.77	  353.70
    118.8700	 1080.00	 1215.45	-1879.20	  353.80
    118.9700	  991.00	 1111.98	-1864.73	  353.92
    119.0700	  953.00	 1024.48	-1815.23	  354.04
    119.1700	  911.00	  950.88	-1783.63	  354.17
    119.2700	  785.00	  889.24	-1847.99	  354.30
    119.3700	  774.00	  837.79	-1807.54	  354.44
    119.4700	  757.00	  794.95	-1781.70	  354.58
    119.5700	  698.00	  759.34	-1805.09	  354.73
    119.6700	  693.00	  729.73	-1780.48	  354.89
    119.7700	  639.00	  705.10	-1809.85	  355.06
    119.8700	  643.00	  684.60	-1785.35	  355.23
    119.9700	  638.00	  667.51	-1773.26	  355.40
    120.0700	  614.00	  653.25	-1783.00	  355.59
    120.1700	  581.00	  641.34	-1804.09	  355.78
    120.2700	  596.00	  631.38	-1779.13	  355.98
    120.3700	  614.00	  623.08	-1752.83	  356.18
    120.4700	  560.00	  616.19	-1799.94	  356.39
    120.5700	  596.00	  610.51	-1758.26	  356.61
    120.6700	  550.00	  605.89	-1799.64	  356.83
    120.7700	  559.00	  602.20	-1786.95	  357.06
    120.8700	  579.00	  599.37	-1764.12	  357.30
    120.9700	  605.00	  597.31	-1736.06	  357.55
    121.0700	  577.00	  595.97	-1762.72	  357.80
    121.1700	  581.00	  595.30	-1758.05	  358.06
    121.2700	  558.00	  595.25	-1781.00	  358.33
    121.3700	  573.00	  595.78	-1766.53	  358.60
    121.4700	  587.00	  596.86	-1753.61	  358.88
    121.5700	  581.00	  598.43	-1761.18	  359.17
    121.6700	  566.00	  600.44	-1778.19	  359.47
    121.7700	  585.00	  602.82	-1761.57	  359.78
    121.8700	  590.00	  605.53	-1759.28	  360.09
    121.9700	  615.00	  608.47	-1737.22	  360.41
    122.0700	  631.00	  611.57	-1724.32	  360.74
    122.1700	  612.00	  614.72	-1746.47	  361.07
    122.2700	  664.00	  617.84	-1697.59	  361.42
    122.3700	  587.00	  620.81	-1777.56	  361.77
    122.4700	  606.00	  623.54	-1761.29	  362.13
    122.5700	  596.00	  625.93	-1773.68	  362.50
    122.6700	  620.00	  627.88	-1751.63	  362.88
    122.7700	  632.00	  629.32	-1741.07	  363.26
    122.8700	  643.00	  630.20	-1730.95	  363.65
    122.9700	  627.00	  630.48	-1747.23	  364.06
    123.0700	  612.00	  630.16	-1761.91	  364.47
    123.1700	  645.00	  629.25	-1728.00	  364.88
    123.2700	  674.00	  627.79	-1697.54	  365.31
    123.3700	  668.00	  625.84	-1701.59	  365.75
    123.4700	  637.00	  623.46	-1730.21	  366.19
    123.5700	  611.00	  620.73	-1753.48	  366.65
    123.6700	  688.00	  617.71	-1673.46	  367.11
    123.7700	  598.00	  614.49	-1760.24	  367.58
    123.8700	  618.00	  611.13	-1736.88	  368.06
    123.9700	  653.00	  607.70	-1698.45	  368.55
    124.0700	  601.00	  604.26	-1747.01	  369.05
    124.1700	  617.00	  600.86	-1727.61	  369.56
    124.2700	  603.00	  597.56	-1738.31	  370.07
    124.3700	  640.00	  594.39	-1698.15	  370.60
    124.4700	  632.00	  591.39	-1703.14	  371.14
    124.5700	  584.00	  588.58	-1748.33	  371.68
    124.6700	  589.00	  585.97	-1740.72	  372.24
    124.7700	  601.00	  583.59	-1726.34	  372.80
    124.8700	  601.00	  581.44	-1724.19	  373.38
    124.9700	  600.00	  491.53	-1635.28	  373.96
    125.0700	  617.00	  492.12	-1743.75	  374.56
    125.1700	  506.00	  492.73	-1743.75	  375.16
    125.2700	  560.00	  493.34	-1743.75	  375.78
    125.3700	  612.00	  493.96	-1743.75	  376.40
    125.4700	  558.00	  494.60	-1743.75	  377.04
    125.5700	  558.00	  495.24	-1743.75	  377.68
    125.6700	  567.00	  495.90	-1743.75	  378.34
    125.7700	  593.00	  496.57	-1743.75	  379.00
    125.8700	  547.00	  497.24	-1743.75	  379.68
    125.9700	  585.00	  497.93	-1743.75	  380.37
    126.0700	  587.00	  498.63	-1743.75	  381.06
    126.1700	  575.00	  499.33	-1743.75	  381.77
    126.2700	  593.00	  500.05	-1743.75	  382.49
    126.3700	  590.00	  500.78	-1743.75	  383.22
    126.4700	  600.00	  501.52	-1743.75	  383.96
    126.5700	  594.00	  502.28	-1743.75	  384.71
    126.6700	  605.00	  503.04	-1743.75	  385.48
    126.7700	  641.00	  503.81	-1743.75	  386.25
    126.8700	  631.00	  504.60	-1743.75	  387.04
    126.9700	  619.00	  505.40	-1743.75	  387.83
    127.0700	  640.00	  506.20	-1743.75	  388.64
    127.1700	  668.00	  507.02	-1743.75	  389.46
    127.2700	  640.00	  507.85	-1743.75	  390.29
    127.3700	  627.00	  508.70	-1743.75	  391.13
    127.4700	  632.00	  509.55	-1743.75	  391.99
    127.5700	  684.00	  510.42	-1743.75	  392.85
    127.6700	  690.00	  511.30	-1743.75	  393.73
    127.7700	  731.00	  512.19	-1743.75	  394.62
    127.8700	  750.00	  513.09	-1743.75	  395.53
    127.9700	  727.00	  514.00	-1743.75	  396.44
    128.0700	  771.00	  514.93	-1743.75	  397.37
    128.1700	  784.00	  515.87	-1743.75	  398.31
    128.2700	  781.00	  516.82	-1743.75	  399.26
    128.3700	  829.00	  517.78	-1743.75	  400.22
    128.4700	  781.00	  518.76	-1743.75	  401.20
    128.5700	    0.00	  519.75	-1743.75	  402.19
    128.6700	    0.00	  520.75	-1743.75	  403.19
     12.3052	        	        	        	        	       0	(  0  0  2)	  0  1
     24.8862	        	        	        	        	       0	(  0  0  4)	  0  1
     28.3323	        	        	        	        	       0	(  1  0  0)	  0  1
     29.0293	        	        	        	        	       0	(  1  0  1)	  0  1
     31.0349	        	        	        	        	       0	(  1  0  2)	  0  1
     34.1422	        	        	        	        	       0	(  1  0  3)	  0  1
     37.7829	        	        	        	        	       0	(  0  0  6)	  0  1
     38.1181	        	        	        	        	       0	(  1  0  4)	  0  1
     42.7669	        	        	        	        	       0	(  1  0  5)	  0  1
     47.9495	        	        	        	        	       0	(  1  0  6)	  0  1
     50.2693	        	        	        	        	       0	(  1  1  0)	  0  1
     51.2016	        	        	        	        	       0	(  0  0  8)	  0  1
     51.9917	        	        	        	        	       0	(  1  1  2)	  0  1
     53.5784	        	        	        	        	       0	(  1  0  7)	  0  1
     56.9379	        	        	        	        	       0	(  1  1  4)	  0  1
     58.7662	        	        	        	        	       0	(  2  0  0)	  0  1
     59.1577	        	        	        	        	       0	(  2  0  1)	  0  1
     59.6071	        	        	        	        	       0	(  1  0  8)	  0  1
     60.3227	        	        	        	        	       0	(  2  0  2)	  0  1
     62.2352	        	        	        	        	       0	(  2  0  3)	  0  1
     64.6300	        	        	        	        	       0	(  1  1  6)	  0  1
     64.8584	        	        	        	        	       0	(  2  0  4)	  0  1
     65.4269	        	        	        	        	       0	(  0  0 10)	  0  1
     66.0215	        	        	        	        	       0	(  1  0  9)	  0  1
     68.1515	        	        	        	        	       0	(  2  0  5)	  0  1
     72.0776	        	        	        	        	       0	(  2  0  6)	  0  1
     72.8355	        	        	        	        	       0	(  1  0 10)	  0  1
     74.6644	        	        	        	        	       0	(  1  1  8)	  0  1
     76.6102	        	        	        	        	       0	(  2  0  7)	  0  1
     80.0907	        	        	        	        	       0	(  1  0 11)	  0  1
     80.9023	        	        	        	        	       0	(  0  0 12)	  0  1
     81.0075	        	        	        	        	       0	(  2  1  0)	  0  1
     81.3472	        	        	        	        	       0	(  2  1  1)	  0  1
     81.7386	        	        	        	        	       0	(  2  0  8)	  0  1
     82.3647	        	        	        	        	       0	(  2  1  2)	  0  1
     84.0554	        	        	        	        	       0	(  2  1  3)	  0  1
     86.4141	        	        	        	        	       0	(  2  1  4)	  0  1
     86.9313	        	        	        	        	       0	(  1  1 10)	  0  1
     87.4745	        	        	        	        	       0	(  2  0  9)	  0  1
     87.8620	        	        	        	        	       0	(  1  0 12)	  0  1
     89.4388	        	        	        	        	       0	(  2  1  5)	  0  1
     93.1348	        	        	        	        	       0	(  2  1  6)	  0  1
     93.8594	        	        	        	        	       0	(  2  0 10)	  0  1
     94.8964	        	        	        	        	       0	(  3  0  0)	  0  1
     95.2336	        	        	        	        	       0	(  3  0  1)	  0  1
     96.2464	        	        	        	        	       0	(  3  0  2)	  0  1
     96.2717	        	        	        	        	       0	(  1  0 13)	  0  1
     97.5217	        	        	        	        	       0	(  2  1  7)	  0  1
     97.9391	        	        	        	        	       0	(  3  0  3)	  0  1
     98.4344	        	        	        	        	       0	(  0  0 14)	  0  1
    100.3212	        	        	        	        	       0	(  3  0  4)	  0  1
    100.9782	        	        	        	        	       0	(  2  0 11)	  0  1
    101.7954	        	        	        	        	       0	(  1  1 12)	  0  1
    102.6420	        	        	        	        	       0	(  2  1  8)	  0  1
    103.4116	        	        	        	        	       0	(  3  0  5)	  0  1
    105.5199	        	        	        	        	       0	(  1  0 14)	  0  1
    107.2451	        	        	        	        	       0	(  3  0  6)	  0  1
    108.5762	        	        	        	        	       0	(  2  1  9)	  0  1
    108.9856	        	        	        	        	       0	(  2  0 12)	  0  1
    111.8834	        	        	        	        	       0	(  3  0  7)	  0  1
    115.4698	        	        	        	        	       0	(  2  1 10)	  0  1
    115.9572	        	        	        	        	       0	(  1  0 15)	  0  1
    116.6216	        	        	        	        	       0	(  2  2  0)	  0  1
    117.4343	        	        	        	        	       0	(  3  0  8)	  0  1
    118.1362	        	        	        	        	       0	(  2  2  2)	  0  1
    118.1648	        	        	        	        	       0	(  2  0 13)	  0  1
    119.9100	        	        	        	        	       0	(  0  0 16)	  0  1
    120.6291	        	        	        	        	       0	(  1  1 14)	  0  1
    122.8199	        	        	        	        	       0	(  2  2  4)	  0  1
    123.5924	        	        	        	        	       0	(  2  1 11)	  0  1
    124.0910	        	        	        	        	       0	(  3  0  9)	  0  1
    124.6871	        	        	        	        	       0	(  3  1  0)	  0  1
    125.0972	        	        	        	        	       0	(  3  1  1)	  0  1
    126.3401	        	        	        	        	       0	(  3  1  2)	  0  1
    128.2912	        	        	        	        	       0	(  1  0 16)	  0  1
    128.4575	        	        	        	        	       0	(  3  1  3)	  0  1
    129.0873	        	        	        	        	       0	(  2  0 14)	  0  1
    131.2561	        	        	        	        	       0	(  2  2  6)	  0  1
    131.5322	        	        	        	        	       0	(  3  1  4)	  0  1
    132.2271	        	        	        	        	       0	(  3  0 10)	  0  1
    133.4983	        	        	        	        	       0	(  2  1 12)	  0  1
    135.7175	        	        	        	        	       0	(  3  1  5)	  0  1
    141.3104	        	        	        	        	       0	(  3  1  6)	  0  1
    142.6987	        	        	        	        	       0	(  3  0 11)	  0  1
    143.2141	        	        	        	        	       0	(  2  0 15)	  0  1
    144.4430	        	        	        	        	       0	(  1  0 17)	  0  1
    145.4828	        	        	        	        	       0	(  2  2  8)	  0  1
    146.6427	        	        	        	        	       0	(  2  1 13)	  0  1
    148.9798	        	        	        	        	       0	(  3  1  7)	  0  1
    149.5362	        	        	        	        	       0	(  1  1 16)	  0  1
    153.9179	        	        	        	        	       0	(  0  0 18)	  0  1
    158.5607	        	        	        	        	       0	(  3  0 12)	  0  1
    158.8484	        	        	        	        	       0	(  4  0  0)	  0  1
    159.8053	        	        	        	        	       0	(  4  0  1)	  0  1
    160.9661	        	        	        	        	       0	(  3  1  8)	  0  1
    162.9845	        	        	        	        	       0	(  4  0  2)	  0  1
    169.5799	        	        	        	        	       0	(  2  0 16)	  0  1
    170.3357	        	        	        	        	       0	(  4  0  3)	  0  1
    173.9888	        	        	        	        	       0	(  2  1 14)	  0  1
