MSG Master    CELL:    5.91939   5.91939  23.27803   90.0000   90.0000  120.0000   SPGR: P 63/m m c             TEMP:   1074.95
  1   1280     2.52000     0.00000    -0.12126     0.00000     0.00000    0
    99     0     2
       0.00000      10.00000
     125.00000     130.00000
 2Theta	Yobs	Ycal	Yobs-Ycal	Backg	Posr	(hkl)	K
      0.7700	    0.00	  533.21	-1736.75	  414.95
      0.8700	    0.00	  534.08	-1736.75	  415.82
      0.9700	   37.00	  534.94	-1736.75	  416.68
      1.0700	   51.00	  535.79	-1736.75	  417.53
      1.1700	   33.00	  536.63	-1736.75	  418.37
      1.2700	   58.00	  537.45	-1736.75	  419.19
      1.3700	   55.00	  538.26	-1736.75	  420.00
      1.4700	   82.00	  539.06	-1736.75	  420.80
      1.5700	  287.00	  539.85	-1736.75	  421.59
      1.6700	  458.00	  540.63	-1736.75	  422.37
      1.7700	  566.00	  541.39	-1736.75	  423.13
      1.8700	  666.00	  542.15	-1736.75	  423.89
      1.9700	  723.00	  542.89	-1736.75	  424.63
      2.0700	  767.00	  543.63	-1736.75	  425.37
      2.1700	  782.00	  544.35	-1736.75	  426.09
      2.2700	  752.00	  545.06	-1736.75	  426.80
      2.3700	  801.00	  545.76	-1736.75	  427.50
      2.4700	  723.00	  546.45	-1736.75	  428.19
      2.5700	  719.00	  547.12	-1736.75	  428.86
      2.6700	  622.00	  547.79	-1736.75	  429.53
      2.7700	  694.00	  548.45	-1736.75	  430.19
      2.8700	  644.00	  549.09	-1736.75	  430.83
      2.9700	  596.00	  549.73	-1736.75	  431.47
      3.0700	  585.00	  550.35	-1736.75	  432.09
      3.1700	  601.00	  550.97	-1736.75	  432.71
      3.2700	  620.00	  551.57	-1736.75	  433.31
      3.3700	  699.00	  552.17	-1736.75	  433.91
      3.4700	  707.00	  552.75	-1736.75	  434.49
      3.5700	  787.00	  553.33	-1736.75	  435.07
      3.6700	  828.00	  553.89	-1736.75	  435.63
      3.7700	  873.00	  554.45	-1736.75	  436.19
      3.8700	  970.00	  554.99	-1736.75	  436.73
      3.9700	  996.00	  555.53	-1736.75	  437.27
      4.0700	 1050.00	  556.05	-1736.75	  437.79
      4.1700	 1055.00	  556.57	-1736.75	  438.31
      4.2700	 1072.00	  557.08	-1736.75	  438.82
      4.3700	 1060.00	  557.57	-1736.75	  439.31
      4.4700	 1056.00	  558.06	-1736.75	  439.80
      4.5700	 1004.00	  558.54	-1736.75	  440.28
      4.6700	 1052.00	  559.01	-1736.75	  440.75
      4.7700	  998.00	  559.47	-1736.75	  441.21
      4.8700	  973.00	  559.92	-1736.75	  441.66
      4.9700	 1002.00	  560.36	-1736.75	  442.10
      5.0700	  956.00	  560.79	-1736.75	  442.53
      5.1700	  929.00	  561.22	-1736.75	  442.96
      5.2700	  884.00	  561.63	-1736.75	  443.37
      5.3700	  942.00	  562.04	-1736.75	  443.78
      5.4700	  860.00	  562.43	-1736.75	  444.17
      5.5700	  882.00	  562.82	-1736.75	  444.56
      5.6700	  896.00	  563.20	-1736.75	  444.94
      5.7700	  829.00	  563.57	-1736.75	  445.31
      5.8700	  827.00	  563.94	-1736.75	  445.68
      5.9700	  811.00	  564.29	-1736.75	  446.03
      6.0700	  712.00	  564.64	-1736.75	  446.38
      6.1700	  765.00	  564.98	-1736.75	  446.72
      6.2700	  807.00	  565.31	-1736.75	  447.05
      6.3700	  762.00	  565.63	-1736.75	  447.37
      6.4700	  731.00	  565.94	-1736.75	  447.68
      6.5700	  729.00	  566.25	-1736.75	  447.99
      6.6700	  745.00	  566.55	-1736.75	  448.29
      6.7700	  668.00	  566.84	-1736.75	  448.58
      6.8700	  720.00	  567.12	-1736.75	  448.86
      6.9700	  710.00	  567.40	-1736.75	  449.14
      7.0700	  679.00	  567.66	-1736.75	  449.40
      7.1700	  706.00	  567.92	-1736.75	  449.66
      7.2700	  744.00	  568.18	-1736.75	  449.92
      7.3700	  652.00	  568.42	-1736.75	  450.16
      7.4700	  652.00	  568.66	-1736.75	  450.40
      7.5700	  698.00	  568.89	-1736.75	  450.63
      7.6700	  655.00	  569.11	-1736.75	  450.85
      7.7700	  661.00	  569.32	-1736.75	  451.06
      7.8700	  610.00	  569.53	-1736.75	  451.27
      7.9700	  616.00	  569.73	-1736.75	  451.47
      8.0700	  631.00	  569.93	-1736.75	  451.67
      8.1700	  651.00	  570.11	-1736.75	  451.85
      8.2700	  618.00	  570.29	-1736.75	  452.03
      8.3700	  629.00	  570.47	-1736.75	  452.21
      8.4700	  646.00	  570.63	-1736.75	  452.37
      8.5700	  627.00	  570.79	-1736.75	  452.53
      8.6700	  620.00	  570.95	-1736.75	  452.69
      8.7700	  586.00	  571.09	-1736.75	  452.83
      8.8700	  651.00	  571.23	-1736.75	  452.97
      8.9700	  631.00	  571.37	-1736.75	  453.10
      9.0700	  642.00	  571.49	-1736.75	  453.23
      9.1700	  607.00	  571.61	-1736.75	  453.35
      9.2700	  631.00	  571.73	-1736.75	  453.47
      9.3700	  589.00	  571.83	-1736.75	  453.57
      9.4700	  572.00	  571.94	-1736.75	  453.67
      9.5700	  612.00	  572.03	-1736.75	  453.77
      9.6700	  590.00	  572.12	-1736.75	  453.86
      9.7700	  616.00	  572.20	-1736.75	  453.94
      9.8700	  581.00	  572.28	-1736.75	  454.02
      9.9700	  592.00	  572.35	-1736.75	  454.09
     10.0700	  570.00	  573.21	-1739.96	  454.16
     10.1700	  575.00	  573.35	-1735.10	  454.22
     10.2700	  575.00	  573.51	-1735.26	  454.27
     10.3700	  600.00	  573.69	-1710.44	  454.32
     10.4700	  599.00	  573.93	-1711.68	  454.36
     10.5700	  580.00	  574.27	-1731.02	  454.40
     10.6700	  599.00	  574.82	-1712.57	  454.43
     10.7700	  616.00	  575.68	-1696.43	  454.45
     10.8700	  659.00	  576.92	-1654.67	  454.47
     10.9700	  604.00	  578.55	-1711.30	  454.49
     11.0700	  585.00	  580.52	-1732.27	  454.50
     11.1700	  583.00	  582.83	-1736.58	  454.50
     11.2700	  543.00	  585.51	-1779.26	  454.50
     11.3700	  618.00	  588.65	-1707.40	  454.49
     11.4700	  596.00	  592.36	-1733.11	  454.48
     11.5700	  652.00	  596.86	-1681.61	  454.46
     11.6700	  622.00	  602.48	-1717.23	  454.44
     11.7700	  612.00	  609.82	-1734.57	  454.42
     11.8700	  656.00	  619.82	-1700.57	  454.38
     11.9700	  660.00	  633.16	-1709.91	  454.35
     12.0700	  641.00	  648.34	-1744.09	  454.31
     12.1700	  647.00	  659.30	-1749.05	  454.26
     12.2700	  713.00	  656.31	-1680.06	  454.21
     12.3700	  634.00	  636.13	-1738.88	  454.15
     12.4700	  580.00	  611.12	-1767.87	  454.09
     12.5700	  618.00	  592.74	-1711.49	  454.03
     12.6700	  573.00	  582.75	-1746.50	  453.96
     12.7700	  612.00	  578.26	-1703.01	  453.88
     12.8700	  567.00	  576.26	-1746.01	  453.81
     12.9700	  515.00	  575.19	-1796.94	  453.72
     13.0700	  593.00	  574.47	-1718.22	  453.64
     13.1700	  585.00	  573.93	-1725.68	  453.55
     13.2700	  564.00	  573.51	-1746.26	  453.45
     13.3700	  528.00	  573.15	-1781.90	  453.35
     13.4700	  526.00	  572.85	-1783.60	  453.25
     13.5700	  565.00	  572.58	-1744.33	  453.14
     13.6700	  538.00	  572.34	-1771.09	  453.03
     13.7700	  538.00	  572.12	-1770.87	  452.91
     13.8700	  558.00	  571.91	-1750.66	  452.79
     13.9700	  563.00	  571.71	-1745.46	  452.67
     14.0700	  561.00	  571.52	-1747.27	  452.54
     14.1700	  579.00	  571.33	-1729.08	  452.41
     14.2700	  537.00	  571.15	-1770.90	  452.27
     14.3700	  517.00	  570.97	-1790.72	  452.13
     14.4700	  559.00	  570.79	-1748.54	  451.99
     14.5700	  578.00	  570.62	-1729.37	  451.84
     14.6700	  579.00	  570.44	-1728.19	  451.69
     14.7700	  584.00	  570.26	-1723.01	  451.54
     14.8700	  570.00	  570.08	-1736.83	  451.38
     14.9700	  533.00	  569.90	-1773.65	  451.22
     15.0700	  500.00	  569.72	-1806.47	  451.06
     15.1700	  553.00	  569.53	-1753.28	  450.89
     15.2700	  555.00	  569.35	-1751.10	  450.72
     15.3700	  557.00	  569.16	-1748.91	  450.54
     15.4700	  561.00	  568.97	-1744.72	  450.37
     15.5700	  584.00	  568.78	-1721.53	  450.19
     15.6700	  536.00	  568.59	-1769.34	  450.00
     15.7700	  568.00	  568.39	-1737.14	  449.81
     15.8700	  585.00	  568.19	-1719.94	  449.62
     15.9700	  607.00	  567.99	-1697.74	  449.43
     16.0700	  510.00	  567.79	-1794.54	  449.24
     16.1700	  581.00	  567.61	-1723.36	  449.04
     16.2700	  547.00	  567.40	-1757.15	  448.83
     16.3700	  567.00	  567.19	-1736.94	  448.63
     16.4700	  574.00	  566.98	-1729.73	  448.42
     16.5700	  544.00	  566.77	-1759.52	  448.21
     16.6700	  539.00	  566.55	-1764.30	  448.00
     16.7700	  558.00	  566.33	-1745.08	  447.78
     16.8700	  530.00	  566.11	-1772.86	  447.56
     16.9700	  563.00	  565.88	-1739.63	  447.34
     17.0700	  522.00	  565.66	-1780.41	  447.12
     17.1700	  589.00	  565.43	-1713.18	  446.89
     17.2700	  589.00	  565.20	-1712.95	  446.66
     17.3700	  593.00	  564.96	-1708.71	  446.43
     17.4700	  545.00	  564.73	-1756.48	  446.20
     17.5700	  573.00	  564.49	-1728.24	  445.96
     17.6700	  579.00	  564.25	-1722.00	  445.73
     17.7700	  556.00	  564.01	-1744.76	  445.48
     17.8700	  566.00	  563.77	-1734.52	  445.24
     17.9700	  559.00	  563.52	-1741.27	  445.00
     18.0700	  610.00	  563.37	-1690.12	  444.75
     18.1700	  549.00	  563.12	-1750.87	  444.50
     18.2700	  576.00	  562.87	-1723.62	  444.25
     18.3700	  563.00	  562.62	-1736.37	  443.99
     18.4700	  574.00	  562.37	-1725.12	  443.74
     18.5700	  556.00	  562.11	-1742.86	  443.48
     18.6700	  521.00	  561.85	-1777.60	  443.22
     18.7700	  592.00	  561.59	-1706.34	  442.96
     18.8700	  555.00	  561.42	-1743.17	  442.69
     18.9700	  548.00	  561.16	-1749.91	  442.43
     19.0700	  504.00	  560.89	-1793.64	  442.16
     19.1700	  554.00	  560.63	-1743.38	  441.89
     19.2700	  587.00	  560.37	-1710.12	  441.62
     19.3700	  559.00	  560.10	-1737.85	  441.35
     19.4700	  550.00	  559.83	-1746.58	  441.07
     19.5700	  525.00	  559.56	-1771.31	  440.79
     19.6700	  520.00	  559.29	-1776.04	  440.52
     19.7700	  553.00	  559.02	-1742.77	  440.24
     19.8700	  560.00	  558.75	-1735.50	  439.96
     19.9700	  538.00	  558.47	-1757.22	  439.67
     20.0700	  558.00	  558.20	-1736.95	  439.39
     20.1700	  559.00	  557.92	-1735.67	  439.10
     20.2700	  553.00	  557.64	-1741.39	  438.82
     20.3700	  544.00	  557.37	-1750.12	  438.53
     20.4700	  540.00	  557.05	-1753.80	  438.24
     20.5700	  570.00	  556.78	-1723.53	  437.95
     20.6700	  588.00	  556.50	-1705.25	  437.65
     20.7700	  562.00	  556.22	-1730.97	  437.36
     20.8700	  566.00	  555.98	-1726.73	  437.06
     20.9700	  571.00	  555.70	-1721.45	  436.77
     21.0700	  565.00	  555.42	-1727.17	  436.47
     21.1700	  555.00	  555.14	-1736.89	  436.17
     21.2700	  541.00	  554.86	-1750.61	  435.87
     21.3700	  530.00	  554.58	-1761.33	  435.57
     21.4700	  567.00	  554.30	-1724.05	  435.27
     21.5700	  551.00	  554.02	-1739.77	  434.97
     21.6700	  552.00	  553.74	-1738.49	  434.66
     21.7700	  533.00	  553.46	-1757.21	  434.36
     21.8700	  589.00	  553.19	-1700.94	  434.05
     21.9700	  496.00	  552.91	-1793.66	  433.74
     22.0700	  563.00	  552.64	-1726.39	  433.44
     22.1700	  543.00	  552.37	-1746.12	  433.13
     22.2700	  533.00	  552.10	-1755.85	  432.82
     22.3700	  602.00	  551.83	-1686.58	  432.51
     22.4700	  543.00	  551.57	-1745.32	  432.20
     22.5700	  549.00	  551.31	-1739.06	  431.89
     22.6700	  530.00	  551.06	-1757.81	  431.57
     22.7700	  581.00	  550.82	-1706.57	  431.26
     22.8700	  565.00	  550.58	-1722.33	  430.95
     22.9700	  586.00	  550.35	-1701.10	  430.63
     23.0700	  576.00	  550.14	-1710.89	  430.32
     23.1700	  547.00	  549.94	-1739.69	  430.00
     23.2700	  543.00	  549.76	-1743.51	  429.69
     23.3700	  534.00	  549.61	-1752.36	  429.37
     23.4700	  533.00	  549.49	-1753.24	  429.05
     23.5700	  545.00	  549.42	-1741.17	  428.73
     23.6700	  561.00	  549.42	-1725.17	  428.42
     23.7700	  589.00	  549.67	-1697.42	  428.10
     23.8700	  551.00	  550.00	-1735.75	  427.78
     23.9700	  564.00	  550.78	-1723.53	  427.46
     24.0700	  589.00	  552.44	-1700.19	  427.14
     24.1700	  580.00	  555.66	-1712.41	  426.82
     24.2700	  602.00	  561.30	-1696.05	  426.50
     24.3700	  615.00	  570.33	-1692.08	  426.18
     24.4700	  615.00	  583.81	-1705.56	  425.86
     24.5700	  596.00	  601.98	-1742.73	  425.54
     24.6700	  562.00	  621.99	-1796.74	  425.22
     24.7700	  672.00	  635.78	-1700.53	  424.90
     24.8700	  637.00	  632.60	-1732.35	  424.58
     24.9700	  571.00	  611.17	-1776.92	  424.26
     25.0700	  616.00	  585.27	-1706.02	  423.93
     25.1700	  576.00	  565.92	-1726.67	  423.61
     25.2700	  589.00	  555.02	-1702.77	  423.29
     25.3700	  595.00	  549.91	-1691.66	  422.97
     25.4700	  535.00	  547.59	-1749.34	  422.65
     25.5700	  539.00	  546.36	-1744.11	  422.33
     25.6700	  562.00	  545.56	-1720.31	  422.01
     25.7700	  575.00	  544.98	-1706.73	  421.68
     25.8700	  521.00	  544.53	-1760.28	  421.36
     25.9700	  511.00	  544.19	-1769.94	  421.04
     26.0700	  550.00	  543.94	-1730.69	  420.72
     26.1700	  553.00	  543.77	-1727.52	  420.40
     26.2700	  575.00	  543.67	-1705.42	  420.08
     26.3700	  529.00	  543.64	-1751.39	  419.76
     26.4700	  569.00	  543.70	-1711.45	  419.44
     26.5700	  501.00	  543.85	-1779.60	  419.12
     26.6700	  547.00	  544.11	-1733.86	  418.80
     26.7700	  570.00	  544.50	-1711.25	  418.48
     26.8700	  540.00	  545.05	-1741.80	  418.16
     26.9700	  530.00	  545.82	-1752.57	  417.84
     27.0700	  569.00	  546.88	-1714.63	  417.52
     27.1700	  543.00	  548.35	-1742.10	  417.21
     27.2700	  572.00	  550.47	-1715.22	  416.89
     27.3700	  580.00	  553.71	-1710.46	  416.57
     27.4700	  544.00	  558.97	-1751.72	  416.26
     27.5700	  557.00	  567.93	-1747.68	  415.94
     27.6700	  583.00	  583.20	-1736.95	  415.62
     27.7700	  571.00	  608.22	-1773.97	  415.31
     27.8700	  602.00	  646.00	-1780.75	  414.99
     27.9700	  689.00	  696.86	-1744.61	  414.68
     28.0700	  795.00	  755.23	-1696.98	  414.37
     28.1700	  842.00	  806.87	-1701.62	  414.05
     28.2700	  992.00	  830.05	-1574.80	  413.74
     28.3700	  887.00	  811.16	-1660.91	  413.43
     28.4700	  769.00	  769.88	-1737.63	  413.12
     28.5700	  700.00	  740.76	-1777.51	  412.81
     28.6700	  692.00	  740.22	-1784.97	  412.50
     28.7700	  751.00	  764.12	-1749.87	  412.19
     28.8700	  759.00	  793.13	-1770.88	  411.88
     28.9700	  805.00	  799.42	-1731.17	  411.57
     29.0700	  771.00	  764.42	-1730.17	  411.26
     29.1700	  687.00	  702.60	-1752.35	  410.96
     29.2700	  649.00	  642.84	-1730.59	  410.65
     29.3700	  635.00	  599.40	-1701.15	  410.35
     29.4700	  611.00	  573.05	-1698.80	  410.04
     29.5700	  589.00	  558.80	-1706.55	  409.74
     29.6700	  599.00	  551.32	-1689.07	  409.44
     29.7700	  611.00	  547.14	-1672.89	  409.14
     29.8700	  593.00	  544.57	-1688.32	  408.84
     29.9700	  565.00	  542.98	-1714.73	  408.54
     30.0700	  615.00	  542.23	-1663.98	  408.24
     30.1700	  585.00	  542.50	-1694.25	  407.94
     30.2700	  527.00	  544.38	-1754.13	  407.64
     30.3700	  564.00	  549.03	-1721.78	  407.35
     30.4700	  617.00	  558.19	-1677.94	  407.05
     30.5700	  523.00	  573.76	-1787.51	  406.76
     30.6700	  548.00	  596.33	-1785.08	  406.46
     30.7700	  596.00	  623.21	-1763.96	  406.17
     30.8700	  625.00	  646.93	-1758.68	  405.88
     30.9700	  615.00	  655.88	-1777.63	  405.59
     31.0700	  591.00	  641.82	-1787.57	  405.30
     31.1700	  574.00	  611.95	-1774.70	  405.01
     31.2700	  593.00	  581.58	-1725.33	  404.73
     31.3700	  586.00	  559.00	-1709.75	  404.44
     31.4700	  546.00	  545.22	-1735.97	  404.16
     31.5700	  549.00	  537.84	-1725.59	  403.87
     31.6700	  592.00	  534.06	-1678.81	  403.59
     31.7700	  566.00	  531.99	-1702.74	  403.31
     31.8700	  521.00	  530.69	-1746.44	  403.03
     31.9700	  529.00	  529.79	-1737.54	  402.75
     32.0700	  579.00	  529.15	-1686.90	  402.47
     32.1700	  538.00	  528.71	-1727.46	  402.20
     32.2700	  565.00	  528.44	-1700.19	  401.92
     32.3700	  539.00	  528.33	-1726.08	  401.65
     32.4700	  559.00	  528.38	-1706.12	  401.37
     32.5700	  544.00	  528.60	-1721.35	  401.10
     32.6700	  570.00	  529.03	-1695.78	  400.83
     32.7700	  554.00	  529.70	-1712.45	  400.56
     32.8700	  567.00	  530.69	-1700.44	  400.29
     32.9700	  546.00	  532.12	-1722.87	  400.03
     33.0700	  571.00	  534.18	-1699.93	  399.76
     33.1700	  596.00	  537.36	-1678.11	  399.50
     33.2700	  540.00	  542.68	-1739.43	  399.24
     33.3700	  601.00	  552.45	-1688.20	  398.97
     33.4700	  561.00	  571.04	-1746.79	  398.71
     33.5700	  598.00	  605.54	-1744.29	  398.46
     33.6700	  678.00	  664.13	-1722.88	  398.20
     33.7700	  770.00	  750.64	-1717.39	  397.94
     33.8700	  919.00	  856.04	-1673.79	  397.69
     33.9700	 1105.00	  952.43	-1584.18	  397.43
     34.0700	 1040.00	  996.51	-1693.26	  397.18
     34.1700	 1032.00	  955.41	-1660.16	  396.93
     34.2700	  823.00	  850.02	-1763.77	  396.68
     34.3700	  784.00	  735.29	-1688.04	  396.44
     34.4700	  655.00	  645.92	-1727.67	  396.19
     34.5700	  591.00	  589.46	-1735.21	  395.94
     34.6700	  566.00	  558.81	-1729.56	  395.70
     34.7700	  534.00	  543.40	-1746.15	  395.46
     34.8700	  570.00	  535.40	-1702.15	  395.22
     34.9700	  536.00	  530.64	-1731.39	  394.98
     35.0700	  529.00	  527.37	-1735.12	  394.74
     35.1700	  567.00	  524.90	-1694.65	  394.51
     35.2700	  476.00	  522.97	-1783.72	  394.27
     35.3700	  498.00	  521.39	-1760.14	  394.04
     35.4700	  520.00	  520.08	-1736.83	  393.81
     35.5700	  518.00	  518.97	-1737.72	  393.58
     35.6700	  513.00	  518.02	-1741.77	  393.35
     35.7700	  528.00	  517.20	-1725.95	  393.13
     35.8700	  512.00	  516.47	-1741.22	  392.90
     35.9700	  504.00	  516.31	-1749.06	  392.68
     36.0700	  557.00	  515.74	-1695.49	  392.46
     36.1700	  509.00	  515.23	-1742.98	  392.24
     36.2700	  482.00	  514.77	-1769.52	  392.02
     36.3700	  525.00	  514.36	-1726.11	  391.80
     36.4700	  510.00	  513.99	-1740.74	  391.58
     36.5700	  495.00	  513.66	-1755.41	  391.37
     36.6700	  531.00	  513.37	-1719.12	  391.16
     36.7700	  469.00	  513.14	-1780.89	  390.95
     36.8700	  565.00	  512.98	-1684.73	  390.74
     36.9700	  543.00	  512.97	-1706.72	  390.53
     37.0700	  516.00	  513.27	-1734.02	  390.33
     37.1700	  532.00	  514.14	-1718.89	  390.12
     37.2700	  497.00	  516.03	-1755.78	  389.92
     37.3700	  494.00	  519.34	-1762.09	  389.72
     37.4700	  516.00	  524.10	-1744.85	  389.52
     37.5700	  523.00	  529.49	-1743.24	  389.32
     37.6700	  517.00	  533.86	-1753.61	  389.13
     37.7700	  529.00	  535.28	-1743.03	  388.93
     37.8700	  561.00	  533.32	-1709.07	  388.74
     37.9700	  536.00	  529.49	-1730.24	  388.55
     38.0700	  508.00	  525.12	-1753.86	  388.36
     38.1700	  496.00	  520.68	-1761.43	  388.17
     38.2700	  533.00	  516.67	-1720.42	  387.99
     38.3700	  470.00	  513.52	-1780.27	  387.80
     38.4700	  525.00	  511.32	-1723.07	  387.62
     38.5700	  487.00	  509.90	-1759.65	  387.44
     38.6700	  478.00	  509.03	-1767.78	  387.26
     38.7700	  491.00	  508.38	-1754.13	  387.08
     38.8700	  538.00	  508.00	-1706.75	  386.91
     38.9700	  520.00	  507.69	-1724.44	  386.73
     39.0700	  517.00	  507.43	-1727.18	  386.56
     39.1700	  504.00	  507.12	-1739.87	  386.39
     39.2700	  519.00	  506.91	-1724.66	  386.22
     39.3700	  514.00	  506.71	-1729.46	  386.06
     39.4700	  495.00	  506.53	-1748.28	  385.89
     39.5700	  521.00	  506.49	-1722.24	  385.73
     39.6700	  483.00	  506.34	-1760.09	  385.57
     39.7700	  528.00	  506.20	-1714.95	  385.41
     39.8700	  503.00	  506.06	-1739.81	  385.25
     39.9700	  510.00	  505.94	-1732.69	  385.09
     40.0700	  498.00	  505.82	-1744.57	  384.94
     40.1700	  521.00	  505.72	-1721.47	  384.79
     40.2700	  497.00	  505.63	-1745.38	  384.63
     40.3700	  441.00	  505.55	-1801.30	  384.49
     40.4700	  480.00	  505.48	-1762.23	  384.34
     40.5700	  489.00	  505.43	-1753.18	  384.19
     40.6700	  503.00	  505.40	-1739.15	  384.05
     40.7700	  519.00	  505.38	-1723.13	  383.91
     40.8700	  485.00	  505.39	-1757.14	  383.77
     40.9700	  516.00	  505.42	-1726.17	  383.63
     41.0700	  505.00	  505.49	-1737.24	  383.49
     41.1700	  472.00	  505.56	-1770.31	  383.36
     41.2700	  515.00	  505.72	-1727.47	  383.22
     41.3700	  526.00	  505.94	-1716.69	  383.09
     41.4700	  518.00	  506.25	-1725.00	  382.96
     41.5700	  487.00	  507.09	-1756.84	  382.83
     41.6700	  513.00	  507.68	-1731.43	  382.71
     41.7700	  505.00	  508.59	-1740.34	  382.58
     41.8700	  479.00	  510.11	-1767.86	  382.46
     41.9700	  508.00	  512.93	-1741.68	  382.34
     42.0700	  475.00	  518.41	-1780.16	  382.22
     42.1700	  531.00	  528.68	-1734.43	  382.10
     42.2700	  521.00	  546.25	-1762.00	  381.99
     42.3700	  540.00	  572.60	-1769.35	  381.87
     42.4700	  555.00	  605.66	-1787.41	  381.76
     42.5700	  619.00	  638.31	-1756.06	  381.65
     42.6700	  600.00	  658.75	-1795.50	  381.54
     42.7700	  576.00	  656.34	-1817.09	  381.44
     42.8700	  562.00	  631.49	-1806.24	  381.33
     42.9700	  571.00	  596.69	-1762.44	  381.23
     43.0700	  527.00	  564.07	-1773.82	  381.13
     43.1700	  495.00	  539.64	-1781.39	  381.03
     43.2700	  505.00	  524.15	-1755.90	  380.93
     43.3700	  477.00	  515.52	-1775.27	  380.84
     43.4700	  496.00	  511.07	-1751.82	  380.74
     43.5700	  514.00	  508.77	-1731.52	  380.65
     43.6700	  530.00	  507.46	-1714.21	  380.56
     43.7700	  510.00	  506.80	-1733.55	  380.47
     43.8700	  529.00	  506.19	-1713.94	  380.39
     43.9700	  510.00	  505.73	-1732.48	  380.30
     44.0700	  532.00	  505.41	-1710.16	  380.22
     44.1700	  485.00	  505.13	-1756.88	  380.14
     44.2700	  504.00	  504.92	-1737.67	  380.06
     44.3700	  536.00	  504.76	-1705.51	  379.98
     44.4700	  523.00	  504.51	-1718.26	  379.90
     44.5700	  522.00	  504.42	-1719.17	  379.83
     44.6700	  503.00	  504.38	-1738.12	  379.75
     44.7700	  486.00	  504.35	-1755.10	  379.68
     44.8700	  486.00	  504.36	-1755.11	  379.61
     44.9700	  463.00	  504.39	-1778.14	  379.55
     45.0700	  489.00	  504.44	-1752.19	  379.48
     45.1700	  533.00	  504.51	-1708.26	  379.42
     45.2700	  513.00	  504.79	-1728.54	  379.36
     45.3700	  517.00	  504.91	-1724.66	  379.29
     45.4700	  499.00	  505.05	-1742.80	  379.24
     45.5700	  498.00	  505.22	-1743.97	  379.18
     45.6700	  497.00	  505.41	-1745.16	  379.12
     45.7700	  483.00	  505.63	-1759.38	  379.07
     45.8700	  505.00	  505.88	-1737.63	  379.02
     45.9700	  512.00	  506.16	-1730.91	  378.97
     46.0700	  523.00	  506.47	-1720.22	  378.92
     46.1700	  511.00	  506.83	-1732.58	  378.87
     46.2700	  505.00	  507.23	-1738.98	  378.83
     46.3700	  509.00	  507.68	-1735.43	  378.79
     46.4700	  527.00	  508.19	-1717.94	  378.74
     46.5700	  484.00	  508.78	-1761.53	  378.70
     46.6700	  540.00	  509.46	-1706.21	  378.67
     46.7700	  518.00	  510.26	-1729.01	  378.63
     46.8700	  509.00	  511.24	-1738.99	  378.60
     46.9700	  484.00	  512.53	-1765.28	  378.56
     47.0700	  514.00	  514.42	-1737.17	  378.53
     47.1700	  512.00	  517.52	-1742.27	  378.50
     47.2700	  548.00	  522.80	-1711.55	  378.47
     47.3700	  494.00	  531.50	-1774.25	  378.45
     47.4700	  516.00	  544.84	-1765.59	  378.42
     47.5700	  564.00	  563.01	-1735.76	  378.40
     47.6700	  595.00	  584.14	-1725.89	  378.38
     47.7700	  650.00	  603.74	-1690.49	  378.36
     47.8700	  599.00	  615.37	-1753.12	  378.34
     47.9700	  573.00	  614.16	-1777.91	  378.32
     48.0700	  589.00	  601.33	-1749.08	  378.31
     48.1700	  596.00	  583.37	-1724.12	  378.30
     48.2700	  550.00	  566.38	-1753.13	  378.28
     48.3700	  546.00	  553.86	-1744.61	  378.27
     48.4700	  534.00	  546.73	-1749.48	  378.27
     48.5700	  545.00	  544.32	-1736.07	  378.26
     48.6700	  518.00	  545.42	-1764.17	  378.26
     48.7700	  540.00	  548.99	-1745.74	  378.25
     48.8700	  508.00	  554.53	-1783.28	  378.25
     48.9700	  554.00	  562.06	-1744.81	  378.25
     49.0700	  604.00	  572.27	-1705.02	  378.25
     49.1700	  601.00	  586.79	-1722.54	  378.25
     49.2700	  631.00	  609.12	-1714.87	  378.26
     49.3700	  649.00	  645.92	-1733.68	  378.26
     49.4700	  698.00	  708.46	-1747.21	  378.27
     49.5700	  830.00	  813.29	-1720.04	  378.28
     49.6700	  914.00	  978.35	-1801.10	  378.29
     49.7700	 1152.00	 1218.12	-1802.87	  378.30
     49.8700	 1444.00	 1531.31	-1824.06	  378.32
     49.9700	 1851.00	 1889.27	-1775.02	  378.33
     50.0700	 2219.00	 2226.55	-1744.30	  378.35
     50.1700	 2522.00	 2444.89	-1659.64	  378.37
     50.2700	 2525.00	 2455.15	-1666.90	  378.39
     50.3700	 2372.00	 2250.34	-1615.09	  378.41
     50.4700	 1954.00	 1916.57	-1699.32	  378.43
     50.5700	 1450.00	 1558.01	-1844.76	  378.46
     50.6700	 1099.00	 1244.32	-1882.07	  378.48
     50.7700	  839.00	 1006.14	-1903.89	  378.51
     50.8700	  720.00	  845.44	-1862.19	  378.54
     50.9700	  653.00	  747.06	-1830.81	  378.57
     51.0700	  635.00	  689.88	-1791.63	  378.60
     51.1700	  658.00	  654.87	-1733.62	  378.63
     51.2700	  658.00	  629.48	-1708.23	  378.67
     51.3700	  545.00	  608.37	-1800.12	  378.71
     51.4700	  591.00	  590.48	-1736.23	  378.74
     51.5700	  548.00	  576.04	-1764.79	  378.78
     51.6700	  535.00	  565.16	-1766.91	  378.82
     51.7700	  574.00	  557.47	-1720.22	  378.86
     51.8700	  551.00	  552.27	-1738.02	  378.91
     51.9700	  559.00	  548.78	-1726.53	  378.95
     52.0700	  584.00	  546.47	-1699.22	  379.00
     52.1700	  533.00	  545.06	-1748.81	  379.04
     52.2700	  553.00	  544.74	-1728.49	  379.09
     52.3700	  538.00	  545.25	-1744.00	  379.14
     52.4700	  549.00	  547.27	-1735.02	  379.19
     52.5700	  575.00	  551.87	-1713.62	  379.25
     52.6700	  553.00	  561.28	-1745.03	  379.30
     52.7700	  580.00	  579.61	-1736.36	  379.36
     52.8700	  663.00	  613.12	-1686.87	  379.41
     52.9700	  714.00	  669.49	-1692.24	  379.47
     53.0700	  852.00	  755.02	-1639.77	  379.53
     53.1700	  945.00	  870.11	-1661.86	  379.59
     53.2700	 1060.00	 1004.24	-1680.99	  379.65
     53.3700	 1132.00	 1133.07	-1737.82	  379.72
     53.4700	 1127.00	 1220.69	-1830.44	  379.78
     53.5700	 1167.00	 1233.63	-1803.38	  379.85
     53.6700	 1055.00	 1165.64	-1847.39	  379.91
     53.7700	 1015.00	 1044.44	-1766.19	  379.98
     53.8700	  881.00	  908.31	-1764.06	  380.05
     53.9700	  772.00	  785.88	-1750.63	  380.12
     54.0700	  638.00	  691.55	-1790.30	  380.19
     54.1700	  641.00	  627.55	-1723.30	  380.27
     54.2700	  651.00	  588.68	-1674.43	  380.34
     54.3700	  571.00	  567.10	-1732.85	  380.42
     54.4700	  584.00	  555.97	-1708.72	  380.49
     54.5700	  570.00	  550.48	-1717.23	  380.57
     54.6700	  552.00	  547.92	-1732.67	  380.65
     54.7700	  567.00	  546.96	-1716.71	  380.73
     54.8700	  580.00	  547.01	-1703.76	  380.81
     54.9700	  578.00	  547.86	-1706.61	  380.89
     55.0700	  573.00	  549.41	-1713.16	  380.98
     55.1700	  557.00	  551.70	-1731.45	  381.06
     55.2700	  531.00	  554.79	-1760.54	  381.15
     55.3700	  529.00	  558.76	-1766.51	  381.23
     55.4700	  625.00	  563.85	-1675.60	  381.32
     55.5700	  581.00	  570.43	-1726.18	  381.41
     55.6700	  542.00	  579.29	-1774.04	  381.50
     55.7700	  574.00	  592.02	-1754.77	  381.59
     55.8700	  576.00	  611.84	-1772.59	  381.68
     55.9700	  667.00	  644.80	-1714.55	  381.78
     56.0700	  660.00	  701.04	-1777.79	  381.87
     56.1700	  714.00	  795.32	-1818.07	  381.97
     56.2700	  889.00	  945.33	-1793.08	  382.06
     56.3700	 1140.00	 1166.56	-1763.31	  382.16
     56.4700	 1376.00	 1463.87	-1824.62	  382.26
     56.5700	 1642.00	 1821.62	-1916.37	  382.36
     56.6700	 2047.00	 2196.25	-1886.00	  382.46
     56.7700	 2467.00	 2513.59	-1783.34	  382.56
     56.8700	 2659.00	 2682.83	-1760.58	  382.66
     56.9700	 2550.00	 2641.34	-1828.09	  382.77
     57.0700	 2413.00	 2405.20	-1728.95	  382.87
     57.1700	 2036.00	 2055.98	-1756.73	  382.97
     57.2700	 1634.00	 1682.69	-1785.44	  383.08
     57.3700	 1289.00	 1348.03	-1795.78	  383.19
     57.4700	  996.00	 1083.90	-1824.65	  383.30
     57.5700	  860.00	  896.87	-1773.62	  383.40
     57.6700	  756.00	  777.03	-1757.78	  383.51
     57.7700	  762.00	  707.93	-1682.68	  383.62
     57.8700	  699.00	  673.91	-1711.66	  383.74
     57.9700	  647.00	  663.94	-1753.69	  383.85
     58.0700	  672.00	  672.20	-1736.95	  383.96
     58.1700	  660.00	  696.82	-1773.57	  384.07
     58.2700	  748.00	  737.93	-1726.68	  384.19
     58.3700	  853.00	  795.82	-1679.57	  384.30
     58.4700	  973.00	  869.23	-1632.98	  384.42
     58.5700	 1065.00	  953.79	-1625.54	  384.54
     58.6700	 1284.00	 1041.38	-1494.13	  384.66
     58.7700	 1357.00	 1122.38	-1502.13	  384.77
     58.8700	 1435.00	 1190.05	-1491.80	  384.89
     58.9700	 1553.00	 1240.72	-1424.47	  385.01
     59.0700	 1619.00	 1269.55	-1387.30	  385.13
     59.1700	 1649.00	 1271.76	-1359.51	  385.26
     59.2700	 1485.00	 1250.42	-1502.17	  385.38
     59.3700	 1426.00	 1217.20	-1527.95	  385.50
     59.4700	 1295.00	 1184.49	-1626.24	  385.62
     59.5700	 1189.00	 1160.74	-1708.49	  385.75
     59.6700	 1171.00	 1153.55	-1719.30	  385.87
     59.7700	 1205.00	 1172.06	-1703.81	  386.00
     59.8700	 1180.00	 1222.43	-1779.18	  386.13
     59.9700	 1341.00	 1301.40	-1697.15	  386.25
     60.0700	 1441.00	 1393.18	-1688.93	  386.38
     60.1700	 1567.00	 1470.03	-1639.78	  386.51
     60.2700	 1561.00	 1499.10	-1674.85	  386.64
     60.3700	 1615.00	 1459.26	-1581.01	  386.77
     60.4700	 1397.00	 1356.18	-1695.93	  386.90
     60.5700	 1284.00	 1216.13	-1668.88	  387.03
     60.6700	 1109.00	 1067.98	-1695.73	  387.16
     60.7700	  875.00	  932.99	-1794.74	  387.29
     60.8700	  765.00	  823.28	-1795.03	  387.42
     60.9700	  655.00	  743.11	-1824.86	  387.55
     61.0700	  650.00	  691.50	-1778.25	  387.69
     61.1700	  703.00	  665.21	-1698.96	  387.82
     61.2700	  626.00	  661.55	-1772.30	  387.96
     61.3700	  638.00	  680.07	-1778.82	  388.09
     61.4700	  634.00	  722.80	-1825.55	  388.23
     61.5700	  749.00	  793.01	-1780.76	  388.36
     61.6700	  846.00	  892.76	-1783.51	  388.50
     61.7700	  999.00	 1019.91	-1757.66	  388.63
     61.8700	 1071.00	 1165.36	-1831.11	  388.77
     61.9700	 1217.00	 1311.29	-1831.04	  388.91
     62.0700	 1354.00	 1431.03	-1813.78	  389.05
     62.1700	 1418.00	 1494.14	-1812.89	  389.18
     62.2700	 1348.00	 1480.13	-1868.88	  389.32
     62.3700	 1246.00	 1393.13	-1883.88	  389.46
     62.4700	 1160.00	 1258.76	-1835.51	  389.60
     62.5700	 1081.00	 1107.42	-1763.17	  389.74
     62.6700	  924.00	  962.97	-1775.72	  389.88
     62.7700	  739.00	  840.09	-1837.84	  390.02
     62.8700	  684.00	  744.89	-1797.64	  390.16
     62.9700	  697.00	  676.91	-1716.66	  390.30
     63.0700	  592.00	  631.77	-1776.52	  390.44
     63.1700	  632.00	  603.60	-1708.35	  390.58
     63.2700	  579.00	  587.01	-1744.76	  390.73
     63.3700	  570.00	  577.95	-1744.70	  390.87
     63.4700	  596.00	  574.01	-1714.76	  391.01
     63.5700	  616.00	  574.26	-1695.01	  391.15
     63.6700	  596.00	  579.04	-1719.79	  391.30
     63.7700	  606.00	  589.65	-1720.40	  391.44
     63.8700	  597.00	  608.08	-1747.83	  391.58
     63.9700	  661.00	  636.44	-1712.19	  391.73
     64.0700	  746.00	  676.18	-1666.93	  391.87
     64.1700	  785.00	  727.13	-1678.88	  392.01
     64.2700	  879.00	  786.63	-1644.38	  392.16
     64.3700	  931.00	  848.84	-1654.59	  392.30
     64.4700	 1020.00	  904.76	-1621.51	  392.45
     64.5700	  984.00	  943.19	-1695.94	  392.59
     64.6700	 1031.00	  956.77	-1662.52	  392.73
     64.7700	 1021.00	  942.96	-1658.71	  392.88
     64.8700	  956.00	  906.48	-1687.23	  393.02
     64.9700	  877.00	  855.84	-1715.59	  393.17
     65.0700	  836.00	  800.42	-1701.17	  393.31
     65.1700	  820.00	  747.82	-1664.57	  393.46
     65.2700	  736.00	  702.44	-1703.19	  393.60
     65.3700	  667.00	  665.54	-1735.29	  393.75
     65.4700	  687.00	  636.50	-1686.25	  393.89
     65.5700	  607.00	  614.07	-1743.82	  394.04
     65.6700	  549.00	  597.04	-1784.79	  394.18
     65.7700	  561.00	  584.43	-1760.18	  394.33
     65.8700	  616.00	  575.41	-1696.16	  394.47
     65.9700	  540.00	  569.35	-1766.10	  394.62
     66.0700	  542.00	  565.71	-1760.46	  394.76
     66.1700	  520.00	  564.06	-1780.81	  394.91
     66.2700	  544.00	  564.03	-1756.78	  395.05
     66.3700	  550.00	  565.35	-1752.10	  395.20
     66.4700	  519.00	  567.90	-1785.65	  395.34
     66.5700	  549.00	  571.75	-1759.50	  395.49
     66.6700	  596.00	  577.38	-1718.13	  395.63
     66.7700	  603.00	  585.47	-1719.22	  395.78
     66.8700	  541.00	  597.82	-1793.57	  395.92
     66.9700	  590.00	  617.33	-1764.08	  396.06
     67.0700	  619.00	  648.65	-1766.40	  396.21
     67.1700	  654.00	  698.44	-1781.19	  396.35
     67.2700	  801.00	  775.11	-1710.86	  396.49
     67.3700	  893.00	  887.83	-1731.58	  396.64
     67.4700	 1054.00	 1044.06	-1726.81	  396.78
     67.5700	 1262.00	 1246.73	-1721.48	  396.92
     67.6700	 1479.00	 1490.37	-1748.12	  397.07
     67.7700	 1750.00	 1758.57	-1745.32	  397.21
     67.8700	 2134.00	 2022.67	-1625.42	  397.35
     67.9700	 2314.00	 2242.48	-1665.23	  397.49
     68.0700	 2414.00	 2373.01	-1695.76	  397.64
     68.1700	 2348.00	 2380.82	-1769.57	  397.78
     68.2700	 2178.00	 2263.74	-1822.49	  397.92
     68.3700	 1995.00	 2052.33	-1794.08	  398.06
     68.4700	 1883.00	 1791.48	-1645.23	  398.20
     68.5700	 1530.00	 1522.48	-1729.23	  398.34
     68.6700	 1236.00	 1275.33	-1776.08	  398.48
     68.7700	 1018.00	 1067.92	-1786.67	  398.62
     68.8700	  879.00	  906.80	-1764.55	  398.76
     68.9700	  753.00	  789.89	-1773.64	  398.90
     69.0700	  676.00	  710.02	-1770.77	  399.04
     69.1700	  705.00	  658.12	-1689.87	  399.17
     69.2700	  652.00	  625.59	-1710.34	  399.31
     69.3700	  588.00	  605.53	-1754.28	  399.45
     69.4700	  576.00	  593.09	-1753.84	  399.58
     69.5700	  599.00	  585.14	-1722.89	  399.72
     69.6700	  593.00	  579.87	-1723.62	  399.86
     69.7700	  595.00	  576.26	-1718.01	  399.99
     69.8700	  588.00	  573.79	-1722.54	  400.13
     69.9700	  570.00	  572.18	-1738.93	  400.26
     70.0700	  597.00	  571.31	-1711.06	  400.40
     70.1700	  569.00	  571.13	-1738.88	  400.53
     70.2700	  501.00	  571.69	-1807.44	  400.66
     70.3700	  606.00	  573.04	-1703.79	  400.80
     70.4700	  600.00	  575.46	-1712.21	  400.93
     70.5700	  612.00	  579.41	-1704.16	  401.06
     70.6700	  594.00	  585.78	-1728.53	  401.19
     70.7700	  586.00	  596.09	-1746.84	  401.32
     70.8700	  596.00	  612.80	-1753.55	  401.45
     70.9700	  577.00	  639.50	-1799.25	  401.58
     71.0700	  608.00	  681.08	-1809.83	  401.71
     71.1700	  721.00	  743.33	-1759.08	  401.84
     71.2700	  814.00	  832.13	-1754.88	  401.96
     71.3700	  915.00	  951.97	-1773.72	  402.09
     71.4700	 1061.00	 1104.76	-1780.51	  402.22
     71.5700	 1291.00	 1284.63	-1730.38	  402.34
     71.6700	 1448.00	 1481.29	-1770.04	  402.47
     71.7700	 1617.00	 1676.26	-1796.01	  402.59
     71.8700	 1763.00	 1844.17	-1817.92	  402.72
     71.9700	 1973.00	 1956.06	-1719.81	  402.84
     72.0700	 1960.00	 1987.86	-1764.61	  402.96
     72.1700	 1915.00	 1932.10	-1753.85	  403.08
     72.2700	 1832.00	 1801.86	-1706.61	  403.20
     72.3700	 1764.00	 1624.75	-1597.50	  403.32
     72.4700	 1478.00	 1428.76	-1687.51	  403.44
     72.5700	 1330.00	 1237.21	-1643.96	  403.56
     72.6700	 1192.00	 1066.12	-1610.87	  403.68
     72.7700	 1082.00	  924.08	-1578.83	  403.80
     72.8700	  965.00	  813.32	-1585.07	  403.91
     72.9700	  886.00	  731.56	-1582.31	  404.03
     73.0700	  807.00	  673.93	-1603.68	  404.14
     73.1700	  799.00	  634.72	-1572.47	  404.26
     73.2700	  659.00	  608.66	-1686.41	  404.37
     73.3700	  692.00	  591.43	-1636.18	  404.48
     73.4700	  612.00	  579.96	-1704.71	  404.59
     73.5700	  601.00	  572.19	-1707.94	  404.70
     73.6700	  625.00	  566.83	-1678.58	  404.81
     73.7700	  595.00	  563.12	-1704.87	  404.92
     73.8700	  607.00	  560.61	-1690.36	  405.03
     73.9700	  576.00	  559.04	-1719.79	  405.14
     74.0700	  572.00	  558.19	-1722.94	  405.24
     74.1700	  593.00	  557.92	-1701.67	  405.35
     74.2700	  563.00	  558.02	-1731.77	  405.45
     74.3700	  631.00	  558.30	-1664.05	  405.56
     74.4700	  580.00	  558.52	-1715.27	  405.66
     74.5700	  618.00	  558.44	-1677.19	  405.76
     74.6700	  669.00	  557.88	-1625.63	  405.86
     74.7700	  649.00	  556.82	-1644.57	  405.96
     74.8700	  667.00	  555.37	-1625.12	  406.06
     74.9700	  598.00	  553.75	-1692.50	  406.16
     75.0700	  667.00	  552.26	-1622.01	  406.25
     75.1700	  583.00	  551.16	-1704.91	  406.35
     75.2700	  571.00	  550.69	-1716.44	  406.44
     75.3700	  570.00	  551.39	-1718.14	  406.54
     75.4700	  531.00	  553.56	-1759.31	  406.63
     75.5700	  552.00	  557.59	-1742.34	  406.72
     75.6700	  553.00	  564.18	-1747.93	  406.81
     75.7700	  591.00	  573.68	-1719.43	  406.90
     75.8700	  603.00	  586.39	-1720.14	  406.99
     75.9700	  651.00	  602.29	-1688.04	  407.08
     76.0700	  632.00	  620.88	-1725.63	  407.17
     76.1700	  646.00	  641.11	-1731.86	  407.25
     76.2700	  632.00	  661.30	-1766.05	  407.34
     76.3700	  708.00	  679.19	-1707.94	  407.42
     76.4700	  701.00	  692.23	-1727.98	  407.50
     76.5700	  726.00	  698.08	-1708.83	  407.58
     76.6700	  725.00	  695.51	-1707.26	  407.66
     76.7700	  680.00	  685.03	-1741.78	  407.74
     76.8700	  680.00	  668.64	-1725.39	  407.82
     76.9700	  598.00	  648.71	-1787.46	  407.89
     77.0700	  603.00	  628.01	-1761.76	  407.97
     77.1700	  573.00	  608.28	-1772.03	  408.04
     77.2700	  569.00	  590.82	-1758.57	  408.12
     77.3700	  553.00	  576.34	-1760.09	  408.19
     77.4700	  548.00	  565.00	-1753.75	  408.26
     77.5700	  513.00	  556.56	-1780.31	  408.33
     77.6700	  529.00	  550.59	-1758.34	  408.40
     77.7700	  574.00	  546.52	-1709.27	  408.46
     77.8700	  528.00	  543.86	-1752.61	  408.53
     77.9700	  527.00	  542.15	-1751.90	  408.59
     78.0700	  512.00	  541.07	-1765.82	  408.66
     78.1700	  522.00	  540.40	-1755.15	  408.72
     78.2700	  508.00	  539.99	-1768.74	  408.78
     78.3700	  520.00	  539.74	-1756.49	  408.84
     78.4700	  516.00	  539.62	-1760.37	  408.90
     78.5700	  518.00	  539.59	-1758.34	  408.96
     78.6700	  545.00	  539.66	-1731.41	  409.01
     78.7700	  535.00	  539.84	-1741.59	  409.07
     78.8700	  482.00	  540.15	-1794.90	  409.12
     78.9700	  501.00	  540.62	-1776.37	  409.17
     79.0700	  547.00	  541.29	-1731.04	  409.22
     79.1700	  518.00	  542.22	-1760.97	  409.27
     79.2700	  517.00	  543.29	-1763.04	  409.32
     79.3700	  533.00	  544.91	-1748.66	  409.37
     79.4700	  488.00	  546.98	-1795.73	  409.41
     79.5700	  568.00	  549.56	-1718.31	  409.46
     79.6700	  565.00	  552.74	-1724.49	  409.50
     79.7700	  570.00	  556.62	-1723.37	  409.54
     79.8700	  510.00	  561.36	-1788.11	  409.58
     79.9700	  491.00	  567.13	-1812.88	  409.62
     80.0700	  590.00	  574.19	-1720.94	  409.66
     80.1700	  547.00	  582.83	-1772.58	  409.69
     80.2700	  562.00	  593.41	-1768.16	  409.73
     80.3700	  568.00	  606.20	-1774.95	  409.76
     80.4700	  594.00	  621.32	-1764.07	  409.79
     80.5700	  634.00	  638.57	-1741.32	  409.82
     80.6700	  598.00	  657.43	-1796.18	  409.85
     80.7700	  657.00	  676.93	-1756.68	  409.88
     80.8700	  644.00	  695.77	-1788.52	  409.90
     80.9700	  707.00	  712.44	-1742.19	  409.93
     81.0700	  711.00	  725.55	-1751.30	  409.95
     81.1700	  732.00	  734.04	-1738.79	  409.97
     81.2700	  710.00	  737.29	-1764.04	  409.99
     81.3700	  771.00	  735.09	-1700.84	  410.01
     81.4700	  762.00	  727.71	-1702.46	  410.03
     81.5700	  758.00	  715.87	-1694.62	  410.04
     81.6700	  762.00	  700.53	-1675.28	  410.06
     81.7700	  715.00	  682.78	-1704.53	  410.07
     81.8700	  726.00	  663.68	-1674.43	  410.08
     81.9700	  697.00	  644.50	-1684.25	  410.09
     82.0700	  704.00	  626.20	-1658.95	  410.10
     82.1700	  669.00	  609.56	-1677.31	  410.11
     82.2700	  688.00	  595.04	-1643.79	  410.12
     82.3700	  610.00	  582.86	-1709.61	  410.12
     82.4700	  604.00	  573.00	-1705.75	  410.12
     82.5700	  577.00	  565.41	-1725.16	  410.12
     82.6700	  568.00	  559.89	-1728.64	  410.12
     82.7700	  582.00	  556.22	-1710.97	  410.12
     82.8700	  542.00	  554.20	-1748.95	  410.12
     82.9700	  563.00	  553.69	-1727.44	  410.11
     83.0700	  595.00	  554.54	-1696.29	  410.11
     83.1700	  516.00	  556.65	-1777.40	  410.10
     83.2700	  551.00	  559.90	-1745.65	  410.09
     83.3700	  538.00	  564.12	-1762.87	  410.08
     83.4700	  591.00	  569.09	-1714.84	  410.07
     83.5700	  552.00	  574.50	-1759.25	  410.05
     83.6700	  549.00	  579.93	-1767.68	  410.04
     83.7700	  551.00	  584.88	-1770.63	  410.02
     83.8700	  525.00	  588.78	-1800.53	  410.00
     83.9700	  571.00	  591.08	-1756.83	  409.98
     84.0700	  559.00	  591.40	-1769.15	  409.96
     84.1700	  564.00	  589.65	-1762.40	  409.93
     84.2700	  557.00	  586.08	-1765.83	  409.91
     84.3700	  550.00	  581.19	-1767.94	  409.88
     84.4700	  550.00	  575.51	-1762.26	  409.85
     84.5700	  551.00	  569.58	-1755.33	  409.82
     84.6700	  548.00	  563.83	-1752.58	  409.79
     84.7700	  528.00	  558.56	-1767.31	  409.76
     84.8700	  485.00	  553.99	-1805.74	  409.73
     84.9700	  564.00	  550.23	-1722.98	  409.69
     85.0700	  517.00	  547.29	-1767.04	  409.65
     85.1700	  502.00	  545.12	-1779.87	  409.61
     85.2700	  507.00	  543.66	-1773.41	  409.57
     85.3700	  533.00	  542.81	-1746.56	  409.53
     85.4700	  524.00	  542.47	-1755.22	  409.48
     85.5700	  503.00	  542.58	-1776.33	  409.44
     85.6700	  581.00	  543.08	-1698.83	  409.39
     85.7700	  544.00	  543.93	-1736.68	  409.34
     85.8700	  547.00	  545.14	-1734.89	  409.29
     85.9700	  517.00	  546.72	-1766.47	  409.24
     86.0700	  484.00	  548.72	-1801.47	  409.19
     86.1700	  534.00	  551.21	-1753.96	  409.13
     86.2700	  554.00	  554.29	-1737.04	  409.07
     86.3700	  536.00	  558.05	-1758.80	  409.02
     86.4700	  552.00	  562.64	-1747.39	  408.96
     86.5700	  562.00	  568.14	-1742.89	  408.89
     86.6700	  562.00	  574.32	-1749.07	  408.83
     86.7700	  570.00	  581.75	-1748.50	  408.77
     86.8700	  615.00	  589.93	-1711.68	  408.70
     86.9700	  612.00	  598.51	-1723.26	  408.63
     87.0700	  608.00	  606.97	-1735.72	  408.56
     87.1700	  594.00	  614.67	-1757.42	  408.49
     87.2700	  643.00	  620.86	-1714.61	  408.42
     87.3700	  679.00	  624.80	-1682.55	  408.34
     87.4700	  606.00	  625.94	-1756.69	  408.27
     87.5700	  648.00	  624.08	-1712.83	  408.19
     87.6700	  650.00	  619.49	-1706.24	  408.11
     87.7700	  667.00	  612.80	-1682.55	  408.03
     87.8700	  636.00	  604.83	-1705.58	  407.94
     87.9700	  606.00	  596.44	-1727.19	  407.86
     88.0700	  591.00	  588.39	-1734.14	  407.77
     88.1700	  607.00	  581.34	-1711.09	  407.69
     88.2700	  593.00	  575.79	-1719.54	  407.60
     88.3700	  547.00	  572.06	-1761.81	  407.51
     88.4700	  621.00	  570.31	-1686.06	  407.41
     88.5700	  593.00	  570.54	-1714.29	  407.32
     88.6700	  588.00	  572.59	-1721.34	  407.22
     88.7700	  551.00	  576.18	-1761.93	  407.13
     88.8700	  598.00	  580.92	-1719.67	  407.03
     88.9700	  620.00	  586.30	-1703.05	  406.93
     89.0700	  572.00	  591.79	-1756.54	  406.82
     89.1700	  631.00	  596.76	-1702.51	  406.72
     89.2700	  645.00	  600.61	-1692.36	  406.61
     89.3700	  631.00	  602.80	-1708.55	  406.51
     89.4700	  604.00	  602.97	-1735.72	  406.40
     89.5700	  593.00	  601.06	-1744.81	  406.29
     89.6700	  577.00	  597.28	-1757.03	  406.18
     89.7700	  601.00	  592.07	-1727.82	  406.06
     89.8700	  570.00	  585.94	-1752.69	  405.95
     89.9700	  571.00	  579.39	-1745.14	  405.83
     90.0700	  583.00	  572.86	-1726.61	  405.71
     90.1700	  539.00	  566.69	-1764.44	  405.59
     90.2700	  520.00	  561.15	-1777.90	  405.47
     90.3700	  517.00	  556.37	-1776.12	  405.35
     90.4700	  507.00	  552.42	-1782.17	  405.23
     90.5700	  479.00	  549.30	-1807.05	  405.10
     90.6700	  519.00	  546.95	-1764.70	  404.97
     90.7700	  551.00	  545.27	-1731.02	  404.84
     90.8700	  572.00	  544.18	-1708.93	  404.71
     90.9700	  498.00	  543.59	-1782.34	  404.58
     91.0700	  485.00	  543.44	-1795.19	  404.45
     91.1700	  515.00	  543.68	-1765.43	  404.31
     91.2700	  477.00	  544.32	-1804.07	  404.17
     91.3700	  563.00	  545.41	-1719.16	  404.03
     91.4700	  565.00	  547.03	-1718.78	  403.89
     91.5700	  517.00	  549.31	-1769.06	  403.75
     91.6700	  521.00	  552.42	-1768.17	  403.61
     91.7700	  514.00	  556.56	-1779.31	  403.47
     91.8700	  554.00	  561.71	-1744.46	  403.32
     91.9700	  565.00	  568.53	-1740.28	  403.17
     92.0700	  573.00	  576.98	-1740.73	  403.02
     92.1700	  611.00	  587.18	-1712.93	  402.87
     92.2700	  607.00	  599.15	-1728.90	  402.72
     92.3700	  585.00	  612.83	-1764.58	  402.57
     92.4700	  607.00	  628.00	-1757.75	  402.41
     92.5700	  690.00	  644.30	-1691.05	  402.25
     92.6700	  685.00	  661.23	-1712.98	  402.10
     92.7700	  692.00	  678.14	-1722.89	  401.94
     92.8700	  741.00	  694.32	-1690.07	  401.78
     92.9700	  745.00	  709.02	-1700.77	  401.61
     93.0700	  796.00	  721.62	-1662.37	  401.45
     93.1700	  813.00	  731.85	-1655.60	  401.28
     93.2700	  798.00	  739.83	-1678.58	  401.12
     93.3700	  820.00	  746.09	-1662.84	  400.95
     93.4700	  820.00	  751.37	-1668.12	  400.78
     93.5700	  813.00	  756.50	-1680.25	  400.61
     93.6700	  799.00	  762.24	-1699.99	  400.43
     93.7700	  862.00	  769.25	-1644.00	  400.26
     93.8700	  833.00	  778.09	-1681.84	  400.08
     93.9700	  841.00	  789.24	-1684.99	  399.91
     94.0700	  848.00	  803.01	-1691.76	  399.73
     94.1700	  876.00	  819.42	-1680.17	  399.55
     94.2700	  852.00	  838.12	-1722.87	  399.37
     94.3700	  850.00	  858.29	-1745.04	  399.19
     94.4700	  906.00	  878.67	-1709.42	  399.00
     94.5700	  918.00	  897.58	-1716.33	  398.82
     94.6700	  918.00	  913.07	-1731.82	  398.63
     94.7700	  945.00	  923.14	-1714.89	  398.44
     94.8700	  870.00	  926.12	-1792.87	  398.26
     94.9700	  915.00	  921.06	-1742.81	  398.06
     95.0700	  928.00	  908.00	-1716.75	  397.87
     95.1700	  883.00	  888.02	-1741.77	  397.68
     95.2700	  825.00	  862.84	-1774.59	  397.49
     95.3700	  841.00	  834.54	-1730.29	  397.29
     95.4700	  812.00	  805.25	-1730.00	  397.09
     95.5700	  776.00	  776.98	-1737.73	  396.90
     95.6700	  766.00	  751.59	-1722.34	  396.70
     95.7700	  680.00	  730.74	-1787.49	  396.50
     95.8700	  637.00	  715.87	-1815.62	  396.29
     95.9700	  687.00	  708.28	-1758.03	  396.09
     96.0700	  721.00	  709.06	-1724.81	  395.89
     96.1700	  715.00	  719.12	-1740.87	  395.68
     96.2700	  724.00	  739.15	-1751.90	  395.47
     96.3700	  746.00	  769.59	-1760.34	  395.27
     96.4700	  784.00	  810.52	-1763.27	  395.06
     96.5700	  869.00	  861.61	-1729.36	  394.85
     96.6700	  889.00	  921.99	-1769.74	  394.64
     96.7700	  970.00	  990.16	-1756.91	  394.42
     96.8700	 1038.00	 1063.95	-1762.70	  394.21
     96.9700	 1114.00	 1140.46	-1763.21	  394.00
     97.0700	 1226.00	 1216.17	-1726.92	  393.78
     97.1700	 1277.00	 1286.98	-1746.73	  393.56
     97.2700	 1313.00	 1348.39	-1772.14	  393.34
     97.3700	 1385.00	 1395.94	-1747.69	  393.13
     97.4700	 1507.00	 1425.80	-1655.55	  392.91
     97.5700	 1435.00	 1435.50	-1737.25	  392.68
     97.6700	 1396.00	 1424.48	-1765.23	  392.46
     97.7700	 1408.00	 1394.24	-1722.99	  392.24
     97.8700	 1338.00	 1347.81	-1746.56	  392.02
     97.9700	 1306.00	 1289.27	-1720.02	  391.79
     98.0700	 1213.00	 1222.93	-1746.68	  391.56
     98.1700	 1113.00	 1152.99	-1776.74	  391.34
     98.2700	 1102.00	 1083.37	-1718.12	  391.11
     98.3700	  997.00	 1017.46	-1757.21	  390.88
     98.4700	  919.00	  958.11	-1775.86	  390.65
     98.5700	  889.00	  907.61	-1755.36	  390.42
     98.6700	  845.00	  867.74	-1759.49	  390.19
     98.7700	  791.00	  839.83	-1785.58	  389.95
     98.8700	  807.00	  824.83	-1754.58	  389.72
     98.9700	  756.00	  823.42	-1804.17	  389.49
     99.0700	  767.00	  836.01	-1805.76	  389.25
     99.1700	  842.00	  862.84	-1757.59	  389.01
     99.2700	  869.00	  903.95	-1771.70	  388.78
     99.3700	  934.00	  959.16	-1761.91	  388.54
     99.4700	  978.00	 1027.95	-1786.70	  388.30
     99.5700	 1128.00	 1109.49	-1718.24	  388.06
     99.6700	 1104.00	 1202.40	-1835.15	  387.82
     99.7700	 1260.00	 1304.72	-1781.47	  387.58
     99.8700	 1393.00	 1413.83	-1757.58	  387.34
     99.9700	 1545.00	 1526.33	-1718.08	  387.10
    100.0700	 1650.00	 1638.22	-1724.97	  386.85
    100.1700	 1801.00	 1744.96	-1680.71	  386.61
    100.2700	 1822.00	 1841.94	-1756.69	  386.37
    100.3700	 1912.00	 1925.02	-1749.77	  386.12
    100.4700	 2067.00	 1990.85	-1660.60	  385.88
    100.5700	 2124.00	 2037.08	-1649.83	  385.63
    100.6700	 2152.00	 2062.21	-1646.96	  385.38
    100.7700	 2147.00	 2065.38	-1655.13	  385.14
    100.8700	 2043.00	 2046.42	-1740.17	  384.89
    100.9700	 1957.00	 2006.07	-1785.82	  384.64
    101.0700	 2027.00	 1946.34	-1656.09	  384.39
    101.1700	 1936.00	 1870.62	-1671.37	  384.14
    101.2700	 1771.00	 1783.50	-1749.25	  383.89
    101.3700	 1719.00	 1690.14	-1707.89	  383.64
    101.4700	 1611.00	 1595.64	-1721.39	  383.39
    101.5700	 1501.00	 1504.54	-1740.29	  383.14
    101.6700	 1440.00	 1420.48	-1717.23	  382.89
    101.7700	 1449.00	 1346.11	-1633.86	  382.63
    101.8700	 1295.00	 1282.92	-1724.67	  382.38
    101.9700	 1271.00	 1231.37	-1697.12	  382.13
    102.0700	 1169.00	 1190.88	-1758.63	  381.88
    102.1700	 1121.00	 1160.02	-1775.77	  381.62
    102.2700	 1163.00	 1136.63	-1710.38	  381.37
    102.3700	 1086.00	 1118.08	-1768.83	  381.11
    102.4700	 1102.00	 1101.54	-1736.29	  380.86
    102.5700	 1093.00	 1084.32	-1728.07	  380.61
    102.6700	 1052.00	 1064.26	-1749.01	  380.35
    102.7700	 1084.00	 1039.94	-1692.69	  380.10
    102.8700	 1023.00	 1010.86	-1724.61	  379.84
    102.9700	  901.00	  977.31	-1813.06	  379.58
    103.0700	  927.00	  940.13	-1749.88	  379.33
    103.1700	  796.00	  900.54	-1841.29	  379.07
    103.2700	  870.00	  859.82	-1726.57	  378.82
    103.3700	  797.00	  819.26	-1759.01	  378.56
    103.4700	  744.00	  780.02	-1772.77	  378.31
    103.5700	  770.00	  743.08	-1709.83	  378.05
    103.6700	  721.00	  709.18	-1724.93	  377.79
    103.7700	  700.00	  678.87	-1715.62	  377.54
    103.8700	  642.00	  652.41	-1747.16	  377.28
    103.9700	  647.00	  629.88	-1719.63	  377.03
    104.0700	  635.00	  611.19	-1712.94	  376.77
    104.1700	  596.00	  596.09	-1736.84	  376.51
    104.2700	  587.00	  584.24	-1733.99	  376.26
    104.3700	  577.00	  575.25	-1735.00	  376.00
    104.4700	  567.00	  568.71	-1738.46	  375.75
    104.5700	  554.00	  564.23	-1746.98	  375.49
    104.6700	  518.00	  561.44	-1780.19	  375.24
    104.7700	  513.00	  559.99	-1783.74	  374.98
    104.8700	  526.00	  559.59	-1770.34	  374.73
    104.9700	  558.00	  560.00	-1738.75	  374.47
    105.0700	  533.00	  561.02	-1764.77	  374.22
    105.1700	  568.00	  562.50	-1731.25	  373.97
    105.2700	  557.00	  564.31	-1744.06	  373.71
    105.3700	  559.00	  566.41	-1744.16	  373.46
    105.4700	  547.00	  568.76	-1758.51	  373.21
    105.5700	  570.00	  571.39	-1738.14	  372.96
    105.6700	  540.00	  574.36	-1771.11	  372.70
    105.7700	  559.00	  577.79	-1755.54	  372.45
    105.8700	  548.00	  581.80	-1770.55	  372.20
    105.9700	  549.00	  586.51	-1774.26	  371.95
    106.0700	  558.00	  592.03	-1770.78	  371.70
    106.1700	  549.00	  598.41	-1786.16	  371.45
    106.2700	  552.00	  605.65	-1790.40	  371.21
    106.3700	  627.00	  613.69	-1723.44	  370.96
    106.4700	  583.00	  622.37	-1776.12	  370.71
    106.5700	  633.00	  631.50	-1735.25	  370.47
    106.6700	  605.00	  640.80	-1772.55	  370.22
    106.7700	  694.00	  649.94	-1692.69	  369.97
    106.8700	  691.00	  658.55	-1704.30	  369.73
    106.9700	  646.00	  666.25	-1757.00	  369.49
    107.0700	  633.00	  672.67	-1776.42	  369.25
    107.1700	  632.00	  677.52	-1782.27	  369.00
    107.2700	  645.00	  680.62	-1772.37	  368.76
    107.3700	  688.00	  681.98	-1730.73	  368.52
    107.4700	  641.00	  681.75	-1777.50	  368.28
    107.5700	  678.00	  680.23	-1738.98	  368.05
    107.6700	  684.00	  677.81	-1730.56	  367.81
    107.7700	  638.00	  674.92	-1773.67	  367.57
    107.8700	  661.00	  671.96	-1747.71	  367.34
    107.9700	  658.00	  669.26	-1748.01	  367.11
    108.0700	  683.00	  667.08	-1720.83	  366.87
    108.1700	  656.00	  665.56	-1746.31	  366.64
    108.2700	  683.00	  664.74	-1718.49	  366.41
    108.3700	  610.00	  664.55	-1791.30	  366.18
    108.4700	  675.00	  664.81	-1726.56	  365.95
    108.5700	  639.00	  665.27	-1763.02	  365.73
    108.6700	  687.00	  665.59	-1715.34	  365.50
    108.7700	  686.00	  665.42	-1716.17	  365.28
    108.8700	  700.00	  664.41	-1701.16	  365.06
    108.9700	  686.00	  662.28	-1713.03	  364.83
    109.0700	  673.00	  658.83	-1722.58	  364.61
    109.1700	  678.00	  654.01	-1712.76	  364.40
    109.2700	  617.00	  647.86	-1767.61	  364.18
    109.3700	  653.00	  640.58	-1724.33	  363.96
    109.4700	  688.00	  632.39	-1681.14	  363.75
    109.5700	  596.00	  623.59	-1764.34	  363.54
    109.6700	  660.00	  614.46	-1691.21	  363.33
    109.7700	  583.00	  605.30	-1759.05	  363.12
    109.8700	  639.00	  596.35	-1694.10	  362.91
    109.9700	  556.00	  587.84	-1768.59	  362.71
    110.0700	  530.00	  579.96	-1786.71	  362.50
    110.1700	  567.00	  572.83	-1742.58	  362.30
    110.2700	  556.00	  566.56	-1747.31	  362.10
    110.3700	  571.00	  561.18	-1726.93	  361.90
    110.4700	  589.00	  556.71	-1704.46	  361.71
    110.5700	  569.00	  553.12	-1720.87	  361.51
    110.6700	  541.00	  550.36	-1746.11	  361.32
    110.7700	  565.00	  548.37	-1720.12	  361.13
    110.8700	  550.00	  547.07	-1733.82	  360.94
    110.9700	  605.00	  546.38	-1678.13	  360.75
    111.0700	  593.00	  546.22	-1689.97	  360.57
    111.1700	  517.00	  546.52	-1766.27	  360.39
    111.2700	  532.00	  547.22	-1751.97	  360.21
    111.3700	  535.00	  548.25	-1750.00	  360.03
    111.4700	  617.00	  549.59	-1669.34	  359.85
    111.5700	  584.00	  551.18	-1703.93	  359.68
    111.6700	  536.00	  553.01	-1753.76	  359.51
    111.7700	  532.00	  555.07	-1759.82	  359.34
    111.8700	  563.00	  557.33	-1731.08	  359.17
    111.9700	  563.00	  559.80	-1733.55	  359.01
    112.0700	  549.00	  562.49	-1750.24	  358.85
    112.1700	  565.00	  565.41	-1737.16	  358.69
    112.2700	  551.00	  568.59	-1754.33	  358.53
    112.3700	  555.00	  572.04	-1753.79	  358.38
    112.4700	  592.00	  575.80	-1720.55	  358.23
    112.5700	  580.00	  579.93	-1736.68	  358.08
    112.6700	  588.00	  584.50	-1733.25	  357.93
    112.7700	  610.00	  589.58	-1716.33	  357.79
    112.8700	  644.00	  595.29	-1688.04	  357.65
    112.9700	  692.00	  601.77	-1646.52	  357.51
    113.0700	  642.00	  609.22	-1703.97	  357.38
    113.1700	  741.00	  617.88	-1613.63	  357.25
    113.2700	  707.00	  628.08	-1657.83	  357.12
    113.3700	  768.00	  640.21	-1608.96	  356.99
    113.4700	  829.00	  654.78	-1562.53	  356.87
    113.5700	  841.00	  672.45	-1568.20	  356.75
    113.6700	  863.00	  694.00	-1567.75	  356.63
    113.7700	  885.00	  720.40	-1572.15	  356.52
    113.8700	  943.00	  752.80	-1546.55	  356.41
    113.9700	 1024.00	  792.56	-1505.31	  356.30
    114.0700	 1058.00	  841.27	-1520.02	  356.20
    114.1700	 1087.00	  900.71	-1550.46	  356.10
    114.2700	 1113.00	  972.89	-1596.64	  356.00
    114.3700	 1235.00	 1059.95	-1561.70	  355.90
    114.4700	 1336.00	 1164.17	-1564.92	  355.81
    114.5700	 1479.00	 1287.87	-1545.62	  355.73
    114.6700	 1585.00	 1433.37	-1585.12	  355.64
    114.7700	 1739.00	 1602.76	-1600.51	  355.56
    114.8700	 1887.00	 1797.87	-1647.62	  355.49
    114.9700	 2168.00	 2020.04	-1588.79	  355.41
    115.0700	 2396.00	 2270.08	-1610.83	  355.35
    115.1700	 2485.00	 2548.06	-1799.81	  355.28
    115.2700	 2811.00	 2853.06	-1778.81	  355.22
    115.3700	 3132.00	 3183.18	-1787.93	  355.16
    115.4700	 3410.00	 3535.34	-1862.09	  355.11
    115.5700	 3782.00	 3905.36	-1860.11	  355.06
    115.6700	 4077.00	 4287.86	-1947.61	  355.01
    115.7700	 4478.00	 4676.12	-1934.87	  354.97
    115.8700	 4719.00	 5062.29	-2080.04	  354.93
    115.9700	 5291.00	 5437.40	-1883.15	  354.90
    116.0700	 5567.00	 5791.68	-1961.43	  354.87
    116.1700	 5832.00	 6114.68	-2019.43	  354.84
    116.2700	 6224.00	 6395.59	-1908.34	  354.82
    116.3700	 6464.00	 6623.99	-1896.74	  354.80
    116.4700	 6781.00	 6790.60	-1746.35	  354.79
    116.5700	 6893.00	 6888.17	-1731.92	  354.78
    116.6700	 6947.00	 6912.31	-1702.06	  354.78
    116.7700	 6937.00	 6862.04	-1661.79	  354.78
    116.8700	 6821.00	 6740.00	-1655.75	  354.79
    116.9700	 6583.00	 6552.06	-1705.81	  354.80
    117.0700	 6579.00	 6306.52	-1464.27	  354.81
    117.1700	 6139.00	 6013.21	-1610.96	  354.83
    117.2700	 5605.00	 5682.77	-1814.52	  354.85
    117.3700	 5315.00	 5325.84	-1747.59	  354.88
    117.4700	 4852.00	 4952.59	-1837.34	  354.92
    117.5700	 4564.00	 4572.28	-1745.03	  354.95
    117.6700	 4434.00	 4193.16	-1495.91	  355.00
    117.7700	 3893.00	 3822.41	-1666.16	  355.05
    117.8700	 3727.00	 3465.96	-1475.71	  355.10
    117.9700	 3310.00	 3128.58	-1555.33	  355.16
    118.0700	 2886.00	 2813.70	-1664.45	  355.22
    118.1700	 2646.00	 2523.65	-1614.40	  355.29
    118.2700	 2304.00	 2259.82	-1692.57	  355.36
    118.3700	 2005.00	 2022.63	-1754.38	  355.44
    118.4700	 1733.00	 1811.77	-1815.52	  355.53
    118.5700	 1537.00	 1626.22	-1825.97	  355.62
    118.6700	 1318.00	 1464.51	-1883.26	  355.71
    118.7700	 1173.00	 1324.86	-1888.61	  355.81
    118.8700	 1112.00	 1205.24	-1829.99	  355.92
    118.9700	 1052.00	 1103.54	-1788.29	  356.03
    119.0700	  896.00	 1017.62	-1858.37	  356.15
    119.1700	  862.00	  945.42	-1820.17	  356.27
    119.2700	  818.00	  885.00	-1803.75	  356.40
    119.3700	  679.00	  834.62	-1892.37	  356.53
    119.4700	  730.00	  792.71	-1799.46	  356.67
    119.5700	  637.00	  757.88	-1857.63	  356.82
    119.6700	  673.00	  728.93	-1792.68	  356.97
    119.7700	  685.00	  704.87	-1756.62	  357.13
    119.8700	  669.00	  684.84	-1752.59	  357.30
    119.9700	  627.00	  668.15	-1777.90	  357.47
    120.0700	  569.00	  654.23	-1821.98	  357.64
    120.1700	  561.00	  642.59	-1818.34	  357.83
    120.2700	  547.00	  632.87	-1822.62	  358.02
    120.3700	  559.00	  624.77	-1802.52	  358.21
    120.4700	  569.00	  618.04	-1785.79	  358.41
    120.5700	  572.00	  612.50	-1777.25	  358.62
    120.6700	  586.00	  608.00	-1758.75	  358.84
    120.7700	  571.00	  604.41	-1770.16	  359.06
    120.8700	  588.00	  601.67	-1750.42	  359.29
    120.9700	  568.00	  599.68	-1768.43	  359.52
    121.0700	  565.00	  598.41	-1770.16	  359.76
    121.1700	  601.00	  597.79	-1733.54	  360.01
    121.2700	  569.00	  597.79	-1765.54	  360.27
    121.3700	  584.00	  598.37	-1751.12	  360.53
    121.4700	  584.00	  599.49	-1752.24	  360.80
    121.5700	  611.00	  601.10	-1726.85	  361.08
    121.6700	  573.00	  603.14	-1766.89	  361.36
    121.7700	  591.00	  605.54	-1751.29	  361.65
    121.8700	  589.00	  608.26	-1756.01	  361.95
    121.9700	  625.00	  611.22	-1722.97	  362.25
    122.0700	  634.00	  614.32	-1717.07	  362.57
    122.1700	  625.00	  617.47	-1729.22	  362.89
    122.2700	  615.00	  620.57	-1742.32	  363.21
    122.3700	  600.00	  623.51	-1760.26	  363.55
    122.4700	  616.00	  626.21	-1746.96	  363.89
    122.5700	  669.00	  628.55	-1696.30	  364.24
    122.6700	  630.00	  630.44	-1737.19	  364.60
    122.7700	  651.00	  631.81	-1717.56	  364.97
    122.8700	  644.00	  632.61	-1725.36	  365.34
    122.9700	  634.00	  632.80	-1735.55	  365.72
    123.0700	  686.00	  632.38	-1683.13	  366.11
    123.1700	  614.00	  631.38	-1754.13	  366.51
    123.2700	  714.00	  629.82	-1652.57	  366.91
    123.3700	  649.00	  627.77	-1715.52	  367.33
    123.4700	  652.00	  625.29	-1710.04	  367.75
    123.5700	  657.00	  622.46	-1702.21	  368.18
    123.6700	  629.00	  619.35	-1727.10	  368.62
    123.7700	  613.00	  616.03	-1739.78	  369.07
    123.8700	  630.00	  612.58	-1719.33	  369.52
    123.9700	  604.00	  609.06	-1741.81	  369.98
    124.0700	  649.00	  605.55	-1693.30	  370.46
    124.1700	  616.00	  602.08	-1722.83	  370.94
    124.2700	  623.00	  598.72	-1712.47	  371.43
    124.3700	  575.00	  595.50	-1757.25	  371.93
    124.4700	  597.00	  592.46	-1732.21	  372.44
    124.5700	  613.00	  589.62	-1713.37	  372.95
    124.6700	  599.00	  586.99	-1724.74	  373.48
    124.7700	  665.00	  584.60	-1656.35	  374.01
    124.8700	  600.00	  582.45	-1719.20	  374.56
    124.9700	  571.00	  493.37	-1659.12	  375.11
    125.0700	  608.00	  493.93	-1736.75	  375.67
    125.1700	  595.00	  494.51	-1736.75	  376.25
    125.2700	  591.00	  495.09	-1736.75	  376.83
    125.3700	  549.00	  495.68	-1736.75	  377.42
    125.4700	  578.00	  496.28	-1736.75	  378.02
    125.5700	  615.00	  496.89	-1736.75	  378.63
    125.6700	  620.00	  497.51	-1736.75	  379.25
    125.7700	  549.00	  498.14	-1736.75	  379.88
    125.8700	  569.00	  498.78	-1736.75	  380.52
    125.9700	  612.00	  499.43	-1736.75	  381.17
    126.0700	  612.00	  500.09	-1736.75	  381.83
    126.1700	  564.00	  500.76	-1736.75	  382.50
    126.2700	  579.00	  501.44	-1736.75	  383.18
    126.3700	  569.00	  502.13	-1736.75	  383.87
    126.4700	  566.00	  502.83	-1736.75	  384.57
    126.5700	  591.00	  503.54	-1736.75	  385.28
    126.6700	  572.00	  504.26	-1736.75	  386.00
    126.7700	  654.00	  504.99	-1736.75	  386.73
    126.8700	  593.00	  505.73	-1736.75	  387.47
    126.9700	  605.00	  506.48	-1736.75	  388.22
    127.0700	  682.00	  507.25	-1736.75	  388.99
    127.1700	  641.00	  508.02	-1736.75	  389.76
    127.2700	  640.00	  508.81	-1736.75	  390.55
    127.3700	  607.00	  509.60	-1736.75	  391.34
    127.4700	  656.00	  510.41	-1736.75	  392.15
    127.5700	  665.00	  511.23	-1736.75	  392.97
    127.6700	  709.00	  512.06	-1736.75	  393.80
    127.7700	  717.00	  512.90	-1736.75	  394.64
    127.8700	  719.00	  513.75	-1736.75	  395.49
    127.9700	  744.00	  514.61	-1736.75	  396.35
    128.0700	  741.00	  515.49	-1736.75	  397.23
    128.1700	  734.00	  516.37	-1736.75	  398.11
    128.2700	  760.00	  517.27	-1736.75	  399.01
    128.3700	  836.00	  518.18	-1736.75	  399.92
    128.4700	  781.00	  519.10	-1736.75	  400.84
    128.5700	    0.00	  520.03	-1736.75	  401.77
    128.6700	    0.00	  520.98	-1736.75	  402.72
     12.3087	        	        	        	        	       0	(  0  0  2)	  0  1
     24.8880	        	        	        	        	       0	(  0  0  4)	  0  1
     28.3357	        	        	        	        	       0	(  1  0  0)	  0  1
     29.0325	        	        	        	        	       0	(  1  0  1)	  0  1
     31.0377	        	        	        	        	       0	(  1  0  2)	  0  1
     34.1445	        	        	        	        	       0	(  1  0  3)	  0  1
     37.7829	        	        	        	        	       0	(  0  0  6)	  0  1
     38.1197	        	        	        	        	       0	(  1  0  4)	  0  1
     42.7677	        	        	        	        	       0	(  1  0  5)	  0  1
     47.9493	        	        	        	        	       0	(  1  0  6)	  0  1
     50.2712	        	        	        	        	       0	(  1  1  0)	  0  1
     51.1996	        	        	        	        	       0	(  0  0  8)	  0  1
     51.9932	        	        	        	        	       0	(  1  1  2)	  0  1
     53.5773	        	        	        	        	       0	(  1  0  7)	  0  1
     56.9384	        	        	        	        	       0	(  1  1  4)	  0  1
     58.7675	        	        	        	        	       0	(  2  0  0)	  0  1
     59.1589	        	        	        	        	       0	(  2  0  1)	  0  1
     59.6049	        	        	        	        	       0	(  1  0  8)	  0  1
     60.3236	        	        	        	        	       0	(  2  0  2)	  0  1
     62.2357	        	        	        	        	       0	(  2  0  3)	  0  1
     64.6290	        	        	        	        	       0	(  1  1  6)	  0  1
     64.8583	        	        	        	        	       0	(  2  0  4)	  0  1
     65.4225	        	        	        	        	       0	(  0  0 10)	  0  1
     66.0181	        	        	        	        	       0	(  1  0  9)	  0  1
     68.1507	        	        	        	        	       0	(  2  0  5)	  0  1
     72.0760	        	        	        	        	       0	(  2  0  6)	  0  1
     72.8307	        	        	        	        	       0	(  1  0 10)	  0  1
     74.6612	        	        	        	        	       0	(  1  1  8)	  0  1
     76.6076	        	        	        	        	       0	(  2  0  7)	  0  1
     80.0844	        	        	        	        	       0	(  1  0 11)	  0  1
     80.8949	        	        	        	        	       0	(  0  0 12)	  0  1
     81.0067	        	        	        	        	       0	(  2  1  0)	  0  1
     81.3464	        	        	        	        	       0	(  2  1  1)	  0  1
     81.7348	        	        	        	        	       0	(  2  0  8)	  0  1
     82.3636	        	        	        	        	       0	(  2  1  2)	  0  1
     84.0539	        	        	        	        	       0	(  2  1  3)	  0  1
     86.4121	        	        	        	        	       0	(  2  1  4)	  0  1
     86.9254	        	        	        	        	       0	(  1  1 10)	  0  1
     87.4694	        	        	        	        	       0	(  2  0  9)	  0  1
     87.8540	        	        	        	        	       0	(  1  0 12)	  0  1
     89.4360	        	        	        	        	       0	(  2  1  5)	  0  1
     93.1311	        	        	        	        	       0	(  2  1  6)	  0  1
     93.8526	        	        	        	        	       0	(  2  0 10)	  0  1
     94.8941	        	        	        	        	       0	(  3  0  0)	  0  1
     95.2312	        	        	        	        	       0	(  3  0  1)	  0  1
     96.2438	        	        	        	        	       0	(  3  0  2)	  0  1
     96.2615	        	        	        	        	       0	(  1  0 13)	  0  1
     97.5167	        	        	        	        	       0	(  2  1  7)	  0  1
     97.9360	        	        	        	        	       0	(  3  0  3)	  0  1
     98.4225	        	        	        	        	       0	(  0  0 14)	  0  1
    100.3174	        	        	        	        	       0	(  3  0  4)	  0  1
    100.9694	        	        	        	        	       0	(  2  0 11)	  0  1
    101.7854	        	        	        	        	       0	(  1  1 12)	  0  1
    102.6356	        	        	        	        	       0	(  2  1  8)	  0  1
    103.4069	        	        	        	        	       0	(  3  0  5)	  0  1
    105.5067	        	        	        	        	       0	(  1  0 14)	  0  1
    107.2392	        	        	        	        	       0	(  3  0  6)	  0  1
    108.5679	        	        	        	        	       0	(  2  1  9)	  0  1
    108.9742	        	        	        	        	       0	(  2  0 12)	  0  1
    111.8761	        	        	        	        	       0	(  3  0  7)	  0  1
    115.4590	        	        	        	        	       0	(  2  1 10)	  0  1
    115.9399	        	        	        	        	       0	(  1  0 15)	  0  1
    116.6157	        	        	        	        	       0	(  2  2  0)	  0  1
    117.4249	        	        	        	        	       0	(  3  0  8)	  0  1
    118.1298	        	        	        	        	       0	(  2  2  2)	  0  1
    118.1498	        	        	        	        	       0	(  2  0 13)	  0  1
    119.8898	        	        	        	        	       0	(  0  0 16)	  0  1
    120.6118	        	        	        	        	       0	(  1  1 14)	  0  1
    122.8116	        	        	        	        	       0	(  2  2  4)	  0  1
    123.5781	        	        	        	        	       0	(  2  1 11)	  0  1
    124.0788	        	        	        	        	       0	(  3  0  9)	  0  1
    124.6792	        	        	        	        	       0	(  3  1  0)	  0  1
    125.0891	        	        	        	        	       0	(  3  1  1)	  0  1
    126.3316	        	        	        	        	       0	(  3  1  2)	  0  1
    128.2673	        	        	        	        	       0	(  1  0 16)	  0  1
    128.4480	        	        	        	        	       0	(  3  1  3)	  0  1
    129.0665	        	        	        	        	       0	(  2  0 14)	  0  1
    131.2440	        	        	        	        	       0	(  2  2  6)	  0  1
    131.5212	        	        	        	        	       0	(  3  1  4)	  0  1
    132.2106	        	        	        	        	       0	(  3  0 10)	  0  1
    133.4785	        	        	        	        	       0	(  2  1 12)	  0  1
    135.7043	        	        	        	        	       0	(  3  1  5)	  0  1
    141.2935	        	        	        	        	       0	(  3  1  6)	  0  1
    142.6745	        	        	        	        	       0	(  3  0 11)	  0  1
    143.1815	        	        	        	        	       0	(  2  0 15)	  0  1
    144.4041	        	        	        	        	       0	(  1  0 17)	  0  1
    145.4609	        	        	        	        	       0	(  2  2  8)	  0  1
    146.6110	        	        	        	        	       0	(  2  1 13)	  0  1
    148.9561	        	        	        	        	       0	(  3  1  7)	  0  1
    149.4931	        	        	        	        	       0	(  1  1 16)	  0  1
    153.8597	        	        	        	        	       0	(  0  0 18)	  0  1
    158.5117	        	        	        	        	       0	(  3  0 12)	  0  1
    158.8171	        	        	        	        	       0	(  4  0  0)	  0  1
    159.7721	        	        	        	        	       0	(  4  0  1)	  0  1
    160.9216	        	        	        	        	       0	(  3  1  8)	  0  1
    162.9435	        	        	        	        	       0	(  4  0  2)	  0  1
    169.4451	        	        	        	        	       0	(  2  0 16)	  0  1
    170.2576	        	        	        	        	       0	(  4  0  3)	  0  1
    173.7787	        	        	        	        	       0	(  2  1 14)	  0  1
