MSG Master    CELL:    5.91913   5.91913  23.27138   90.0000   90.0000  120.0000   SPGR: P 63/m m c             TEMP:   1074.85
  1   1280     2.52000     0.00000    -0.12388     0.00000     0.00000    0
    99     0     2
       0.00000      10.00000
     125.00000     130.00000
 2Theta	Yobs	Ycal	Yobs-Ycal	Backg	Posr	(hkl)	K
      0.7700	    0.00	  569.78	-1775.00	  453.32
      0.8700	    0.00	  570.25	-1775.00	  453.79
      0.9700	   45.00	  570.72	-1775.00	  454.25
      1.0700	   48.00	  571.17	-1775.00	  454.71
      1.1700	   43.00	  571.62	-1775.00	  455.15
      1.2700	   40.00	  572.05	-1775.00	  455.59
      1.3700	   39.00	  572.48	-1775.00	  456.02
      1.4700	  110.00	  572.90	-1775.00	  456.43
      1.5700	  318.00	  573.30	-1775.00	  456.84
      1.6700	  450.00	  573.71	-1775.00	  457.24
      1.7700	  587.00	  574.10	-1775.00	  457.63
      1.8700	  650.00	  574.48	-1775.00	  458.02
      1.9700	  752.00	  574.85	-1775.00	  458.39
      2.0700	  773.00	  575.22	-1775.00	  458.76
      2.1700	  845.00	  575.58	-1775.00	  459.12
      2.2700	  765.00	  575.93	-1775.00	  459.47
      2.3700	  696.00	  576.27	-1775.00	  459.81
      2.4700	  690.00	  576.60	-1775.00	  460.14
      2.5700	  714.00	  576.93	-1775.00	  460.47
      2.6700	  691.00	  577.24	-1775.00	  460.78
      2.7700	  668.00	  577.55	-1775.00	  461.09
      2.8700	  664.00	  577.85	-1775.00	  461.39
      2.9700	  601.00	  578.15	-1775.00	  461.69
      3.0700	  577.00	  578.43	-1775.00	  461.97
      3.1700	  617.00	  578.71	-1775.00	  462.25
      3.2700	  599.00	  578.98	-1775.00	  462.52
      3.3700	  662.00	  579.24	-1775.00	  462.78
      3.4700	  757.00	  579.50	-1775.00	  463.03
      3.5700	  788.00	  579.74	-1775.00	  463.28
      3.6700	  853.00	  579.98	-1775.00	  463.52
      3.7700	  915.00	  580.21	-1775.00	  463.75
      3.8700	  981.00	  580.44	-1775.00	  463.98
      3.9700	  985.00	  580.66	-1775.00	  464.19
      4.0700	 1033.00	  580.87	-1775.00	  464.40
      4.1700	 1031.00	  581.07	-1775.00	  464.61
      4.2700	 1088.00	  581.27	-1775.00	  464.80
      4.3700	 1119.00	  581.45	-1775.00	  464.99
      4.4700	 1058.00	  581.64	-1775.00	  465.17
      4.5700	 1044.00	  581.81	-1775.00	  465.35
      4.6700	  987.00	  581.98	-1775.00	  465.52
      4.7700	 1041.00	  582.14	-1775.00	  465.68
      4.8700	  899.00	  582.29	-1775.00	  465.83
      4.9700	  979.00	  582.44	-1775.00	  465.98
      5.0700	  942.00	  582.58	-1775.00	  466.12
      5.1700	  921.00	  582.72	-1775.00	  466.26
      5.2700	  918.00	  582.85	-1775.00	  466.38
      5.3700	  865.00	  582.97	-1775.00	  466.50
      5.4700	  913.00	  583.08	-1775.00	  466.62
      5.5700	  822.00	  583.19	-1775.00	  466.73
      5.6700	  838.00	  583.29	-1775.00	  466.83
      5.7700	  830.00	  583.39	-1775.00	  466.93
      5.8700	  820.00	  583.48	-1775.00	  467.02
      5.9700	  809.00	  583.56	-1775.00	  467.10
      6.0700	  852.00	  583.64	-1775.00	  467.18
      6.1700	  774.00	  583.71	-1775.00	  467.25
      6.2700	  704.00	  583.78	-1775.00	  467.31
      6.3700	  781.00	  583.84	-1775.00	  467.37
      6.4700	  762.00	  583.89	-1775.00	  467.43
      6.5700	  752.00	  583.94	-1775.00	  467.47
      6.6700	  692.00	  583.98	-1775.00	  467.52
      6.7700	  699.00	  584.01	-1775.00	  467.55
      6.8700	  714.00	  584.05	-1775.00	  467.58
      6.9700	  727.00	  584.07	-1775.00	  467.61
      7.0700	  723.00	  584.09	-1775.00	  467.63
      7.1700	  674.00	  584.10	-1775.00	  467.64
      7.2700	  737.00	  584.11	-1775.00	  467.65
      7.3700	  717.00	  584.11	-1775.00	  467.65
      7.4700	  721.00	  584.11	-1775.00	  467.65
      7.5700	  624.00	  584.10	-1775.00	  467.64
      7.6700	  682.00	  584.09	-1775.00	  467.63
      7.7700	  626.00	  584.07	-1775.00	  467.61
      7.8700	  625.00	  584.05	-1775.00	  467.59
      7.9700	  643.00	  584.02	-1775.00	  467.56
      8.0700	  640.00	  583.99	-1775.00	  467.52
      8.1700	  636.00	  583.95	-1775.00	  467.48
      8.2700	  635.00	  583.90	-1775.00	  467.44
      8.3700	  673.00	  583.85	-1775.00	  467.39
      8.4700	  614.00	  583.80	-1775.00	  467.34
      8.5700	  594.00	  583.74	-1775.00	  467.28
      8.6700	  632.00	  583.68	-1775.00	  467.22
      8.7700	  615.00	  583.61	-1775.00	  467.15
      8.8700	  646.00	  583.54	-1775.00	  467.08
      8.9700	  614.00	  583.46	-1775.00	  467.00
      9.0700	  641.00	  583.38	-1775.00	  466.92
      9.1700	  578.00	  583.29	-1775.00	  466.83
      9.2700	  604.00	  583.20	-1775.00	  466.74
      9.3700	  600.00	  583.11	-1775.00	  466.64
      9.4700	  649.00	  583.01	-1775.00	  466.54
      9.5700	  568.00	  582.90	-1775.00	  466.44
      9.6700	  645.00	  582.79	-1775.00	  466.33
      9.7700	  597.00	  582.68	-1775.00	  466.22
      9.8700	  644.00	  582.56	-1775.00	  466.10
      9.9700	  602.00	  582.44	-1775.00	  465.98
     10.0700	  584.00	  583.02	-1774.02	  465.86
     10.1700	  592.00	  582.96	-1765.96	  465.73
     10.2700	  608.00	  582.91	-1749.91	  465.59
     10.3700	  546.00	  582.89	-1811.89	  465.46
     10.4700	  617.00	  582.92	-1740.92	  465.31
     10.5700	  626.00	  583.04	-1732.04	  465.17
     10.6700	  630.00	  583.35	-1728.35	  465.02
     10.7700	  603.00	  583.96	-1755.96	  464.87
     10.8700	  652.00	  584.94	-1707.94	  464.71
     10.9700	  613.00	  586.29	-1748.29	  464.55
     11.0700	  576.00	  587.96	-1786.96	  464.39
     11.1700	  610.00	  589.94	-1754.94	  464.22
     11.2700	  599.00	  592.28	-1768.28	  464.05
     11.3700	  582.00	  595.03	-1788.03	  463.87
     11.4700	  596.00	  598.33	-1777.33	  463.69
     11.5700	  571.00	  602.36	-1806.36	  463.51
     11.6700	  594.00	  607.44	-1788.44	  463.33
     11.7700	  642.00	  614.15	-1747.15	  463.14
     11.8700	  632.00	  623.43	-1766.43	  462.95
     11.9700	  693.00	  636.10	-1718.10	  462.75
     12.0700	  706.00	  650.92	-1719.92	  462.55
     12.1700	  634.00	  661.92	-1802.92	  462.35
     12.2700	  680.00	  659.14	-1754.14	  462.15
     12.3700	  671.00	  639.10	-1743.10	  461.94
     12.4700	  605.00	  614.31	-1784.31	  461.73
     12.5700	  618.00	  596.38	-1753.38	  461.51
     12.6700	  583.00	  586.91	-1778.91	  461.29
     12.7700	  557.00	  582.77	-1800.77	  461.07
     12.8700	  515.00	  580.90	-1840.90	  460.85
     12.9700	  587.00	  579.84	-1767.84	  460.62
     13.0700	  573.00	  579.07	-1781.07	  460.40
     13.1700	  562.00	  578.46	-1791.46	  460.16
     13.2700	  573.00	  577.95	-1779.95	  459.93
     13.3700	  551.00	  577.49	-1801.49	  459.69
     13.4700	  566.00	  577.08	-1786.08	  459.45
     13.5700	  582.00	  576.70	-1769.70	  459.21
     13.6700	  557.00	  576.35	-1794.35	  458.96
     13.7700	  532.00	  576.01	-1819.01	  458.71
     13.8700	  614.00	  575.68	-1736.68	  458.46
     13.9700	  550.00	  575.37	-1800.37	  458.21
     14.0700	  585.00	  575.06	-1765.06	  457.96
     14.1700	  586.00	  574.75	-1763.75	  457.70
     14.2700	  548.00	  574.45	-1801.45	  457.44
     14.3700	  556.00	  574.16	-1793.16	  457.17
     14.4700	  548.00	  573.86	-1800.86	  456.91
     14.5700	  510.00	  573.57	-1838.57	  456.64
     14.6700	  544.00	  573.28	-1804.28	  456.37
     14.7700	  556.00	  572.98	-1791.98	  456.10
     14.8700	  592.00	  572.69	-1755.69	  455.83
     14.9700	  559.00	  572.40	-1788.40	  455.55
     15.0700	  570.00	  572.10	-1777.10	  455.27
     15.1700	  547.00	  571.81	-1799.81	  454.99
     15.2700	  541.00	  571.51	-1805.51	  454.71
     15.3700	  556.00	  571.22	-1790.22	  454.42
     15.4700	  533.00	  570.92	-1812.92	  454.14
     15.5700	  573.00	  570.62	-1772.62	  453.85
     15.6700	  602.00	  570.33	-1743.33	  453.56
     15.7700	  596.00	  570.03	-1749.03	  453.27
     15.8700	  580.00	  569.72	-1764.72	  452.97
     15.9700	  566.00	  569.42	-1778.42	  452.68
     16.0700	  557.00	  569.12	-1787.12	  452.38
     16.1700	  570.00	  568.81	-1773.81	  452.08
     16.2700	  510.00	  568.51	-1833.51	  451.78
     16.3700	  544.00	  568.22	-1799.22	  451.48
     16.4700	  549.00	  567.91	-1793.92	  451.17
     16.5700	  524.00	  567.61	-1818.61	  450.86
     16.6700	  541.00	  567.29	-1801.29	  450.56
     16.7700	  579.00	  566.98	-1762.98	  450.25
     16.8700	  596.00	  566.67	-1745.67	  449.94
     16.9700	  569.00	  566.35	-1772.35	  449.62
     17.0700	  596.00	  566.04	-1745.04	  449.31
     17.1700	  590.00	  565.72	-1750.72	  449.00
     17.2700	  557.00	  565.40	-1783.40	  448.68
     17.3700	  553.00	  565.08	-1787.08	  448.36
     17.4700	  561.00	  564.76	-1778.76	  448.04
     17.5700	  571.00	  564.44	-1768.44	  447.72
     17.6700	  588.00	  564.12	-1751.12	  447.40
     17.7700	  575.00	  563.79	-1763.79	  447.08
     17.8700	  645.00	  563.56	-1693.56	  446.75
     17.9700	  515.00	  563.24	-1823.24	  446.43
     18.0700	  540.00	  562.92	-1797.92	  446.10
     18.1700	  531.00	  562.59	-1806.59	  445.77
     18.2700	  550.00	  562.26	-1787.26	  445.45
     18.3700	  578.00	  561.93	-1758.93	  445.12
     18.4700	  569.00	  561.61	-1767.61	  444.78
     18.5700	  553.00	  561.28	-1783.28	  444.45
     18.6700	  579.00	  560.95	-1756.95	  444.12
     18.7700	  554.00	  560.62	-1781.62	  443.79
     18.8700	  572.00	  560.38	-1763.38	  443.45
     18.9700	  581.00	  560.05	-1754.05	  443.12
     19.0700	  567.00	  559.71	-1767.71	  442.78
     19.1700	  509.00	  559.38	-1825.38	  442.44
     19.2700	  583.00	  559.05	-1751.05	  442.10
     19.3700	  526.00	  558.72	-1807.72	  441.77
     19.4700	  542.00	  558.39	-1791.39	  441.43
     19.5700	  550.00	  558.05	-1783.05	  441.09
     19.6700	  525.00	  557.72	-1807.72	  440.75
     19.7700	  573.00	  557.38	-1759.38	  440.40
     19.8700	  532.00	  557.05	-1800.05	  440.06
     19.9700	  566.00	  556.72	-1765.72	  439.72
     20.0700	  561.00	  556.38	-1770.38	  439.38
     20.1700	  573.00	  556.05	-1758.05	  439.03
     20.2700	  556.00	  555.71	-1774.71	  438.69
     20.3700	  550.00	  555.38	-1780.38	  438.34
     20.4700	  513.00	  555.02	-1817.02	  438.00
     20.5700	  558.00	  554.68	-1771.68	  437.65
     20.6700	  552.00	  554.35	-1777.35	  437.30
     20.7700	  519.00	  554.02	-1810.02	  436.96
     20.8700	  516.00	  553.72	-1812.72	  436.61
     20.9700	  610.00	  553.39	-1718.39	  436.26
     21.0700	  584.00	  553.06	-1744.06	  435.92
     21.1700	  549.00	  552.73	-1778.73	  435.57
     21.2700	  534.00	  552.40	-1793.40	  435.22
     21.3700	  547.00	  552.07	-1780.07	  434.87
     21.4700	  561.00	  551.74	-1765.74	  434.52
     21.5700	  549.00	  551.41	-1777.41	  434.17
     21.6700	  588.00	  551.09	-1738.09	  433.82
     21.7700	  536.00	  550.76	-1789.76	  433.47
     21.8700	  548.00	  550.44	-1777.44	  433.12
     21.9700	  546.00	  550.12	-1779.12	  432.77
     22.0700	  570.00	  549.80	-1754.80	  432.42
     22.1700	  563.00	  549.49	-1761.49	  432.07
     22.2700	  573.00	  549.17	-1751.17	  431.72
     22.3700	  582.00	  548.86	-1741.86	  431.37
     22.4700	  577.00	  548.56	-1746.56	  431.02
     22.5700	  519.00	  548.26	-1804.26	  430.67
     22.6700	  575.00	  547.96	-1747.96	  430.32
     22.7700	  551.00	  547.67	-1771.67	  429.98
     22.8700	  496.00	  547.39	-1826.39	  429.63
     22.9700	  586.00	  547.12	-1736.12	  429.28
     23.0700	  550.00	  546.86	-1771.86	  428.93
     23.1700	  523.00	  546.61	-1798.61	  428.58
     23.2700	  588.00	  546.38	-1733.38	  428.23
     23.3700	  563.00	  546.18	-1758.18	  427.88
     23.4700	  515.00	  546.00	-1806.00	  427.53
     23.5700	  580.00	  545.87	-1740.87	  427.18
     23.6700	  571.00	  545.79	-1749.79	  426.83
     23.7700	  555.00	  545.93	-1765.93	  426.49
     23.8700	  517.00	  546.14	-1804.14	  426.14
     23.9700	  591.00	  546.72	-1730.72	  425.79
     24.0700	  564.00	  548.09	-1759.09	  425.44
     24.1700	  605.00	  550.89	-1720.89	  425.10
     24.2700	  560.00	  555.92	-1770.92	  424.75
     24.3700	  596.00	  564.12	-1743.12	  424.40
     24.4700	  564.00	  576.56	-1787.56	  424.06
     24.5700	  570.00	  593.77	-1798.77	  423.71
     24.6700	  597.00	  613.30	-1791.30	  423.37
     24.7700	  617.00	  627.40	-1785.40	  423.02
     24.8700	  610.00	  625.15	-1790.15	  422.68
     24.9700	  582.00	  604.58	-1797.58	  422.34
     25.0700	  589.00	  579.18	-1765.18	  422.00
     25.1700	  574.00	  560.33	-1761.33	  421.65
     25.2700	  551.00	  549.96	-1773.96	  421.31
     25.3700	  543.00	  545.27	-1777.27	  420.97
     25.4700	  578.00	  543.21	-1740.21	  420.63
     25.5700	  558.00	  542.12	-1759.12	  420.29
     25.6700	  524.00	  541.40	-1792.40	  419.95
     25.7700	  584.00	  540.87	-1731.87	  419.61
     25.8700	  579.00	  540.46	-1736.46	  419.27
     25.9700	  556.00	  540.15	-1759.15	  418.94
     26.0700	  567.00	  539.92	-1747.92	  418.60
     26.1700	  530.00	  539.76	-1784.76	  418.27
     26.2700	  553.00	  539.67	-1761.67	  417.93
     26.3700	  563.00	  539.65	-1751.65	  417.60
     26.4700	  564.00	  539.72	-1750.72	  417.26
     26.5700	  558.00	  539.87	-1756.87	  416.93
     26.6700	  560.00	  540.14	-1755.14	  416.60
     26.7700	  524.00	  540.53	-1791.53	  416.27
     26.8700	  520.00	  541.10	-1796.10	  415.94
     26.9700	  549.00	  541.87	-1767.87	  415.61
     27.0700	  564.00	  542.94	-1753.94	  415.28
     27.1700	  560.00	  544.42	-1759.42	  414.95
     27.2700	  576.00	  546.55	-1745.55	  414.62
     27.3700	  549.00	  549.80	-1775.80	  414.30
     27.4700	  556.00	  555.05	-1774.05	  413.97
     27.5700	  557.00	  563.89	-1781.89	  413.65
     27.6700	  565.00	  578.81	-1788.81	  413.33
     27.7700	  522.00	  602.97	-1855.97	  413.00
     27.8700	  585.00	  639.07	-1829.07	  412.68
     27.9700	  656.00	  687.18	-1806.18	  412.36
     28.0700	  794.00	  741.92	-1722.92	  412.04
     28.1700	  873.00	  790.13	-1692.13	  411.73
     28.2700	  938.00	  812.07	-1649.07	  411.41
     28.3700	  889.00	  796.04	-1682.04	  411.09
     28.4700	  792.00	  760.97	-1743.97	  410.78
     28.5700	  703.00	  738.82	-1810.82	  410.46
     28.6700	  681.00	  744.51	-1838.51	  410.15
     28.7700	  754.00	  773.32	-1794.32	  409.84
     28.8700	  786.00	  805.48	-1794.48	  409.53
     28.9700	  810.00	  812.33	-1777.33	  409.22
     29.0700	  832.00	  775.03	-1718.03	  408.91
     29.1700	  724.00	  709.41	-1760.41	  408.60
     29.2700	  666.00	  646.03	-1755.03	  408.30
     29.3700	  571.00	  599.87	-1803.87	  407.99
     29.4700	  551.00	  571.75	-1795.75	  407.69
     29.5700	  601.00	  556.47	-1730.47	  407.39
     29.6700	  552.00	  548.41	-1771.41	  407.09
     29.7700	  542.00	  543.88	-1776.88	  406.79
     29.8700	  566.00	  541.09	-1750.09	  406.49
     29.9700	  567.00	  539.34	-1747.34	  406.19
     30.0700	  557.00	  538.45	-1756.45	  405.89
     30.1700	  574.00	  538.59	-1739.59	  405.60
     30.2700	  570.00	  540.32	-1745.32	  405.31
     30.3700	  553.00	  544.75	-1766.75	  405.01
     30.4700	  569.00	  553.60	-1759.60	  404.72
     30.5700	  543.00	  568.71	-1800.71	  404.43
     30.6700	  566.00	  590.65	-1799.65	  404.14
     30.7700	  592.00	  616.82	-1799.82	  403.86
     30.8700	  631.00	  639.90	-1783.90	  403.57
     30.9700	  617.00	  648.58	-1806.58	  403.29
     31.0700	  604.00	  634.78	-1805.78	  403.00
     31.1700	  605.00	  605.65	-1775.65	  402.72
     31.2700	  529.00	  576.04	-1822.04	  402.44
     31.3700	  530.00	  554.04	-1799.04	  402.16
     31.4700	  532.00	  540.63	-1783.63	  401.89
     31.5700	  554.00	  533.46	-1754.46	  401.61
     31.6700	  540.00	  529.79	-1764.79	  401.34
     31.7700	  552.00	  527.77	-1750.77	  401.06
     31.8700	  534.00	  526.50	-1767.50	  400.79
     31.9700	  553.00	  525.62	-1747.62	  400.52
     32.0700	  574.00	  524.99	-1725.99	  400.25
     32.1700	  537.00	  524.56	-1762.56	  399.98
     32.2700	  515.00	  524.29	-1784.29	  399.72
     32.3700	  585.00	  524.17	-1714.17	  399.45
     32.4700	  532.00	  524.22	-1767.22	  399.19
     32.5700	  552.00	  524.43	-1747.43	  398.93
     32.6700	  602.00	  524.84	-1697.84	  398.67
     32.7700	  549.00	  525.49	-1751.49	  398.41
     32.8700	  585.00	  526.44	-1716.44	  398.15
     32.9700	  540.00	  527.82	-1762.82	  397.90
     33.0700	  496.00	  529.81	-1808.81	  397.64
     33.1700	  516.00	  532.86	-1791.86	  397.39
     33.2700	  566.00	  538.00	-1747.00	  397.14
     33.3700	  558.00	  547.43	-1764.43	  396.89
     33.4700	  546.00	  565.51	-1794.51	  396.64
     33.5700	  575.00	  599.31	-1799.31	  396.40
     33.6700	  648.00	  657.14	-1784.14	  396.15
     33.7700	  732.00	  743.17	-1786.17	  395.91
     33.8700	  920.00	  848.70	-1703.70	  395.67
     33.9700	 1015.00	  945.94	-1705.94	  395.43
     34.0700	 1058.00	  991.24	-1708.24	  395.19
     34.1700	 1017.00	  950.97	-1708.97	  394.96
     34.2700	  909.00	  845.51	-1711.51	  394.72
     34.3700	  763.00	  730.33	-1742.33	  394.49
     34.4700	  598.00	  640.72	-1817.72	  394.26
     34.5700	  582.00	  584.40	-1777.40	  394.03
     34.6700	  568.00	  554.05	-1761.05	  393.80
     34.7700	  571.00	  538.93	-1742.93	  393.57
     34.8700	  543.00	  531.13	-1763.13	  393.35
     34.9700	  537.00	  526.51	-1764.51	  393.12
     35.0700	  486.00	  523.34	-1812.34	  392.90
     35.1700	  506.00	  520.95	-1789.95	  392.68
     35.2700	  535.00	  519.06	-1759.06	  392.46
     35.3700	  525.00	  517.55	-1767.55	  392.25
     35.4700	  528.00	  516.28	-1763.28	  392.03
     35.5700	  495.00	  515.21	-1795.21	  391.82
     35.6700	  495.00	  514.30	-1794.30	  391.61
     35.7700	  472.00	  513.50	-1816.50	  391.40
     35.8700	  509.00	  513.29	-1779.29	  391.19
     35.9700	  547.00	  512.68	-1740.68	  390.98
     36.0700	  553.00	  512.14	-1734.14	  390.78
     36.1700	  545.00	  511.64	-1741.64	  390.57
     36.2700	  524.00	  511.20	-1762.20	  390.37
     36.3700	  498.00	  510.80	-1787.80	  390.17
     36.4700	  521.00	  510.44	-1764.44	  389.98
     36.5700	  501.00	  510.11	-1784.11	  389.78
     36.6700	  496.00	  509.83	-1788.83	  389.58
     36.7700	  483.00	  509.58	-1801.58	  389.39
     36.8700	  518.00	  509.40	-1766.40	  389.20
     36.9700	  518.00	  509.31	-1766.31	  389.01
     37.0700	  534.00	  509.43	-1750.43	  388.82
     37.1700	  529.00	  509.95	-1755.95	  388.64
     37.2700	  520.00	  511.20	-1766.20	  388.45
     37.3700	  540.00	  513.54	-1748.54	  388.27
     37.4700	  547.00	  517.11	-1745.11	  388.09
     37.5700	  499.00	  521.47	-1797.47	  387.91
     37.6700	  526.00	  525.51	-1774.51	  387.74
     37.7700	  526.00	  527.79	-1776.79	  387.56
     37.8700	  492.00	  527.71	-1810.71	  387.39
     37.9700	  490.00	  525.96	-1810.96	  387.22
     38.0700	  528.00	  523.07	-1770.07	  387.05
     38.1700	  491.00	  519.20	-1803.20	  386.88
     38.2700	  523.00	  515.02	-1767.02	  386.71
     38.3700	  467.00	  511.41	-1819.41	  386.55
     38.4700	  517.00	  508.78	-1766.78	  386.39
     38.5700	  471.00	  507.09	-1811.09	  386.22
     38.6700	  492.00	  506.09	-1789.09	  386.07
     38.7700	  497.00	  505.41	-1783.41	  385.91
     38.8700	  485.00	  505.03	-1795.03	  385.75
     38.9700	  517.00	  504.74	-1762.74	  385.60
     39.0700	  497.00	  504.50	-1782.50	  385.45
     39.1700	  521.00	  504.28	-1758.28	  385.30
     39.2700	  505.00	  504.01	-1774.01	  385.15
     39.3700	  479.00	  503.84	-1799.84	  385.00
     39.4700	  535.00	  503.68	-1743.68	  384.86
     39.5700	  541.00	  503.53	-1737.53	  384.71
     39.6700	  502.00	  503.40	-1776.40	  384.57
     39.7700	  467.00	  503.39	-1811.39	  384.43
     39.8700	  474.00	  503.28	-1804.28	  384.29
     39.9700	  503.00	  503.17	-1775.17	  384.16
     40.0700	  528.00	  503.08	-1750.08	  384.02
     40.1700	  526.00	  503.00	-1752.00	  383.89
     40.2700	  492.00	  502.93	-1785.93	  383.76
     40.3700	  527.00	  502.87	-1750.87	  383.63
     40.4700	  480.00	  502.82	-1797.82	  383.51
     40.5700	  491.00	  502.79	-1786.79	  383.38
     40.6700	  539.00	  502.77	-1738.77	  383.26
     40.7700	  501.00	  502.77	-1776.77	  383.14
     40.8700	  457.00	  502.80	-1820.80	  383.02
     40.9700	  497.00	  502.85	-1780.85	  382.90
     41.0700	  447.00	  502.93	-1830.93	  382.78
     41.1700	  526.00	  503.05	-1752.05	  382.67
     41.2700	  552.00	  503.18	-1726.18	  382.55
     41.3700	  478.00	  503.42	-1800.42	  382.44
     41.4700	  467.00	  503.73	-1811.73	  382.33
     41.5700	  535.00	  504.15	-1744.15	  382.23
     41.6700	  524.00	  505.16	-1756.16	  382.12
     41.7700	  473.00	  506.04	-1808.04	  382.02
     41.8700	  511.00	  507.50	-1771.50	  381.92
     41.9700	  522.00	  510.20	-1763.20	  381.82
     42.0700	  507.00	  515.51	-1783.51	  381.72
     42.1700	  500.00	  525.69	-1800.69	  381.62
     42.2700	  533.00	  543.34	-1785.34	  381.53
     42.3700	  525.00	  570.23	-1820.23	  381.43
     42.4700	  552.00	  604.64	-1827.64	  381.34
     42.5700	  601.00	  639.26	-1813.26	  381.25
     42.6700	  599.00	  661.80	-1837.80	  381.16
     42.7700	  602.00	  660.41	-1833.41	  381.08
     42.8700	  604.00	  635.12	-1806.12	  380.99
     42.9700	  548.00	  598.73	-1825.73	  380.91
     43.0700	  520.00	  564.36	-1819.36	  380.83
     43.1700	  511.00	  538.63	-1802.63	  380.75
     43.2700	  502.00	  522.42	-1795.42	  380.67
     43.3700	  579.00	  513.51	-1709.51	  380.60
     43.4700	  536.00	  509.00	-1748.00	  380.53
     43.5700	  498.00	  506.71	-1783.71	  380.45
     43.6700	  525.00	  505.62	-1755.62	  380.38
     43.7700	  501.00	  504.81	-1778.81	  380.31
     43.8700	  519.00	  504.23	-1760.23	  380.25
     43.9700	  564.00	  503.80	-1714.80	  380.18
     44.0700	  490.00	  503.47	-1788.47	  380.12
     44.1700	  448.00	  503.22	-1830.22	  380.06
     44.2700	  492.00	  503.06	-1786.06	  380.00
     44.3700	  545.00	  502.92	-1732.92	  379.94
     44.4700	  483.00	  502.83	-1794.83	  379.88
     44.5700	  553.00	  502.64	-1724.64	  379.83
     44.6700	  521.00	  502.62	-1756.62	  379.78
     44.7700	  532.00	  502.62	-1745.62	  379.72
     44.8700	  492.00	  502.64	-1785.64	  379.67
     44.9700	  470.00	  502.69	-1807.69	  379.63
     45.0700	  514.00	  502.76	-1763.76	  379.58
     45.1700	  510.00	  503.04	-1768.04	  379.54
     45.2700	  523.00	  503.16	-1755.16	  379.49
     45.3700	  503.00	  503.29	-1775.29	  379.45
     45.4700	  515.00	  503.46	-1763.46	  379.41
     45.5700	  524.00	  503.64	-1754.64	  379.37
     45.6700	  515.00	  503.85	-1763.85	  379.34
     45.7700	  509.00	  504.08	-1770.08	  379.30
     45.8700	  512.00	  504.35	-1767.35	  379.27
     45.9700	  533.00	  504.64	-1746.64	  379.24
     46.0700	  545.00	  504.97	-1734.97	  379.21
     46.1700	  507.00	  505.33	-1773.33	  379.18
     46.2700	  518.00	  505.74	-1762.74	  379.15
     46.3700	  488.00	  506.20	-1793.20	  379.13
     46.4700	  524.00	  506.71	-1757.71	  379.11
     46.5700	  537.00	  507.29	-1745.29	  379.09
     46.6700	  518.00	  507.96	-1764.96	  379.07
     46.7700	  477.00	  508.73	-1806.73	  379.05
     46.8700	  471.00	  509.65	-1813.65	  379.03
     46.9700	  505.00	  510.84	-1780.84	  379.02
     47.0700	  501.00	  512.53	-1786.53	  379.00
     47.1700	  486.00	  515.26	-1804.26	  378.99
     47.2700	  530.00	  519.83	-1764.83	  378.98
     47.3700	  512.00	  527.55	-1790.55	  378.97
     47.4700	  521.00	  539.49	-1793.49	  378.96
     47.5700	  554.00	  556.03	-1777.03	  378.96
     47.6700	  601.00	  575.62	-1749.62	  378.95
     47.7700	  610.00	  594.22	-1759.22	  378.95
     47.8700	  600.00	  605.85	-1780.85	  378.95
     47.9700	  559.00	  605.73	-1821.73	  378.95
     48.0700	  607.00	  594.58	-1762.58	  378.95
     48.1700	  543.00	  578.26	-1810.26	  378.96
     48.2700	  543.00	  562.72	-1794.72	  378.96
     48.3700	  538.00	  551.30	-1788.30	  378.97
     48.4700	  542.00	  545.00	-1778.00	  378.98
     48.5700	  510.00	  543.20	-1808.20	  378.99
     48.6700	  552.00	  544.74	-1767.74	  379.00
     48.7700	  519.00	  548.68	-1804.68	  379.01
     48.8700	  546.00	  554.54	-1783.54	  379.03
     48.9700	  575.00	  562.42	-1762.42	  379.04
     49.0700	  563.00	  573.04	-1785.04	  379.06
     49.1700	  591.00	  588.14	-1772.14	  379.08
     49.2700	  637.00	  611.27	-1749.27	  379.10
     49.3700	  649.00	  649.10	-1775.10	  379.12
     49.4700	  743.00	  712.74	-1744.74	  379.14
     49.5700	  827.00	  818.14	-1766.14	  379.17
     49.6700	  886.00	  982.31	-1871.31	  379.19
     49.7700	 1133.00	 1218.50	-1860.50	  379.22
     49.8700	 1461.00	 1524.74	-1838.74	  379.25
     49.9700	 1830.00	 1873.01	-1818.01	  379.28
     50.0700	 2247.00	 2199.93	-1727.93	  379.31
     50.1700	 2465.00	 2410.86	-1720.86	  379.34
     50.2700	 2406.00	 2420.10	-1789.10	  379.38
     50.3700	 2333.00	 2221.27	-1663.27	  379.41
     50.4700	 1830.00	 1897.37	-1842.37	  379.45
     50.5700	 1438.00	 1548.81	-1885.81	  379.49
     50.6700	 1082.00	 1242.74	-1935.74	  379.53
     50.7700	  866.00	 1009.14	-1918.14	  379.57
     50.8700	  692.00	  850.56	-1933.56	  379.61
     50.9700	  631.00	  752.90	-1896.90	  379.66
     51.0700	  643.00	  695.93	-1827.93	  379.70
     51.1700	  579.00	  660.85	-1856.85	  379.75
     51.2700	  632.00	  634.95	-1777.95	  379.80
     51.3700	  608.00	  612.80	-1779.80	  379.85
     51.4700	  591.00	  593.60	-1777.60	  379.90
     51.5700	  598.00	  577.89	-1754.89	  379.95
     51.6700	  578.00	  565.97	-1762.97	  380.00
     51.7700	  578.00	  557.55	-1754.55	  380.05
     51.8700	  576.00	  551.86	-1750.86	  380.11
     51.9700	  563.00	  548.07	-1760.07	  380.17
     52.0700	  526.00	  545.53	-1794.53	  380.22
     52.1700	  533.00	  543.92	-1785.92	  380.28
     52.2700	  512.00	  543.17	-1806.17	  380.34
     52.3700	  568.00	  543.61	-1750.61	  380.41
     52.4700	  566.00	  545.17	-1754.17	  380.47
     52.5700	  597.00	  549.02	-1727.02	  380.53
     52.6700	  551.00	  557.18	-1781.18	  380.60
     52.7700	  554.00	  573.49	-1794.49	  380.67
     52.8700	  672.00	  604.12	-1707.12	  380.73
     52.9700	  758.00	  656.95	-1673.95	  380.80
     53.0700	  798.00	  739.03	-1716.03	  380.87
     53.1700	  977.00	  851.88	-1649.88	  380.94
     53.2700	 1047.00	  986.17	-1714.17	  381.02
     53.3700	 1138.00	 1118.28	-1755.28	  381.09
     53.4700	 1146.00	 1212.20	-1841.20	  381.16
     53.5700	 1173.00	 1232.63	-1834.63	  381.24
     53.6700	 1095.00	 1170.07	-1850.07	  381.32
     53.7700	 1000.00	 1050.44	-1825.44	  381.40
     53.8700	  825.00	  912.91	-1862.91	  381.47
     53.9700	  742.00	  788.00	-1821.00	  381.55
     54.0700	  659.00	  691.45	-1807.45	  381.64
     54.1700	  594.00	  626.12	-1807.12	  381.72
     54.2700	  546.00	  586.74	-1815.74	  381.80
     54.3700	  639.00	  565.20	-1701.20	  381.89
     54.4700	  584.00	  554.25	-1745.25	  381.97
     54.5700	  548.00	  549.01	-1776.01	  382.06
     54.6700	  523.00	  546.68	-1798.68	  382.15
     54.7700	  536.00	  545.90	-1784.90	  382.23
     54.8700	  580.00	  546.10	-1741.10	  382.32
     54.9700	  566.00	  547.06	-1756.06	  382.41
     55.0700	  602.00	  548.73	-1721.73	  382.51
     55.1700	  561.00	  551.10	-1765.10	  382.60
     55.2700	  571.00	  554.25	-1758.25	  382.69
     55.3700	  551.00	  558.32	-1782.32	  382.79
     55.4700	  519.00	  563.46	-1819.46	  382.88
     55.5700	  492.00	  570.10	-1853.09	  382.98
     55.6700	  582.00	  578.97	-1771.97	  383.08
     55.7700	  547.00	  591.66	-1819.66	  383.17
     55.8700	  559.00	  611.36	-1827.36	  383.27
     55.9700	  626.00	  644.10	-1793.10	  383.37
     56.0700	  668.00	  700.06	-1807.06	  383.47
     56.1700	  712.00	  794.16	-1857.16	  383.58
     56.2700	  880.00	  944.51	-1839.51	  383.68
     56.3700	 1192.00	 1167.20	-1750.20	  383.78
     56.4700	 1331.00	 1467.78	-1911.78	  383.89
     56.5700	 1777.00	 1831.22	-1829.22	  383.99
     56.6700	 2137.00	 2213.71	-1851.71	  384.10
     56.7700	 2420.00	 2540.51	-1895.51	  384.21
     56.8700	 2748.00	 2718.72	-1745.72	  384.31
     56.9700	 2632.00	 2682.76	-1825.76	  384.42
     57.0700	 2386.00	 2446.46	-1835.46	  384.53
     57.1700	 1986.00	 2092.19	-1881.19	  384.64
     57.2700	 1700.00	 1711.20	-1786.20	  384.75
     57.3700	 1325.00	 1368.58	-1818.58	  384.86
     57.4700	 1071.00	 1097.67	-1801.67	  384.98
     57.5700	  904.00	  905.64	-1776.64	  385.09
     57.6700	  831.00	  782.65	-1726.65	  385.20
     57.7700	  741.00	  711.79	-1745.79	  385.32
     57.8700	  702.00	  676.96	-1749.96	  385.43
     57.9700	  646.00	  666.71	-1795.71	  385.55
     58.0700	  681.00	  674.95	-1768.95	  385.67
     58.1700	  684.00	  699.60	-1790.60	  385.78
     58.2700	  785.00	  740.74	-1730.74	  385.90
     58.3700	  843.00	  798.67	-1730.67	  386.02
     58.4700	  932.00	  872.28	-1715.28	  386.14
     58.5700	 1155.00	  957.34	-1577.34	  386.26
     58.6700	 1357.00	 1045.92	-1463.92	  386.38
     58.7700	 1420.00	 1128.44	-1483.44	  386.50
     58.8700	 1550.00	 1197.89	-1422.89	  386.62
     58.9700	 1576.00	 1250.13	-1449.13	  386.75
     59.0700	 1597.00	 1279.72	-1457.72	  386.87
     59.1700	 1564.00	 1281.58	-1492.58	  386.99
     59.2700	 1517.00	 1258.94	-1516.94	  387.12
     59.3700	 1435.00	 1224.17	-1564.17	  387.24
     59.4700	 1252.00	 1190.37	-1713.37	  387.37
     59.5700	 1211.00	 1166.37	-1730.37	  387.49
     59.6700	 1123.00	 1159.24	-1811.24	  387.62
     59.7700	 1160.00	 1177.37	-1792.37	  387.75
     59.8700	 1195.00	 1226.67	-1806.67	  387.88
     59.9700	 1331.00	 1304.17	-1748.17	  388.00
     60.0700	 1386.00	 1394.57	-1783.57	  388.13
     60.1700	 1600.00	 1470.58	-1645.58	  388.26
     60.2700	 1603.00	 1499.61	-1671.61	  388.39
     60.3700	 1579.00	 1460.40	-1656.40	  388.52
     60.4700	 1517.00	 1358.23	-1616.23	  388.65
     60.5700	 1268.00	 1219.00	-1726.00	  388.78
     60.6700	 1131.00	 1071.37	-1715.37	  388.91
     60.7700	  929.00	  936.51	-1782.51	  389.04
     60.8700	  795.00	  826.55	-1806.55	  389.18
     60.9700	  715.00	  745.86	-1805.86	  389.31
     61.0700	  703.00	  693.55	-1765.55	  389.44
     61.1700	  612.00	  666.49	-1829.49	  389.57
     61.2700	  655.00	  661.97	-1781.97	  389.71
     61.3700	  660.00	  679.49	-1794.49	  389.84
     61.4700	  650.00	  720.91	-1845.91	  389.98
     61.5700	  779.00	  789.39	-1785.39	  390.11
     61.6700	  860.00	  886.92	-1801.92	  390.24
     61.7700	  968.00	 1011.45	-1818.45	  390.38
     61.8700	 1066.00	 1154.19	-1863.19	  390.52
     61.9700	 1172.00	 1297.76	-1900.76	  390.65
     62.0700	 1319.00	 1416.15	-1872.15	  390.79
     62.1700	 1390.00	 1479.38	-1864.38	  390.92
     62.2700	 1395.00	 1467.01	-1847.01	  391.06
     62.3700	 1223.00	 1382.60	-1934.60	  391.20
     62.4700	 1194.00	 1251.07	-1832.07	  391.33
     62.5700	 1021.00	 1102.29	-1856.29	  391.47
     62.6700	  917.00	  959.90	-1817.90	  391.61
     62.7700	  780.00	  838.46	-1833.46	  391.75
     62.8700	  691.00	  744.12	-1828.12	  391.88
     62.9700	  612.00	  676.59	-1839.59	  392.02
     63.0700	  601.00	  631.60	-1805.60	  392.16
     63.1700	  590.00	  603.45	-1788.45	  392.30
     63.2700	  575.00	  586.81	-1786.81	  392.44
     63.3700	  614.00	  577.67	-1738.67	  392.57
     63.4700	  587.00	  573.62	-1761.62	  392.71
     63.5700	  559.00	  573.74	-1789.74	  392.85
     63.6700	  581.00	  578.35	-1772.35	  392.99
     63.7700	  617.00	  588.81	-1746.81	  393.13
     63.8700	  577.00	  607.18	-1805.18	  393.27
     63.9700	  620.00	  635.69	-1790.69	  393.41
     64.0700	  686.00	  675.93	-1764.93	  393.55
     64.1700	  757.00	  727.88	-1745.88	  393.69
     64.2700	  795.00	  788.86	-1768.86	  393.83
     64.3700	  947.00	  852.98	-1680.98	  393.97
     64.4700	  975.00	  911.04	-1711.04	  394.10
     64.5700	 1028.00	  951.80	-1698.80	  394.24
     64.6700	 1013.00	  965.93	-1727.93	  394.38
     64.7700	  955.00	  952.12	-1772.12	  394.52
     64.8700	 1003.00	  914.70	-1686.70	  394.66
     64.9700	  947.00	  862.59	-1690.59	  394.80
     65.0700	  828.00	  805.62	-1752.62	  394.94
     65.1700	  770.00	  751.74	-1756.74	  395.08
     65.2700	  767.00	  705.48	-1713.48	  395.22
     65.3700	  649.00	  668.13	-1794.13	  395.36
     65.4700	  608.00	  638.87	-1805.87	  395.50
     65.5700	  605.00	  616.21	-1786.21	  395.64
     65.6700	  575.00	  598.86	-1798.86	  395.77
     65.7700	  576.00	  585.82	-1784.82	  395.91
     65.8700	  583.00	  576.35	-1768.35	  396.05
     65.9700	  598.00	  569.86	-1746.86	  396.19
     66.0700	  541.00	  565.88	-1799.88	  396.33
     66.1700	  570.00	  563.97	-1768.97	  396.47
     66.2700	  586.00	  563.77	-1752.77	  396.60
     66.3700	  551.00	  564.98	-1788.98	  396.74
     66.4700	  593.00	  567.44	-1749.44	  396.88
     66.5700	  570.00	  571.21	-1776.21	  397.02
     66.6700	  561.00	  576.66	-1790.66	  397.15
     66.7700	  546.00	  584.72	-1813.72	  397.29
     66.8700	  557.00	  596.86	-1814.86	  397.43
     66.9700	  622.00	  616.07	-1769.07	  397.56
     67.0700	  633.00	  646.99	-1788.99	  397.70
     67.1700	  671.00	  696.32	-1800.32	  397.83
     67.2700	  730.00	  772.61	-1817.61	  397.97
     67.3700	  845.00	  885.28	-1815.28	  398.10
     67.4700	 1046.00	 1042.30	-1771.30	  398.24
     67.5700	 1185.00	 1246.65	-1836.65	  398.37
     67.6700	 1481.00	 1493.58	-1787.58	  398.51
     67.7700	 1776.00	 1766.70	-1765.70	  398.64
     67.8700	 2073.00	 2037.21	-1739.21	  398.78
     67.9700	 2371.00	 2264.38	-1668.38	  398.91
     68.0700	 2403.00	 2402.17	-1774.17	  399.04
     68.1700	 2395.00	 2415.48	-1795.48	  399.17
     68.2700	 2399.00	 2300.61	-1676.61	  399.31
     68.3700	 2118.00	 2087.70	-1744.70	  399.44
     68.4700	 1897.00	 1822.51	-1700.51	  399.57
     68.5700	 1604.00	 1547.50	-1718.50	  399.70
     68.6700	 1271.00	 1294.10	-1798.10	  399.83
     68.7700	 1035.00	 1081.10	-1821.10	  399.96
     68.8700	  854.00	  915.28	-1836.28	  400.09
     68.9700	  782.00	  794.97	-1787.97	  400.22
     69.0700	  694.00	  712.73	-1793.73	  400.35
     69.1700	  703.00	  659.32	-1731.32	  400.48
     69.2700	  650.00	  625.88	-1750.88	  400.60
     69.3700	  627.00	  605.29	-1753.29	  400.73
     69.4700	  617.00	  592.53	-1750.53	  400.86
     69.5700	  587.00	  584.38	-1772.38	  400.98
     69.6700	  550.00	  578.96	-1803.96	  401.11
     69.7700	  568.00	  575.23	-1782.23	  401.23
     69.8700	  552.00	  572.63	-1795.63	  401.36
     69.9700	  600.00	  570.91	-1745.91	  401.48
     70.0700	  605.00	  569.91	-1739.91	  401.60
     70.1700	  594.00	  569.59	-1750.59	  401.73
     70.2700	  552.00	  569.99	-1792.99	  401.85
     70.3700	  573.00	  571.15	-1773.15	  401.97
     70.4700	  544.00	  573.32	-1804.32	  402.09
     70.5700	  577.00	  576.92	-1774.92	  402.21
     70.6700	  573.00	  582.79	-1784.79	  402.33
     70.7700	  568.00	  592.36	-1799.36	  402.45
     70.8700	  608.00	  607.95	-1774.95	  402.57
     70.9700	  650.00	  633.05	-1758.05	  402.69
     71.0700	  635.00	  672.39	-1812.39	  402.80
     71.1700	  703.00	  731.71	-1803.71	  402.92
     71.2700	  802.00	  817.81	-1790.81	  403.04
     71.3700	  888.00	  933.63	-1820.63	  403.15
     71.4700	 1017.00	 1081.50	-1839.50	  403.27
     71.5700	 1245.00	 1257.65	-1787.65	  403.38
     71.6700	 1416.00	 1451.63	-1810.63	  403.49
     71.7700	 1554.00	 1645.50	-1866.50	  403.60
     71.8700	 1788.00	 1814.39	-1801.39	  403.72
     71.9700	 1891.00	 1929.61	-1813.61	  403.83
     72.0700	 1956.00	 1966.66	-1785.66	  403.94
     72.1700	 1865.00	 1916.74	-1826.74	  404.05
     72.2700	 1732.00	 1792.06	-1835.06	  404.15
     72.3700	 1717.00	 1618.31	-1676.31	  404.26
     72.4700	 1530.00	 1424.67	-1669.67	  404.37
     72.5700	 1400.00	 1234.39	-1609.39	  404.47
     72.6700	 1246.00	 1063.79	-1592.79	  404.58
     72.7700	 1084.00	  921.82	-1612.82	  404.68
     72.8700	  971.00	  811.03	-1615.03	  404.79
     72.9700	  908.00	  729.22	-1596.22	  404.89
     73.0700	  803.00	  671.58	-1643.58	  404.99
     73.1700	  754.00	  632.41	-1653.41	  405.09
     73.2700	  687.00	  606.39	-1694.39	  405.19
     73.3700	  731.00	  589.24	-1633.24	  405.29
     73.4700	  632.00	  577.86	-1720.86	  405.39
     73.5700	  613.00	  570.18	-1732.18	  405.49
     73.6700	  574.00	  564.92	-1765.92	  405.58
     73.7700	  608.00	  561.33	-1728.33	  405.68
     73.8700	  593.00	  558.96	-1740.96	  405.77
     73.9700	  564.00	  557.55	-1768.55	  405.87
     74.0700	  636.00	  556.91	-1695.91	  405.96
     74.1700	  584.00	  556.86	-1747.86	  406.05
     74.2700	  589.00	  557.23	-1743.23	  406.14
     74.3700	  572.00	  557.78	-1760.78	  406.23
     74.4700	  630.00	  558.25	-1703.25	  406.32
     74.5700	  643.00	  558.38	-1690.38	  406.41
     74.6700	  640.00	  557.95	-1692.95	  406.49
     74.7700	  643.00	  556.92	-1688.92	  406.58
     74.8700	  639.00	  555.38	-1691.38	  406.66
     74.9700	  611.00	  553.61	-1717.61	  406.75
     75.0700	  615.00	  551.87	-1711.87	  406.83
     75.1700	  587.00	  550.55	-1738.55	  406.91
     75.2700	  579.00	  549.91	-1745.91	  406.99
     75.3700	  515.00	  550.44	-1810.44	  407.07
     75.4700	  564.00	  552.51	-1763.51	  407.15
     75.5700	  517.00	  556.63	-1814.63	  407.23
     75.6700	  556.00	  563.24	-1782.24	  407.31
     75.7700	  556.00	  573.06	-1792.06	  407.38
     75.8700	  565.00	  586.33	-1796.33	  407.45
     75.9700	  601.00	  603.07	-1777.07	  407.53
     76.0700	  619.00	  622.81	-1778.81	  407.60
     76.1700	  674.00	  644.45	-1745.45	  407.67
     76.2700	  656.00	  666.25	-1785.25	  407.74
     76.3700	  721.00	  685.83	-1739.83	  407.81
     76.4700	  735.00	  700.41	-1740.41	  407.88
     76.5700	  725.00	  707.44	-1757.44	  407.94
     76.6700	  714.00	  705.46	-1766.46	  408.01
     76.7700	  654.00	  694.85	-1815.85	  408.07
     76.8700	  601.00	  677.65	-1851.65	  408.13
     76.9700	  631.00	  656.42	-1800.42	  408.20
     77.0700	  601.00	  634.16	-1808.16	  408.26
     77.1700	  582.00	  612.82	-1805.82	  408.32
     77.2700	  533.00	  593.86	-1835.86	  408.37
     77.3700	  552.00	  578.08	-1801.08	  408.43
     77.4700	  568.00	  565.69	-1772.69	  408.49
     77.5700	  581.00	  556.48	-1750.48	  408.54
     77.6700	  512.00	  549.94	-1812.94	  408.59
     77.7700	  523.00	  545.50	-1797.50	  408.65
     77.8700	  495.00	  542.59	-1822.59	  408.70
     77.9700	  522.00	  540.72	-1793.72	  408.75
     78.0700	  566.00	  539.54	-1748.54	  408.79
     78.1700	  528.00	  538.80	-1785.80	  408.84
     78.2700	  531.00	  538.33	-1782.33	  408.89
     78.3700	  482.00	  538.04	-1831.04	  408.93
     78.4700	  487.00	  537.87	-1825.87	  408.97
     78.5700	  509.00	  537.81	-1803.81	  409.02
     78.6700	  544.00	  537.84	-1768.84	  409.06
     78.7700	  540.00	  537.97	-1772.97	  409.10
     78.8700	  528.00	  538.23	-1785.23	  409.13
     78.9700	  508.00	  538.63	-1805.63	  409.17
     79.0700	  557.00	  539.23	-1757.23	  409.21
     79.1700	  534.00	  540.09	-1781.09	  409.24
     79.2700	  553.00	  541.25	-1763.25	  409.27
     79.3700	  520.00	  542.61	-1797.61	  409.30
     79.4700	  544.00	  544.61	-1775.61	  409.33
     79.5700	  477.00	  547.14	-1845.14	  409.36
     79.6700	  507.00	  550.29	-1818.29	  409.39
     79.7700	  534.00	  554.18	-1795.18	  409.42
     79.8700	  538.00	  558.95	-1795.95	  409.44
     79.9700	  536.00	  564.77	-1803.77	  409.46
     80.0700	  571.00	  571.85	-1775.85	  409.49
     80.1700	  545.00	  580.46	-1810.46	  409.51
     80.2700	  533.00	  590.87	-1832.87	  409.52
     80.3700	  558.00	  603.29	-1820.29	  409.54
     80.4700	  587.00	  617.78	-1805.78	  409.56
     80.5700	  566.00	  634.10	-1843.10	  409.57
     80.6700	  628.00	  651.66	-1798.66	  409.59
     80.7700	  660.00	  669.52	-1784.52	  409.60
     80.8700	  594.00	  686.37	-1867.37	  409.61
     80.9700	  725.00	  700.80	-1750.80	  409.62
     81.0700	  704.00	  711.55	-1782.55	  409.63
     81.1700	  767.00	  717.79	-1725.79	  409.63
     81.2700	  707.00	  719.12	-1787.12	  409.64
     81.3700	  748.00	  715.59	-1742.59	  409.64
     81.4700	  776.00	  707.62	-1706.62	  409.64
     81.5700	  717.00	  695.97	-1753.97	  409.64
     81.6700	  803.00	  681.59	-1653.59	  409.64
     81.7700	  730.00	  665.42	-1710.42	  409.64
     81.8700	  685.00	  648.42	-1738.42	  409.64
     81.9700	  711.00	  631.47	-1695.47	  409.63
     82.0700	  694.00	  615.48	-1696.48	  409.62
     82.1700	  615.00	  601.00	-1761.00	  409.62
     82.2700	  622.00	  588.38	-1741.38	  409.61
     82.3700	  602.00	  577.75	-1750.75	  409.59
     82.4700	  621.00	  569.12	-1723.12	  409.58
     82.5700	  625.00	  562.38	-1712.38	  409.57
     82.6700	  570.00	  557.40	-1762.40	  409.55
     82.7700	  529.00	  554.08	-1800.08	  409.53
     82.8700	  552.00	  552.27	-1775.27	  409.52
     82.9700	  591.00	  551.87	-1735.87	  409.50
     83.0700	  504.00	  552.78	-1823.78	  409.47
     83.1700	  492.00	  554.95	-1837.95	  409.45
     83.2700	  534.00	  558.28	-1799.28	  409.43
     83.3700	  549.00	  562.62	-1788.62	  409.40
     83.4700	  579.00	  567.75	-1763.75	  409.37
     83.5700	  562.00	  573.34	-1786.34	  409.34
     83.6700	  552.00	  578.98	-1801.98	  409.31
     83.7700	  545.00	  584.14	-1814.14	  409.28
     83.8700	  592.00	  588.23	-1771.23	  409.24
     83.9700	  557.00	  590.67	-1808.67	  409.21
     84.0700	  530.00	  591.07	-1836.07	  409.17
     84.1700	  611.00	  589.30	-1753.30	  409.13
     84.2700	  590.00	  585.64	-1770.64	  409.09
     84.3700	  592.00	  580.57	-1763.57	  409.05
     84.4700	  562.00	  574.66	-1787.66	  409.01
     84.5700	  599.00	  568.48	-1744.48	  408.96
     84.6700	  520.00	  562.45	-1817.45	  408.92
     84.7700	  522.00	  556.91	-1809.91	  408.87
     84.8700	  560.00	  552.08	-1767.08	  408.82
     84.9700	  496.00	  548.07	-1827.07	  408.77
     85.0700	  540.00	  544.90	-1779.90	  408.72
     85.1700	  507.00	  542.52	-1810.52	  408.66
     85.2700	  501.00	  540.85	-1814.85	  408.61
     85.3700	  529.00	  539.79	-1785.79	  408.55
     85.4700	  494.00	  539.24	-1820.24	  408.49
     85.5700	  501.00	  539.12	-1813.12	  408.43
     85.6700	  568.00	  539.36	-1746.36	  408.37
     85.7700	  507.00	  539.95	-1807.95	  408.30
     85.8700	  502.00	  540.87	-1813.87	  408.24
     85.9700	  508.00	  542.15	-1809.15	  408.17
     86.0700	  537.00	  543.85	-1781.85	  408.10
     86.1700	  525.00	  546.06	-1796.06	  408.03
     86.2700	  529.00	  548.87	-1794.87	  407.96
     86.3700	  555.00	  552.42	-1772.42	  407.89
     86.4700	  550.00	  556.83	-1781.83	  407.81
     86.5700	  570.00	  562.21	-1767.21	  407.74
     86.6700	  550.00	  568.63	-1793.63	  407.66
     86.7700	  596.00	  575.71	-1754.71	  407.58
     86.8700	  574.00	  583.90	-1784.90	  407.50
     86.9700	  574.00	  592.53	-1793.53	  407.42
     87.0700	  653.00	  601.09	-1723.09	  407.33
     87.1700	  646.00	  608.96	-1737.96	  407.25
     87.2700	  679.00	  615.39	-1711.39	  407.16
     87.3700	  685.00	  619.65	-1709.65	  407.07
     87.4700	  652.00	  621.18	-1744.18	  406.98
     87.5700	  656.00	  619.73	-1738.73	  406.89
     87.6700	  616.00	  615.53	-1774.53	  406.79
     87.7700	  653.00	  609.16	-1731.16	  406.70
     87.8700	  628.00	  601.44	-1748.44	  406.60
     87.9700	  630.00	  593.22	-1738.22	  406.50
     88.0700	  633.00	  585.30	-1727.30	  406.40
     88.1700	  595.00	  578.34	-1758.34	  406.30
     88.2700	  602.00	  572.86	-1745.86	  406.20
     88.3700	  579.00	  569.22	-1765.22	  406.09
     88.4700	  582.00	  567.58	-1760.58	  405.99
     88.5700	  569.00	  567.96	-1773.96	  405.88
     88.6700	  526.00	  570.21	-1819.21	  405.77
     88.7700	  630.00	  574.04	-1719.04	  405.66
     88.8700	  591.00	  579.06	-1763.06	  405.55
     88.9700	  616.00	  584.76	-1743.76	  405.43
     89.0700	  635.00	  590.58	-1730.58	  405.32
     89.1700	  617.00	  595.89	-1753.89	  405.20
     89.2700	  601.00	  600.04	-1774.04	  405.08
     89.3700	  615.00	  602.46	-1762.46	  404.96
     89.4700	  595.00	  602.78	-1782.78	  404.84
     89.5700	  626.00	  600.90	-1749.90	  404.71
     89.6700	  584.00	  597.05	-1788.05	  404.59
     89.7700	  528.00	  591.65	-1838.65	  404.46
     89.8700	  547.00	  585.26	-1813.26	  404.33
     89.9700	  555.00	  578.39	-1798.39	  404.20
     90.0700	  516.00	  571.52	-1830.52	  404.07
     90.1700	  551.00	  565.02	-1789.02	  403.94
     90.2700	  536.00	  559.14	-1798.14	  403.80
     90.3700	  513.00	  554.07	-1816.07	  403.67
     90.4700	  532.00	  549.86	-1792.86	  403.53
     90.5700	  524.00	  546.52	-1797.52	  403.39
     90.6700	  532.00	  543.98	-1786.98	  403.25
     90.7700	  522.00	  542.16	-1795.16	  403.11
     90.8700	  495.00	  540.95	-1820.95	  402.97
     90.9700	  558.00	  540.26	-1757.26	  402.82
     91.0700	  484.00	  540.02	-1831.02	  402.67
     91.1700	  500.00	  540.19	-1815.19	  402.53
     91.2700	  527.00	  540.75	-1788.75	  402.38
     91.3700	  572.00	  541.76	-1744.76	  402.22
     91.4700	  551.00	  543.28	-1767.28	  402.07
     91.5700	  520.00	  545.45	-1800.45	  401.92
     91.6700	  533.00	  548.41	-1790.41	  401.76
     91.7700	  527.00	  552.37	-1800.36	  401.61
     91.8700	  533.00	  557.30	-1799.30	  401.45
     91.9700	  548.00	  563.86	-1790.86	  401.29
     92.0700	  569.00	  572.01	-1778.01	  401.12
     92.1700	  567.00	  581.87	-1789.87	  400.96
     92.2700	  596.00	  593.48	-1772.48	  400.80
     92.3700	  626.00	  606.77	-1755.77	  400.63
     92.4700	  563.00	  621.55	-1833.55	  400.46
     92.5700	  663.00	  637.49	-1749.49	  400.30
     92.6700	  588.00	  654.10	-1841.10	  400.13
     92.7700	  670.00	  670.79	-1775.79	  399.95
     92.8700	  724.00	  686.85	-1737.85	  399.78
     92.9700	  749.00	  701.56	-1727.56	  399.61
     93.0700	  731.00	  714.33	-1758.33	  399.43
     93.1700	  791.00	  724.86	-1708.86	  399.25
     93.2700	  791.00	  733.26	-1717.26	  399.07
     93.3700	  773.00	  740.01	-1742.01	  398.89
     93.4700	  864.00	  745.86	-1656.86	  398.71
     93.5700	  832.00	  751.58	-1694.58	  398.53
     93.6700	  832.00	  757.92	-1700.92	  398.35
     93.7700	  824.00	  765.50	-1716.50	  398.16
     93.8700	  901.00	  774.86	-1648.86	  397.97
     93.9700	  910.00	  786.42	-1651.42	  397.78
     94.0700	  838.00	  800.46	-1737.46	  397.60
     94.1700	  899.00	  817.00	-1693.00	  397.40
     94.2700	  821.00	  835.71	-1789.71	  397.21
     94.3700	  865.00	  855.82	-1765.82	  397.02
     94.4700	  897.00	  876.12	-1754.12	  396.82
     94.5700	  899.00	  894.97	-1770.97	  396.63
     94.6700	  915.00	  910.47	-1770.47	  396.43
     94.7700	  947.00	  920.65	-1748.65	  396.23
     94.8700	  854.00	  923.83	-1844.83	  396.03
     94.9700	  857.00	  919.03	-1837.03	  395.83
     95.0700	  886.00	  906.29	-1795.29	  395.63
     95.1700	  841.00	  886.61	-1820.61	  395.42
     95.2700	  837.00	  861.69	-1799.69	  395.22
     95.3700	  829.00	  833.57	-1779.57	  395.01
     95.4700	  803.00	  804.35	-1776.35	  394.80
     95.5700	  745.00	  776.05	-1806.05	  394.59
     95.6700	  730.00	  750.49	-1795.49	  394.38
     95.7700	  727.00	  729.31	-1777.31	  394.17
     95.8700	  719.00	  714.00	-1770.00	  393.96
     95.9700	  651.00	  705.83	-1829.83	  393.75
     96.0700	  668.00	  705.95	-1812.95	  393.53
     96.1700	  702.00	  715.28	-1788.28	  393.32
     96.2700	  690.00	  734.57	-1819.57	  393.10
     96.3700	  763.00	  764.32	-1776.32	  392.88
     96.4700	  856.00	  804.67	-1723.67	  392.66
     96.5700	  814.00	  855.36	-1816.36	  392.44
     96.6700	  901.00	  915.57	-1789.57	  392.22
     96.7700	  977.00	  983.89	-1781.89	  392.00
     96.8700	 1034.00	 1058.17	-1799.17	  391.77
     96.9700	 1081.00	 1135.56	-1829.56	  391.55
     97.0700	 1247.00	 1212.53	-1740.53	  391.32
     97.1700	 1203.00	 1284.94	-1856.94	  391.09
     97.2700	 1335.00	 1348.29	-1788.29	  390.87
     97.3700	 1442.00	 1398.01	-1731.01	  390.64
     97.4700	 1420.00	 1430.12	-1785.12	  390.41
     97.5700	 1461.00	 1441.93	-1755.93	  390.18
     97.6700	 1410.00	 1432.69	-1797.69	  389.94
     97.7700	 1412.00	 1403.72	-1766.72	  389.71
     97.8700	 1412.00	 1358.03	-1721.03	  389.48
     97.9700	 1272.00	 1299.60	-1802.60	  389.24
     98.0700	 1225.00	 1232.90	-1782.90	  389.01
     98.1700	 1183.00	 1162.23	-1754.23	  388.77
     98.2700	 1070.00	 1091.57	-1796.57	  388.53
     98.3700	  960.00	 1024.44	-1839.44	  388.29
     98.4700	  937.00	  963.77	-1801.77	  388.05
     98.5700	  852.00	  911.91	-1834.91	  387.81
     98.6700	  838.00	  870.68	-1807.68	  387.57
     98.7700	  840.00	  841.43	-1776.43	  387.33
     98.8700	  797.00	  825.15	-1803.15	  387.08
     98.9700	  784.00	  822.51	-1813.51	  386.84
     99.0700	  803.00	  833.91	-1805.91	  386.59
     99.1700	  903.00	  859.60	-1731.60	  386.35
     99.2700	  869.00	  899.62	-1805.62	  386.10
     99.3700	  949.00	  953.76	-1779.76	  385.85
     99.4700	  963.00	 1021.56	-1833.56	  385.61
     99.5700	 1070.00	 1102.16	-1807.16	  385.36
     99.6700	 1155.00	 1194.25	-1814.25	  385.11
     99.7700	 1251.00	 1295.97	-1819.97	  384.86
     99.8700	 1364.00	 1404.74	-1815.74	  384.61
     99.9700	 1508.00	 1517.27	-1784.27	  384.36
    100.0700	 1682.00	 1629.56	-1722.56	  384.10
    100.1700	 1713.00	 1737.17	-1799.17	  383.85
    100.2700	 1804.00	 1835.52	-1806.52	  383.60
    100.3700	 1965.00	 1920.39	-1730.39	  383.34
    100.4700	 2037.00	 1988.41	-1726.41	  383.09
    100.5700	 2049.00	 2037.16	-1763.16	  382.83
    100.6700	 2103.00	 2065.11	-1737.11	  382.57
    100.7700	 2065.00	 2071.32	-1781.32	  382.32
    100.8700	 2095.00	 2055.47	-1735.47	  382.06
    100.9700	 2092.00	 2018.04	-1701.04	  381.80
    101.0700	 1992.00	 1960.72	-1743.72	  381.54
    101.1700	 2027.00	 1886.61	-1634.61	  381.29
    101.2700	 1788.00	 1800.05	-1787.05	  381.03
    101.3700	 1740.00	 1706.12	-1741.12	  380.77
    101.4700	 1622.00	 1610.01	-1763.01	  380.51
    101.5700	 1585.00	 1516.44	-1706.44	  380.25
    101.6700	 1455.00	 1429.29	-1749.29	  379.98
    101.7700	 1321.00	 1351.42	-1805.42	  379.72
    101.8700	 1285.00	 1284.63	-1774.63	  379.46
    101.9700	 1233.00	 1229.59	-1771.59	  379.20
    102.0700	 1231.00	 1185.93	-1729.93	  378.94
    102.1700	 1198.00	 1152.37	-1729.37	  378.67
    102.2700	 1086.00	 1126.85	-1815.85	  378.41
    102.3700	 1083.00	 1106.82	-1798.82	  378.15
    102.4700	 1156.00	 1089.45	-1708.45	  377.88
    102.5700	 1028.00	 1072.01	-1819.01	  377.62
    102.6700	 1083.00	 1052.22	-1744.22	  377.35
    102.7700	  996.00	 1028.52	-1807.52	  377.09
    102.8700	 1005.00	 1000.28	-1770.28	  376.82
    102.9700	  975.00	  967.64	-1767.64	  376.56
    103.0700	  886.00	  931.37	-1820.37	  376.29
    103.1700	  891.00	  892.58	-1776.58	  376.03
    103.2700	  820.00	  852.55	-1807.55	  375.76
    103.3700	  795.00	  812.54	-1792.54	  375.50
    103.4700	  818.00	  773.72	-1730.72	  375.23
    103.5700	  764.00	  737.09	-1748.09	  374.97
    103.6700	  695.00	  703.41	-1783.41	  374.70
    103.7700	  667.00	  673.22	-1781.22	  374.44
    103.8700	  612.00	  646.84	-1809.84	  374.17
    103.9700	  618.00	  624.36	-1781.36	  373.90
    104.0700	  613.00	  605.70	-1767.70	  373.64
    104.1700	  598.00	  590.62	-1767.62	  373.37
    104.2700	  535.00	  578.80	-1818.80	  373.11
    104.3700	  530.00	  569.87	-1814.87	  372.84
    104.4700	  564.00	  563.41	-1774.41	  372.58
    104.5700	  517.00	  559.05	-1817.05	  372.31
    104.6700	  516.00	  556.39	-1815.39	  372.05
    104.7700	  556.00	  555.12	-1774.12	  371.78
    104.8700	  594.00	  554.94	-1735.94	  371.52
    104.9700	  565.00	  555.58	-1765.58	  371.25
    105.0700	  541.00	  556.88	-1790.88	  370.99
    105.1700	  546.00	  558.66	-1787.66	  370.73
    105.2700	  563.00	  560.81	-1772.81	  370.46
    105.3700	  556.00	  563.23	-1782.23	  370.20
    105.4700	  546.00	  565.92	-1794.92	  369.94
    105.5700	  541.00	  568.89	-1802.89	  369.67
    105.6700	  539.00	  572.19	-1808.19	  369.41
    105.7700	  559.00	  575.93	-1791.93	  369.15
    105.8700	  592.00	  580.25	-1763.25	  368.89
    105.9700	  587.00	  585.27	-1773.27	  368.63
    106.0700	  555.00	  591.10	-1811.10	  368.37
    106.1700	  599.00	  597.81	-1773.81	  368.11
    106.2700	  549.00	  605.40	-1831.40	  367.85
    106.3700	  576.00	  613.83	-1812.83	  367.59
    106.4700	  607.00	  622.94	-1790.94	  367.33
    106.5700	  593.00	  632.54	-1814.54	  367.08
    106.6700	  625.00	  642.35	-1792.35	  366.82
    106.7700	  654.00	  652.03	-1773.03	  366.56
    106.8700	  629.00	  661.19	-1807.19	  366.31
    106.9700	  646.00	  669.42	-1798.42	  366.05
    107.0700	  711.00	  676.34	-1740.34	  365.80
    107.1700	  686.00	  681.65	-1770.65	  365.55
    107.2700	  657.00	  685.14	-1803.14	  365.29
    107.3700	  652.00	  686.81	-1809.81	  365.04
    107.4700	  684.00	  686.80	-1777.80	  364.79
    107.5700	  690.00	  685.44	-1770.44	  364.54
    107.6700	  715.00	  683.14	-1743.14	  364.29
    107.7700	  665.00	  680.37	-1790.37	  364.05
    107.8700	  648.00	  677.55	-1804.55	  363.80
    107.9700	  711.00	  675.06	-1739.06	  363.55
    108.0700	  623.00	  673.17	-1825.17	  363.31
    108.1700	  682.00	  672.04	-1765.04	  363.06
    108.2700	  657.00	  671.72	-1789.72	  362.82
    108.3700	  654.00	  672.13	-1793.13	  362.58
    108.4700	  662.00	  673.08	-1786.08	  362.34
    108.5700	  701.00	  674.28	-1748.28	  362.10
    108.6700	  639.00	  675.36	-1811.36	  361.86
    108.7700	  737.00	  675.91	-1713.91	  361.62
    108.8700	  691.00	  675.55	-1759.55	  361.39
    108.9700	  687.00	  673.90	-1761.90	  361.15
    109.0700	  620.00	  670.75	-1825.75	  360.92
    109.1700	  669.00	  665.98	-1771.98	  360.69
    109.2700	  706.00	  659.64	-1728.64	  360.46
    109.3700	  604.00	  651.89	-1822.89	  360.23
    109.4700	  664.00	  643.02	-1754.02	  360.00
    109.5700	  634.00	  633.33	-1774.33	  359.77
    109.6700	  604.00	  623.16	-1794.16	  359.55
    109.7700	  595.00	  612.86	-1792.86	  359.33
    109.8700	  566.00	  602.71	-1811.71	  359.10
    109.9700	  612.00	  593.00	-1756.00	  358.88
    110.0700	  541.00	  583.94	-1817.94	  358.67
    110.1700	  574.00	  575.71	-1776.71	  358.45
    110.2700	  559.00	  568.42	-1784.42	  358.23
    110.3700	  559.00	  562.14	-1778.14	  358.02
    110.4700	  587.00	  556.89	-1744.89	  357.81
    110.5700	  553.00	  552.64	-1774.64	  357.60
    110.6700	  585.00	  549.35	-1739.35	  357.39
    110.7700	  518.00	  546.93	-1803.93	  357.18
    110.8700	  557.00	  545.31	-1763.31	  356.98
    110.9700	  535.00	  544.39	-1784.39	  356.78
    111.0700	  546.00	  544.07	-1773.07	  356.58
    111.1700	  546.00	  544.28	-1773.28	  356.38
    111.2700	  516.00	  544.94	-1803.94	  356.18
    111.3700	  544.00	  545.98	-1776.98	  355.99
    111.4700	  500.00	  547.35	-1822.35	  355.79
    111.5700	  581.00	  549.00	-1743.00	  355.60
    111.6700	  537.00	  550.89	-1788.89	  355.41
    111.7700	  566.00	  553.02	-1762.02	  355.23
    111.8700	  556.00	  555.35	-1774.35	  355.04
    111.9700	  529.00	  557.90	-1803.90	  354.86
    112.0700	  564.00	  560.67	-1771.67	  354.68
    112.1700	  583.00	  563.66	-1755.66	  354.50
    112.2700	  542.00	  566.91	-1799.91	  354.33
    112.3700	  583.00	  570.43	-1762.43	  354.16
    112.4700	  607.00	  574.27	-1742.27	  353.99
    112.5700	  573.00	  578.49	-1780.49	  353.82
    112.6700	  586.00	  583.14	-1772.14	  353.65
    112.7700	  633.00	  588.33	-1730.33	  353.49
    112.8700	  726.00	  594.16	-1643.16	  353.33
    112.9700	  669.00	  600.78	-1706.78	  353.17
    113.0700	  695.00	  608.38	-1688.38	  353.02
    113.1700	  722.00	  617.22	-1670.22	  352.86
    113.2700	  729.00	  627.62	-1673.62	  352.72
    113.3700	  743.00	  639.99	-1671.99	  352.57
    113.4700	  797.00	  654.83	-1632.83	  352.42
    113.5700	  808.00	  672.81	-1639.81	  352.28
    113.6700	  942.00	  694.69	-1527.69	  352.14
    113.7700	  923.00	  721.45	-1573.45	  352.01
    113.8700	  962.00	  754.25	-1567.25	  351.88
    113.9700	 1041.00	  794.44	-1528.44	  351.75
    114.0700	 1105.00	  843.58	-1513.58	  351.62
    114.1700	 1158.00	  903.44	-1520.44	  351.50
    114.2700	 1197.00	  976.00	-1554.00	  351.38
    114.3700	 1299.00	 1063.41	-1539.41	  351.26
    114.4700	 1340.00	 1167.90	-1602.90	  351.14
    114.5700	 1433.00	 1291.77	-1633.77	  351.03
    114.6700	 1552.00	 1437.24	-1660.24	  350.92
    114.7700	 1755.00	 1606.41	-1626.41	  350.82
    114.8700	 1916.00	 1801.10	-1660.10	  350.72
    114.9700	 2182.00	 2022.63	-1615.63	  350.62
    115.0700	 2277.00	 2271.78	-1769.78	  350.53
    115.1700	 2570.00	 2548.53	-1753.53	  350.43
    115.2700	 2840.00	 2852.05	-1787.05	  350.35
    115.3700	 2977.00	 3180.54	-1978.54	  350.26
    115.4700	 3289.00	 3530.98	-2016.98	  350.18
    115.5700	 3828.00	 3899.26	-1846.26	  350.11
    115.6700	 4119.00	 4279.96	-1935.96	  350.03
    115.7700	 4361.00	 4666.60	-2080.60	  349.96
    115.8700	 4779.00	 5051.55	-2047.55	  349.90
    115.9700	 5138.00	 5425.95	-2062.95	  349.84
    116.0700	 5567.00	 5780.12	-1988.12	  349.78
    116.1700	 5868.00	 6103.60	-2010.60	  349.72
    116.2700	 6285.00	 6385.78	-1875.78	  349.67
    116.3700	 6590.00	 6616.30	-1801.30	  349.63
    116.4700	 6655.00	 6785.78	-1905.78	  349.58
    116.5700	 6942.00	 6886.87	-1719.87	  349.54
    116.6700	 7100.00	 6914.99	-1589.99	  349.51
    116.7700	 6976.00	 6869.04	-1668.04	  349.48
    116.8700	 6952.00	 6751.40	-1574.40	  349.45
    116.9700	 6639.00	 6567.74	-1703.74	  349.43
    117.0700	 6504.00	 6326.22	-1597.22	  349.41
    117.1700	 6149.00	 6036.67	-1662.67	  349.40
    117.2700	 5519.00	 5709.58	-1965.58	  349.39
    117.3700	 5387.00	 5355.43	-1743.43	  349.39
    117.4700	 4999.00	 4984.38	-1760.38	  349.39
    117.5700	 4717.00	 4605.71	-1663.71	  349.39
    117.6700	 4320.00	 4227.74	-1682.74	  349.40
    117.7700	 3983.00	 3857.55	-1649.55	  349.41
    117.8700	 3668.00	 3501.04	-1608.04	  349.43
    117.9700	 3212.00	 3162.98	-1725.98	  349.45
    118.0700	 2909.00	 2846.94	-1712.94	  349.48
    118.1700	 2542.00	 2555.39	-1788.39	  349.51
    118.2700	 2299.00	 2289.69	-1765.69	  349.55
    118.3700	 1980.00	 2050.31	-1845.31	  349.59
    118.4700	 1772.00	 1837.04	-1840.04	  349.64
    118.5700	 1640.00	 1648.97	-1783.97	  349.69
    118.6700	 1373.00	 1484.75	-1886.75	  349.75
    118.7700	 1271.00	 1342.61	-1846.61	  349.81
    118.8700	 1178.00	 1220.56	-1817.56	  349.88
    118.9700	 1047.00	 1116.55	-1844.55	  349.95
    119.0700	  929.00	 1028.48	-1874.48	  350.03
    119.1700	  851.00	  954.32	-1878.32	  350.11
    119.2700	  778.00	  892.15	-1889.15	  350.20
    119.3700	  777.00	  840.20	-1838.20	  350.29
    119.4700	  693.00	  796.90	-1878.90	  350.39
    119.5700	  665.00	  760.85	-1870.85	  350.49
    119.6700	  652.00	  730.86	-1853.86	  350.60
    119.7700	  635.00	  705.89	-1845.89	  350.72
    119.8700	  651.00	  685.09	-1809.09	  350.84
    119.9700	  586.00	  667.73	-1856.73	  350.96
    120.0700	  585.00	  653.23	-1843.23	  351.10
    120.1700	  566.00	  641.10	-1850.10	  351.23
    120.2700	  564.00	  630.95	-1841.95	  351.38
    120.3700	  603.00	  622.46	-1794.46	  351.53
    120.4700	  552.00	  615.39	-1838.39	  351.68
    120.5700	  545.00	  609.53	-1839.53	  351.84
    120.6700	  592.00	  604.73	-1787.73	  352.01
    120.7700	  566.00	  600.88	-1809.88	  352.18
    120.8700	  568.00	  597.87	-1804.87	  352.36
    120.9700	  547.00	  595.63	-1823.63	  352.55
    121.0700	  575.00	  594.10	-1794.10	  352.74
    121.1700	  570.00	  593.24	-1798.24	  352.94
    121.2700	  533.00	  593.01	-1835.01	  353.14
    121.3700	  577.00	  593.36	-1791.36	  353.35
    121.4700	  593.00	  594.25	-1776.25	  353.57
    121.5700	  599.00	  595.64	-1771.64	  353.79
    121.6700	  585.00	  597.48	-1787.48	  354.02
    121.7700	  593.00	  599.70	-1781.70	  354.26
    121.8700	  594.00	  602.24	-1783.24	  354.51
    121.9700	  661.00	  605.04	-1719.04	  354.76
    122.0700	  610.00	  608.00	-1773.00	  355.01
    122.1700	  619.00	  611.03	-1767.03	  355.28
    122.2700	  606.00	  614.04	-1783.04	  355.55
    122.3700	  617.00	  616.91	-1774.91	  355.82
    122.4700	  624.00	  619.55	-1770.55	  356.11
    122.5700	  660.00	  621.85	-1736.85	  356.40
    122.6700	  593.00	  623.73	-1805.73	  356.70
    122.7700	  658.00	  625.09	-1742.09	  357.01
    122.8700	  654.00	  625.90	-1746.90	  357.32
    122.9700	  660.00	  626.10	-1741.10	  357.64
    123.0700	  633.00	  625.69	-1767.69	  357.97
    123.1700	  668.00	  624.68	-1731.68	  358.30
    123.2700	  615.00	  623.13	-1783.13	  358.65
    123.3700	  702.00	  621.06	-1694.06	  359.00
    123.4700	  655.00	  618.56	-1738.56	  359.35
    123.5700	  608.00	  615.68	-1782.68	  359.72
    123.6700	  614.00	  612.51	-1773.51	  360.09
    123.7700	  632.00	  609.11	-1752.11	  360.47
    123.8700	  602.00	  605.56	-1778.56	  360.86
    123.9700	  614.00	  601.93	-1762.93	  361.26
    124.0700	  606.00	  598.27	-1767.27	  361.66
    124.1700	  615.00	  594.65	-1754.65	  362.08
    124.2700	  600.00	  591.12	-1766.12	  362.50
    124.3700	  640.00	  587.72	-1722.72	  362.92
    124.4700	  669.00	  584.49	-1690.49	  363.36
    124.5700	  609.00	  581.44	-1747.44	  363.81
    124.6700	  562.00	  578.61	-1791.61	  364.26
    124.7700	  577.00	  576.00	-1774.00	  364.72
    124.8700	  571.00	  573.64	-1777.64	  365.19
    124.9700	  597.00	  482.13	-1660.13	  365.67
    125.0700	  605.00	  482.62	-1775.00	  366.16
    125.1700	  585.00	  483.12	-1775.00	  366.65
    125.2700	  590.00	  483.62	-1775.00	  367.16
    125.3700	  568.00	  484.13	-1775.00	  367.67
    125.4700	  581.00	  484.66	-1775.00	  368.19
    125.5700	  579.00	  485.19	-1775.00	  368.72
    125.6700	  589.00	  485.73	-1775.00	  369.26
    125.7700	  575.00	  486.28	-1775.00	  369.81
    125.8700	  555.00	  486.83	-1775.00	  370.37
    125.9700	  584.00	  487.40	-1775.00	  370.94
    126.0700	  573.00	  487.98	-1775.00	  371.51
    126.1700	  594.00	  488.56	-1775.00	  372.10
    126.2700	  569.00	  489.16	-1775.00	  372.69
    126.3700	  557.00	  489.76	-1775.00	  373.30
    126.4700	  599.00	  490.37	-1775.00	  373.91
    126.5700	  616.00	  491.00	-1775.00	  374.54
    126.6700	  593.00	  491.63	-1775.00	  375.17
    126.7700	  577.00	  492.27	-1775.00	  375.81
    126.8700	  608.00	  492.92	-1775.00	  376.46
    126.9700	  624.00	  493.59	-1775.00	  377.12
    127.0700	  581.00	  494.26	-1775.00	  377.80
    127.1700	  657.00	  494.94	-1775.00	  378.48
    127.2700	  647.00	  495.63	-1775.00	  379.17
    127.3700	  661.00	  496.33	-1775.00	  379.87
    127.4700	  663.00	  497.05	-1775.00	  380.58
    127.5700	  671.00	  497.77	-1775.00	  381.30
    127.6700	  729.00	  498.50	-1775.00	  382.04
    127.7700	  681.00	  499.24	-1775.00	  382.78
    127.8700	  728.00	  499.99	-1775.00	  383.53
    127.9700	  697.00	  500.76	-1775.00	  384.30
    128.0700	  763.00	  501.53	-1775.00	  385.07
    128.1700	  778.00	  502.32	-1775.00	  385.85
    128.2700	  803.00	  503.11	-1775.00	  386.65
    128.3700	  768.00	  503.92	-1775.00	  387.46
    128.4700	  791.00	  504.74	-1775.00	  388.27
    128.5700	    0.00	  505.56	-1775.00	  389.10
    128.6700	    0.00	  506.40	-1775.00	  389.94
     12.3093	        	        	        	        	       0	(  0  0  2)	  0  1
     24.8919	        	        	        	        	       0	(  0  0  4)	  0  1
     28.3344	        	        	        	        	       0	(  1  0  0)	  0  1
     29.0315	        	        	        	        	       0	(  1  0  1)	  0  1
     31.0376	        	        	        	        	       0	(  1  0  2)	  0  1
     34.1457	        	        	        	        	       0	(  1  0  3)	  0  1
     37.7905	        	        	        	        	       0	(  0  0  6)	  0  1
     38.1225	        	        	        	        	       0	(  1  0  4)	  0  1
     42.7723	        	        	        	        	       0	(  1  0  5)	  0  1
     47.9559	        	        	        	        	       0	(  1  0  6)	  0  1
     50.2709	        	        	        	        	       0	(  1  1  0)	  0  1
     51.2112	        	        	        	        	       0	(  0  0  8)	  0  1
     51.9938	        	        	        	        	       0	(  1  1  2)	  0  1
     53.5859	        	        	        	        	       0	(  1  0  7)	  0  1
     56.9413	        	        	        	        	       0	(  1  1  4)	  0  1
     58.7677	        	        	        	        	       0	(  2  0  0)	  0  1
     59.1593	        	        	        	        	       0	(  2  0  1)	  0  1
     59.6158	        	        	        	        	       0	(  1  0  8)	  0  1
     60.3246	        	        	        	        	       0	(  2  0  2)	  0  1
     62.2376	        	        	        	        	       0	(  2  0  3)	  0  1
     64.6353	        	        	        	        	       0	(  1  1  6)	  0  1
     64.8615	        	        	        	        	       0	(  2  0  4)	  0  1
     65.4389	        	        	        	        	       0	(  0  0 10)	  0  1
     66.0315	        	        	        	        	       0	(  1  0  9)	  0  1
     68.1554	        	        	        	        	       0	(  2  0  5)	  0  1
     72.0825	        	        	        	        	       0	(  2  0  6)	  0  1
     72.8469	        	        	        	        	       0	(  1  0 10)	  0  1
     74.6720	        	        	        	        	       0	(  1  1  8)	  0  1
     76.6162	        	        	        	        	       0	(  2  0  7)	  0  1
     80.1036	        	        	        	        	       0	(  1  0 11)	  0  1
     80.9175	        	        	        	        	       0	(  0  0 12)	  0  1
     81.0085	        	        	        	        	       0	(  2  1  0)	  0  1
     81.3483	        	        	        	        	       0	(  2  1  1)	  0  1
     81.7459	        	        	        	        	       0	(  2  0  8)	  0  1
     82.3661	        	        	        	        	       0	(  2  1  2)	  0  1
     84.0572	        	        	        	        	       0	(  2  1  3)	  0  1
     86.4166	        	        	        	        	       0	(  2  1  4)	  0  1
     86.9419	        	        	        	        	       0	(  1  1 10)	  0  1
     87.4832	        	        	        	        	       0	(  2  0  9)	  0  1
     87.8769	        	        	        	        	       0	(  1  0 12)	  0  1
     89.4420	        	        	        	        	       0	(  2  1  5)	  0  1
     93.1390	        	        	        	        	       0	(  2  1  6)	  0  1
     93.8698	        	        	        	        	       0	(  2  0 10)	  0  1
     94.8970	        	        	        	        	       0	(  3  0  0)	  0  1
     95.2343	        	        	        	        	       0	(  3  0  1)	  0  1
     96.2474	        	        	        	        	       0	(  3  0  2)	  0  1
     96.2889	        	        	        	        	       0	(  1  0 13)	  0  1
     97.5270	        	        	        	        	       0	(  2  1  7)	  0  1
     97.9405	        	        	        	        	       0	(  3  0  3)	  0  1
     98.4542	        	        	        	        	       0	(  0  0 14)	  0  1
    100.3232	        	        	        	        	       0	(  3  0  4)	  0  1
    100.9906	        	        	        	        	       0	(  2  0 11)	  0  1
    101.8101	        	        	        	        	       0	(  1  1 12)	  0  1
    102.6488	        	        	        	        	       0	(  2  1  8)	  0  1
    103.4144	        	        	        	        	       0	(  3  0  5)	  0  1
    105.5399	        	        	        	        	       0	(  1  0 14)	  0  1
    107.2489	        	        	        	        	       0	(  3  0  6)	  0  1
    108.5847	        	        	        	        	       0	(  2  1  9)	  0  1
    109.0005	        	        	        	        	       0	(  2  0 12)	  0  1
    111.8885	        	        	        	        	       0	(  3  0  7)	  0  1
    115.4803	        	        	        	        	       0	(  2  1 10)	  0  1
    115.9813	        	        	        	        	       0	(  1  0 15)	  0  1
    116.6214	        	        	        	        	       0	(  2  2  0)	  0  1
    117.4410	        	        	        	        	       0	(  3  0  8)	  0  1
    118.1363	        	        	        	        	       0	(  2  2  2)	  0  1
    118.1832	        	        	        	        	       0	(  2  0 13)	  0  1
    119.9383	        	        	        	        	       0	(  0  0 16)	  0  1
    120.6508	        	        	        	        	       0	(  1  1 14)	  0  1
    122.8211	        	        	        	        	       0	(  2  2  4)	  0  1
    123.6059	        	        	        	        	       0	(  2  1 11)	  0  1
    124.0998	        	        	        	        	       0	(  3  0  9)	  0  1
    124.6863	        	        	        	        	       0	(  3  1  0)	  0  1
    125.0965	        	        	        	        	       0	(  3  1  1)	  0  1
    126.3397	        	        	        	        	       0	(  3  1  2)	  0  1
    128.3220	        	        	        	        	       0	(  1  0 16)	  0  1
    128.4576	        	        	        	        	       0	(  3  1  3)	  0  1
    129.1108	        	        	        	        	       0	(  2  0 14)	  0  1
    131.2595	        	        	        	        	       0	(  2  2  6)	  0  1
    131.5330	        	        	        	        	       0	(  3  1  4)	  0  1
    132.2390	        	        	        	        	       0	(  3  0 10)	  0  1
    133.5163	        	        	        	        	       0	(  2  1 12)	  0  1
    135.7193	        	        	        	        	       0	(  3  1  5)	  0  1
    141.3137	        	        	        	        	       0	(  3  1  6)	  0  1
    142.7157	        	        	        	        	       0	(  3  0 11)	  0  1
    143.2482	        	        	        	        	       0	(  2  0 15)	  0  1
    144.4888	        	        	        	        	       0	(  1  0 17)	  0  1
    145.4909	        	        	        	        	       0	(  2  2  8)	  0  1
    146.6697	        	        	        	        	       0	(  2  1 13)	  0  1
    148.9855	        	        	        	        	       0	(  3  1  7)	  0  1
    149.5819	        	        	        	        	       0	(  1  1 16)	  0  1
    153.9852	        	        	        	        	       0	(  0  0 18)	  0  1
    158.5928	        	        	        	        	       0	(  3  0 12)	  0  1
    158.8419	        	        	        	        	       0	(  4  0  0)	  0  1
    159.7986	        	        	        	        	       0	(  4  0  1)	  0  1
    160.9778	        	        	        	        	       0	(  3  1  8)	  0  1
    162.9770	        	        	        	        	       0	(  4  0  2)	  0  1
    169.7039	        	        	        	        	       0	(  2  0 16)	  0  1
    170.3235	        	        	        	        	       0	(  4  0  3)	  0  1
    174.1470	        	        	        	        	       0	(  2  1 14)	  0  1
