MSG Master    CELL:    5.90242   5.90242  23.18305   90.0000   90.0000  120.0000   SPGR: P 63/m m c             TEMP:    811.45
  1   1280     2.52000     0.00000    -0.12790     0.00000     0.00000    0
    98     0     2
       0.00000      10.00000
     125.00000     130.00000
 2Theta	Yobs	Ycal	Yobs-Ycal	Backg	Posr	(hkl)	K
      0.7700	    0.00	  501.04	-1761.25	  393.87
      0.8700	    0.00	  502.60	-1761.25	  395.43
      0.9700	   37.00	  504.14	-1761.25	  396.97
      1.0700	   44.00	  505.66	-1761.25	  398.49
      1.1700	   44.00	  507.17	-1761.25	  400.00
      1.2700	   46.00	  508.66	-1761.25	  401.49
      1.3700	   41.00	  510.13	-1761.25	  402.96
      1.4700	  106.00	  511.58	-1761.25	  404.41
      1.5700	  316.00	  513.01	-1761.25	  405.84
      1.6700	  447.00	  514.43	-1761.25	  407.26
      1.7700	  531.00	  515.84	-1761.25	  408.66
      1.8700	  635.00	  517.22	-1761.25	  410.05
      1.9700	  697.00	  518.59	-1761.25	  411.42
      2.0700	  747.00	  519.94	-1761.25	  412.77
      2.1700	  833.00	  521.27	-1761.25	  414.10
      2.2700	  782.00	  522.59	-1761.25	  415.42
      2.3700	  704.00	  523.89	-1761.25	  416.72
      2.4700	  723.00	  525.18	-1761.25	  418.01
      2.5700	  715.00	  526.45	-1761.25	  419.28
      2.6700	  684.00	  527.70	-1761.25	  420.53
      2.7700	  615.00	  528.94	-1761.25	  421.76
      2.8700	  646.00	  530.16	-1761.25	  422.99
      2.9700	  643.00	  531.36	-1761.25	  424.19
      3.0700	  603.00	  532.55	-1761.25	  425.38
      3.1700	  607.00	  533.72	-1761.25	  426.55
      3.2700	  685.00	  534.88	-1761.25	  427.71
      3.3700	  799.00	  536.02	-1761.25	  428.85
      3.4700	  895.00	  537.15	-1761.25	  429.98
      3.5700	 1064.00	  538.26	-1761.25	  431.09
      3.6700	 1155.00	  539.36	-1761.25	  432.19
      3.7700	 1210.00	  540.44	-1761.25	  433.27
      3.8700	 1278.00	  541.51	-1761.25	  434.34
      3.9700	 1363.00	  542.56	-1761.25	  435.39
      4.0700	 1368.00	  543.60	-1761.25	  436.43
      4.1700	 1459.00	  544.62	-1761.25	  437.45
      4.2700	 1354.00	  545.63	-1761.25	  438.46
      4.3700	 1358.00	  546.63	-1761.25	  439.46
      4.4700	 1368.00	  547.61	-1761.25	  440.44
      4.5700	 1304.00	  548.57	-1761.25	  441.40
      4.6700	 1236.00	  549.52	-1761.25	  442.35
      4.7700	 1236.00	  550.46	-1761.25	  443.29
      4.8700	 1188.00	  551.38	-1761.25	  444.21
      4.9700	 1180.00	  552.29	-1761.25	  445.12
      5.0700	 1119.00	  553.19	-1761.25	  446.02
      5.1700	 1082.00	  554.07	-1761.25	  446.90
      5.2700	 1035.00	  554.94	-1761.25	  447.77
      5.3700	 1062.00	  555.80	-1761.25	  448.63
      5.4700	  971.00	  556.64	-1761.25	  449.47
      5.5700	 1034.00	  557.47	-1761.25	  450.30
      5.6700	  943.00	  558.28	-1761.25	  451.11
      5.7700	  905.00	  559.08	-1761.25	  451.91
      5.8700	 1004.00	  559.87	-1761.25	  452.70
      5.9700	  890.00	  560.65	-1761.25	  453.48
      6.0700	  887.00	  561.41	-1761.25	  454.24
      6.1700	  860.00	  562.17	-1761.25	  455.00
      6.2700	  867.00	  562.90	-1761.25	  455.73
      6.3700	  823.00	  563.63	-1761.25	  456.46
      6.4700	  851.00	  564.34	-1761.25	  457.17
      6.5700	  818.00	  565.04	-1761.25	  457.87
      6.6700	  823.00	  565.73	-1761.25	  458.56
      6.7700	  809.00	  566.41	-1761.25	  459.24
      6.8700	  784.00	  567.07	-1761.25	  459.90
      6.9700	  780.00	  567.73	-1761.25	  460.56
      7.0700	  789.00	  568.37	-1761.25	  461.20
      7.1700	  751.00	  569.00	-1761.25	  461.83
      7.2700	  745.00	  569.61	-1761.25	  462.44
      7.3700	  717.00	  570.22	-1761.25	  463.05
      7.4700	  723.00	  570.81	-1761.25	  463.64
      7.5700	  758.00	  571.40	-1761.25	  464.22
      7.6700	  710.00	  571.97	-1761.25	  464.80
      7.7700	  734.00	  572.53	-1761.25	  465.36
      7.8700	  698.00	  573.07	-1761.25	  465.90
      7.9700	  669.00	  573.61	-1761.25	  466.44
      8.0700	  666.00	  574.14	-1761.25	  466.97
      8.1700	  653.00	  574.65	-1761.25	  467.48
      8.2700	  670.00	  575.16	-1761.25	  467.99
      8.3700	  677.00	  575.65	-1761.25	  468.48
      8.4700	  676.00	  576.13	-1761.25	  468.96
      8.5700	  665.00	  576.61	-1761.25	  469.44
      8.6700	  664.00	  577.07	-1761.25	  469.90
      8.7700	  629.00	  577.52	-1761.25	  470.35
      8.8700	  664.00	  577.96	-1761.25	  470.79
      8.9700	  662.00	  578.39	-1761.25	  471.22
      9.0700	  625.00	  578.81	-1761.25	  471.64
      9.1700	  641.00	  579.22	-1761.25	  472.05
      9.2700	  668.00	  579.62	-1761.25	  472.45
      9.3700	  594.00	  580.01	-1761.25	  472.84
      9.4700	  619.00	  580.39	-1761.25	  473.22
      9.5700	  633.00	  580.76	-1761.25	  473.59
      9.6700	  637.00	  581.13	-1761.25	  473.96
      9.7700	  643.00	  581.48	-1761.25	  474.31
      9.8700	  620.00	  581.82	-1761.25	  474.65
      9.9700	  658.00	  582.15	-1761.25	  474.98
     10.0700	  661.00	  584.82	-1685.07	  475.30
     10.1700	  623.00	  585.31	-1723.56	  475.62
     10.2700	  617.00	  585.83	-1730.08	  475.92
     10.3700	  547.00	  586.40	-1800.65	  476.22
     10.4700	  596.00	  587.04	-1752.29	  476.50
     10.5700	  592.00	  587.81	-1757.06	  476.78
     10.6700	  650.00	  588.77	-1700.02	  477.05
     10.7700	  616.00	  590.02	-1735.27	  477.31
     10.8700	  634.00	  591.63	-1718.88	  477.56
     10.9700	  605.00	  593.65	-1749.90	  477.80
     11.0700	  626.00	  596.08	-1731.33	  478.03
     11.1700	  619.00	  598.92	-1741.17	  478.25
     11.2700	  650.00	  602.20	-1713.45	  478.47
     11.3700	  604.00	  605.99	-1763.24	  478.68
     11.4700	  674.00	  610.42	-1697.67	  478.88
     11.5700	  636.00	  615.65	-1740.90	  479.07
     11.6700	  625.00	  621.99	-1758.24	  479.25
     11.7700	  631.00	  629.79	-1760.04	  479.42
     11.8700	  683.00	  639.38	-1717.63	  479.59
     11.9700	  725.00	  650.64	-1686.89	  479.75
     12.0700	  724.00	  662.36	-1699.61	  479.90
     12.1700	  674.00	  671.46	-1758.71	  480.04
     12.2700	  659.00	  672.92	-1775.17	  480.18
     12.3700	  691.00	  662.79	-1733.04	  480.30
     12.4700	  662.00	  644.73	-1743.98	  480.42
     12.5700	  649.00	  626.89	-1739.14	  480.53
     12.6700	  595.00	  613.53	-1779.78	  480.64
     12.7700	  614.00	  604.92	-1752.17	  480.73
     12.8700	  631.00	  599.86	-1730.11	  480.82
     12.9700	  550.00	  596.96	-1808.21	  480.91
     13.0700	  572.00	  595.24	-1784.49	  480.98
     13.1700	  596.00	  594.12	-1759.37	  481.05
     13.2700	  577.00	  593.32	-1777.57	  481.11
     13.3700	  594.00	  592.73	-1759.98	  481.16
     13.4700	  555.00	  592.28	-1798.53	  481.21
     13.5700	  583.00	  591.92	-1770.17	  481.25
     13.6700	  568.00	  591.63	-1784.88	  481.28
     13.7700	  570.00	  591.39	-1782.64	  481.31
     13.8700	  575.00	  591.22	-1777.47	  481.33
     13.9700	  587.00	  591.05	-1765.30	  481.34
     14.0700	  556.00	  590.90	-1796.15	  481.35
     14.1700	  586.00	  590.77	-1766.02	  481.35
     14.2700	  604.00	  590.65	-1747.90	  481.34
     14.3700	  590.00	  590.53	-1761.78	  481.33
     14.4700	  583.00	  590.43	-1768.68	  481.31
     14.5700	  595.00	  590.33	-1756.58	  481.28
     14.6700	  556.00	  590.23	-1795.48	  481.25
     14.7700	  579.00	  590.13	-1772.38	  481.22
     14.8700	  582.00	  590.04	-1769.29	  481.17
     14.9700	  553.00	  589.94	-1798.19	  481.12
     15.0700	  557.00	  589.84	-1794.09	  481.07
     15.1700	  590.00	  589.74	-1760.99	  481.00
     15.2700	  592.00	  589.64	-1758.89	  480.94
     15.3700	  534.00	  589.54	-1816.79	  480.86
     15.4700	  567.00	  589.43	-1783.68	  480.79
     15.5700	  555.00	  589.32	-1795.57	  480.70
     15.6700	  586.00	  589.21	-1764.46	  480.61
     15.7700	  515.00	  589.09	-1835.34	  480.52
     15.8700	  547.00	  588.98	-1803.23	  480.42
     15.9700	  524.00	  588.85	-1826.10	  480.31
     16.0700	  567.00	  588.72	-1782.97	  480.20
     16.1700	  599.00	  588.59	-1750.84	  480.08
     16.2700	  554.00	  588.46	-1795.71	  479.96
     16.3700	  617.00	  588.32	-1732.57	  479.83
     16.4700	  534.00	  588.18	-1815.43	  479.70
     16.5700	  576.00	  588.03	-1773.28	  479.56
     16.6700	  579.00	  587.88	-1770.13	  479.42
     16.7700	  558.00	  587.72	-1790.97	  479.27
     16.8700	  601.00	  587.56	-1747.81	  479.12
     16.9700	  596.00	  587.40	-1752.65	  478.97
     17.0700	  608.00	  587.23	-1740.48	  478.80
     17.1700	  566.00	  587.06	-1782.31	  478.64
     17.2700	  569.00	  586.89	-1779.14	  478.47
     17.3700	  567.00	  586.71	-1780.96	  478.29
     17.4700	  627.00	  586.65	-1720.90	  478.11
     17.5700	  525.00	  586.46	-1822.71	  477.93
     17.6700	  516.00	  586.27	-1831.52	  477.74
     17.7700	  559.00	  586.08	-1788.33	  477.55
     17.8700	  574.00	  585.88	-1773.13	  477.35
     17.9700	  535.00	  585.79	-1812.04	  477.15
     18.0700	  638.00	  585.59	-1708.84	  476.94
     18.1700	  566.00	  585.38	-1780.63	  476.73
     18.2700	  579.00	  585.17	-1767.42	  476.52
     18.3700	  550.00	  584.96	-1796.21	  476.30
     18.4700	  551.00	  584.74	-1794.99	  476.08
     18.5700	  568.00	  584.52	-1777.77	  475.86
     18.6700	  551.00	  584.30	-1794.55	  475.63
     18.7700	  598.00	  584.07	-1747.32	  475.39
     18.8700	  570.00	  583.84	-1775.09	  475.16
     18.9700	  594.00	  583.61	-1750.86	  474.91
     19.0700	  577.00	  583.37	-1767.62	  474.67
     19.1700	  565.00	  583.13	-1779.38	  474.42
     19.2700	  564.00	  582.89	-1780.14	  474.17
     19.3700	  561.00	  582.64	-1782.89	  473.92
     19.4700	  562.00	  582.39	-1781.64	  473.66
     19.5700	  551.00	  582.18	-1792.43	  473.39
     19.6700	  573.00	  581.93	-1770.18	  473.13
     19.7700	  536.00	  581.67	-1806.92	  472.86
     19.8700	  520.00	  581.42	-1822.67	  472.59
     19.9700	  562.00	  581.15	-1780.41	  472.31
     20.0700	  589.00	  580.89	-1753.14	  472.04
     20.1700	  587.00	  580.63	-1754.88	  471.75
     20.2700	  548.00	  580.36	-1793.61	  471.47
     20.3700	  575.00	  580.09	-1766.34	  471.18
     20.4700	  611.00	  579.82	-1730.07	  470.89
     20.5700	  552.00	  579.54	-1788.79	  470.60
     20.6700	  564.00	  579.27	-1776.52	  470.30
     20.7700	  560.00	  578.99	-1780.24	  470.00
     20.8700	  549.00	  578.71	-1790.96	  469.70
     20.9700	  602.00	  578.43	-1737.68	  469.40
     21.0700	  535.00	  578.15	-1804.40	  469.09
     21.1700	  627.00	  577.87	-1712.12	  468.78
     21.2700	  561.00	  577.58	-1777.83	  468.47
     21.3700	  554.00	  577.30	-1784.55	  468.15
     21.4700	  592.00	  577.01	-1746.26	  467.83
     21.5700	  626.00	  576.73	-1711.98	  467.51
     21.6700	  540.00	  576.44	-1797.69	  467.19
     21.7700	  552.00	  576.16	-1785.41	  466.87
     21.8700	  535.00	  575.88	-1802.13	  466.54
     21.9700	  538.00	  575.59	-1798.84	  466.21
     22.0700	  567.00	  575.31	-1769.56	  465.88
     22.1700	  544.00	  575.20	-1792.45	  465.54
     22.2700	  614.00	  574.93	-1722.18	  465.21
     22.3700	  545.00	  574.66	-1790.91	  464.87
     22.4700	  604.00	  574.39	-1731.64	  464.53
     22.5700	  544.00	  574.13	-1791.38	  464.19
     22.6700	  554.00	  573.88	-1781.13	  463.84
     22.7700	  545.00	  573.64	-1789.89	  463.50
     22.8700	  594.00	  573.40	-1740.65	  463.15
     22.9700	  587.00	  573.18	-1747.43	  462.80
     23.0700	  542.00	  572.94	-1792.19	  462.44
     23.1700	  535.00	  572.75	-1799.00	  462.09
     23.2700	  565.00	  572.59	-1768.84	  461.74
     23.3700	  491.00	  572.47	-1842.72	  461.38
     23.4700	  521.00	  572.39	-1812.64	  461.02
     23.5700	  564.00	  572.36	-1769.61	  460.66
     23.6700	  589.00	  572.41	-1744.66	  460.30
     23.7700	  584.00	  572.58	-1749.83	  459.93
     23.8700	  581.00	  572.94	-1753.19	  459.57
     23.9700	  623.00	  573.60	-1711.85	  459.20
     24.0700	  593.00	  574.78	-1743.03	  458.83
     24.1700	  600.00	  576.80	-1738.05	  458.46
     24.2700	  582.00	  580.13	-1759.38	  458.09
     24.3700	  594.00	  585.28	-1752.53	  457.72
     24.4700	  633.00	  592.67	-1720.92	  457.35
     24.5700	  636.00	  602.33	-1727.58	  456.97
     24.6700	  639.00	  613.49	-1735.74	  456.59
     24.7700	  680.00	  624.06	-1705.31	  456.22
     24.8700	  677.00	  630.21	-1714.46	  455.84
     24.9700	  676.00	  627.63	-1712.88	  455.46
     25.0700	  650.00	  616.32	-1727.57	  455.08
     25.1700	  617.00	  602.00	-1746.25	  454.70
     25.2700	  589.00	  589.68	-1761.93	  454.31
     25.3700	  632.00	  580.91	-1710.16	  453.93
     25.4700	  597.00	  575.35	-1739.60	  453.54
     25.5700	  627.00	  572.03	-1706.28	  453.16
     25.6700	  588.00	  570.04	-1743.29	  452.77
     25.7700	  601.00	  568.78	-1729.03	  452.39
     25.8700	  619.00	  567.92	-1710.17	  452.00
     25.9700	  556.00	  567.30	-1772.55	  451.61
     26.0700	  625.00	  566.85	-1703.10	  451.22
     26.1700	  646.00	  566.53	-1681.78	  450.83
     26.2700	  621.00	  566.34	-1706.59	  450.44
     26.3700	  607.00	  566.26	-1720.51	  450.05
     26.4700	  578.00	  566.29	-1749.54	  449.65
     26.5700	  611.00	  566.46	-1716.71	  449.26
     26.6700	  645.00	  566.76	-1683.01	  448.87
     26.7700	  636.00	  567.23	-1692.48	  448.47
     26.8700	  593.00	  567.90	-1736.15	  448.08
     26.9700	  595.00	  568.82	-1735.07	  447.68
     27.0700	  613.00	  570.07	-1718.32	  447.29
     27.1700	  645.00	  571.76	-1688.01	  446.89
     27.2700	  624.00	  574.11	-1711.36	  446.50
     27.3700	  661.00	  577.49	-1677.74	  446.10
     27.4700	  626.00	  582.62	-1717.87	  445.70
     27.5700	  609.00	  590.84	-1743.08	  445.31
     27.6700	  648.00	  604.31	-1717.56	  444.91
     27.7700	  640.00	  626.23	-1747.48	  444.51
     27.8700	  686.00	  660.15	-1735.40	  444.12
     27.9700	  709.00	  708.29	-1760.54	  443.72
     28.0700	  744.00	  768.90	-1786.15	  443.32
     28.1700	  812.00	  833.54	-1782.79	  442.92
     28.2700	  939.00	  885.11	-1707.36	  442.52
     28.3700	 1036.00	  901.31	-1626.56	  442.13
     28.4700	  988.00	  875.02	-1648.27	  441.73
     28.5700	  807.00	  832.72	-1786.97	  441.33
     28.6700	  785.00	  806.36	-1782.61	  440.93
     28.7700	  768.00	  807.21	-1800.46	  440.54
     28.8700	  760.00	  827.96	-1829.21	  440.14
     28.9700	  891.00	  848.61	-1718.86	  439.74
     29.0700	  867.00	  843.72	-1737.97	  439.34
     29.1700	  822.00	  801.25	-1740.50	  438.95
     29.2700	  778.00	  738.37	-1721.62	  438.55
     29.3700	  717.00	  679.28	-1723.53	  438.15
     29.4700	  644.00	  635.00	-1752.25	  437.75
     29.5700	  660.00	  606.10	-1707.35	  437.36
     29.6700	  652.00	  588.87	-1698.12	  436.96
     29.7700	  657.00	  578.93	-1683.18	  436.57
     29.8700	  648.00	  573.05	-1686.30	  436.17
     29.9700	  661.00	  569.43	-1669.68	  435.78
     30.0700	  590.00	  567.23	-1738.48	  435.38
     30.1700	  690.00	  566.24	-1637.49	  434.99
     30.2700	  627.00	  566.65	-1700.90	  434.59
     30.3700	  578.00	  569.05	-1752.30	  434.20
     30.4700	  619.00	  574.42	-1716.67	  433.81
     30.5700	  584.00	  584.03	-1761.28	  433.42
     30.6700	  604.00	  598.79	-1756.04	  433.02
     30.7700	  623.00	  618.26	-1756.51	  432.63
     30.8700	  688.00	  639.55	-1712.80	  432.24
     30.9700	  638.00	  656.71	-1779.96	  431.85
     31.0700	  636.00	  661.47	-1786.72	  431.46
     31.1700	  678.00	  649.02	-1732.27	  431.07
     31.2700	  662.00	  625.26	-1724.51	  430.69
     31.3700	  626.00	  600.70	-1735.95	  430.30
     31.4700	  596.00	  581.18	-1746.43	  429.91
     31.5700	  562.00	  567.84	-1767.09	  429.53
     31.6700	  564.00	  559.60	-1756.85	  429.14
     31.7700	  590.00	  554.78	-1726.03	  428.76
     31.8700	  568.00	  551.92	-1745.17	  428.37
     31.9700	  578.00	  550.12	-1733.37	  427.99
     32.0700	  554.00	  548.92	-1756.17	  427.61
     32.1700	  553.00	  548.10	-1756.35	  427.23
     32.2700	  576.00	  547.57	-1732.82	  426.85
     32.3700	  571.00	  547.28	-1737.53	  426.47
     32.4700	  605.00	  547.24	-1703.49	  426.09
     32.5700	  565.00	  547.43	-1743.68	  425.71
     32.6700	  566.00	  547.89	-1743.14	  425.34
     32.7700	  563.00	  548.66	-1746.91	  424.96
     32.8700	  567.00	  549.81	-1744.06	  424.59
     32.9700	  590.00	  551.46	-1722.71	  424.21
     33.0700	  571.00	  553.79	-1744.04	  423.84
     33.1700	  569.00	  557.15	-1749.40	  423.47
     33.2700	  611.00	  562.28	-1712.53	  423.10
     33.3700	  586.00	  570.46	-1745.71	  422.73
     33.4700	  561.00	  584.15	-1784.40	  422.36
     33.5700	  536.00	  607.20	-1832.45	  422.00
     33.6700	  608.00	  644.61	-1797.86	  421.63
     33.7700	  709.00	  700.82	-1753.07	  421.27
     33.8700	  768.00	  776.04	-1769.29	  420.90
     33.9700	  858.00	  861.76	-1765.01	  420.54
     34.0700	 1009.00	  937.86	-1690.11	  420.18
     34.1700	 1058.00	  974.43	-1677.68	  419.82
     34.2700	 1009.00	  947.90	-1700.15	  419.46
     34.3700	  937.00	  869.39	-1693.64	  419.11
     34.4700	  741.00	  776.12	-1796.37	  418.75
     34.5700	  718.00	  695.45	-1738.70	  418.39
     34.6700	  658.00	  636.64	-1739.89	  418.04
     34.7700	  573.00	  598.46	-1786.71	  417.69
     34.8700	  572.00	  575.46	-1764.71	  417.34
     34.9700	  579.00	  561.90	-1744.15	  416.99
     35.0700	  533.00	  553.58	-1781.83	  416.64
     35.1700	  545.00	  548.00	-1764.25	  416.29
     35.2700	  523.00	  543.93	-1782.18	  415.95
     35.3700	  554.00	  540.77	-1748.02	  415.60
     35.4700	  517.00	  538.70	-1782.95	  415.26
     35.5700	  497.00	  536.59	-1800.84	  414.92
     35.6700	  565.00	  534.83	-1731.08	  414.58
     35.7700	  489.00	  533.31	-1805.56	  414.24
     35.8700	  547.00	  531.99	-1746.24	  413.91
     35.9700	  496.00	  530.83	-1796.08	  413.57
     36.0700	  536.00	  529.80	-1755.05	  413.24
     36.1700	  529.00	  528.89	-1761.14	  412.91
     36.2700	  499.00	  528.04	-1790.29	  412.58
     36.3700	  532.00	  527.29	-1756.54	  412.25
     36.4700	  484.00	  526.62	-1803.87	  411.92
     36.5700	  499.00	  526.01	-1788.26	  411.59
     36.6700	  475.00	  525.46	-1811.71	  411.27
     36.7700	  474.00	  524.98	-1812.23	  410.95
     36.8700	  518.00	  524.57	-1767.82	  410.62
     36.9700	  506.00	  524.25	-1779.50	  410.30
     37.0700	  545.00	  524.09	-1740.34	  409.99
     37.1700	  502.00	  524.16	-1783.41	  409.67
     37.2700	  485.00	  524.61	-1800.86	  409.35
     37.3700	  511.00	  525.58	-1775.83	  409.04
     37.4700	  531.00	  527.21	-1757.46	  408.73
     37.5700	  515.00	  529.64	-1775.89	  408.42
     37.6700	  515.00	  532.22	-1778.47	  408.11
     37.7700	  529.00	  534.44	-1766.69	  407.81
     37.8700	  503.00	  535.34	-1793.59	  407.50
     37.9700	  530.00	  534.29	-1765.54	  407.20
     38.0700	  478.00	  531.67	-1814.92	  406.90
     38.1700	  538.00	  528.47	-1751.72	  406.60
     38.2700	  514.00	  525.42	-1772.67	  406.30
     38.3700	  480.00	  522.84	-1804.09	  406.00
     38.4700	  506.00	  520.84	-1776.09	  405.71
     38.5700	  490.00	  519.39	-1790.64	  405.42
     38.6700	  492.00	  518.34	-1787.59	  405.12
     38.7700	  493.00	  517.58	-1785.83	  404.84
     38.8700	  501.00	  516.98	-1777.23	  404.55
     38.9700	  498.00	  516.50	-1779.75	  404.26
     39.0700	  485.00	  516.07	-1792.32	  403.98
     39.1700	  512.00	  515.69	-1764.94	  403.70
     39.2700	  533.00	  515.33	-1743.58	  403.42
     39.3700	  494.00	  515.00	-1782.25	  403.14
     39.4700	  517.00	  514.57	-1758.82	  402.86
     39.5700	  521.00	  514.28	-1754.53	  402.59
     39.6700	  517.00	  514.00	-1758.25	  402.31
     39.7700	  503.00	  513.73	-1771.98	  402.04
     39.8700	  538.00	  513.48	-1736.73	  401.77
     39.9700	  485.00	  513.24	-1789.49	  401.51
     40.0700	  501.00	  513.01	-1773.26	  401.24
     40.1700	  491.00	  512.79	-1783.04	  400.98
     40.2700	  490.00	  513.12	-1784.37	  400.72
     40.3700	  477.00	  512.84	-1797.09	  400.46
     40.4700	  541.00	  512.72	-1732.97	  400.20
     40.5700	  524.00	  512.57	-1749.82	  399.94
     40.6700	  529.00	  512.44	-1744.69	  399.69
     40.7700	  508.00	  512.33	-1765.58	  399.44
     40.8700	  493.00	  512.24	-1780.49	  399.18
     40.9700	  492.00	  512.18	-1781.43	  398.94
     41.0700	  532.00	  512.15	-1741.40	  398.69
     41.1700	  516.00	  512.16	-1757.41	  398.45
     41.2700	  485.00	  512.22	-1788.47	  398.20
     41.3700	  491.00	  512.34	-1782.59	  397.96
     41.4700	  519.00	  512.53	-1754.78	  397.72
     41.5700	  485.00	  512.82	-1789.07	  397.49
     41.6700	  519.00	  513.24	-1755.49	  397.25
     41.7700	  458.00	  513.91	-1817.16	  397.02
     41.8700	  503.00	  514.86	-1773.11	  396.79
     41.9700	  503.00	  516.44	-1774.69	  396.56
     42.0700	  509.00	  519.08	-1771.33	  396.33
     42.1700	  503.00	  523.35	-1781.60	  396.11
     42.2700	  552.00	  530.30	-1739.55	  395.88
     42.3700	  490.00	  540.92	-1812.17	  395.66
     42.4700	  523.00	  555.76	-1794.01	  395.44
     42.5700	  546.00	  574.22	-1789.47	  395.23
     42.6700	  585.00	  593.71	-1769.96	  395.01
     42.7700	  593.00	  609.45	-1777.70	  394.80
     42.8700	  592.00	  614.92	-1784.17	  394.59
     42.9700	  607.00	  607.18	-1761.43	  394.38
     43.0700	  511.00	  589.76	-1840.01	  394.17
     43.1700	  561.00	  569.42	-1769.67	  393.96
     43.2700	  539.00	  551.05	-1773.30	  393.76
     43.3700	  519.00	  536.75	-1779.00	  393.56
     43.4700	  495.00	  526.72	-1792.97	  393.36
     43.5700	  522.00	  520.24	-1759.49	  393.16
     43.6700	  545.00	  516.23	-1732.48	  392.97
     43.7700	  506.00	  513.77	-1769.02	  392.77
     43.8700	  471.00	  512.19	-1802.44	  392.58
     43.9700	  524.00	  511.10	-1748.35	  392.39
     44.0700	  504.00	  510.29	-1767.54	  392.20
     44.1700	  490.00	  509.87	-1781.12	  392.02
     44.2700	  525.00	  509.37	-1745.62	  391.84
     44.3700	  503.00	  508.96	-1767.21	  391.65
     44.4700	  481.00	  508.63	-1788.88	  391.47
     44.5700	  517.00	  508.36	-1752.61	  391.30
     44.6700	  518.00	  508.14	-1751.39	  391.12
     44.7700	  470.00	  507.96	-1799.21	  390.95
     44.8700	  481.00	  507.83	-1788.08	  390.78
     44.9700	  498.00	  507.73	-1770.98	  390.61
     45.0700	  489.00	  507.66	-1779.91	  390.44
     45.1700	  534.00	  507.62	-1734.87	  390.27
     45.2700	  522.00	  507.62	-1746.87	  390.11
     45.3700	  534.00	  507.64	-1734.89	  389.95
     45.4700	  513.00	  507.69	-1755.94	  389.79
     45.5700	  504.00	  507.77	-1765.02	  389.63
     45.6700	  486.00	  507.95	-1783.20	  389.48
     45.7700	  533.00	  508.10	-1736.35	  389.32
     45.8700	  504.00	  508.31	-1765.56	  389.17
     45.9700	  493.00	  508.53	-1776.78	  389.02
     46.0700	  480.00	  508.80	-1790.05	  388.87
     46.1700	  510.00	  509.11	-1760.36	  388.73
     46.2700	  531.00	  509.47	-1739.72	  388.58
     46.3700	  530.00	  509.72	-1740.97	  388.44
     46.4700	  475.00	  510.21	-1796.46	  388.30
     46.5700	  492.00	  510.78	-1780.03	  388.16
     46.6700	  530.00	  511.44	-1742.69	  388.03
     46.7700	  545.00	  512.22	-1728.47	  387.90
     46.8700	  544.00	  513.17	-1730.42	  387.76
     46.9700	  489.00	  514.34	-1786.59	  387.63
     47.0700	  579.00	  515.89	-1698.14	  387.51
     47.1700	  550.00	  518.03	-1729.28	  387.38
     47.2700	  510.00	  521.17	-1772.42	  387.26
     47.3700	  543.00	  525.89	-1744.14	  387.13
     47.4700	  524.00	  532.90	-1770.15	  387.01
     47.5700	  551.00	  542.84	-1753.09	  386.89
     47.6700	  545.00	  556.01	-1772.26	  386.78
     47.7700	  578.00	  571.87	-1755.12	  386.66
     47.8700	  576.00	  588.60	-1773.85	  386.55
     47.9700	  624.00	  602.76	-1740.01	  386.44
     48.0700	  640.00	  610.03	-1731.28	  386.33
     48.1700	  572.00	  608.26	-1797.51	  386.22
     48.2700	  609.00	  598.35	-1750.60	  386.12
     48.3700	  565.00	  585.25	-1781.50	  386.02
     48.4700	  628.00	  572.88	-1706.13	  385.92
     48.5700	  503.00	  563.42	-1821.67	  385.82
     48.6700	  524.00	  557.66	-1794.91	  385.72
     48.7700	  534.00	  555.53	-1782.78	  385.62
     48.8700	  530.00	  556.59	-1787.84	  385.53
     48.9700	  531.00	  560.37	-1790.62	  385.44
     49.0700	  523.00	  566.70	-1804.95	  385.35
     49.1700	  525.00	  575.88	-1812.13	  385.26
     49.2700	  543.00	  589.08	-1807.33	  385.18
     49.3700	  567.00	  608.87	-1803.12	  385.09
     49.4700	  581.00	  640.12	-1820.37	  385.01
     49.5700	  673.00	  690.96	-1779.21	  384.93
     49.6700	  706.00	  773.11	-1828.36	  384.85
     49.7700	  816.00	  900.56	-1845.81	  384.77
     49.8700	 1009.00	 1085.47	-1837.72	  384.70
     49.9700	 1293.00	 1331.47	-1799.72	  384.63
     50.0700	 1600.00	 1625.07	-1786.32	  384.55
     50.1700	 1926.00	 1927.30	-1762.55	  384.48
     50.2700	 2200.00	 2169.25	-1730.50	  384.42
     50.3700	 2391.00	 2268.51	-1638.76	  384.35
     50.4700	 2267.00	 2181.05	-1675.30	  384.29
     50.5700	 1934.00	 1944.40	-1771.65	  384.22
     50.6700	 1606.00	 1643.93	-1799.18	  384.16
     50.7700	 1260.00	 1351.71	-1852.96	  384.10
     50.8700	 1023.00	 1108.53	-1846.78	  384.05
     50.9700	  820.00	  928.34	-1869.59	  383.99
     51.0700	  794.00	  807.42	-1774.67	  383.94
     51.1700	  687.00	  732.54	-1806.79	  383.89
     51.2700	  680.00	  687.86	-1769.11	  383.84
     51.3700	  662.00	  659.44	-1758.69	  383.79
     51.4700	  656.00	  637.96	-1743.21	  383.74
     51.5700	  646.00	  619.30	-1734.55	  383.70
     51.6700	  584.00	  602.74	-1779.99	  383.65
     51.7700	  584.00	  588.63	-1765.88	  383.61
     51.8700	  549.00	  577.26	-1789.51	  383.57
     51.9700	  581.00	  568.65	-1748.90	  383.53
     52.0700	  573.00	  562.58	-1750.83	  383.50
     52.1700	  569.00	  558.68	-1750.93	  383.46
     52.2700	  604.00	  556.61	-1713.86	  383.43
     52.3700	  559.00	  556.12	-1758.37	  383.40
     52.4700	  582.00	  557.16	-1736.41	  383.37
     52.5700	  573.00	  560.00	-1748.25	  383.34
     52.6700	  589.00	  565.37	-1737.62	  383.31
     52.7700	  621.00	  574.66	-1714.91	  383.29
     52.8700	  601.00	  590.15	-1750.40	  383.27
     52.9700	  631.00	  615.14	-1745.39	  383.24
     53.0700	  639.00	  653.57	-1775.82	  383.22
     53.1700	  719.00	  709.18	-1751.43	  383.20
     53.2700	  830.00	  783.97	-1715.22	  383.19
     53.3700	  929.00	  876.19	-1708.44	  383.17
     53.4700	 1042.00	  978.21	-1697.46	  383.16
     53.5700	 1090.00	 1074.50	-1745.75	  383.15
     53.6700	 1151.00	 1141.65	-1751.90	  383.14
     53.7700	 1199.00	 1156.81	-1719.06	  383.13
     53.8700	 1162.00	 1113.65	-1712.90	  383.12
     53.9700	  993.00	 1028.60	-1796.85	  383.11
     54.0700	  935.00	  927.07	-1753.32	  383.11
     54.1700	  792.00	  829.10	-1798.35	  383.10
     54.2700	  758.00	  745.93	-1749.18	  383.10
     54.3700	  672.00	  681.84	-1771.09	  383.10
     54.4700	  573.00	  636.33	-1824.58	  383.10
     54.5700	  609.00	  606.24	-1758.49	  383.11
     54.6700	  574.00	  587.54	-1774.79	  383.11
     54.7700	  614.00	  576.54	-1723.79	  383.12
     54.8700	  634.00	  570.45	-1697.70	  383.12
     54.9700	  601.00	  567.45	-1727.70	  383.13
     55.0700	  569.00	  566.47	-1758.72	  383.14
     55.1700	  558.00	  566.99	-1770.24	  383.15
     55.2700	  593.00	  568.75	-1737.00	  383.16
     55.3700	  566.00	  571.72	-1766.97	  383.18
     55.4700	  641.00	  575.96	-1696.21	  383.19
     55.5700	  573.00	  581.66	-1769.91	  383.21
     55.6700	  621.00	  589.20	-1729.45	  383.23
     55.7700	  614.00	  599.32	-1746.57	  383.25
     55.8700	  629.00	  613.38	-1745.63	  383.27
     55.9700	  618.00	  633.85	-1777.10	  383.29
     56.0700	  636.00	  665.00	-1790.25	  383.31
     56.1700	  685.00	  713.54	-1789.79	  383.34
     56.2700	  741.00	  788.94	-1809.19	  383.36
     56.3700	  887.00	  902.65	-1776.90	  383.39
     56.4700	  985.00	 1065.87	-1842.12	  383.42
     56.5700	 1232.00	 1285.62	-1814.87	  383.45
     56.6700	 1545.00	 1559.39	-1775.64	  383.48
     56.7700	 1892.00	 1870.03	-1739.28	  383.51
     56.8700	 2141.00	 2179.98	-1800.23	  383.54
     56.9700	 2479.00	 2429.50	-1711.75	  383.58
     57.0700	 2585.00	 2548.65	-1724.90	  383.62
     57.1700	 2464.00	 2495.09	-1792.34	  383.65
     57.2700	 2180.00	 2288.57	-1869.82	  383.69
     57.3700	 2011.00	 1994.80	-1745.05	  383.73
     57.4700	 1708.00	 1681.12	-1734.37	  383.77
     57.5700	 1349.00	 1393.68	-1805.93	  383.81
     57.6700	 1020.00	 1156.78	-1898.03	  383.85
     57.7700	  926.00	  977.85	-1813.10	  383.90
     57.8700	  832.00	  853.27	-1782.52	  383.94
     57.9700	  758.00	  773.62	-1776.87	  383.99
     58.0700	  748.00	  728.35	-1741.60	  384.03
     58.1700	  734.00	  708.79	-1736.04	  384.08
     58.2700	  742.00	  709.18	-1728.43	  384.13
     58.3700	  744.00	  726.53	-1743.78	  384.18
     58.4700	  756.00	  759.50	-1764.75	  384.23
     58.5700	  862.00	  807.04	-1706.29	  384.29
     58.6700	  913.00	  867.05	-1715.30	  384.34
     58.7700	  988.00	  935.02	-1708.27	  384.39
     58.8700	 1074.00	 1003.89	-1691.14	  384.45
     58.9700	 1168.00	 1066.31	-1659.56	  384.50
     59.0700	 1125.00	 1117.56	-1753.81	  384.56
     59.1700	 1234.00	 1154.74	-1681.99	  384.62
     59.2700	 1274.00	 1173.99	-1661.24	  384.68
     59.3700	 1289.00	 1173.21	-1645.46	  384.74
     59.4700	 1304.00	 1157.76	-1615.01	  384.80
     59.5700	 1196.00	 1139.46	-1704.71	  384.86
     59.6700	 1164.00	 1129.58	-1726.83	  384.92
     59.7700	 1239.00	 1134.88	-1657.13	  384.99
     59.8700	 1224.00	 1158.83	-1696.08	  385.05
     59.9700	 1297.00	 1204.18	-1668.43	  385.12
     60.0700	 1276.00	 1271.93	-1757.18	  385.18
     60.1700	 1329.00	 1356.85	-1789.10	  385.25
     60.2700	 1530.00	 1444.18	-1675.43	  385.32
     60.3700	 1544.00	 1509.55	-1726.80	  385.39
     60.4700	 1644.00	 1525.76	-1643.01	  385.46
     60.5700	 1525.00	 1477.90	-1714.15	  385.53
     60.6700	 1447.00	 1374.47	-1688.72	  385.60
     60.7700	 1243.00	 1240.04	-1758.29	  385.67
     60.8700	 1114.00	 1099.79	-1747.04	  385.74
     60.9700	 1032.00	  971.60	-1700.85	  385.81
     61.0700	  856.00	  865.66	-1770.91	  385.89
     61.1700	  780.00	  786.14	-1767.39	  385.96
     61.2700	  778.00	  733.18	-1716.43	  386.04
     61.3700	  736.00	  704.99	-1730.24	  386.11
     61.4700	  702.00	  699.72	-1758.97	  386.19
     61.5700	  763.00	  716.59	-1714.84	  386.27
     61.6700	  737.00	  756.06	-1780.31	  386.34
     61.7700	  804.00	  819.04	-1776.29	  386.42
     61.8700	  897.00	  905.35	-1769.60	  386.50
     61.9700	  967.00	 1011.89	-1806.14	  386.58
     62.0700	 1023.00	 1130.96	-1869.21	  386.66
     62.1700	 1226.00	 1248.65	-1783.90	  386.74
     62.2700	 1294.00	 1344.51	-1811.76	  386.82
     62.3700	 1320.00	 1394.97	-1836.22	  386.91
     62.4700	 1313.00	 1384.10	-1832.35	  386.99
     62.5700	 1258.00	 1314.74	-1817.99	  387.07
     62.6700	 1143.00	 1206.37	-1824.62	  387.15
     62.7700	 1060.00	 1082.41	-1783.66	  387.24
     62.8700	  870.00	  961.42	-1852.67	  387.32
     62.9700	  780.00	  854.92	-1836.17	  387.41
     63.0700	  726.00	  768.52	-1803.77	  387.49
     63.1700	  678.00	  703.20	-1786.45	  387.58
     63.2700	  653.00	  656.86	-1765.11	  387.66
     63.3700	  625.00	  625.90	-1762.15	  387.75
     63.4700	  639.00	  606.50	-1728.75	  387.84
     63.5700	  591.00	  595.45	-1765.70	  387.93
     63.6700	  579.00	  590.64	-1772.89	  388.01
     63.7700	  651.00	  591.04	-1701.29	  388.10
     63.8700	  622.00	  596.67	-1735.92	  388.19
     63.9700	  632.00	  608.40	-1737.65	  388.28
     64.0700	  652.00	  627.42	-1736.67	  388.37
     64.1700	  671.00	  655.18	-1745.43	  388.46
     64.2700	  687.00	  692.60	-1766.85	  388.55
     64.3700	  764.00	  739.61	-1736.86	  388.64
     64.4700	  852.00	  794.44	-1703.69	  388.73
     64.5700	  875.00	  853.14	-1739.39	  388.82
     64.6700	 1016.00	  909.06	-1654.31	  388.91
     64.7700	  987.00	  953.43	-1727.68	  389.00
     64.8700	  964.00	  977.91	-1775.16	  389.09
     64.9700	 1003.00	  977.73	-1735.98	  389.18
     65.0700	 1008.00	  954.42	-1707.67	  389.27
     65.1700	  965.00	  914.06	-1710.31	  389.37
     65.2700	  888.00	  864.86	-1738.11	  389.46
     65.3700	  829.00	  814.44	-1746.69	  389.55
     65.4700	  781.00	  767.55	-1747.80	  389.64
     65.5700	  723.00	  727.57	-1765.82	  389.73
     65.6700	  693.00	  694.26	-1762.51	  389.83
     65.7700	  678.00	  666.78	-1750.03	  389.92
     65.8700	  659.00	  644.28	-1746.53	  390.01
     65.9700	  621.00	  626.18	-1766.43	  390.10
     66.0700	  604.00	  612.05	-1769.30	  390.20
     66.1700	  582.00	  601.70	-1780.95	  390.29
     66.2700	  585.00	  594.17	-1770.42	  390.38
     66.3700	  579.00	  589.38	-1771.63	  390.48
     66.4700	  586.00	  587.03	-1762.28	  390.57
     66.5700	  582.00	  586.96	-1766.21	  390.66
     66.6700	  528.00	  589.09	-1822.34	  390.75
     66.7700	  577.00	  593.54	-1777.79	  390.85
     66.8700	  593.00	  600.86	-1769.11	  390.94
     66.9700	  614.00	  611.86	-1759.11	  391.03
     67.0700	  634.00	  628.37	-1755.62	  391.12
     67.1700	  633.00	  653.19	-1781.44	  391.22
     67.2700	  699.00	  690.44	-1752.69	  391.31
     67.3700	  758.00	  745.49	-1748.74	  391.40
     67.4700	  830.00	  824.72	-1755.97	  391.49
     67.5700	  874.00	  934.52	-1821.77	  391.59
     67.6700	 1053.00	 1079.94	-1788.19	  391.68
     67.7700	 1357.00	 1262.66	-1666.91	  391.77
     67.8700	 1469.00	 1478.95	-1771.20	  391.86
     67.9700	 1755.00	 1717.63	-1723.88	  391.95
     68.0700	 1961.00	 1958.63	-1758.88	  392.04
     68.1700	 2206.00	 2172.09	-1727.34	  392.13
     68.2700	 2280.00	 2320.79	-1802.04	  392.22
     68.3700	 2293.00	 2370.80	-1839.05	  392.31
     68.4700	 2262.00	 2308.94	-1808.19	  392.40
     68.5700	 2105.00	 2151.40	-1807.65	  392.49
     68.6700	 1935.00	 1933.37	-1759.62	  392.58
     68.7700	 1681.00	 1691.58	-1771.83	  392.67
     68.8700	 1485.00	 1454.95	-1731.20	  392.76
     68.9700	 1137.00	 1242.45	-1866.70	  392.85
     69.0700	 1077.00	 1064.28	-1748.53	  392.94
     69.1700	  945.00	  923.44	-1739.69	  393.03
     69.2700	  840.00	  817.77	-1739.02	  393.11
     69.3700	  732.00	  742.01	-1771.26	  393.20
     69.4700	  707.00	  689.67	-1743.92	  393.29
     69.5700	  643.00	  654.43	-1772.68	  393.37
     69.6700	  636.00	  631.00	-1756.25	  393.46
     69.7700	  566.00	  615.38	-1810.63	  393.54
     69.8700	  578.00	  604.82	-1788.07	  393.63
     69.9700	  556.00	  597.59	-1802.84	  393.71
     70.0700	  556.00	  592.40	-1797.65	  393.80
     70.1700	  612.00	  589.01	-1738.26	  393.88
     70.2700	  614.00	  586.90	-1734.15	  393.96
     70.3700	  591.00	  585.94	-1756.19	  394.05
     70.4700	  568.00	  586.09	-1779.34	  394.13
     70.5700	  606.00	  588.45	-1743.70	  394.21
     70.6700	  592.00	  591.32	-1760.57	  394.29
     70.7700	  607.00	  596.19	-1750.44	  394.37
     70.8700	  623.00	  603.90	-1742.15	  394.45
     70.9700	  593.00	  615.82	-1784.07	  394.53
     71.0700	  617.00	  633.93	-1778.18	  394.61
     71.1700	  652.00	  661.02	-1770.27	  394.69
     71.2700	  700.00	  700.59	-1761.84	  394.76
     71.3700	  752.00	  756.64	-1765.89	  394.84
     71.4700	  797.00	  833.13	-1797.38	  394.92
     71.5700	  939.00	  933.12	-1755.37	  394.99
     71.6700	 1039.00	 1057.77	-1780.02	  395.07
     71.7700	 1177.00	 1205.15	-1789.40	  395.14
     71.8700	 1307.00	 1369.20	-1823.45	  395.21
     71.9700	 1449.00	 1538.89	-1851.14	  395.29
     72.0700	 1581.00	 1697.60	-1877.85	  395.36
     72.1700	 1796.00	 1823.76	-1789.01	  395.43
     72.2700	 1818.00	 1894.51	-1837.76	  395.50
     72.3700	 1860.00	 1894.19	-1795.44	  395.57
     72.4700	 1843.00	 1822.82	-1741.07	  395.64
     72.5700	 1766.00	 1696.08	-1691.33	  395.71
     72.6700	 1587.00	 1536.83	-1711.08	  395.77
     72.7700	 1415.00	 1366.63	-1712.88	  395.84
     72.8700	 1234.00	 1202.06	-1729.31	  395.90
     72.9700	 1008.00	 1054.05	-1807.30	  395.97
     73.0700	  936.00	  928.62	-1753.87	  396.03
     73.1700	  811.00	  827.60	-1777.85	  396.10
     73.2700	  786.00	  749.84	-1725.09	  396.16
     73.3700	  717.00	  692.28	-1736.53	  396.22
     73.4700	  698.00	  651.01	-1714.26	  396.28
     73.5700	  689.00	  622.07	-1694.32	  396.34
     73.6700	  674.00	  602.00	-1689.25	  396.40
     73.7700	  647.00	  588.05	-1702.30	  396.46
     73.8700	  626.00	  578.24	-1713.49	  396.51
     73.9700	  593.00	  571.20	-1739.45	  396.57
     74.0700	  592.00	  565.55	-1734.80	  396.62
     74.1700	  604.00	  561.80	-1719.05	  396.68
     74.2700	  539.00	  559.07	-1781.32	  396.73
     74.3700	  599.00	  557.14	-1719.39	  396.78
     74.4700	  562.00	  555.82	-1755.07	  396.83
     74.5700	  562.00	  554.94	-1754.19	  396.88
     74.6700	  598.00	  554.33	-1717.58	  396.93
     74.7700	  584.00	  553.78	-1731.03	  396.98
     74.8700	  609.00	  553.11	-1705.36	  397.03
     74.9700	  634.00	  552.18	-1679.43	  397.07
     75.0700	  679.00	  550.96	-1633.21	  397.12
     75.1700	  630.00	  549.57	-1680.82	  397.16
     75.2700	  654.00	  548.24	-1655.49	  397.20
     75.3700	  641.00	  547.22	-1667.47	  397.24
     75.4700	  638.00	  546.84	-1670.09	  397.28
     75.5700	  582.00	  547.41	-1726.66	  397.32
     75.6700	  604.00	  549.31	-1706.56	  397.36
     75.7700	  577.00	  552.96	-1737.21	  397.40
     75.8700	  604.00	  558.77	-1716.02	  397.43
     75.9700	  570.00	  567.14	-1758.39	  397.47
     76.0700	  630.00	  578.36	-1709.61	  397.50
     76.1700	  601.00	  592.47	-1752.72	  397.53
     76.2700	  618.00	  609.37	-1752.62	  397.56
     76.3700	  632.00	  628.42	-1757.67	  397.59
     76.4700	  636.00	  648.58	-1773.82	  397.62
     76.5700	  644.00	  668.27	-1785.52	  397.65
     76.6700	  691.00	  685.42	-1755.67	  397.67
     76.7700	  694.00	  697.53	-1764.78	  397.70
     76.8700	  735.00	  702.62	-1728.87	  397.72
     76.9700	  686.00	  699.53	-1774.78	  397.74
     77.0700	  674.00	  688.82	-1776.07	  397.76
     77.1700	  646.00	  672.39	-1787.64	  397.78
     77.2700	  662.00	  652.64	-1751.89	  397.80
     77.3700	  635.00	  631.79	-1758.04	  397.82
     77.4700	  573.00	  611.54	-1799.79	  397.84
     77.5700	  569.00	  593.10	-1785.35	  397.85
     77.6700	  547.00	  577.15	-1791.40	  397.86
     77.7700	  535.00	  563.93	-1790.18	  397.87
     77.8700	  549.00	  553.49	-1765.74	  397.88
     77.9700	  525.00	  545.53	-1781.78	  397.89
     78.0700	  540.00	  539.65	-1760.90	  397.90
     78.1700	  510.00	  535.41	-1786.66	  397.91
     78.2700	  528.00	  532.19	-1765.44	  397.91
     78.3700	  516.00	  530.09	-1775.34	  397.92
     78.4700	  531.00	  528.61	-1758.86	  397.92
     78.5700	  489.00	  527.58	-1799.83	  397.92
     78.6700	  529.00	  526.84	-1759.09	  397.92
     78.7700	  526.00	  526.33	-1761.58	  397.91
     78.8700	  520.00	  525.99	-1767.24	  397.91
     78.9700	  495.00	  525.79	-1792.04	  397.91
     79.0700	  526.00	  525.74	-1760.99	  397.90
     79.1700	  500.00	  525.84	-1787.09	  397.89
     79.2700	  503.00	  526.11	-1784.36	  397.88
     79.3700	  513.00	  526.58	-1774.83	  397.87
     79.4700	  506.00	  527.28	-1782.53	  397.86
     79.5700	  537.00	  528.24	-1752.49	  397.84
     79.6700	  527.00	  529.52	-1763.77	  397.83
     79.7700	  523.00	  531.16	-1769.41	  397.81
     79.8700	  531.00	  533.20	-1763.45	  397.79
     79.9700	  517.00	  535.72	-1779.97	  397.77
     80.0700	  541.00	  538.77	-1759.02	  397.75
     80.1700	  529.00	  542.43	-1774.68	  397.73
     80.2700	  565.00	  546.79	-1743.04	  397.70
     80.3700	  552.00	  551.92	-1761.17	  397.68
     80.4700	  616.00	  557.95	-1703.20	  397.65
     80.5700	  613.00	  565.03	-1713.28	  397.62
     80.6700	  614.00	  573.34	-1720.59	  397.59
     80.7700	  615.00	  582.99	-1729.24	  397.56
     80.8700	  573.00	  593.78	-1782.03	  397.52
     80.9700	  649.00	  605.92	-1718.17	  397.49
     81.0700	  618.00	  618.80	-1762.05	  397.45
     81.1700	  656.00	  631.82	-1737.07	  397.41
     81.2700	  649.00	  644.26	-1756.51	  397.37
     81.3700	  640.00	  655.46	-1776.71	  397.33
     81.4700	  696.00	  664.88	-1730.13	  397.28
     81.5700	  711.00	  672.14	-1722.39	  397.24
     81.6700	  703.00	  676.98	-1735.23	  397.19
     81.7700	  704.00	  679.28	-1736.53	  397.14
     81.8700	  747.00	  679.01	-1693.26	  397.09
     81.9700	  700.00	  676.12	-1737.37	  397.04
     82.0700	  690.00	  670.65	-1741.90	  396.98
     82.1700	  726.00	  662.84	-1698.09	  396.93
     82.2700	  699.00	  653.19	-1715.44	  396.87
     82.3700	  621.00	  642.33	-1782.58	  396.81
     82.4700	  644.00	  630.85	-1748.10	  396.75
     82.5700	  646.00	  619.13	-1734.38	  396.69
     82.6700	  592.00	  607.49	-1776.74	  396.63
     82.7700	  593.00	  596.20	-1764.45	  396.56
     82.8700	  573.00	  585.60	-1773.85	  396.49
     82.9700	  553.00	  576.07	-1784.32	  396.42
     83.0700	  559.00	  567.90	-1770.15	  396.35
     83.1700	  547.00	  561.34	-1775.59	  396.28
     83.2700	  542.00	  556.49	-1775.74	  396.21
     83.3700	  550.00	  553.41	-1764.66	  396.13
     83.4700	  491.00	  552.05	-1822.30	  396.05
     83.5700	  557.00	  552.29	-1756.54	  395.97
     83.6700	  559.00	  553.94	-1756.19	  395.89
     83.7700	  525.00	  556.71	-1792.96	  395.81
     83.8700	  499.00	  560.24	-1822.49	  395.73
     83.9700	  528.00	  564.08	-1797.33	  395.64
     84.0700	  553.00	  567.72	-1775.97	  395.55
     84.1700	  578.00	  570.53	-1753.78	  395.46
     84.2700	  585.00	  572.11	-1748.36	  395.37
     84.3700	  544.00	  571.99	-1789.24	  395.28
     84.4700	  578.00	  570.14	-1753.39	  395.18
     84.5700	  543.00	  566.73	-1784.98	  395.08
     84.6700	  588.00	  562.16	-1735.41	  394.98
     84.7700	  550.00	  556.92	-1768.17	  394.88
     84.8700	  553.00	  551.43	-1759.68	  394.78
     84.9700	  545.00	  546.07	-1762.32	  394.68
     85.0700	  487.00	  541.09	-1815.34	  394.57
     85.1700	  514.00	  536.68	-1783.93	  394.46
     85.2700	  521.00	  532.93	-1773.18	  394.35
     85.3700	  517.00	  529.87	-1774.12	  394.24
     85.4700	  556.00	  527.47	-1732.72	  394.13
     85.5700	  528.00	  525.70	-1758.95	  394.01
     85.6700	  565.00	  524.47	-1720.72	  393.90
     85.7700	  553.00	  523.71	-1731.96	  393.78
     85.8700	  553.00	  523.36	-1731.61	  393.66
     85.9700	  516.00	  523.39	-1768.64	  393.54
     86.0700	  545.00	  523.80	-1740.05	  393.41
     86.1700	  496.00	  524.62	-1789.87	  393.29
     86.2700	  531.00	  525.91	-1756.16	  393.16
     86.3700	  514.00	  527.78	-1775.03	  393.03
     86.4700	  499.00	  530.34	-1792.59	  392.90
     86.5700	  515.00	  533.75	-1780.00	  392.77
     86.6700	  523.00	  538.15	-1776.40	  392.63
     86.7700	  553.00	  543.69	-1751.94	  392.49
     86.8700	  576.00	  550.47	-1735.72	  392.36
     86.9700	  575.00	  558.53	-1744.78	  392.22
     87.0700	  563.00	  567.80	-1766.05	  392.07
     87.1700	  570.00	  578.12	-1769.37	  391.93
     87.2700	  578.00	  589.15	-1772.40	  391.78
     87.3700	  536.00	  600.44	-1825.69	  391.64
     87.4700	  623.00	  611.33	-1749.58	  391.49
     87.5700	  637.00	  621.05	-1745.30	  391.34
     87.6700	  612.00	  628.71	-1777.96	  391.18
     87.7700	  602.00	  633.50	-1792.75	  391.03
     87.8700	  602.00	  634.84	-1794.09	  390.87
     87.9700	  662.00	  632.66	-1731.91	  390.71
     88.0700	  638.00	  627.36	-1750.61	  390.55
     88.1700	  617.00	  619.74	-1763.99	  390.39
     88.2700	  582.00	  610.73	-1789.98	  390.23
     88.3700	  626.00	  601.27	-1736.52	  390.06
     88.4700	  593.00	  592.17	-1760.43	  389.89
     88.5700	  546.00	  584.10	-1799.35	  389.72
     88.6700	  581.00	  577.57	-1757.82	  389.55
     88.7700	  582.00	  572.48	-1751.73	  389.38
     88.8700	  570.00	  569.83	-1761.08	  389.21
     88.9700	  587.00	  569.20	-1743.45	  389.03
     89.0700	  542.00	  570.41	-1789.66	  388.85
     89.1700	  596.00	  573.15	-1738.40	  388.67
     89.2700	  566.00	  577.00	-1772.25	  388.49
     89.3700	  589.00	  581.43	-1753.68	  388.31
     89.4700	  582.00	  585.84	-1765.09	  388.12
     89.5700	  553.00	  589.56	-1797.81	  387.93
     89.6700	  578.00	  591.98	-1775.23	  387.74
     89.7700	  582.00	  592.61	-1771.86	  387.55
     89.8700	  586.00	  591.21	-1766.46	  387.36
     89.9700	  546.00	  587.85	-1803.10	  387.17
     90.0700	  543.00	  582.87	-1801.12	  386.97
     90.1700	  616.00	  576.75	-1722.00	  386.77
     90.2700	  543.00	  569.99	-1788.24	  386.57
     90.3700	  568.00	  563.04	-1756.29	  386.37
     90.4700	  543.00	  556.27	-1774.52	  386.17
     90.5700	  519.00	  549.96	-1792.21	  385.97
     90.6700	  536.00	  544.32	-1769.57	  385.76
     90.7700	  569.00	  539.47	-1731.72	  385.55
     90.8700	  513.00	  535.45	-1783.70	  385.34
     90.9700	  504.00	  532.25	-1789.50	  385.13
     91.0700	  492.00	  529.83	-1799.08	  384.92
     91.1700	  506.00	  528.11	-1783.36	  384.70
     91.2700	  505.00	  527.04	-1783.29	  384.48
     91.3700	  513.00	  526.54	-1774.79	  384.27
     91.4700	  524.00	  526.57	-1763.82	  384.05
     91.5700	  524.00	  527.11	-1764.36	  383.82
     91.6700	  494.00	  528.19	-1795.44	  383.60
     91.7700	  522.00	  529.86	-1769.11	  383.38
     91.8700	  549.00	  532.21	-1744.46	  383.15
     91.9700	  544.00	  535.37	-1752.62	  382.92
     92.0700	  540.00	  539.48	-1760.73	  382.69
     92.1700	  539.00	  544.71	-1766.96	  382.46
     92.2700	  551.00	  551.22	-1761.47	  382.22
     92.3700	  553.00	  559.18	-1767.43	  381.99
     92.4700	  510.00	  568.70	-1819.95	  381.75
     92.5700	  555.00	  579.85	-1786.10	  381.51
     92.6700	  592.00	  592.63	-1761.88	  381.27
     92.7700	  606.00	  606.97	-1762.22	  381.03
     92.8700	  572.00	  622.67	-1811.92	  380.79
     92.9700	  575.00	  639.45	-1825.70	  380.55
     93.0700	  676.00	  656.89	-1742.14	  380.30
     93.1700	  695.00	  674.49	-1740.74	  380.05
     93.2700	  660.00	  691.63	-1792.88	  379.80
     93.3700	  639.00	  707.75	-1830.00	  379.55
     93.4700	  701.00	  722.42	-1782.67	  379.30
     93.5700	  780.00	  735.51	-1716.76	  379.04
     93.6700	  782.00	  747.21	-1726.46	  378.79
     93.7700	  750.00	  758.01	-1769.26	  378.53
     93.8700	  748.00	  768.45	-1781.70	  378.27
     93.9700	  753.00	  778.99	-1787.24	  378.01
     94.0700	  791.00	  789.62	-1759.87	  377.75
     94.1700	  799.00	  801.05	-1763.30	  377.49
     94.2700	  857.00	  812.96	-1717.21	  377.23
     94.3700	  909.00	  825.31	-1677.56	  376.96
     94.4700	  861.00	  838.08	-1738.33	  376.69
     94.5700	  864.00	  851.24	-1748.49	  376.42
     94.6700	  845.00	  864.57	-1780.82	  376.15
     94.7700	  955.00	  877.61	-1683.86	  375.88
     94.8700	  846.00	  889.49	-1804.74	  375.61
     94.9700	  886.00	  899.08	-1774.33	  375.33
     95.0700	  914.00	  904.98	-1752.23	  375.06
     95.1700	  929.00	  905.86	-1738.11	  374.78
     95.2700	  857.00	  900.77	-1805.02	  374.50
     95.3700	  895.00	  889.43	-1755.68	  374.22
     95.4700	  810.00	  872.37	-1823.62	  373.94
     95.5700	  889.00	  850.85	-1723.10	  373.66
     95.6700	  789.00	  826.50	-1798.75	  373.38
     95.7700	  795.00	  801.11	-1767.36	  373.09
     95.8700	  783.00	  776.41	-1754.66	  372.81
     95.9700	  765.00	  754.04	-1750.29	  372.52
     96.0700	  735.00	  735.44	-1761.69	  372.23
     96.1700	  685.00	  721.94	-1798.19	  371.94
     96.2700	  670.00	  714.69	-1805.94	  371.65
     96.3700	  645.00	  714.69	-1830.94	  371.36
     96.4700	  693.00	  722.79	-1791.04	  371.06
     96.5700	  708.00	  739.65	-1792.90	  370.77
     96.6700	  780.00	  765.75	-1747.00	  370.47
     96.7700	  799.00	  801.31	-1763.56	  370.17
     96.8700	  829.00	  846.26	-1778.51	  369.88
     96.9700	  844.00	  900.13	-1817.38	  369.58
     97.0700	  950.00	  962.05	-1773.30	  369.28
     97.1700	 1007.00	 1030.64	-1784.89	  368.98
     97.2700	 1108.00	 1103.99	-1757.24	  368.67
     97.3700	 1165.00	 1179.57	-1775.82	  368.37
     97.4700	 1221.00	 1254.29	-1794.54	  368.06
     97.5700	 1265.00	 1324.44	-1820.69	  367.76
     97.6700	 1390.00	 1385.96	-1757.21	  367.45
     97.7700	 1391.00	 1434.68	-1804.93	  367.14
     97.8700	 1470.00	 1466.86	-1758.11	  366.84
     97.9700	 1461.00	 1479.97	-1780.22	  366.53
     98.0700	 1483.00	 1473.25	-1751.50	  366.22
     98.1700	 1497.00	 1447.85	-1712.10	  365.90
     98.2700	 1392.00	 1406.50	-1775.75	  365.59
     98.3700	 1370.00	 1352.90	-1744.15	  365.28
     98.4700	 1258.00	 1291.11	-1794.36	  364.96
     98.5700	 1190.00	 1225.14	-1796.39	  364.65
     98.6700	 1153.00	 1158.63	-1766.88	  364.33
     98.7700	 1054.00	 1094.76	-1802.01	  364.02
     98.8700	 1066.00	 1036.27	-1731.52	  363.70
     98.9700	  985.00	  985.38	-1761.63	  363.38
     99.0700	  956.00	  943.87	-1749.12	  363.06
     99.1700	  877.00	  913.14	-1797.39	  362.74
     99.2700	  873.00	  894.22	-1782.47	  362.42
     99.3700	  915.00	  887.84	-1734.09	  362.10
     99.4700	  911.00	  894.43	-1744.68	  361.78
     99.5700	  903.00	  914.18	-1772.43	  361.46
     99.6700	  934.00	  946.97	-1774.22	  361.14
     99.7700	 1040.00	  992.45	-1713.70	  360.81
     99.8700	 1081.00	 1049.95	-1730.20	  360.49
     99.9700	 1147.00	 1118.48	-1732.73	  360.16
    100.0700	 1226.00	 1196.68	-1731.93	  359.84
    100.1700	 1310.00	 1282.75	-1734.00	  359.51
    100.2700	 1422.00	 1374.36	-1713.61	  359.18
    100.3700	 1467.00	 1468.69	-1762.94	  358.86
    100.4700	 1556.00	 1562.51	-1767.76	  358.53
    100.5700	 1585.00	 1652.27	-1828.52	  358.20
    100.6700	 1765.00	 1734.48	-1730.73	  357.87
    100.7700	 1820.00	 1806.14	-1747.39	  357.55
    100.8700	 1843.00	 1865.05	-1783.30	  357.22
    100.9700	 1906.00	 1909.78	-1765.03	  356.89
    101.0700	 2027.00	 1939.53	-1673.78	  356.56
    101.1700	 1998.00	 1953.72	-1716.97	  356.23
    101.2700	 1952.00	 1951.95	-1761.20	  355.90
    101.3700	 1977.00	 1934.02	-1718.27	  355.57
    101.4700	 1971.00	 1900.30	-1690.55	  355.24
    101.5700	 1881.00	 1852.14	-1732.39	  354.91
    101.6700	 1742.00	 1792.01	-1811.26	  354.57
    101.7700	 1667.00	 1723.34	-1817.59	  354.24
    101.8700	 1688.00	 1650.05	-1723.30	  353.91
    101.9700	 1615.00	 1575.97	-1722.22	  353.58
    102.0700	 1513.00	 1504.45	-1752.70	  353.25
    102.1700	 1327.00	 1438.10	-1872.35	  352.92
    102.2700	 1369.00	 1378.70	-1770.95	  352.58
    102.3700	 1350.00	 1327.21	-1738.46	  352.25
    102.4700	 1292.00	 1283.80	-1753.05	  351.92
    102.5700	 1234.00	 1247.90	-1775.15	  351.59
    102.6700	 1254.00	 1218.31	-1725.56	  351.26
    102.7700	 1205.00	 1193.31	-1749.56	  350.93
    102.8700	 1133.00	 1170.81	-1799.06	  350.59
    102.9700	 1093.00	 1148.64	-1816.89	  350.26
    103.0700	 1116.00	 1124.83	-1770.08	  349.93
    103.1700	 1073.00	 1097.90	-1786.15	  349.60
    103.2700	 1054.00	 1067.07	-1774.32	  349.27
    103.3700	 1064.00	 1032.30	-1729.55	  348.94
    103.4700	 1059.00	  994.16	-1696.41	  348.61
    103.5700	  898.00	  953.55	-1816.80	  348.28
    103.6700	  858.00	  911.57	-1814.82	  347.95
    103.7700	  834.00	  869.32	-1796.57	  347.62
    103.8700	  865.00	  827.80	-1724.05	  347.29
    103.9700	  810.00	  787.90	-1739.15	  346.96
    104.0700	  816.00	  750.33	-1695.58	  346.64
    104.1700	  729.00	  715.64	-1747.89	  346.31
    104.2700	  713.00	  684.23	-1732.48	  345.98
    104.3700	  669.00	  656.30	-1748.55	  345.66
    104.4700	  666.00	  631.90	-1727.15	  345.33
    104.5700	  616.00	  610.97	-1756.22	  345.00
    104.6700	  610.00	  593.33	-1744.58	  344.68
    104.7700	  631.00	  578.72	-1708.97	  344.36
    104.8700	  552.00	  566.84	-1776.09	  344.03
    104.9700	  604.00	  557.37	-1714.62	  343.71
    105.0700	  566.00	  549.98	-1745.23	  343.39
    105.1700	  572.00	  544.37	-1733.62	  343.07
    105.2700	  524.00	  540.29	-1777.54	  342.75
    105.3700	  564.00	  537.49	-1734.74	  342.43
    105.4700	  519.00	  535.79	-1778.04	  342.11
    105.5700	  563.00	  535.06	-1733.31	  341.79
    105.6700	  585.00	  535.18	-1711.43	  341.48
    105.7700	  559.00	  536.10	-1738.35	  341.16
    105.8700	  551.00	  537.76	-1748.01	  340.85
    105.9700	  561.00	  540.17	-1740.42	  340.54
    106.0700	  527.00	  543.31	-1777.56	  340.22
    106.1700	  588.00	  547.24	-1720.49	  339.91
    106.2700	  593.00	  551.97	-1720.22	  339.60
    106.3700	  578.00	  557.55	-1740.80	  339.29
    106.4700	  548.00	  564.00	-1777.25	  338.99
    106.5700	  553.00	  571.31	-1779.56	  338.68
    106.6700	  540.00	  579.45	-1800.70	  338.38
    106.7700	  587.00	  588.36	-1762.61	  338.07
    106.8700	  610.00	  597.92	-1749.17	  337.77
    106.9700	  608.00	  607.94	-1761.19	  337.47
    107.0700	  566.00	  618.20	-1813.45	  337.17
    107.1700	  635.00	  628.45	-1754.70	  336.87
    107.2700	  616.00	  638.36	-1783.61	  336.58
    107.3700	  631.00	  647.61	-1777.86	  336.28
    107.4700	  664.00	  655.85	-1753.10	  335.99
    107.5700	  665.00	  662.76	-1759.01	  335.70
    107.6700	  709.00	  668.13	-1720.38	  335.41
    107.7700	  670.00	  671.84	-1763.09	  335.12
    107.8700	  674.00	  673.95	-1761.20	  334.83
    107.9700	  680.00	  674.66	-1755.91	  334.55
    108.0700	  676.00	  674.28	-1759.53	  334.27
    108.1700	  659.00	  673.23	-1775.48	  333.99
    108.2700	  647.00	  671.91	-1786.16	  333.71
    108.3700	  669.00	  670.70	-1762.95	  333.43
    108.4700	  673.00	  669.89	-1758.14	  333.16
    108.5700	  663.00	  669.71	-1767.96	  332.88
    108.6700	  694.00	  670.28	-1737.53	  332.61
    108.7700	  701.00	  671.63	-1731.88	  332.34
    108.8700	  695.00	  673.66	-1739.91	  332.08
    108.9700	  685.00	  676.20	-1752.45	  331.81
    109.0700	  709.00	  678.98	-1731.23	  331.55
    109.1700	  700.00	  681.64	-1742.89	  331.29
    109.2700	  646.00	  683.77	-1799.02	  331.03
    109.3700	  671.00	  684.95	-1775.20	  330.78
    109.4700	  673.00	  684.80	-1773.05	  330.53
    109.5700	  732.00	  683.02	-1712.27	  330.28
    109.6700	  649.00	  679.43	-1791.68	  330.03
    109.7700	  688.00	  674.02	-1747.27	  329.78
    109.8700	  658.00	  666.94	-1770.19	  329.54
    109.9700	  696.00	  658.43	-1723.68	  329.30
    110.0700	  671.00	  648.82	-1739.07	  329.06
    110.1700	  657.00	  638.47	-1742.72	  328.83
    110.2700	  661.00	  627.72	-1727.97	  328.60
    110.3700	  630.00	  616.89	-1748.14	  328.37
    110.4700	  607.00	  606.29	-1760.54	  328.14
    110.5700	  622.00	  596.15	-1735.40	  327.92
    110.6700	  594.00	  586.70	-1753.95	  327.70
    110.7700	  569.00	  578.10	-1770.35	  327.48
    110.8700	  586.00	  570.45	-1745.70	  327.27
    110.9700	  572.00	  563.82	-1753.07	  327.05
    111.0700	  570.00	  558.27	-1749.52	  326.85
    111.1700	  598.00	  553.78	-1717.03	  326.64
    111.2700	  575.00	  550.32	-1736.57	  326.44
    111.3700	  566.00	  547.84	-1743.09	  326.24
    111.4700	  556.00	  546.26	-1751.51	  326.05
    111.5700	  545.00	  545.50	-1761.75	  325.85
    111.6700	  574.00	  545.47	-1732.72	  325.67
    111.7700	  573.00	  546.06	-1734.31	  325.48
    111.8700	  538.00	  547.18	-1770.43	  325.30
    111.9700	  569.00	  548.75	-1741.00	  325.12
    112.0700	  574.00	  550.67	-1737.92	  324.95
    112.1700	  543.00	  552.88	-1771.13	  324.78
    112.2700	  549.00	  555.32	-1767.57	  324.61
    112.3700	  503.00	  557.95	-1816.20	  324.45
    112.4700	  582.00	  560.72	-1739.97	  324.29
    112.5700	  545.00	  563.65	-1779.90	  324.13
    112.6700	  556.00	  566.74	-1771.99	  323.98
    112.7700	  558.00	  570.02	-1773.27	  323.83
    112.8700	  573.00	  573.55	-1761.80	  323.69
    112.9700	  588.00	  577.39	-1750.64	  323.55
    113.0700	  569.00	  581.62	-1773.87	  323.41
    113.1700	  581.00	  586.34	-1766.59	  323.28
    113.2700	  566.00	  591.68	-1786.93	  323.16
    113.3700	  579.00	  597.78	-1780.03	  323.03
    113.4700	  633.00	  604.82	-1733.07	  322.91
    113.5700	  643.00	  613.03	-1731.28	  322.80
    113.6700	  654.00	  622.70	-1729.95	  322.69
    113.7700	  656.00	  634.18	-1739.43	  322.59
    113.8700	  665.00	  647.91	-1744.16	  322.49
    113.9700	  642.00	  664.45	-1783.70	  322.39
    114.0700	  639.00	  684.45	-1806.70	  322.30
    114.1700	  703.00	  708.75	-1767.00	  322.21
    114.2700	  773.00	  738.32	-1726.57	  322.13
    114.3700	  759.00	  774.31	-1776.56	  322.05
    114.4700	  778.00	  818.08	-1801.33	  321.98
    114.5700	  890.00	  871.15	-1742.40	  321.91
    114.6700	  903.00	  935.24	-1793.49	  321.85
    114.7700	 1008.00	 1012.27	-1765.52	  321.79
    114.8700	 1092.00	 1104.24	-1773.49	  321.74
    114.9700	 1210.00	 1213.29	-1764.54	  321.69
    115.0700	 1379.00	 1341.51	-1723.76	  321.65
    115.1700	 1500.00	 1490.99	-1752.24	  321.62
    115.2700	 1753.00	 1663.65	-1671.90	  321.58
    115.3700	 1858.00	 1861.08	-1764.33	  321.56
    115.4700	 2200.00	 2084.47	-1645.72	  321.54
    115.5700	 2383.00	 2334.43	-1712.68	  321.52
    115.6700	 2786.00	 2610.96	-1586.21	  321.51
    115.7700	 3040.00	 2913.25	-1634.50	  321.51
    115.8700	 3232.00	 3239.48	-1768.73	  321.51
    115.9700	 3618.00	 3586.94	-1730.19	  321.52
    116.0700	 3945.00	 3951.71	-1767.96	  321.53
    116.1700	 4348.00	 4328.91	-1742.16	  321.55
    116.2700	 4840.00	 4712.54	-1633.79	  321.58
    116.3700	 5056.00	 5095.40	-1800.65	  321.61
    116.4700	 5354.00	 5469.30	-1876.55	  321.65
    116.5700	 5704.00	 5825.06	-1882.31	  321.69
    116.6700	 6081.00	 6152.91	-1833.16	  321.74
    116.7700	 6419.00	 6442.63	-1784.88	  321.80
    116.8700	 6709.00	 6684.06	-1736.31	  321.86
    116.9700	 6744.00	 6867.88	-1885.13	  321.93
    117.0700	 6965.00	 6986.43	-1782.68	  322.00
    117.1700	 7045.00	 7034.59	-1750.84	  322.09
    117.2700	 6982.00	 7010.38	-1789.63	  322.17
    117.3700	 6811.00	 6915.22	-1865.47	  322.27
    117.4700	 6736.00	 6753.76	-1779.01	  322.37
    117.5700	 6529.00	 6533.33	-1765.58	  322.48
    117.6700	 6169.00	 6262.97	-1855.22	  322.59
    117.7700	 5825.00	 5952.60	-1888.85	  322.72
    117.8700	 5432.00	 5612.45	-1941.70	  322.85
    117.9700	 5215.00	 5252.36	-1798.61	  322.98
    118.0700	 4807.00	 4881.51	-1835.76	  323.12
    118.1700	 4607.00	 4508.06	-1662.31	  323.28
    118.2700	 4301.00	 4139.09	-1599.34	  323.43
    118.3700	 3836.00	 3780.73	-1705.98	  323.60
    118.4700	 3633.00	 3437.89	-1566.14	  323.77
    118.5700	 3167.00	 3114.43	-1708.68	  323.95
    118.6700	 2806.00	 2813.09	-1768.34	  324.14
    118.7700	 2600.00	 2535.59	-1696.84	  324.33
    118.8700	 2299.00	 2282.88	-1745.13	  324.53
    118.9700	 2085.00	 2055.11	-1731.36	  324.74
    119.0700	 1921.00	 1851.83	-1692.08	  324.96
    119.1700	 1629.00	 1672.00	-1804.25	  325.19
    119.2700	 1435.00	 1514.22	-1840.47	  325.42
    119.3700	 1421.00	 1376.87	-1717.12	  325.66
    119.4700	 1281.00	 1258.12	-1738.37	  325.91
    119.5700	 1149.00	 1156.09	-1768.34	  326.17
    119.6700	 1048.00	 1068.85	-1782.10	  326.44
    119.7700	  946.00	  994.55	-1809.80	  326.71
    119.8700	  972.00	  931.47	-1720.72	  326.99
    119.9700	  852.00	  878.02	-1787.27	  327.28
    120.0700	  880.00	  832.79	-1714.04	  327.58
    120.1700	  802.00	  794.51	-1753.76	  327.89
    120.2700	  736.00	  762.08	-1787.33	  328.21
    120.3700	  751.00	  734.59	-1744.84	  328.53
    120.4700	  727.00	  711.25	-1745.50	  328.87
    120.5700	  642.00	  691.41	-1810.66	  329.21
    120.6700	  705.00	  674.52	-1730.77	  329.56
    120.7700	  605.00	  660.15	-1816.40	  329.92
    120.8700	  642.00	  647.94	-1767.19	  330.29
    120.9700	  580.00	  637.59	-1818.84	  330.67
    121.0700	  625.00	  628.86	-1765.11	  331.06
    121.1700	  641.00	  621.57	-1741.82	  331.46
    121.2700	  596.00	  615.55	-1780.80	  331.87
    121.3700	  587.00	  610.67	-1784.92	  332.28
    121.4700	  572.00	  606.82	-1796.07	  332.71
    121.5700	  568.00	  603.91	-1797.16	  333.14
    121.6700	  580.00	  601.87	-1783.12	  333.59
    121.7700	  623.00	  600.62	-1738.87	  334.05
    121.8700	  560.00	  600.09	-1801.34	  334.51
    121.9700	  578.00	  600.23	-1783.48	  334.99
    122.0700	  565.00	  600.98	-1797.23	  335.47
    122.1700	  600.00	  602.27	-1763.52	  335.97
    122.2700	  591.00	  604.04	-1774.29	  336.47
    122.3700	  592.00	  606.22	-1775.47	  336.99
    122.4700	  638.00	  608.74	-1731.99	  337.51
    122.5700	  580.00	  611.53	-1792.78	  338.05
    122.6700	  652.00	  614.49	-1723.74	  338.60
    122.7700	  631.00	  617.54	-1747.79	  339.15
    122.8700	  594.00	  620.59	-1787.84	  339.72
    122.9700	  570.00	  623.54	-1814.79	  340.30
    123.0700	  641.00	  626.28	-1746.53	  340.89
    123.1700	  628.00	  628.74	-1761.99	  341.49
    123.2700	  636.00	  630.82	-1756.07	  342.10
    123.3700	  648.00	  632.46	-1745.71	  342.73
    123.4700	  606.00	  633.59	-1788.84	  343.36
    123.5700	  628.00	  634.19	-1767.44	  344.01
    123.6700	  675.00	  634.25	-1720.50	  344.66
    123.7700	  632.00	  633.79	-1763.04	  345.33
    123.8700	  641.00	  632.83	-1753.08	  346.01
    123.9700	  652.00	  631.42	-1740.67	  346.70
    124.0700	  623.00	  629.62	-1767.87	  347.40
    124.1700	  686.00	  627.46	-1702.71	  348.12
    124.2700	  630.00	  625.06	-1756.31	  348.85
    124.3700	  629.00	  622.45	-1754.70	  349.58
    124.4700	  626.00	  619.70	-1754.95	  350.33
    124.5700	  621.00	  616.85	-1757.10	  351.10
    124.6700	  635.00	  613.97	-1740.22	  351.87
    124.7700	  612.00	  611.10	-1760.35	  352.66
    124.8700	  619.00	  608.29	-1750.54	  353.46
    124.9700	  621.00	  461.44	-1601.69	  354.27
    125.0700	  613.00	  462.27	-1761.25	  355.09
    125.1700	  608.00	  463.10	-1761.25	  355.93
    125.2700	  597.00	  463.95	-1761.25	  356.78
    125.3700	  557.00	  464.82	-1761.25	  357.64
    125.4700	  592.00	  465.69	-1761.25	  358.52
    125.5700	  588.00	  466.58	-1761.25	  359.41
    125.6700	  568.00	  467.48	-1761.25	  360.31
    125.7700	  549.00	  468.40	-1761.25	  361.23
    125.8700	  569.00	  469.32	-1761.25	  362.15
    125.9700	  542.00	  470.27	-1761.25	  363.10
    126.0700	  575.00	  471.22	-1761.25	  364.05
    126.1700	  563.00	  472.19	-1761.25	  365.02
    126.2700	  540.00	  473.17	-1761.25	  366.00
    126.3700	  565.00	  474.17	-1761.25	  367.00
    126.4700	  599.00	  475.18	-1761.25	  368.01
    126.5700	  610.00	  476.20	-1761.25	  369.03
    126.6700	  564.00	  477.24	-1761.25	  370.07
    126.7700	  528.00	  478.29	-1761.25	  371.12
    126.8700	  529.00	  479.36	-1761.25	  372.19
    126.9700	  586.00	  480.44	-1761.25	  373.27
    127.0700	  531.00	  481.54	-1761.25	  374.37
    127.1700	  564.00	  482.65	-1761.25	  375.47
    127.2700	  572.00	  483.77	-1761.25	  376.60
    127.3700	  550.00	  484.91	-1761.25	  377.74
    127.4700	  508.00	  486.06	-1761.25	  378.89
    127.5700	  562.00	  487.23	-1761.25	  380.06
    127.6700	  583.00	  488.42	-1761.25	  381.24
    127.7700	  577.00	  489.61	-1761.25	  382.44
    127.8700	  595.00	  490.83	-1761.25	  383.66
    127.9700	  599.00	  492.06	-1761.25	  384.89
    128.0700	  609.00	  493.30	-1761.25	  386.13
    128.1700	  699.00	  494.56	-1761.25	  387.39
    128.2700	  642.00	  495.84	-1761.25	  388.67
    128.3700	  680.00	  497.13	-1761.25	  389.96
    128.4700	  666.00	  498.44	-1761.25	  391.27
    128.5700	    0.00	  499.76	-1761.25	  392.59
    128.6700	    0.00	  501.10	-1761.25	  393.93
     12.3530	        	        	        	        	       0	(  0  0  2)	  0  1
     24.9850	        	        	        	        	       0	(  0  0  4)	  0  1
     28.4127	        	        	        	        	       0	(  1  0  0)	  0  1
     29.1133	        	        	        	        	       0	(  1  0  1)	  0  1
     31.1293	        	        	        	        	       0	(  1  0  2)	  0  1
     34.2524	        	        	        	        	       0	(  1  0  3)	  0  1
     37.9369	        	        	        	        	       0	(  0  0  6)	  0  1
     38.2483	        	        	        	        	       0	(  1  0  4)	  0  1
     42.9202	        	        	        	        	       0	(  1  0  5)	  0  1
     48.1289	        	        	        	        	       0	(  1  0  6)	  0  1
     50.4197	        	        	        	        	       0	(  1  1  0)	  0  1
     51.4177	        	        	        	        	       0	(  0  0  8)	  0  1
     52.1520	        	        	        	        	       0	(  1  1  2)	  0  1
     53.7868	        	        	        	        	       0	(  1  0  7)	  0  1
     57.1265	        	        	        	        	       0	(  1  1  4)	  0  1
     58.9471	        	        	        	        	       0	(  2  0  0)	  0  1
     59.3409	        	        	        	        	       0	(  2  0  1)	  0  1
     59.8476	        	        	        	        	       0	(  1  0  8)	  0  1
     60.5129	        	        	        	        	       0	(  2  0  2)	  0  1
     62.4370	        	        	        	        	       0	(  2  0  3)	  0  1
     64.8637	        	        	        	        	       0	(  1  1  6)	  0  1
     65.0761	        	        	        	        	       0	(  2  0  4)	  0  1
     65.7172	        	        	        	        	       0	(  0  0 10)	  0  1
     66.2980	        	        	        	        	       0	(  1  0  9)	  0  1
     68.3896	        	        	        	        	       0	(  2  0  5)	  0  1
     72.3406	        	        	        	        	       0	(  2  0  6)	  0  1
     73.1527	        	        	        	        	       0	(  1  0 10)	  0  1
     74.9605	        	        	        	        	       0	(  1  1  8)	  0  1
     76.9030	        	        	        	        	       0	(  2  0  7)	  0  1
     80.4552	        	        	        	        	       0	(  1  0 11)	  0  1
     81.2827	        	        	        	        	       0	(  2  1  0)	  0  1
     81.2883	        	        	        	        	       0	(  0  0 12)	  0  1
     81.6249	        	        	        	        	       0	(  2  1  1)	  0  1
     82.0668	        	        	        	        	       0	(  2  0  8)	  0  1
     82.6497	        	        	        	        	       0	(  2  1  2)	  0  1
     84.3528	        	        	        	        	       0	(  2  1  3)	  0  1
     86.7293	        	        	        	        	       0	(  2  1  4)	  0  1
     87.3134	        	        	        	        	       0	(  1  1 10)	  0  1
     87.8450	        	        	        	        	       0	(  2  0  9)	  0  1
     88.2828	        	        	        	        	       0	(  1  0 12)	  0  1
     89.7774	        	        	        	        	       0	(  2  1  5)	  0  1
     93.5033	        	        	        	        	       0	(  2  1  6)	  0  1
     94.2813	        	        	        	        	       0	(  2  0 10)	  0  1
     95.2480	        	        	        	        	       0	(  3  0  0)	  0  1
     95.5881	        	        	        	        	       0	(  3  0  1)	  0  1
     96.6097	        	        	        	        	       0	(  3  0  2)	  0  1
     96.7621	        	        	        	        	       0	(  1  0 13)	  0  1
     97.9279	        	        	        	        	       0	(  2  1  7)	  0  1
     98.3172	        	        	        	        	       0	(  3  0  3)	  0  1
     98.9604	        	        	        	        	       0	(  0  0 14)	  0  1
    100.7209	        	        	        	        	       0	(  3  0  4)	  0  1
    101.4644	        	        	        	        	       0	(  2  0 11)	  0  1
    102.3057	        	        	        	        	       0	(  1  1 12)	  0  1
    103.0960	        	        	        	        	       0	(  2  1  8)	  0  1
    103.8406	        	        	        	        	       0	(  3  0  5)	  0  1
    106.1012	        	        	        	        	       0	(  1  0 14)	  0  1
    107.7131	        	        	        	        	       0	(  3  0  6)	  0  1
    109.0918	        	        	        	        	       0	(  2  1  9)	  0  1
    109.5559	        	        	        	        	       0	(  2  0 12)	  0  1
    112.4029	        	        	        	        	       0	(  3  0  7)	  0  1
    116.0681	        	        	        	        	       0	(  2  1 10)	  0  1
    116.6677	        	        	        	        	       0	(  1  0 15)	  0  1
    117.1466	        	        	        	        	       0	(  2  2  0)	  0  1
    118.0232	        	        	        	        	       0	(  3  0  8)	  0  1
    118.6807	        	        	        	        	       0	(  2  2  2)	  0  1
    118.8536	        	        	        	        	       0	(  2  0 13)	  0  1
    120.6982	        	        	        	        	       0	(  0  0 16)	  0  1
    121.3736	        	        	        	        	       0	(  1  1 14)	  0  1
    123.4301	        	        	        	        	       0	(  2  2  4)	  0  1
    124.3098	        	        	        	        	       0	(  2  1 11)	  0  1
    124.7783	        	        	        	        	       0	(  3  0  9)	  0  1
    125.3068	        	        	        	        	       0	(  3  1  0)	  0  1
    125.7233	        	        	        	        	       0	(  3  1  1)	  0  1
    126.9864	        	        	        	        	       0	(  3  1  2)	  0  1
    129.1399	        	        	        	        	       0	(  3  1  3)	  0  1
    129.2146	        	        	        	        	       0	(  1  0 16)	  0  1
    129.9660	        	        	        	        	       0	(  2  0 14)	  0  1
    132.0117	        	        	        	        	       0	(  2  2  6)	  0  1
    132.2721	        	        	        	        	       0	(  3  1  4)	  0  1
    133.0672	        	        	        	        	       0	(  3  0 10)	  0  1
    134.4109	        	        	        	        	       0	(  2  1 12)	  0  1
    136.5471	        	        	        	        	       0	(  3  1  5)	  0  1
    142.2882	        	        	        	        	       0	(  3  1  6)	  0  1
    143.8268	        	        	        	        	       0	(  3  0 11)	  0  1
    144.4962	        	        	        	        	       0	(  2  0 15)	  0  1
    145.8597	        	        	        	        	       0	(  1  0 17)	  0  1
    146.6300	        	        	        	        	       0	(  2  2  8)	  0  1
    147.9850	        	        	        	        	       0	(  2  1 13)	  0  1
    150.2453	        	        	        	        	       0	(  3  1  7)	  0  1
    151.1543	        	        	        	        	       0	(  1  1 16)	  0  1
    155.9608	        	        	        	        	       0	(  0  0 18)	  0  1
    160.6655	        	        	        	        	       0	(  4  0  0)	  0  1
    160.6822	        	        	        	        	       0	(  3  0 12)	  0  1
    161.7225	        	        	        	        	       0	(  4  0  1)	  0  1
    163.1842	        	        	        	        	       0	(  3  1  8)	  0  1
    165.3315	        	        	        	        	       0	(  4  0  2)	  0  1
    175.8278	        	        	        	        	       0	(  4  0  3)	  0  1
    176.7526	        	        	        	        	       0	(  2  0 16)	  0  1
