MSG Master    CELL:    5.91903   5.91903  23.27161   90.0000   90.0000  120.0000   SPGR: P 63/m m c             TEMP:   1074.85
  1   1280     2.52000     0.00000    -0.12997     0.00000     0.00000    0
    99     0     2
       0.00000      10.00000
     125.00000     130.00000
 2Theta	Yobs	Ycal	Yobs-Ycal	Backg	Posr	(hkl)	K
      0.7700	    0.00	  586.10	-1765.00	  466.79
      0.8700	    0.00	  586.40	-1765.00	  467.08
      0.9700	   43.00	  586.68	-1765.00	  467.37
      1.0700	   53.00	  586.96	-1765.00	  467.65
      1.1700	   48.00	  587.23	-1765.00	  467.92
      1.2700	   33.00	  587.50	-1765.00	  468.18
      1.3700	   58.00	  587.75	-1765.00	  468.44
      1.4700	   85.00	  588.00	-1765.00	  468.69
      1.5700	  273.00	  588.24	-1765.00	  468.93
      1.6700	  438.00	  588.48	-1765.00	  469.16
      1.7700	  569.00	  588.71	-1765.00	  469.39
      1.8700	  697.00	  588.93	-1765.00	  469.61
      1.9700	  729.00	  589.14	-1765.00	  469.82
      2.0700	  818.00	  589.34	-1765.00	  470.03
      2.1700	  787.00	  589.54	-1765.00	  470.23
      2.2700	  800.00	  589.74	-1765.00	  470.42
      2.3700	  753.00	  589.92	-1765.00	  470.61
      2.4700	  719.00	  590.10	-1765.00	  470.79
      2.5700	  697.00	  590.27	-1765.00	  470.96
      2.6700	  650.00	  590.44	-1765.00	  471.12
      2.7700	  660.00	  590.60	-1765.00	  471.28
      2.8700	  643.00	  590.75	-1765.00	  471.43
      2.9700	  649.00	  590.89	-1765.00	  471.58
      3.0700	  618.00	  591.03	-1765.00	  471.72
      3.1700	  652.00	  591.17	-1765.00	  471.85
      3.2700	  606.00	  591.29	-1765.00	  471.98
      3.3700	  663.00	  591.41	-1765.00	  472.10
      3.4700	  736.00	  591.53	-1765.00	  472.21
      3.5700	  847.00	  591.63	-1765.00	  472.32
      3.6700	  844.00	  591.73	-1765.00	  472.42
      3.7700	  908.00	  591.83	-1765.00	  472.52
      3.8700	  970.00	  591.92	-1765.00	  472.61
      3.9700	 1061.00	  592.00	-1765.00	  472.69
      4.0700	 1069.00	  592.08	-1765.00	  472.77
      4.1700	 1056.00	  592.15	-1765.00	  472.84
      4.2700	 1057.00	  592.22	-1765.00	  472.90
      4.3700	 1042.00	  592.28	-1765.00	  472.96
      4.4700	 1064.00	  592.33	-1765.00	  473.02
      4.5700	 1043.00	  592.38	-1765.00	  473.07
      4.6700	 1061.00	  592.42	-1765.00	  473.11
      4.7700	 1013.00	  592.46	-1765.00	  473.15
      4.8700	  966.00	  592.49	-1765.00	  473.18
      4.9700	  945.00	  592.52	-1765.00	  473.20
      5.0700	  961.00	  592.54	-1765.00	  473.22
      5.1700	  898.00	  592.55	-1765.00	  473.24
      5.2700	  938.00	  592.56	-1765.00	  473.25
      5.3700	  924.00	  592.57	-1765.00	  473.25
      5.4700	  880.00	  592.57	-1765.00	  473.25
      5.5700	  847.00	  592.56	-1765.00	  473.25
      5.6700	  866.00	  592.55	-1765.00	  473.24
      5.7700	  838.00	  592.53	-1765.00	  473.22
      5.8700	  773.00	  592.51	-1765.00	  473.20
      5.9700	  813.00	  592.49	-1765.00	  473.17
      6.0700	  724.00	  592.46	-1765.00	  473.14
      6.1700	  747.00	  592.42	-1765.00	  473.11
      6.2700	  768.00	  592.38	-1765.00	  473.06
      6.3700	  793.00	  592.33	-1765.00	  473.02
      6.4700	  760.00	  592.28	-1765.00	  472.97
      6.5700	  727.00	  592.23	-1765.00	  472.91
      6.6700	  770.00	  592.17	-1765.00	  472.85
      6.7700	  655.00	  592.10	-1765.00	  472.79
      6.8700	  711.00	  592.03	-1765.00	  472.72
      6.9700	  690.00	  591.96	-1765.00	  472.64
      7.0700	  696.00	  591.88	-1765.00	  472.57
      7.1700	  680.00	  591.80	-1765.00	  472.48
      7.2700	  723.00	  591.71	-1765.00	  472.39
      7.3700	  643.00	  591.62	-1765.00	  472.30
      7.4700	  688.00	  591.52	-1765.00	  472.21
      7.5700	  649.00	  591.42	-1765.00	  472.11
      7.6700	  676.00	  591.32	-1765.00	  472.00
      7.7700	  666.00	  591.21	-1765.00	  471.89
      7.8700	  682.00	  591.09	-1765.00	  471.78
      7.9700	  628.00	  590.98	-1765.00	  471.66
      8.0700	  667.00	  590.85	-1765.00	  471.54
      8.1700	  640.00	  590.73	-1765.00	  471.41
      8.2700	  638.00	  590.60	-1765.00	  471.29
      8.3700	  647.00	  590.47	-1765.00	  471.15
      8.4700	  624.00	  590.33	-1765.00	  471.01
      8.5700	  616.00	  590.19	-1765.00	  470.87
      8.6700	  616.00	  590.04	-1765.00	  470.73
      8.7700	  578.00	  589.89	-1765.00	  470.58
      8.8700	  614.00	  589.74	-1765.00	  470.43
      8.9700	  632.00	  589.58	-1765.00	  470.27
      9.0700	  632.00	  589.42	-1765.00	  470.11
      9.1700	  610.00	  589.26	-1765.00	  469.95
      9.2700	  593.00	  589.09	-1765.00	  469.78
      9.3700	  634.00	  588.92	-1765.00	  469.61
      9.4700	  650.00	  588.75	-1765.00	  469.43
      9.5700	  648.00	  588.57	-1765.00	  469.26
      9.6700	  603.00	  588.39	-1765.00	  469.07
      9.7700	  620.00	  588.20	-1765.00	  468.89
      9.8700	  594.00	  588.02	-1765.00	  468.70
      9.9700	  615.00	  587.82	-1765.00	  468.51
     10.0700	  561.00	  588.34	-1792.34	  468.32
     10.1700	  594.00	  588.22	-1759.22	  468.12
     10.2700	  582.00	  588.11	-1771.11	  467.92
     10.3700	  602.00	  588.03	-1751.03	  467.71
     10.4700	  622.00	  587.99	-1730.99	  467.50
     10.5700	  578.00	  588.07	-1775.07	  467.29
     10.6700	  627.00	  588.35	-1726.35	  467.08
     10.7700	  584.00	  588.95	-1769.95	  466.86
     10.8700	  569.00	  589.94	-1785.94	  466.64
     10.9700	  578.00	  591.30	-1778.30	  466.42
     11.0700	  610.00	  593.00	-1748.00	  466.20
     11.1700	  598.00	  595.02	-1762.02	  465.97
     11.2700	  586.00	  597.41	-1776.41	  465.74
     11.3700	  583.00	  600.25	-1782.25	  465.50
     11.4700	  629.00	  603.66	-1739.66	  465.27
     11.5700	  600.00	  607.84	-1772.84	  465.03
     11.6700	  621.00	  613.14	-1757.14	  464.78
     11.7700	  654.00	  620.19	-1731.19	  464.54
     11.8700	  657.00	  629.96	-1737.96	  464.29
     11.9700	  664.00	  643.30	-1744.30	  464.04
     12.0700	  718.00	  658.70	-1705.70	  463.79
     12.1700	  702.00	  669.57	-1732.57	  463.53
     12.2700	  728.00	  665.49	-1702.49	  463.28
     12.3700	  697.00	  643.80	-1711.80	  463.02
     12.4700	  663.00	  618.14	-1720.14	  462.75
     12.5700	  598.00	  600.01	-1767.01	  462.49
     12.6700	  608.00	  590.60	-1747.60	  462.22
     12.7700	  555.00	  586.49	-1796.49	  461.95
     12.8700	  560.00	  584.61	-1789.61	  461.68
     12.9700	  574.00	  583.50	-1774.50	  461.41
     13.0700	  594.00	  582.69	-1753.69	  461.13
     13.1700	  562.00	  582.03	-1785.03	  460.85
     13.2700	  571.00	  581.46	-1775.46	  460.57
     13.3700	  549.00	  580.96	-1796.96	  460.29
     13.4700	  574.00	  580.50	-1771.50	  460.01
     13.5700	  658.00	  580.08	-1687.08	  459.72
     13.6700	  514.00	  579.68	-1830.68	  459.43
     13.7700	  560.00	  579.30	-1784.30	  459.14
     13.8700	  608.00	  578.93	-1735.93	  458.85
     13.9700	  606.00	  578.57	-1737.57	  458.55
     14.0700	  573.00	  578.22	-1770.22	  458.26
     14.1700	  561.00	  577.87	-1781.87	  457.96
     14.2700	  581.00	  577.53	-1761.53	  457.66
     14.3700	  584.00	  577.19	-1758.19	  457.36
     14.4700	  580.00	  576.86	-1761.86	  457.05
     14.5700	  555.00	  576.53	-1786.53	  456.75
     14.6700	  561.00	  576.20	-1780.20	  456.44
     14.7700	  587.00	  575.87	-1753.87	  456.13
     14.8700	  603.00	  575.54	-1737.54	  455.82
     14.9700	  558.00	  575.21	-1782.21	  455.51
     15.0700	  580.00	  574.88	-1759.88	  455.20
     15.1700	  531.00	  574.55	-1808.55	  454.88
     15.2700	  528.00	  574.22	-1811.22	  454.57
     15.3700	  572.00	  573.89	-1766.89	  454.25
     15.4700	  560.00	  573.56	-1778.56	  453.93
     15.5700	  567.00	  573.23	-1771.23	  453.61
     15.6700	  557.00	  572.90	-1780.90	  453.29
     15.7700	  557.00	  572.57	-1780.57	  452.96
     15.8700	  556.00	  572.24	-1781.24	  452.64
     15.9700	  547.00	  571.91	-1789.91	  452.31
     16.0700	  561.00	  571.57	-1775.57	  451.99
     16.1700	  543.00	  571.24	-1793.24	  451.66
     16.2700	  589.00	  570.90	-1746.90	  451.33
     16.3700	  588.00	  570.59	-1747.59	  451.00
     16.4700	  595.00	  570.26	-1740.26	  450.67
     16.5700	  548.00	  569.92	-1786.92	  450.33
     16.6700	  551.00	  569.58	-1783.58	  450.00
     16.7700	  545.00	  569.24	-1789.24	  449.66
     16.8700	  551.00	  568.91	-1782.91	  449.33
     16.9700	  535.00	  568.57	-1798.57	  448.99
     17.0700	  590.00	  568.22	-1743.22	  448.65
     17.1700	  554.00	  567.88	-1778.88	  448.31
     17.2700	  563.00	  567.54	-1769.54	  447.97
     17.3700	  571.00	  567.20	-1761.20	  447.63
     17.4700	  554.00	  566.85	-1777.85	  447.29
     17.5700	  579.00	  566.51	-1752.51	  446.94
     17.6700	  569.00	  566.16	-1762.16	  446.60
     17.7700	  507.00	  565.82	-1823.82	  446.25
     17.8700	  537.00	  565.47	-1793.47	  445.91
     17.9700	  542.00	  565.13	-1788.13	  445.56
     18.0700	  565.00	  564.88	-1764.88	  445.22
     18.1700	  521.00	  564.54	-1808.54	  444.87
     18.2700	  558.00	  564.19	-1771.19	  444.52
     18.3700	  527.00	  563.84	-1801.84	  444.17
     18.4700	  573.00	  563.50	-1755.50	  443.82
     18.5700	  532.00	  563.15	-1796.15	  443.47
     18.6700	  555.00	  562.80	-1772.80	  443.12
     18.7700	  567.00	  562.45	-1760.45	  442.77
     18.8700	  557.00	  562.10	-1770.10	  442.42
     18.9700	  563.00	  561.84	-1763.84	  442.06
     19.0700	  568.00	  561.49	-1758.49	  441.71
     19.1700	  549.00	  561.14	-1777.14	  441.36
     19.2700	  509.00	  560.80	-1816.80	  441.00
     19.3700	  540.00	  560.45	-1785.45	  440.65
     19.4700	  526.00	  560.10	-1799.10	  440.29
     19.5700	  591.00	  559.75	-1733.75	  439.94
     19.6700	  573.00	  559.40	-1751.40	  439.58
     19.7700	  554.00	  559.06	-1770.06	  439.23
     19.8700	  557.00	  558.71	-1766.71	  438.87
     19.9700	  556.00	  558.36	-1767.36	  438.52
     20.0700	  529.00	  558.01	-1794.01	  438.16
     20.1700	  568.00	  557.66	-1754.66	  437.80
     20.2700	  565.00	  557.32	-1757.32	  437.45
     20.3700	  612.00	  556.94	-1709.94	  437.09
     20.4700	  523.00	  556.60	-1798.60	  436.73
     20.5700	  541.00	  556.25	-1780.25	  436.37
     20.6700	  569.00	  555.91	-1751.91	  436.02
     20.7700	  556.00	  555.56	-1764.56	  435.66
     20.8700	  570.00	  555.22	-1750.22	  435.30
     20.9700	  552.00	  554.91	-1767.91	  434.94
     21.0700	  596.00	  554.57	-1723.57	  434.58
     21.1700	  556.00	  554.23	-1763.23	  434.23
     21.2700	  557.00	  553.89	-1761.89	  433.87
     21.3700	  571.00	  553.55	-1747.55	  433.51
     21.4700	  582.00	  553.21	-1736.21	  433.15
     21.5700	  553.00	  552.88	-1764.88	  432.79
     21.6700	  523.00	  552.55	-1794.55	  432.44
     21.7700	  592.00	  552.21	-1725.21	  432.08
     21.8700	  585.00	  551.88	-1731.88	  431.72
     21.9700	  573.00	  551.56	-1743.56	  431.36
     22.0700	  559.00	  551.23	-1757.23	  431.01
     22.1700	  536.00	  550.91	-1779.91	  430.65
     22.2700	  570.00	  550.59	-1745.59	  430.29
     22.3700	  512.00	  550.28	-1803.28	  429.94
     22.4700	  543.00	  549.97	-1771.97	  429.58
     22.5700	  587.00	  549.66	-1727.66	  429.22
     22.6700	  521.00	  549.36	-1793.36	  428.87
     22.7700	  501.00	  549.07	-1813.07	  428.51
     22.8700	  541.00	  548.79	-1772.79	  428.16
     22.9700	  523.00	  548.51	-1790.51	  427.80
     23.0700	  572.00	  548.25	-1741.25	  427.45
     23.1700	  565.00	  548.01	-1748.01	  427.09
     23.2700	  567.00	  547.78	-1745.78	  426.74
     23.3700	  563.00	  547.58	-1749.58	  426.39
     23.4700	  559.00	  547.41	-1753.41	  426.03
     23.5700	  545.00	  547.28	-1767.28	  425.68
     23.6700	  558.00	  547.22	-1754.22	  425.33
     23.7700	  567.00	  547.26	-1745.26	  424.98
     23.8700	  558.00	  547.63	-1754.63	  424.62
     23.9700	  538.00	  548.30	-1775.30	  424.27
     24.0700	  586.00	  549.86	-1728.86	  423.92
     24.1700	  539.00	  552.98	-1778.98	  423.57
     24.2700	  550.00	  558.56	-1773.56	  423.22
     24.3700	  558.00	  567.60	-1774.60	  422.88
     24.4700	  577.00	  581.27	-1769.27	  422.53
     24.5700	  555.00	  600.03	-1810.03	  422.18
     24.6700	  640.00	  620.97	-1745.97	  421.83
     24.7700	  622.00	  635.40	-1778.40	  421.49
     24.8700	  598.00	  631.66	-1798.67	  421.14
     24.9700	  612.00	  608.74	-1761.74	  420.80
     25.0700	  625.00	  581.67	-1721.67	  420.45
     25.1700	  583.00	  562.03	-1744.03	  420.11
     25.2700	  542.00	  551.44	-1774.44	  419.77
     25.3700	  551.00	  546.70	-1760.70	  419.43
     25.4700	  600.00	  544.62	-1709.62	  419.09
     25.5700	  565.00	  543.51	-1743.51	  418.75
     25.6700	  535.00	  542.78	-1772.78	  418.41
     25.7700	  560.00	  542.23	-1747.23	  418.07
     25.8700	  562.00	  541.81	-1744.81	  417.73
     25.9700	  571.00	  541.49	-1735.49	  417.39
     26.0700	  554.00	  541.26	-1752.26	  417.06
     26.1700	  564.00	  541.10	-1742.10	  416.72
     26.2700	  582.00	  541.01	-1724.01	  416.39
     26.3700	  556.00	  541.00	-1750.00	  416.05
     26.4700	  540.00	  541.07	-1766.07	  415.72
     26.5700	  565.00	  541.24	-1741.24	  415.39
     26.6700	  541.00	  541.52	-1765.52	  415.06
     26.7700	  546.00	  541.94	-1760.94	  414.73
     26.8700	  514.00	  542.53	-1793.53	  414.40
     26.9700	  566.00	  543.35	-1742.35	  414.07
     27.0700	  533.00	  544.48	-1776.48	  413.74
     27.1700	  590.00	  546.04	-1721.04	  413.41
     27.2700	  580.00	  548.30	-1733.30	  413.09
     27.3700	  548.00	  551.78	-1768.78	  412.76
     27.4700	  571.00	  557.48	-1751.48	  412.44
     27.5700	  536.00	  567.22	-1796.22	  412.12
     27.6700	  561.00	  583.83	-1787.83	  411.80
     27.7700	  555.00	  610.99	-1820.99	  411.48
     27.8700	  650.00	  651.84	-1766.84	  411.16
     27.9700	  686.00	  706.41	-1785.41	  410.84
     28.0700	  803.00	  768.25	-1730.25	  410.52
     28.1700	  861.00	  821.56	-1725.56	  410.21
     28.2700	  980.00	  842.92	-1627.92	  409.89
     28.3700	  870.00	  819.49	-1714.49	  409.58
     28.4700	  848.00	  774.55	-1691.55	  409.27
     28.5700	  718.00	  744.29	-1791.29	  408.96
     28.6700	  702.00	  744.65	-1807.65	  408.65
     28.7700	  769.00	  770.13	-1766.13	  408.34
     28.8700	  811.00	  799.59	-1753.59	  408.03
     28.9700	  828.00	  803.67	-1740.67	  407.72
     29.0700	  754.00	  764.55	-1775.55	  407.42
     29.1700	  703.00	  699.56	-1761.56	  407.11
     29.2700	  624.00	  638.46	-1779.46	  406.81
     29.3700	  625.00	  594.93	-1734.93	  406.51
     29.4700	  589.00	  568.98	-1744.98	  406.21
     29.5700	  613.00	  555.12	-1707.12	  405.91
     29.6700	  594.00	  547.84	-1718.84	  405.61
     29.7700	  614.00	  543.70	-1694.70	  405.31
     29.8700	  551.00	  541.09	-1755.09	  405.02
     29.9700	  569.00	  539.39	-1735.39	  404.72
     30.0700	  554.00	  538.47	-1749.47	  404.43
     30.1700	  551.00	  538.45	-1752.45	  404.14
     30.2700	  573.00	  539.85	-1731.85	  403.85
     30.3700	  542.00	  543.66	-1766.66	  403.56
     30.4700	  594.00	  551.41	-1722.41	  403.27
     30.5700	  576.00	  564.73	-1753.73	  402.99
     30.6700	  542.00	  584.10	-1807.10	  402.70
     30.7700	  590.00	  607.09	-1782.09	  402.42
     30.8700	  584.00	  626.99	-1807.99	  402.14
     30.9700	  614.00	  633.63	-1784.64	  401.86
     31.0700	  594.00	  620.36	-1791.36	  401.58
     31.1700	  577.00	  594.26	-1782.26	  401.30
     31.2700	  565.00	  568.51	-1768.51	  401.02
     31.3700	  534.00	  549.75	-1780.75	  400.75
     31.4700	  511.00	  538.55	-1792.55	  400.47
     31.5700	  534.00	  532.66	-1763.66	  400.20
     31.6700	  544.00	  529.66	-1750.66	  399.93
     31.7700	  558.00	  527.99	-1734.99	  399.66
     31.8700	  523.00	  526.93	-1768.93	  399.39
     31.9700	  550.00	  526.18	-1741.18	  399.13
     32.0700	  554.00	  525.64	-1736.64	  398.86
     32.1700	  578.00	  525.27	-1712.27	  398.60
     32.2700	  523.00	  525.04	-1767.04	  398.33
     32.3700	  516.00	  524.95	-1773.95	  398.07
     32.4700	  546.00	  525.01	-1744.01	  397.81
     32.5700	  583.00	  525.21	-1707.21	  397.56
     32.6700	  598.00	  525.60	-1692.60	  397.30
     32.7700	  533.00	  526.21	-1758.21	  397.05
     32.8700	  553.00	  527.11	-1739.11	  396.79
     32.9700	  513.00	  528.41	-1780.41	  396.54
     33.0700	  572.00	  530.29	-1723.29	  396.29
     33.1700	  531.00	  533.19	-1767.19	  396.04
     33.2700	  517.00	  538.11	-1786.11	  395.80
     33.3700	  553.00	  547.25	-1759.25	  395.55
     33.4700	  545.00	  564.91	-1784.91	  395.31
     33.5700	  615.00	  598.13	-1748.13	  395.06
     33.6700	  577.00	  655.06	-1843.06	  394.82
     33.7700	  794.00	  739.56	-1710.56	  394.58
     33.8700	  885.00	  842.44	-1722.44	  394.35
     33.9700	  985.00	  935.51	-1715.51	  394.11
     34.0700	 1055.00	  975.59	-1685.59	  393.88
     34.1700	  984.00	  931.64	-1712.64	  393.64
     34.2700	  931.00	  826.96	-1660.96	  393.41
     34.3700	  776.00	  715.91	-1704.91	  393.18
     34.4700	  612.00	  631.24	-1784.24	  392.95
     34.5700	  575.00	  579.03	-1769.03	  392.73
     34.6700	  572.00	  551.43	-1744.43	  392.50
     34.7700	  562.00	  537.86	-1740.86	  392.28
     34.8700	  535.00	  530.87	-1760.87	  392.06
     34.9700	  522.00	  526.68	-1769.68	  391.84
     35.0700	  522.00	  523.78	-1766.78	  391.62
     35.1700	  524.00	  521.58	-1762.58	  391.40
     35.2700	  538.00	  519.84	-1746.84	  391.19
     35.3700	  572.00	  518.42	-1711.42	  390.98
     35.4700	  483.00	  517.26	-1799.26	  390.76
     35.5700	  530.00	  516.27	-1751.27	  390.55
     35.6700	  477.00	  515.41	-1803.41	  390.35
     35.7700	  513.00	  514.67	-1766.67	  390.14
     35.8700	  502.00	  514.01	-1777.01	  389.93
     35.9700	  558.00	  513.43	-1720.43	  389.73
     36.0700	  499.00	  513.39	-1779.39	  389.53
     36.1700	  493.00	  512.93	-1784.93	  389.33
     36.2700	  521.00	  512.51	-1756.51	  389.13
     36.3700	  504.00	  512.13	-1773.13	  388.93
     36.4700	  517.00	  511.79	-1759.79	  388.74
     36.5700	  489.00	  511.48	-1787.48	  388.54
     36.6700	  463.00	  511.21	-1813.21	  388.35
     36.7700	  498.00	  510.98	-1777.98	  388.16
     36.8700	  518.00	  510.81	-1757.81	  387.97
     36.9700	  487.00	  510.76	-1788.76	  387.79
     37.0700	  526.00	  510.96	-1749.96	  387.60
     37.1700	  527.00	  511.64	-1749.64	  387.42
     37.2700	  492.00	  513.21	-1786.21	  387.24
     37.3700	  536.00	  516.05	-1745.05	  387.06
     37.4700	  554.00	  520.20	-1731.20	  386.88
     37.5700	  517.00	  524.94	-1772.94	  386.70
     37.6700	  525.00	  528.69	-1768.69	  386.53
     37.7700	  523.00	  529.67	-1771.67	  386.36
     37.8700	  532.00	  527.51	-1760.51	  386.18
     37.9700	  523.00	  523.70	-1765.70	  386.02
     38.0700	  510.00	  519.64	-1774.64	  385.85
     38.1700	  504.00	  515.89	-1776.89	  385.68
     38.2700	  485.00	  512.74	-1792.74	  385.52
     38.3700	  475.00	  510.40	-1800.40	  385.35
     38.4700	  442.00	  508.81	-1831.81	  385.19
     38.5700	  483.00	  507.79	-1789.79	  385.03
     38.6700	  485.00	  507.07	-1787.07	  384.88
     38.7700	  500.00	  506.66	-1771.66	  384.72
     38.8700	  523.00	  506.37	-1748.37	  384.57
     38.9700	  503.00	  506.13	-1768.13	  384.41
     39.0700	  504.00	  505.92	-1766.92	  384.26
     39.1700	  520.00	  505.66	-1750.66	  384.11
     39.2700	  520.00	  505.48	-1750.48	  383.97
     39.3700	  473.00	  505.33	-1797.33	  383.82
     39.4700	  527.00	  505.18	-1743.18	  383.68
     39.5700	  510.00	  505.04	-1760.04	  383.54
     39.6700	  533.00	  504.91	-1736.91	  383.40
     39.7700	  501.00	  504.91	-1768.91	  383.26
     39.8700	  488.00	  504.80	-1781.80	  383.12
     39.9700	  481.00	  504.71	-1788.71	  382.98
     40.0700	  501.00	  504.61	-1768.61	  382.85
     40.1700	  487.00	  504.53	-1782.53	  382.72
     40.2700	  471.00	  504.46	-1798.46	  382.59
     40.3700	  496.00	  504.40	-1773.40	  382.46
     40.4700	  501.00	  504.36	-1768.36	  382.33
     40.5700	  487.00	  504.32	-1782.32	  382.21
     40.6700	  482.00	  504.30	-1787.30	  382.09
     40.7700	  528.00	  504.31	-1741.31	  381.97
     40.8700	  486.00	  504.33	-1783.33	  381.85
     40.9700	  534.00	  504.37	-1735.37	  381.73
     41.0700	  509.00	  504.45	-1760.45	  381.61
     41.1700	  514.00	  504.54	-1755.54	  381.50
     41.2700	  477.00	  504.70	-1792.70	  381.38
     41.3700	  495.00	  504.92	-1774.92	  381.27
     41.4700	  525.00	  505.22	-1745.22	  381.16
     41.5700	  507.00	  505.63	-1763.63	  381.06
     41.6700	  522.00	  506.61	-1749.61	  380.95
     41.7700	  483.00	  507.47	-1789.47	  380.85
     41.8700	  512.00	  508.92	-1761.92	  380.74
     41.9700	  484.00	  511.63	-1792.63	  380.64
     42.0700	  504.00	  516.98	-1777.98	  380.54
     42.1700	  567.00	  527.24	-1725.24	  380.45
     42.2700	  512.00	  545.10	-1798.10	  380.35
     42.3700	  577.00	  572.27	-1760.27	  380.26
     42.4700	  570.00	  606.67	-1801.67	  380.16
     42.5700	  559.00	  640.72	-1846.72	  380.07
     42.6700	  608.00	  661.92	-1818.92	  379.98
     42.7700	  592.00	  659.08	-1832.08	  379.90
     42.8700	  580.00	  632.86	-1817.86	  379.81
     42.9700	  591.00	  596.52	-1770.52	  379.73
     43.0700	  560.00	  562.83	-1767.83	  379.64
     43.1700	  500.00	  537.98	-1802.98	  379.56
     43.2700	  512.00	  522.56	-1775.56	  379.48
     43.3700	  500.00	  514.20	-1779.20	  379.41
     43.4700	  514.00	  510.00	-1761.00	  379.33
     43.5700	  541.00	  507.88	-1731.88	  379.26
     43.6700	  508.00	  506.69	-1763.69	  379.19
     43.7700	  543.00	  506.09	-1728.09	  379.12
     43.8700	  464.00	  505.54	-1806.54	  379.05
     43.9700	  509.00	  505.13	-1761.13	  378.98
     44.0700	  487.00	  504.81	-1782.81	  378.91
     44.1700	  515.00	  504.57	-1754.57	  378.85
     44.2700	  514.00	  504.42	-1755.42	  378.79
     44.3700	  521.00	  504.29	-1748.29	  378.73
     44.4700	  516.00	  504.08	-1753.08	  378.67
     44.5700	  520.00	  504.02	-1749.02	  378.61
     44.6700	  462.00	  503.99	-1806.99	  378.55
     44.7700	  506.00	  503.99	-1762.99	  378.50
     44.8700	  509.00	  504.01	-1760.01	  378.45
     44.9700	  502.00	  504.05	-1767.05	  378.40
     45.0700	  532.00	  504.12	-1737.12	  378.35
     45.1700	  501.00	  504.20	-1768.20	  378.30
     45.2700	  523.00	  504.31	-1746.31	  378.25
     45.3700	  516.00	  504.62	-1753.62	  378.21
     45.4700	  492.00	  504.77	-1777.77	  378.17
     45.5700	  504.00	  504.95	-1765.95	  378.13
     45.6700	  523.00	  505.15	-1747.15	  378.09
     45.7700	  524.00	  505.37	-1746.37	  378.05
     45.8700	  491.00	  505.62	-1779.62	  378.01
     45.9700	  525.00	  505.90	-1745.90	  377.98
     46.0700	  516.00	  506.22	-1755.22	  377.94
     46.1700	  495.00	  506.57	-1776.57	  377.91
     46.2700	  476.00	  506.96	-1795.96	  377.88
     46.3700	  488.00	  507.40	-1784.40	  377.85
     46.4700	  514.00	  507.90	-1758.90	  377.82
     46.5700	  476.00	  508.47	-1797.47	  377.80
     46.6700	  517.00	  509.11	-1757.11	  377.78
     46.7700	  549.00	  509.87	-1725.87	  377.75
     46.8700	  478.00	  510.78	-1797.78	  377.73
     46.9700	  553.00	  511.97	-1723.97	  377.71
     47.0700	  461.00	  513.69	-1817.69	  377.69
     47.1700	  544.00	  516.49	-1737.49	  377.68
     47.2700	  565.00	  521.31	-1721.31	  377.66
     47.3700	  487.00	  529.41	-1807.41	  377.65
     47.4700	  544.00	  542.08	-1763.08	  377.64
     47.5700	  553.00	  559.50	-1771.50	  377.63
     47.6700	  581.00	  579.96	-1763.96	  377.62
     47.7700	  620.00	  599.05	-1744.05	  377.61
     47.8700	  612.00	  610.46	-1763.46	  377.61
     47.9700	  599.00	  609.39	-1775.39	  377.60
     48.0700	  592.00	  597.02	-1770.02	  377.60
     48.1700	  557.00	  579.63	-1787.63	  377.60
     48.2700	  552.00	  563.30	-1776.30	  377.60
     48.3700	  534.00	  551.45	-1782.45	  377.60
     48.4700	  497.00	  544.93	-1812.93	  377.60
     48.5700	  514.00	  543.03	-1794.03	  377.61
     48.6700	  501.00	  544.43	-1808.43	  377.61
     48.7700	  529.00	  548.19	-1784.19	  377.62
     48.8700	  520.00	  553.83	-1798.83	  377.63
     48.9700	  535.00	  561.41	-1791.41	  377.64
     49.0700	  609.00	  571.66	-1727.66	  377.65
     49.1700	  583.00	  586.26	-1768.26	  377.66
     49.2700	  641.00	  608.79	-1732.79	  377.68
     49.3700	  641.00	  646.07	-1770.07	  377.69
     49.4700	  701.00	  709.56	-1773.56	  377.71
     49.5700	  874.00	  815.71	-1706.71	  377.73
     49.6700	  920.00	  983.42	-1828.42	  377.75
     49.7700	 1162.00	 1225.85	-1828.85	  377.77
     49.8700	 1390.00	 1541.02	-1916.02	  377.79
     49.9700	 1840.00	 1898.59	-1823.59	  377.82
     50.0700	 2296.00	 2231.16	-1700.16	  377.84
     50.1700	 2554.00	 2439.56	-1650.56	  377.87
     50.2700	 2459.00	 2437.37	-1743.37	  377.90
     50.3700	 2308.00	 2223.36	-1680.36	  377.92
     50.4700	 1854.00	 1886.73	-1797.73	  377.95
     50.5700	 1445.00	 1530.44	-1850.44	  377.99
     50.6700	 1070.00	 1221.92	-1916.92	  378.02
     50.7700	  733.00	  989.95	-2021.95	  378.05
     50.8700	  711.00	  835.18	-1889.18	  378.09
     50.9700	  637.00	  741.71	-1869.71	  378.13
     51.0700	  608.00	  688.06	-1845.06	  378.17
     51.1700	  671.00	  655.14	-1749.14	  378.21
     51.2700	  592.00	  630.51	-1803.51	  378.25
     51.3700	  612.00	  609.17	-1762.17	  378.29
     51.4700	  565.00	  590.57	-1790.57	  378.33
     51.5700	  599.00	  575.34	-1741.34	  378.38
     51.6700	  534.00	  563.83	-1794.83	  378.42
     51.7700	  534.00	  555.72	-1786.72	  378.47
     51.8700	  590.00	  550.29	-1725.29	  378.52
     51.9700	  596.00	  546.72	-1715.72	  378.57
     52.0700	  545.00	  544.43	-1764.43	  378.62
     52.1700	  514.00	  543.08	-1794.08	  378.67
     52.2700	  576.00	  542.57	-1731.57	  378.72
     52.3700	  553.00	  543.03	-1755.03	  378.78
     52.4700	  593.00	  545.04	-1717.04	  378.83
     52.5700	  612.00	  549.17	-1702.17	  378.89
     52.6700	  622.00	  557.77	-1700.77	  378.95
     52.7700	  620.00	  574.87	-1719.87	  379.01
     52.8700	  653.00	  606.92	-1718.92	  379.07
     52.9700	  686.00	  662.06	-1741.06	  379.13
     53.0700	  782.00	  747.39	-1730.39	  379.19
     53.1700	  941.00	  864.03	-1688.03	  379.26
     53.2700	 1043.00	 1001.67	-1723.67	  379.32
     53.3700	 1129.00	 1135.29	-1771.29	  379.39
     53.4700	 1190.00	 1227.53	-1802.53	  379.45
     53.5700	 1181.00	 1243.16	-1827.16	  379.52
     53.6700	 1073.00	 1174.73	-1866.73	  379.59
     53.7700	 1015.00	 1050.38	-1800.38	  379.66
     53.8700	  889.00	  910.10	-1786.10	  379.73
     53.9700	  772.00	  784.24	-1777.24	  379.80
     54.0700	  630.00	  687.98	-1822.98	  379.88
     54.1700	  626.00	  623.51	-1762.51	  379.95
     54.2700	  588.00	  585.03	-1762.03	  380.03
     54.3700	  558.00	  564.13	-1771.13	  380.10
     54.4700	  556.00	  553.61	-1762.61	  380.18
     54.5700	  549.00	  548.56	-1764.56	  380.26
     54.6700	  555.00	  546.30	-1756.30	  380.34
     54.7700	  607.00	  545.53	-1703.53	  380.42
     54.8700	  589.00	  545.70	-1721.70	  380.50
     54.9700	  576.00	  546.61	-1735.61	  380.58
     55.0700	  557.00	  548.20	-1756.20	  380.67
     55.1700	  552.00	  550.49	-1763.49	  380.75
     55.2700	  586.00	  553.53	-1732.53	  380.84
     55.3700	  560.00	  557.45	-1762.45	  380.92
     55.4700	  560.00	  562.47	-1767.47	  381.01
     55.5700	  568.00	  568.91	-1765.91	  381.10
     55.6700	  564.00	  577.56	-1778.56	  381.19
     55.7700	  549.00	  590.00	-1806.00	  381.28
     55.8700	  622.00	  609.46	-1752.46	  381.37
     55.9700	  640.00	  642.07	-1767.07	  381.46
     56.0700	  681.00	  698.30	-1782.30	  381.55
     56.1700	  766.00	  793.49	-1792.49	  381.65
     56.2700	  839.00	  946.31	-1872.31	  381.74
     56.3700	 1119.00	 1173.18	-1819.18	  381.84
     56.4700	 1428.00	 1479.41	-1816.41	  381.93
     56.5700	 1698.00	 1848.69	-1915.69	  382.03
     56.6700	 2064.00	 2234.85	-1935.85	  382.13
     56.7700	 2530.00	 2560.25	-1795.25	  382.23
     56.8700	 2708.00	 2730.44	-1787.44	  382.33
     56.9700	 2613.00	 2681.99	-1833.99	  382.43
     57.0700	 2396.00	 2433.68	-1802.68	  382.53
     57.1700	 2031.00	 2071.24	-1805.24	  382.63
     57.2700	 1611.00	 1686.58	-1840.58	  382.73
     57.3700	 1278.00	 1344.22	-1831.22	  382.84
     57.4700	 1024.00	 1076.33	-1817.33	  382.94
     57.5700	  875.00	  888.54	-1778.54	  383.04
     57.6700	  766.00	  769.69	-1768.69	  383.15
     57.7700	  685.00	  702.11	-1782.11	  383.26
     57.8700	  681.00	  669.52	-1753.52	  383.36
     57.9700	  636.00	  660.68	-1789.68	  383.47
     58.0700	  692.00	  669.80	-1742.80	  383.58
     58.1700	  750.00	  695.10	-1710.10	  383.69
     58.2700	  760.00	  736.81	-1741.81	  383.80
     58.3700	  839.00	  795.25	-1721.25	  383.91
     58.4700	  947.00	  869.12	-1687.12	  384.02
     58.5700	 1065.00	  953.93	-1653.93	  384.13
     58.6700	 1280.00	 1041.45	-1526.45	  384.25
     58.7700	 1399.00	 1122.06	-1488.06	  384.36
     58.8700	 1524.00	 1189.09	-1430.09	  384.47
     58.9700	 1553.00	 1238.79	-1450.79	  384.59
     59.0700	 1599.00	 1266.15	-1432.15	  384.70
     59.1700	 1521.00	 1266.62	-1510.62	  384.82
     59.2700	 1403.00	 1243.99	-1605.99	  384.93
     59.3700	 1389.00	 1210.56	-1586.56	  385.05
     59.4700	 1287.00	 1178.82	-1656.82	  385.17
     59.5700	 1221.00	 1157.13	-1701.13	  385.29
     59.6700	 1080.00	 1152.73	-1837.73	  385.40
     59.7700	 1114.00	 1174.36	-1825.36	  385.52
     59.8700	 1236.00	 1228.00	-1757.00	  385.64
     59.9700	 1354.00	 1310.08	-1721.08	  385.76
     60.0700	 1440.00	 1404.27	-1729.27	  385.88
     60.1700	 1583.00	 1482.05	-1664.05	  386.00
     60.2700	 1593.00	 1509.96	-1681.96	  386.13
     60.3700	 1579.00	 1467.17	-1653.17	  386.25
     60.4700	 1459.00	 1360.41	-1666.41	  386.37
     60.5700	 1329.00	 1216.94	-1652.94	  386.49
     60.6700	 1189.00	 1066.16	-1642.16	  386.62
     60.7700	  944.00	  929.55	-1750.55	  386.74
     60.8700	  786.00	  819.14	-1798.14	  386.87
     60.9700	  719.00	  739.01	-1785.01	  386.99
     61.0700	  675.00	  687.83	-1777.83	  387.12
     61.1700	  599.00	  662.11	-1828.11	  387.24
     61.2700	  693.00	  659.09	-1731.09	  387.37
     61.3700	  704.00	  678.38	-1739.38	  387.49
     61.4700	  650.00	  722.23	-1837.23	  387.62
     61.5700	  767.00	  794.17	-1792.17	  387.75
     61.6700	  882.00	  896.38	-1779.38	  387.88
     61.7700	  972.00	 1026.70	-1819.70	  388.00
     61.8700	 1074.00	 1175.57	-1866.57	  388.13
     61.9700	 1238.00	 1324.39	-1851.39	  388.26
     62.0700	 1314.00	 1445.59	-1896.59	  388.39
     62.1700	 1443.00	 1507.92	-1829.92	  388.52
     62.2700	 1423.00	 1491.05	-1833.05	  388.65
     62.3700	 1322.00	 1400.07	-1843.07	  388.78
     62.4700	 1267.00	 1261.67	-1759.67	  388.91
     62.5700	  987.00	 1106.97	-1884.97	  389.04
     62.6700	  881.00	  960.24	-1844.24	  389.17
     62.7700	  712.00	  836.17	-1889.17	  389.30
     62.8700	  659.00	  740.72	-1846.72	  389.43
     62.9700	  642.00	  673.10	-1796.10	  389.56
     63.0700	  598.00	  628.56	-1795.56	  389.69
     63.1700	  626.00	  601.02	-1740.02	  389.83
     63.2700	  550.00	  584.91	-1799.91	  389.96
     63.3700	  585.00	  576.18	-1756.18	  390.09
     63.4700	  603.00	  572.44	-1734.44	  390.22
     63.5700	  567.00	  572.80	-1770.80	  390.36
     63.6700	  573.00	  577.68	-1769.68	  390.49
     63.7700	  650.00	  588.52	-1703.52	  390.62
     63.8700	  602.00	  607.47	-1770.47	  390.75
     63.9700	  684.00	  636.84	-1717.84	  390.89
     64.0700	  715.00	  678.26	-1728.26	  391.02
     64.1700	  744.00	  731.64	-1752.64	  391.15
     64.2700	  817.00	  794.18	-1742.18	  391.29
     64.3700	  884.00	  859.66	-1740.66	  391.42
     64.4700	  932.00	  918.49	-1751.49	  391.56
     64.5700	 1044.00	  958.90	-1679.90	  391.69
     64.6700	 1003.00	  973.02	-1735.02	  391.82
     64.7700	 1058.00	  958.29	-1665.29	  391.96
     64.8700	  955.00	  919.93	-1729.93	  392.09
     64.9700	  962.00	  867.13	-1670.13	  392.23
     65.0700	  829.00	  809.87	-1745.87	  392.36
     65.1700	  815.00	  756.03	-1706.03	  392.49
     65.2700	  763.00	  709.97	-1711.97	  392.63
     65.3700	  661.00	  672.71	-1776.71	  392.76
     65.4700	  629.00	  643.23	-1779.23	  392.90
     65.5700	  614.00	  620.01	-1771.01	  393.03
     65.6700	  622.00	  601.87	-1744.87	  393.16
     65.7700	  542.00	  587.96	-1810.96	  393.30
     65.8700	  595.00	  577.66	-1747.66	  393.43
     65.9700	  542.00	  570.47	-1793.47	  393.57
     66.0700	  544.00	  565.94	-1786.94	  393.70
     66.1700	  574.00	  563.64	-1754.64	  393.83
     66.2700	  533.00	  563.17	-1795.17	  393.97
     66.3700	  546.00	  564.19	-1783.19	  394.10
     66.4700	  540.00	  566.51	-1791.51	  394.23
     66.5700	  595.00	  570.15	-1740.15	  394.37
     66.6700	  574.00	  575.47	-1766.47	  394.50
     66.7700	  540.00	  583.30	-1808.30	  394.63
     66.8700	  568.00	  595.42	-1792.42	  394.77
     66.9700	  559.00	  614.58	-1820.58	  394.90
     67.0700	  605.00	  645.62	-1805.62	  395.03
     67.1700	  659.00	  695.43	-1801.43	  395.17
     67.2700	  770.00	  772.82	-1767.82	  395.30
     67.3700	  924.00	  887.47	-1728.47	  395.43
     67.4700	  930.00	 1047.37	-1882.37	  395.56
     67.5700	 1307.00	 1255.97	-1713.97	  395.69
     67.6700	 1515.00	 1507.83	-1757.83	  395.83
     67.7700	 1854.00	 1785.66	-1696.66	  395.96
     67.8700	 2178.00	 2059.47	-1646.47	  396.09
     67.9700	 2355.00	 2287.25	-1697.25	  396.22
     68.0700	 2502.00	 2422.12	-1685.12	  396.35
     68.1700	 2458.00	 2429.47	-1736.47	  396.48
     68.2700	 2256.00	 2307.21	-1816.21	  396.61
     68.3700	 2060.00	 2087.28	-1792.28	  396.74
     68.4700	 1883.00	 1816.47	-1698.47	  396.87
     68.5700	 1494.00	 1537.76	-1808.76	  397.00
     68.6700	 1312.00	 1282.58	-1735.58	  397.13
     68.7700	 1026.00	 1069.37	-1808.37	  397.26
     68.8700	  859.00	  904.79	-1810.79	  397.38
     68.9700	  737.00	  786.17	-1814.17	  397.51
     69.0700	  705.00	  705.84	-1765.84	  397.64
     69.1700	  641.00	  654.06	-1778.06	  397.77
     69.2700	  626.00	  621.89	-1760.89	  397.89
     69.3700	  619.00	  602.22	-1748.22	  398.02
     69.4700	  587.00	  590.08	-1768.08	  398.14
     69.5700	  593.00	  582.35	-1754.35	  398.27
     69.6700	  563.00	  577.21	-1779.21	  398.40
     69.7700	  563.00	  573.67	-1775.67	  398.52
     69.8700	  567.00	  571.22	-1769.22	  398.64
     69.9700	  528.00	  569.60	-1806.60	  398.77
     70.0700	  593.00	  568.69	-1740.69	  398.89
     70.1700	  600.00	  568.44	-1733.44	  399.01
     70.2700	  618.00	  568.87	-1715.87	  399.14
     70.3700	  592.00	  570.09	-1743.09	  399.26
     70.4700	  568.00	  572.29	-1769.29	  399.38
     70.5700	  583.00	  575.94	-1757.94	  399.50
     70.6700	  579.00	  581.87	-1767.87	  399.62
     70.7700	  542.00	  591.57	-1814.57	  399.74
     70.8700	  632.00	  607.44	-1740.44	  399.86
     70.9700	  598.00	  633.10	-1800.10	  399.98
     71.0700	  619.00	  673.46	-1819.46	  400.10
     71.1700	  682.00	  734.45	-1817.45	  400.22
     71.2700	  826.00	  822.21	-1761.21	  400.34
     71.3700	  900.00	  941.53	-1806.53	  400.45
     71.4700	 1066.00	 1093.81	-1792.81	  400.57
     71.5700	 1187.00	 1275.76	-1853.76	  400.68
     71.6700	 1439.00	 1474.58	-1800.58	  400.80
     71.7700	 1597.00	 1672.26	-1840.26	  400.91
     71.8700	 1805.00	 1842.93	-1802.93	  401.03
     71.9700	 1930.00	 1957.11	-1792.11	  401.14
     72.0700	 1999.00	 1990.20	-1756.20	  401.25
     72.1700	 1925.00	 1934.32	-1774.32	  401.37
     72.2700	 1754.00	 1802.66	-1813.66	  401.48
     72.3700	 1674.00	 1623.09	-1714.09	  401.59
     72.4700	 1572.00	 1424.27	-1617.27	  401.70
     72.5700	 1292.00	 1230.13	-1703.13	  401.81
     72.6700	 1202.00	 1057.22	-1620.22	  401.92
     72.7700	 1070.00	  914.30	-1609.30	  402.03
     72.8700	  957.00	  803.58	-1611.58	  402.13
     72.9700	  936.00	  722.51	-1551.51	  402.24
     73.0700	  783.00	  665.93	-1647.93	  402.35
     73.1700	  750.00	  627.89	-1642.89	  402.45
     73.2700	  677.00	  602.89	-1690.89	  402.56
     73.3700	  648.00	  586.60	-1703.60	  402.66
     73.4700	  633.00	  575.89	-1707.89	  402.76
     73.5700	  643.00	  568.76	-1690.76	  402.87
     73.6700	  591.00	  563.94	-1737.94	  402.97
     73.7700	  556.00	  560.73	-1769.73	  403.07
     73.8700	  564.00	  558.73	-1759.73	  403.17
     73.9700	  568.00	  557.71	-1754.71	  403.27
     74.0700	  590.00	  557.48	-1732.48	  403.37
     74.1700	  609.00	  557.87	-1713.87	  403.46
     74.2700	  615.00	  558.67	-1708.67	  403.56
     74.3700	  590.00	  559.62	-1734.62	  403.66
     74.4700	  659.00	  560.41	-1666.41	  403.75
     74.5700	  628.00	  560.73	-1697.73	  403.85
     74.6700	  638.00	  560.32	-1687.32	  403.94
     74.7700	  629.00	  559.14	-1695.14	  404.03
     74.8700	  627.00	  557.33	-1695.33	  404.13
     74.9700	  619.00	  555.19	-1701.19	  404.22
     75.0700	  616.00	  553.05	-1702.05	  404.31
     75.1700	  582.00	  551.35	-1734.35	  404.40
     75.2700	  591.00	  550.34	-1724.34	  404.48
     75.3700	  555.00	  550.54	-1760.54	  404.57
     75.4700	  570.00	  552.31	-1747.31	  404.66
     75.5700	  564.00	  556.04	-1757.04	  404.74
     75.6700	  525.00	  562.44	-1802.44	  404.83
     75.7700	  548.00	  571.90	-1788.90	  404.91
     75.8700	  659.00	  584.74	-1690.74	  405.00
     75.9700	  622.00	  600.94	-1743.94	  405.08
     76.0700	  625.00	  620.04	-1760.04	  405.16
     76.1700	  623.00	  640.93	-1782.93	  405.24
     76.2700	  681.00	  661.87	-1745.87	  405.32
     76.3700	  724.00	  680.55	-1721.55	  405.40
     76.4700	  695.00	  694.27	-1764.27	  405.48
     76.5700	  705.00	  700.61	-1760.61	  405.55
     76.6700	  727.00	  698.23	-1736.23	  405.63
     76.7700	  662.00	  687.61	-1790.61	  405.70
     76.8700	  646.00	  670.77	-1789.77	  405.78
     76.9700	  624.00	  650.20	-1791.20	  405.85
     77.0700	  644.00	  628.77	-1749.77	  405.92
     77.1700	  588.00	  608.34	-1785.34	  405.99
     77.2700	  578.00	  590.29	-1777.29	  406.06
     77.3700	  527.00	  575.34	-1813.34	  406.13
     77.4700	  545.00	  563.69	-1783.69	  406.20
     77.5700	  534.00	  555.07	-1786.07	  406.26
     77.6700	  537.00	  548.99	-1776.99	  406.33
     77.7700	  516.00	  544.90	-1793.90	  406.39
     77.8700	  508.00	  542.23	-1799.23	  406.45
     77.9700	  532.00	  540.53	-1773.53	  406.52
     78.0700	  509.00	  539.47	-1795.47	  406.58
     78.1700	  541.00	  538.82	-1762.82	  406.64
     78.2700	  534.00	  538.41	-1769.41	  406.70
     78.3700	  500.00	  538.17	-1803.17	  406.75
     78.4700	  487.00	  538.04	-1816.04	  406.81
     78.5700	  528.00	  538.00	-1775.00	  406.87
     78.6700	  517.00	  538.05	-1786.05	  406.92
     78.7700	  506.00	  538.20	-1797.20	  406.97
     78.8700	  535.00	  538.46	-1768.46	  407.03
     78.9700	  540.00	  538.86	-1763.86	  407.08
     79.0700	  539.00	  539.44	-1765.44	  407.13
     79.1700	  560.00	  540.25	-1745.25	  407.18
     79.2700	  523.00	  541.17	-1783.17	  407.22
     79.3700	  543.00	  542.62	-1764.62	  407.27
     79.4700	  515.00	  544.48	-1794.48	  407.32
     79.5700	  534.00	  546.83	-1777.83	  407.36
     79.6700	  534.00	  549.75	-1780.75	  407.40
     79.7700	  519.00	  553.35	-1799.35	  407.45
     79.8700	  513.00	  557.79	-1809.79	  407.49
     79.9700	  565.00	  563.24	-1763.24	  407.53
     80.0700	  505.00	  569.95	-1829.95	  407.56
     80.1700	  525.00	  578.21	-1818.21	  407.60
     80.2700	  557.00	  588.35	-1796.35	  407.64
     80.3700	  581.00	  600.65	-1784.65	  407.67
     80.4700	  587.00	  615.21	-1793.21	  407.71
     80.5700	  602.00	  631.89	-1794.89	  407.74
     80.6700	  599.00	  650.21	-1816.21	  407.77
     80.7700	  641.00	  669.29	-1793.29	  407.80
     80.8700	  640.00	  687.90	-1812.90	  407.83
     80.9700	  683.00	  704.63	-1786.63	  407.86
     81.0700	  751.00	  718.14	-1732.14	  407.88
     81.1700	  756.00	  727.40	-1736.40	  407.91
     81.2700	  724.00	  731.72	-1772.72	  407.93
     81.3700	  762.00	  730.82	-1733.82	  407.95
     81.4700	  839.00	  724.86	-1650.86	  407.97
     81.5700	  774.00	  714.46	-1705.46	  407.99
     81.6700	  714.00	  700.48	-1751.48	  408.01
     81.7700	  718.00	  683.87	-1730.87	  408.03
     81.8700	  716.00	  665.66	-1714.66	  408.05
     81.9700	  713.00	  647.08	-1699.08	  408.06
     82.0700	  738.00	  629.10	-1656.10	  408.07
     82.1700	  694.00	  612.54	-1683.54	  408.09
     82.2700	  604.00	  597.90	-1758.90	  408.10
     82.3700	  642.00	  585.44	-1708.44	  408.11
     82.4700	  597.00	  575.19	-1743.19	  408.12
     82.5700	  574.00	  567.13	-1758.13	  408.12
     82.6700	  531.00	  561.11	-1795.11	  408.13
     82.7700	  568.00	  556.94	-1753.94	  408.13
     82.8700	  589.00	  554.47	-1730.47	  408.14
     82.9700	  479.00	  553.53	-1839.53	  408.14
     83.0700	  581.00	  554.02	-1738.02	  408.14
     83.1700	  541.00	  555.81	-1779.81	  408.14
     83.2700	  576.00	  558.79	-1747.79	  408.13
     83.3700	  551.00	  562.79	-1776.79	  408.13
     83.4700	  562.00	  567.58	-1770.58	  408.13
     83.5700	  567.00	  572.84	-1770.84	  408.12
     83.6700	  566.00	  578.15	-1777.15	  408.11
     83.7700	  555.00	  582.99	-1792.99	  408.10
     83.8700	  555.00	  586.80	-1796.80	  408.09
     83.9700	  531.00	  589.04	-1823.04	  408.08
     84.0700	  580.00	  589.31	-1774.31	  408.07
     84.1700	  529.00	  587.55	-1823.55	  408.06
     84.2700	  561.00	  584.00	-1788.00	  408.04
     84.3700	  512.00	  579.14	-1832.14	  408.02
     84.4700	  548.00	  573.52	-1790.52	  408.00
     84.5700	  567.00	  567.65	-1765.65	  407.98
     84.6700	  564.00	  561.96	-1762.96	  407.96
     84.7700	  541.00	  556.75	-1780.75	  407.94
     84.8700	  520.00	  552.23	-1797.23	  407.92
     84.9700	  533.00	  548.49	-1780.49	  407.89
     85.0700	  520.00	  545.54	-1790.54	  407.87
     85.1700	  525.00	  543.33	-1783.33	  407.84
     85.2700	  487.00	  541.77	-1819.77	  407.81
     85.3700	  542.00	  540.75	-1763.75	  407.78
     85.4700	  533.00	  540.20	-1772.20	  407.75
     85.5700	  565.00	  540.01	-1740.01	  407.71
     85.6700	  513.00	  540.15	-1792.15	  407.68
     85.7700	  508.00	  540.58	-1797.58	  407.64
     85.8700	  492.00	  541.32	-1814.32	  407.60
     85.9700	  531.00	  542.40	-1776.40	  407.56
     86.0700	  562.00	  543.90	-1746.90	  407.52
     86.1700	  571.00	  545.93	-1739.93	  407.48
     86.2700	  539.00	  548.62	-1774.62	  407.44
     86.3700	  536.00	  552.13	-1781.13	  407.39
     86.4700	  541.00	  556.62	-1780.62	  407.35
     86.5700	  546.00	  562.21	-1781.21	  407.30
     86.6700	  626.00	  568.66	-1707.66	  407.25
     86.7700	  589.00	  576.52	-1752.52	  407.20
     86.8700	  607.00	  585.29	-1743.29	  407.15
     86.9700	  610.00	  594.57	-1749.57	  407.10
     87.0700	  631.00	  603.84	-1737.84	  407.04
     87.1700	  635.00	  612.38	-1742.38	  406.99
     87.2700	  640.00	  619.40	-1744.40	  406.93
     87.3700	  579.00	  624.12	-1810.12	  406.87
     87.4700	  608.00	  625.93	-1782.93	  406.81
     87.5700	  678.00	  624.59	-1711.59	  406.75
     87.6700	  624.00	  620.33	-1761.33	  406.69
     87.7700	  611.00	  613.79	-1767.79	  406.62
     87.8700	  637.00	  605.81	-1733.81	  406.55
     87.9700	  614.00	  597.27	-1748.27	  406.49
     88.0700	  622.00	  589.01	-1732.01	  406.42
     88.1700	  564.00	  581.72	-1782.72	  406.35
     88.2700	  600.00	  575.94	-1740.94	  406.28
     88.3700	  582.00	  572.03	-1755.03	  406.21
     88.4700	  566.00	  570.18	-1769.18	  406.13
     88.5700	  578.00	  570.37	-1757.37	  406.06
     88.6700	  627.00	  572.47	-1710.47	  405.98
     88.7700	  580.00	  576.18	-1761.18	  405.90
     88.8700	  595.00	  581.08	-1751.08	  405.82
     88.9700	  596.00	  586.68	-1755.68	  405.74
     89.0700	  631.00	  592.38	-1726.38	  405.66
     89.1700	  608.00	  597.56	-1754.56	  405.57
     89.2700	  621.00	  601.59	-1745.59	  405.49
     89.3700	  601.00	  603.91	-1767.91	  405.40
     89.4700	  582.00	  604.14	-1787.14	  405.31
     89.5700	  580.00	  602.21	-1787.21	  405.22
     89.6700	  594.00	  598.35	-1769.35	  405.13
     89.7700	  581.00	  592.99	-1776.99	  405.04
     89.8700	  588.00	  586.68	-1763.68	  404.95
     89.9700	  561.00	  579.92	-1783.92	  404.85
     90.0700	  530.00	  573.19	-1808.19	  404.75
     90.1700	  575.00	  566.83	-1756.83	  404.66
     90.2700	  522.00	  561.12	-1804.12	  404.56
     90.3700	  545.00	  556.20	-1776.20	  404.46
     90.4700	  548.00	  552.15	-1769.15	  404.35
     90.5700	  499.00	  548.95	-1814.95	  404.25
     90.6700	  497.00	  546.53	-1814.53	  404.15
     90.7700	  481.00	  544.82	-1828.82	  404.04
     90.8700	  536.00	  543.69	-1772.69	  403.93
     90.9700	  508.00	  543.07	-1800.07	  403.82
     91.0700	  527.00	  542.87	-1780.87	  403.71
     91.1700	  516.00	  543.06	-1792.06	  403.60
     91.2700	  479.00	  543.63	-1829.63	  403.49
     91.3700	  508.00	  544.61	-1801.61	  403.37
     91.4700	  512.00	  546.08	-1799.08	  403.26
     91.5700	  533.00	  548.16	-1780.16	  403.14
     91.6700	  520.00	  551.00	-1796.00	  403.02
     91.7700	  551.00	  554.79	-1768.79	  402.90
     91.8700	  554.00	  559.52	-1770.52	  402.78
     91.9700	  559.00	  565.82	-1771.82	  402.66
     92.0700	  546.00	  573.65	-1792.65	  402.53
     92.1700	  614.00	  583.14	-1734.14	  402.41
     92.2700	  561.00	  594.35	-1798.35	  402.28
     92.3700	  572.00	  607.23	-1800.23	  402.16
     92.4700	  655.00	  621.59	-1731.59	  402.03
     92.5700	  660.00	  637.15	-1742.15	  401.90
     92.6700	  648.00	  653.45	-1770.45	  401.76
     92.7700	  679.00	  669.93	-1755.93	  401.63
     92.8700	  664.00	  685.95	-1786.95	  401.50
     92.9700	  712.00	  700.82	-1753.82	  401.36
     93.0700	  767.00	  713.99	-1711.99	  401.22
     93.1700	  820.00	  725.17	-1670.17	  401.09
     93.2700	  830.00	  734.43	-1669.43	  400.95
     93.3700	  778.00	  742.23	-1729.23	  400.81
     93.4700	  846.00	  749.19	-1668.19	  400.66
     93.5700	  815.00	  756.03	-1706.03	  400.52
     93.6700	  848.00	  763.37	-1680.37	  400.38
     93.7700	  811.00	  771.78	-1725.78	  400.23
     93.8700	  850.00	  781.73	-1696.73	  400.08
     93.9700	  852.00	  793.64	-1706.64	  399.93
     94.0700	  864.00	  807.80	-1708.80	  399.79
     94.1700	  800.00	  824.28	-1789.28	  399.63
     94.2700	  906.00	  842.77	-1701.77	  399.48
     94.3700	  921.00	  862.52	-1706.52	  399.33
     94.4700	  933.00	  882.34	-1714.34	  399.18
     94.5700	  881.00	  900.62	-1784.62	  399.02
     94.6700	  917.00	  915.46	-1763.46	  398.86
     94.7700	  946.00	  924.92	-1743.92	  398.70
     94.8700	  918.00	  927.35	-1774.35	  398.55
     94.9700	  892.00	  921.81	-1794.81	  398.39
     95.0700	  913.00	  908.36	-1760.36	  398.22
     95.1700	  886.00	  888.05	-1767.05	  398.06
     95.2700	  866.00	  862.61	-1761.61	  397.90
     95.3700	  806.00	  834.07	-1793.07	  397.73
     95.4700	  793.00	  804.56	-1776.56	  397.57
     95.5700	  788.00	  776.07	-1753.07	  397.40
     95.6700	  728.00	  750.44	-1787.44	  397.23
     95.7700	  737.00	  729.32	-1757.32	  397.06
     95.8700	  645.00	  714.18	-1834.18	  396.89
     95.9700	  741.00	  706.32	-1730.32	  396.72
     96.0700	  717.00	  706.83	-1754.83	  396.54
     96.1700	  702.00	  716.68	-1779.68	  396.37
     96.2700	  710.00	  736.60	-1791.60	  396.20
     96.3700	  748.00	  767.06	-1784.06	  396.02
     96.4700	  748.00	  808.22	-1825.22	  395.84
     96.5700	  887.00	  859.77	-1737.77	  395.66
     96.6700	  866.00	  920.88	-1819.88	  395.48
     96.7700	  935.00	  990.08	-1820.08	  395.30
     96.8700	 1092.00	 1065.16	-1738.16	  395.12
     96.9700	 1106.00	 1143.20	-1802.20	  394.94
     97.0700	 1180.00	 1220.59	-1805.59	  394.76
     97.1700	 1286.00	 1293.12	-1772.12	  394.57
     97.2700	 1292.00	 1356.23	-1829.23	  394.39
     97.3700	 1415.00	 1405.32	-1755.32	  394.20
     97.4700	 1423.00	 1436.43	-1778.43	  394.01
     97.5700	 1475.00	 1446.96	-1736.96	  393.82
     97.6700	 1466.00	 1436.28	-1735.28	  393.63
     97.7700	 1395.00	 1405.83	-1775.83	  393.44
     97.8700	 1386.00	 1358.70	-1737.70	  393.25
     97.9700	 1221.00	 1299.04	-1843.04	  393.06
     98.0700	 1278.00	 1231.30	-1718.30	  392.87
     98.1700	 1221.00	 1159.83	-1703.83	  392.67
     98.2700	 1123.00	 1088.64	-1730.64	  392.48
     98.3700	  993.00	 1021.23	-1793.23	  392.28
     98.4700	  875.00	  960.50	-1850.50	  392.09
     98.5700	  855.00	  908.78	-1818.78	  391.89
     98.6700	  792.00	  867.84	-1840.84	  391.69
     98.7700	  806.00	  838.99	-1797.99	  391.49
     98.8700	  775.00	  823.17	-1813.17	  391.29
     98.9700	  800.00	  821.01	-1786.01	  391.09
     99.0700	  814.00	  832.91	-1783.91	  390.89
     99.1700	  847.00	  859.06	-1777.06	  390.68
     99.2700	  904.00	  899.49	-1760.49	  390.48
     99.3700	  959.00	  954.01	-1760.01	  390.28
     99.4700	 1049.00	 1022.12	-1738.12	  390.07
     99.5700	 1120.00	 1102.96	-1747.96	  389.86
     99.6700	 1189.00	 1195.19	-1771.19	  389.66
     99.7700	 1316.00	 1296.87	-1745.87	  389.45
     99.8700	 1339.00	 1405.43	-1831.43	  389.24
     99.9700	 1573.00	 1517.53	-1709.53	  389.03
    100.0700	 1577.00	 1629.17	-1817.17	  388.82
    100.1700	 1747.00	 1735.87	-1753.87	  388.61
    100.2700	 1746.00	 1833.04	-1852.04	  388.40
    100.3700	 1908.00	 1916.54	-1773.54	  388.19
    100.4700	 2036.00	 1983.00	-1712.00	  387.98
    100.5700	 2114.00	 2030.11	-1681.11	  387.77
    100.6700	 2045.00	 2056.36	-1776.36	  387.55
    100.7700	 2145.00	 2060.86	-1680.86	  387.34
    100.8700	 2082.00	 2043.37	-1726.37	  387.13
    100.9700	 2075.00	 2004.48	-1694.48	  386.91
    101.0700	 2044.00	 1946.01	-1667.01	  386.69
    101.1700	 1865.00	 1871.16	-1771.16	  386.48
    101.2700	 1813.00	 1784.36	-1736.36	  386.26
    101.3700	 1675.00	 1690.67	-1780.67	  386.04
    101.4700	 1686.00	 1595.26	-1674.26	  385.83
    101.5700	 1527.00	 1502.77	-1740.77	  385.61
    101.6700	 1406.00	 1417.04	-1776.04	  385.39
    101.7700	 1382.00	 1340.85	-1723.85	  385.17
    101.8700	 1266.00	 1275.87	-1774.87	  384.95
    101.9700	 1256.00	 1222.70	-1731.70	  384.73
    102.0700	 1243.00	 1180.87	-1702.87	  384.51
    102.1700	 1166.00	 1149.04	-1748.04	  384.29
    102.2700	 1096.00	 1125.10	-1794.10	  384.07
    102.3700	 1078.00	 1106.41	-1793.41	  383.84
    102.4700	 1094.00	 1090.16	-1761.16	  383.62
    102.5700	 1023.00	 1073.59	-1815.59	  383.40
    102.6700	  993.00	 1054.47	-1826.47	  383.18
    102.7700	 1036.00	 1031.30	-1760.30	  382.95
    102.8700	  971.00	 1003.46	-1797.46	  382.73
    102.9700	  988.00	  971.14	-1748.14	  382.50
    103.0700	  939.00	  935.14	-1761.14	  382.28
    103.1700	  866.00	  896.60	-1795.60	  382.06
    103.2700	  866.00	  856.80	-1755.80	  381.83
    103.3700	  808.00	  817.02	-1774.02	  381.61
    103.4700	  778.00	  778.44	-1765.44	  381.38
    103.5700	  773.00	  742.04	-1734.04	  381.16
    103.6700	  675.00	  708.59	-1798.59	  380.93
    103.7700	  679.00	  678.63	-1764.63	  380.70
    103.8700	  646.00	  652.47	-1771.47	  380.48
    103.9700	  653.00	  630.19	-1742.19	  380.25
    104.0700	  611.00	  611.70	-1765.70	  380.03
    104.1700	  603.00	  596.75	-1758.75	  379.80
    104.2700	  594.00	  585.02	-1756.02	  379.58
    104.3700	  566.00	  576.12	-1775.12	  379.35
    104.4700	  573.00	  569.66	-1761.66	  379.12
    104.5700	  558.00	  565.23	-1772.23	  378.90
    104.6700	  550.00	  562.47	-1777.47	  378.67
    104.7700	  566.00	  561.05	-1760.05	  378.44
    104.8700	  545.00	  560.69	-1780.69	  378.22
    104.9700	  554.00	  561.14	-1772.14	  377.99
    105.0700	  614.00	  562.24	-1713.24	  377.77
    105.1700	  542.00	  563.82	-1786.82	  377.54
    105.2700	  543.00	  565.77	-1787.77	  377.31
    105.3700	  564.00	  568.04	-1769.04	  377.09
    105.4700	  521.00	  570.60	-1814.60	  376.86
    105.5700	  537.00	  573.49	-1801.49	  376.64
    105.6700	  570.00	  576.76	-1771.76	  376.41
    105.7700	  557.00	  580.51	-1788.51	  376.19
    105.8700	  589.00	  584.89	-1760.89	  375.96
    105.9700	  586.00	  590.00	-1769.00	  375.74
    106.0700	  576.00	  595.94	-1784.94	  375.51
    106.1700	  560.00	  602.78	-1807.78	  375.29
    106.2700	  553.00	  610.51	-1822.51	  375.07
    106.3700	  618.00	  619.05	-1766.05	  374.84
    106.4700	  605.00	  628.28	-1788.28	  374.62
    106.5700	  631.00	  637.96	-1771.96	  374.40
    106.6700	  673.00	  647.83	-1739.83	  374.18
    106.7700	  624.00	  657.54	-1798.54	  373.95
    106.8700	  646.00	  666.70	-1785.70	  373.73
    106.9700	  637.00	  674.93	-1802.93	  373.51
    107.0700	  637.00	  681.84	-1809.84	  373.29
    107.1700	  680.00	  687.15	-1772.15	  373.07
    107.2700	  715.00	  690.66	-1740.66	  372.85
    107.3700	  713.00	  692.39	-1744.39	  372.63
    107.4700	  649.00	  692.49	-1808.49	  372.42
    107.5700	  677.00	  691.28	-1779.28	  372.20
    107.6700	  674.00	  689.20	-1780.20	  371.98
    107.7700	  633.00	  686.68	-1818.68	  371.76
    107.8700	  692.00	  684.16	-1757.16	  371.55
    107.9700	  694.00	  682.00	-1753.00	  371.33
    108.0700	  695.00	  680.45	-1750.45	  371.12
    108.1700	  715.00	  679.69	-1729.69	  370.91
    108.2700	  677.00	  679.72	-1767.72	  370.69
    108.3700	  710.00	  680.48	-1735.48	  370.48
    108.4700	  671.00	  681.75	-1775.75	  370.27
    108.5700	  683.00	  683.22	-1765.22	  370.06
    108.6700	  685.00	  684.54	-1764.54	  369.85
    108.7700	  673.00	  685.28	-1777.28	  369.64
    108.8700	  657.00	  685.03	-1793.03	  369.43
    108.9700	  696.00	  683.46	-1752.46	  369.23
    109.0700	  726.00	  680.32	-1719.32	  369.02
    109.1700	  709.00	  675.52	-1731.52	  368.82
    109.2700	  679.00	  669.12	-1755.12	  368.61
    109.3700	  656.00	  661.29	-1770.29	  368.41
    109.4700	  679.00	  652.32	-1738.31	  368.21
    109.5700	  666.00	  642.52	-1741.52	  368.01
    109.6700	  627.00	  632.24	-1770.24	  367.81
    109.7700	  611.00	  621.83	-1775.83	  367.61
    109.8700	  584.00	  611.59	-1792.59	  367.41
    109.9700	  603.00	  601.80	-1763.80	  367.22
    110.0700	  581.00	  592.67	-1776.67	  367.02
    110.1700	  579.00	  584.38	-1770.38	  366.83
    110.2700	  530.00	  577.04	-1812.04	  366.63
    110.3700	  517.00	  570.72	-1818.72	  366.44
    110.4700	  531.00	  565.43	-1799.43	  366.25
    110.5700	  569.00	  561.15	-1757.15	  366.07
    110.6700	  543.00	  557.83	-1779.83	  365.88
    110.7700	  571.00	  555.38	-1749.38	  365.69
    110.8700	  517.00	  553.72	-1801.72	  365.51
    110.9700	  552.00	  552.76	-1765.76	  365.33
    111.0700	  584.00	  552.40	-1733.40	  365.14
    111.1700	  543.00	  552.56	-1774.56	  364.96
    111.2700	  564.00	  553.16	-1754.16	  364.79
    111.3700	  511.00	  554.13	-1808.13	  364.61
    111.4700	  532.00	  555.42	-1788.42	  364.43
    111.5700	  536.00	  556.98	-1785.98	  364.26
    111.6700	  536.00	  558.79	-1787.79	  364.09
    111.7700	  575.00	  560.82	-1750.82	  363.92
    111.8700	  543.00	  563.05	-1785.05	  363.75
    111.9700	  550.00	  565.50	-1780.50	  363.58
    112.0700	  627.00	  568.14	-1706.14	  363.42
    112.1700	  564.00	  571.01	-1772.01	  363.25
    112.2700	  571.00	  574.12	-1768.12	  363.09
    112.3700	  599.00	  577.50	-1743.50	  362.93
    112.4700	  604.00	  581.19	-1742.19	  362.77
    112.5700	  610.00	  585.23	-1740.23	  362.62
    112.6700	  592.00	  589.69	-1762.69	  362.46
    112.7700	  654.00	  594.66	-1705.66	  362.31
    112.8700	  632.00	  600.24	-1733.24	  362.16
    112.9700	  610.00	  606.58	-1761.58	  362.01
    113.0700	  672.00	  613.87	-1706.87	  361.87
    113.1700	  754.00	  622.36	-1633.36	  361.73
    113.2700	  744.00	  632.36	-1653.36	  361.58
    113.3700	  793.00	  644.26	-1616.26	  361.44
    113.4700	  758.00	  658.59	-1665.59	  361.31
    113.5700	  849.00	  675.97	-1591.97	  361.17
    113.6700	  903.00	  697.20	-1559.20	  361.04
    113.7700	  948.00	  723.25	-1540.25	  360.91
    113.8700	 1016.00	  755.26	-1504.26	  360.78
    113.9700	  965.00	  794.61	-1594.61	  360.65
    114.0700	 1027.00	  842.88	-1580.88	  360.53
    114.1700	 1050.00	  901.89	-1616.89	  360.41
    114.2700	 1163.00	  973.64	-1575.64	  360.29
    114.3700	 1233.00	 1060.32	-1592.32	  360.18
    114.4700	 1294.00	 1164.21	-1635.21	  360.06
    114.5700	 1419.00	 1287.69	-1633.69	  359.95
    114.6700	 1587.00	 1433.11	-1611.11	  359.84
    114.7700	 1809.00	 1602.61	-1558.61	  359.74
    114.8700	 1845.00	 1798.06	-1718.06	  359.63
    114.9700	 2125.00	 2020.86	-1660.86	  359.53
    115.0700	 2361.00	 2271.86	-1675.86	  359.43
    115.1700	 2670.00	 2551.16	-1646.16	  359.34
    115.2700	 2861.00	 2857.90	-1761.90	  359.25
    115.3700	 3001.00	 3190.19	-1954.19	  359.16
    115.4700	 3413.00	 3544.95	-1896.95	  359.07
    115.5700	 3729.00	 3917.99	-1953.99	  358.99
    115.6700	 4204.00	 4303.89	-1864.89	  358.91
    115.7700	 4426.00	 4695.89	-2034.89	  358.83
    115.8700	 4757.00	 5086.08	-2094.08	  358.75
    115.9700	 5241.00	 5465.38	-1989.38	  358.68
    116.0700	 5628.00	 5823.95	-1960.95	  358.61
    116.1700	 5951.00	 6151.21	-1965.21	  358.55
    116.2700	 6226.00	 6436.24	-1975.24	  358.49
    116.3700	 6597.00	 6668.50	-1836.50	  358.43
    116.4700	 6809.00	 6838.56	-1794.56	  358.37
    116.5700	 6855.00	 6939.05	-1849.05	  358.32
    116.6700	 7060.00	 6965.44	-1670.44	  358.27
    116.7700	 6859.00	 6916.67	-1822.67	  358.22
    116.8700	 6940.00	 6795.29	-1620.29	  358.18
    116.9700	 6709.00	 6607.16	-1663.16	  358.14
    117.0700	 6471.00	 6360.62	-1654.62	  358.10
    117.1700	 6120.00	 6065.55	-1710.55	  358.07
    117.2700	 5827.00	 5732.71	-1670.71	  358.04
    117.3700	 5369.00	 5372.83	-1768.83	  358.02
    117.4700	 4986.00	 4996.24	-1775.24	  358.00
    117.5700	 4615.00	 4612.32	-1762.32	  357.98
    117.6700	 4363.00	 4229.44	-1631.44	  357.96
    117.7700	 4032.00	 3854.90	-1587.90	  357.95
    117.8700	 3696.00	 3494.75	-1563.75	  357.95
    117.9700	 3219.00	 3153.82	-1699.82	  357.94
    118.0700	 2884.00	 2835.62	-1716.62	  357.94
    118.1700	 2583.00	 2542.53	-1724.53	  357.95
    118.2700	 2262.00	 2275.95	-1778.95	  357.96
    118.3700	 2039.00	 2036.32	-1762.32	  357.97
    118.4700	 1826.00	 1823.33	-1762.33	  357.99
    118.5700	 1482.00	 1635.93	-1918.93	  358.01
    118.6700	 1375.00	 1472.62	-1862.62	  358.03
    118.7700	 1276.00	 1331.61	-1820.61	  358.06
    118.8700	 1115.00	 1210.84	-1860.84	  358.09
    118.9700	  986.00	 1108.16	-1887.16	  358.13
    119.0700	  994.00	 1021.41	-1792.41	  358.17
    119.1700	  893.00	  948.49	-1820.49	  358.22
    119.2700	  834.00	  887.47	-1818.47	  358.27
    119.3700	  738.00	  836.57	-1863.57	  358.32
    119.4700	  736.00	  794.20	-1823.20	  358.38
    119.5700	  666.00	  758.96	-1857.96	  358.44
    119.6700	  622.00	  729.66	-1872.66	  358.51
    119.7700	  670.00	  705.27	-1800.27	  358.58
    119.8700	  617.00	  684.95	-1832.95	  358.66
    119.9700	  595.00	  668.00	-1838.00	  358.74
    120.0700	  586.00	  653.84	-1832.84	  358.83
    120.1700	  604.00	  641.99	-1802.99	  358.92
    120.2700	  554.00	  632.08	-1843.08	  359.01
    120.3700	  605.00	  623.81	-1783.81	  359.11
    120.4700	  568.00	  616.95	-1813.95	  359.22
    120.5700	  558.00	  611.29	-1818.29	  359.33
    120.6700	  585.00	  606.69	-1786.69	  359.44
    120.7700	  577.00	  603.04	-1791.04	  359.56
    120.8700	  592.00	  600.24	-1773.24	  359.69
    120.9700	  570.00	  598.22	-1793.22	  359.82
    121.0700	  568.00	  596.93	-1793.93	  359.95
    121.1700	  574.00	  596.30	-1787.30	  360.09
    121.2700	  582.00	  596.31	-1779.31	  360.24
    121.3700	  569.00	  596.90	-1792.90	  360.39
    121.4700	  569.00	  598.03	-1794.03	  360.54
    121.5700	  569.00	  599.65	-1795.65	  360.71
    121.6700	  623.00	  601.69	-1743.69	  360.87
    121.7700	  578.00	  604.10	-1791.10	  361.05
    121.8700	  621.00	  606.81	-1750.81	  361.22
    121.9700	  615.00	  609.75	-1759.75	  361.41
    122.0700	  603.00	  612.82	-1774.82	  361.59
    122.1700	  677.00	  615.92	-1703.92	  361.79
    122.2700	  605.00	  618.95	-1778.95	  361.99
    122.3700	  618.00	  621.83	-1768.83	  362.20
    122.4700	  625.00	  624.44	-1764.44	  362.41
    122.5700	  656.00	  626.67	-1735.67	  362.62
    122.6700	  649.00	  628.45	-1744.45	  362.85
    122.7700	  632.00	  629.69	-1762.69	  363.08
    122.8700	  686.00	  630.34	-1709.34	  363.31
    122.9700	  687.00	  630.38	-1708.38	  363.55
    123.0700	  671.00	  629.80	-1723.80	  363.80
    123.1700	  633.00	  628.63	-1760.63	  364.05
    123.2700	  620.00	  626.90	-1771.90	  364.31
    123.3700	  695.00	  624.69	-1694.69	  364.58
    123.4700	  613.00	  622.05	-1774.05	  364.85
    123.5700	  673.00	  619.07	-1711.07	  365.13
    123.6700	  589.00	  615.81	-1791.81	  365.41
    123.7700	  623.00	  612.36	-1754.36	  365.70
    123.8700	  622.00	  608.78	-1751.78	  366.00
    123.9700	  610.00	  605.15	-1760.15	  366.31
    124.0700	  592.00	  601.52	-1774.52	  366.62
    124.1700	  599.00	  597.94	-1763.94	  366.93
    124.2700	  575.00	  594.47	-1784.47	  367.26
    124.3700	  609.00	  591.13	-1747.13	  367.59
    124.4700	  645.00	  587.96	-1707.96	  367.93
    124.5700	  588.00	  584.98	-1761.98	  368.27
    124.6700	  582.00	  582.20	-1765.20	  368.62
    124.7700	  577.00	  579.63	-1767.63	  368.98
    124.8700	  599.00	  577.29	-1743.29	  369.34
    124.9700	  584.00	  489.03	-1670.03	  369.72
    125.0700	  604.00	  489.41	-1765.00	  370.09
    125.1700	  572.00	  489.79	-1765.00	  370.48
    125.2700	  583.00	  490.19	-1765.00	  370.87
    125.3700	  578.00	  490.59	-1765.00	  371.27
    125.4700	  596.00	  491.00	-1765.00	  371.68
    125.5700	  585.00	  491.41	-1765.00	  372.10
    125.6700	  588.00	  491.83	-1765.00	  372.52
    125.7700	  621.00	  492.26	-1765.00	  372.95
    125.8700	  568.00	  492.70	-1765.00	  373.39
    125.9700	  590.00	  493.15	-1765.00	  373.83
    126.0700	  513.00	  493.60	-1765.00	  374.29
    126.1700	  566.00	  494.06	-1765.00	  374.75
    126.2700	  555.00	  494.53	-1765.00	  375.22
    126.3700	  607.00	  495.01	-1765.00	  375.69
    126.4700	  607.00	  495.49	-1765.00	  376.18
    126.5700	  572.00	  495.98	-1765.00	  376.67
    126.6700	  647.00	  496.48	-1765.00	  377.17
    126.7700	  587.00	  496.99	-1765.00	  377.68
    126.8700	  627.00	  497.51	-1765.00	  378.19
    126.9700	  620.00	  498.03	-1765.00	  378.72
    127.0700	  617.00	  498.56	-1765.00	  379.25
    127.1700	  667.00	  499.10	-1765.00	  379.79
    127.2700	  677.00	  499.65	-1765.00	  380.34
    127.3700	  607.00	  500.21	-1765.00	  380.89
    127.4700	  654.00	  500.77	-1765.00	  381.46
    127.5700	  701.00	  501.35	-1765.00	  382.03
    127.6700	  680.00	  501.93	-1765.00	  382.62
    127.7700	  737.00	  502.52	-1765.00	  383.21
    127.8700	  718.00	  503.12	-1765.00	  383.81
    127.9700	  767.00	  503.73	-1765.00	  384.42
    128.0700	  730.00	  504.35	-1765.00	  385.04
    128.1700	  753.00	  504.98	-1765.00	  385.66
    128.2700	  746.00	  505.61	-1765.00	  386.30
    128.3700	  764.00	  506.26	-1765.00	  386.94
    128.4700	  819.00	  506.91	-1765.00	  387.59
    128.5700	    0.00	  507.57	-1765.00	  388.26
    128.6700	    0.00	  508.24	-1765.00	  388.93
     12.3031	        	        	        	        	       0	(  0  0  2)	  0  1
     24.8856	        	        	        	        	       0	(  0  0  4)	  0  1
     28.3287	        	        	        	        	       0	(  1  0  0)	  0  1
     29.0258	        	        	        	        	       0	(  1  0  1)	  0  1
     31.0318	        	        	        	        	       0	(  1  0  2)	  0  1
     34.1399	        	        	        	        	       0	(  1  0  3)	  0  1
     37.7840	        	        	        	        	       0	(  0  0  6)	  0  1
     38.1166	        	        	        	        	       0	(  1  0  4)	  0  1
     42.7663	        	        	        	        	       0	(  1  0  5)	  0  1
     47.9498	        	        	        	        	       0	(  1  0  6)	  0  1
     50.2656	        	        	        	        	       0	(  1  1  0)	  0  1
     51.2045	        	        	        	        	       0	(  0  0  8)	  0  1
     51.9885	        	        	        	        	       0	(  1  1  2)	  0  1
     53.5797	        	        	        	        	       0	(  1  0  7)	  0  1
     56.9358	        	        	        	        	       0	(  1  1  4)	  0  1
     58.7626	        	        	        	        	       0	(  2  0  0)	  0  1
     59.1542	        	        	        	        	       0	(  2  0  1)	  0  1
     59.6095	        	        	        	        	       0	(  1  0  8)	  0  1
     60.3194	        	        	        	        	       0	(  2  0  2)	  0  1
     62.2324	        	        	        	        	       0	(  2  0  3)	  0  1
     64.6296	        	        	        	        	       0	(  1  1  6)	  0  1
     64.8562	        	        	        	        	       0	(  2  0  4)	  0  1
     65.4321	        	        	        	        	       0	(  0  0 10)	  0  1
     66.0250	        	        	        	        	       0	(  1  0  9)	  0  1
     68.1500	        	        	        	        	       0	(  2  0  5)	  0  1
     72.0771	        	        	        	        	       0	(  2  0  6)	  0  1
     72.8403	        	        	        	        	       0	(  1  0 10)	  0  1
     74.6661	        	        	        	        	       0	(  1  1  8)	  0  1
     76.6106	        	        	        	        	       0	(  2  0  7)	  0  1
     80.0970	        	        	        	        	       0	(  1  0 11)	  0  1
     80.9104	        	        	        	        	       0	(  0  0 12)	  0  1
     81.0039	        	        	        	        	       0	(  2  1  0)	  0  1
     81.3437	        	        	        	        	       0	(  2  1  1)	  0  1
     81.7402	        	        	        	        	       0	(  2  0  8)	  0  1
     82.3614	        	        	        	        	       0	(  2  1  2)	  0  1
     84.0525	        	        	        	        	       0	(  2  1  3)	  0  1
     86.4118	        	        	        	        	       0	(  2  1  4)	  0  1
     86.9358	        	        	        	        	       0	(  1  1 10)	  0  1
     87.4774	        	        	        	        	       0	(  2  0  9)	  0  1
     87.8701	        	        	        	        	       0	(  1  0 12)	  0  1
     89.4372	        	        	        	        	       0	(  2  1  5)	  0  1
     93.1341	        	        	        	        	       0	(  2  1  6)	  0  1
     93.8639	        	        	        	        	       0	(  2  0 10)	  0  1
     94.8928	        	        	        	        	       0	(  3  0  0)	  0  1
     95.2301	        	        	        	        	       0	(  3  0  1)	  0  1
     96.2431	        	        	        	        	       0	(  3  0  2)	  0  1
     96.2819	        	        	        	        	       0	(  1  0 13)	  0  1
     97.5221	        	        	        	        	       0	(  2  1  7)	  0  1
     97.9362	        	        	        	        	       0	(  3  0  3)	  0  1
     98.4468	        	        	        	        	       0	(  0  0 14)	  0  1
    100.3189	        	        	        	        	       0	(  3  0  4)	  0  1
    100.9845	        	        	        	        	       0	(  2  0 11)	  0  1
    101.8037	        	        	        	        	       0	(  1  1 12)	  0  1
    102.6437	        	        	        	        	       0	(  2  1  8)	  0  1
    103.4100	        	        	        	        	       0	(  3  0  5)	  0  1
    105.5327	        	        	        	        	       0	(  1  0 14)	  0  1
    107.2446	        	        	        	        	       0	(  3  0  6)	  0  1
    108.5795	        	        	        	        	       0	(  2  1  9)	  0  1
    108.9943	        	        	        	        	       0	(  2  0 12)	  0  1
    111.8841	        	        	        	        	       0	(  3  0  7)	  0  1
    115.4751	        	        	        	        	       0	(  2  1 10)	  0  1
    115.9738	        	        	        	        	       0	(  1  0 15)	  0  1
    116.6181	        	        	        	        	       0	(  2  2  0)	  0  1
    117.4366	        	        	        	        	       0	(  3  0  8)	  0  1
    118.1330	        	        	        	        	       0	(  2  2  2)	  0  1
    118.1767	        	        	        	        	       0	(  2  0 13)	  0  1
    119.9303	        	        	        	        	       0	(  0  0 16)	  0  1
    120.6439	        	        	        	        	       0	(  1  1 14)	  0  1
    122.8178	        	        	        	        	       0	(  2  2  4)	  0  1
    123.6005	        	        	        	        	       0	(  2  1 11)	  0  1
    124.0953	        	        	        	        	       0	(  3  0  9)	  0  1
    124.6835	        	        	        	        	       0	(  3  1  0)	  0  1
    125.0937	        	        	        	        	       0	(  3  1  1)	  0  1
    126.3369	        	        	        	        	       0	(  3  1  2)	  0  1
    128.3140	        	        	        	        	       0	(  1  0 16)	  0  1
    128.4549	        	        	        	        	       0	(  3  1  3)	  0  1
    129.1041	        	        	        	        	       0	(  2  0 14)	  0  1
    131.2564	        	        	        	        	       0	(  2  2  6)	  0  1
    131.5304	        	        	        	        	       0	(  3  1  4)	  0  1
    132.2345	        	        	        	        	       0	(  3  0 10)	  0  1
    133.5108	        	        	        	        	       0	(  2  1 12)	  0  1
    135.7169	        	        	        	        	       0	(  3  1  5)	  0  1
    141.3115	        	        	        	        	       0	(  3  1  6)	  0  1
    142.7113	        	        	        	        	       0	(  3  0 11)	  0  1
    143.2410	        	        	        	        	       0	(  2  0 15)	  0  1
    144.4797	        	        	        	        	       0	(  1  0 17)	  0  1
    145.4885	        	        	        	        	       0	(  2  2  8)	  0  1
    146.6641	        	        	        	        	       0	(  2  1 13)	  0  1
    148.9840	        	        	        	        	       0	(  3  1  7)	  0  1
    149.5736	        	        	        	        	       0	(  1  1 16)	  0  1
    153.9742	        	        	        	        	       0	(  0  0 18)	  0  1
    158.5892	        	        	        	        	       0	(  3  0 12)	  0  1
    158.8450	        	        	        	        	       0	(  4  0  0)	  0  1
    159.8022	        	        	        	        	       0	(  4  0  1)	  0  1
    160.9787	        	        	        	        	       0	(  3  1  8)	  0  1
    162.9823	        	        	        	        	       0	(  4  0  2)	  0  1
    169.6929	        	        	        	        	       0	(  2  0 16)	  0  1
    170.3371	        	        	        	        	       0	(  4  0  3)	  0  1
    174.1422	        	        	        	        	       0	(  2  1 14)	  0  1
