MSG Master    CELL:    5.91588   5.91588  23.26407   90.0000   90.0000  120.0000   SPGR: P 63/m m c             TEMP:   1012.75
  1   1280     2.52000     0.00000    -0.12640     0.00000     0.00000    0
    99     0     2
       0.00000      10.00000
     125.00000     130.00000
 2Theta	Yobs	Ycal	Yobs-Ycal	Backg	Posr	(hkl)	K
      0.7700	    0.00	  487.48	-1730.00	  372.14
      0.8700	    0.00	  488.90	-1730.00	  373.55
      0.9700	   29.00	  490.30	-1730.00	  374.95
      1.0700	   38.00	  491.68	-1730.00	  376.33
      1.1700	   39.00	  493.05	-1730.00	  377.70
      1.2700	   46.00	  494.40	-1730.00	  379.05
      1.3700	   47.00	  495.73	-1730.00	  380.38
      1.4700	   85.00	  497.05	-1730.00	  381.70
      1.5700	  291.00	  498.35	-1730.00	  383.01
      1.6700	  442.00	  499.64	-1730.00	  384.29
      1.7700	  591.00	  500.91	-1730.00	  385.56
      1.8700	  616.00	  502.16	-1730.00	  386.82
      1.9700	  722.00	  503.40	-1730.00	  388.06
      2.0700	  794.00	  504.63	-1730.00	  389.28
      2.1700	  793.00	  505.84	-1730.00	  390.49
      2.2700	  813.00	  507.03	-1730.00	  391.69
      2.3700	  767.00	  508.21	-1730.00	  392.87
      2.4700	  704.00	  509.38	-1730.00	  394.04
      2.5700	  639.00	  510.53	-1730.00	  395.19
      2.6700	  691.00	  511.67	-1730.00	  396.32
      2.7700	  700.00	  512.79	-1730.00	  397.44
      2.8700	  599.00	  513.89	-1730.00	  398.55
      2.9700	  607.00	  514.99	-1730.00	  399.64
      3.0700	  616.00	  516.07	-1730.00	  400.72
      3.1700	  555.00	  517.13	-1730.00	  401.78
      3.2700	  674.00	  518.18	-1730.00	  402.83
      3.3700	  711.00	  519.22	-1730.00	  403.87
      3.4700	  774.00	  520.24	-1730.00	  404.89
      3.5700	  862.00	  521.25	-1730.00	  405.90
      3.6700	  886.00	  522.24	-1730.00	  406.90
      3.7700	  943.00	  523.22	-1730.00	  407.88
      3.8700	 1056.00	  524.19	-1730.00	  408.84
      3.9700	 1047.00	  525.14	-1730.00	  409.80
      4.0700	 1094.00	  526.08	-1730.00	  410.74
      4.1700	 1144.00	  527.01	-1730.00	  411.66
      4.2700	 1186.00	  527.92	-1730.00	  412.58
      4.3700	 1124.00	  528.82	-1730.00	  413.48
      4.4700	 1128.00	  529.71	-1730.00	  414.37
      4.5700	 1086.00	  530.59	-1730.00	  415.24
      4.6700	 1047.00	  531.45	-1730.00	  416.10
      4.7700	 1000.00	  532.30	-1730.00	  416.95
      4.8700	  990.00	  533.14	-1730.00	  417.79
      4.9700	  951.00	  533.96	-1730.00	  418.62
      5.0700	  976.00	  534.77	-1730.00	  419.43
      5.1700	  971.00	  535.57	-1730.00	  420.23
      5.2700	  950.00	  536.36	-1730.00	  421.01
      5.3700	  966.00	  537.13	-1730.00	  421.79
      5.4700	  932.00	  537.90	-1730.00	  422.55
      5.5700	  935.00	  538.65	-1730.00	  423.30
      5.6700	  825.00	  539.38	-1730.00	  424.04
      5.7700	  783.00	  540.11	-1730.00	  424.77
      5.8700	  883.00	  540.83	-1730.00	  425.48
      5.9700	  783.00	  541.53	-1730.00	  426.18
      6.0700	  841.00	  542.22	-1730.00	  426.88
      6.1700	  784.00	  542.90	-1730.00	  427.56
      6.2700	  791.00	  543.57	-1730.00	  428.22
      6.3700	  779.00	  544.23	-1730.00	  428.88
      6.4700	  795.00	  544.87	-1730.00	  429.53
      6.5700	  776.00	  545.51	-1730.00	  430.16
      6.6700	  693.00	  546.13	-1730.00	  430.79
      6.7700	  682.00	  546.74	-1730.00	  431.40
      6.8700	  741.00	  547.35	-1730.00	  432.00
      6.9700	  681.00	  547.94	-1730.00	  432.59
      7.0700	  716.00	  548.52	-1730.00	  433.17
      7.1700	  691.00	  549.08	-1730.00	  433.74
      7.2700	  703.00	  549.64	-1730.00	  434.30
      7.3700	  696.00	  550.19	-1730.00	  434.85
      7.4700	  691.00	  550.73	-1730.00	  435.38
      7.5700	  692.00	  551.26	-1730.00	  435.91
      7.6700	  627.00	  551.77	-1730.00	  436.43
      7.7700	  643.00	  552.28	-1730.00	  436.93
      7.8700	  610.00	  552.78	-1730.00	  437.43
      7.9700	  640.00	  553.26	-1730.00	  437.92
      8.0700	  654.00	  553.74	-1730.00	  438.39
      8.1700	  618.00	  554.20	-1730.00	  438.86
      8.2700	  594.00	  554.66	-1730.00	  439.32
      8.3700	  660.00	  555.11	-1730.00	  439.76
      8.4700	  643.00	  555.54	-1730.00	  440.20
      8.5700	  601.00	  555.97	-1730.00	  440.63
      8.6700	  611.00	  556.39	-1730.00	  441.04
      8.7700	  604.00	  556.80	-1730.00	  441.45
      8.8700	  648.00	  557.20	-1730.00	  441.85
      8.9700	  584.00	  557.58	-1730.00	  442.24
      9.0700	  608.00	  557.97	-1730.00	  442.62
      9.1700	  630.00	  558.34	-1730.00	  442.99
      9.2700	  639.00	  558.70	-1730.00	  443.35
      9.3700	  633.00	  559.05	-1730.00	  443.71
      9.4700	  575.00	  559.39	-1730.00	  444.05
      9.5700	  604.00	  559.73	-1730.00	  444.39
      9.6700	  587.00	  560.06	-1730.00	  444.71
      9.7700	  587.00	  560.37	-1730.00	  445.03
      9.8700	  602.00	  560.68	-1730.00	  445.34
      9.9700	  590.00	  560.98	-1730.00	  445.64
     10.0700	  579.00	  562.61	-1713.61	  445.93
     10.1700	  611.00	  563.04	-1682.04	  446.21
     10.2700	  582.00	  563.49	-1711.49	  446.49
     10.3700	  559.00	  564.00	-1735.00	  446.75
     10.4700	  589.00	  564.58	-1705.58	  447.01
     10.5700	  628.00	  565.30	-1667.30	  447.26
     10.6700	  553.00	  566.25	-1743.25	  447.50
     10.7700	  587.00	  567.53	-1710.53	  447.74
     10.8700	  577.00	  569.19	-1722.19	  447.96
     10.9700	  576.00	  571.27	-1725.27	  448.18
     11.0700	  597.00	  573.74	-1706.74	  448.39
     11.1700	  535.00	  576.60	-1771.60	  448.59
     11.2700	  597.00	  579.90	-1712.90	  448.79
     11.3700	  588.00	  583.73	-1725.73	  448.98
     11.4700	  609.00	  588.22	-1709.22	  449.15
     11.5700	  589.00	  593.60	-1734.60	  449.33
     11.6700	  571.00	  600.23	-1759.23	  449.49
     11.7700	  611.00	  608.63	-1727.63	  449.65
     11.8700	  648.00	  619.32	-1701.32	  449.80
     11.9700	  659.00	  632.15	-1703.15	  449.94
     12.0700	  680.00	  645.16	-1695.16	  450.08
     12.1700	  678.00	  653.55	-1705.55	  450.20
     12.2700	  653.00	  650.43	-1727.43	  450.33
     12.3700	  665.00	  633.67	-1698.67	  450.44
     12.4700	  603.00	  612.07	-1739.07	  450.55
     12.5700	  584.00	  594.48	-1740.48	  450.65
     12.6700	  591.00	  583.19	-1722.19	  450.74
     12.7700	  584.00	  576.93	-1722.93	  450.83
     12.8700	  598.00	  573.69	-1705.69	  450.91
     12.9700	  543.00	  571.94	-1758.94	  450.98
     13.0700	  550.00	  570.87	-1750.87	  451.05
     13.1700	  562.00	  570.15	-1738.15	  451.11
     13.2700	  552.00	  569.62	-1747.62	  451.17
     13.3700	  614.00	  569.22	-1685.22	  451.21
     13.4700	  548.00	  568.91	-1750.91	  451.26
     13.5700	  575.00	  568.66	-1723.66	  451.29
     13.6700	  535.00	  568.46	-1763.46	  451.32
     13.7700	  542.00	  568.30	-1756.30	  451.35
     13.8700	  566.00	  568.16	-1732.16	  451.36
     13.9700	  535.00	  568.04	-1763.04	  451.37
     14.0700	  538.00	  567.93	-1759.93	  451.38
     14.1700	  570.00	  567.83	-1727.83	  451.38
     14.2700	  594.00	  567.75	-1703.75	  451.37
     14.3700	  571.00	  567.66	-1726.66	  451.36
     14.4700	  530.00	  567.58	-1767.58	  451.34
     14.5700	  551.00	  567.50	-1746.50	  451.32
     14.6700	  527.00	  567.42	-1770.42	  451.29
     14.7700	  579.00	  567.38	-1718.38	  451.26
     14.8700	  531.00	  567.30	-1766.30	  451.22
     14.9700	  608.00	  567.22	-1689.22	  451.17
     15.0700	  533.00	  567.14	-1764.14	  451.12
     15.1700	  560.00	  567.05	-1737.05	  451.07
     15.2700	  546.00	  566.97	-1750.97	  451.01
     15.3700	  565.00	  566.88	-1731.88	  450.94
     15.4700	  549.00	  566.79	-1747.79	  450.87
     15.5700	  560.00	  566.69	-1736.69	  450.79
     15.6700	  585.00	  566.59	-1711.59	  450.71
     15.7700	  581.00	  566.49	-1715.49	  450.62
     15.8700	  510.00	  566.38	-1786.38	  450.53
     15.9700	  536.00	  566.28	-1760.28	  450.44
     16.0700	  556.00	  566.16	-1740.16	  450.34
     16.1700	  568.00	  566.05	-1728.05	  450.23
     16.2700	  592.00	  565.93	-1703.93	  450.12
     16.3700	  592.00	  565.80	-1703.80	  450.01
     16.4700	  609.00	  565.67	-1686.67	  449.89
     16.5700	  538.00	  565.54	-1757.54	  449.76
     16.6700	  565.00	  565.41	-1730.41	  449.64
     16.7700	  578.00	  565.27	-1717.27	  449.50
     16.8700	  543.00	  565.12	-1752.12	  449.37
     16.9700	  582.00	  564.98	-1712.98	  449.22
     17.0700	  577.00	  564.83	-1717.83	  449.08
     17.1700	  539.00	  564.67	-1755.67	  448.93
     17.2700	  571.00	  564.52	-1723.52	  448.78
     17.3700	  503.00	  564.35	-1791.35	  448.62
     17.4700	  577.00	  564.19	-1717.19	  448.46
     17.5700	  557.00	  564.02	-1737.02	  448.29
     17.6700	  579.00	  563.85	-1714.85	  448.12
     17.7700	  559.00	  563.67	-1734.67	  447.95
     17.8700	  560.00	  563.49	-1733.49	  447.77
     17.9700	  567.00	  563.31	-1726.31	  447.59
     18.0700	  522.00	  563.22	-1771.22	  447.40
     18.1700	  524.00	  563.04	-1769.04	  447.21
     18.2700	  561.00	  562.84	-1731.84	  447.02
     18.3700	  554.00	  562.65	-1738.65	  446.83
     18.4700	  553.00	  562.45	-1739.45	  446.63
     18.5700	  515.00	  562.25	-1777.25	  446.42
     18.6700	  560.00	  562.14	-1732.14	  446.22
     18.7700	  553.00	  561.93	-1738.93	  446.01
     18.8700	  586.00	  561.72	-1705.72	  445.79
     18.9700	  545.00	  561.51	-1746.51	  445.58
     19.0700	  550.00	  561.30	-1741.30	  445.36
     19.1700	  571.00	  561.08	-1720.08	  445.13
     19.2700	  537.00	  560.86	-1753.86	  444.91
     19.3700	  527.00	  560.64	-1763.64	  444.68
     19.4700	  537.00	  560.41	-1753.41	  444.44
     19.5700	  497.00	  560.18	-1793.18	  444.21
     19.6700	  585.00	  559.95	-1704.95	  443.97
     19.7700	  560.00	  559.72	-1729.72	  443.73
     19.8700	  572.00	  559.49	-1717.49	  443.49
     19.9700	  521.00	  559.25	-1768.25	  443.24
     20.0700	  566.00	  559.01	-1723.01	  442.99
     20.1700	  537.00	  558.77	-1751.77	  442.74
     20.2700	  599.00	  558.53	-1689.53	  442.48
     20.3700	  516.00	  558.32	-1772.32	  442.22
     20.4700	  557.00	  558.07	-1731.07	  441.96
     20.5700	  551.00	  557.82	-1736.82	  441.70
     20.6700	  544.00	  557.57	-1743.57	  441.43
     20.7700	  540.00	  557.32	-1747.32	  441.16
     20.8700	  588.00	  557.07	-1699.07	  440.89
     20.9700	  548.00	  556.81	-1738.81	  440.62
     21.0700	  574.00	  556.56	-1712.56	  440.34
     21.1700	  575.00	  556.30	-1711.30	  440.07
     21.2700	  505.00	  556.05	-1781.05	  439.78
     21.3700	  544.00	  555.79	-1741.79	  439.50
     21.4700	  594.00	  555.53	-1691.53	  439.22
     21.5700	  573.00	  555.28	-1712.28	  438.93
     21.6700	  532.00	  555.02	-1753.02	  438.64
     21.7700	  561.00	  554.76	-1723.76	  438.35
     21.8700	  542.00	  554.51	-1742.51	  438.06
     21.9700	  572.00	  554.21	-1712.21	  437.76
     22.0700	  566.00	  553.96	-1717.96	  437.46
     22.1700	  571.00	  553.71	-1712.71	  437.17
     22.2700	  569.00	  553.46	-1714.46	  436.86
     22.3700	  572.00	  553.22	-1711.22	  436.56
     22.4700	  539.00	  552.98	-1743.98	  436.26
     22.5700	  597.00	  552.75	-1685.75	  435.95
     22.6700	  555.00	  552.52	-1727.52	  435.64
     22.7700	  554.00	  552.30	-1728.30	  435.33
     22.8700	  554.00	  552.10	-1728.10	  435.02
     22.9700	  573.00	  552.05	-1709.05	  434.71
     23.0700	  530.00	  551.88	-1751.88	  434.39
     23.1700	  522.00	  551.73	-1759.73	  434.08
     23.2700	  593.00	  551.60	-1688.60	  433.76
     23.3700	  569.00	  551.52	-1712.52	  433.44
     23.4700	  551.00	  551.48	-1730.48	  433.12
     23.5700	  548.00	  551.51	-1733.51	  432.79
     23.6700	  562.00	  551.64	-1719.64	  432.47
     23.7700	  574.00	  551.92	-1707.93	  432.15
     23.8700	  575.00	  552.49	-1707.49	  431.82
     23.9700	  562.00	  553.55	-1721.55	  431.49
     24.0700	  529.00	  555.48	-1756.48	  431.16
     24.1700	  577.00	  558.82	-1711.82	  430.83
     24.2700	  581.00	  564.29	-1713.29	  430.50
     24.3700	  596.00	  572.55	-1706.55	  430.17
     24.4700	  628.00	  584.05	-1686.05	  429.84
     24.5700	  629.00	  598.31	-1699.31	  429.50
     24.6700	  618.00	  612.94	-1724.94	  429.17
     24.7700	  601.00	  622.85	-1751.85	  428.83
     24.8700	  634.00	  621.35	-1717.35	  428.49
     24.9700	  584.00	  606.99	-1752.99	  428.15
     25.0700	  609.00	  587.84	-1708.84	  427.81
     25.1700	  564.00	  571.66	-1737.66	  427.47
     25.2700	  592.00	  560.80	-1698.80	  427.13
     25.3700	  565.00	  554.48	-1719.48	  426.79
     25.4700	  572.00	  551.05	-1709.05	  426.45
     25.5700	  543.00	  549.12	-1736.12	  426.11
     25.6700	  543.00	  547.91	-1734.91	  425.76
     25.7700	  597.00	  547.06	-1680.06	  425.42
     25.8700	  646.00	  546.43	-1630.43	  425.07
     25.9700	  548.00	  545.95	-1727.95	  424.73
     26.0700	  551.00	  545.58	-1724.58	  424.38
     26.1700	  535.00	  545.30	-1740.30	  424.03
     26.2700	  558.00	  545.12	-1717.12	  423.68
     26.3700	  539.00	  545.03	-1736.03	  423.34
     26.4700	  574.00	  545.03	-1701.03	  422.99
     26.5700	  504.00	  545.13	-1771.13	  422.64
     26.6700	  553.00	  545.35	-1722.35	  422.29
     26.7700	  544.00	  545.71	-1731.71	  421.94
     26.8700	  530.00	  546.23	-1746.23	  421.59
     26.9700	  551.00	  546.98	-1725.98	  421.24
     27.0700	  552.00	  548.02	-1726.02	  420.89
     27.1700	  564.00	  549.47	-1715.47	  420.54
     27.2700	  602.00	  551.55	-1679.55	  420.18
     27.3700	  549.00	  554.72	-1735.72	  419.83
     27.4700	  605.00	  559.87	-1684.87	  419.48
     27.5700	  551.00	  568.60	-1747.60	  419.13
     27.6700	  584.00	  583.54	-1729.54	  418.78
     27.7700	  595.00	  608.22	-1743.22	  418.43
     27.8700	  595.00	  645.99	-1780.99	  418.07
     27.9700	  652.00	  697.71	-1775.71	  417.72
     28.0700	  759.00	  758.52	-1729.52	  417.37
     28.1700	  897.00	  814.70	-1647.70	  417.02
     28.2700	  953.00	  843.99	-1620.99	  416.66
     28.3700	  890.00	  829.28	-1669.28	  416.31
     28.4700	  838.00	  786.44	-1678.44	  415.96
     28.5700	  774.00	  751.78	-1707.78	  415.61
     28.6700	  708.00	  744.94	-1766.94	  415.26
     28.7700	  745.00	  763.92	-1748.92	  414.91
     28.8700	  794.00	  791.26	-1727.26	  414.55
     28.9700	  825.00	  800.51	-1705.51	  414.20
     29.0700	  757.00	  771.37	-1744.37	  413.85
     29.1700	  700.00	  713.21	-1743.21	  413.50
     29.2700	  667.00	  653.46	-1716.46	  413.15
     29.3700	  609.00	  607.93	-1728.93	  412.80
     29.4700	  550.00	  578.92	-1758.92	  412.45
     29.5700	  577.00	  562.51	-1715.51	  412.10
     29.6700	  577.00	  553.63	-1706.63	  411.75
     29.7700	  575.00	  548.62	-1703.62	  411.40
     29.8700	  579.00	  545.55	-1696.55	  411.05
     29.9700	  581.00	  543.61	-1692.61	  410.71
     30.0700	  562.00	  542.60	-1710.60	  410.36
     30.1700	  537.00	  542.53	-1735.53	  410.01
     30.2700	  563.00	  543.87	-1710.87	  409.67
     30.3700	  547.00	  547.48	-1730.48	  409.32
     30.4700	  602.00	  554.62	-1682.62	  408.98
     30.5700	  571.00	  566.62	-1725.62	  408.63
     30.6700	  564.00	  583.83	-1749.83	  408.29
     30.7700	  558.00	  604.34	-1776.34	  407.94
     30.8700	  605.00	  622.97	-1747.97	  407.60
     30.9700	  636.00	  631.48	-1725.48	  407.26
     31.0700	  590.00	  623.00	-1763.00	  406.92
     31.1700	  625.00	  601.12	-1706.12	  406.58
     31.2700	  562.00	  577.01	-1745.01	  406.23
     31.3700	  542.00	  557.81	-1745.81	  405.90
     31.4700	  548.00	  545.13	-1727.13	  405.56
     31.5700	  544.00	  537.76	-1723.76	  405.22
     31.6700	  534.00	  533.73	-1729.73	  404.88
     31.7700	  524.00	  531.47	-1737.47	  404.55
     31.8700	  569.00	  530.08	-1691.08	  404.21
     31.9700	  510.00	  529.15	-1749.15	  403.88
     32.0700	  540.00	  528.51	-1718.51	  403.54
     32.1700	  550.00	  528.08	-1708.08	  403.21
     32.2700	  518.00	  527.84	-1739.84	  402.88
     32.3700	  519.00	  527.79	-1738.79	  402.55
     32.4700	  539.00	  527.91	-1718.91	  402.22
     32.5700	  536.00	  528.25	-1722.25	  401.89
     32.6700	  537.00	  528.82	-1721.82	  401.56
     32.7700	  542.00	  529.68	-1717.68	  401.23
     32.8700	  554.00	  530.93	-1706.93	  400.91
     32.9700	  546.00	  532.68	-1716.68	  400.58
     33.0700	  514.00	  535.21	-1751.21	  400.26
     33.1700	  591.00	  539.02	-1678.02	  399.93
     33.2700	  603.00	  545.22	-1672.22	  399.61
     33.3700	  535.00	  555.99	-1750.99	  399.29
     33.4700	  586.00	  575.26	-1719.26	  398.97
     33.5700	  606.00	  608.84	-1732.84	  398.65
     33.6700	  646.00	  663.07	-1747.07	  398.34
     33.7700	  683.00	  740.52	-1787.52	  398.02
     33.8700	  810.00	  833.86	-1753.86	  397.70
     33.9700	 1002.00	  921.46	-1649.46	  397.39
     34.0700	 1045.00	  968.57	-1653.57	  397.08
     34.1700	  990.00	  944.55	-1684.55	  396.77
     34.2700	  901.00	  858.75	-1687.75	  396.46
     34.3700	  823.00	  755.48	-1662.48	  396.15
     34.4700	  653.00	  668.13	-1745.13	  395.84
     34.5700	  585.00	  607.45	-1752.45	  395.53
     34.6700	  561.00	  570.73	-1739.73	  395.23
     34.7700	  557.00	  550.34	-1723.34	  394.92
     34.8700	  564.00	  539.13	-1705.13	  394.62
     34.9700	  562.00	  532.46	-1700.46	  394.32
     35.0700	  545.00	  528.03	-1713.03	  394.02
     35.1700	  489.00	  524.77	-1765.77	  393.72
     35.2700	  549.00	  522.22	-1703.22	  393.43
     35.3700	  542.00	  520.15	-1708.15	  393.13
     35.4700	  529.00	  518.45	-1719.45	  392.84
     35.5700	  513.00	  517.01	-1734.01	  392.54
     35.6700	  516.00	  515.77	-1729.77	  392.25
     35.7700	  510.00	  514.70	-1734.70	  391.96
     35.8700	  509.00	  513.76	-1734.76	  391.67
     35.9700	  473.00	  512.93	-1769.93	  391.39
     36.0700	  532.00	  512.64	-1710.64	  391.10
     36.1700	  527.00	  511.97	-1714.97	  390.82
     36.2700	  470.00	  511.37	-1771.37	  390.53
     36.3700	  502.00	  510.83	-1738.83	  390.25
     36.4700	  510.00	  510.34	-1730.34	  389.97
     36.5700	  522.00	  509.91	-1717.91	  389.69
     36.6700	  498.00	  509.53	-1741.53	  389.42
     36.7700	  514.00	  509.22	-1725.22	  389.14
     36.8700	  509.00	  509.00	-1730.00	  388.87
     36.9700	  514.00	  508.94	-1724.94	  388.60
     37.0700	  510.00	  509.18	-1729.18	  388.33
     37.1700	  471.00	  509.89	-1768.89	  388.06
     37.2700	  506.00	  511.34	-1735.34	  387.79
     37.3700	  550.00	  513.69	-1693.69	  387.53
     37.4700	  474.00	  516.86	-1772.86	  387.26
     37.5700	  517.00	  520.31	-1733.31	  387.00
     37.6700	  503.00	  522.92	-1749.92	  386.74
     37.7700	  543.00	  523.40	-1710.40	  386.48
     37.8700	  532.00	  521.32	-1719.32	  386.22
     37.9700	  499.00	  517.72	-1748.72	  385.97
     38.0700	  537.00	  513.92	-1706.92	  385.71
     38.1700	  513.00	  510.58	-1727.58	  385.46
     38.2700	  513.00	  507.95	-1724.95	  385.21
     38.3700	  533.00	  506.05	-1703.05	  384.96
     38.4700	  485.00	  504.90	-1749.90	  384.71
     38.5700	  508.00	  504.00	-1726.00	  384.47
     38.6700	  564.00	  503.35	-1669.35	  384.22
     38.7700	  507.00	  502.76	-1725.76	  383.98
     38.8700	  506.00	  502.36	-1726.36	  383.74
     38.9700	  491.00	  502.02	-1741.02	  383.50
     39.0700	  469.00	  501.71	-1762.71	  383.27
     39.1700	  501.00	  501.42	-1730.42	  383.03
     39.2700	  532.00	  501.15	-1699.15	  382.80
     39.3700	  477.00	  500.90	-1753.90	  382.57
     39.4700	  503.00	  500.66	-1727.66	  382.34
     39.5700	  455.00	  500.35	-1775.35	  382.11
     39.6700	  537.00	  500.14	-1693.14	  381.88
     39.7700	  486.00	  499.94	-1743.94	  381.66
     39.8700	  504.00	  499.75	-1725.75	  381.44
     39.9700	  499.00	  499.57	-1730.57	  381.22
     40.0700	  481.00	  499.41	-1748.41	  381.00
     40.1700	  498.00	  499.26	-1731.26	  380.78
     40.2700	  480.00	  499.12	-1749.12	  380.56
     40.3700	  492.00	  498.99	-1736.99	  380.35
     40.4700	  468.00	  498.88	-1760.88	  380.14
     40.5700	  476.00	  498.80	-1752.80	  379.93
     40.6700	  488.00	  498.73	-1740.73	  379.72
     40.7700	  464.00	  498.68	-1764.68	  379.52
     40.8700	  490.00	  498.67	-1738.67	  379.31
     40.9700	  467.00	  499.17	-1762.17	  379.11
     41.0700	  502.00	  499.23	-1727.23	  378.91
     41.1700	  487.00	  499.35	-1742.35	  378.71
     41.2700	  470.00	  499.53	-1759.53	  378.51
     41.3700	  501.00	  499.79	-1728.79	  378.32
     41.4700	  516.00	  500.16	-1714.16	  378.13
     41.5700	  493.00	  500.67	-1737.67	  377.93
     41.6700	  503.00	  501.41	-1728.41	  377.75
     41.7700	  501.00	  502.53	-1731.53	  377.56
     41.8700	  480.00	  504.32	-1754.32	  377.37
     41.9700	  488.00	  507.51	-1749.51	  377.19
     42.0700	  509.00	  513.17	-1734.17	  377.01
     42.1700	  535.00	  522.89	-1717.89	  376.83
     42.2700	  508.00	  538.39	-1760.39	  376.65
     42.3700	  584.00	  560.58	-1706.58	  376.47
     42.4700	  569.00	  587.99	-1748.99	  376.30
     42.5700	  617.00	  615.75	-1728.75	  376.13
     42.6700	  550.00	  635.35	-1815.35	  375.96
     42.7700	  590.00	  637.54	-1777.54	  375.79
     42.8700	  606.00	  620.57	-1744.57	  375.62
     42.9700	  610.00	  592.61	-1712.61	  375.46
     43.0700	  531.00	  563.84	-1762.84	  375.30
     43.1700	  536.00	  540.15	-1734.15	  375.14
     43.2700	  524.00	  523.33	-1729.33	  374.98
     43.3700	  499.00	  512.67	-1743.67	  374.82
     43.4700	  521.00	  506.63	-1715.63	  374.67
     43.5700	  532.00	  503.07	-1701.07	  374.51
     43.6700	  509.00	  500.98	-1721.98	  374.36
     43.7700	  496.00	  499.63	-1733.63	  374.22
     43.8700	  468.00	  498.67	-1760.67	  374.07
     43.9700	  493.00	  497.94	-1734.94	  373.92
     44.0700	  494.00	  497.37	-1733.37	  373.78
     44.1700	  471.00	  496.90	-1755.90	  373.64
     44.2700	  517.00	  496.53	-1709.53	  373.50
     44.3700	  504.00	  496.22	-1722.22	  373.36
     44.4700	  487.00	  495.97	-1738.97	  373.23
     44.5700	  491.00	  495.77	-1734.77	  373.09
     44.6700	  507.00	  495.61	-1718.61	  372.96
     44.7700	  500.00	  495.68	-1725.68	  372.83
     44.8700	  478.00	  495.59	-1747.59	  372.71
     44.9700	  500.00	  495.53	-1725.53	  372.58
     45.0700	  498.00	  495.50	-1727.50	  372.46
     45.1700	  518.00	  495.49	-1707.49	  372.34
     45.2700	  535.00	  495.51	-1690.51	  372.22
     45.3700	  541.00	  495.42	-1684.42	  372.10
     45.4700	  506.00	  495.49	-1719.49	  371.98
     45.5700	  493.00	  495.60	-1732.60	  371.87
     45.6700	  486.00	  495.73	-1739.73	  371.76
     45.7700	  525.00	  495.93	-1700.93	  371.65
     45.8700	  508.00	  496.13	-1718.13	  371.54
     45.9700	  506.00	  496.35	-1720.35	  371.43
     46.0700	  439.00	  496.62	-1787.62	  371.33
     46.1700	  506.00	  496.94	-1720.94	  371.22
     46.2700	  500.00	  497.30	-1727.30	  371.12
     46.3700	  507.00	  497.72	-1720.72	  371.03
     46.4700	  492.00	  498.27	-1736.27	  370.93
     46.5700	  514.00	  498.84	-1714.84	  370.83
     46.6700	  484.00	  499.55	-1745.55	  370.74
     46.7700	  496.00	  500.37	-1734.37	  370.65
     46.8700	  465.00	  501.40	-1766.40	  370.56
     46.9700	  490.00	  502.79	-1742.79	  370.47
     47.0700	  520.00	  504.80	-1714.80	  370.39
     47.1700	  516.00	  507.92	-1721.92	  370.31
     47.2700	  525.00	  512.86	-1717.86	  370.22
     47.3700	  520.00	  520.52	-1730.52	  370.15
     47.4700	  543.00	  531.62	-1718.62	  370.07
     47.5700	  553.00	  546.28	-1723.28	  369.99
     47.6700	  560.00	  563.31	-1733.31	  369.92
     47.7700	  598.00	  579.79	-1711.79	  369.85
     47.8700	  547.00	  591.12	-1774.12	  369.78
     47.9700	  611.00	  593.01	-1712.01	  369.71
     48.0700	  628.00	  585.08	-1687.08	  369.64
     48.1700	  534.00	  571.56	-1767.56	  369.58
     48.2700	  549.00	  557.41	-1738.41	  369.52
     48.3700	  514.00	  545.85	-1761.85	  369.45
     48.4700	  542.00	  538.19	-1726.19	  369.40
     48.5700	  528.00	  534.46	-1736.46	  369.34
     48.6700	  555.00	  534.06	-1709.06	  369.28
     48.7700	  509.00	  536.26	-1757.26	  369.23
     48.8700	  527.00	  540.91	-1743.91	  369.18
     48.9700	  548.00	  547.17	-1729.17	  369.13
     49.0700	  544.00	  555.79	-1741.79	  369.08
     49.1700	  544.00	  568.00	-1754.00	  369.04
     49.2700	  578.00	  586.47	-1738.47	  368.99
     49.3700	  614.00	  616.52	-1732.52	  368.95
     49.4700	  650.00	  667.52	-1747.52	  368.91
     49.5700	  693.00	  753.61	-1790.61	  368.87
     49.6700	  853.00	  892.26	-1769.26	  368.83
     49.7700	 1036.00	 1098.85	-1792.85	  368.80
     49.8700	 1343.00	 1377.34	-1764.34	  368.77
     49.9700	 1719.00	 1708.69	-1719.69	  368.73
     50.0700	 2063.00	 2040.93	-1707.93	  368.70
     50.1700	 2373.00	 2287.73	-1644.73	  368.68
     50.2700	 2372.00	 2356.05	-1714.05	  368.65
     50.3700	 2315.00	 2212.95	-1627.95	  368.63
     50.4700	 1976.00	 1921.24	-1675.24	  368.60
     50.5700	 1524.00	 1582.02	-1788.02	  368.58
     50.6700	 1124.00	 1271.48	-1877.48	  368.56
     50.7700	  959.00	 1027.71	-1798.71	  368.55
     50.8700	  742.00	  858.61	-1846.61	  368.53
     50.9700	  691.00	  753.01	-1792.01	  368.52
     51.0700	  624.00	  691.48	-1797.48	  368.50
     51.1700	  641.00	  654.78	-1743.78	  368.49
     51.2700	  638.00	  629.11	-1721.11	  368.48
     51.3700	  599.00	  607.78	-1738.78	  368.48
     51.4700	  631.00	  589.44	-1688.44	  368.47
     51.5700	  581.00	  573.74	-1722.74	  368.47
     51.6700	  577.00	  561.25	-1714.25	  368.47
     51.7700	  551.00	  551.96	-1730.96	  368.47
     51.8700	  524.00	  545.50	-1751.50	  368.47
     51.9700	  564.00	  541.35	-1707.35	  368.47
     52.0700	  560.00	  538.99	-1708.99	  368.47
     52.1700	  536.00	  538.04	-1732.04	  368.48
     52.2700	  559.00	  538.36	-1709.36	  368.49
     52.3700	  577.00	  540.03	-1693.03	  368.50
     52.4700	  587.00	  543.57	-1686.57	  368.51
     52.5700	  578.00	  550.07	-1702.07	  368.52
     52.6700	  563.00	  561.66	-1728.66	  368.54
     52.7700	  601.00	  581.79	-1710.79	  368.55
     52.8700	  607.00	  615.27	-1738.27	  368.57
     52.9700	  653.00	  667.55	-1744.55	  368.59
     53.0700	  829.00	  742.85	-1643.85	  368.61
     53.1700	  896.00	  841.41	-1675.41	  368.63
     53.2700	 1033.00	  956.37	-1653.37	  368.66
     53.3700	 1123.00	 1071.13	-1678.13	  368.68
     53.4700	 1187.00	 1158.82	-1701.82	  368.71
     53.5700	 1173.00	 1189.86	-1746.86	  368.74
     53.6700	 1086.00	 1151.04	-1795.04	  368.77
     53.7700	  980.00	 1058.09	-1808.09	  368.80
     53.8700	  958.00	  941.82	-1713.82	  368.83
     53.9700	  805.00	  828.42	-1753.42	  368.87
     54.0700	  725.00	  733.09	-1738.09	  368.90
     54.1700	  649.00	  661.51	-1742.51	  368.94
     54.2700	  595.00	  612.68	-1747.68	  368.98
     54.3700	  590.00	  582.03	-1722.03	  369.02
     54.4700	  591.00	  563.99	-1702.99	  369.06
     54.5700	  521.00	  553.92	-1762.92	  369.11
     54.6700	  563.00	  548.53	-1715.53	  369.15
     54.7700	  579.00	  545.87	-1696.87	  369.20
     54.8700	  576.00	  544.89	-1698.89	  369.24
     54.9700	  536.00	  545.11	-1739.11	  369.29
     55.0700	  571.00	  546.33	-1705.33	  369.34
     55.1700	  598.00	  548.48	-1680.48	  369.40
     55.2700	  573.00	  551.60	-1708.60	  369.45
     55.3700	  560.00	  555.82	-1725.82	  369.50
     55.4700	  582.00	  561.33	-1709.33	  369.56
     55.5700	  580.00	  568.53	-1718.53	  369.62
     55.6700	  611.00	  578.26	-1697.26	  369.68
     55.7700	  543.00	  592.08	-1779.08	  369.74
     55.8700	  576.00	  612.97	-1766.97	  369.80
     55.9700	  666.00	  646.35	-1710.35	  369.86
     56.0700	  647.00	  700.95	-1783.95	  369.92
     56.1700	  722.00	  789.22	-1797.22	  369.99
     56.2700	  850.00	  926.02	-1806.02	  370.06
     56.3700	 1078.00	 1124.80	-1776.80	  370.12
     56.4700	 1316.00	 1391.43	-1805.43	  370.19
     56.5700	 1688.00	 1716.44	-1758.44	  370.26
     56.6700	 2085.00	 2068.21	-1713.21	  370.34
     56.7700	 2276.00	 2388.39	-1842.39	  370.41
     56.8700	 2483.00	 2596.81	-1843.81	  370.48
     56.9700	 2596.00	 2622.82	-1756.82	  370.56
     57.0700	 2488.00	 2455.96	-1697.96	  370.64
     57.1700	 2094.00	 2156.39	-1792.39	  370.71
     57.2700	 1815.00	 1807.38	-1722.38	  370.79
     57.3700	 1495.00	 1474.37	-1709.37	  370.87
     57.4700	 1211.00	 1195.14	-1714.14	  370.95
     57.5700	 1055.00	  983.99	-1658.99	  371.04
     57.6700	  831.00	  838.34	-1737.34	  371.12
     57.7700	  759.00	  746.45	-1717.45	  371.21
     57.8700	  735.00	  694.37	-1689.37	  371.29
     57.9700	  680.00	  670.41	-1720.41	  371.38
     58.0700	  702.00	  667.11	-1695.11	  371.47
     58.1700	  744.00	  680.90	-1666.90	  371.56
     58.2700	  715.00	  710.84	-1725.84	  371.65
     58.3700	  805.00	  756.88	-1681.88	  371.74
     58.4700	  848.00	  818.26	-1700.26	  371.83
     58.5700	  903.00	  891.97	-1718.97	  371.92
     58.6700	 1060.00	  971.69	-1641.69	  372.02
     58.7700	 1134.00	 1048.72	-1644.72	  372.11
     58.8700	 1183.00	 1115.63	-1662.63	  372.21
     58.9700	 1316.00	 1168.33	-1582.33	  372.31
     59.0700	 1376.00	 1202.76	-1556.76	  372.41
     59.1700	 1368.00	 1213.78	-1575.78	  372.51
     59.2700	 1328.00	 1201.29	-1603.29	  372.61
     59.3700	 1312.00	 1174.40	-1592.40	  372.71
     59.4700	 1185.00	 1145.82	-1690.82	  372.81
     59.5700	 1220.00	 1125.26	-1635.26	  372.92
     59.6700	 1155.00	 1119.98	-1694.98	  373.02
     59.7700	 1146.00	 1137.65	-1721.65	  373.13
     59.8700	 1172.00	 1184.46	-1742.46	  373.23
     59.9700	 1314.00	 1259.48	-1675.48	  373.34
     60.0700	 1369.00	 1350.95	-1711.95	  373.45
     60.1700	 1487.00	 1435.72	-1678.72	  373.56
     60.2700	 1516.00	 1483.12	-1697.12	  373.67
     60.3700	 1511.00	 1467.58	-1686.58	  373.78
     60.4700	 1424.00	 1385.82	-1691.82	  373.89
     60.5700	 1249.00	 1258.44	-1739.44	  374.00
     60.6700	 1206.00	 1114.05	-1638.05	  374.11
     60.7700	 1016.00	  975.90	-1689.90	  374.23
     60.8700	  813.00	  858.54	-1775.54	  374.34
     60.9700	  726.00	  768.67	-1772.67	  374.46
     61.0700	  639.00	  707.18	-1798.18	  374.57
     61.1700	  630.00	  671.85	-1771.85	  374.69
     61.2700	  721.00	  659.91	-1668.91	  374.81
     61.3700	  666.00	  669.97	-1733.97	  374.93
     61.4700	  656.00	  702.74	-1776.74	  375.05
     61.5700	  739.00	  760.35	-1751.35	  375.17
     61.6700	  810.00	  844.59	-1764.59	  375.29
     61.7700	  945.00	  954.52	-1739.52	  375.41
     61.8700	 1074.00	 1083.97	-1739.97	  375.53
     61.9700	 1193.00	 1219.80	-1756.80	  375.65
     62.0700	 1344.00	 1340.76	-1726.76	  375.78
     62.1700	 1375.00	 1419.68	-1774.68	  375.90
     62.2700	 1274.00	 1433.02	-1889.02	  376.02
     62.3700	 1315.00	 1375.76	-1790.76	  376.15
     62.4700	 1163.00	 1265.41	-1832.41	  376.28
     62.5700	 1035.00	 1129.45	-1824.45	  376.40
     62.6700	  962.00	  992.01	-1760.01	  376.53
     62.7700	  799.00	  869.26	-1800.26	  376.66
     62.8700	  656.00	  769.56	-1843.56	  376.78
     62.9700	  646.00	  694.87	-1778.87	  376.91
     63.0700	  613.00	  642.84	-1759.84	  377.04
     63.1700	  603.00	  608.89	-1735.89	  377.17
     63.2700	  563.00	  588.08	-1755.08	  377.30
     63.3700	  618.00	  576.29	-1688.29	  377.43
     63.4700	  591.00	  570.76	-1709.76	  377.56
     63.5700	  588.00	  570.12	-1712.12	  377.70
     63.6700	  563.00	  574.23	-1741.23	  377.83
     63.7700	  578.00	  583.97	-1735.97	  377.96
     63.8700	  572.00	  600.82	-1758.82	  378.09
     63.9700	  699.00	  626.58	-1657.58	  378.23
     64.0700	  701.00	  662.65	-1691.65	  378.36
     64.1700	  730.00	  709.35	-1709.35	  378.49
     64.2700	  823.00	  765.17	-1672.17	  378.63
     64.3700	  870.00	  826.09	-1686.09	  378.76
     64.4700	  922.00	  885.12	-1693.12	  378.90
     64.5700	  995.00	  932.85	-1667.85	  379.03
     64.6700	 1053.00	  959.67	-1636.67	  379.17
     64.7700	 1020.00	  961.44	-1671.44	  379.31
     64.8700	  949.00	  939.00	-1720.00	  379.44
     64.9700	  909.00	  898.39	-1719.39	  379.58
     65.0700	  838.00	  848.00	-1740.00	  379.72
     65.1700	  827.00	  795.88	-1698.88	  379.86
     65.2700	  732.00	  747.61	-1745.61	  379.99
     65.3700	  689.00	  705.77	-1746.77	  380.13
     65.4700	  669.00	  670.71	-1731.71	  380.27
     65.5700	  612.00	  641.86	-1759.86	  380.41
     65.6700	  597.00	  618.63	-1751.64	  380.55
     65.7700	  601.00	  600.58	-1729.58	  380.68
     65.8700	  539.00	  586.81	-1777.81	  380.82
     65.9700	  545.00	  576.86	-1761.86	  380.96
     66.0700	  526.00	  570.14	-1774.14	  381.10
     66.1700	  538.00	  566.14	-1758.14	  381.24
     66.2700	  518.00	  564.45	-1776.45	  381.38
     66.3700	  534.00	  564.74	-1760.74	  381.52
     66.4700	  532.00	  566.80	-1764.80	  381.66
     66.5700	  580.00	  570.64	-1720.64	  381.80
     66.6700	  599.00	  576.54	-1707.54	  381.94
     66.7700	  513.00	  585.31	-1802.31	  382.08
     66.8700	  586.00	  598.47	-1742.47	  382.22
     66.9700	  642.00	  618.65	-1706.65	  382.36
     67.0700	  633.00	  650.05	-1747.05	  382.50
     67.1700	  707.00	  698.43	-1721.43	  382.64
     67.2700	  721.00	  770.97	-1779.97	  382.78
     67.3700	  872.00	  875.85	-1733.85	  382.92
     67.4700	  958.00	 1020.09	-1792.09	  383.06
     67.5700	 1185.00	 1207.26	-1752.26	  383.20
     67.6700	 1388.00	 1434.65	-1776.65	  383.34
     67.7700	 1706.00	 1690.66	-1714.66	  383.48
     67.8700	 1977.00	 1953.07	-1706.07	  383.62
     67.9700	 2196.00	 2188.18	-1722.18	  383.76
     68.0700	 2384.00	 2354.16	-1700.16	  383.90
     68.1700	 2474.00	 2412.34	-1668.34	  384.04
     68.2700	 2333.00	 2346.89	-1743.89	  384.18
     68.3700	 2169.00	 2175.51	-1736.51	  384.32
     68.4700	 2003.00	 1937.76	-1664.76	  384.46
     68.5700	 1716.00	 1675.31	-1689.31	  384.60
     68.6700	 1449.00	 1421.00	-1702.00	  384.74
     68.7700	 1153.00	 1196.40	-1773.40	  384.88
     68.8700	  944.00	 1012.28	-1798.28	  385.01
     68.9700	  811.00	  871.24	-1790.24	  385.15
     69.0700	  822.00	  769.22	-1677.22	  385.29
     69.1700	  654.00	  699.02	-1775.02	  385.43
     69.2700	  675.00	  652.60	-1707.60	  385.57
     69.3700	  584.00	  622.68	-1768.68	  385.70
     69.4700	  608.00	  603.56	-1725.56	  385.84
     69.5700	  603.00	  591.19	-1718.19	  385.98
     69.6700	  580.00	  582.98	-1732.98	  386.12
     69.7700	  553.00	  577.39	-1754.39	  386.25
     69.8700	  570.00	  573.54	-1733.54	  386.39
     69.9700	  571.00	  570.96	-1729.96	  386.52
     70.0700	  559.00	  569.36	-1740.36	  386.66
     70.1700	  592.00	  568.67	-1706.67	  386.79
     70.2700	  575.00	  568.88	-1723.88	  386.93
     70.3700	  610.00	  570.08	-1690.08	  387.06
     70.4700	  552.00	  572.47	-1750.47	  387.20
     70.5700	  559.00	  576.52	-1747.52	  387.33
     70.6700	  539.00	  583.01	-1774.01	  387.46
     70.7700	  646.00	  593.27	-1677.27	  387.60
     70.8700	  581.00	  609.38	-1758.38	  387.73
     70.9700	  652.00	  634.34	-1712.34	  387.86
     71.0700	  679.00	  672.12	-1723.12	  387.99
     71.1700	  685.00	  727.46	-1772.46	  388.12
     71.2700	  854.00	  805.24	-1681.24	  388.25
     71.3700	  901.00	  909.39	-1738.39	  388.38
     71.4700	 1025.00	 1041.55	-1746.55	  388.51
     71.5700	 1163.00	 1200.25	-1767.25	  388.64
     71.6700	 1402.00	 1376.50	-1704.50	  388.77
     71.7700	 1538.00	 1557.72	-1749.72	  388.90
     71.8700	 1704.00	 1724.10	-1750.10	  389.02
     71.9700	 1826.00	 1850.82	-1754.82	  389.15
     72.0700	 1891.00	 1913.18	-1752.18	  389.28
     72.1700	 1848.00	 1896.76	-1778.76	  389.40
     72.2700	 1790.00	 1805.57	-1745.57	  389.53
     72.3700	 1691.00	 1659.64	-1698.64	  389.65
     72.4700	 1488.00	 1484.72	-1726.72	  389.78
     72.5700	 1363.00	 1303.84	-1670.84	  389.90
     72.6700	 1184.00	 1134.07	-1680.07	  390.02
     72.7700	 1026.00	  986.10	-1690.10	  390.14
     72.8700	  905.00	  864.98	-1689.98	  390.26
     72.9700	  825.00	  771.12	-1676.12	  390.38
     73.0700	  694.00	  701.36	-1737.36	  390.50
     73.1700	  705.00	  652.25	-1677.25	  390.62
     73.2700	  713.00	  618.50	-1635.50	  390.74
     73.3700	  613.00	  595.75	-1712.75	  390.86
     73.4700	  617.00	  580.49	-1693.49	  390.98
     73.5700	  595.00	  570.19	-1705.19	  391.09
     73.6700	  664.00	  563.11	-1629.11	  391.21
     73.7700	  618.00	  558.21	-1670.21	  391.32
     73.8700	  558.00	  554.83	-1726.83	  391.44
     73.9700	  604.00	  552.58	-1678.58	  391.55
     74.0700	  602.00	  551.24	-1679.24	  391.66
     74.1700	  616.00	  550.60	-1664.60	  391.77
     74.2700	  597.00	  550.47	-1683.47	  391.88
     74.3700	  586.00	  550.66	-1694.66	  391.99
     74.4700	  589.00	  550.90	-1691.90	  392.10
     74.5700	  629.00	  550.94	-1651.94	  392.21
     74.6700	  608.00	  550.53	-1672.53	  392.32
     74.7700	  613.00	  549.55	-1666.55	  392.42
     74.8700	  613.00	  548.07	-1665.07	  392.53
     74.9700	  623.00	  546.30	-1653.30	  392.63
     75.0700	  581.00	  544.56	-1693.56	  392.74
     75.1700	  581.00	  543.16	-1692.16	  392.84
     75.2700	  591.00	  542.47	-1681.47	  392.94
     75.3700	  580.00	  542.78	-1692.78	  393.04
     75.4700	  571.00	  544.63	-1703.63	  393.14
     75.5700	  582.00	  548.42	-1696.42	  393.24
     75.6700	  562.00	  554.61	-1722.61	  393.34
     75.7700	  600.00	  563.63	-1693.63	  393.44
     75.8700	  611.00	  575.72	-1694.72	  393.53
     75.9700	  568.00	  591.07	-1753.07	  393.63
     76.0700	  611.00	  609.28	-1728.28	  393.72
     76.1700	  624.00	  629.54	-1735.54	  393.82
     76.2700	  691.00	  650.47	-1689.47	  393.91
     76.3700	  699.00	  670.12	-1701.12	  394.00
     76.4700	  674.00	  686.01	-1742.01	  394.09
     76.5700	  736.00	  695.69	-1689.69	  394.18
     76.6700	  700.00	  697.21	-1727.21	  394.27
     76.7700	  674.00	  690.23	-1746.23	  394.35
     76.8700	  692.00	  676.10	-1714.10	  394.44
     76.9700	  648.00	  657.24	-1739.24	  394.52
     77.0700	  637.00	  636.18	-1729.18	  394.61
     77.1700	  615.00	  615.05	-1730.05	  394.69
     77.2700	  619.00	  595.44	-1706.44	  394.77
     77.3700	  569.00	  578.15	-1739.15	  394.85
     77.4700	  529.00	  564.04	-1765.04	  394.93
     77.5700	  527.00	  552.96	-1755.96	  395.01
     77.6700	  490.00	  544.62	-1784.62	  395.08
     77.7700	  507.00	  538.61	-1761.61	  395.16
     77.8700	  536.00	  534.41	-1728.41	  395.23
     77.9700	  502.00	  531.56	-1759.56	  395.31
     78.0700	  492.00	  529.65	-1767.65	  395.38
     78.1700	  493.00	  528.38	-1765.38	  395.45
     78.2700	  501.00	  527.54	-1756.54	  395.52
     78.3700	  519.00	  526.99	-1737.99	  395.59
     78.4700	  544.00	  526.64	-1712.64	  395.65
     78.5700	  499.00	  526.44	-1757.44	  395.72
     78.6700	  512.00	  526.37	-1744.37	  395.78
     78.7700	  477.00	  526.43	-1779.43	  395.85
     78.8700	  507.00	  526.62	-1749.62	  395.91
     78.9700	  505.00	  526.97	-1751.97	  395.97
     79.0700	  507.00	  527.51	-1750.51	  396.03
     79.1700	  546.00	  528.27	-1712.27	  396.09
     79.2700	  497.00	  529.30	-1762.30	  396.14
     79.3700	  490.00	  530.64	-1770.64	  396.20
     79.4700	  481.00	  532.32	-1781.32	  396.25
     79.5700	  497.00	  534.41	-1767.41	  396.31
     79.6700	  526.00	  536.96	-1740.96	  396.36
     79.7700	  542.00	  540.06	-1728.06	  396.41
     79.8700	  512.00	  543.62	-1761.62	  396.46
     79.9700	  587.00	  548.14	-1691.14	  396.51
     80.0700	  527.00	  553.63	-1756.63	  396.55
     80.1700	  575.00	  560.32	-1715.32	  396.60
     80.2700	  570.00	  568.52	-1728.52	  396.64
     80.3700	  552.00	  578.56	-1756.56	  396.68
     80.4700	  600.00	  590.68	-1720.68	  396.72
     80.5700	  604.00	  604.94	-1730.94	  396.76
     80.6700	  637.00	  621.16	-1714.16	  396.80
     80.7700	  598.00	  638.80	-1770.80	  396.84
     80.8700	  648.00	  657.00	-1739.00	  396.87
     80.9700	  721.00	  674.62	-1683.62	  396.91
     81.0700	  694.00	  690.45	-1726.45	  396.94
     81.1700	  665.00	  703.41	-1768.41	  396.97
     81.2700	  718.00	  712.65	-1724.65	  397.00
     81.3700	  753.00	  717.64	-1694.64	  397.03
     81.4700	  717.00	  718.11	-1731.11	  397.05
     81.5700	  771.00	  714.14	-1673.14	  397.08
     81.6700	  707.00	  706.07	-1729.07	  397.10
     81.7700	  741.00	  694.42	-1683.42	  397.12
     81.8700	  711.00	  679.91	-1698.91	  397.15
     81.9700	  743.00	  663.55	-1650.55	  397.16
     82.0700	  681.00	  646.43	-1695.43	  397.18
     82.1700	  627.00	  629.57	-1732.57	  397.20
     82.2700	  647.00	  613.68	-1696.68	  397.21
     82.3700	  606.00	  599.22	-1723.22	  397.23
     82.4700	  569.00	  586.41	-1747.41	  397.24
     82.5700	  613.00	  575.38	-1692.38	  397.25
     82.6700	  555.00	  566.18	-1741.18	  397.26
     82.7700	  555.00	  558.82	-1733.82	  397.26
     82.8700	  505.00	  553.28	-1778.28	  397.27
     82.9700	  540.00	  549.42	-1739.42	  397.27
     83.0700	  547.00	  547.28	-1730.28	  397.28
     83.1700	  556.00	  546.69	-1720.69	  397.28
     83.2700	  572.00	  547.50	-1705.50	  397.28
     83.3700	  496.00	  549.60	-1783.60	  397.27
     83.4700	  590.00	  552.76	-1692.76	  397.27
     83.5700	  563.00	  556.69	-1723.69	  397.27
     83.6700	  533.00	  561.02	-1758.02	  397.26
     83.7700	  510.00	  565.32	-1785.32	  397.25
     83.8700	  560.00	  569.08	-1739.08	  397.24
     83.9700	  551.00	  571.76	-1750.76	  397.23
     84.0700	  533.00	  572.91	-1769.91	  397.22
     84.1700	  542.00	  572.29	-1760.29	  397.20
     84.2700	  543.00	  569.94	-1756.94	  397.18
     84.3700	  559.00	  566.17	-1737.17	  397.17
     84.4700	  579.00	  561.46	-1712.46	  397.15
     84.5700	  557.00	  556.26	-1729.26	  397.13
     84.6700	  547.00	  551.00	-1734.00	  397.10
     84.7700	  511.00	  546.02	-1765.02	  397.08
     84.8700	  538.00	  541.53	-1733.53	  397.05
     84.9700	  565.00	  537.68	-1702.68	  397.02
     85.0700	  531.00	  534.52	-1733.52	  397.00
     85.1700	  489.00	  532.03	-1773.03	  396.96
     85.2700	  518.00	  530.17	-1742.18	  396.93
     85.3700	  515.00	  528.86	-1743.86	  396.90
     85.4700	  527.00	  528.01	-1731.01	  396.86
     85.5700	  526.00	  527.54	-1731.54	  396.82
     85.6700	  486.00	  527.41	-1771.41	  396.79
     85.7700	  510.00	  527.61	-1747.61	  396.75
     85.8700	  539.00	  528.15	-1719.15	  396.70
     85.9700	  511.00	  529.09	-1748.09	  396.66
     86.0700	  528.00	  530.52	-1732.52	  396.61
     86.1700	  537.00	  532.58	-1725.58	  396.57
     86.2700	  540.00	  535.42	-1725.42	  396.52
     86.3700	  536.00	  539.22	-1733.22	  396.47
     86.4700	  563.00	  544.14	-1711.14	  396.41
     86.5700	  556.00	  550.30	-1724.30	  396.36
     86.6700	  566.00	  557.75	-1721.75	  396.30
     86.7700	  522.00	  566.44	-1774.44	  396.25
     86.8700	  543.00	  576.20	-1763.20	  396.19
     86.9700	  563.00	  586.69	-1753.69	  396.13
     87.0700	  561.00	  597.42	-1766.42	  396.07
     87.1700	  572.00	  607.71	-1765.71	  396.00
     87.2700	  669.00	  616.78	-1677.78	  395.94
     87.3700	  618.00	  623.75	-1735.75	  395.87
     87.4700	  628.00	  627.83	-1729.83	  395.80
     87.5700	  615.00	  628.16	-1743.16	  395.73
     87.6700	  647.00	  625.45	-1708.45	  395.66
     87.7700	  633.00	  619.80	-1716.80	  395.58
     87.8700	  658.00	  611.99	-1683.99	  395.51
     87.9700	  608.00	  602.96	-1724.96	  395.43
     88.0700	  616.00	  593.61	-1707.61	  395.35
     88.1700	  606.00	  584.71	-1708.71	  395.27
     88.2700	  621.00	  576.91	-1685.91	  395.19
     88.3700	  587.00	  570.68	-1713.68	  395.11
     88.4700	  566.00	  566.31	-1730.31	  395.02
     88.5700	  557.00	  563.95	-1736.95	  394.93
     88.6700	  602.00	  563.55	-1691.55	  394.84
     88.7700	  561.00	  564.93	-1733.93	  394.75
     88.8700	  643.00	  567.80	-1654.80	  394.66
     88.9700	  573.00	  571.74	-1728.74	  394.57
     89.0700	  551.00	  576.26	-1755.26	  394.47
     89.1700	  585.00	  580.80	-1725.80	  394.37
     89.2700	  609.00	  584.76	-1705.76	  394.28
     89.3700	  627.00	  587.57	-1690.57	  394.17
     89.4700	  609.00	  588.76	-1709.76	  394.07
     89.5700	  592.00	  588.06	-1726.06	  393.97
     89.6700	  548.00	  585.51	-1767.51	  393.86
     89.7700	  554.00	  581.38	-1757.38	  393.76
     89.8700	  560.00	  576.11	-1746.11	  393.65
     89.9700	  578.00	  570.17	-1722.17	  393.54
     90.0700	  559.00	  563.99	-1734.99	  393.42
     90.1700	  540.00	  557.96	-1747.96	  393.31
     90.2700	  550.00	  552.34	-1732.34	  393.20
     90.3700	  521.00	  547.34	-1756.34	  393.08
     90.4700	  533.00	  543.07	-1740.07	  392.96
     90.5700	  535.00	  539.57	-1734.57	  392.84
     90.6700	  508.00	  536.84	-1758.84	  392.72
     90.7700	  485.00	  534.80	-1779.80	  392.59
     90.8700	  552.00	  533.40	-1711.40	  392.47
     90.9700	  468.00	  532.55	-1794.55	  392.34
     91.0700	  493.00	  532.19	-1769.19	  392.21
     91.1700	  500.00	  532.27	-1762.27	  392.08
     91.2700	  513.00	  532.78	-1749.78	  391.95
     91.3700	  577.00	  533.73	-1686.73	  391.82
     91.4700	  551.00	  535.19	-1714.19	  391.69
     91.5700	  532.00	  537.26	-1735.26	  391.55
     91.6700	  520.00	  540.08	-1750.07	  391.41
     91.7700	  509.00	  543.80	-1764.80	  391.27
     91.8700	  527.00	  548.62	-1751.62	  391.13
     91.9700	  538.00	  554.75	-1746.75	  390.99
     92.0700	  561.00	  562.37	-1731.37	  390.84
     92.1700	  524.00	  571.63	-1777.63	  390.70
     92.2700	  633.00	  582.64	-1679.64	  390.55
     92.3700	  589.00	  595.42	-1736.42	  390.40
     92.4700	  607.00	  609.88	-1732.88	  390.25
     92.5700	  607.00	  625.81	-1748.81	  390.10
     92.6700	  694.00	  642.87	-1678.87	  389.95
     92.7700	  686.00	  660.59	-1704.59	  389.79
     92.8700	  674.00	  678.11	-1734.11	  389.64
     92.9700	  704.00	  695.24	-1721.24	  389.48
     93.0700	  723.00	  711.03	-1718.03	  389.32
     93.1700	  710.00	  724.95	-1744.95	  389.16
     93.2700	  754.00	  736.77	-1712.77	  388.99
     93.3700	  724.00	  746.64	-1752.64	  388.83
     93.4700	  808.00	  754.99	-1676.99	  388.67
     93.5700	  783.00	  762.39	-1709.39	  388.50
     93.6700	  762.00	  769.40	-1737.40	  388.33
     93.7700	  834.00	  776.48	-1672.48	  388.16
     93.8700	  768.00	  784.05	-1746.05	  387.99
     93.9700	  806.00	  792.55	-1716.55	  387.82
     94.0700	  878.00	  802.43	-1654.43	  387.64
     94.1700	  872.00	  814.06	-1672.06	  387.47
     94.2700	  853.00	  827.54	-1704.54	  387.29
     94.3700	  872.00	  842.65	-1700.65	  387.11
     94.4700	  850.00	  858.67	-1738.67	  386.93
     94.5700	  915.00	  874.48	-1689.48	  386.75
     94.6700	  906.00	  888.58	-1712.58	  386.57
     94.7700	  894.00	  899.21	-1735.21	  386.38
     94.8700	  934.00	  904.64	-1700.64	  386.20
     94.9700	  915.00	  903.52	-1718.52	  386.01
     95.0700	  895.00	  895.28	-1730.28	  385.82
     95.1700	  860.00	  880.23	-1750.23	  385.63
     95.2700	  860.00	  859.57	-1729.57	  385.44
     95.3700	  788.00	  835.03	-1777.03	  385.25
     95.4700	  781.00	  808.55	-1757.55	  385.06
     95.5700	  786.00	  782.09	-1726.09	  384.86
     95.6700	  792.00	  757.51	-1695.51	  384.67
     95.7700	  755.00	  736.51	-1711.51	  384.47
     95.8700	  750.00	  720.61	-1700.61	  384.27
     95.9700	  719.00	  711.16	-1722.16	  384.07
     96.0700	  666.00	  709.33	-1773.33	  383.87
     96.1700	  685.00	  716.07	-1761.07	  383.67
     96.2700	  754.00	  732.16	-1708.16	  383.47
     96.3700	  777.00	  758.14	-1711.14	  383.26
     96.4700	  818.00	  794.23	-1706.23	  383.06
     96.5700	  833.00	  840.34	-1737.34	  382.85
     96.6700	  900.00	  895.92	-1725.92	  382.64
     96.7700	  964.00	  959.88	-1725.88	  382.43
     96.8700	 1045.00	 1030.59	-1715.59	  382.22
     96.9700	 1063.00	 1105.73	-1772.73	  382.01
     97.0700	 1105.00	 1182.41	-1807.41	  381.80
     97.1700	 1187.00	 1257.03	-1800.03	  381.59
     97.2700	 1353.00	 1325.49	-1702.49	  381.37
     97.3700	 1354.00	 1383.42	-1759.42	  381.15
     97.4700	 1417.00	 1426.51	-1739.51	  380.94
     97.5700	 1496.00	 1451.28	-1685.28	  380.72
     97.6700	 1495.00	 1455.77	-1690.77	  380.50
     97.7700	 1408.00	 1440.00	-1762.00	  380.28
     97.8700	 1402.00	 1405.92	-1733.92	  380.06
     97.9700	 1318.00	 1356.89	-1768.89	  379.84
     98.0700	 1268.00	 1296.98	-1758.98	  379.61
     98.1700	 1193.00	 1230.41	-1767.41	  379.39
     98.2700	 1156.00	 1161.23	-1735.23	  379.17
     98.3700	 1116.00	 1093.04	-1707.04	  378.94
     98.4700	 1000.00	 1029.00	-1759.00	  378.71
     98.5700	  974.00	  971.75	-1727.75	  378.49
     98.6700	  920.00	  923.46	-1733.46	  378.26
     98.7700	  851.00	  885.82	-1764.82	  378.03
     98.8700	  840.00	  860.12	-1750.12	  377.80
     98.9700	  817.00	  847.27	-1760.27	  377.57
     99.0700	  828.00	  847.98	-1749.98	  377.33
     99.1700	  807.00	  862.62	-1785.62	  377.10
     99.2700	  934.00	  891.32	-1687.32	  376.87
     99.3700	  922.00	  934.01	-1742.01	  376.63
     99.4700	  964.00	  990.30	-1756.30	  376.40
     99.5700	 1092.00	 1059.52	-1697.52	  376.16
     99.6700	 1115.00	 1140.57	-1755.57	  375.93
     99.7700	 1239.00	 1231.86	-1722.86	  375.69
     99.8700	 1333.00	 1331.21	-1728.21	  375.45
     99.9700	 1519.00	 1435.80	-1646.80	  375.21
    100.0700	 1610.00	 1542.22	-1662.22	  374.97
    100.1700	 1629.00	 1646.49	-1747.49	  374.73
    100.2700	 1748.00	 1744.32	-1726.32	  374.49
    100.3700	 1853.00	 1831.53	-1708.53	  374.25
    100.4700	 1814.00	 1904.55	-1820.55	  374.01
    100.5700	 1908.00	 1960.68	-1782.68	  373.77
    100.6700	 1979.00	 1998.17	-1749.17	  373.52
    100.7700	 2022.00	 2015.93	-1723.93	  373.28
    100.8700	 2035.00	 2013.44	-1708.44	  373.03
    100.9700	 2059.00	 1990.76	-1661.76	  372.79
    101.0700	 1968.00	 1948.86	-1710.86	  372.54
    101.1700	 1876.00	 1889.88	-1743.88	  372.30
    101.2700	 1792.00	 1817.26	-1755.26	  372.05
    101.3700	 1722.00	 1735.38	-1743.38	  371.81
    101.4700	 1634.00	 1649.02	-1745.02	  371.56
    101.5700	 1572.00	 1562.74	-1720.74	  371.31
    101.6700	 1452.00	 1480.40	-1758.40	  371.07
    101.7700	 1406.00	 1405.05	-1729.05	  370.82
    101.8700	 1392.00	 1338.74	-1676.74	  370.57
    101.9700	 1345.00	 1282.54	-1667.54	  370.32
    102.0700	 1220.00	 1236.58	-1746.58	  370.07
    102.1700	 1184.00	 1200.13	-1746.13	  369.82
    102.2700	 1164.00	 1171.75	-1737.75	  369.58
    102.3700	 1121.00	 1149.42	-1758.42	  369.33
    102.4700	 1088.00	 1130.69	-1772.69	  369.08
    102.5700	 1094.00	 1113.01	-1749.01	  368.83
    102.6700	 1111.00	 1093.99	-1712.99	  368.58
    102.7700	 1081.00	 1071.81	-1720.81	  368.33
    102.8700	 1106.00	 1045.39	-1669.39	  368.08
    102.9700	 1026.00	 1014.46	-1718.46	  367.83
    103.0700	  986.00	  979.48	-1723.48	  367.58
    103.1700	  896.00	  941.37	-1775.37	  367.33
    103.2700	  944.00	  901.29	-1687.29	  367.08
    103.3700	  846.00	  860.44	-1744.44	  366.83
    103.4700	  805.00	  820.01	-1745.01	  366.58
    103.5700	  831.00	  780.98	-1679.98	  366.33
    103.6700	  723.00	  744.23	-1751.23	  366.08
    103.7700	  652.00	  710.40	-1788.40	  365.83
    103.8700	  698.00	  679.94	-1711.94	  365.58
    103.9700	  663.00	  653.11	-1720.11	  365.33
    104.0700	  663.00	  629.96	-1696.96	  365.08
    104.1700	  614.00	  610.40	-1726.40	  364.83
    104.2700	  588.00	  594.22	-1736.22	  364.58
    104.3700	  598.00	  581.12	-1713.12	  364.33
    104.4700	  577.00	  570.74	-1723.74	  364.09
    104.5700	  556.00	  562.73	-1736.73	  363.84
    104.6700	  539.00	  556.72	-1747.72	  363.59
    104.7700	  563.00	  552.38	-1719.38	  363.34
    104.8700	  585.00	  549.41	-1694.41	  363.10
    104.9700	  574.00	  547.56	-1703.56	  362.85
    105.0700	  521.00	  546.60	-1755.60	  362.61
    105.1700	  579.00	  546.41	-1697.41	  362.36
    105.2700	  490.00	  546.85	-1786.85	  362.12
    105.3700	  588.00	  547.84	-1689.84	  361.87
    105.4700	  576.00	  549.35	-1703.35	  361.63
    105.5700	  562.00	  551.36	-1719.36	  361.38
    105.6700	  548.00	  553.93	-1735.93	  361.14
    105.7700	  528.00	  557.10	-1759.10	  360.90
    105.8700	  539.00	  560.95	-1751.95	  360.66
    105.9700	  574.00	  565.57	-1721.57	  360.42
    106.0700	  578.00	  571.02	-1723.02	  360.18
    106.1700	  612.00	  577.33	-1695.33	  359.94
    106.2700	  584.00	  584.53	-1730.53	  359.70
    106.3700	  606.00	  592.56	-1716.56	  359.47
    106.4700	  632.00	  601.33	-1699.33	  359.23
    106.5700	  597.00	  610.67	-1743.67	  359.00
    106.6700	  605.00	  620.38	-1745.38	  358.76
    106.7700	  612.00	  630.19	-1748.19	  358.53
    106.8700	  597.00	  639.80	-1772.80	  358.30
    106.9700	  644.00	  648.87	-1734.87	  358.06
    107.0700	  662.00	  657.07	-1725.07	  357.83
    107.1700	  649.00	  664.06	-1745.06	  357.61
    107.2700	  662.00	  669.62	-1737.62	  357.38
    107.3700	  665.00	  673.61	-1738.61	  357.15
    107.4700	  748.00	  676.05	-1658.05	  356.93
    107.5700	  635.00	  677.13	-1772.13	  356.70
    107.6700	  667.00	  677.15	-1740.15	  356.48
    107.7700	  668.00	  676.48	-1738.48	  356.26
    107.8700	  709.00	  675.52	-1696.52	  356.04
    107.9700	  674.00	  674.61	-1730.61	  355.82
    108.0700	  702.00	  674.03	-1702.03	  355.60
    108.1700	  645.00	  673.99	-1758.99	  355.38
    108.2700	  661.00	  674.57	-1743.57	  355.17
    108.3700	  653.00	  675.75	-1752.75	  354.95
    108.4700	  663.00	  677.41	-1744.41	  354.74
    108.5700	  658.00	  679.32	-1751.32	  354.53
    108.6700	  670.00	  681.18	-1741.18	  354.32
    108.7700	  655.00	  682.62	-1757.62	  354.12
    108.8700	  715.00	  683.22	-1698.22	  353.91
    108.9700	  680.00	  682.61	-1732.61	  353.71
    109.0700	  734.00	  680.49	-1676.49	  353.50
    109.1700	  689.00	  676.68	-1717.68	  353.30
    109.2700	  716.00	  671.15	-1685.15	  353.11
    109.3700	  612.00	  664.01	-1782.01	  352.91
    109.4700	  652.00	  655.50	-1733.50	  352.72
    109.5700	  683.00	  645.93	-1692.93	  352.52
    109.6700	  601.00	  635.64	-1764.64	  352.33
    109.7700	  653.00	  624.96	-1701.96	  352.14
    109.8700	  643.00	  614.21	-1701.21	  351.96
    109.9700	  628.00	  603.69	-1705.69	  351.77
    110.0700	  622.00	  593.63	-1701.63	  351.59
    110.1700	  585.00	  584.24	-1729.24	  351.41
    110.2700	  597.00	  575.67	-1708.67	  351.23
    110.3700	  576.00	  568.04	-1722.04	  351.05
    110.4700	  600.00	  561.39	-1691.39	  350.88
    110.5700	  576.00	  555.76	-1709.76	  350.71
    110.6700	  583.00	  551.13	-1698.13	  350.54
    110.7700	  538.00	  547.46	-1739.46	  350.37
    110.8700	  593.00	  544.68	-1681.68	  350.21
    110.9700	  520.00	  542.71	-1752.71	  350.05
    111.0700	  514.00	  541.48	-1757.48	  349.89
    111.1700	  534.00	  540.89	-1736.89	  349.73
    111.2700	  515.00	  540.86	-1755.86	  349.58
    111.3700	  546.00	  541.30	-1725.30	  349.43
    111.4700	  513.00	  542.15	-1759.15	  349.28
    111.5700	  540.00	  543.34	-1733.34	  349.13
    111.6700	  551.00	  544.82	-1723.82	  348.99
    111.7700	  530.00	  546.54	-1746.54	  348.85
    111.8700	  528.00	  548.49	-1750.49	  348.71
    111.9700	  584.00	  550.62	-1696.62	  348.58
    112.0700	  546.00	  552.94	-1736.94	  348.44
    112.1700	  595.00	  555.45	-1690.45	  348.32
    112.2700	  545.00	  558.16	-1743.16	  348.19
    112.3700	  571.00	  561.08	-1720.08	  348.07
    112.4700	  575.00	  564.26	-1719.26	  347.95
    112.5700	  546.00	  567.73	-1751.73	  347.83
    112.6700	  578.00	  571.55	-1723.55	  347.72
    112.7700	  542.00	  575.79	-1763.79	  347.61
    112.8700	  590.00	  580.53	-1720.53	  347.50
    112.9700	  583.00	  585.90	-1732.90	  347.40
    113.0700	  575.00	  592.03	-1747.03	  347.30
    113.1700	  590.00	  599.11	-1739.11	  347.20
    113.2700	  629.00	  607.39	-1708.39	  347.11
    113.3700	  626.00	  617.18	-1721.18	  347.02
    113.4700	  658.00	  628.88	-1700.88	  346.93
    113.5700	  713.00	  642.98	-1659.98	  346.85
    113.6700	  671.00	  660.12	-1719.12	  346.77
    113.7700	  684.00	  681.07	-1727.07	  346.70
    113.8700	  784.00	  706.79	-1652.79	  346.62
    113.9700	  714.00	  738.41	-1754.41	  346.56
    114.0700	  850.00	  777.28	-1657.28	  346.49
    114.1700	  852.00	  824.97	-1702.97	  346.43
    114.2700	  925.00	  883.24	-1688.24	  346.38
    114.3700	 1022.00	  954.07	-1662.07	  346.33
    114.4700	 1113.00	 1039.63	-1656.63	  346.28
    114.5700	 1143.00	 1142.19	-1729.19	  346.23
    114.6700	 1323.00	 1264.08	-1671.08	  346.20
    114.7700	 1456.00	 1407.56	-1681.56	  346.16
    114.8700	 1704.00	 1574.81	-1600.81	  346.13
    114.9700	 1850.00	 1767.63	-1647.63	  346.10
    115.0700	 2103.00	 1987.48	-1614.48	  346.08
    115.1700	 2352.00	 2235.17	-1613.17	  346.06
    115.2700	 2638.00	 2510.73	-1602.73	  346.05
    115.3700	 2860.00	 2813.44	-1683.44	  346.04
    115.4700	 3206.00	 3141.37	-1665.37	  346.03
    115.5700	 3491.00	 3491.67	-1730.67	  346.03
    115.6700	 3806.00	 3860.15	-1784.15	  346.04
    115.7700	 4211.00	 4241.39	-1760.39	  346.05
    115.8700	 4528.00	 4628.91	-1830.91	  346.06
    115.9700	 4881.00	 5014.85	-1863.85	  346.08
    116.0700	 5182.00	 5390.49	-1938.49	  346.10
    116.1700	 5568.00	 5746.01	-1908.01	  346.13
    116.2700	 5924.00	 6070.93	-1876.93	  346.17
    116.3700	 6336.00	 6354.67	-1748.67	  346.21
    116.4700	 6577.00	 6586.74	-1739.74	  346.25
    116.5700	 6563.00	 6757.91	-1924.91	  346.30
    116.6700	 6877.00	 6860.75	-1713.75	  346.35
    116.7700	 6920.00	 6890.72	-1700.72	  346.41
    116.8700	 6817.00	 6846.63	-1759.63	  346.48
    116.9700	 6731.00	 6730.87	-1729.87	  346.55
    117.0700	 6462.00	 6548.99	-1816.99	  346.62
    117.1700	 6236.00	 6309.08	-1803.08	  346.70
    117.2700	 6049.00	 6020.94	-1701.94	  346.79
    117.3700	 5742.00	 5694.94	-1682.94	  346.88
    117.4700	 5252.00	 5341.75	-1819.75	  346.98
    117.5700	 4860.00	 4971.35	-1841.35	  347.08
    117.6700	 4689.00	 4593.14	-1634.14	  347.19
    117.7700	 4288.00	 4215.48	-1657.48	  347.31
    117.8700	 3998.00	 3845.47	-1577.47	  347.43
    117.9700	 3638.00	 3489.20	-1581.20	  347.55
    118.0700	 3156.00	 3151.35	-1725.35	  347.69
    118.1700	 2921.00	 2835.56	-1644.56	  347.82
    118.2700	 2724.00	 2544.33	-1550.33	  347.97
    118.3700	 2353.00	 2278.99	-1655.99	  348.12
    118.4700	 1975.00	 2040.14	-1795.14	  348.28
    118.5700	 1813.00	 1827.43	-1744.43	  348.44
    118.6700	 1640.00	 1640.00	-1730.00	  348.61
    118.7700	 1435.00	 1476.46	-1771.46	  348.79
    118.8700	 1291.00	 1335.01	-1774.01	  348.97
    118.9700	 1182.00	 1213.70	-1761.70	  349.16
    119.0700	 1114.00	 1110.39	-1726.39	  349.35
    119.1700	 1021.00	 1022.98	-1731.98	  349.56
    119.2700	  899.00	  949.41	-1780.41	  349.77
    119.3700	  829.00	  887.74	-1788.74	  349.98
    119.4700	  777.00	  836.21	-1789.21	  350.21
    119.5700	  821.00	  793.23	-1702.23	  350.43
    119.6700	  744.00	  757.40	-1743.40	  350.67
    119.7700	  699.00	  727.54	-1758.54	  350.92
    119.8700	  735.00	  702.63	-1697.63	  351.17
    119.9700	  652.00	  681.83	-1759.83	  351.42
    120.0700	  618.00	  664.41	-1776.41	  351.69
    120.1700	  600.00	  649.83	-1779.83	  351.96
    120.2700	  580.00	  637.60	-1787.60	  352.24
    120.3700	  595.00	  627.36	-1762.36	  352.53
    120.4700	  566.00	  618.81	-1782.81	  352.82
    120.5700	  550.00	  611.71	-1791.71	  353.13
    120.6700	  604.00	  605.86	-1731.86	  353.43
    120.7700	  585.00	  601.13	-1746.13	  353.75
    120.8700	  554.00	  597.40	-1773.40	  354.08
    120.9700	  548.00	  594.56	-1776.56	  354.41
    121.0700	  577.00	  592.55	-1745.55	  354.75
    121.1700	  583.00	  591.29	-1738.29	  355.10
    121.2700	  535.00	  590.73	-1785.73	  355.46
    121.3700	  561.00	  590.83	-1759.83	  355.82
    121.4700	  585.00	  591.53	-1736.53	  356.20
    121.5700	  560.00	  592.79	-1762.79	  356.58
    121.6700	  620.00	  594.54	-1704.54	  356.97
    121.7700	  568.00	  596.74	-1758.74	  357.36
    121.8700	  572.00	  599.32	-1757.32	  357.77
    121.9700	  619.00	  602.20	-1713.20	  358.19
    122.0700	  600.00	  605.32	-1735.32	  358.61
    122.1700	  603.00	  608.59	-1735.59	  359.04
    122.2700	  619.00	  611.91	-1722.91	  359.48
    122.3700	  626.00	  615.19	-1719.19	  359.93
    122.4700	  631.00	  618.33	-1717.33	  360.39
    122.5700	  598.00	  621.23	-1753.23	  360.86
    122.6700	  606.00	  623.79	-1747.79	  361.33
    122.7700	  644.00	  625.91	-1711.91	  361.82
    122.8700	  667.00	  627.55	-1690.55	  362.31
    122.9700	  648.00	  628.63	-1710.63	  362.82
    123.0700	  663.00	  629.13	-1696.13	  363.33
    123.1700	  635.00	  629.02	-1724.02	  363.85
    123.2700	  656.00	  628.35	-1702.35	  364.38
    123.3700	  626.00	  627.13	-1731.13	  364.93
    123.4700	  626.00	  625.42	-1729.42	  365.48
    123.5700	  679.00	  623.29	-1674.29	  366.04
    123.6700	  662.00	  620.80	-1688.80	  366.61
    123.7700	  640.00	  618.04	-1708.04	  367.19
    123.8700	  609.00	  615.04	-1736.04	  367.78
    123.9700	  631.00	  611.92	-1710.92	  368.38
    124.0700	  620.00	  608.72	-1718.72	  368.99
    124.1700	  607.00	  605.51	-1728.51	  369.61
    124.2700	  621.00	  602.33	-1711.33	  370.24
    124.3700	  612.00	  599.25	-1717.25	  370.88
    124.4700	  638.00	  596.29	-1688.29	  371.53
    124.5700	  607.00	  593.50	-1716.50	  372.19
    124.6700	  639.00	  590.90	-1681.90	  372.86
    124.7700	  554.00	  588.50	-1764.50	  373.54
    124.8700	  596.00	  586.34	-1720.34	  374.24
    124.9700	  593.00	  490.28	-1627.28	  374.94
    125.0700	  632.00	  491.00	-1730.00	  375.65
    125.1700	  580.00	  491.72	-1730.00	  376.38
    125.2700	  563.00	  492.46	-1730.00	  377.12
    125.3700	  564.00	  493.21	-1730.00	  377.86
    125.4700	  600.00	  493.97	-1730.00	  378.62
    125.5700	  581.00	  494.74	-1730.00	  379.39
    125.6700	  572.00	  495.52	-1730.00	  380.17
    125.7700	  511.00	  496.31	-1730.00	  380.97
    125.8700	  588.00	  497.11	-1730.00	  381.77
    125.9700	  606.00	  497.93	-1730.00	  382.58
    126.0700	  568.00	  498.76	-1730.00	  383.41
    126.1700	  557.00	  499.59	-1730.00	  384.25
    126.2700	  602.00	  500.45	-1730.00	  385.10
    126.3700	  602.00	  501.31	-1730.00	  385.96
    126.4700	  594.00	  502.18	-1730.00	  386.84
    126.5700	  615.00	  503.07	-1730.00	  387.72
    126.6700	  589.00	  503.97	-1730.00	  388.62
    126.7700	  603.00	  504.88	-1730.00	  389.53
    126.8700	  600.00	  505.80	-1730.00	  390.46
    126.9700	  587.00	  506.74	-1730.00	  391.39
    127.0700	  620.00	  507.68	-1730.00	  392.34
    127.1700	  604.00	  508.64	-1730.00	  393.30
    127.2700	  641.00	  509.62	-1730.00	  394.27
    127.3700	  634.00	  510.60	-1730.00	  395.26
    127.4700	  631.00	  511.60	-1730.00	  396.26
    127.5700	  697.00	  512.61	-1730.00	  397.27
    127.6700	  685.00	  513.64	-1730.00	  398.29
    127.7700	  710.00	  514.67	-1730.00	  399.33
    127.8700	  700.00	  515.72	-1730.00	  400.38
    127.9700	  718.00	  516.79	-1730.00	  401.44
    128.0700	  706.00	  517.87	-1730.00	  402.52
    128.1700	  786.00	  518.96	-1730.00	  403.61
    128.2700	  743.00	  520.06	-1730.00	  404.72
    128.3700	  783.00	  521.18	-1730.00	  405.83
    128.4700	  792.00	  522.31	-1730.00	  406.96
    128.5700	    0.00	  523.45	-1730.00	  408.11
    128.6700	    0.00	  524.61	-1730.00	  409.27
     12.3108	        	        	        	        	       0	(  0  0  2)	  0  1
     24.8976	        	        	        	        	       0	(  0  0  4)	  0  1
     28.3479	        	        	        	        	       0	(  1  0  0)	  0  1
     29.0451	        	        	        	        	       0	(  1  0  1)	  0  1
     31.0515	        	        	        	        	       0	(  1  0  2)	  0  1
     34.1602	        	        	        	        	       0	(  1  0  3)	  0  1
     37.8006	        	        	        	        	       0	(  0  0  6)	  0  1
     38.1379	        	        	        	        	       0	(  1  0  4)	  0  1
     42.7889	        	        	        	        	       0	(  1  0  5)	  0  1
     47.9742	        	        	        	        	       0	(  1  0  6)	  0  1
     50.2981	        	        	        	        	       0	(  1  1  0)	  0  1
     51.2264	        	        	        	        	       0	(  0  0  8)	  0  1
     52.0214	        	        	        	        	       0	(  1  1  2)	  0  1
     53.6061	        	        	        	        	       0	(  1  0  7)	  0  1
     56.9702	        	        	        	        	       0	(  1  1  4)	  0  1
     58.8009	        	        	        	        	       0	(  2  0  0)	  0  1
     59.1926	        	        	        	        	       0	(  2  0  1)	  0  1
     59.6382	        	        	        	        	       0	(  1  0  8)	  0  1
     60.3582	        	        	        	        	       0	(  2  0  2)	  0  1
     62.2718	        	        	        	        	       0	(  2  0  3)	  0  1
     64.6667	        	        	        	        	       0	(  1  1  6)	  0  1
     64.8965	        	        	        	        	       0	(  2  0  4)	  0  1
     65.4602	        	        	        	        	       0	(  0  0 10)	  0  1
     66.0565	        	        	        	        	       0	(  1  0  9)	  0  1
     68.1916	        	        	        	        	       0	(  2  0  5)	  0  1
     72.1203	        	        	        	        	       0	(  2  0  6)	  0  1
     72.8750	        	        	        	        	       0	(  1  0 10)	  0  1
     74.7076	        	        	        	        	       0	(  1  1  8)	  0  1
     76.6560	        	        	        	        	       0	(  2  0  7)	  0  1
     80.1355	        	        	        	        	       0	(  1  0 11)	  0  1
     80.9466	        	        	        	        	       0	(  0  0 12)	  0  1
     81.0601	        	        	        	        	       0	(  2  1  0)	  0  1
     81.4001	        	        	        	        	       0	(  2  1  1)	  0  1
     81.7883	        	        	        	        	       0	(  2  0  8)	  0  1
     82.4184	        	        	        	        	       0	(  2  1  2)	  0  1
     84.1104	        	        	        	        	       0	(  2  1  3)	  0  1
     86.4711	        	        	        	        	       0	(  2  1  4)	  0  1
     86.9840	        	        	        	        	       0	(  1  1 10)	  0  1
     87.5289	        	        	        	        	       0	(  2  0  9)	  0  1
     87.9132	        	        	        	        	       0	(  1  0 12)	  0  1
     89.4984	        	        	        	        	       0	(  2  1  5)	  0  1
     93.1979	        	        	        	        	       0	(  2  1  6)	  0  1
     93.9196	        	        	        	        	       0	(  2  0 10)	  0  1
     94.9635	        	        	        	        	       0	(  3  0  0)	  0  1
     95.3011	        	        	        	        	       0	(  3  0  1)	  0  1
     96.3149	        	        	        	        	       0	(  3  0  2)	  0  1
     96.3309	        	        	        	        	       0	(  1  0 13)	  0  1
     97.5892	        	        	        	        	       0	(  2  1  7)	  0  1
     98.0094	        	        	        	        	       0	(  3  0  3)	  0  1
     98.4947	        	        	        	        	       0	(  0  0 14)	  0  1
    100.3941	        	        	        	        	       0	(  3  0  4)	  0  1
    101.0460	        	        	        	        	       0	(  2  0 11)	  0  1
    101.8629	        	        	        	        	       0	(  1  1 12)	  0  1
    102.7153	        	        	        	        	       0	(  2  1  8)	  0  1
    103.4882	        	        	        	        	       0	(  3  0  5)	  0  1
    105.5895	        	        	        	        	       0	(  1  0 14)	  0  1
    107.3267	        	        	        	        	       0	(  3  0  6)	  0  1
    108.6572	        	        	        	        	       0	(  2  1  9)	  0  1
    109.0634	        	        	        	        	       0	(  2  0 12)	  0  1
    111.9717	        	        	        	        	       0	(  3  0  7)	  0  1
    115.5612	        	        	        	        	       0	(  2  1 10)	  0  1
    116.0416	        	        	        	        	       0	(  1  0 15)	  0  1
    116.7216	        	        	        	        	       0	(  2  2  0)	  0  1
    117.5318	        	        	        	        	       0	(  3  0  8)	  0  1
    118.2389	        	        	        	        	       0	(  2  2  2)	  0  1
    118.2570	        	        	        	        	       0	(  2  0 13)	  0  1
    119.9999	        	        	        	        	       0	(  0  0 16)	  0  1
    120.7244	        	        	        	        	       0	(  1  1 14)	  0  1
    122.9320	        	        	        	        	       0	(  2  2  4)	  0  1
    123.6992	        	        	        	        	       0	(  2  1 11)	  0  1
    124.2017	        	        	        	        	       0	(  3  0  9)	  0  1
    124.8049	        	        	        	        	       0	(  3  1  0)	  0  1
    125.2159	        	        	        	        	       0	(  3  1  1)	  0  1
    126.4619	        	        	        	        	       0	(  3  1  2)	  0  1
    128.4001	        	        	        	        	       0	(  1  0 16)	  0  1
    128.5848	        	        	        	        	       0	(  3  1  3)	  0  1
    129.2027	        	        	        	        	       0	(  2  0 14)	  0  1
    131.3897	        	        	        	        	       0	(  2  2  6)	  0  1
    131.6682	        	        	        	        	       0	(  3  1  4)	  0  1
    132.3589	        	        	        	        	       0	(  3  0 10)	  0  1
    133.6308	        	        	        	        	       0	(  2  1 12)	  0  1
    135.8674	        	        	        	        	       0	(  3  1  5)	  0  1
    141.4833	        	        	        	        	       0	(  3  1  6)	  0  1
    142.8707	        	        	        	        	       0	(  3  0 11)	  0  1
    143.3789	        	        	        	        	       0	(  2  0 15)	  0  1
    144.6078	        	        	        	        	       0	(  1  0 17)	  0  1
    145.6757	        	        	        	        	       0	(  2  2  8)	  0  1
    146.8320	        	        	        	        	       0	(  2  1 13)	  0  1
    149.1978	        	        	        	        	       0	(  3  1  7)	  0  1
    149.7351	        	        	        	        	       0	(  1  1 16)	  0  1
    154.1440	        	        	        	        	       0	(  0  0 18)	  0  1
    158.8674	        	        	        	        	       0	(  3  0 12)	  0  1
    159.1826	        	        	        	        	       0	(  4  0  0)	  0  1
    160.1559	        	        	        	        	       0	(  4  0  1)	  0  1
    161.3279	        	        	        	        	       0	(  3  1  8)	  0  1
    163.4033	        	        	        	        	       0	(  4  0  2)	  0  1
    170.2007	        	        	        	        	       0	(  2  0 16)	  0  1
    171.1008	        	        	        	        	       0	(  4  0  3)	  0  1
    175.2033	        	        	        	        	       0	(  2  1 14)	  0  1
