MSG Master    CELL:    5.91979   5.91979  23.27911   90.0000   90.0000  120.0000   SPGR: P 63/m m c             TEMP:   1075.05
  1   1280     2.52000     0.00000    -0.12664     0.00000     0.00000    0
    99     0     2
       0.00000      10.00000
     125.00000     130.00000
 2Theta	Yobs	Ycal	Yobs-Ycal	Backg	Posr	(hkl)	K
      0.7700	    0.00	  525.31	-1703.27	  408.87
      0.8700	    1.00	  526.32	-1703.27	  409.88
      0.9700	   28.00	  527.31	-1703.27	  410.88
      1.0700	   57.00	  528.30	-1703.27	  411.86
      1.1700	   52.00	  529.27	-1703.27	  412.83
      1.2700	   39.00	  530.23	-1703.27	  413.79
      1.3700	   41.00	  531.17	-1703.27	  414.73
      1.4700	   84.00	  532.10	-1703.27	  415.67
      1.5700	  303.00	  533.02	-1703.27	  416.58
      1.6700	  435.00	  533.92	-1703.27	  417.49
      1.7700	  559.00	  534.82	-1703.27	  418.38
      1.8700	  620.00	  535.70	-1703.27	  419.26
      1.9700	  660.00	  536.56	-1703.27	  420.13
      2.0700	  811.00	  537.42	-1703.27	  420.98
      2.1700	  802.00	  538.26	-1703.27	  421.82
      2.2700	  772.00	  539.09	-1703.27	  422.65
      2.3700	  731.00	  539.91	-1703.27	  423.47
      2.4700	  726.00	  540.71	-1703.27	  424.28
      2.5700	  693.00	  541.50	-1703.27	  425.07
      2.6700	  635.00	  542.28	-1703.27	  425.85
      2.7700	  680.00	  543.05	-1703.27	  426.62
      2.8700	  635.00	  543.81	-1703.27	  427.37
      2.9700	  582.00	  544.55	-1703.27	  428.12
      3.0700	  631.00	  545.29	-1703.27	  428.85
      3.1700	  586.00	  546.01	-1703.27	  429.57
      3.2700	  636.00	  546.72	-1703.27	  430.28
      3.3700	  741.00	  547.42	-1703.27	  430.98
      3.4700	  772.00	  548.10	-1703.27	  431.67
      3.5700	  830.00	  548.78	-1703.27	  432.35
      3.6700	  866.00	  549.45	-1703.27	  433.01
      3.7700	  991.00	  550.10	-1703.27	  433.66
      3.8700	  966.00	  550.74	-1703.27	  434.31
      3.9700	  993.00	  551.37	-1703.27	  434.94
      4.0700	 1051.00	  551.99	-1703.27	  435.56
      4.1700	 1082.00	  552.60	-1703.27	  436.17
      4.2700	 1067.00	  553.20	-1703.27	  436.77
      4.3700	 1101.00	  553.79	-1703.27	  437.35
      4.4700	 1053.00	  554.37	-1703.27	  437.93
      4.5700	 1079.00	  554.93	-1703.27	  438.50
      4.6700	 1005.00	  555.49	-1703.27	  439.05
      4.7700	  978.00	  556.04	-1703.27	  439.60
      4.8700	 1001.00	  556.57	-1703.27	  440.14
      4.9700	  930.00	  557.10	-1703.27	  440.66
      5.0700	  972.00	  557.61	-1703.27	  441.18
      5.1700	  951.00	  558.12	-1703.27	  441.68
      5.2700	  908.00	  558.61	-1703.27	  442.18
      5.3700	  898.00	  559.10	-1703.27	  442.66
      5.4700	  918.00	  559.58	-1703.27	  443.14
      5.5700	  889.00	  560.04	-1703.27	  443.61
      5.6700	  839.00	  560.50	-1703.27	  444.06
      5.7700	  890.00	  560.94	-1703.27	  444.51
      5.8700	  857.00	  561.38	-1703.27	  444.95
      5.9700	  839.00	  561.81	-1703.27	  445.37
      6.0700	  790.00	  562.23	-1703.27	  445.79
      6.1700	  757.00	  562.64	-1703.27	  446.20
      6.2700	  761.00	  563.04	-1703.27	  446.60
      6.3700	  749.00	  563.43	-1703.27	  446.99
      6.4700	  792.00	  563.81	-1703.27	  447.37
      6.5700	  721.00	  564.18	-1703.27	  447.74
      6.6700	  771.00	  564.54	-1703.27	  448.11
      6.7700	  742.00	  564.90	-1703.27	  448.46
      6.8700	  723.00	  565.24	-1703.27	  448.81
      6.9700	  695.00	  565.58	-1703.27	  449.15
      7.0700	  695.00	  565.91	-1703.27	  449.47
      7.1700	  650.00	  566.23	-1703.27	  449.79
      7.2700	  680.00	  566.54	-1703.27	  450.10
      7.3700	  686.00	  566.84	-1703.27	  450.41
      7.4700	  689.00	  567.14	-1703.27	  450.70
      7.5700	  670.00	  567.42	-1703.27	  450.99
      7.6700	  668.00	  567.70	-1703.27	  451.27
      7.7700	  637.00	  567.97	-1703.27	  451.53
      7.8700	  665.00	  568.23	-1703.27	  451.80
      7.9700	  649.00	  568.48	-1703.27	  452.05
      8.0700	  619.00	  568.73	-1703.27	  452.29
      8.1700	  642.00	  568.97	-1703.27	  452.53
      8.2700	  619.00	  569.20	-1703.27	  452.76
      8.3700	  674.00	  569.42	-1703.27	  452.98
      8.4700	  598.00	  569.63	-1703.27	  453.20
      8.5700	  628.00	  569.84	-1703.27	  453.40
      8.6700	  619.00	  570.04	-1703.27	  453.60
      8.7700	  614.00	  570.23	-1703.27	  453.79
      8.8700	  648.00	  570.41	-1703.27	  453.98
      8.9700	  600.00	  570.59	-1703.27	  454.15
      9.0700	  631.00	  570.76	-1703.27	  454.32
      9.1700	  655.00	  570.92	-1703.27	  454.49
      9.2700	  605.00	  571.08	-1703.27	  454.64
      9.3700	  645.00	  571.22	-1703.27	  454.79
      9.4700	  639.00	  571.36	-1703.27	  454.93
      9.5700	  646.00	  571.50	-1703.27	  455.06
      9.6700	  648.00	  571.62	-1703.27	  455.19
      9.7700	  586.00	  571.74	-1703.27	  455.31
      9.8700	  598.00	  571.86	-1703.27	  455.42
      9.9700	  586.00	  571.96	-1703.27	  455.53
     10.0700	  584.00	  573.18	-1692.45	  455.63
     10.1700	  604.00	  573.40	-1672.67	  455.72
     10.2700	  597.00	  573.64	-1679.91	  455.81
     10.3700	  586.00	  573.92	-1691.20	  455.89
     10.4700	  615.00	  574.28	-1662.56	  455.96
     10.5700	  580.00	  574.78	-1698.05	  456.03
     10.6700	  544.00	  575.50	-1734.78	  456.09
     10.7700	  623.00	  576.56	-1656.83	  456.14
     10.8700	  557.00	  578.01	-1724.28	  456.19
     10.9700	  562.00	  579.86	-1721.13	  456.23
     11.0700	  558.00	  582.08	-1727.36	  456.27
     11.1700	  533.00	  584.69	-1754.96	  456.30
     11.2700	  554.00	  587.71	-1736.99	  456.32
     11.3700	  634.00	  591.25	-1660.52	  456.34
     11.4700	  613.00	  595.43	-1685.71	  456.35
     11.5700	  595.00	  600.50	-1708.77	  456.36
     11.6700	  593.00	  606.81	-1717.09	  456.36
     11.7700	  637.00	  614.96	-1681.24	  456.36
     11.8700	  648.00	  625.61	-1680.88	  456.34
     11.9700	  623.00	  638.77	-1719.04	  456.33
     12.0700	  690.00	  652.34	-1665.61	  456.31
     12.1700	  709.00	  660.81	-1655.08	  456.28
     12.2700	  690.00	  656.41	-1669.69	  456.25
     12.3700	  674.00	  637.57	-1666.84	  456.21
     12.4700	  608.00	  614.80	-1710.07	  456.17
     12.5700	  659.00	  597.26	-1641.54	  456.12
     12.6700	  582.00	  586.68	-1707.96	  456.07
     12.7700	  572.00	  581.18	-1712.46	  456.01
     12.8700	  572.00	  578.43	-1709.71	  455.94
     12.9700	  545.00	  576.91	-1735.19	  455.88
     13.0700	  580.00	  575.92	-1699.20	  455.80
     13.1700	  584.00	  575.20	-1694.48	  455.72
     13.2700	  549.00	  574.64	-1728.91	  455.64
     13.3700	  560.00	  574.18	-1717.46	  455.55
     13.4700	  568.00	  573.80	-1709.07	  455.46
     13.5700	  574.00	  573.47	-1702.74	  455.36
     13.6700	  561.00	  573.18	-1715.45	  455.26
     13.7700	  570.00	  572.91	-1706.19	  455.15
     13.8700	  544.00	  572.67	-1731.95	  455.04
     13.9700	  606.00	  572.45	-1669.72	  454.93
     14.0700	  512.00	  572.23	-1763.51	  454.81
     14.1700	  555.00	  572.03	-1720.30	  454.68
     14.2700	  577.00	  571.83	-1698.11	  454.55
     14.3700	  593.00	  571.64	-1681.91	  454.42
     14.4700	  555.00	  571.45	-1719.72	  454.28
     14.5700	  558.00	  571.26	-1716.54	  454.14
     14.6700	  542.00	  571.07	-1732.35	  454.00
     14.7700	  553.00	  570.89	-1721.16	  453.85
     14.8700	  566.00	  570.70	-1707.98	  453.69
     14.9700	  542.00	  570.52	-1731.79	  453.54
     15.0700	  570.00	  570.33	-1703.60	  453.37
     15.1700	  536.00	  570.14	-1737.41	  453.21
     15.2700	  587.00	  569.97	-1686.25	  453.04
     15.3700	  578.00	  569.78	-1695.06	  452.87
     15.4700	  574.00	  569.59	-1698.86	  452.69
     15.5700	  596.00	  569.39	-1676.67	  452.51
     15.6700	  534.00	  569.19	-1738.47	  452.33
     15.7700	  592.00	  568.99	-1680.27	  452.14
     15.8700	  546.00	  568.79	-1726.06	  451.95
     15.9700	  575.00	  568.58	-1696.86	  451.75
     16.0700	  565.00	  568.38	-1706.65	  451.56
     16.1700	  530.00	  568.17	-1741.44	  451.36
     16.2700	  553.00	  567.95	-1718.23	  451.15
     16.3700	  518.00	  567.74	-1753.01	  450.94
     16.4700	  568.00	  567.52	-1702.79	  450.73
     16.5700	  591.00	  567.30	-1679.57	  450.52
     16.6700	  556.00	  567.07	-1714.35	  450.30
     16.7700	  563.00	  566.85	-1707.12	  450.08
     16.8700	  578.00	  566.62	-1691.89	  449.86
     16.9700	  574.00	  566.39	-1695.66	  449.63
     17.0700	  551.00	  566.15	-1718.43	  449.40
     17.1700	  552.00	  565.92	-1717.19	  449.17
     17.2700	  574.00	  565.68	-1694.95	  448.93
     17.3700	  574.00	  565.44	-1694.71	  448.69
     17.4700	  544.00	  565.19	-1724.47	  448.45
     17.5700	  589.00	  564.94	-1679.22	  448.21
     17.6700	  514.00	  564.69	-1753.97	  447.96
     17.7700	  551.00	  564.44	-1716.72	  447.71
     17.8700	  569.00	  564.19	-1698.46	  447.46
     17.9700	  605.00	  563.93	-1662.21	  447.20
     18.0700	  540.00	  563.77	-1727.04	  446.95
     18.1700	  552.00	  563.51	-1714.78	  446.69
     18.2700	  562.00	  563.25	-1704.52	  446.43
     18.3700	  519.00	  562.98	-1747.26	  446.16
     18.4700	  535.00	  562.72	-1730.99	  445.89
     18.5700	  595.00	  562.45	-1670.73	  445.62
     18.6700	  537.00	  562.27	-1728.54	  445.35
     18.7700	  592.00	  562.00	-1673.27	  445.08
     18.8700	  559.00	  561.72	-1706.00	  444.80
     18.9700	  530.00	  561.45	-1734.73	  444.52
     19.0700	  572.00	  561.17	-1692.45	  444.24
     19.1700	  565.00	  560.90	-1699.17	  443.96
     19.2700	  536.00	  560.62	-1727.89	  443.68
     19.3700	  563.00	  560.34	-1700.61	  443.39
     19.4700	  544.00	  560.06	-1719.33	  443.10
     19.5700	  540.00	  559.77	-1723.05	  442.81
     19.6700	  568.00	  559.49	-1694.76	  442.52
     19.7700	  591.00	  559.20	-1671.47	  442.22
     19.8700	  592.00	  558.91	-1670.19	  441.93
     19.9700	  558.00	  558.62	-1703.90	  441.63
     20.0700	  590.00	  558.33	-1671.61	  441.33
     20.1700	  573.00	  558.04	-1688.31	  441.03
     20.2700	  543.00	  557.75	-1718.02	  440.73
     20.3700	  522.00	  557.45	-1738.73	  440.42
     20.4700	  555.00	  557.16	-1705.43	  440.11
     20.5700	  561.00	  556.90	-1699.17	  439.81
     20.6700	  588.00	  556.60	-1671.87	  439.50
     20.7700	  568.00	  556.30	-1691.58	  439.19
     20.8700	  564.00	  556.01	-1695.28	  438.87
     20.9700	  602.00	  555.71	-1656.98	  438.56
     21.0700	  562.00	  555.41	-1696.69	  438.24
     21.1700	  558.00	  555.11	-1700.39	  437.93
     21.2700	  552.00	  554.81	-1706.09	  437.61
     21.3700	  556.00	  554.48	-1701.75	  437.29
     21.4700	  543.00	  554.18	-1714.45	  436.97
     21.5700	  554.00	  553.88	-1703.16	  436.65
     21.6700	  555.00	  553.59	-1701.86	  436.32
     21.7700	  559.00	  553.29	-1697.56	  436.00
     21.8700	  555.00	  553.00	-1701.27	  435.67
     21.9700	  589.00	  552.70	-1666.98	  435.35
     22.0700	  534.00	  552.41	-1721.69	  435.02
     22.1700	  570.00	  552.12	-1685.40	  434.69
     22.2700	  581.00	  551.84	-1674.11	  434.36
     22.3700	  544.00	  551.55	-1710.83	  434.03
     22.4700	  535.00	  551.27	-1719.55	  433.70
     22.5700	  572.00	  551.00	-1682.28	  433.37
     22.6700	  560.00	  550.73	-1694.01	  433.03
     22.7700	  535.00	  550.47	-1718.75	  432.70
     22.8700	  518.00	  550.22	-1735.49	  432.36
     22.9700	  531.00	  549.98	-1722.25	  432.03
     23.0700	  569.00	  549.75	-1684.03	  431.69
     23.1700	  571.00	  549.54	-1681.82	  431.36
     23.2700	  525.00	  549.51	-1727.78	  431.02
     23.3700	  554.00	  549.35	-1698.63	  430.68
     23.4700	  549.00	  549.24	-1703.51	  430.34
     23.5700	  525.00	  549.17	-1727.45	  430.00
     23.6700	  577.00	  549.19	-1675.46	  429.66
     23.7700	  593.00	  549.33	-1659.60	  429.32
     23.8700	  567.00	  549.70	-1685.98	  428.98
     23.9700	  490.00	  550.51	-1763.79	  428.64
     24.0700	  528.00	  552.10	-1727.37	  428.29
     24.1700	  587.00	  554.98	-1671.25	  427.95
     24.2700	  559.00	  559.78	-1704.05	  427.61
     24.3700	  551.00	  567.16	-1719.43	  427.26
     24.4700	  592.00	  577.57	-1688.84	  426.92
     24.5700	  615.00	  590.58	-1678.85	  426.58
     24.6700	  645.00	  603.71	-1661.99	  426.23
     24.7700	  618.00	  611.70	-1696.97	  425.89
     24.8700	  578.00	  608.22	-1733.50	  425.54
     24.9700	  600.00	  593.44	-1696.71	  425.20
     25.0700	  583.00	  575.98	-1696.25	  424.85
     25.1700	  597.00	  562.35	-1668.62	  424.51
     25.2700	  577.00	  553.87	-1680.15	  424.16
     25.3700	  560.00	  549.29	-1692.57	  423.82
     25.4700	  537.00	  546.92	-1713.20	  423.47
     25.5700	  538.00	  545.59	-1710.86	  423.13
     25.6700	  549.00	  544.71	-1698.99	  422.78
     25.7700	  566.00	  544.07	-1681.34	  422.43
     25.8700	  527.00	  543.58	-1719.85	  422.09
     25.9700	  551.00	  543.19	-1695.47	  421.74
     26.0700	  573.00	  542.90	-1673.17	  421.40
     26.1700	  514.00	  542.69	-1731.96	  421.05
     26.2700	  564.00	  542.55	-1681.82	  420.71
     26.3700	  513.00	  542.48	-1732.76	  420.36
     26.4700	  592.00	  542.51	-1653.78	  420.02
     26.5700	  518.00	  542.62	-1727.90	  419.67
     26.6700	  539.00	  542.84	-1707.12	  419.33
     26.7700	  550.00	  543.19	-1696.47	  418.98
     26.8700	  573.00	  543.71	-1673.98	  418.64
     26.9700	  574.00	  544.43	-1673.71	  418.30
     27.0700	  565.00	  545.45	-1683.72	  417.95
     27.1700	  531.00	  546.86	-1719.14	  417.61
     27.2700	  582.00	  548.93	-1670.20	  417.27
     27.3700	  588.00	  552.11	-1667.38	  416.92
     27.4700	  583.00	  557.33	-1677.60	  416.58
     27.5700	  574.00	  566.22	-1695.49	  416.24
     27.6700	  584.00	  581.37	-1700.64	  415.90
     27.7700	  552.00	  606.08	-1757.35	  415.56
     27.8700	  606.00	  643.15	-1740.43	  415.22
     27.9700	  646.00	  692.60	-1749.88	  414.88
     28.0700	  760.00	  748.62	-1691.89	  414.54
     28.1700	  873.00	  797.02	-1627.29	  414.20
     28.2700	  918.00	  816.88	-1602.16	  413.87
     28.3700	  870.00	  796.91	-1630.19	  413.53
     28.4700	  782.00	  758.17	-1679.44	  413.19
     28.5700	  686.00	  732.95	-1750.22	  412.86
     28.6700	  675.00	  735.09	-1763.36	  412.52
     28.7700	  701.00	  759.18	-1761.46	  412.19
     28.8700	  842.00	  786.00	-1647.28	  411.85
     28.9700	  815.00	  789.19	-1677.47	  411.52
     29.0700	  750.00	  753.11	-1706.39	  411.19
     29.1700	  714.00	  693.45	-1682.72	  410.86
     29.2700	  647.00	  636.86	-1693.14	  410.53
     29.3700	  576.00	  595.81	-1723.08	  410.20
     29.4700	  619.00	  570.66	-1654.94	  409.87
     29.5700	  561.00	  556.82	-1699.10	  409.54
     29.6700	  554.00	  549.40	-1698.67	  409.21
     29.7700	  545.00	  545.17	-1703.45	  408.88
     29.8700	  576.00	  542.55	-1669.83	  408.56
     29.9700	  543.00	  540.91	-1701.18	  408.23
     30.0700	  598.00	  540.10	-1645.37	  407.91
     30.1700	  538.00	  540.27	-1705.55	  407.59
     30.2700	  585.00	  541.95	-1660.22	  407.26
     30.3700	  538.00	  546.08	-1711.35	  406.94
     30.4700	  547.00	  554.09	-1710.36	  406.62
     30.5700	  535.00	  567.20	-1735.48	  406.30
     30.6700	  605.00	  585.56	-1683.84	  405.99
     30.7700	  632.00	  606.66	-1677.93	  405.67
     30.8700	  572.00	  624.40	-1755.67	  405.35
     30.9700	  642.00	  629.89	-1691.17	  405.04
     31.0700	  623.00	  617.56	-1697.84	  404.73
     31.1700	  589.00	  593.80	-1708.07	  404.41
     31.2700	  555.00	  570.04	-1718.31	  404.10
     31.3700	  562.00	  552.23	-1693.50	  403.79
     31.4700	  479.00	  541.06	-1765.34	  403.48
     31.5700	  566.00	  534.85	-1672.13	  403.17
     31.6700	  529.00	  531.54	-1705.82	  402.87
     31.7700	  531.00	  529.69	-1701.96	  402.56
     31.8700	  513.00	  528.54	-1718.81	  402.26
     31.9700	  525.00	  527.77	-1706.04	  401.95
     32.0700	  545.00	  527.25	-1685.52	  401.65
     32.1700	  608.00	  526.93	-1622.20	  401.35
     32.2700	  538.00	  526.79	-1692.06	  401.05
     32.3700	  578.00	  526.82	-1652.10	  400.75
     32.4700	  575.00	  527.05	-1655.32	  400.46
     32.5700	  510.00	  527.48	-1720.75	  400.16
     32.6700	  533.00	  528.15	-1698.43	  399.87
     32.7700	  557.00	  529.13	-1675.41	  399.57
     32.8700	  589.00	  530.52	-1644.79	  399.28
     32.9700	  522.00	  532.45	-1713.73	  398.99
     33.0700	  536.00	  535.24	-1702.51	  398.70
     33.1700	  543.00	  539.49	-1699.76	  398.42
     33.2700	  546.00	  546.53	-1703.81	  398.13
     33.3700	  528.00	  559.07	-1734.35	  397.84
     33.4700	  595.00	  581.93	-1690.20	  397.56
     33.5700	  572.00	  622.12	-1753.40	  397.28
     33.6700	  658.00	  686.82	-1732.09	  397.00
     33.7700	  787.00	  777.68	-1693.95	  396.72
     33.8700	  941.00	  883.43	-1645.71	  396.44
     33.9700	 1039.00	  975.53	-1639.81	  396.17
     34.0700	 1072.00	 1012.36	-1643.64	  395.89
     34.1700	 1046.00	  965.71	-1622.98	  395.62
     34.2700	  900.00	  859.59	-1662.87	  395.35
     34.3700	  748.00	  746.10	-1701.38	  395.08
     34.4700	  663.00	  656.62	-1696.89	  394.81
     34.5700	  590.00	  598.13	-1711.41	  394.54
     34.6700	  578.00	  564.67	-1689.94	  394.28
     34.7700	  525.00	  546.84	-1725.11	  394.01
     34.8700	  571.00	  537.15	-1669.42	  393.75
     34.9700	  528.00	  531.30	-1706.57	  393.49
     35.0700	  558.00	  527.29	-1672.57	  393.23
     35.1700	  535.00	  524.28	-1692.56	  392.97
     35.2700	  490.00	  521.91	-1735.19	  392.72
     35.3700	  561.00	  519.99	-1662.27	  392.46
     35.4700	  521.00	  518.40	-1700.68	  392.21
     35.5700	  533.00	  517.06	-1687.34	  391.96
     35.6700	  555.00	  515.91	-1664.19	  391.71
     35.7700	  466.00	  514.92	-1752.19	  391.46
     35.8700	  489.00	  514.05	-1728.32	  391.22
     35.9700	  507.00	  513.73	-1710.01	  390.97
     36.0700	  580.00	  513.05	-1636.33	  390.73
     36.1700	  534.00	  512.44	-1681.71	  390.49
     36.2700	  534.00	  511.89	-1681.16	  390.25
     36.3700	  507.00	  511.39	-1707.67	  390.01
     36.4700	  545.00	  510.95	-1669.22	  389.78
     36.5700	  530.00	  510.55	-1683.82	  389.54
     36.6700	  508.00	  510.20	-1705.48	  389.31
     36.7700	  496.00	  509.92	-1717.19	  389.08
     36.8700	  525.00	  509.73	-1688.00	  388.85
     36.9700	  511.00	  509.69	-1701.97	  388.62
     37.0700	  503.00	  509.96	-1710.24	  388.40
     37.1700	  512.00	  510.73	-1702.01	  388.17
     37.2700	  547.00	  512.27	-1668.55	  387.95
     37.3700	  532.00	  514.76	-1686.03	  387.73
     37.4700	  515.00	  518.03	-1706.31	  387.51
     37.5700	  539.00	  521.38	-1685.66	  387.30
     37.6700	  498.00	  523.58	-1728.86	  387.08
     37.7700	  517.00	  523.38	-1709.65	  386.87
     37.8700	  541.00	  520.73	-1683.01	  386.66
     37.9700	  473.00	  516.99	-1747.27	  386.45
     38.0700	  510.00	  513.39	-1706.66	  386.24
     38.1700	  516.00	  510.44	-1697.72	  386.03
     38.2700	  489.00	  508.27	-1722.55	  385.83
     38.3700	  538.00	  506.79	-1672.06	  385.63
     38.4700	  524.00	  505.80	-1685.07	  385.43
     38.5700	  486.00	  505.13	-1722.40	  385.23
     38.6700	  527.00	  504.55	-1680.83	  385.03
     38.7700	  507.00	  504.18	-1700.46	  384.84
     38.8700	  508.00	  504.03	-1699.30	  384.64
     38.9700	  458.00	  503.76	-1749.03	  384.45
     39.0700	  471.00	  503.51	-1735.79	  384.26
     39.1700	  483.00	  503.29	-1723.56	  384.08
     39.2700	  480.00	  503.07	-1726.35	  383.89
     39.3700	  508.00	  502.80	-1698.07	  383.71
     39.4700	  501.00	  502.61	-1704.89	  383.52
     39.5700	  468.00	  502.44	-1737.72	  383.34
     39.6700	  557.00	  502.28	-1648.55	  383.17
     39.7700	  499.00	  502.13	-1706.40	  382.99
     39.8700	  528.00	  501.98	-1677.26	  382.82
     39.9700	  483.00	  501.85	-1722.13	  382.64
     40.0700	  478.00	  501.73	-1727.01	  382.47
     40.1700	  522.00	  501.62	-1682.90	  382.30
     40.2700	  528.00	  501.53	-1676.80	  382.14
     40.3700	  485.00	  501.44	-1719.72	  381.97
     40.4700	  460.00	  501.38	-1744.65	  381.81
     40.5700	  513.00	  501.33	-1691.60	  381.65
     40.6700	  481.00	  501.29	-1723.57	  381.49
     40.7700	  489.00	  501.29	-1715.56	  381.33
     40.8700	  497.00	  501.30	-1707.58	  381.17
     40.9700	  464.00	  501.35	-1740.63	  381.02
     41.0700	  472.00	  501.44	-1732.71	  380.87
     41.1700	  486.00	  502.04	-1719.31	  380.72
     41.2700	  525.00	  502.24	-1680.51	  380.57
     41.3700	  469.00	  502.51	-1736.79	  380.43
     41.4700	  489.00	  502.86	-1717.13	  380.28
     41.5700	  487.00	  503.37	-1719.65	  380.14
     41.6700	  460.00	  504.11	-1747.38	  380.00
     41.7700	  561.00	  505.23	-1647.51	  379.86
     41.8700	  514.00	  507.11	-1696.39	  379.72
     41.9700	  474.00	  510.47	-1739.75	  379.59
     42.0700	  516.00	  516.58	-1703.86	  379.46
     42.1700	  549.00	  527.23	-1681.50	  379.33
     42.2700	  529.00	  544.18	-1718.46	  379.20
     42.3700	  506.00	  568.08	-1765.36	  379.07
     42.4700	  588.00	  596.60	-1711.88	  378.95
     42.5700	  560.00	  623.50	-1766.78	  378.82
     42.6700	  616.00	  639.18	-1726.46	  378.70
     42.7700	  596.00	  635.29	-1742.56	  378.58
     42.8700	  573.00	  613.41	-1743.68	  378.46
     42.9700	  550.00	  583.86	-1737.14	  378.35
     43.0700	  533.00	  556.15	-1726.42	  378.24
     43.1700	  492.00	  534.85	-1746.13	  378.12
     43.2700	  520.00	  520.76	-1704.03	  378.01
     43.3700	  509.00	  512.36	-1706.63	  377.91
     43.4700	  465.00	  507.70	-1745.97	  377.80
     43.5700	  497.00	  505.32	-1711.60	  377.70
     43.6700	  519.00	  503.81	-1688.08	  377.59
     43.7700	  506.00	  502.81	-1700.09	  377.49
     43.8700	  510.00	  502.10	-1695.37	  377.40
     43.9700	  496.00	  501.56	-1708.83	  377.30
     44.0700	  497.00	  501.13	-1707.41	  377.21
     44.1700	  523.00	  500.80	-1681.07	  377.11
     44.2700	  523.00	  500.54	-1680.81	  377.02
     44.3700	  445.00	  500.33	-1758.61	  376.93
     44.4700	  491.00	  500.17	-1712.45	  376.85
     44.5700	  483.00	  500.06	-1720.33	  376.76
     44.6700	  484.00	  499.98	-1719.25	  376.68
     44.7700	  504.00	  499.93	-1699.20	  376.60
     44.8700	  513.00	  499.91	-1690.18	  376.52
     44.9700	  497.00	  499.95	-1706.22	  376.44
     45.0700	  505.00	  499.98	-1698.26	  376.36
     45.1700	  507.00	  500.04	-1696.31	  376.29
     45.2700	  495.00	  500.12	-1708.40	  376.22
     45.3700	  502.00	  500.23	-1701.50	  376.15
     45.4700	  535.00	  500.36	-1668.64	  376.08
     45.5700	  504.00	  500.52	-1699.79	  376.01
     45.6700	  513.00	  500.70	-1690.98	  375.95
     45.7700	  490.00	  500.92	-1714.19	  375.89
     45.8700	  511.00	  501.16	-1693.44	  375.83
     45.9700	  486.00	  501.44	-1718.71	  375.77
     46.0700	  545.00	  501.76	-1660.03	  375.71
     46.1700	  544.00	  502.12	-1661.39	  375.65
     46.2700	  514.00	  502.52	-1691.80	  375.60
     46.3700	  497.00	  502.99	-1709.27	  375.55
     46.4700	  525.00	  503.52	-1681.80	  375.50
     46.5700	  469.00	  504.14	-1738.42	  375.45
     46.6700	  503.00	  504.86	-1705.13	  375.41
     46.7700	  496.00	  505.81	-1713.08	  375.36
     46.8700	  517.00	  506.89	-1693.16	  375.32
     46.9700	  510.00	  508.36	-1701.63	  375.28
     47.0700	  511.00	  510.53	-1702.80	  375.24
     47.1700	  518.00	  513.97	-1699.24	  375.20
     47.2700	  504.00	  519.57	-1718.84	  375.17
     47.3700	  480.00	  528.24	-1751.51	  375.13
     47.4700	  537.00	  540.76	-1707.04	  375.10
     47.5700	  580.00	  556.94	-1680.22	  375.07
     47.6700	  568.00	  575.01	-1710.28	  375.04
     47.7700	  581.00	  591.12	-1713.39	  375.02
     47.8700	  619.00	  600.09	-1684.37	  374.99
     47.9700	  599.00	  598.30	-1702.57	  374.97
     48.0700	  582.00	  587.25	-1708.52	  374.95
     48.1700	  544.00	  572.27	-1731.54	  374.93
     48.2700	  542.00	  558.19	-1719.47	  374.91
     48.3700	  520.00	  547.67	-1730.94	  374.89
     48.4700	  542.00	  541.48	-1702.76	  374.88
     48.5700	  545.00	  539.25	-1697.53	  374.87
     48.6700	  530.00	  540.14	-1713.41	  374.86
     48.7700	  559.00	  543.37	-1687.64	  374.85
     48.8700	  536.00	  548.54	-1715.82	  374.84
     48.9700	  557.00	  555.72	-1702.00	  374.83
     49.0700	  534.00	  565.91	-1735.19	  374.83
     49.1700	  593.00	  580.09	-1690.36	  374.83
     49.2700	  578.00	  602.07	-1727.34	  374.83
     49.3700	  606.00	  638.49	-1735.76	  374.83
     49.4700	  689.00	  700.44	-1714.72	  374.83
     49.5700	  744.00	  803.63	-1762.90	  374.83
     49.6700	  880.00	  965.66	-1788.93	  374.84
     49.7700	 1117.00	 1199.04	-1785.31	  374.85
     49.8700	 1451.00	 1500.80	-1753.08	  374.86
     49.9700	 1842.00	 1841.04	-1702.31	  374.87
     50.0700	 2207.00	 2154.44	-1650.72	  374.88
     50.1700	 2485.00	 2346.63	-1564.90	  374.89
     50.2700	 2419.00	 2337.31	-1621.58	  374.91
     50.3700	 2204.00	 2129.01	-1628.29	  374.93
     50.4700	 1780.00	 1808.12	-1731.39	  374.94
     50.5700	 1431.00	 1471.59	-1743.86	  374.96
     50.6700	 1063.00	 1181.66	-1821.93	  374.99
     50.7700	  812.00	  964.50	-1855.78	  375.01
     50.8700	  721.00	  819.84	-1802.12	  375.03
     50.9700	  640.00	  732.30	-1795.57	  375.06
     51.0700	  669.00	  681.63	-1715.90	  375.09
     51.1700	  596.00	  649.99	-1757.27	  375.12
     51.2700	  611.00	  626.14	-1718.41	  375.15
     51.3700	  638.00	  605.64	-1670.91	  375.18
     51.4700	  566.00	  587.92	-1725.19	  375.22
     51.5700	  578.00	  573.36	-1698.63	  375.25
     51.6700	  553.00	  562.17	-1712.45	  375.29
     51.7700	  578.00	  554.40	-1679.67	  375.33
     51.8700	  530.00	  549.02	-1722.29	  375.37
     51.9700	  530.00	  545.68	-1718.95	  375.41
     52.0700	  560.00	  543.87	-1687.14	  375.45
     52.1700	  548.00	  543.28	-1698.56	  375.50
     52.2700	  531.00	  543.83	-1716.11	  375.54
     52.3700	  590.00	  545.72	-1659.00	  375.59
     52.4700	  525.00	  549.58	-1727.85	  375.64
     52.5700	  542.00	  556.77	-1718.05	  375.69
     52.6700	  579.00	  569.90	-1694.18	  375.74
     52.7700	  627.00	  593.17	-1669.45	  375.79
     52.8700	  593.00	  632.36	-1742.63	  375.85
     52.9700	  746.00	  693.62	-1650.90	  375.90
     53.0700	  779.00	  781.01	-1705.29	  375.96
     53.1700	  917.00	  892.84	-1679.11	  376.02
     53.2700	 1036.00	 1018.14	-1685.41	  376.08
     53.3700	 1156.00	 1134.24	-1681.52	  376.14
     53.4700	 1219.00	 1208.87	-1693.15	  376.20
     53.5700	 1208.00	 1213.56	-1708.83	  376.27
     53.6700	 1081.00	 1145.82	-1768.09	  376.33
     53.7700	 1042.00	 1032.27	-1693.54	  376.40
     53.8700	  889.00	  906.56	-1720.83	  376.47
     53.9700	  794.00	  792.81	-1702.09	  376.54
     54.0700	  740.00	  703.10	-1666.38	  376.61
     54.1700	  660.00	  639.86	-1683.13	  376.68
     54.2700	  596.00	  599.37	-1706.64	  376.75
     54.3700	  584.00	  575.46	-1694.74	  376.83
     54.4700	  555.00	  562.21	-1710.48	  376.90
     54.5700	  563.00	  555.18	-1695.45	  376.98
     54.6700	  558.00	  551.66	-1696.94	  377.06
     54.7700	  577.00	  550.12	-1676.40	  377.14
     54.8700	  545.00	  549.89	-1708.16	  377.22
     54.9700	  574.00	  550.59	-1679.87	  377.30
     55.0700	  585.00	  552.21	-1670.49	  377.38
     55.1700	  568.00	  554.71	-1689.99	  377.46
     55.2700	  562.00	  558.15	-1699.43	  377.55
     55.3700	  557.00	  562.68	-1708.95	  377.64
     55.4700	  570.00	  568.54	-1701.82	  377.72
     55.5700	  605.00	  576.24	-1674.52	  377.81
     55.6700	  596.00	  586.75	-1694.03	  377.90
     55.7700	  588.00	  602.02	-1717.30	  377.99
     55.8700	  616.00	  625.80	-1713.07	  378.08
     55.9700	  635.00	  664.71	-1732.98	  378.18
     56.0700	  713.00	  729.25	-1719.52	  378.27
     56.1700	  745.00	  833.77	-1792.04	  378.36
     56.2700	  955.00	  994.28	-1742.56	  378.46
     56.3700	 1134.00	 1223.34	-1792.61	  378.56
     56.4700	 1480.00	 1522.30	-1745.58	  378.66
     56.5700	 1812.00	 1873.18	-1764.45	  378.76
     56.6700	 2250.00	 2231.83	-1685.11	  378.86
     56.7700	 2476.00	 2526.12	-1753.40	  378.96
     56.8700	 2592.00	 2670.46	-1781.74	  379.06
     56.9700	 2513.00	 2611.20	-1801.47	  379.16
     57.0700	 2362.00	 2371.08	-1712.36	  379.27
     57.1700	 2024.00	 2030.26	-1709.53	  379.37
     57.2700	 1657.00	 1671.02	-1717.30	  379.48
     57.3700	 1271.00	 1349.67	-1781.94	  379.58
     57.4700	 1038.00	 1094.40	-1759.68	  379.69
     57.5700	  902.00	  911.04	-1712.31	  379.80
     57.6700	  804.00	  791.01	-1690.28	  379.91
     57.7700	  717.00	  719.65	-1705.93	  380.02
     57.8700	  691.00	  682.76	-1695.04	  380.13
     57.9700	  707.00	  669.99	-1666.26	  380.24
     58.0700	  676.00	  675.59	-1702.86	  380.36
     58.1700	  725.00	  697.42	-1675.69	  380.47
     58.2700	  811.00	  735.25	-1627.53	  380.59
     58.3700	  798.00	  789.02	-1694.29	  380.70
     58.4700	  945.00	  857.21	-1615.49	  380.82
     58.5700	 1058.00	  935.44	-1580.71	  380.94
     58.6700	 1136.00	 1015.99	-1583.26	  381.05
     58.7700	 1219.00	 1090.12	-1574.40	  381.17
     58.8700	 1299.00	 1151.96	-1556.23	  381.29
     58.9700	 1393.00	 1198.07	-1508.35	  381.41
     59.0700	 1443.00	 1223.67	-1483.94	  381.54
     59.1700	 1419.00	 1224.78	-1509.06	  381.66
     59.2700	 1394.00	 1205.43	-1514.71	  381.78
     59.3700	 1312.00	 1177.37	-1568.64	  381.90
     59.4700	 1298.00	 1152.39	-1557.67	  382.03
     59.5700	 1193.00	 1138.75	-1649.02	  382.15
     59.6700	 1265.00	 1143.94	-1582.22	  382.28
     59.7700	 1213.00	 1176.21	-1666.48	  382.40
     59.8700	 1272.00	 1239.82	-1671.10	  382.53
     59.9700	 1366.00	 1329.37	-1666.65	  382.66
     60.0700	 1476.00	 1427.24	-1654.51	  382.79
     60.1700	 1609.00	 1504.60	-1598.88	  382.91
     60.2700	 1603.00	 1529.03	-1629.31	  383.04
     60.3700	 1505.00	 1481.92	-1680.19	  383.17
     60.4700	 1400.00	 1372.03	-1675.30	  383.30
     60.5700	 1241.00	 1227.24	-1689.51	  383.43
     60.6700	 1054.00	 1076.33	-1725.60	  383.57
     60.7700	  952.00	  939.93	-1691.20	  383.70
     60.8700	  788.00	  829.52	-1744.80	  383.83
     60.9700	  728.00	  749.00	-1724.28	  383.96
     61.0700	  700.00	  697.30	-1700.58	  384.10
     61.1700	  674.00	  671.27	-1700.55	  384.23
     61.2700	  685.00	  668.22	-1686.49	  384.37
     61.3700	  702.00	  687.58	-1688.86	  384.50
     61.4700	  724.00	  730.86	-1710.14	  384.64
     61.5700	  795.00	  800.50	-1708.78	  384.77
     61.6700	  839.00	  897.56	-1761.84	  384.91
     61.7700	  951.00	 1019.10	-1771.37	  385.05
     61.8700	 1083.00	 1155.80	-1776.07	  385.18
     61.9700	 1160.00	 1290.33	-1833.60	  385.32
     62.0700	 1377.00	 1397.52	-1723.79	  385.46
     62.1700	 1377.00	 1449.40	-1775.67	  385.60
     62.2700	 1329.00	 1428.88	-1803.15	  385.74
     62.3700	 1190.00	 1342.21	-1855.49	  385.88
     62.4700	 1178.00	 1214.19	-1739.47	  386.02
     62.5700	 1001.00	 1072.56	-1774.83	  386.16
     62.6700	  823.00	  938.46	-1818.74	  386.30
     62.7700	  741.00	  824.62	-1786.89	  386.44
     62.8700	  707.00	  736.19	-1732.46	  386.58
     62.9700	  648.00	  672.68	-1727.95	  386.72
     63.0700	  627.00	  630.13	-1706.40	  386.86
     63.1700	  569.00	  603.36	-1737.63	  387.00
     63.2700	  570.00	  587.54	-1720.81	  387.14
     63.3700	  584.00	  579.08	-1698.35	  387.28
     63.4700	  563.00	  575.84	-1716.11	  387.43
     63.5700	  558.00	  577.07	-1722.35	  387.57
     63.6700	  633.00	  583.16	-1653.44	  387.71
     63.7700	  630.00	  595.40	-1668.67	  387.86
     63.8700	  637.00	  615.57	-1681.84	  388.00
     63.9700	  691.00	  645.50	-1657.77	  388.14
     64.0700	  704.00	  686.24	-1685.52	  388.28
     64.1700	  733.00	  737.38	-1707.66	  388.43
     64.2700	  863.00	  796.19	-1636.47	  388.57
     64.3700	  851.00	  857.05	-1709.33	  388.72
     64.4700	  939.00	  911.40	-1675.67	  388.86
     64.5700	 1021.00	  948.73	-1631.01	  389.00
     64.6700	 1041.00	  962.35	-1624.62	  389.15
     64.7700	  983.00	  950.01	-1670.29	  389.29
     64.8700	  945.00	  916.07	-1674.34	  389.43
     64.9700	  975.00	  868.37	-1596.64	  389.58
     65.0700	  893.00	  815.65	-1625.93	  389.72
     65.1700	  782.00	  764.98	-1686.26	  389.87
     65.2700	  684.00	  720.42	-1739.69	  390.01
     65.3700	  714.00	  683.14	-1672.42	  390.16
     65.4700	  638.00	  652.73	-1718.01	  390.30
     65.5700	  599.00	  628.35	-1732.62	  390.44
     65.6700	  569.00	  609.23	-1743.51	  390.59
     65.7700	  572.00	  594.67	-1725.95	  390.73
     65.8700	  614.00	  583.99	-1673.26	  390.87
     65.9700	  576.00	  576.56	-1703.84	  391.02
     66.0700	  565.00	  571.99	-1710.26	  391.16
     66.1700	  537.00	  569.60	-1735.87	  391.31
     66.2700	  569.00	  569.12	-1703.40	  391.45
     66.3700	  572.00	  570.31	-1701.59	  391.59
     66.4700	  580.00	  573.05	-1696.33	  391.74
     66.5700	  571.00	  577.46	-1709.73	  391.88
     66.6700	  597.00	  584.02	-1690.29	  392.02
     66.7700	  581.00	  593.77	-1716.04	  392.16
     66.8700	  574.00	  608.64	-1737.92	  392.31
     66.9700	  594.00	  631.85	-1741.12	  392.45
     67.0700	  665.00	  668.26	-1706.54	  392.59
     67.1700	  737.00	  724.65	-1690.93	  392.73
     67.2700	  836.00	  808.86	-1676.14	  392.87
     67.3700	  918.00	  929.15	-1714.42	  393.01
     67.4700	 1122.00	 1091.58	-1672.85	  393.16
     67.5700	 1338.00	 1297.31	-1662.59	  393.30
     67.6700	 1543.00	 1539.77	-1700.05	  393.44
     67.7700	 1782.00	 1801.73	-1723.00	  393.58
     67.8700	 2137.00	 2054.87	-1621.15	  393.72
     67.9700	 2297.00	 2260.12	-1666.39	  393.86
     68.0700	 2328.00	 2374.70	-1749.97	  394.00
     68.1700	 2298.00	 2368.86	-1774.14	  394.13
     68.2700	 2256.00	 2244.53	-1691.80	  394.27
     68.3700	 1957.00	 2033.17	-1779.45	  394.41
     68.4700	 1807.00	 1778.03	-1674.30	  394.55
     68.5700	 1552.00	 1517.31	-1668.58	  394.68
     68.6700	 1246.00	 1278.30	-1735.57	  394.82
     68.7700	 1082.00	 1076.95	-1698.23	  394.96
     68.8700	  902.00	  919.14	-1720.41	  395.09
     68.9700	  755.00	  803.12	-1751.39	  395.23
     69.0700	  781.00	  722.45	-1644.73	  395.36
     69.1700	  622.00	  668.90	-1750.17	  395.50
     69.2700	  640.00	  634.51	-1697.79	  395.63
     69.3700	  611.00	  612.78	-1705.06	  395.77
     69.4700	  599.00	  598.99	-1703.27	  395.90
     69.5700	  602.00	  590.03	-1691.31	  396.03
     69.6700	  582.00	  584.03	-1705.30	  396.16
     69.7700	  599.00	  579.92	-1684.19	  396.30
     69.8700	  535.00	  577.09	-1745.36	  396.43
     69.9700	  583.00	  575.27	-1695.54	  396.56
     70.0700	  568.00	  574.30	-1709.58	  396.69
     70.1700	  626.00	  574.15	-1651.42	  396.82
     70.2700	  539.00	  574.85	-1739.12	  396.94
     70.3700	  558.00	  576.53	-1721.81	  397.07
     70.4700	  589.00	  579.53	-1693.81	  397.20
     70.5700	  556.00	  584.39	-1731.67	  397.33
     70.6700	  568.00	  592.13	-1727.40	  397.45
     70.7700	  570.00	  604.42	-1737.70	  397.58
     70.8700	  599.00	  623.88	-1728.15	  397.70
     70.9700	  659.00	  654.05	-1698.32	  397.83
     71.0700	  644.00	  699.59	-1758.87	  397.95
     71.1700	  721.00	  765.77	-1748.04	  398.07
     71.2700	  848.00	  857.50	-1712.78	  398.19
     71.3700	 1033.00	  978.11	-1648.38	  398.32
     71.4700	 1080.00	 1128.33	-1751.61	  398.44
     71.5700	 1236.00	 1301.66	-1768.93	  398.56
     71.6700	 1447.00	 1487.87	-1744.15	  398.68
     71.7700	 1624.00	 1669.23	-1748.50	  398.79
     71.8700	 1804.00	 1821.77	-1721.04	  398.91
     71.9700	 1862.00	 1918.66	-1759.94	  399.03
     72.0700	 1942.00	 1938.68	-1699.95	  399.14
     72.1700	 1881.00	 1876.94	-1699.21	  399.26
     72.2700	 1736.00	 1747.93	-1715.20	  399.37
     72.3700	 1608.00	 1577.21	-1672.48	  399.49
     72.4700	 1465.00	 1390.82	-1629.10	  399.60
     72.5700	 1271.00	 1209.55	-1641.83	  399.71
     72.6700	 1103.00	 1047.05	-1647.33	  399.82
     72.7700	 1012.00	  911.94	-1603.21	  399.93
     72.8700	  889.00	  805.88	-1620.15	  400.04
     72.9700	  810.00	  726.98	-1620.26	  400.15
     73.0700	  774.00	  670.93	-1600.20	  400.26
     73.1700	  701.00	  632.56	-1634.83	  400.36
     73.2700	  726.00	  606.94	-1584.22	  400.47
     73.3700	  654.00	  590.02	-1639.29	  400.57
     73.4700	  659.00	  578.76	-1623.04	  400.68
     73.5700	  630.00	  571.12	-1644.40	  400.78
     73.6700	  593.00	  565.80	-1676.07	  400.88
     73.7700	  572.00	  562.03	-1693.30	  400.98
     73.8700	  633.00	  559.36	-1629.63	  401.08
     73.9700	  544.00	  557.53	-1716.80	  401.18
     74.0700	  598.00	  556.36	-1661.64	  401.28
     74.1700	  592.00	  555.70	-1666.98	  401.37
     74.2700	  635.00	  555.40	-1623.68	  401.47
     74.3700	  526.00	  555.28	-1732.55	  401.56
     74.4700	  648.00	  555.14	-1610.42	  401.66
     74.5700	  608.00	  554.80	-1650.07	  401.75
     74.6700	  598.00	  554.11	-1659.38	  401.84
     74.7700	  595.00	  553.06	-1661.34	  401.93
     74.8700	  635.00	  551.78	-1620.06	  402.02
     74.9700	  624.00	  550.49	-1629.76	  402.11
     75.0700	  584.00	  549.44	-1668.71	  402.20
     75.1700	  609.00	  548.87	-1643.14	  402.28
     75.2700	  596.00	  549.21	-1656.48	  402.37
     75.3700	  608.00	  550.80	-1646.08	  402.45
     75.4700	  569.00	  554.11	-1688.38	  402.53
     75.5700	  570.00	  559.64	-1692.92	  402.61
     75.6700	  547.00	  567.83	-1724.11	  402.70
     75.7700	  585.00	  579.27	-1697.54	  402.77
     75.8700	  631.00	  594.17	-1666.45	  402.85
     75.9700	  692.00	  612.38	-1623.65	  402.93
     76.0700	  644.00	  633.26	-1692.54	  403.00
     76.1700	  681.00	  655.59	-1677.87	  403.08
     76.2700	  682.00	  677.52	-1698.79	  403.15
     76.3700	  706.00	  696.58	-1693.86	  403.22
     76.4700	  671.00	  710.01	-1742.28	  403.29
     76.5700	  696.00	  715.33	-1722.61	  403.36
     76.6700	  720.00	  711.44	-1694.71	  403.43
     76.7700	  665.00	  699.09	-1737.36	  403.50
     76.8700	  707.00	  680.57	-1676.84	  403.57
     76.9700	  647.00	  658.66	-1714.93	  403.63
     77.0700	  587.00	  635.69	-1751.97	  403.69
     77.1700	  619.00	  614.04	-1698.31	  403.75
     77.2700	  603.00	  594.82	-1695.09	  403.82
     77.3700	  545.00	  578.74	-1737.01	  403.87
     77.4700	  541.00	  565.99	-1728.26	  403.93
     77.5700	  552.00	  556.35	-1707.63	  403.99
     77.6700	  542.00	  549.37	-1710.65	  404.04
     77.7700	  539.00	  544.51	-1708.79	  404.10
     77.8700	  516.00	  541.22	-1728.49	  404.15
     77.9700	  554.00	  539.03	-1688.31	  404.20
     78.0700	  538.00	  537.60	-1702.87	  404.25
     78.1700	  522.00	  536.65	-1717.93	  404.30
     78.2700	  506.00	  536.04	-1733.31	  404.35
     78.3700	  480.00	  535.63	-1758.91	  404.39
     78.4700	  512.00	  535.39	-1726.67	  404.44
     78.5700	  518.00	  535.29	-1720.56	  404.48
     78.6700	  506.00	  535.31	-1732.58	  404.52
     78.7700	  531.00	  535.47	-1707.75	  404.56
     78.8700	  445.00	  535.80	-1794.07	  404.60
     78.9700	  492.00	  536.33	-1747.61	  404.64
     79.0700	  559.00	  537.12	-1681.39	  404.67
     79.1700	  511.00	  538.20	-1730.47	  404.71
     79.2700	  495.00	  539.63	-1747.91	  404.74
     79.3700	  533.00	  541.47	-1711.75	  404.77
     79.4700	  528.00	  543.58	-1718.85	  404.80
     79.5700	  550.00	  546.37	-1699.65	  404.83
     79.6700	  545.00	  549.72	-1708.00	  404.86
     79.7700	  550.00	  553.69	-1706.96	  404.89
     79.8700	  513.00	  558.37	-1748.64	  404.91
     79.9700	  567.00	  563.87	-1700.15	  404.93
     80.0700	  569.00	  570.40	-1704.67	  404.95
     80.1700	  501.00	  578.20	-1780.48	  404.97
     80.2700	  536.00	  587.62	-1754.89	  404.99
     80.3700	  575.00	  598.93	-1727.20	  405.01
     80.4700	  585.00	  612.27	-1730.54	  405.02
     80.5700	  613.00	  627.50	-1717.78	  405.04
     80.6700	  642.00	  644.18	-1705.45	  405.05
     80.7700	  637.00	  661.47	-1727.74	  405.06
     80.8700	  685.00	  678.23	-1696.51	  405.07
     80.9700	  656.00	  693.19	-1740.46	  405.08
     81.0700	  763.00	  705.17	-1645.45	  405.08
     81.1700	  740.00	  713.36	-1676.63	  405.09
     81.2700	  730.00	  717.26	-1690.53	  405.09
     81.3700	  727.00	  716.70	-1692.97	  405.09
     81.4700	  778.00	  711.85	-1637.13	  405.09
     81.5700	  733.00	  703.17	-1673.45	  405.09
     81.6700	  773.00	  691.26	-1621.54	  405.09
     81.7700	  721.00	  676.86	-1659.13	  405.08
     81.8700	  719.00	  660.87	-1645.14	  405.08
     81.9700	  666.00	  644.29	-1681.57	  405.07
     82.0700	  632.00	  628.08	-1699.35	  405.06
     82.1700	  714.00	  612.93	-1602.20	  405.05
     82.2700	  659.00	  599.29	-1643.56	  405.03
     82.3700	  565.00	  587.32	-1725.59	  405.02
     82.4700	  634.00	  577.22	-1646.49	  405.00
     82.5700	  587.00	  568.95	-1685.23	  404.98
     82.6700	  536.00	  562.49	-1729.76	  404.97
     82.7700	  563.00	  557.78	-1698.05	  404.94
     82.8700	  600.00	  554.72	-1658.00	  404.92
     82.9700	  507.00	  553.30	-1749.57	  404.90
     83.0700	  577.00	  553.41	-1679.68	  404.87
     83.1700	  546.00	  554.95	-1712.22	  404.84
     83.2700	  539.00	  557.79	-1722.07	  404.81
     83.3700	  565.00	  561.77	-1700.05	  404.78
     83.4700	  583.00	  566.61	-1686.89	  404.75
     83.5700	  575.00	  571.95	-1700.23	  404.72
     83.6700	  539.00	  577.33	-1741.61	  404.68
     83.7700	  581.00	  582.20	-1704.48	  404.64
     83.8700	  569.00	  585.95	-1720.23	  404.60
     83.9700	  583.00	  588.02	-1708.29	  404.56
     84.0700	  589.00	  588.02	-1702.30	  404.52
     84.1700	  554.00	  585.91	-1735.19	  404.48
     84.2700	  532.00	  581.98	-1753.26	  404.43
     84.3700	  564.00	  576.75	-1716.02	  404.38
     84.4700	  546.00	  570.77	-1728.05	  404.33
     84.5700	  576.00	  564.59	-1691.86	  404.28
     84.6700	  558.00	  558.61	-1703.89	  404.23
     84.7700	  522.00	  553.16	-1734.43	  404.18
     84.8700	  557.00	  548.41	-1694.68	  404.12
     84.9700	  549.00	  544.47	-1698.74	  404.06
     85.0700	  568.00	  541.33	-1676.61	  404.00
     85.1700	  478.00	  538.95	-1764.23	  403.94
     85.2700	  547.00	  537.24	-1693.51	  403.88
     85.3700	  555.00	  536.08	-1684.35	  403.81
     85.4700	  538.00	  535.39	-1700.66	  403.75
     85.5700	  504.00	  535.09	-1734.36	  403.68
     85.6700	  551.00	  535.15	-1687.42	  403.61
     85.7700	  513.00	  535.57	-1725.84	  403.54
     85.8700	  525.00	  536.38	-1714.66	  403.47
     85.9700	  523.00	  537.69	-1717.96	  403.39
     86.0700	  524.00	  539.61	-1718.89	  403.32
     86.1700	  552.00	  542.31	-1693.59	  403.24
     86.2700	  590.00	  545.99	-1659.26	  403.16
     86.3700	  555.00	  550.82	-1699.10	  403.08
     86.4700	  558.00	  556.99	-1702.26	  402.99
     86.5700	  582.00	  564.58	-1685.86	  402.91
     86.6700	  570.00	  573.60	-1706.88	  402.82
     86.7700	  614.00	  583.92	-1673.19	  402.74
     86.8700	  569.00	  595.20	-1729.48	  402.65
     86.9700	  579.00	  606.96	-1731.23	  402.55
     87.0700	  683.00	  618.14	-1638.42	  402.46
     87.1700	  597.00	  628.60	-1734.88	  402.37
     87.2700	  663.00	  637.02	-1677.29	  402.27
     87.3700	  672.00	  642.45	-1673.73	  402.17
     87.4700	  636.00	  644.22	-1711.49	  402.07
     87.5700	  688.00	  642.13	-1657.40	  401.97
     87.6700	  625.00	  636.55	-1714.82	  401.87
     87.7700	  627.00	  628.28	-1704.55	  401.76
     87.8700	  572.00	  618.34	-1749.61	  401.65
     87.9700	  634.00	  607.74	-1677.01	  401.54
     88.0700	  609.00	  597.41	-1691.68	  401.43
     88.1700	  593.00	  588.10	-1698.37	  401.32
     88.2700	  629.00	  580.38	-1654.65	  401.21
     88.3700	  597.00	  574.63	-1680.90	  401.09
     88.4700	  556.00	  571.04	-1718.31	  400.98
     88.5700	  575.00	  569.59	-1697.87	  400.86
     88.6700	  567.00	  570.14	-1706.41	  400.74
     88.7700	  571.00	  572.37	-1704.64	  400.62
     88.8700	  585.00	  575.87	-1694.15	  400.49
     88.9700	  666.00	  580.15	-1617.42	  400.37
     89.0700	  582.00	  584.63	-1705.90	  400.24
     89.1700	  563.00	  588.71	-1728.98	  400.11
     89.2700	  636.00	  591.79	-1659.07	  399.98
     89.3700	  612.00	  593.36	-1684.64	  399.85
     89.4700	  581.00	  593.11	-1715.38	  399.72
     89.5700	  614.00	  590.98	-1680.25	  399.58
     89.6700	  596.00	  587.19	-1694.47	  399.45
     89.7700	  580.00	  582.16	-1705.44	  399.31
     89.8700	  536.00	  576.36	-1743.63	  399.17
     89.9700	  562.00	  570.23	-1711.50	  399.03
     90.0700	  530.00	  564.16	-1737.43	  398.88
     90.1700	  522.00	  558.46	-1739.73	  398.74
     90.2700	  516.00	  553.34	-1740.62	  398.59
     90.3700	  531.00	  548.95	-1721.22	  398.44
     90.4700	  536.00	  545.32	-1712.59	  398.29
     90.5700	  491.00	  542.45	-1754.73	  398.14
     90.6700	  547.00	  540.30	-1696.58	  397.99
     90.7700	  511.00	  538.79	-1731.07	  397.83
     90.8700	  557.00	  537.84	-1684.12	  397.68
     90.9700	  503.00	  537.38	-1737.66	  397.52
     91.0700	  501.00	  537.36	-1739.64	  397.36
     91.1700	  503.00	  537.77	-1738.04	  397.20
     91.2700	  506.00	  538.61	-1735.88	  397.04
     91.3700	  490.00	  539.94	-1753.22	  396.87
     91.4700	  518.00	  541.87	-1727.15	  396.71
     91.5700	  513.00	  544.54	-1734.82	  396.54
     91.6700	  544.00	  548.13	-1707.40	  396.37
     91.7700	  551.00	  552.83	-1705.10	  396.20
     91.8700	  502.00	  558.87	-1760.14	  396.03
     91.9700	  541.00	  566.47	-1728.74	  395.86
     92.0700	  553.00	  575.80	-1726.08	  395.68
     92.1700	  553.00	  587.00	-1737.28	  395.51
     92.2700	  567.00	  599.86	-1736.14	  395.33
     92.3700	  564.00	  614.83	-1754.10	  395.15
     92.4700	  612.00	  631.44	-1722.72	  394.97
     92.5700	  631.00	  649.37	-1721.65	  394.79
     92.6700	  654.00	  668.13	-1717.40	  394.61
     92.7700	  672.00	  687.08	-1718.35	  394.42
     92.8700	  710.00	  705.47	-1698.75	  394.23
     92.9700	  687.00	  722.54	-1738.81	  394.05
     93.0700	  750.00	  737.63	-1690.91	  393.86
     93.1700	  790.00	  750.42	-1663.70	  393.67
     93.2700	  779.00	  760.96	-1685.24	  393.47
     93.3700	  774.00	  769.65	-1698.92	  393.28
     93.4700	  774.00	  777.05	-1706.32	  393.09
     93.5700	  826.00	  783.74	-1661.02	  392.89
     93.6700	  830.00	  790.25	-1663.53	  392.69
     93.7700	  830.00	  797.02	-1670.30	  392.49
     93.8700	  883.00	  804.50	-1624.77	  392.29
     93.9700	  854.00	  813.17	-1662.45	  392.09
     94.0700	  878.00	  823.47	-1648.74	  391.89
     94.1700	  845.00	  835.62	-1693.89	  391.68
     94.2700	  861.00	  849.48	-1691.75	  391.48
     94.3700	  844.00	  864.46	-1723.73	  391.27
     94.4700	  952.00	  879.52	-1630.79	  391.06
     94.5700	  894.00	  893.21	-1702.48	  390.85
     94.6700	  921.00	  903.80	-1686.07	  390.64
     94.7700	  934.00	  909.51	-1678.78	  390.43
     94.8700	  857.00	  908.88	-1755.15	  390.22
     94.9700	  853.00	  901.15	-1751.43	  390.00
     95.0700	  885.00	  886.51	-1704.79	  389.79
     95.1700	  872.00	  866.01	-1697.29	  389.57
     95.2700	  807.00	  841.32	-1737.59	  389.35
     95.3700	  799.00	  814.37	-1718.64	  389.13
     95.4700	  774.00	  787.13	-1716.41	  388.91
     95.5700	  766.00	  761.48	-1698.75	  388.69
     95.6700	  727.00	  739.11	-1715.39	  388.47
     95.7700	  669.00	  721.60	-1755.87	  388.24
     95.8700	  683.00	  710.30	-1730.58	  388.02
     95.9700	  694.00	  706.42	-1715.70	  387.79
     96.0700	  683.00	  710.98	-1731.25	  387.56
     96.1700	  743.00	  724.79	-1685.07	  387.34
     96.2700	  757.00	  748.47	-1694.75	  387.11
     96.3700	  747.00	  782.37	-1738.64	  386.87
     96.4700	  852.00	  826.46	-1677.74	  386.64
     96.5700	  900.00	  880.31	-1683.59	  386.41
     96.6700	  934.00	  942.94	-1712.21	  386.18
     96.7700	  940.00	 1012.79	-1776.06	  385.94
     96.8700	 1037.00	 1087.66	-1753.94	  385.71
     96.9700	 1191.00	 1164.66	-1676.93	  385.47
     97.0700	 1170.00	 1240.25	-1773.52	  385.23
     97.1700	 1315.00	 1310.33	-1698.60	  384.99
     97.2700	 1394.00	 1370.48	-1679.75	  384.75
     97.3700	 1395.00	 1416.31	-1724.59	  384.51
     97.4700	 1498.00	 1444.15	-1649.42	  384.27
     97.5700	 1459.00	 1451.74	-1696.01	  384.03
     97.6700	 1429.00	 1438.81	-1713.09	  383.78
     97.7700	 1423.00	 1407.09	-1687.36	  383.54
     97.8700	 1312.00	 1359.76	-1751.04	  383.30
     97.9700	 1306.00	 1300.88	-1698.15	  383.05
     98.0700	 1221.00	 1234.69	-1716.96	  382.80
     98.1700	 1176.00	 1165.31	-1692.58	  382.56
     98.2700	 1035.00	 1096.47	-1764.75	  382.31
     98.3700	 1003.00	 1031.39	-1731.67	  382.06
     98.4700	  951.00	  972.88	-1725.16	  381.81
     98.5700	  940.00	  923.14	-1686.41	  381.56
     98.6700	  864.00	  883.94	-1723.22	  381.31
     98.7700	  771.00	  856.62	-1788.89	  381.06
     98.8700	  836.00	  842.16	-1709.43	  380.80
     98.9700	  809.00	  841.24	-1735.51	  380.55
     99.0700	  769.00	  854.30	-1788.57	  380.30
     99.1700	  889.00	  881.53	-1695.80	  380.04
     99.2700	  878.00	  922.89	-1748.17	  379.79
     99.3700	 1038.00	  978.11	-1643.38	  379.53
     99.4700	  999.00	 1046.53	-1750.81	  379.27
     99.5700	 1099.00	 1127.16	-1731.43	  379.02
     99.6700	 1243.00	 1218.46	-1678.73	  378.76
     99.7700	 1325.00	 1318.31	-1696.58	  378.50
     99.8700	 1450.00	 1423.97	-1677.25	  378.24
     99.9700	 1568.00	 1531.99	-1667.26	  377.99
    100.0700	 1603.00	 1638.34	-1738.62	  377.73
    100.1700	 1723.00	 1738.66	-1718.93	  377.47
    100.2700	 1793.00	 1828.60	-1738.87	  377.21
    100.3700	 1977.00	 1904.38	-1630.65	  376.95
    100.4700	 2038.00	 1963.09	-1628.36	  376.68
    100.5700	 2059.00	 2002.79	-1647.07	  376.42
    100.6700	 2093.00	 2022.33	-1632.60	  376.16
    100.7700	 2041.00	 2021.09	-1683.37	  375.90
    100.8700	 1992.00	 1999.08	-1710.35	  375.64
    100.9700	 1952.00	 1957.20	-1708.47	  375.38
    101.0700	 1909.00	 1897.58	-1691.85	  375.11
    101.1700	 1866.00	 1823.66	-1660.94	  374.85
    101.2700	 1713.00	 1739.93	-1730.20	  374.59
    101.3700	 1574.00	 1651.28	-1780.55	  374.32
    101.4700	 1524.00	 1562.47	-1741.75	  374.06
    101.5700	 1462.00	 1477.61	-1718.88	  373.80
    101.6700	 1345.00	 1399.89	-1758.17	  373.53
    101.7700	 1424.00	 1331.55	-1610.82	  373.27
    101.8700	 1334.00	 1273.76	-1643.03	  373.01
    101.9700	 1200.00	 1226.74	-1730.02	  372.74
    102.0700	 1230.00	 1189.79	-1663.06	  372.48
    102.1700	 1139.00	 1161.40	-1725.68	  372.21
    102.2700	 1152.00	 1139.47	-1690.75	  371.95
    102.3700	 1119.00	 1121.47	-1705.75	  371.69
    102.4700	 1090.00	 1104.73	-1718.00	  371.42
    102.5700	 1053.00	 1086.75	-1737.02	  371.16
    102.6700	 1106.00	 1065.57	-1662.84	  370.90
    102.7700	 1029.00	 1040.01	-1714.28	  370.63
    102.8700	  974.00	 1009.76	-1739.03	  370.37
    102.9700	  945.00	  975.24	-1733.52	  370.11
    103.0700	  916.00	  937.38	-1724.66	  369.84
    103.1700	  885.00	  897.37	-1715.64	  369.58
    103.2700	  899.00	  856.48	-1660.76	  369.32
    103.3700	  824.00	  815.91	-1695.19	  369.06
    103.4700	  730.00	  776.75	-1750.03	  368.80
    103.5700	  738.00	  739.88	-1705.16	  368.53
    103.6700	  706.00	  706.00	-1703.28	  368.27
    103.7700	  716.00	  675.57	-1662.85	  368.01
    103.8700	  678.00	  648.84	-1674.12	  367.75
    103.9700	  693.00	  625.88	-1636.15	  367.49
    104.0700	  603.00	  606.56	-1706.84	  367.23
    104.1700	  643.00	  590.66	-1650.94	  366.98
    104.2700	  573.00	  577.86	-1708.14	  366.72
    104.3700	  601.00	  567.79	-1670.07	  366.46
    104.4700	  570.00	  560.07	-1693.34	  366.20
    104.5700	  556.00	  554.31	-1701.59	  365.95
    104.6700	  520.00	  550.19	-1733.47	  365.69
    104.7700	  526.00	  547.40	-1724.68	  365.44
    104.8700	  562.00	  545.67	-1686.95	  365.18
    104.9700	  499.00	  544.84	-1749.11	  364.93
    105.0700	  549.00	  544.72	-1698.99	  364.68
    105.1700	  572.00	  545.21	-1676.48	  364.42
    105.2700	  556.00	  546.23	-1693.50	  364.17
    105.3700	  569.00	  547.77	-1682.05	  363.92
    105.4700	  552.00	  549.82	-1701.10	  363.67
    105.5700	  543.00	  552.44	-1712.71	  363.43
    105.6700	  514.00	  555.67	-1744.95	  363.18
    105.7700	  543.00	  559.61	-1719.89	  362.93
    105.8700	  534.00	  564.34	-1733.61	  362.69
    105.9700	  539.00	  569.92	-1734.20	  362.44
    106.0700	  553.00	  576.41	-1726.68	  362.20
    106.1700	  583.00	  583.79	-1704.07	  361.96
    106.2700	  655.00	  592.03	-1640.30	  361.72
    106.3700	  570.00	  601.01	-1734.29	  361.48
    106.4700	  608.00	  610.59	-1705.86	  361.24
    106.5700	  636.00	  620.52	-1687.80	  361.00
    106.6700	  569.00	  630.56	-1764.83	  360.77
    106.7700	  665.00	  640.39	-1678.66	  360.53
    106.8700	  692.00	  649.66	-1660.93	  360.30
    106.9700	  678.00	  658.04	-1683.31	  360.07
    107.0700	  644.00	  665.20	-1724.48	  359.83
    107.1700	  697.00	  670.92	-1677.20	  359.61
    107.2700	  696.00	  675.08	-1682.35	  359.38
    107.3700	  723.00	  677.71	-1657.99	  359.15
    107.4700	  691.00	  679.03	-1691.31	  358.93
    107.5700	  706.00	  679.36	-1676.63	  358.70
    107.6700	  678.00	  679.08	-1704.35	  358.48
    107.7700	  661.00	  678.59	-1720.87	  358.26
    107.8700	  674.00	  678.27	-1707.54	  358.04
    107.9700	  644.00	  678.38	-1737.66	  357.83
    108.0700	  722.00	  679.12	-1660.39	  357.61
    108.1700	  652.00	  680.55	-1731.82	  357.40
    108.2700	  700.00	  682.62	-1685.90	  357.19
    108.3700	  724.00	  685.19	-1664.46	  356.98
    108.4700	  723.00	  687.97	-1668.25	  356.77
    108.5700	  712.00	  690.63	-1681.90	  356.57
    108.6700	  657.00	  692.73	-1739.00	  356.36
    108.7700	  680.00	  693.84	-1717.11	  356.16
    108.8700	  706.00	  693.54	-1690.81	  355.96
    108.9700	  674.00	  691.51	-1720.78	  355.77
    109.0700	  732.00	  687.56	-1658.83	  355.57
    109.1700	  682.00	  681.68	-1702.96	  355.38
    109.2700	  632.00	  674.02	-1745.29	  355.19
    109.3700	  659.00	  664.83	-1709.10	  355.00
    109.4700	  676.00	  654.46	-1681.74	  354.81
    109.5700	  635.00	  643.30	-1711.57	  354.63
    109.6700	  665.00	  631.71	-1669.98	  354.45
    109.7700	  602.00	  620.06	-1721.34	  354.27
    109.8700	  663.00	  608.67	-1648.94	  354.09
    109.9700	  638.00	  597.81	-1663.08	  353.92
    110.0700	  617.00	  587.69	-1673.97	  353.75
    110.1700	  592.00	  578.49	-1689.77	  353.58
    110.2700	  535.00	  570.32	-1738.60	  353.41
    110.3700	  582.00	  563.24	-1684.51	  353.25
    110.4700	  539.00	  557.26	-1721.53	  353.08
    110.5700	  519.00	  552.35	-1736.63	  352.93
    110.6700	  553.00	  548.47	-1698.75	  352.77
    110.7700	  524.00	  545.54	-1724.81	  352.62
    110.8700	  582.00	  543.46	-1664.74	  352.47
    110.9700	  588.00	  542.14	-1657.42	  352.32
    111.0700	  545.00	  541.48	-1699.76	  352.18
    111.1700	  546.00	  541.40	-1698.67	  352.03
    111.2700	  545.00	  541.80	-1700.07	  351.90
    111.3700	  557.00	  542.61	-1688.89	  351.76
    111.4700	  539.00	  543.78	-1708.05	  351.63
    111.5700	  541.00	  545.24	-1707.51	  351.50
    111.6700	  530.00	  546.96	-1720.23	  351.37
    111.7700	  507.00	  548.91	-1745.19	  351.25
    111.8700	  559.00	  551.07	-1695.35	  351.13
    111.9700	  523.00	  553.44	-1733.72	  351.02
    112.0700	  551.00	  556.01	-1708.29	  350.90
    112.1700	  595.00	  558.80	-1667.08	  350.79
    112.2700	  533.00	  561.83	-1732.11	  350.69
    112.3700	  583.00	  565.13	-1685.40	  350.59
    112.4700	  554.00	  568.73	-1718.01	  350.49
    112.5700	  604.00	  572.69	-1671.97	  350.39
    112.6700	  593.00	  577.09	-1687.36	  350.30
    112.7700	  588.00	  581.99	-1697.27	  350.21
    112.8700	  589.00	  587.53	-1701.81	  350.13
    112.9700	  662.00	  593.85	-1635.12	  350.05
    113.0700	  647.00	  601.13	-1657.41	  349.97
    113.1700	  638.00	  609.64	-1674.91	  349.90
    113.2700	  680.00	  619.68	-1642.95	  349.83
    113.3700	  675.00	  631.67	-1659.95	  349.77
    113.4700	  714.00	  646.13	-1635.40	  349.71
    113.5700	  673.00	  663.70	-1693.97	  349.65
    113.6700	  753.00	  685.17	-1635.44	  349.60
    113.7700	  778.00	  711.54	-1636.82	  349.55
    113.8700	  832.00	  743.97	-1615.25	  349.50
    113.9700	  844.00	  783.83	-1643.11	  349.46
    114.0700	  917.00	  832.72	-1619.00	  349.43
    114.1700	  966.00	  892.44	-1629.72	  349.40
    114.2700	 1063.00	  964.99	-1605.27	  349.37
    114.3700	 1132.00	 1052.55	-1623.83	  349.35
    114.4700	 1207.00	 1157.38	-1653.66	  349.33
    114.5700	 1365.00	 1281.83	-1620.10	  349.32
    114.6700	 1512.00	 1428.14	-1619.41	  349.31
    114.7700	 1655.00	 1598.36	-1646.64	  349.31
    114.8700	 1888.00	 1794.33	-1609.60	  349.31
    114.9700	 2189.00	 2017.28	-1531.55	  349.31
    115.0700	 2379.00	 2267.98	-1592.25	  349.32
    115.1700	 2613.00	 2546.31	-1636.59	  349.34
    115.2700	 2960.00	 2851.23	-1594.51	  349.36
    115.3700	 3154.00	 3180.80	-1730.08	  349.38
    115.4700	 3486.00	 3531.74	-1749.02	  349.42
    115.5700	 3783.00	 3899.79	-1820.07	  349.45
    115.6700	 4146.00	 4279.31	-1836.59	  349.49
    115.7700	 4520.00	 4663.44	-1846.71	  349.54
    115.8700	 4753.00	 5044.33	-1994.60	  349.59
    115.9700	 5267.00	 5412.86	-1849.13	  349.65
    116.0700	 5593.00	 5759.27	-1869.55	  349.71
    116.1700	 5968.00	 6073.03	-1808.30	  349.77
    116.2700	 6401.00	 6343.45	-1645.72	  349.85
    116.3700	 6588.00	 6560.45	-1675.73	  349.93
    116.4700	 6633.00	 6715.05	-1785.33	  350.01
    116.5700	 6683.00	 6800.55	-1820.82	  350.10
    116.6700	 6733.00	 6813.10	-1783.37	  350.19
    116.7700	 6760.00	 6752.41	-1695.69	  350.29
    116.8700	 6682.00	 6621.62	-1642.90	  350.40
    116.9700	 6408.00	 6427.02	-1722.30	  350.51
    117.0700	 6220.00	 6177.09	-1660.36	  350.63
    117.1700	 5722.00	 5881.78	-1863.06	  350.76
    117.2700	 5459.00	 5551.67	-1795.94	  350.89
    117.3700	 5214.00	 5197.08	-1686.35	  351.02
    117.4700	 4823.00	 4827.99	-1708.26	  351.17
    117.5700	 4582.00	 4453.32	-1574.59	  351.32
    117.6700	 4132.00	 4081.11	-1652.38	  351.47
    117.7700	 3852.00	 3718.25	-1569.53	  351.63
    117.8700	 3548.00	 3370.27	-1525.54	  351.80
    117.9700	 3138.00	 3041.67	-1606.95	  351.98
    118.0700	 2825.00	 2735.62	-1613.89	  352.16
    118.1700	 2621.00	 2454.30	-1536.57	  352.35
    118.2700	 2190.00	 2198.90	-1712.17	  352.54
    118.3700	 1998.00	 1969.63	-1674.90	  352.74
    118.4700	 1766.00	 1766.09	-1703.37	  352.95
    118.5700	 1566.00	 1587.19	-1724.46	  353.16
    118.6700	 1321.00	 1431.45	-1813.73	  353.39
    118.7700	 1206.00	 1297.08	-1794.36	  353.61
    118.8700	 1134.00	 1182.03	-1751.30	  353.85
    118.9700	 1032.00	 1084.24	-1755.51	  354.09
    119.0700	  985.00	 1001.59	-1719.86	  354.34
    119.1700	  881.00	  932.10	-1754.37	  354.60
    119.2700	  811.00	  873.91	-1766.18	  354.86
    119.3700	  792.00	  825.30	-1736.57	  355.13
    119.4700	  726.00	  784.77	-1762.05	  355.41
    119.5700	  695.00	  751.01	-1759.28	  355.70
    119.6700	  670.00	  722.87	-1756.14	  355.99
    119.7700	  705.00	  699.40	-1697.68	  356.30
    119.8700	  662.00	  679.81	-1721.08	  356.60
    119.9700	  616.00	  663.42	-1750.69	  356.92
    120.0700	  624.00	  649.69	-1728.97	  357.25
    120.1700	  597.00	  638.19	-1744.46	  357.58
    120.2700	  628.00	  628.55	-1703.83	  357.92
    120.3700	  585.00	  620.50	-1738.78	  358.27
    120.4700	  566.00	  613.80	-1751.08	  358.62
    120.5700	  559.00	  608.28	-1752.55	  358.99
    120.6700	  540.00	  603.78	-1767.05	  359.36
    120.7700	  579.00	  600.19	-1724.46	  359.74
    120.8700	  606.00	  597.43	-1694.70	  360.13
    120.9700	  598.00	  595.42	-1700.69	  360.53
    121.0700	  535.00	  594.10	-1762.37	  360.94
    121.1700	  593.00	  593.43	-1703.70	  361.35
    121.2700	  533.00	  593.35	-1763.63	  361.77
    121.3700	  568.00	  593.83	-1729.11	  362.21
    121.4700	  571.00	  594.83	-1727.10	  362.65
    121.5700	  568.00	  596.29	-1731.57	  363.10
    121.6700	  583.00	  598.17	-1718.45	  363.56
    121.7700	  612.00	  600.42	-1691.69	  364.02
    121.8700	  593.00	  602.96	-1713.24	  364.50
    121.9700	  630.00	  605.74	-1679.01	  364.98
    122.0700	  599.00	  608.67	-1712.94	  365.48
    122.1700	  620.00	  611.65	-1694.93	  365.98
    122.2700	  631.00	  614.65	-1686.92	  366.50
    122.3700	  659.00	  617.54	-1661.81	  367.02
    122.4700	  685.00	  620.23	-1638.51	  367.55
    122.5700	  655.00	  622.64	-1670.92	  368.09
    122.6700	  626.00	  624.69	-1701.97	  368.64
    122.7700	  624.00	  626.31	-1705.58	  369.20
    122.8700	  608.00	  627.45	-1722.72	  369.78
    122.9700	  658.00	  628.08	-1673.35	  370.36
    123.0700	  659.00	  628.17	-1672.45	  370.95
    123.1700	  643.00	  627.78	-1688.05	  371.55
    123.2700	  612.00	  626.90	-1718.18	  372.16
    123.3700	  612.00	  625.59	-1716.86	  372.78
    123.4700	  663.00	  623.88	-1664.15	  373.41
    123.5700	  645.00	  621.83	-1680.11	  374.05
    123.6700	  653.00	  619.51	-1669.78	  374.70
    123.7700	  647.00	  616.97	-1673.24	  375.36
    123.8700	  575.00	  614.26	-1742.54	  376.03
    123.9700	  635.00	  611.47	-1679.74	  376.72
    124.0700	  651.00	  608.62	-1660.90	  377.41
    124.1700	  619.00	  605.79	-1690.07	  378.11
    124.2700	  632.00	  603.02	-1674.29	  378.83
    124.3700	  626.00	  600.34	-1677.61	  379.56
    124.4700	  577.00	  597.79	-1724.07	  380.29
    124.5700	  577.00	  595.41	-1721.68	  381.04
    124.6700	  567.00	  593.21	-1729.48	  381.80
    124.7700	  609.00	  591.22	-1685.49	  382.57
    124.8700	  581.00	  589.45	-1711.73	  383.35
    124.9700	  603.00	  500.58	-1600.85	  384.14
    125.0700	  619.00	  501.38	-1703.27	  384.95
    125.1700	  573.00	  502.20	-1703.27	  385.76
    125.2700	  588.00	  503.03	-1703.27	  386.59
    125.3700	  576.00	  503.87	-1703.27	  387.43
    125.4700	  579.00	  504.72	-1703.27	  388.28
    125.5700	  537.00	  505.58	-1703.27	  389.14
    125.6700	  547.00	  506.45	-1703.27	  390.02
    125.7700	  578.00	  507.34	-1703.27	  390.90
    125.8700	  559.00	  508.24	-1703.27	  391.80
    125.9700	  596.00	  509.15	-1703.27	  392.71
    126.0700	  626.00	  510.07	-1703.27	  393.64
    126.1700	  523.00	  511.01	-1703.27	  394.57
    126.2700	  617.00	  511.96	-1703.27	  395.52
    126.3700	  635.00	  512.92	-1703.27	  396.48
    126.4700	  575.00	  513.89	-1703.27	  397.45
    126.5700	  622.00	  514.88	-1703.27	  398.44
    126.6700	  559.00	  515.87	-1703.27	  399.44
    126.7700	  630.00	  516.89	-1703.27	  400.45
    126.8700	  642.00	  517.91	-1703.27	  401.47
    126.9700	  650.00	  518.95	-1703.27	  402.51
    127.0700	  647.00	  520.00	-1703.27	  403.56
    127.1700	  639.00	  521.06	-1703.27	  404.63
    127.2700	  664.00	  522.14	-1703.27	  405.70
    127.3700	  657.00	  523.23	-1703.27	  406.79
    127.4700	  631.00	  524.33	-1703.27	  407.90
    127.5700	  678.00	  525.45	-1703.27	  409.01
    127.6700	  720.00	  526.58	-1703.27	  410.15
    127.7700	  710.00	  527.73	-1703.27	  411.29
    127.8700	  719.00	  528.88	-1703.27	  412.45
    127.9700	  773.00	  530.06	-1703.27	  413.62
    128.0700	  748.00	  531.24	-1703.27	  414.81
    128.1700	  775.00	  532.44	-1703.27	  416.01
    128.2700	  762.00	  533.66	-1703.27	  417.22
    128.3700	  794.00	  534.89	-1703.27	  418.45
    128.4700	  783.00	  536.13	-1703.27	  419.70
    128.5700	    0.00	  537.39	-1703.27	  420.95
    128.6700	    0.00	  538.66	-1703.27	  422.23
     12.3024	        	        	        	        	       0	(  0  0  2)	  0  1
     24.8808	        	        	        	        	       0	(  0  0  4)	  0  1
     28.3284	        	        	        	        	       0	(  1  0  0)	  0  1
     29.0252	        	        	        	        	       0	(  1  0  1)	  0  1
     31.0302	        	        	        	        	       0	(  1  0  2)	  0  1
     34.1367	        	        	        	        	       0	(  1  0  3)	  0  1
     37.7748	        	        	        	        	       0	(  0  0  6)	  0  1
     38.1116	        	        	        	        	       0	(  1  0  4)	  0  1
     42.7592	        	        	        	        	       0	(  1  0  5)	  0  1
     47.9404	        	        	        	        	       0	(  1  0  6)	  0  1
     50.2622	        	        	        	        	       0	(  1  1  0)	  0  1
     51.1903	        	        	        	        	       0	(  0  0  8)	  0  1
     51.9841	        	        	        	        	       0	(  1  1  2)	  0  1
     53.5678	        	        	        	        	       0	(  1  0  7)	  0  1
     56.9288	        	        	        	        	       0	(  1  1  4)	  0  1
     58.7578	        	        	        	        	       0	(  2  0  0)	  0  1
     59.1492	        	        	        	        	       0	(  2  0  1)	  0  1
     59.5949	        	        	        	        	       0	(  1  0  8)	  0  1
     60.3138	        	        	        	        	       0	(  2  0  2)	  0  1
     62.2257	        	        	        	        	       0	(  2  0  3)	  0  1
     64.6187	        	        	        	        	       0	(  1  1  6)	  0  1
     64.8481	        	        	        	        	       0	(  2  0  4)	  0  1
     65.4119	        	        	        	        	       0	(  0  0 10)	  0  1
     66.0075	        	        	        	        	       0	(  1  0  9)	  0  1
     68.1401	        	        	        	        	       0	(  2  0  5)	  0  1
     72.0650	        	        	        	        	       0	(  2  0  6)	  0  1
     72.8194	        	        	        	        	       0	(  1  0 10)	  0  1
     74.6498	        	        	        	        	       0	(  1  1  8)	  0  1
     76.5960	        	        	        	        	       0	(  2  0  7)	  0  1
     80.0723	        	        	        	        	       0	(  1  0 11)	  0  1
     80.8826	        	        	        	        	       0	(  0  0 12)	  0  1
     80.9949	        	        	        	        	       0	(  2  1  0)	  0  1
     81.3345	        	        	        	        	       0	(  2  1  1)	  0  1
     81.7227	        	        	        	        	       0	(  2  0  8)	  0  1
     82.3516	        	        	        	        	       0	(  2  1  2)	  0  1
     84.0417	        	        	        	        	       0	(  2  1  3)	  0  1
     86.3996	        	        	        	        	       0	(  2  1  4)	  0  1
     86.9125	        	        	        	        	       0	(  1  1 10)	  0  1
     87.4565	        	        	        	        	       0	(  2  0  9)	  0  1
     87.8408	        	        	        	        	       0	(  1  0 12)	  0  1
     89.4230	        	        	        	        	       0	(  2  1  5)	  0  1
     93.1176	        	        	        	        	       0	(  2  1  6)	  0  1
     93.8388	        	        	        	        	       0	(  2  0 10)	  0  1
     94.8804	        	        	        	        	       0	(  3  0  0)	  0  1
     95.2175	        	        	        	        	       0	(  3  0  1)	  0  1
     96.2299	        	        	        	        	       0	(  3  0  2)	  0  1
     96.2471	        	        	        	        	       0	(  1  0 13)	  0  1
     97.5025	        	        	        	        	       0	(  2  1  7)	  0  1
     97.9218	        	        	        	        	       0	(  3  0  3)	  0  1
     98.4077	        	        	        	        	       0	(  0  0 14)	  0  1
    100.3028	        	        	        	        	       0	(  3  0  4)	  0  1
    100.9544	        	        	        	        	       0	(  2  0 11)	  0  1
    101.7702	        	        	        	        	       0	(  1  1 12)	  0  1
    102.6205	        	        	        	        	       0	(  2  1  8)	  0  1
    103.3918	        	        	        	        	       0	(  3  0  5)	  0  1
    105.4907	        	        	        	        	       0	(  1  0 14)	  0  1
    107.2234	        	        	        	        	       0	(  3  0  6)	  0  1
    108.5518	        	        	        	        	       0	(  2  1  9)	  0  1
    108.9577	        	        	        	        	       0	(  2  0 12)	  0  1
    111.8593	        	        	        	        	       0	(  3  0  7)	  0  1
    115.4413	        	        	        	        	       0	(  2  1 10)	  0  1
    115.9216	        	        	        	        	       0	(  1  0 15)	  0  1
    116.5981	        	        	        	        	       0	(  2  2  0)	  0  1
    117.4068	        	        	        	        	       0	(  3  0  8)	  0  1
    118.1117	        	        	        	        	       0	(  2  2  2)	  0  1
    118.1311	        	        	        	        	       0	(  2  0 13)	  0  1
    119.8703	        	        	        	        	       0	(  0  0 16)	  0  1
    120.5924	        	        	        	        	       0	(  1  1 14)	  0  1
    122.7923	        	        	        	        	       0	(  2  2  4)	  0  1
    123.5582	        	        	        	        	       0	(  2  1 11)	  0  1
    124.0588	        	        	        	        	       0	(  3  0  9)	  0  1
    124.6594	        	        	        	        	       0	(  3  1  0)	  0  1
    125.0691	        	        	        	        	       0	(  3  1  1)	  0  1
    126.3111	        	        	        	        	       0	(  3  1  2)	  0  1
    128.2452	        	        	        	        	       0	(  1  0 16)	  0  1
    128.4269	        	        	        	        	       0	(  3  1  3)	  0  1
    129.0444	        	        	        	        	       0	(  2  0 14)	  0  1
    131.2217	        	        	        	        	       0	(  2  2  6)	  0  1
    131.4989	        	        	        	        	       0	(  3  1  4)	  0  1
    132.1877	        	        	        	        	       0	(  3  0 10)	  0  1
    133.4548	        	        	        	        	       0	(  2  1 12)	  0  1
    135.6801	        	        	        	        	       0	(  3  1  5)	  0  1
    141.2663	        	        	        	        	       0	(  3  1  6)	  0  1
    142.6460	        	        	        	        	       0	(  3  0 11)	  0  1
    143.1521	        	        	        	        	       0	(  2  0 15)	  0  1
    144.3735	        	        	        	        	       0	(  1  0 17)	  0  1
    145.4307	        	        	        	        	       0	(  2  2  8)	  0  1
    146.5794	        	        	        	        	       0	(  2  1 13)	  0  1
    148.9230	        	        	        	        	       0	(  3  1  7)	  0  1
    149.4583	        	        	        	        	       0	(  1  1 16)	  0  1
    153.8192	        	        	        	        	       0	(  0  0 18)	  0  1
    158.4650	        	        	        	        	       0	(  3  0 12)	  0  1
    158.7710	        	        	        	        	       0	(  4  0  0)	  0  1
    159.7241	        	        	        	        	       0	(  4  0  1)	  0  1
    160.8704	        	        	        	        	       0	(  3  1  8)	  0  1
    162.8873	        	        	        	        	       0	(  4  0  2)	  0  1
    169.3527	        	        	        	        	       0	(  2  0 16)	  0  1
    170.1626	        	        	        	        	       0	(  4  0  3)	  0  1
    173.6271	        	        	        	        	       0	(  2  1 14)	  0  1
