MSG Master    CELL:    5.91520   5.91520  23.24457   90.0000   90.0000  120.0000   SPGR: P 63/m m c             TEMP:   1002.45
  1   1280     2.52000     0.00000    -0.13328     0.00000     0.00000    0
    99     0     2
       0.00000      10.00000
     125.00000     130.00000
 2Theta	Yobs	Ycal	Yobs-Ycal	Backg	Posr	(hkl)	K
      0.7700	    0.00	  521.18	-1813.00	  407.52
      0.8700	    0.00	  522.15	-1813.00	  408.48
      0.9700	   32.00	  523.10	-1813.00	  409.44
      1.0700	   46.00	  524.04	-1813.00	  410.38
      1.1700	   31.00	  524.97	-1813.00	  411.31
      1.2700	   41.00	  525.89	-1813.00	  412.22
      1.3700	   54.00	  526.79	-1813.00	  413.12
      1.4700	   87.00	  527.68	-1813.00	  414.02
      1.5700	  299.00	  528.56	-1813.00	  414.89
      1.6700	  445.00	  529.43	-1813.00	  415.76
      1.7700	  559.00	  530.28	-1813.00	  416.61
      1.8700	  667.00	  531.12	-1813.00	  417.46
      1.9700	  716.00	  531.95	-1813.00	  418.29
      2.0700	  759.00	  532.77	-1813.00	  419.10
      2.1700	  770.00	  533.58	-1813.00	  419.91
      2.2700	  800.00	  534.37	-1813.00	  420.71
      2.3700	  762.00	  535.15	-1813.00	  421.49
      2.4700	  698.00	  535.93	-1813.00	  422.26
      2.5700	  687.00	  536.69	-1813.00	  423.02
      2.6700	  676.00	  537.43	-1813.00	  423.77
      2.7700	  707.00	  538.17	-1813.00	  424.50
      2.8700	  667.00	  538.90	-1813.00	  425.23
      2.9700	  625.00	  539.61	-1813.00	  425.95
      3.0700	  642.00	  540.32	-1813.00	  426.65
      3.1700	  610.00	  541.01	-1813.00	  427.34
      3.2700	  603.00	  541.69	-1813.00	  428.02
      3.3700	  721.00	  542.36	-1813.00	  428.69
      3.4700	  756.00	  543.02	-1813.00	  429.35
      3.5700	  789.00	  543.67	-1813.00	  430.00
      3.6700	  851.00	  544.31	-1813.00	  430.64
      3.7700	  856.00	  544.93	-1813.00	  431.27
      3.8700	  922.00	  545.55	-1813.00	  431.89
      3.9700	 1037.00	  546.16	-1813.00	  432.49
      4.0700	  988.00	  546.75	-1813.00	  433.09
      4.1700	 1029.00	  547.34	-1813.00	  433.67
      4.2700	 1100.00	  547.92	-1813.00	  434.25
      4.3700	 1107.00	  548.48	-1813.00	  434.82
      4.4700	 1012.00	  549.04	-1813.00	  435.37
      4.5700	 1091.00	  549.58	-1813.00	  435.92
      4.6700	 1053.00	  550.12	-1813.00	  436.45
      4.7700	  991.00	  550.65	-1813.00	  436.98
      4.8700	  968.00	  551.16	-1813.00	  437.50
      4.9700	  936.00	  551.67	-1813.00	  438.00
      5.0700	  930.00	  552.17	-1813.00	  438.50
      5.1700	  881.00	  552.65	-1813.00	  438.99
      5.2700	  853.00	  553.13	-1813.00	  439.46
      5.3700	  852.00	  553.60	-1813.00	  439.93
      5.4700	  844.00	  554.06	-1813.00	  440.39
      5.5700	  861.00	  554.51	-1813.00	  440.84
      5.6700	  837.00	  554.95	-1813.00	  441.28
      5.7700	  876.00	  555.38	-1813.00	  441.71
      5.8700	  803.00	  555.80	-1813.00	  442.14
      5.9700	  806.00	  556.22	-1813.00	  442.55
      6.0700	  782.00	  556.62	-1813.00	  442.95
      6.1700	  793.00	  557.02	-1813.00	  443.35
      6.2700	  752.00	  557.40	-1813.00	  443.74
      6.3700	  772.00	  557.78	-1813.00	  444.11
      6.4700	  790.00	  558.15	-1813.00	  444.48
      6.5700	  721.00	  558.51	-1813.00	  444.84
      6.6700	  708.00	  558.86	-1813.00	  445.20
      6.7700	  674.00	  559.21	-1813.00	  445.54
      6.8700	  716.00	  559.54	-1813.00	  445.87
      6.9700	  717.00	  559.87	-1813.00	  446.20
      7.0700	  748.00	  560.19	-1813.00	  446.52
      7.1700	  639.00	  560.50	-1813.00	  446.83
      7.2700	  724.00	  560.80	-1813.00	  447.13
      7.3700	  702.00	  561.09	-1813.00	  447.43
      7.4700	  678.00	  561.38	-1813.00	  447.71
      7.5700	  638.00	  561.66	-1813.00	  447.99
      7.6700	  682.00	  561.93	-1813.00	  448.26
      7.7700	  665.00	  562.19	-1813.00	  448.53
      7.8700	  595.00	  562.45	-1813.00	  448.78
      7.9700	  611.00	  562.69	-1813.00	  449.03
      8.0700	  623.00	  562.93	-1813.00	  449.27
      8.1700	  686.00	  563.17	-1813.00	  449.50
      8.2700	  606.00	  563.39	-1813.00	  449.72
      8.3700	  625.00	  563.61	-1813.00	  449.94
      8.4700	  642.00	  563.82	-1813.00	  450.15
      8.5700	  619.00	  564.02	-1813.00	  450.35
      8.6700	  630.00	  564.22	-1813.00	  450.55
      8.7700	  637.00	  564.40	-1813.00	  450.74
      8.8700	  588.00	  564.58	-1813.00	  450.92
      8.9700	  619.00	  564.76	-1813.00	  451.09
      9.0700	  645.00	  564.93	-1813.00	  451.26
      9.1700	  615.00	  565.09	-1813.00	  451.42
      9.2700	  613.00	  565.24	-1813.00	  451.57
      9.3700	  614.00	  565.38	-1813.00	  451.72
      9.4700	  599.00	  565.52	-1813.00	  451.86
      9.5700	  595.00	  565.66	-1813.00	  451.99
      9.6700	  578.00	  565.78	-1813.00	  452.12
      9.7700	  601.00	  565.90	-1813.00	  452.24
      9.8700	  572.00	  566.02	-1813.00	  452.35
      9.9700	  605.00	  566.12	-1813.00	  452.46
     10.0700	  585.00	  567.01	-1795.01	  452.56
     10.1700	  623.00	  567.18	-1757.18	  452.65
     10.2700	  603.00	  567.36	-1777.36	  452.74
     10.3700	  623.00	  567.56	-1757.56	  452.82
     10.4700	  582.00	  567.81	-1798.81	  452.89
     10.5700	  577.00	  568.15	-1804.15	  452.96
     10.6700	  619.00	  568.69	-1762.69	  453.03
     10.7700	  601.00	  569.55	-1781.55	  453.08
     10.8700	  567.00	  570.81	-1816.81	  453.13
     10.9700	  515.00	  572.46	-1870.46	  453.18
     11.0700	  573.00	  574.46	-1814.46	  453.22
     11.1700	  544.00	  576.80	-1845.80	  453.25
     11.2700	  584.00	  579.52	-1808.52	  453.28
     11.3700	  592.00	  582.68	-1803.68	  453.30
     11.4700	  618.00	  586.41	-1781.41	  453.32
     11.5700	  539.00	  590.93	-1864.93	  453.33
     11.6700	  617.00	  596.55	-1792.55	  453.34
     11.7700	  653.00	  603.90	-1763.90	  453.34
     11.8700	  638.00	  613.97	-1788.97	  453.33
     11.9700	  646.00	  627.76	-1794.76	  453.32
     12.0700	  637.00	  644.17	-1820.17	  453.30
     12.1700	  655.00	  656.94	-1814.94	  453.28
     12.2700	  669.00	  655.16	-1799.16	  453.26
     12.3700	  661.00	  634.18	-1786.18	  453.22
     12.4700	  668.00	  607.13	-1752.13	  453.19
     12.5700	  591.00	  587.29	-1809.29	  453.15
     12.6700	  573.00	  576.86	-1816.86	  453.10
     12.7700	  580.00	  572.42	-1805.42	  453.05
     12.8700	  569.00	  570.56	-1814.56	  452.99
     12.9700	  559.00	  569.59	-1823.59	  452.93
     13.0700	  571.00	  568.95	-1810.95	  452.86
     13.1700	  576.00	  568.48	-1805.48	  452.79
     13.2700	  577.00	  568.10	-1804.10	  452.72
     13.3700	  578.00	  567.79	-1802.79	  452.64
     13.4700	  545.00	  567.52	-1835.52	  452.55
     13.5700	  589.00	  567.29	-1791.29	  452.46
     13.6700	  543.00	  567.08	-1837.08	  452.37
     13.7700	  528.00	  566.88	-1851.88	  452.27
     13.8700	  554.00	  566.70	-1825.70	  452.17
     13.9700	  535.00	  566.53	-1844.53	  452.06
     14.0700	  530.00	  566.36	-1849.36	  451.95
     14.1700	  524.00	  566.19	-1855.19	  451.84
     14.2700	  521.00	  566.03	-1858.03	  451.72
     14.3700	  544.00	  565.87	-1834.87	  451.60
     14.4700	  563.00	  565.71	-1815.71	  451.47
     14.5700	  570.00	  565.55	-1808.55	  451.34
     14.6700	  533.00	  565.39	-1845.39	  451.20
     14.7700	  561.00	  565.23	-1817.23	  451.06
     14.8700	  513.00	  565.07	-1865.07	  450.92
     14.9700	  548.00	  564.90	-1829.90	  450.77
     15.0700	  545.00	  564.74	-1832.74	  450.62
     15.1700	  543.00	  564.57	-1834.57	  450.47
     15.2700	  609.00	  564.40	-1768.40	  450.31
     15.3700	  566.00	  564.22	-1811.22	  450.14
     15.4700	  535.00	  564.05	-1842.05	  449.98
     15.5700	  587.00	  563.87	-1789.87	  449.81
     15.6700	  552.00	  563.69	-1824.69	  449.64
     15.7700	  563.00	  563.50	-1813.50	  449.46
     15.8700	  552.00	  563.31	-1824.31	  449.28
     15.9700	  575.00	  563.12	-1801.12	  449.10
     16.0700	  562.00	  562.93	-1813.93	  448.91
     16.1700	  563.00	  562.74	-1812.74	  448.72
     16.2700	  553.00	  562.54	-1822.54	  448.53
     16.3700	  509.00	  562.34	-1866.34	  448.33
     16.4700	  544.00	  562.16	-1831.16	  448.13
     16.5700	  559.00	  561.95	-1815.95	  447.93
     16.6700	  511.00	  561.74	-1863.74	  447.72
     16.7700	  595.00	  561.53	-1779.53	  447.52
     16.8700	  554.00	  561.32	-1820.32	  447.30
     16.9700	  571.00	  561.10	-1803.10	  447.09
     17.0700	  548.00	  560.88	-1825.88	  446.87
     17.1700	  545.00	  560.66	-1828.66	  446.65
     17.2700	  528.00	  560.43	-1845.43	  446.43
     17.3700	  519.00	  560.21	-1854.21	  446.20
     17.4700	  553.00	  559.98	-1819.98	  445.97
     17.5700	  565.00	  559.74	-1807.74	  445.74
     17.6700	  543.00	  559.51	-1829.51	  445.51
     17.7700	  588.00	  559.27	-1784.27	  445.27
     17.8700	  544.00	  559.03	-1828.03	  445.03
     17.9700	  540.00	  558.89	-1831.89	  444.79
     18.0700	  545.00	  558.65	-1826.65	  444.55
     18.1700	  507.00	  558.40	-1864.40	  444.30
     18.2700	  560.00	  558.16	-1811.16	  444.05
     18.3700	  554.00	  557.91	-1816.91	  443.80
     18.4700	  568.00	  557.65	-1802.66	  443.54
     18.5700	  539.00	  557.40	-1831.40	  443.29
     18.6700	  588.00	  557.15	-1782.15	  443.03
     18.7700	  531.00	  556.89	-1838.89	  442.77
     18.8700	  584.00	  556.63	-1785.63	  442.50
     18.9700	  550.00	  556.46	-1819.46	  442.24
     19.0700	  581.00	  556.20	-1788.20	  441.97
     19.1700	  544.00	  555.94	-1824.94	  441.70
     19.2700	  553.00	  555.67	-1815.67	  441.43
     19.3700	  541.00	  555.40	-1827.40	  441.16
     19.4700	  561.00	  555.14	-1807.14	  440.88
     19.5700	  561.00	  554.86	-1806.86	  440.60
     19.6700	  564.00	  554.59	-1803.59	  440.32
     19.7700	  536.00	  554.32	-1831.32	  440.04
     19.8700	  540.00	  554.05	-1827.05	  439.76
     19.9700	  548.00	  553.77	-1818.77	  439.48
     20.0700	  589.00	  553.49	-1777.49	  439.19
     20.1700	  551.00	  553.21	-1815.21	  438.90
     20.2700	  583.00	  552.93	-1782.93	  438.61
     20.3700	  558.00	  552.62	-1807.62	  438.32
     20.4700	  535.00	  552.34	-1830.34	  438.03
     20.5700	  556.00	  552.06	-1809.06	  437.73
     20.6700	  542.00	  551.78	-1822.78	  437.43
     20.7700	  572.00	  551.50	-1792.50	  437.14
     20.8700	  517.00	  551.21	-1847.21	  436.84
     20.9700	  535.00	  550.97	-1828.97	  436.54
     21.0700	  504.00	  550.68	-1859.68	  436.23
     21.1700	  581.00	  550.40	-1782.40	  435.93
     21.2700	  560.00	  550.11	-1803.11	  435.62
     21.3700	  574.00	  549.83	-1788.83	  435.32
     21.4700	  574.00	  549.54	-1788.54	  435.01
     21.5700	  549.00	  549.26	-1813.26	  434.70
     21.6700	  538.00	  548.97	-1823.97	  434.39
     21.7700	  527.00	  548.69	-1834.69	  434.08
     21.8700	  518.00	  548.40	-1843.40	  433.77
     21.9700	  538.00	  548.12	-1823.12	  433.45
     22.0700	  548.00	  547.84	-1812.84	  433.14
     22.1700	  568.00	  547.56	-1792.56	  432.82
     22.2700	  569.00	  547.28	-1791.28	  432.51
     22.3700	  519.00	  547.01	-1841.01	  432.19
     22.4700	  556.00	  546.74	-1803.74	  431.87
     22.5700	  560.00	  546.47	-1799.47	  431.55
     22.6700	  542.00	  546.21	-1817.21	  431.23
     22.7700	  544.00	  545.95	-1814.95	  430.91
     22.8700	  534.00	  545.70	-1824.70	  430.59
     22.9700	  540.00	  545.46	-1818.46	  430.26
     23.0700	  570.00	  545.23	-1788.23	  429.94
     23.1700	  595.00	  545.01	-1763.01	  429.61
     23.2700	  517.00	  544.81	-1840.81	  429.29
     23.3700	  541.00	  544.64	-1816.64	  428.96
     23.4700	  539.00	  544.49	-1818.49	  428.64
     23.5700	  547.00	  544.38	-1810.38	  428.31
     23.6700	  566.00	  544.34	-1791.34	  427.98
     23.7700	  562.00	  544.38	-1795.38	  427.65
     23.8700	  527.00	  544.72	-1830.72	  427.32
     23.9700	  533.00	  545.31	-1825.31	  426.99
     24.0700	  528.00	  546.66	-1831.66	  426.66
     24.1700	  548.00	  549.45	-1814.45	  426.33
     24.2700	  582.00	  554.56	-1785.56	  426.00
     24.3700	  560.00	  563.03	-1816.03	  425.67
     24.4700	  590.00	  576.07	-1799.07	  425.34
     24.5700	  558.00	  594.57	-1849.57	  425.00
     24.6700	  612.00	  616.75	-1817.75	  424.67
     24.7700	  630.00	  635.04	-1818.04	  424.34
     24.8700	  633.00	  637.00	-1817.00	  424.00
     24.9700	  600.00	  616.92	-1829.92	  423.67
     25.0700	  562.00	  587.83	-1838.83	  423.34
     25.1700	  578.00	  564.62	-1799.62	  423.00
     25.2700	  575.00	  551.30	-1789.30	  422.67
     25.3700	  572.00	  545.19	-1786.19	  422.33
     25.4700	  560.00	  542.57	-1795.57	  422.00
     25.5700	  517.00	  541.28	-1837.28	  421.66
     25.6700	  559.00	  540.47	-1794.47	  421.33
     25.7700	  604.00	  539.88	-1748.88	  421.00
     25.8700	  544.00	  539.44	-1808.44	  420.66
     25.9700	  542.00	  539.11	-1810.11	  420.33
     26.0700	  561.00	  538.87	-1790.87	  419.99
     26.1700	  594.00	  538.70	-1757.70	  419.66
     26.2700	  563.00	  538.61	-1788.61	  419.32
     26.3700	  550.00	  538.60	-1801.60	  418.99
     26.4700	  566.00	  538.67	-1785.67	  418.65
     26.5700	  548.00	  538.84	-1803.84	  418.32
     26.6700	  572.00	  539.13	-1780.13	  417.98
     26.7700	  541.00	  539.55	-1811.55	  417.65
     26.8700	  546.00	  540.14	-1807.14	  417.31
     26.9700	  544.00	  540.95	-1809.95	  416.98
     27.0700	  563.00	  542.07	-1792.07	  416.65
     27.1700	  547.00	  543.60	-1809.60	  416.31
     27.2700	  541.00	  545.80	-1817.80	  415.98
     27.3700	  559.00	  549.14	-1803.14	  415.65
     27.4700	  553.00	  554.51	-1814.51	  415.32
     27.5700	  550.00	  563.56	-1826.56	  414.98
     27.6700	  615.00	  578.93	-1776.93	  414.65
     27.7700	  598.00	  604.08	-1819.08	  414.32
     27.8700	  602.00	  642.19	-1853.19	  413.99
     27.9700	  670.00	  693.82	-1836.82	  413.66
     28.0700	  763.00	  753.80	-1803.80	  413.33
     28.1700	  896.00	  808.42	-1725.42	  413.00
     28.2700	  950.00	  835.98	-1698.98	  412.67
     28.3700	  901.00	  820.97	-1732.97	  412.34
     28.4700	  856.00	  780.69	-1737.69	  412.01
     28.5700	  721.00	  751.06	-1843.06	  411.69
     28.6700	  671.00	  751.05	-1893.05	  411.36
     28.7700	  747.00	  777.83	-1843.83	  411.03
     28.8700	  812.00	  811.87	-1812.87	  410.71
     28.9700	  806.00	  823.25	-1830.25	  410.38
     29.0700	  842.00	  789.25	-1760.25	  410.06
     29.1700	  723.00	  722.28	-1812.28	  409.74
     29.2700	  673.00	  654.81	-1794.81	  409.41
     29.3700	  606.00	  604.66	-1811.66	  409.09
     29.4700	  563.00	  573.75	-1823.75	  408.77
     29.5700	  585.00	  556.91	-1784.91	  408.45
     29.6700	  605.00	  548.08	-1756.08	  408.13
     29.7700	  585.00	  543.18	-1771.18	  407.81
     29.8700	  570.00	  540.18	-1783.18	  407.49
     29.9700	  632.00	  538.28	-1719.28	  407.17
     30.0700	  553.00	  537.27	-1797.27	  406.85
     30.1700	  575.00	  537.29	-1775.29	  406.54
     30.2700	  606.00	  538.88	-1745.88	  406.22
     30.3700	  554.00	  543.15	-1802.15	  405.91
     30.4700	  596.00	  551.91	-1768.91	  405.60
     30.5700	  557.00	  567.24	-1823.24	  405.28
     30.6700	  575.00	  590.14	-1828.14	  404.97
     30.7700	  628.00	  618.44	-1803.44	  404.66
     30.8700	  596.00	  644.94	-1861.94	  404.35
     30.9700	  629.00	  657.56	-1841.56	  404.04
     31.0700	  617.00	  646.00	-1842.00	  403.73
     31.1700	  623.00	  615.45	-1805.45	  403.43
     31.2700	  545.00	  582.40	-1850.40	  403.12
     31.3700	  519.00	  557.04	-1851.04	  402.82
     31.4700	  555.00	  541.28	-1799.28	  402.51
     31.5700	  530.00	  532.78	-1815.78	  402.21
     31.6700	  557.00	  528.45	-1784.45	  401.91
     31.7700	  549.00	  526.10	-1790.10	  401.61
     31.8700	  544.00	  524.64	-1793.64	  401.31
     31.9700	  569.00	  523.62	-1767.62	  401.01
     32.0700	  535.00	  522.87	-1800.87	  400.71
     32.1700	  573.00	  522.33	-1762.33	  400.42
     32.2700	  533.00	  521.97	-1801.97	  400.12
     32.3700	  535.00	  521.75	-1799.75	  399.83
     32.4700	  539.00	  521.70	-1795.70	  399.54
     32.5700	  506.00	  521.80	-1828.80	  399.25
     32.6700	  583.00	  522.09	-1752.09	  398.96
     32.7700	  508.00	  522.61	-1827.61	  398.67
     32.8700	  558.00	  523.40	-1778.40	  398.38
     32.9700	  578.00	  524.57	-1759.57	  398.09
     33.0700	  535.00	  526.28	-1804.28	  397.81
     33.1700	  534.00	  528.90	-1807.90	  397.52
     33.2700	  537.00	  533.25	-1809.25	  397.24
     33.3700	  552.00	  541.21	-1802.21	  396.96
     33.4700	  541.00	  556.52	-1828.52	  396.68
     33.5700	  563.00	  585.66	-1835.66	  396.40
     33.6700	  614.00	  636.91	-1835.91	  396.12
     33.7700	  699.00	  715.98	-1829.98	  395.85
     33.8700	  866.00	  817.56	-1764.56	  395.57
     33.9700	  993.00	  918.07	-1738.07	  395.30
     34.0700	 1079.00	  976.31	-1710.31	  395.03
     34.1700	 1027.00	  953.46	-1739.46	  394.76
     34.2700	  919.00	  857.70	-1751.70	  394.49
     34.3700	  785.00	  742.34	-1770.34	  394.22
     34.4700	  618.00	  648.11	-1843.11	  393.96
     34.5700	  588.00	  586.98	-1811.98	  393.69
     34.6700	  537.00	  553.43	-1829.43	  393.43
     34.7700	  516.00	  536.70	-1833.70	  393.17
     34.8700	  483.00	  528.24	-1858.24	  392.91
     34.9700	  564.00	  523.36	-1772.36	  392.65
     35.0700	  490.00	  520.08	-1843.08	  392.39
     35.1700	  545.00	  517.63	-1785.63	  392.13
     35.2700	  525.00	  515.70	-1803.70	  391.88
     35.3700	  503.00	  514.13	-1824.13	  391.63
     35.4700	  573.00	  512.85	-1752.85	  391.38
     35.5700	  539.00	  511.75	-1785.75	  391.13
     35.6700	  498.00	  510.80	-1825.80	  390.88
     35.7700	  503.00	  509.98	-1819.98	  390.63
     35.8700	  530.00	  509.25	-1792.25	  390.39
     35.9700	  520.00	  509.09	-1802.09	  390.14
     36.0700	  477.00	  508.52	-1844.52	  389.90
     36.1700	  459.00	  508.00	-1862.00	  389.66
     36.2700	  501.00	  507.52	-1819.52	  389.42
     36.3700	  523.00	  507.09	-1797.09	  389.18
     36.4700	  488.00	  506.70	-1831.70	  388.95
     36.5700	  541.00	  506.35	-1778.35	  388.71
     36.6700	  537.00	  506.03	-1782.03	  388.48
     36.7700	  510.00	  505.75	-1808.75	  388.25
     36.8700	  530.00	  505.53	-1788.53	  388.02
     36.9700	  487.00	  505.41	-1831.41	  387.79
     37.0700	  514.00	  505.46	-1804.46	  387.57
     37.1700	  492.00	  505.89	-1826.89	  387.34
     37.2700	  544.00	  507.06	-1776.06	  387.12
     37.3700	  577.00	  509.40	-1745.40	  386.90
     37.4700	  478.00	  513.26	-1848.26	  386.68
     37.5700	  546.00	  518.41	-1785.41	  386.46
     37.6700	  482.00	  523.75	-1854.75	  386.25
     37.7700	  494.00	  527.54	-1846.54	  386.03
     37.8700	  510.00	  528.43	-1831.43	  385.82
     37.9700	  543.00	  526.77	-1796.77	  385.61
     38.0700	  544.00	  523.48	-1792.48	  385.40
     38.1700	  508.00	  518.90	-1823.90	  385.19
     38.2700	  496.00	  513.72	-1830.72	  384.99
     38.3700	  507.00	  509.07	-1815.07	  384.78
     38.4700	  482.00	  505.58	-1836.58	  384.58
     38.5700	  458.00	  503.29	-1858.29	  384.38
     38.6700	  496.00	  501.93	-1818.93	  384.18
     38.7700	  474.00	  501.13	-1840.13	  383.99
     38.8700	  506.00	  500.52	-1807.52	  383.79
     38.9700	  476.00	  500.15	-1837.15	  383.60
     39.0700	  523.00	  499.84	-1789.84	  383.41
     39.1700	  491.00	  499.57	-1821.57	  383.22
     39.2700	  480.00	  499.24	-1832.24	  383.03
     39.3700	  493.00	  499.02	-1819.02	  382.84
     39.4700	  473.00	  498.81	-1838.81	  382.66
     39.5700	  508.00	  498.62	-1803.62	  382.48
     39.6700	  528.00	  498.44	-1783.44	  382.29
     39.7700	  526.00	  498.27	-1785.27	  382.12
     39.8700	  471.00	  498.23	-1840.23	  381.94
     39.9700	  480.00	  498.08	-1831.08	  381.76
     40.0700	  509.00	  497.94	-1801.94	  381.59
     40.1700	  491.00	  497.81	-1819.81	  381.42
     40.2700	  495.00	  497.70	-1815.70	  381.25
     40.3700	  490.00	  497.60	-1820.60	  381.08
     40.4700	  466.00	  497.50	-1844.50	  380.91
     40.5700	  459.00	  497.43	-1851.43	  380.75
     40.6700	  498.00	  497.37	-1812.37	  380.58
     40.7700	  506.00	  497.32	-1804.32	  380.42
     40.8700	  519.00	  497.30	-1791.30	  380.26
     40.9700	  488.00	  497.31	-1822.31	  380.11
     41.0700	  521.00	  497.34	-1789.34	  379.95
     41.1700	  475.00	  497.37	-1835.37	  379.80
     41.2700	  497.00	  497.48	-1813.48	  379.64
     41.3700	  504.00	  497.66	-1806.66	  379.49
     41.4700	  520.00	  497.90	-1790.90	  379.35
     41.5700	  501.00	  498.25	-1810.25	  379.20
     41.6700	  522.00	  499.15	-1790.15	  379.05
     41.7700	  493.00	  499.88	-1819.88	  378.91
     41.8700	  498.00	  501.06	-1816.06	  378.77
     41.9700	  491.00	  503.23	-1825.23	  378.63
     42.0700	  551.00	  507.50	-1769.50	  378.49
     42.1700	  528.00	  515.87	-1800.87	  378.36
     42.2700	  530.00	  531.17	-1814.17	  378.23
     42.3700	  512.00	  555.69	-1856.69	  378.09
     42.4700	  528.00	  589.20	-1874.20	  377.96
     42.5700	  576.00	  626.15	-1863.15	  377.84
     42.6700	  588.00	  655.09	-1880.09	  377.71
     42.7700	  568.00	  662.64	-1907.64	  377.59
     42.8700	  578.00	  643.48	-1878.48	  377.46
     42.9700	  557.00	  607.77	-1863.77	  377.34
     43.0700	  567.00	  570.38	-1816.38	  377.22
     43.1700	  503.00	  540.51	-1850.51	  377.11
     43.2700	  516.00	  520.75	-1817.75	  376.99
     43.3700	  505.00	  509.50	-1817.50	  376.88
     43.4700	  509.00	  503.71	-1807.71	  376.77
     43.5700	  487.00	  500.81	-1826.81	  376.66
     43.6700	  498.00	  499.25	-1814.25	  376.55
     43.7700	  476.00	  498.45	-1835.45	  376.44
     43.8700	  503.00	  497.77	-1807.77	  376.34
     43.9700	  491.00	  497.26	-1819.26	  376.24
     44.0700	  483.00	  496.86	-1826.86	  376.14
     44.1700	  488.00	  496.55	-1821.55	  376.04
     44.2700	  521.00	  496.30	-1788.30	  375.94
     44.3700	  486.00	  496.15	-1823.15	  375.85
     44.4700	  508.00	  496.00	-1801.00	  375.75
     44.5700	  516.00	  495.77	-1792.77	  375.66
     44.6700	  516.00	  495.70	-1792.70	  375.57
     44.7700	  490.00	  495.66	-1818.66	  375.49
     44.8700	  522.00	  495.64	-1786.64	  375.40
     44.9700	  552.00	  495.65	-1756.65	  375.32
     45.0700	  542.00	  495.67	-1766.67	  375.23
     45.1700	  487.00	  495.73	-1821.73	  375.15
     45.2700	  458.00	  495.98	-1850.98	  375.08
     45.3700	  495.00	  496.08	-1814.08	  375.00
     45.4700	  510.00	  496.20	-1799.20	  374.92
     45.5700	  479.00	  496.34	-1830.34	  374.85
     45.6700	  526.00	  496.51	-1783.51	  374.78
     45.7700	  530.00	  496.70	-1779.70	  374.71
     45.8700	  476.00	  496.92	-1833.92	  374.64
     45.9700	  516.00	  497.17	-1794.17	  374.58
     46.0700	  479.00	  497.45	-1831.45	  374.51
     46.1700	  493.00	  497.77	-1817.77	  374.45
     46.2700	  497.00	  498.13	-1814.13	  374.39
     46.3700	  530.00	  498.54	-1781.54	  374.33
     46.4700	  491.00	  499.00	-1821.00	  374.28
     46.5700	  541.00	  499.53	-1771.53	  374.22
     46.6700	  498.00	  500.13	-1815.13	  374.17
     46.7700	  481.00	  500.83	-1832.83	  374.12
     46.8700	  503.00	  501.66	-1811.66	  374.07
     46.9700	  493.00	  502.69	-1822.69	  374.02
     47.0700	  506.00	  504.12	-1811.12	  373.97
     47.1700	  453.00	  506.33	-1866.33	  373.93
     47.2700	  498.00	  510.07	-1825.07	  373.89
     47.3700	  505.00	  516.45	-1824.45	  373.84
     47.4700	  522.00	  526.86	-1817.86	  373.81
     47.5700	  568.00	  542.05	-1787.05	  373.77
     47.6700	  553.00	  561.44	-1821.44	  373.73
     47.7700	  564.00	  581.80	-1830.80	  373.70
     47.8700	  611.00	  597.55	-1799.55	  373.67
     47.9700	  594.00	  602.65	-1821.65	  373.64
     48.0700	  538.00	  595.12	-1870.12	  373.61
     48.1700	  570.00	  579.43	-1822.43	  373.58
     48.2700	  556.00	  562.28	-1819.28	  373.56
     48.3700	  557.00	  548.36	-1804.36	  373.53
     48.4700	  565.00	  539.64	-1787.64	  373.51
     48.5700	  516.00	  535.98	-1832.98	  373.49
     48.6700	  510.00	  536.29	-1839.29	  373.47
     48.7700	  495.00	  539.41	-1857.41	  373.46
     48.8700	  531.00	  544.65	-1826.65	  373.44
     48.9700	  555.00	  551.88	-1809.88	  373.43
     49.0700	  509.00	  561.62	-1865.62	  373.42
     49.1700	  517.00	  575.23	-1871.23	  373.41
     49.2700	  635.00	  595.72	-1773.72	  373.40
     49.3700	  658.00	  628.86	-1783.86	  373.39
     49.4700	  728.00	  684.67	-1769.67	  373.39
     49.5700	  801.00	  778.12	-1790.12	  373.38
     49.6700	  885.00	  927.67	-1855.67	  373.38
     49.7700	 1066.00	 1148.41	-1895.41	  373.38
     49.8700	 1357.00	 1444.12	-1900.12	  373.38
     49.9700	 1816.00	 1794.22	-1791.22	  373.38
     50.0700	 2142.00	 2143.74	-1814.74	  373.39
     50.1700	 2456.00	 2401.84	-1758.84	  373.40
     50.2700	 2515.00	 2471.13	-1769.13	  373.40
     50.3700	 2363.00	 2317.87	-1767.87	  373.41
     50.4700	 2018.00	 2008.48	-1803.48	  373.42
     50.5700	 1610.00	 1648.93	-1851.93	  373.44
     50.6700	 1124.00	 1318.97	-2007.97	  373.45
     50.7700	  879.00	 1058.77	-1992.77	  373.47
     50.8700	  704.00	  877.28	-1986.28	  373.48
     50.9700	  608.00	  763.58	-1968.58	  373.50
     51.0700	  628.00	  697.76	-1882.76	  373.52
     51.1700	  641.00	  659.57	-1831.57	  373.55
     51.2700	  632.00	  633.65	-1814.65	  373.57
     51.3700	  597.00	  611.84	-1827.84	  373.60
     51.4700	  563.00	  592.12	-1842.12	  373.62
     51.5700	  562.00	  575.13	-1826.13	  373.65
     51.6700	  559.00	  561.64	-1815.64	  373.68
     51.7700	  584.00	  551.79	-1780.79	  373.71
     51.8700	  562.00	  545.02	-1796.02	  373.74
     51.9700	  514.00	  540.48	-1839.48	  373.78
     52.0700	  553.00	  537.38	-1797.38	  373.81
     52.1700	  551.00	  535.27	-1797.27	  373.85
     52.2700	  537.00	  534.00	-1810.00	  373.89
     52.3700	  523.00	  533.61	-1823.61	  373.93
     52.4700	  529.00	  534.57	-1818.57	  373.97
     52.5700	  570.00	  537.04	-1780.04	  374.01
     52.6700	  553.00	  542.66	-1802.66	  374.06
     52.7700	  590.00	  554.31	-1777.31	  374.10
     52.8700	  631.00	  577.08	-1759.08	  374.15
     52.9700	  665.00	  618.34	-1766.34	  374.20
     53.0700	  781.00	  686.27	-1718.27	  374.25
     53.1700	  858.00	  785.99	-1740.99	  374.30
     53.2700	  970.00	  914.15	-1757.15	  374.36
     53.3700	 1141.00	 1053.99	-1725.99	  374.41
     53.4700	 1143.00	 1174.16	-1844.16	  374.47
     53.5700	 1238.00	 1235.55	-1810.55	  374.52
     53.6700	 1121.00	 1212.28	-1904.28	  374.58
     53.7700	 1076.00	 1114.07	-1851.07	  374.64
     53.8700	  891.00	  977.98	-1899.98	  374.70
     53.9700	  791.00	  841.23	-1863.23	  374.76
     54.0700	  697.00	  727.48	-1843.48	  374.83
     54.1700	  613.00	  645.69	-1845.69	  374.89
     54.2700	  632.00	  593.77	-1774.77	  374.96
     54.3700	  539.00	  564.13	-1838.13	  375.03
     54.4700	  617.00	  548.67	-1744.67	  375.09
     54.5700	  582.00	  541.09	-1772.09	  375.16
     54.6700	  510.00	  537.57	-1840.57	  375.24
     54.7700	  511.00	  536.14	-1838.14	  375.31
     54.8700	  578.00	  535.90	-1770.90	  375.38
     54.9700	  572.00	  536.49	-1777.49	  375.46
     55.0700	  573.00	  537.80	-1777.80	  375.53
     55.1700	  530.00	  539.80	-1822.80	  375.61
     55.2700	  484.00	  542.55	-1871.55	  375.69
     55.3700	  560.00	  546.12	-1799.12	  375.77
     55.4700	  542.00	  550.71	-1821.71	  375.85
     55.5700	  519.00	  556.55	-1850.55	  375.93
     55.6700	  586.00	  564.26	-1791.26	  376.02
     55.7700	  553.00	  574.97	-1834.97	  376.10
     55.8700	  591.00	  591.11	-1813.11	  376.19
     55.9700	  606.00	  617.43	-1824.43	  376.28
     56.0700	  630.00	  662.35	-1845.35	  376.36
     56.1700	  665.00	  739.08	-1887.08	  376.45
     56.2700	  741.00	  865.05	-1937.05	  376.54
     56.3700	  956.00	 1058.26	-1915.26	  376.64
     56.4700	 1282.00	 1329.78	-1860.78	  376.73
     56.5700	 1638.00	 1673.65	-1848.65	  376.82
     56.6700	 1995.00	 2057.75	-1875.75	  376.92
     56.7700	 2422.00	 2418.26	-1809.26	  377.01
     56.8700	 2525.00	 2665.31	-1953.31	  377.11
     56.9700	 2644.00	 2715.12	-1884.12	  377.21
     57.0700	 2427.00	 2547.65	-1933.65	  377.31
     57.1700	 2290.00	 2225.47	-1748.47	  377.41
     57.2700	 1823.00	 1843.50	-1833.50	  377.51
     57.3700	 1445.00	 1479.12	-1847.12	  377.61
     57.4700	 1126.00	 1177.89	-1864.89	  377.71
     57.5700	  923.00	  956.13	-1846.13	  377.82
     57.6700	  737.00	  809.02	-1885.02	  377.92
     57.7700	  696.00	  721.03	-1838.03	  378.03
     57.8700	  714.00	  674.89	-1773.89	  378.14
     57.9700	  638.00	  657.12	-1832.12	  378.24
     58.0700	  649.00	  659.73	-1823.73	  378.35
     58.1700	  716.00	  679.42	-1776.42	  378.46
     58.2700	  743.00	  715.78	-1785.78	  378.57
     58.3700	  764.00	  769.25	-1818.25	  378.68
     58.4700	  894.00	  839.32	-1758.32	  378.80
     58.5700	  989.00	  922.86	-1746.86	  378.91
     58.6700	 1201.00	 1012.84	-1624.84	  379.02
     58.7700	 1384.00	 1099.42	-1528.42	  379.14
     58.8700	 1450.00	 1174.04	-1537.04	  379.26
     58.9700	 1538.00	 1231.86	-1506.86	  379.37
     59.0700	 1633.00	 1268.26	-1448.26	  379.49
     59.1700	 1660.00	 1277.51	-1430.51	  379.61
     59.2700	 1537.00	 1259.81	-1535.81	  379.73
     59.3700	 1419.00	 1226.02	-1620.02	  379.85
     59.4700	 1331.00	 1190.77	-1672.77	  379.97
     59.5700	 1211.00	 1164.53	-1766.53	  380.09
     59.6700	 1129.00	 1153.34	-1837.34	  380.21
     59.7700	 1157.00	 1163.15	-1819.15	  380.34
     59.8700	 1184.00	 1200.44	-1829.44	  380.46
     59.9700	 1296.00	 1266.26	-1783.26	  380.59
     60.0700	 1368.00	 1350.83	-1795.83	  380.71
     60.1700	 1520.00	 1431.95	-1724.95	  380.84
     60.2700	 1563.00	 1478.42	-1728.42	  380.96
     60.3700	 1608.00	 1463.10	-1668.10	  381.09
     60.4700	 1501.00	 1381.05	-1693.05	  381.22
     60.5700	 1354.00	 1252.33	-1711.33	  381.35
     60.6700	 1171.00	 1105.91	-1747.91	  381.48
     60.7700	  971.00	  965.88	-1807.88	  381.61
     60.8700	  826.00	  847.34	-1834.34	  381.74
     60.9700	  699.00	  757.13	-1871.13	  381.87
     61.0700	  659.00	  695.86	-1849.86	  382.00
     61.1700	  602.00	  660.82	-1871.82	  382.13
     61.2700	  620.00	  648.95	-1841.95	  382.27
     61.3700	  667.00	  658.91	-1804.91	  382.40
     61.4700	  699.00	  692.00	-1806.00	  382.54
     61.5700	  692.00	  751.45	-1872.45	  382.67
     61.6700	  785.00	  840.33	-1868.33	  382.81
     61.7700	  844.00	  958.73	-1927.73	  382.94
     61.8700	 1004.00	 1100.68	-1909.68	  383.08
     61.9700	 1148.00	 1251.88	-1916.88	  383.22
     62.0700	 1291.00	 1388.75	-1910.75	  383.35
     62.1700	 1418.00	 1480.75	-1875.75	  383.49
     62.2700	 1463.00	 1500.57	-1850.57	  383.63
     62.3700	 1288.00	 1440.97	-1965.97	  383.77
     62.4700	 1266.00	 1320.59	-1867.59	  383.91
     62.5700	 1122.00	 1170.34	-1861.34	  384.05
     62.6700	  943.00	 1018.06	-1888.06	  384.19
     62.7700	  797.00	  882.63	-1898.63	  384.33
     62.8700	  732.00	  773.79	-1854.79	  384.47
     62.9700	  612.00	  693.55	-1894.55	  384.61
     63.0700	  556.00	  638.73	-1895.73	  384.76
     63.1700	  593.00	  603.71	-1823.71	  384.90
     63.2700	  615.00	  582.56	-1780.56	  385.04
     63.3700	  615.00	  570.52	-1768.52	  385.18
     63.4700	  580.00	  564.39	-1797.39	  385.33
     63.5700	  530.00	  562.59	-1845.59	  385.47
     63.6700	  564.00	  564.89	-1813.89	  385.61
     63.7700	  606.00	  572.21	-1779.21	  385.76
     63.8700	  573.00	  586.37	-1826.37	  385.90
     63.9700	  611.00	  609.69	-1811.69	  386.05
     64.0700	  696.00	  644.32	-1761.32	  386.19
     64.1700	  744.00	  691.31	-1760.31	  386.34
     64.2700	  820.00	  749.52	-1742.52	  386.48
     64.3700	  847.00	  814.72	-1780.72	  386.63
     64.4700	  923.00	  879.17	-1769.17	  386.78
     64.5700	  998.00	  932.21	-1747.21	  386.92
     64.6700	 1029.00	  962.68	-1746.68	  387.07
     64.7700	 1003.00	  963.57	-1773.57	  387.22
     64.8700	  978.00	  936.97	-1771.97	  387.36
     64.9700	  909.00	  889.75	-1793.75	  387.51
     65.0700	  920.00	  832.06	-1725.06	  387.66
     65.1700	  825.00	  773.65	-1761.65	  387.80
     65.2700	  741.00	  721.33	-1793.33	  387.95
     65.3700	  723.00	  678.22	-1768.22	  388.10
     65.4700	  656.00	  644.43	-1801.43	  388.25
     65.5700	  594.00	  618.47	-1837.47	  388.40
     65.6700	  591.00	  598.57	-1820.57	  388.54
     65.7700	  556.00	  583.43	-1840.43	  388.69
     65.8700	  579.00	  572.11	-1806.11	  388.84
     65.9700	  518.00	  563.95	-1858.95	  388.99
     66.0700	  547.00	  558.48	-1824.48	  389.14
     66.1700	  597.00	  555.29	-1771.29	  389.28
     66.2700	  535.00	  554.03	-1832.03	  389.43
     66.3700	  510.00	  554.35	-1857.35	  389.58
     66.4700	  530.00	  556.04	-1839.04	  389.73
     66.5700	  576.00	  559.02	-1796.02	  389.88
     66.6700	  560.00	  563.44	-1816.44	  390.02
     66.7700	  535.00	  569.88	-1847.88	  390.17
     66.8700	  539.00	  579.61	-1853.61	  390.32
     66.9700	  577.00	  594.62	-1830.62	  390.47
     67.0700	  557.00	  618.73	-1874.73	  390.62
     67.1700	  632.00	  657.61	-1838.61	  390.76
     67.2700	  652.00	  719.06	-1880.06	  390.91
     67.3700	  798.00	  812.42	-1827.42	  391.06
     67.4700	  928.00	  946.93	-1831.93	  391.21
     67.5700	 1096.00	 1128.84	-1845.84	  391.35
     67.6700	 1328.00	 1357.92	-1842.92	  391.50
     67.7700	 1635.00	 1623.91	-1801.91	  391.65
     67.8700	 1838.00	 1904.12	-1879.12	  391.79
     67.9700	 2260.00	 2163.09	-1716.09	  391.94
     68.0700	 2479.00	 2355.44	-1689.44	  392.09
     68.1700	 2469.00	 2437.19	-1781.19	  392.23
     68.2700	 2414.00	 2386.14	-1785.14	  392.38
     68.3700	 2202.00	 2216.38	-1827.38	  392.52
     68.4700	 1996.00	 1968.96	-1785.96	  392.67
     68.5700	 1669.00	 1690.43	-1834.43	  392.82
     68.6700	 1446.00	 1419.03	-1786.03	  392.96
     68.7700	 1163.00	 1180.39	-1830.39	  393.10
     68.8700	  982.00	  987.67	-1818.67	  393.25
     68.9700	  774.00	  842.98	-1881.98	  393.39
     69.0700	  758.00	  741.38	-1796.38	  393.54
     69.1700	  683.00	  673.90	-1803.90	  393.68
     69.2700	  665.00	  631.05	-1779.05	  393.82
     69.3700	  618.00	  604.61	-1799.61	  393.97
     69.4700	  635.00	  588.38	-1766.38	  394.11
     69.5700	  577.00	  578.25	-1814.25	  394.25
     69.6700	  626.00	  571.67	-1758.67	  394.39
     69.7700	  587.00	  567.22	-1793.22	  394.53
     69.8700	  560.00	  564.13	-1817.13	  394.67
     69.9700	  583.00	  562.02	-1792.02	  394.81
     70.0700	  616.00	  560.70	-1757.70	  394.95
     70.1700	  584.00	  560.06	-1789.06	  395.09
     70.2700	  518.00	  560.09	-1855.09	  395.23
     70.3700	  563.00	  560.85	-1810.85	  395.37
     70.4700	  550.00	  562.44	-1825.44	  395.51
     70.5700	  562.00	  565.19	-1816.19	  395.65
     70.6700	  534.00	  569.66	-1848.66	  395.78
     70.7700	  538.00	  576.92	-1851.92	  395.92
     70.8700	  553.00	  588.78	-1848.78	  396.06
     70.9700	  600.00	  608.05	-1821.05	  396.19
     71.0700	  659.00	  638.86	-1792.86	  396.33
     71.1700	  711.00	  686.55	-1788.55	  396.46
     71.2700	  721.00	  757.25	-1849.25	  396.60
     71.3700	  890.00	  857.63	-1780.63	  396.73
     71.4700	  900.00	  989.68	-1902.68	  396.86
     71.5700	 1134.00	 1153.88	-1832.88	  396.99
     71.6700	 1354.00	 1343.67	-1802.67	  397.13
     71.7700	 1446.00	 1545.13	-1912.13	  397.26
     71.8700	 1664.00	 1736.75	-1885.75	  397.39
     71.9700	 1845.00	 1890.80	-1858.80	  397.52
     72.0700	 1940.00	 1978.40	-1851.40	  397.65
     72.1700	 1893.00	 1979.77	-1899.77	  397.77
     72.2700	 1809.00	 1894.93	-1898.93	  397.90
     72.3700	 1848.00	 1743.25	-1708.25	  398.03
     72.4700	 1583.00	 1554.51	-1784.51	  398.16
     72.5700	 1537.00	 1355.85	-1631.85	  398.28
     72.6700	 1323.00	 1168.51	-1658.51	  398.41
     72.7700	 1174.00	 1006.08	-1645.08	  398.53
     72.8700	 1069.00	  874.65	-1618.65	  398.65
     72.9700	  984.00	  774.45	-1603.45	  398.78
     73.0700	  915.00	  701.75	-1599.75	  398.90
     73.1700	  770.00	  651.07	-1694.07	  399.02
     73.2700	  753.00	  616.73	-1676.73	  399.14
     73.3700	  721.00	  593.75	-1685.75	  399.26
     73.4700	  699.00	  578.37	-1692.37	  399.38
     73.5700	  631.00	  567.96	-1749.96	  399.50
     73.6700	  638.00	  560.84	-1735.84	  399.61
     73.7700	  563.00	  555.97	-1805.97	  399.73
     73.8700	  600.00	  552.75	-1765.75	  399.85
     73.9700	  558.00	  550.80	-1805.80	  399.96
     74.0700	  596.00	  549.88	-1766.88	  400.07
     74.1700	  556.00	  549.80	-1806.80	  400.19
     74.2700	  608.00	  550.33	-1755.33	  400.30
     74.3700	  547.00	  551.25	-1817.25	  400.41
     74.4700	  583.00	  552.25	-1782.25	  400.52
     74.5700	  621.00	  553.01	-1745.01	  400.63
     74.6700	  666.00	  553.21	-1700.21	  400.74
     74.7700	  632.00	  552.64	-1733.64	  400.85
     74.8700	  656.00	  551.27	-1708.27	  400.95
     74.9700	  620.00	  549.32	-1742.32	  401.06
     75.0700	  585.00	  547.09	-1775.09	  401.16
     75.1700	  548.00	  545.02	-1810.02	  401.27
     75.2700	  552.00	  543.45	-1804.45	  401.37
     75.3700	  553.00	  542.77	-1802.77	  401.47
     75.4700	  553.00	  543.33	-1803.32	  401.57
     75.5700	  541.00	  545.70	-1817.70	  401.67
     75.6700	  564.00	  550.35	-1799.35	  401.77
     75.7700	  556.00	  557.70	-1814.70	  401.87
     75.8700	  583.00	  568.42	-1798.42	  401.96
     75.9700	  604.00	  582.65	-1791.65	  402.06
     76.0700	  599.00	  600.26	-1814.26	  402.15
     76.1700	  666.00	  620.58	-1767.58	  402.25
     76.2700	  608.00	  642.32	-1847.32	  402.34
     76.3700	  658.00	  663.52	-1818.52	  402.43
     76.4700	  689.00	  681.64	-1805.64	  402.52
     76.5700	  649.00	  693.93	-1857.93	  402.61
     76.6700	  634.00	  698.10	-1877.10	  402.70
     76.7700	  684.00	  693.25	-1822.25	  402.79
     76.8700	  702.00	  680.37	-1791.37	  402.87
     76.9700	  651.00	  661.80	-1823.80	  402.96
     77.0700	  660.00	  640.12	-1793.12	  403.04
     77.1700	  602.00	  618.17	-1829.17	  403.12
     77.2700	  591.00	  597.67	-1819.67	  403.20
     77.3700	  594.00	  579.87	-1798.87	  403.28
     77.4700	  539.00	  565.36	-1839.36	  403.36
     77.5700	  518.00	  554.19	-1849.19	  403.44
     77.6700	  530.00	  546.03	-1829.03	  403.51
     77.7700	  493.00	  540.35	-1860.35	  403.59
     77.8700	  545.00	  536.54	-1804.54	  403.66
     77.9700	  544.00	  534.09	-1803.09	  403.74
     78.0700	  528.00	  532.53	-1817.53	  403.81
     78.1700	  482.00	  531.56	-1862.56	  403.88
     78.2700	  534.00	  530.97	-1809.97	  403.95
     78.3700	  509.00	  530.60	-1834.60	  404.01
     78.4700	  515.00	  530.39	-1828.39	  404.08
     78.5700	  481.00	  530.28	-1862.28	  404.15
     78.6700	  538.00	  530.27	-1805.27	  404.21
     78.7700	  511.00	  530.35	-1832.35	  404.27
     78.8700	  524.00	  530.53	-1819.53	  404.33
     78.9700	  511.00	  530.83	-1832.83	  404.39
     79.0700	  549.00	  531.28	-1795.28	  404.45
     79.1700	  486.00	  531.93	-1858.93	  404.51
     79.2700	  534.00	  532.83	-1811.83	  404.57
     79.3700	  514.00	  533.87	-1832.87	  404.62
     79.4700	  526.00	  535.50	-1822.50	  404.67
     79.5700	  520.00	  537.60	-1830.60	  404.72
     79.6700	  521.00	  540.28	-1832.28	  404.78
     79.7700	  543.00	  543.64	-1813.64	  404.82
     79.8700	  528.00	  547.83	-1832.83	  404.87
     79.9700	  529.00	  553.01	-1837.01	  404.92
     80.0700	  503.00	  559.36	-1869.36	  404.96
     80.1700	  522.00	  567.13	-1858.13	  405.01
     80.2700	  557.00	  576.57	-1832.57	  405.05
     80.3700	  537.00	  587.93	-1863.93	  405.09
     80.4700	  581.00	  601.37	-1833.37	  405.13
     80.5700	  541.00	  616.86	-1888.86	  405.17
     80.6700	  602.00	  634.08	-1845.08	  405.20
     80.7700	  621.00	  652.32	-1844.32	  405.24
     80.8700	  623.00	  670.53	-1860.53	  405.27
     80.9700	  726.00	  687.34	-1774.34	  405.31
     81.0700	  629.00	  701.37	-1885.37	  405.34
     81.1700	  746.00	  711.49	-1778.49	  405.37
     81.2700	  694.00	  716.97	-1835.97	  405.39
     81.3700	  723.00	  717.50	-1807.50	  405.42
     81.4700	  810.00	  713.17	-1716.17	  405.44
     81.5700	  720.00	  704.50	-1797.50	  405.47
     81.6700	  823.00	  692.27	-1682.27	  405.49
     81.7700	  799.00	  677.38	-1691.38	  405.51
     81.8700	  709.00	  660.72	-1764.72	  405.53
     81.9700	  725.00	  643.17	-1731.17	  405.55
     82.0700	  671.00	  625.78	-1767.78	  405.56
     82.1700	  637.00	  609.33	-1785.33	  405.58
     82.2700	  652.00	  594.45	-1755.45	  405.59
     82.3700	  636.00	  581.50	-1758.50	  405.60
     82.4700	  599.00	  570.64	-1784.64	  405.61
     82.5700	  602.00	  561.90	-1772.90	  405.62
     82.6700	  579.00	  555.17	-1789.17	  405.62
     82.7700	  585.00	  550.37	-1778.37	  405.63
     82.8700	  543.00	  547.32	-1817.32	  405.63
     82.9700	  536.00	  545.88	-1822.88	  405.63
     83.0700	  518.00	  545.94	-1840.94	  405.63
     83.1700	  579.00	  547.38	-1781.38	  405.63
     83.2700	  524.00	  550.12	-1839.12	  405.63
     83.3700	  522.00	  554.02	-1845.02	  405.63
     83.4700	  561.00	  558.90	-1810.90	  405.62
     83.5700	  543.00	  564.48	-1834.48	  405.61
     83.6700	  550.00	  570.38	-1833.38	  405.60
     83.7700	  575.00	  576.14	-1814.14	  405.59
     83.8700	  551.00	  581.17	-1843.17	  405.58
     83.9700	  507.00	  584.85	-1890.85	  405.56
     84.0700	  561.00	  586.64	-1838.64	  405.55
     84.1700	  560.00	  586.23	-1839.23	  405.53
     84.2700	  632.00	  583.64	-1764.64	  405.51
     84.3700	  591.00	  579.26	-1801.26	  405.49
     84.4700	  556.00	  573.64	-1830.64	  405.47
     84.5700	  560.00	  567.38	-1820.38	  405.45
     84.6700	  547.00	  561.02	-1827.02	  405.42
     84.7700	  549.00	  554.96	-1818.96	  405.39
     84.8700	  530.00	  549.50	-1832.50	  405.36
     84.9700	  520.00	  544.84	-1837.84	  405.33
     85.0700	  459.00	  541.04	-1895.04	  405.30
     85.1700	  489.00	  538.09	-1862.09	  405.27
     85.2700	  509.00	  535.94	-1839.94	  405.23
     85.3700	  530.00	  534.47	-1817.47	  405.19
     85.4700	  517.00	  533.59	-1829.59	  405.15
     85.5700	  482.00	  533.19	-1864.19	  405.11
     85.6700	  520.00	  533.20	-1826.20	  405.07
     85.7700	  507.00	  533.57	-1839.57	  405.03
     85.8700	  493.00	  534.26	-1854.26	  404.98
     85.9700	  529.00	  535.28	-1819.28	  404.93
     86.0700	  539.00	  536.67	-1810.67	  404.89
     86.1700	  514.00	  538.49	-1837.49	  404.83
     86.2700	  519.00	  540.81	-1834.81	  404.78
     86.3700	  510.00	  543.76	-1846.76	  404.73
     86.4700	  531.00	  547.46	-1829.46	  404.67
     86.5700	  527.00	  552.04	-1838.04	  404.61
     86.6700	  551.00	  557.62	-1819.62	  404.56
     86.7700	  541.00	  564.24	-1836.24	  404.49
     86.8700	  591.00	  571.52	-1793.52	  404.43
     86.9700	  595.00	  579.87	-1797.87	  404.37
     87.0700	  585.00	  588.61	-1816.61	  404.30
     87.1700	  631.00	  597.20	-1779.20	  404.23
     87.2700	  659.00	  605.01	-1759.01	  404.16
     87.3700	  629.00	  611.28	-1795.28	  404.09
     87.4700	  627.00	  615.31	-1801.31	  404.02
     87.5700	  664.00	  616.55	-1765.55	  403.94
     87.6700	  656.00	  614.81	-1771.81	  403.87
     87.7700	  646.00	  610.36	-1777.36	  403.79
     87.8700	  625.00	  603.83	-1791.83	  403.71
     87.9700	  578.00	  596.05	-1831.05	  403.63
     88.0700	  616.00	  587.89	-1784.89	  403.55
     88.1700	  577.00	  580.13	-1816.13	  403.46
     88.2700	  562.00	  573.46	-1824.46	  403.37
     88.3700	  602.00	  568.39	-1779.39	  403.29
     88.4700	  615.00	  565.25	-1763.25	  403.19
     88.5700	  514.00	  564.21	-1863.21	  403.10
     88.6700	  581.00	  565.26	-1797.26	  403.01
     88.7700	  573.00	  568.20	-1808.20	  402.91
     88.8700	  579.00	  572.73	-1806.73	  402.82
     88.9700	  634.00	  578.39	-1757.39	  402.72
     89.0700	  603.00	  584.62	-1794.62	  402.62
     89.1700	  594.00	  590.81	-1809.81	  402.51
     89.2700	  633.00	  596.26	-1776.26	  402.41
     89.3700	  625.00	  600.31	-1788.31	  402.30
     89.4700	  524.00	  602.37	-1891.37	  402.20
     89.5700	  600.00	  602.12	-1815.12	  402.09
     89.6700	  582.00	  599.54	-1830.54	  401.98
     89.7700	  594.00	  594.94	-1813.94	  401.86
     89.8700	  567.00	  588.82	-1834.82	  401.75
     89.9700	  570.00	  581.77	-1824.77	  401.63
     90.0700	  576.00	  574.36	-1811.36	  401.52
     90.1700	  507.00	  567.04	-1873.04	  401.40
     90.2700	  511.00	  560.20	-1862.20	  401.28
     90.3700	  536.00	  554.09	-1831.09	  401.15
     90.4700	  551.00	  548.86	-1810.86	  401.03
     90.5700	  519.00	  544.57	-1838.57	  400.90
     90.6700	  524.00	  541.20	-1830.20	  400.77
     90.7700	  540.00	  538.66	-1811.66	  400.64
     90.8700	  488.00	  536.86	-1861.86	  400.51
     90.9700	  524.00	  535.68	-1824.68	  400.38
     91.0700	  526.00	  535.02	-1822.02	  400.24
     91.1700	  486.00	  534.81	-1861.81	  400.11
     91.2700	  516.00	  535.01	-1832.01	  399.97
     91.3700	  506.00	  535.61	-1842.61	  399.83
     91.4700	  531.00	  536.65	-1818.65	  399.69
     91.5700	  482.00	  538.21	-1869.21	  399.54
     91.6700	  542.00	  540.41	-1811.41	  399.40
     91.7700	  540.00	  543.42	-1816.42	  399.25
     91.8700	  523.00	  547.42	-1837.42	  399.10
     91.9700	  551.00	  552.39	-1814.39	  398.95
     92.0700	  523.00	  558.96	-1848.96	  398.80
     92.1700	  553.00	  567.09	-1827.09	  398.65
     92.2700	  564.00	  576.86	-1825.86	  398.49
     92.3700	  600.00	  588.30	-1801.30	  398.34
     92.4700	  625.00	  601.31	-1789.31	  398.18
     92.5700	  578.00	  615.69	-1850.69	  398.02
     92.6700	  616.00	  631.07	-1828.07	  397.86
     92.7700	  688.00	  646.97	-1771.97	  397.69
     92.8700	  736.00	  662.81	-1739.81	  397.53
     92.9700	  768.00	  677.91	-1722.91	  397.36
     93.0700	  691.00	  691.61	-1813.61	  397.19
     93.1700	  768.00	  703.43	-1748.43	  397.02
     93.2700	  724.00	  713.18	-1802.18	  396.85
     93.3700	  751.00	  721.09	-1783.09	  396.68
     93.4700	  795.00	  727.76	-1745.76	  396.51
     93.5700	  824.00	  733.96	-1722.96	  396.33
     93.6700	  766.00	  740.53	-1787.53	  396.15
     93.7700	  855.00	  748.17	-1706.17	  395.97
     93.8700	  871.00	  757.50	-1699.50	  395.79
     93.9700	  824.00	  768.97	-1757.97	  395.61
     94.0700	  864.00	  782.89	-1731.89	  395.42
     94.1700	  847.00	  799.40	-1765.40	  395.24
     94.2700	  846.00	  818.38	-1785.38	  395.05
     94.3700	  900.00	  839.29	-1752.29	  394.86
     94.4700	  838.00	  861.19	-1836.19	  394.67
     94.5700	  882.00	  882.70	-1813.70	  394.48
     94.6700	  842.00	  902.07	-1873.07	  394.29
     94.7700	  942.00	  917.29	-1788.29	  394.09
     94.8700	  900.00	  926.39	-1839.39	  393.90
     94.9700	  918.00	  927.83	-1822.83	  393.70
     95.0700	  951.00	  920.88	-1782.88	  393.50
     95.1700	  834.00	  905.85	-1884.85	  393.30
     95.2700	  867.00	  884.01	-1830.01	  393.10
     95.3700	  827.00	  857.23	-1843.23	  392.89
     95.4700	  767.00	  827.65	-1873.65	  392.69
     95.5700	  788.00	  797.40	-1822.40	  392.48
     95.6700	  768.00	  768.47	-1813.47	  392.27
     95.7700	  702.00	  742.70	-1853.70	  392.06
     95.8700	  668.00	  721.72	-1866.72	  391.85
     95.9700	  697.00	  706.96	-1822.96	  391.64
     96.0700	  681.00	  699.68	-1831.68	  391.42
     96.1700	  666.00	  700.98	-1847.98	  391.21
     96.2700	  676.00	  711.78	-1848.78	  390.99
     96.3700	  725.00	  732.80	-1820.80	  390.77
     96.4700	  794.00	  764.52	-1783.52	  390.55
     96.5700	  809.00	  807.04	-1811.04	  390.33
     96.6700	  865.00	  860.06	-1808.06	  390.11
     96.7700	  865.00	  922.70	-1870.70	  389.89
     96.8700	  952.00	  993.44	-1854.44	  389.66
     96.9700	 1056.00	 1070.03	-1827.03	  389.44
     97.0700	 1115.00	 1149.47	-1847.47	  389.21
     97.1700	 1220.00	 1228.10	-1821.10	  388.98
     97.2700	 1239.00	 1301.65	-1875.65	  388.75
     97.3700	 1362.00	 1365.46	-1816.46	  388.52
     97.4700	 1356.00	 1414.88	-1871.88	  388.28
     97.5700	 1413.00	 1445.90	-1845.90	  388.05
     97.6700	 1476.00	 1455.94	-1792.94	  387.81
     97.7700	 1427.00	 1444.38	-1830.38	  387.58
     97.8700	 1481.00	 1412.74	-1744.74	  387.34
     97.9700	 1402.00	 1364.20	-1775.20	  387.10
     98.0700	 1258.00	 1303.03	-1858.03	  386.86
     98.1700	 1303.00	 1233.79	-1743.79	  386.62
     98.2700	 1161.00	 1160.92	-1812.92	  386.38
     98.3700	 1073.00	 1088.53	-1828.53	  386.13
     98.4700	 1004.00	 1020.15	-1829.15	  385.89
     98.5700	  919.00	  958.73	-1852.73	  385.64
     98.6700	  917.00	  906.58	-1802.58	  385.39
     98.7700	  815.00	  865.45	-1863.45	  385.14
     98.8700	  830.00	  836.63	-1819.63	  384.90
     98.9700	  820.00	  821.01	-1814.01	  384.64
     99.0700	  802.00	  819.17	-1830.17	  384.39
     99.1700	  803.00	  831.44	-1841.44	  384.14
     99.2700	  833.00	  857.98	-1837.98	  383.89
     99.3700	  870.00	  898.73	-1841.73	  383.63
     99.4700	  932.00	  953.43	-1834.43	  383.37
     99.5700	  968.00	 1021.53	-1866.53	  383.12
     99.6700	 1123.00	 1102.13	-1792.13	  382.86
     99.7700	 1146.00	 1193.91	-1860.91	  382.60
     99.8700	 1225.00	 1294.94	-1882.94	  382.34
     99.9700	 1409.00	 1402.69	-1806.69	  382.08
    100.0700	 1539.00	 1513.93	-1787.93	  381.82
    100.1700	 1652.00	 1624.81	-1785.81	  381.55
    100.2700	 1765.00	 1731.00	-1779.00	  381.29
    100.3700	 1813.00	 1828.17	-1828.17	  381.02
    100.4700	 1868.00	 1912.38	-1857.38	  380.76
    100.5700	 2129.00	 1980.55	-1664.55	  380.49
    100.6700	 2142.00	 2030.51	-1701.51	  380.23
    100.7700	 2068.00	 2060.78	-1805.78	  379.96
    100.8700	 2077.00	 2070.46	-1806.46	  379.69
    100.9700	 2098.00	 2059.00	-1774.00	  379.42
    101.0700	 2123.00	 2026.58	-1716.58	  379.15
    101.1700	 2080.00	 1974.39	-1707.39	  378.88
    101.2700	 1963.00	 1905.01	-1755.01	  378.60
    101.3700	 1836.00	 1822.36	-1799.36	  378.33
    101.4700	 1675.00	 1731.27	-1869.27	  378.06
    101.5700	 1654.00	 1636.79	-1795.79	  377.78
    101.6700	 1624.00	 1543.65	-1732.65	  377.51
    101.7700	 1480.00	 1455.88	-1788.88	  377.23
    101.8700	 1413.00	 1376.50	-1776.50	  376.95
    101.9700	 1237.00	 1307.54	-1883.54	  376.68
    102.0700	 1268.00	 1249.85	-1794.85	  376.40
    102.1700	 1181.00	 1203.31	-1835.31	  376.12
    102.2700	 1141.00	 1166.86	-1838.86	  375.84
    102.3700	 1066.00	 1138.61	-1885.61	  375.56
    102.4700	 1134.00	 1116.13	-1795.13	  375.28
    102.5700	 1122.00	 1096.68	-1787.68	  375.00
    102.6700	 1075.00	 1077.57	-1815.57	  374.72
    102.7700	 1092.00	 1056.48	-1777.48	  374.44
    102.8700	 1071.00	 1031.81	-1773.81	  374.15
    102.9700	  980.00	 1002.82	-1835.82	  373.87
    103.0700	  940.00	  969.58	-1842.58	  373.59
    103.1700	  979.00	  932.78	-1766.78	  373.31
    103.2700	  864.00	  893.49	-1842.49	  373.02
    103.3700	  826.00	  852.95	-1839.95	  372.74
    103.4700	  801.00	  812.42	-1824.42	  372.45
    103.5700	  793.00	  773.05	-1793.05	  372.17
    103.6700	  773.00	  735.84	-1775.84	  371.88
    103.7700	  614.00	  701.56	-1900.56	  371.60
    103.8700	  678.00	  670.78	-1805.78	  371.31
    103.9700	  668.00	  643.83	-1788.83	  371.02
    104.0700	  633.00	  620.80	-1800.80	  370.74
    104.1700	  572.00	  601.63	-1842.63	  370.45
    104.2700	  595.00	  586.10	-1804.10	  370.16
    104.3700	  586.00	  573.88	-1800.88	  369.88
    104.4700	  552.00	  564.61	-1825.61	  369.59
    104.5700	  591.00	  557.89	-1779.89	  369.30
    104.6700	  514.00	  553.32	-1852.32	  369.01
    104.7700	  512.00	  550.54	-1851.54	  368.73
    104.8700	  561.00	  549.21	-1801.21	  368.44
    104.9700	  531.00	  549.03	-1831.03	  368.15
    105.0700	  525.00	  549.76	-1837.76	  367.86
    105.1700	  538.00	  551.19	-1826.19	  367.57
    105.2700	  519.00	  553.18	-1847.18	  367.29
    105.3700	  531.00	  555.57	-1837.57	  367.00
    105.4700	  541.00	  558.27	-1830.27	  366.71
    105.5700	  518.00	  561.26	-1856.26	  366.42
    105.6700	  575.00	  564.52	-1802.52	  366.14
    105.7700	  536.00	  568.08	-1845.08	  365.85
    105.8700	  566.00	  572.03	-1819.03	  365.56
    105.9700	  531.00	  576.47	-1858.47	  365.27
    106.0700	  548.00	  581.54	-1846.54	  364.99
    106.1700	  567.00	  587.34	-1833.34	  364.70
    106.2700	  558.00	  593.94	-1848.94	  364.41
    106.3700	  583.00	  601.36	-1831.36	  364.13
    106.4700	  587.00	  609.56	-1835.56	  363.84
    106.5700	  591.00	  618.40	-1840.40	  363.56
    106.6700	  609.00	  627.71	-1831.71	  363.27
    106.7700	  613.00	  637.19	-1837.19	  362.99
    106.8700	  637.00	  646.52	-1822.52	  362.70
    106.9700	  667.00	  655.31	-1801.31	  362.42
    107.0700	  662.00	  663.15	-1814.15	  362.14
    107.1700	  658.00	  669.65	-1824.65	  361.85
    107.2700	  654.00	  674.49	-1833.49	  361.57
    107.3700	  656.00	  677.44	-1834.44	  361.29
    107.4700	  657.00	  678.47	-1834.47	  361.01
    107.5700	  641.00	  677.72	-1849.72	  360.73
    107.6700	  656.00	  675.49	-1832.49	  360.45
    107.7700	  666.00	  672.21	-1819.21	  360.17
    107.8700	  642.00	  668.32	-1839.32	  359.89
    107.9700	  658.00	  664.29	-1819.29	  359.61
    108.0700	  688.00	  660.52	-1785.52	  359.33
    108.1700	  682.00	  657.31	-1788.31	  359.06
    108.2700	  630.00	  654.88	-1837.88	  358.78
    108.3700	  640.00	  653.34	-1826.34	  358.51
    108.4700	  681.00	  652.65	-1784.65	  358.23
    108.5700	  592.00	  652.69	-1873.69	  357.96
    108.6700	  641.00	  653.22	-1825.22	  357.69
    108.7700	  648.00	  653.93	-1818.93	  357.42
    108.8700	  692.00	  654.45	-1775.45	  357.15
    108.9700	  648.00	  654.38	-1819.38	  356.88
    109.0700	  674.00	  653.38	-1792.38	  356.61
    109.1700	  663.00	  651.16	-1801.16	  356.34
    109.2700	  664.00	  647.55	-1796.55	  356.08
    109.3700	  578.00	  642.52	-1877.52	  355.81
    109.4700	  675.00	  636.16	-1774.16	  355.55
    109.5700	  610.00	  628.66	-1831.66	  355.28
    109.6700	  629.00	  620.29	-1804.29	  355.02
    109.7700	  616.00	  611.36	-1808.36	  354.76
    109.8700	  595.00	  602.14	-1820.14	  354.50
    109.9700	  616.00	  592.95	-1789.95	  354.25
    110.0700	  600.00	  584.04	-1797.04	  353.99
    110.1700	  626.00	  575.64	-1762.64	  353.73
    110.2700	  567.00	  567.91	-1813.91	  353.48
    110.3700	  592.00	  561.00	-1782.00	  353.23
    110.4700	  549.00	  554.99	-1818.99	  352.98
    110.5700	  566.00	  549.91	-1796.91	  352.73
    110.6700	  548.00	  545.77	-1810.77	  352.48
    110.7700	  528.00	  542.52	-1827.52	  352.24
    110.8700	  557.00	  540.12	-1796.12	  351.99
    110.9700	  498.00	  538.48	-1853.48	  351.75
    111.0700	  468.00	  537.54	-1882.54	  351.51
    111.1700	  555.00	  537.20	-1795.20	  351.27
    111.2700	  542.00	  537.38	-1808.38	  351.03
    111.3700	  522.00	  538.02	-1829.02	  350.80
    111.4700	  552.00	  539.04	-1800.04	  350.56
    111.5700	  553.00	  540.39	-1800.39	  350.33
    111.6700	  523.00	  542.03	-1832.03	  350.10
    111.7700	  547.00	  543.92	-1809.92	  349.87
    111.8700	  517.00	  546.03	-1842.03	  349.64
    111.9700	  590.00	  548.37	-1771.37	  349.42
    112.0700	  541.00	  550.91	-1822.91	  349.20
    112.1700	  570.00	  553.66	-1796.66	  348.98
    112.2700	  537.00	  556.64	-1832.64	  348.76
    112.3700	  534.00	  559.87	-1838.87	  348.54
    112.4700	  559.00	  563.37	-1817.37	  348.33
    112.5700	  595.00	  567.19	-1785.19	  348.12
    112.6700	  633.00	  571.38	-1751.38	  347.91
    112.7700	  595.00	  576.00	-1794.00	  347.70
    112.8700	  646.00	  581.16	-1748.16	  347.50
    112.9700	  640.00	  586.96	-1759.96	  347.29
    113.0700	  650.00	  593.55	-1756.55	  347.09
    113.1700	  626.00	  601.13	-1788.13	  346.90
    113.2700	  720.00	  609.96	-1702.96	  346.70
    113.3700	  696.00	  620.34	-1737.34	  346.51
    113.4700	  743.00	  632.70	-1702.70	  346.32
    113.5700	  788.00	  647.55	-1672.55	  346.13
    113.6700	  830.00	  665.53	-1648.53	  345.95
    113.7700	  900.00	  687.46	-1600.46	  345.77
    113.8700	  931.00	  714.29	-1596.29	  345.59
    113.9700	  916.00	  747.19	-1644.19	  345.41
    114.0700	  998.00	  787.54	-1602.54	  345.24
    114.1700	 1148.00	  836.91	-1501.91	  345.06
    114.2700	 1182.00	  897.11	-1528.11	  344.90
    114.3700	 1196.00	  970.17	-1587.17	  344.73
    114.4700	 1206.00	 1058.25	-1665.25	  344.57
    114.5700	 1366.00	 1163.66	-1610.66	  344.41
    114.6700	 1479.00	 1288.74	-1622.74	  344.25
    114.7700	 1582.00	 1435.81	-1666.81	  344.10
    114.8700	 1826.00	 1607.08	-1594.08	  343.95
    114.9700	 1913.00	 1804.41	-1704.41	  343.80
    115.0700	 2175.00	 2029.24	-1667.24	  343.66
    115.1700	 2401.00	 2282.41	-1694.41	  343.52
    115.2700	 2605.00	 2564.07	-1772.07	  343.38
    115.3700	 2833.00	 2873.48	-1853.48	  343.25
    115.4700	 3198.00	 3208.83	-1823.83	  343.12
    115.5700	 3447.00	 3567.17	-1933.17	  342.99
    115.6700	 3733.00	 3944.36	-2024.36	  342.87
    115.7700	 4118.00	 4335.08	-2030.08	  342.75
    115.8700	 4301.00	 4732.81	-2244.81	  342.63
    115.9700	 4779.00	 5129.73	-2163.73	  342.52
    116.0700	 5170.00	 5516.94	-2159.94	  342.41
    116.1700	 5458.00	 5884.53	-2239.53	  342.30
    116.2700	 6066.00	 6221.97	-1968.97	  342.20
    116.3700	 6394.00	 6518.38	-1937.38	  342.10
    116.4700	 6524.00	 6762.95	-2051.95	  342.01
    116.5700	 7011.00	 6945.96	-1747.96	  341.92
    116.6700	 7239.00	 7059.52	-1633.52	  341.83
    116.7700	 7252.00	 7098.57	-1659.57	  341.75
    116.8700	 7152.00	 7061.42	-1722.42	  341.67
    116.9700	 7017.00	 6950.06	-1746.06	  341.60
    117.0700	 7043.00	 6769.84	-1539.84	  341.53
    117.1700	 6787.00	 6528.87	-1554.87	  341.46
    117.2700	 6432.00	 6236.98	-1617.98	  341.40
    117.3700	 5904.00	 5904.86	-1813.86	  341.34
    117.4700	 5527.00	 5543.41	-1829.41	  341.29
    117.5700	 5024.00	 5163.13	-1952.13	  341.24
    117.6700	 4751.00	 4773.75	-1835.75	  341.19
    117.7700	 4486.00	 4383.92	-1710.92	  341.15
    117.8700	 4132.00	 4001.09	-1682.09	  341.12
    117.9700	 3831.00	 3631.65	-1613.65	  341.09
    118.0700	 3342.00	 3280.65	-1751.65	  341.06
    118.1700	 3104.00	 2951.99	-1660.99	  341.04
    118.2700	 2699.00	 2648.27	-1762.27	  341.02
    118.3700	 2338.00	 2371.02	-1846.02	  341.01
    118.4700	 2074.00	 2120.93	-1859.93	  341.00
    118.5700	 1859.00	 1897.80	-1851.80	  341.00
    118.6700	 1628.00	 1700.79	-1885.79	  341.00
    118.7700	 1349.00	 1528.50	-1992.50	  341.01
    118.8700	 1250.00	 1379.13	-1942.13	  341.02
    118.9700	 1128.00	 1250.72	-1935.72	  341.04
    119.0700	 1055.00	 1141.12	-1899.12	  341.06
    119.1700	  982.00	 1048.19	-1879.19	  341.09
    119.2700	  858.00	  969.79	-1924.79	  341.12
    119.3700	  850.00	  903.95	-1866.95	  341.16
    119.4700	  775.00	  848.83	-1886.83	  341.20
    119.5700	  714.00	  802.81	-1901.81	  341.25
    119.6700	  726.00	  764.42	-1851.42	  341.30
    119.7700	  701.00	  732.42	-1844.42	  341.36
    119.8700	  661.00	  705.72	-1857.72	  341.43
    119.9700	  594.00	  683.44	-1902.44	  341.50
    120.0700	  604.00	  664.81	-1873.81	  341.57
    120.1700	  621.00	  649.24	-1841.24	  341.65
    120.2700	  614.00	  636.20	-1835.20	  341.74
    120.3700	  532.00	  625.28	-1906.28	  341.84
    120.4700	  615.00	  616.16	-1814.16	  341.93
    120.5700	  580.00	  608.57	-1841.57	  342.04
    120.6700	  578.00	  602.31	-1837.31	  342.15
    120.7700	  560.00	  597.20	-1850.20	  342.27
    120.8700	  528.00	  593.11	-1878.11	  342.39
    120.9700	  538.00	  589.94	-1864.94	  342.52
    121.0700	  553.00	  587.61	-1847.61	  342.66
    121.1700	  518.00	  586.05	-1881.05	  342.80
    121.2700	  534.00	  585.21	-1864.21	  342.94
    121.3700	  527.00	  585.04	-1871.04	  343.10
    121.4700	  548.00	  585.50	-1850.50	  343.26
    121.5700	  573.00	  586.54	-1826.54	  343.43
    121.6700	  593.00	  588.12	-1808.12	  343.60
    121.7700	  586.00	  590.17	-1817.17	  343.78
    121.8700	  571.00	  592.64	-1834.64	  343.97
    121.9700	  593.00	  595.46	-1815.46	  344.16
    122.0700	  591.00	  598.56	-1820.56	  344.36
    122.1700	  573.00	  601.84	-1841.84	  344.57
    122.2700	  624.00	  605.20	-1794.20	  344.78
    122.3700	  597.00	  608.54	-1824.54	  345.00
    122.4700	  611.00	  611.74	-1813.74	  345.23
    122.5700	  589.00	  614.71	-1838.71	  345.47
    122.6700	  608.00	  617.33	-1822.33	  345.71
    122.7700	  635.00	  619.48	-1797.48	  345.96
    122.8700	  678.00	  621.09	-1756.09	  346.21
    122.9700	  631.00	  622.09	-1804.09	  346.48
    123.0700	  639.00	  622.43	-1796.43	  346.75
    123.1700	  652.00	  622.10	-1783.10	  347.03
    123.2700	  662.00	  621.11	-1772.11	  347.31
    123.3700	  644.00	  619.51	-1788.51	  347.61
    123.4700	  607.00	  617.34	-1823.34	  347.91
    123.5700	  681.00	  614.68	-1746.68	  348.22
    123.6700	  643.00	  611.60	-1781.60	  348.54
    123.7700	  596.00	  608.19	-1825.19	  348.86
    123.8700	  619.00	  604.53	-1798.53	  349.19
    123.9700	  622.00	  600.69	-1791.69	  349.53
    124.0700	  630.00	  596.76	-1779.76	  349.88
    124.1700	  588.00	  592.80	-1817.80	  350.24
    124.2700	  630.00	  588.87	-1771.87	  350.60
    124.3700	  602.00	  585.03	-1796.03	  350.98
    124.4700	  576.00	  581.32	-1818.32	  351.36
    124.5700	  620.00	  577.78	-1770.78	  351.75
    124.6700	  608.00	  574.43	-1779.43	  352.14
    124.7700	  579.00	  571.30	-1805.30	  352.55
    124.8700	  610.00	  568.40	-1771.40	  352.96
    124.9700	  603.00	  467.05	-1677.05	  353.39
    125.0700	  584.00	  467.49	-1813.00	  353.82
    125.1700	  593.00	  467.93	-1813.00	  354.26
    125.2700	  549.00	  468.38	-1813.00	  354.71
    125.3700	  548.00	  468.84	-1813.00	  355.17
    125.4700	  550.00	  469.30	-1813.00	  355.64
    125.5700	  600.00	  469.78	-1813.00	  356.11
    125.6700	  531.00	  470.26	-1813.00	  356.60
    125.7700	  624.00	  470.76	-1813.00	  357.09
    125.8700	  556.00	  471.26	-1813.00	  357.60
    125.9700	  519.00	  471.78	-1813.00	  358.11
    126.0700	  621.00	  472.30	-1813.00	  358.63
    126.1700	  587.00	  472.83	-1813.00	  359.16
    126.2700	  574.00	  473.37	-1813.00	  359.70
    126.3700	  575.00	  473.92	-1813.00	  360.25
    126.4700	  574.00	  474.48	-1813.00	  360.81
    126.5700	  528.00	  475.05	-1813.00	  361.38
    126.6700	  608.00	  475.63	-1813.00	  361.96
    126.7700	  610.00	  476.22	-1813.00	  362.55
    126.8700	  611.00	  476.82	-1813.00	  363.15
    126.9700	  567.00	  477.43	-1813.00	  363.76
    127.0700	  599.00	  478.05	-1813.00	  364.38
    127.1700	  589.00	  478.68	-1813.00	  365.01
    127.2700	  608.00	  479.32	-1813.00	  365.65
    127.3700	  589.00	  479.97	-1813.00	  366.30
    127.4700	  637.00	  480.63	-1813.00	  366.96
    127.5700	  627.00	  481.30	-1813.00	  367.63
    127.6700	  673.00	  481.98	-1813.00	  368.32
    127.7700	  658.00	  482.67	-1813.00	  369.01
    127.8700	  656.00	  483.38	-1813.00	  369.71
    127.9700	  700.00	  484.09	-1813.00	  370.42
    128.0700	  715.00	  484.81	-1813.00	  371.15
    128.1700	  726.00	  485.55	-1813.00	  371.88
    128.2700	  729.00	  486.29	-1813.00	  372.63
    128.3700	  792.00	  487.05	-1813.00	  373.38
    128.4700	  764.00	  487.82	-1813.00	  374.15
    128.5700	    0.00	  488.60	-1813.00	  374.93
    128.6700	    0.00	  489.39	-1813.00	  375.72
     12.3143	        	        	        	        	       0	(  0  0  2)	  0  1
     24.9119	        	        	        	        	       0	(  0  0  4)	  0  1
     28.3442	        	        	        	        	       0	(  1  0  0)	  0  1
     29.0425	        	        	        	        	       0	(  1  0  1)	  0  1
     31.0519	        	        	        	        	       0	(  1  0  2)	  0  1
     34.1650	        	        	        	        	       0	(  1  0  3)	  0  1
     37.8266	        	        	        	        	       0	(  0  0  6)	  0  1
     38.1480	        	        	        	        	       0	(  1  0  4)	  0  1
     42.8049	        	        	        	        	       0	(  1  0  5)	  0  1
     47.9964	        	        	        	        	       0	(  1  0  6)	  0  1
     50.2972	        	        	        	        	       0	(  1  1  0)	  0  1
     51.2655	        	        	        	        	       0	(  0  0  8)	  0  1
     52.0232	        	        	        	        	       0	(  1  1  2)	  0  1
     53.6351	        	        	        	        	       0	(  1  0  7)	  0  1
     56.9795	        	        	        	        	       0	(  1  1  4)	  0  1
     58.8012	        	        	        	        	       0	(  2  0  0)	  0  1
     59.1935	        	        	        	        	       0	(  2  0  1)	  0  1
     59.6746	        	        	        	        	       0	(  1  0  8)	  0  1
     60.3609	        	        	        	        	       0	(  2  0  2)	  0  1
     62.2775	        	        	        	        	       0	(  2  0  3)	  0  1
     64.6872	        	        	        	        	       0	(  1  1  6)	  0  1
     64.9063	        	        	        	        	       0	(  2  0  4)	  0  1
     65.5149	        	        	        	        	       0	(  0  0 10)	  0  1
     66.1009	        	        	        	        	       0	(  1  0  9)	  0  1
     68.2064	        	        	        	        	       0	(  2  0  5)	  0  1
     72.1410	        	        	        	        	       0	(  2  0  6)	  0  1
     72.9283	        	        	        	        	       0	(  1  0 10)	  0  1
     74.7426	        	        	        	        	       0	(  1  1  8)	  0  1
     76.6836	        	        	        	        	       0	(  2  0  7)	  0  1
     80.1990	        	        	        	        	       0	(  1  0 11)	  0  1
     81.0214	        	        	        	        	       0	(  0  0 12)	  0  1
     81.0641	        	        	        	        	       0	(  2  1  0)	  0  1
     81.4046	        	        	        	        	       0	(  2  1  1)	  0  1
     81.8238	        	        	        	        	       0	(  2  0  8)	  0  1
     82.4246	        	        	        	        	       0	(  2  1  2)	  0  1
     84.1194	        	        	        	        	       0	(  2  1  3)	  0  1
     86.4840	        	        	        	        	       0	(  2  1  4)	  0  1
     87.0379	        	        	        	        	       0	(  1  1 10)	  0  1
     87.5736	        	        	        	        	       0	(  2  0  9)	  0  1
     87.9887	        	        	        	        	       0	(  1  0 12)	  0  1
     89.5163	        	        	        	        	       0	(  2  1  5)	  0  1
     93.2220	        	        	        	        	       0	(  2  1  6)	  0  1
     93.9751	        	        	        	        	       0	(  2  0 10)	  0  1
     94.9705	        	        	        	        	       0	(  3  0  0)	  0  1
     95.3086	        	        	        	        	       0	(  3  0  1)	  0  1
     96.3242	        	        	        	        	       0	(  3  0  2)	  0  1
     96.4209	        	        	        	        	       0	(  1  0 13)	  0  1
     97.6209	        	        	        	        	       0	(  2  1  7)	  0  1
     98.0216	        	        	        	        	       0	(  3  0  3)	  0  1
     98.5989	        	        	        	        	       0	(  0  0 14)	  0  1
    100.4104	        	        	        	        	       0	(  3  0  4)	  0  1
    101.1145	        	        	        	        	       0	(  2  0 11)	  0  1
    101.9433	        	        	        	        	       0	(  1  1 12)	  0  1
    102.7562	        	        	        	        	       0	(  2  1  8)	  0  1
    103.5099	        	        	        	        	       0	(  3  0  5)	  0  1
    105.6984	        	        	        	        	       0	(  1  0 14)	  0  1
    107.3554	        	        	        	        	       0	(  3  0  6)	  0  1
    108.7096	        	        	        	        	       0	(  2  1  9)	  0  1
    109.1485	        	        	        	        	       0	(  2  0 12)	  0  1
    112.0093	        	        	        	        	       0	(  3  0  7)	  0  1
    115.6285	        	        	        	        	       0	(  2  1 10)	  0  1
    116.1771	        	        	        	        	       0	(  1  0 15)	  0  1
    116.7353	        	        	        	        	       0	(  2  2  0)	  0  1
    117.5810	        	        	        	        	       0	(  3  0  8)	  0  1
    118.2555	        	        	        	        	       0	(  2  2  2)	  0  1
    118.3648	        	        	        	        	       0	(  2  0 13)	  0  1
    120.1591	        	        	        	        	       0	(  0  0 16)	  0  1
    120.8510	        	        	        	        	       0	(  1  1 14)	  0  1
    122.9578	        	        	        	        	       0	(  2  2  4)	  0  1
    123.7870	        	        	        	        	       0	(  2  1 11)	  0  1
    124.2666	        	        	        	        	       0	(  3  0  9)	  0  1
    124.8223	        	        	        	        	       0	(  3  1  0)	  0  1
    125.2342	        	        	        	        	       0	(  3  1  1)	  0  1
    126.4826	        	        	        	        	       0	(  3  1  2)	  0  1
    128.5789	        	        	        	        	       0	(  1  0 16)	  0  1
    128.6099	        	        	        	        	       0	(  3  1  3)	  0  1
    129.3459	        	        	        	        	       0	(  2  0 14)	  0  1
    131.4344	        	        	        	        	       0	(  2  2  6)	  0  1
    131.7001	        	        	        	        	       0	(  3  1  4)	  0  1
    132.4469	        	        	        	        	       0	(  3  0 10)	  0  1
    133.7507	        	        	        	        	       0	(  2  1 12)	  0  1
    135.9094	        	        	        	        	       0	(  3  1  5)	  0  1
    141.5411	        	        	        	        	       0	(  3  1  6)	  0  1
    142.9996	        	        	        	        	       0	(  3  0 11)	  0  1
    143.5950	        	        	        	        	       0	(  2  0 15)	  0  1
    144.8852	        	        	        	        	       0	(  1  0 17)	  0  1
    145.7656	        	        	        	        	       0	(  2  2  8)	  0  1
    147.0191	        	        	        	        	       0	(  2  1 13)	  0  1
    149.2840	        	        	        	        	       0	(  3  1  7)	  0  1
    150.0246	        	        	        	        	       0	(  1  1 16)	  0  1
    154.5587	        	        	        	        	       0	(  0  0 18)	  0  1
    159.1259	        	        	        	        	       0	(  3  0 12)	  0  1
    159.2453	        	        	        	        	       0	(  4  0  0)	  0  1
    160.2235	        	        	        	        	       0	(  4  0  1)	  0  1
    161.4974	        	        	        	        	       0	(  3  1  8)	  0  1
    163.4911	        	        	        	        	       0	(  4  0  2)	  0  1
    171.1294	        	        	        	        	       0	(  2  0 16)	  0  1
    171.2901	        	        	        	        	       0	(  4  0  3)	  0  1
    177.0419	        	        	        	        	       0	(  2  1 14)	  0  1
