MSG Master    CELL:    5.89910   5.89910  23.16989   90.0000   90.0000  120.0000   SPGR: P 63/m m c             TEMP:    767.15
  1   1280     2.52000     0.00000    -0.12576     0.00000     0.00000    0
    96     0     2
       0.00000      10.00000
     125.00000     130.00000
 2Theta	Yobs	Ycal	Yobs-Ycal	Backg	Posr	(hkl)	K
      0.7700	    0.00	  462.68	-1777.83	  349.41
      0.8700	    0.00	  465.17	-1777.83	  351.90
      0.9700	   37.00	  467.63	-1777.83	  354.36
      1.0700	   55.00	  470.06	-1777.83	  356.79
      1.1700	   46.00	  472.47	-1777.83	  359.20
      1.2700	   44.00	  474.85	-1777.83	  361.58
      1.3700	   39.00	  477.21	-1777.83	  363.94
      1.4700	   94.00	  479.55	-1777.83	  366.28
      1.5700	  276.00	  481.86	-1777.83	  368.58
      1.6700	  455.00	  484.14	-1777.83	  370.87
      1.7700	  572.00	  486.40	-1777.83	  373.13
      1.8700	  676.00	  488.64	-1777.83	  375.37
      1.9700	  707.00	  490.85	-1777.83	  377.58
      2.0700	  743.00	  493.04	-1777.83	  379.77
      2.1700	  803.00	  495.20	-1777.83	  381.93
      2.2700	  747.00	  497.35	-1777.83	  384.07
      2.3700	  731.00	  499.46	-1777.83	  386.19
      2.4700	  743.00	  501.56	-1777.83	  388.29
      2.5700	  709.00	  503.63	-1777.83	  390.36
      2.6700	  669.00	  505.68	-1777.83	  392.40
      2.7700	  660.00	  507.70	-1777.83	  394.43
      2.8700	  616.00	  509.70	-1777.83	  396.43
      2.9700	  642.00	  511.68	-1777.83	  398.41
      3.0700	  629.00	  513.64	-1777.83	  400.37
      3.1700	  598.00	  515.58	-1777.83	  402.30
      3.2700	  697.00	  517.49	-1777.83	  404.22
      3.3700	  883.00	  519.38	-1777.83	  406.11
      3.4700	  941.00	  521.25	-1777.83	  407.98
      3.5700	 1119.00	  523.09	-1777.83	  409.82
      3.6700	 1193.00	  524.92	-1777.83	  411.65
      3.7700	 1318.00	  526.72	-1777.83	  413.45
      3.8700	 1459.00	  528.51	-1777.83	  415.23
      3.9700	 1474.00	  530.27	-1777.83	  416.99
      4.0700	 1548.00	  532.01	-1777.83	  418.73
      4.1700	 1549.00	  533.73	-1777.83	  420.45
      4.2700	 1490.00	  535.42	-1777.83	  422.15
      4.3700	 1570.00	  537.10	-1777.83	  423.83
      4.4700	 1507.00	  538.76	-1777.83	  425.49
      4.5700	 1401.00	  540.39	-1777.83	  427.12
      4.6700	 1343.00	  542.01	-1777.83	  428.74
      4.7700	 1313.00	  543.60	-1777.83	  430.33
      4.8700	 1342.00	  545.18	-1777.83	  431.91
      4.9700	 1234.00	  546.74	-1777.83	  433.46
      5.0700	 1165.00	  548.27	-1777.83	  435.00
      5.1700	 1140.00	  549.79	-1777.83	  436.52
      5.2700	 1084.00	  551.28	-1777.83	  438.01
      5.3700	 1102.00	  552.76	-1777.83	  439.49
      5.4700	 1067.00	  554.22	-1777.83	  440.95
      5.5700	 1029.00	  555.66	-1777.83	  442.39
      5.6700	  970.00	  557.08	-1777.83	  443.81
      5.7700	 1047.00	  558.48	-1777.83	  445.21
      5.8700	 1007.00	  559.86	-1777.83	  446.59
      5.9700	  986.00	  561.22	-1777.83	  447.95
      6.0700	  967.00	  562.57	-1777.83	  449.30
      6.1700	  996.00	  563.89	-1777.83	  450.62
      6.2700	 1003.00	  565.20	-1777.83	  451.93
      6.3700	  902.00	  566.49	-1777.83	  453.22
      6.4700	  869.00	  567.76	-1777.83	  454.49
      6.5700	  846.00	  569.02	-1777.83	  455.75
      6.6700	  881.00	  570.25	-1777.83	  456.98
      6.7700	  850.00	  571.47	-1777.83	  458.20
      6.8700	  820.00	  572.67	-1777.83	  459.40
      6.9700	  830.00	  573.86	-1777.83	  460.59
      7.0700	  800.00	  575.02	-1777.83	  461.75
      7.1700	  790.00	  576.17	-1777.83	  462.90
      7.2700	  787.00	  577.30	-1777.83	  464.03
      7.3700	  764.00	  578.42	-1777.83	  465.15
      7.4700	  736.00	  579.52	-1777.83	  466.25
      7.5700	  772.00	  580.60	-1777.83	  467.33
      7.6700	  736.00	  581.66	-1777.83	  468.39
      7.7700	  734.00	  582.71	-1777.83	  469.44
      7.8700	  752.00	  583.74	-1777.83	  470.47
      7.9700	  783.00	  584.76	-1777.83	  471.49
      8.0700	  711.00	  585.76	-1777.83	  472.49
      8.1700	  759.00	  586.74	-1777.83	  473.47
      8.2700	  745.00	  587.71	-1777.83	  474.44
      8.3700	  714.00	  588.66	-1777.83	  475.39
      8.4700	  694.00	  589.60	-1777.83	  476.33
      8.5700	  711.00	  590.52	-1777.83	  477.25
      8.6700	  709.00	  591.43	-1777.83	  478.15
      8.7700	  717.00	  592.32	-1777.83	  479.04
      8.8700	  653.00	  593.19	-1777.83	  479.92
      8.9700	  721.00	  594.05	-1777.83	  480.78
      9.0700	  682.00	  594.89	-1777.83	  481.62
      9.1700	  685.00	  595.72	-1777.83	  482.45
      9.2700	  658.00	  596.54	-1777.83	  483.27
      9.3700	  687.00	  597.34	-1777.83	  484.07
      9.4700	  658.00	  598.12	-1777.83	  484.85
      9.5700	  667.00	  598.90	-1777.83	  485.62
      9.6700	  689.00	  599.65	-1777.83	  486.38
      9.7700	  693.00	  600.40	-1777.83	  487.12
      9.8700	  683.00	  601.12	-1777.83	  487.85
      9.9700	  698.00	  601.84	-1777.83	  488.57
     10.0700	  601.00	  604.47	-1781.29	  489.27
     10.1700	  706.00	  605.38	-1677.20	  489.95
     10.2700	  635.00	  606.32	-1749.15	  490.63
     10.3700	  643.00	  607.32	-1742.15	  491.29
     10.4700	  645.00	  608.42	-1741.24	  491.93
     10.5700	  644.00	  609.65	-1743.48	  492.57
     10.6700	  657.00	  611.11	-1731.94	  493.19
     10.7700	  673.00	  612.89	-1717.72	  493.79
     10.8700	  679.00	  615.09	-1713.91	  494.39
     10.9700	  659.00	  617.75	-1736.58	  494.97
     11.0700	  610.00	  620.90	-1788.72	  495.53
     11.1700	  662.00	  624.54	-1740.36	  496.09
     11.2700	  619.00	  628.70	-1787.52	  496.63
     11.3700	  696.00	  633.46	-1715.29	  497.16
     11.4700	  650.00	  638.96	-1766.78	  497.68
     11.5700	  633.00	  645.40	-1790.22	  498.18
     11.6700	  658.00	  653.08	-1772.91	  498.67
     11.7700	  630.00	  662.39	-1810.22	  499.15
     11.8700	  702.00	  673.63	-1749.46	  499.62
     11.9700	  687.00	  686.61	-1777.43	  500.08
     12.0700	  725.00	  699.99	-1752.81	  500.52
     12.1700	  766.00	  710.60	-1722.42	  500.96
     12.2700	  744.00	  713.17	-1747.00	  501.38
     12.3700	  752.00	  703.27	-1729.09	  501.79
     12.4700	  776.00	  683.95	-1685.78	  502.18
     12.5700	  659.00	  663.89	-1782.72	  502.57
     12.6700	  616.00	  648.27	-1810.10	  502.95
     12.7700	  655.00	  637.85	-1760.68	  503.31
     12.8700	  617.00	  631.55	-1792.37	  503.66
     12.9700	  651.00	  627.91	-1754.74	  504.01
     13.0700	  634.00	  625.81	-1769.64	  504.34
     13.1700	  561.00	  624.54	-1841.36	  504.66
     13.2700	  611.00	  623.71	-1790.54	  504.97
     13.3700	  646.00	  623.19	-1755.02	  505.27
     13.4700	  564.00	  622.82	-1836.65	  505.56
     13.5700	  596.00	  622.57	-1804.40	  505.83
     13.6700	  638.00	  622.42	-1762.24	  506.10
     13.7700	  644.00	  622.33	-1756.15	  506.36
     13.8700	  605.00	  622.28	-1795.11	  506.61
     13.9700	  555.00	  622.28	-1845.10	  506.84
     14.0700	  596.00	  622.30	-1804.13	  507.07
     14.1700	  645.00	  622.34	-1755.17	  507.29
     14.2700	  617.00	  622.40	-1783.22	  507.50
     14.3700	  589.00	  622.46	-1811.29	  507.69
     14.4700	  617.00	  622.54	-1783.36	  507.88
     14.5700	  594.00	  622.62	-1806.44	  508.06
     14.6700	  619.00	  622.70	-1781.52	  508.23
     14.7700	  652.00	  622.78	-1748.61	  508.39
     14.8700	  620.00	  622.86	-1780.69	  508.54
     14.9700	  598.00	  622.94	-1802.77	  508.68
     15.0700	  620.00	  623.02	-1780.84	  508.82
     15.1700	  599.00	  623.09	-1801.92	  508.94
     15.2700	  569.00	  623.16	-1831.99	  509.06
     15.3700	  606.00	  623.22	-1795.05	  509.16
     15.4700	  588.00	  623.28	-1813.11	  509.26
     15.5700	  593.00	  623.34	-1808.16	  509.35
     15.6700	  617.00	  623.39	-1784.21	  509.43
     15.7700	  582.00	  623.43	-1819.26	  509.50
     15.8700	  664.00	  623.47	-1737.29	  509.56
     15.9700	  566.00	  623.50	-1835.32	  509.62
     16.0700	  594.00	  623.52	-1807.35	  509.66
     16.1700	  598.00	  623.54	-1803.37	  509.70
     16.2700	  669.00	  623.55	-1732.38	  509.73
     16.3700	  599.00	  623.56	-1802.38	  509.75
     16.4700	  558.00	  623.56	-1843.38	  509.77
     16.5700	  567.00	  623.55	-1834.37	  509.78
     16.6700	  568.00	  623.53	-1833.36	  509.77
     16.7700	  643.00	  623.51	-1758.34	  509.77
     16.8700	  571.00	  623.48	-1830.31	  509.75
     16.9700	  626.00	  623.45	-1775.27	  509.72
     17.0700	  608.00	  623.41	-1793.23	  509.69
     17.1700	  547.00	  623.36	-1854.18	  509.65
     17.2700	  615.00	  623.30	-1786.13	  509.61
     17.3700	  602.00	  623.24	-1799.07	  509.55
     17.4700	  587.00	  623.18	-1814.00	  509.49
     17.5700	  647.00	  623.20	-1754.03	  509.43
     17.6700	  602.00	  623.13	-1798.95	  509.35
     17.7700	  569.00	  623.04	-1831.87	  509.27
     17.8700	  624.00	  622.95	-1776.78	  509.18
     17.9700	  598.00	  623.00	-1802.83	  509.09
     18.0700	  592.00	  622.90	-1808.73	  508.99
     18.1700	  589.00	  622.79	-1811.62	  508.88
     18.2700	  558.00	  622.68	-1842.51	  508.76
     18.3700	  595.00	  622.56	-1805.39	  508.64
     18.4700	  597.00	  622.44	-1803.26	  508.51
     18.5700	  589.00	  622.31	-1811.13	  508.38
     18.6700	  595.00	  622.17	-1805.00	  508.24
     18.7700	  598.00	  622.03	-1801.86	  508.09
     18.8700	  618.00	  621.88	-1781.71	  507.94
     18.9700	  611.00	  621.73	-1788.56	  507.78
     19.0700	  594.00	  621.57	-1805.40	  507.62
     19.1700	  586.00	  621.41	-1813.24	  507.45
     19.2700	  599.00	  621.24	-1800.07	  507.27
     19.3700	  578.00	  621.07	-1820.89	  507.09
     19.4700	  592.00	  620.94	-1806.76	  506.90
     19.5700	  590.00	  620.75	-1808.58	  506.71
     19.6700	  591.00	  620.57	-1807.39	  506.51
     19.7700	  603.00	  620.37	-1795.20	  506.31
     19.8700	  610.00	  620.18	-1788.00	  506.10
     19.9700	  569.00	  619.98	-1828.80	  505.88
     20.0700	  645.00	  619.77	-1752.60	  505.66
     20.1700	  604.00	  619.56	-1793.39	  505.44
     20.2700	  637.00	  619.35	-1760.17	  505.21
     20.3700	  603.00	  619.13	-1793.96	  504.97
     20.4700	  591.00	  618.91	-1805.73	  504.73
     20.5700	  594.00	  618.68	-1802.51	  504.49
     20.6700	  629.00	  618.45	-1767.28	  504.24
     20.7700	  592.00	  618.22	-1804.05	  503.98
     20.8700	  608.00	  617.98	-1787.81	  503.72
     20.9700	  603.00	  617.75	-1792.57	  503.46
     21.0700	  581.00	  617.50	-1814.33	  503.19
     21.1700	  584.00	  617.26	-1811.09	  502.91
     21.2700	  614.00	  617.01	-1780.84	  502.64
     21.3700	  568.00	  616.76	-1826.59	  502.35
     21.4700	  598.00	  616.51	-1796.34	  502.07
     21.5700	  610.00	  616.26	-1784.08	  501.78
     21.6700	  618.00	  616.00	-1775.83	  501.48
     21.7700	  605.00	  615.75	-1788.57	  501.18
     21.8700	  587.00	  615.49	-1806.32	  500.88
     21.9700	  633.00	  615.39	-1760.22	  500.57
     22.0700	  612.00	  615.14	-1780.97	  500.26
     22.1700	  582.00	  614.89	-1810.72	  499.94
     22.2700	  602.00	  614.64	-1790.47	  499.62
     22.3700	  627.00	  614.39	-1765.22	  499.30
     22.4700	  622.00	  614.15	-1769.98	  498.97
     22.5700	  636.00	  613.91	-1755.74	  498.64
     22.6700	  595.00	  613.68	-1796.51	  498.31
     22.7700	  598.00	  613.46	-1793.28	  497.97
     22.8700	  649.00	  613.25	-1742.07	  497.63
     22.9700	  608.00	  613.05	-1782.87	  497.29
     23.0700	  593.00	  612.87	-1797.69	  496.94
     23.1700	  619.00	  612.71	-1771.53	  496.59
     23.2700	  573.00	  612.57	-1817.40	  496.23
     23.3700	  588.00	  612.48	-1802.31	  495.87
     23.4700	  621.00	  612.43	-1769.26	  495.51
     23.5700	  603.00	  612.39	-1787.22	  495.15
     23.6700	  641.00	  612.50	-1749.33	  494.78
     23.7700	  636.00	  612.74	-1754.56	  494.41
     23.8700	  630.00	  613.18	-1761.00	  494.04
     23.9700	  590.00	  613.95	-1801.77	  493.66
     24.0700	  625.00	  615.26	-1768.09	  493.28
     24.1700	  624.00	  617.46	-1771.29	  492.90
     24.2700	  688.00	  621.01	-1710.84	  492.52
     24.3700	  585.00	  626.44	-1819.27	  492.13
     24.4700	  655.00	  634.16	-1756.99	  491.74
     24.5700	  673.00	  644.22	-1749.04	  491.35
     24.6700	  657.00	  655.88	-1776.70	  490.95
     24.7700	  732.00	  667.16	-1712.99	  490.55
     24.8700	  672.00	  674.45	-1780.27	  490.15
     24.9700	  683.00	  673.30	-1768.13	  489.75
     25.0700	  656.00	  662.75	-1784.58	  489.35
     25.1700	  675.00	  647.92	-1750.75	  488.94
     25.2700	  673.00	  634.35	-1739.18	  488.53
     25.3700	  648.00	  624.20	-1754.02	  488.12
     25.4700	  613.00	  617.44	-1782.26	  487.71
     25.5700	  608.00	  613.22	-1783.05	  487.29
     25.6700	  617.00	  610.64	-1771.47	  486.87
     25.7700	  646.00	  608.99	-1740.81	  486.45
     25.8700	  681.00	  607.86	-1704.68	  486.03
     25.9700	  657.00	  607.04	-1727.86	  485.61
     26.0700	  655.00	  606.42	-1729.25	  485.18
     26.1700	  669.00	  605.96	-1714.79	  484.76
     26.2700	  654.00	  605.64	-1729.46	  484.33
     26.3700	  676.00	  605.43	-1707.25	  483.90
     26.4700	  660.00	  605.34	-1723.16	  483.47
     26.5700	  650.00	  605.37	-1733.19	  483.03
     26.6700	  662.00	  605.53	-1721.36	  482.60
     26.7700	  657.00	  605.84	-1726.67	  482.16
     26.8700	  662.00	  606.33	-1722.16	  481.72
     26.9700	  688.00	  607.04	-1696.87	  481.28
     27.0700	  676.00	  608.03	-1709.85	  480.84
     27.1700	  663.00	  609.39	-1724.21	  480.40
     27.2700	  678.00	  611.27	-1711.09	  479.96
     27.3700	  660.00	  613.95	-1731.78	  479.51
     27.4700	  693.00	  617.98	-1702.81	  479.07
     27.5700	  688.00	  624.33	-1714.16	  478.62
     27.6700	  766.00	  634.68	-1646.51	  478.17
     27.7700	  688.00	  651.56	-1741.38	  477.72
     27.8700	  741.00	  678.02	-1714.84	  477.27
     27.9700	  766.00	  716.40	-1728.23	  476.82
     28.0700	  813.00	  766.30	-1731.13	  476.37
     28.1700	  899.00	  822.23	-1701.05	  475.91
     28.2700	  961.00	  871.82	-1688.65	  475.46
     28.3700	 1023.00	  897.34	-1652.17	  475.00
     28.4700	  920.00	  889.83	-1747.66	  474.55
     28.5700	  898.00	  868.53	-1748.36	  474.09
     28.6700	  887.00	  863.01	-1753.83	  473.63
     28.7700	  888.00	  885.57	-1775.40	  473.18
     28.8700	  863.00	  929.04	-1843.87	  472.72
     28.9700	  953.00	  970.95	-1795.78	  472.26
     29.0700	 1007.00	  979.44	-1750.27	  471.80
     29.1700	  951.00	  934.23	-1761.05	  471.34
     29.2700	  856.00	  853.16	-1774.99	  470.88
     29.3700	  851.00	  771.38	-1698.21	  470.42
     29.4700	  713.00	  707.84	-1772.67	  469.96
     29.5700	  709.00	  665.46	-1734.29	  469.49
     29.6700	  728.00	  639.92	-1689.75	  469.03
     29.7700	  727.00	  625.25	-1676.07	  468.57
     29.8700	  676.00	  616.70	-1718.53	  468.11
     29.9700	  714.00	  611.45	-1675.28	  467.64
     30.0700	  657.00	  608.15	-1728.98	  467.18
     30.1700	  715.00	  606.33	-1669.15	  466.72
     30.2700	  718.00	  606.02	-1665.85	  466.25
     30.3700	  657.00	  607.71	-1728.54	  465.79
     30.4700	  682.00	  612.30	-1708.12	  465.33
     30.5700	  667.00	  621.01	-1731.83	  464.86
     30.6700	  682.00	  634.86	-1730.69	  464.40
     30.7700	  667.00	  653.71	-1764.53	  463.93
     30.8700	  668.00	  675.15	-1784.98	  463.47
     30.9700	  673.00	  693.80	-1798.63	  463.01
     31.0700	  703.00	  701.59	-1776.42	  462.54
     31.1700	  728.00	  692.25	-1742.08	  462.08
     31.2700	  645.00	  669.50	-1802.32	  461.62
     31.3700	  641.00	  643.93	-1780.76	  461.16
     31.4700	  667.00	  622.63	-1733.46	  460.69
     31.5700	  635.00	  607.55	-1750.38	  460.23
     31.6700	  618.00	  597.95	-1757.77	  459.77
     31.7700	  623.00	  592.18	-1747.01	  459.31
     31.8700	  585.00	  588.72	-1781.55	  458.85
     31.9700	  614.00	  586.54	-1750.36	  458.39
     32.0700	  606.00	  585.06	-1756.88	  457.93
     32.1700	  609.00	  584.01	-1752.84	  457.47
     32.2700	  620.00	  583.28	-1741.11	  457.01
     32.3700	  582.00	  582.82	-1778.64	  456.55
     32.4700	  568.00	  582.59	-1792.42	  456.09
     32.5700	  565.00	  582.62	-1795.44	  455.63
     32.6700	  579.00	  582.90	-1781.73	  455.18
     32.7700	  563.00	  583.49	-1798.31	  454.72
     32.8700	  560.00	  584.44	-1802.26	  454.27
     32.9700	  575.00	  585.88	-1788.70	  453.81
     33.0700	  592.00	  587.93	-1773.75	  453.36
     33.1700	  635.00	  590.92	-1733.75	  452.91
     33.2700	  564.00	  595.45	-1809.28	  452.45
     33.3700	  593.00	  602.67	-1787.49	  452.00
     33.4700	  606.00	  614.63	-1786.45	  451.55
     33.5700	  599.00	  634.64	-1813.46	  451.10
     33.6700	  643.00	  667.10	-1801.93	  450.65
     33.7700	  706.00	  716.29	-1788.11	  450.20
     33.8700	  765.00	  783.32	-1796.14	  449.76
     33.9700	  847.00	  862.18	-1793.00	  449.31
     34.0700	 1012.00	  936.69	-1702.52	  448.87
     34.1700	 1097.00	  980.79	-1661.62	  448.42
     34.2700	 1061.00	  969.47	-1686.30	  447.98
     34.3700	  952.00	  904.75	-1730.57	  447.54
     34.4700	  855.00	  818.29	-1741.11	  447.10
     34.5700	  719.00	  738.90	-1797.72	  446.66
     34.6700	  686.00	  678.49	-1770.32	  446.22
     34.7700	  645.00	  637.77	-1770.60	  445.78
     34.8700	  662.00	  612.47	-1728.30	  445.35
     34.9700	  572.00	  597.31	-1803.13	  444.91
     35.0700	  584.00	  588.00	-1781.82	  444.48
     35.1700	  576.00	  581.85	-1783.68	  444.05
     35.2700	  572.00	  577.44	-1783.27	  443.62
     35.3700	  592.00	  574.03	-1759.85	  443.19
     35.4700	  531.00	  571.28	-1818.10	  442.76
     35.5700	  586.00	  569.47	-1761.29	  442.33
     35.6700	  559.00	  567.54	-1786.37	  441.90
     35.7700	  521.00	  565.89	-1822.72	  441.48
     35.8700	  563.00	  564.45	-1779.28	  441.06
     35.9700	  520.00	  563.18	-1821.00	  440.64
     36.0700	  574.00	  562.05	-1765.87	  440.22
     36.1700	  562.00	  561.03	-1776.86	  439.80
     36.2700	  513.00	  560.11	-1824.94	  439.38
     36.3700	  528.00	  559.28	-1809.10	  438.97
     36.4700	  567.00	  558.52	-1769.34	  438.55
     36.5700	  546.00	  557.83	-1789.65	  438.14
     36.6700	  477.00	  557.17	-1858.00	  437.73
     36.7700	  542.00	  556.62	-1792.44	  437.32
     36.8700	  554.00	  556.15	-1779.97	  436.91
     36.9700	  572.00	  555.78	-1761.61	  436.50
     37.0700	  514.00	  555.58	-1819.41	  436.10
     37.1700	  524.00	  555.63	-1809.46	  435.70
     37.2700	  546.00	  556.27	-1788.09	  435.30
     37.3700	  568.00	  557.27	-1767.10	  434.90
     37.4700	  543.00	  558.98	-1793.81	  434.50
     37.5700	  540.00	  561.42	-1799.24	  434.10
     37.6700	  555.00	  564.35	-1787.17	  433.71
     37.7700	  536.00	  567.15	-1808.98	  433.32
     37.8700	  541.00	  568.87	-1805.69	  432.93
     37.9700	  558.00	  568.63	-1788.45	  432.54
     38.0700	  573.00	  566.47	-1771.30	  432.15
     38.1700	  559.00	  563.25	-1782.08	  431.76
     38.2700	  539.00	  559.72	-1798.54	  431.38
     38.3700	  561.00	  556.31	-1773.14	  431.00
     38.4700	  535.00	  553.39	-1796.21	  430.62
     38.5700	  494.00	  551.09	-1834.91	  430.24
     38.6700	  571.00	  549.37	-1756.20	  429.87
     38.7700	  549.00	  548.11	-1776.94	  429.49
     38.8700	  586.00	  547.17	-1738.99	  429.12
     38.9700	  527.00	  546.42	-1797.25	  428.75
     39.0700	  517.00	  545.80	-1806.63	  428.38
     39.1700	  558.00	  545.26	-1765.09	  428.02
     39.2700	  528.00	  544.77	-1794.60	  427.65
     39.3700	  546.00	  544.32	-1776.14	  427.29
     39.4700	  519.00	  543.85	-1802.67	  426.93
     39.5700	  527.00	  543.44	-1794.27	  426.57
     39.6700	  566.00	  543.05	-1754.88	  426.21
     39.7700	  549.00	  542.68	-1771.51	  425.86
     39.8700	  471.00	  542.33	-1849.15	  425.51
     39.9700	  510.00	  541.99	-1809.81	  425.16
     40.0700	  538.00	  542.21	-1782.03	  424.81
     40.1700	  544.00	  541.90	-1775.73	  424.46
     40.2700	  519.00	  541.61	-1800.44	  424.12
     40.3700	  554.00	  541.33	-1765.16	  423.78
     40.4700	  545.00	  540.93	-1773.76	  423.44
     40.5700	  500.00	  540.69	-1818.52	  423.10
     40.6700	  489.00	  540.47	-1829.30	  422.76
     40.7700	  530.00	  540.27	-1788.09	  422.43
     40.8700	  527.00	  540.09	-1790.92	  422.10
     40.9700	  549.00	  539.94	-1768.77	  421.77
     41.0700	  517.00	  539.82	-1800.65	  421.44
     41.1700	  529.00	  539.74	-1788.56	  421.12
     41.2700	  507.00	  539.70	-1810.53	  420.80
     41.3700	  488.00	  539.72	-1829.55	  420.47
     41.4700	  525.00	  539.81	-1792.63	  420.16
     41.5700	  503.00	  539.99	-1814.81	  419.84
     41.6700	  531.00	  540.34	-1787.17	  419.53
     41.7700	  538.00	  540.83	-1780.65	  419.22
     41.8700	  507.00	  541.65	-1812.48	  418.91
     41.9700	  515.00	  542.92	-1805.75	  418.60
     42.0700	  530.00	  545.15	-1792.98	  418.29
     42.1700	  538.00	  548.73	-1788.55	  417.99
     42.2700	  533.00	  554.55	-1799.38	  417.69
     42.3700	  538.00	  563.50	-1803.33	  417.39
     42.4700	  511.00	  576.16	-1842.99	  417.10
     42.5700	  538.00	  592.28	-1832.10	  416.80
     42.6700	  599.00	  610.04	-1788.87	  416.51
     42.7700	  628.00	  625.79	-1775.62	  416.22
     42.8700	  595.00	  633.58	-1816.40	  415.94
     42.9700	  621.00	  629.73	-1786.55	  415.65
     43.0700	  583.00	  615.72	-1810.54	  415.37
     43.1700	  574.00	  597.33	-1801.16	  415.09
     43.2700	  562.00	  579.63	-1795.46	  414.81
     43.3700	  610.00	  565.17	-1732.99	  414.54
     43.4700	  562.00	  554.57	-1770.39	  414.27
     43.5700	  510.00	  547.41	-1815.23	  414.00
     43.6700	  553.00	  542.83	-1767.65	  413.73
     43.7700	  532.00	  539.94	-1785.76	  413.46
     43.8700	  548.00	  538.07	-1767.89	  413.20
     43.9700	  541.00	  536.78	-1773.60	  412.94
     44.0700	  509.00	  536.03	-1804.86	  412.68
     44.1700	  530.00	  535.28	-1783.11	  412.42
     44.2700	  528.00	  534.67	-1784.50	  412.17
     44.3700	  533.00	  534.17	-1778.99	  411.92
     44.4700	  527.00	  533.74	-1784.57	  411.67
     44.5700	  506.00	  533.38	-1805.21	  411.42
     44.6700	  547.00	  533.07	-1763.90	  411.18
     44.7700	  504.00	  532.81	-1806.64	  410.93
     44.8700	  554.00	  532.60	-1756.42	  410.69
     44.9700	  533.00	  532.41	-1777.24	  410.46
     45.0700	  535.00	  532.26	-1775.09	  410.22
     45.1700	  528.00	  532.15	-1781.97	  409.99
     45.2700	  545.00	  532.06	-1764.89	  409.76
     45.3700	  497.00	  532.00	-1812.83	  409.53
     45.4700	  564.00	  532.05	-1745.88	  409.30
     45.5700	  517.00	  532.06	-1792.88	  409.08
     45.6700	  577.00	  532.11	-1732.93	  408.86
     45.7700	  539.00	  532.17	-1771.00	  408.64
     45.8700	  536.00	  532.32	-1774.14	  408.43
     45.9700	  492.00	  532.45	-1818.28	  408.21
     46.0700	  540.00	  532.63	-1770.46	  408.00
     46.1700	  563.00	  532.86	-1747.68	  407.79
     46.2700	  536.00	  533.13	-1774.95	  407.59
     46.3700	  529.00	  533.46	-1782.28	  407.38
     46.4700	  550.00	  533.85	-1761.68	  407.18
     46.5700	  507.00	  534.32	-1805.15	  406.98
     46.6700	  511.00	  534.73	-1801.56	  406.78
     46.7700	  564.00	  535.41	-1749.24	  406.59
     46.8700	  553.00	  536.24	-1761.06	  406.40
     46.9700	  514.00	  537.27	-1801.10	  406.21
     47.0700	  534.00	  538.62	-1782.45	  406.02
     47.1700	  544.00	  540.49	-1774.32	  405.84
     47.2700	  550.00	  543.20	-1771.03	  405.65
     47.3700	  562.00	  547.22	-1763.05	  405.47
     47.4700	  512.00	  553.16	-1818.98	  405.30
     47.5700	  557.00	  561.60	-1782.42	  405.12
     47.6700	  591.00	  572.88	-1759.71	  404.95
     47.7700	  550.00	  586.77	-1814.59	  404.78
     47.8700	  579.00	  602.00	-1800.82	  404.61
     47.9700	  628.00	  616.38	-1766.20	  404.44
     48.0700	  612.00	  625.28	-1791.10	  404.28
     48.1700	  649.00	  626.04	-1754.87	  404.12
     48.2700	  617.00	  619.00	-1779.82	  403.96
     48.3700	  574.00	  607.72	-1811.54	  403.80
     48.4700	  570.00	  596.09	-1803.92	  403.65
     48.5700	  591.00	  586.56	-1773.38	  403.49
     48.6700	  559.00	  580.21	-1799.03	  403.34
     48.7700	  568.00	  577.20	-1787.03	  403.20
     48.8700	  546.00	  577.28	-1809.11	  403.05
     48.9700	  566.00	  580.06	-1791.89	  402.91
     49.0700	  580.00	  585.29	-1783.12	  402.77
     49.1700	  577.00	  593.13	-1793.95	  402.63
     49.2700	  567.00	  604.38	-1815.20	  402.50
     49.3700	  615.00	  621.01	-1783.83	  402.36
     49.4700	  614.00	  646.96	-1810.78	  402.23
     49.5700	  646.00	  689.11	-1820.94	  402.10
     49.6700	  680.00	  758.05	-1855.87	  401.98
     49.7700	  798.00	  867.41	-1847.24	  401.85
     49.8700	  906.00	 1030.78	-1902.61	  401.73
     49.9700	 1175.00	 1255.76	-1858.59	  401.61
     50.0700	 1529.00	 1535.61	-1784.44	  401.49
     50.1700	 1900.00	 1840.55	-1718.38	  401.38
     50.2700	 2175.00	 2111.09	-1713.91	  401.27
     50.3700	 2394.00	 2264.95	-1648.78	  401.16
     50.4700	 2297.00	 2238.44	-1719.27	  401.05
     50.5700	 2063.00	 2042.47	-1757.30	  400.94
     50.6700	 1725.00	 1753.75	-1806.57	  400.84
     50.7700	 1364.00	 1453.73	-1867.56	  400.74
     50.8700	 1096.00	 1193.43	-1875.25	  400.64
     50.9700	  877.00	  994.25	-1895.08	  400.54
     51.0700	  829.00	  857.08	-1805.90	  400.44
     51.1700	  712.00	  770.66	-1836.49	  400.35
     51.2700	  699.00	  719.23	-1798.06	  400.26
     51.3700	  658.00	  687.85	-1807.68	  400.17
     51.4700	  650.00	  665.62	-1793.44	  400.09
     51.5700	  643.00	  646.88	-1781.70	  400.00
     51.6700	  589.00	  630.10	-1818.93	  399.92
     51.7700	  672.00	  615.50	-1721.33	  399.84
     51.8700	  598.00	  603.47	-1783.29	  399.76
     51.9700	  570.00	  594.12	-1801.95	  399.69
     52.0700	  619.00	  587.35	-1746.17	  399.62
     52.1700	  604.00	  582.85	-1756.68	  399.54
     52.2700	  631.00	  580.31	-1727.14	  399.48
     52.3700	  626.00	  579.47	-1731.29	  399.41
     52.4700	  593.00	  580.25	-1765.08	  399.34
     52.5700	  589.00	  582.86	-1771.69	  399.28
     52.6700	  624.00	  587.90	-1741.73	  399.22
     52.7700	  615.00	  596.59	-1759.41	  399.16
     52.8700	  636.00	  610.92	-1752.74	  399.11
     52.9700	  656.00	  633.81	-1755.63	  399.05
     53.0700	  647.00	  668.87	-1799.69	  399.00
     53.1700	  723.00	  719.75	-1774.58	  398.95
     53.2700	  900.00	  788.87	-1666.70	  398.90
     53.3700	  894.00	  875.77	-1759.60	  398.86
     53.4700	 1004.00	  975.00	-1748.83	  398.81
     53.5700	 1052.00	 1074.20	-1800.03	  398.77
     53.6700	 1268.00	 1152.98	-1662.81	  398.73
     53.7700	 1245.00	 1187.46	-1720.28	  398.69
     53.8700	 1145.00	 1164.34	-1797.17	  398.65
     53.9700	 1135.00	 1092.51	-1735.34	  398.62
     54.0700	  962.00	  995.52	-1811.35	  398.59
     54.1700	  886.00	  895.50	-1787.33	  398.56
     54.2700	  777.00	  806.40	-1807.22	  398.53
     54.3700	  702.00	  734.64	-1810.47	  398.50
     54.4700	  670.00	  681.41	-1789.23	  398.48
     54.5700	  653.00	  644.65	-1769.48	  398.46
     54.6700	  608.00	  620.81	-1790.64	  398.44
     54.7700	  657.00	  606.17	-1727.00	  398.42
     54.8700	  636.00	  597.65	-1739.48	  398.40
     54.9700	  603.00	  593.06	-1767.89	  398.38
     55.0700	  649.00	  591.04	-1719.86	  398.37
     55.1700	  596.00	  590.81	-1772.64	  398.36
     55.2700	  641.00	  592.02	-1728.85	  398.35
     55.3700	  580.00	  594.52	-1792.35	  398.34
     55.4700	  623.00	  598.34	-1753.16	  398.34
     55.5700	  578.00	  603.61	-1803.44	  398.33
     55.6700	  654.00	  610.67	-1734.49	  398.33
     55.7700	  629.00	  620.11	-1768.94	  398.33
     55.8700	  661.00	  633.08	-1749.91	  398.33
     55.9700	  623.00	  651.68	-1806.51	  398.33
     56.0700	  702.00	  679.53	-1755.35	  398.34
     56.1700	  700.00	  722.46	-1800.29	  398.34
     56.2700	  706.00	  788.96	-1860.79	  398.35
     56.3700	  857.00	  889.79	-1810.62	  398.36
     56.4700	  990.00	 1036.29	-1824.12	  398.37
     56.5700	 1184.00	 1237.11	-1830.94	  398.39
     56.6700	 1508.00	 1493.56	-1763.38	  398.40
     56.7700	 1691.00	 1794.32	-1881.15	  398.42
     56.8700	 2091.00	 2110.06	-1796.89	  398.44
     56.9700	 2360.00	 2389.51	-1807.34	  398.46
     57.0700	 2615.00	 2563.96	-1726.79	  398.48
     57.1700	 2565.00	 2576.05	-1788.88	  398.50
     57.2700	 2405.00	 2421.08	-1793.91	  398.52
     57.3700	 2144.00	 2152.08	-1785.90	  398.55
     57.4700	 1797.00	 1839.37	-1820.20	  398.58
     57.5700	 1481.00	 1537.56	-1834.38	  398.61
     57.6700	 1242.00	 1278.39	-1814.22	  398.64
     57.7700	  962.00	 1075.14	-1890.96	  398.67
     57.8700	  871.00	  928.08	-1834.91	  398.70
     57.9700	  854.00	  829.76	-1753.59	  398.74
     58.0700	  779.00	  769.96	-1768.79	  398.78
     58.1700	  787.00	  739.20	-1730.02	  398.81
     58.2700	  746.00	  730.54	-1762.37	  398.85
     58.3700	  765.00	  740.00	-1752.83	  398.89
     58.4700	  773.00	  765.67	-1770.50	  398.94
     58.5700	  760.00	  806.55	-1824.37	  398.98
     58.6700	  896.00	  861.14	-1742.96	  399.03
     58.7700	  920.00	  926.07	-1783.90	  399.07
     58.8700	 1009.00	  995.30	-1764.13	  399.12
     58.9700	 1168.00	 1061.25	-1671.07	  399.17
     59.0700	 1206.00	 1117.90	-1689.72	  399.22
     59.1700	 1211.00	 1161.70	-1728.53	  399.27
     59.2700	 1322.00	 1188.85	-1644.68	  399.33
     59.3700	 1309.00	 1195.48	-1664.30	  399.38
     59.4700	 1253.00	 1183.50	-1708.32	  399.44
     59.5700	 1225.00	 1163.11	-1715.94	  399.50
     59.6700	 1190.00	 1146.97	-1734.80	  399.55
     59.7700	 1199.00	 1144.22	-1723.05	  399.61
     59.8700	 1150.00	 1159.73	-1787.55	  399.68
     59.9700	 1243.00	 1196.56	-1731.39	  399.74
     60.0700	 1313.00	 1256.58	-1721.40	  399.80
     60.1700	 1429.00	 1337.06	-1685.89	  399.87
     60.2700	 1433.00	 1426.94	-1771.76	  399.93
     60.3700	 1585.00	 1505.19	-1698.02	  400.00
     60.4700	 1550.00	 1544.44	-1772.26	  400.07
     60.5700	 1584.00	 1523.02	-1716.84	  400.14
     60.6700	 1479.00	 1439.98	-1738.80	  400.21
     60.7700	 1388.00	 1315.34	-1705.16	  400.28
     60.8700	 1234.00	 1175.46	-1719.29	  400.35
     60.9700	 1047.00	 1041.38	-1772.21	  400.42
     61.0700	  922.00	  926.14	-1781.96	  400.50
     61.1700	  824.00	  836.09	-1789.92	  400.58
     61.2700	  767.00	  772.76	-1783.58	  400.65
     61.3700	  771.00	  734.92	-1741.75	  400.73
     61.4700	  698.00	  720.57	-1800.40	  400.81
     61.5700	  727.00	  728.37	-1779.20	  400.89
     61.6700	  766.00	  758.26	-1770.08	  400.97
     61.7700	  813.00	  810.99	-1775.82	  401.05
     61.8700	  835.00	  886.93	-1829.76	  401.13
     61.9700	  974.00	  984.36	-1788.19	  401.22
     62.0700	 1047.00	 1097.72	-1828.54	  401.30
     62.1700	 1193.00	 1216.00	-1800.83	  401.39
     62.2700	 1253.00	 1321.77	-1846.60	  401.47
     62.3700	 1307.00	 1392.32	-1863.14	  401.56
     62.4700	 1378.00	 1407.39	-1807.21	  401.65
     62.5700	 1341.00	 1361.48	-1798.31	  401.74
     62.6700	 1202.00	 1268.16	-1843.99	  401.83
     62.7700	 1145.00	 1150.27	-1783.10	  401.92
     62.8700	 1002.00	 1028.40	-1804.23	  402.01
     62.9700	  852.00	  916.72	-1842.54	  402.10
     63.0700	  730.00	  822.98	-1870.81	  402.19
     63.1700	  720.00	  749.93	-1807.76	  402.29
     63.2700	  636.00	  696.64	-1838.47	  402.38
     63.3700	  635.00	  660.11	-1802.94	  402.48
     63.4700	  663.00	  636.60	-1751.42	  402.57
     63.5700	  642.00	  622.74	-1758.57	  402.67
     63.6700	  626.00	  616.01	-1767.84	  402.76
     63.7700	  661.00	  615.03	-1731.85	  402.86
     63.8700	  640.00	  619.48	-1757.31	  402.96
     63.9700	  664.00	  629.95	-1743.78	  403.06
     64.0700	  685.00	  647.67	-1740.50	  403.16
     64.1700	  683.00	  674.16	-1768.99	  403.26
     64.2700	  739.00	  710.54	-1749.37	  403.36
     64.3700	  779.00	  757.29	-1756.12	  403.46
     64.4700	  851.00	  813.37	-1740.19	  403.56
     64.5700	  916.00	  875.64	-1737.47	  403.66
     64.6700	  966.00	  938.49	-1750.32	  403.76
     64.7700	 1057.00	  993.09	-1713.91	  403.87
     64.8700	 1050.00	 1029.96	-1757.79	  403.97
     64.9700	 1045.00	 1041.99	-1774.82	  404.07
     65.0700	 1122.00	 1027.76	-1683.58	  404.18
     65.1700	 1006.00	  991.66	-1763.49	  404.28
     65.2700	  914.00	  941.78	-1805.60	  404.39
     65.3700	  925.00	  886.83	-1739.65	  404.49
     65.4700	  871.00	  833.30	-1740.13	  404.60
     65.5700	  756.00	  786.15	-1807.98	  404.71
     65.6700	  714.00	  746.23	-1810.05	  404.81
     65.7700	  691.00	  713.34	-1800.16	  404.92
     65.8700	  684.00	  686.23	-1780.06	  405.03
     65.9700	  614.00	  664.35	-1828.17	  405.13
     66.0700	  642.00	  647.10	-1782.93	  405.24
     66.1700	  616.00	  634.06	-1795.89	  405.35
     66.2700	  589.00	  624.45	-1813.27	  405.46
     66.3700	  604.00	  617.88	-1791.70	  405.57
     66.4700	  603.00	  614.00	-1788.82	  405.68
     66.5700	  607.00	  612.55	-1783.37	  405.78
     66.6700	  631.00	  613.50	-1760.33	  405.89
     66.7700	  625.00	  616.74	-1769.56	  406.00
     66.8700	  598.00	  622.66	-1802.48	  406.11
     66.9700	  633.00	  632.00	-1776.83	  406.22
     67.0700	  603.00	  646.19	-1821.01	  406.33
     67.1700	  682.00	  667.57	-1763.40	  406.44
     67.2700	  690.00	  699.54	-1787.37	  406.55
     67.3700	  759.00	  746.92	-1765.74	  406.66
     67.4700	  765.00	  815.56	-1828.39	  406.77
     67.5700	  885.00	  911.80	-1804.62	  406.88
     67.6700	 1003.00	 1041.18	-1816.01	  406.99
     67.7700	 1197.00	 1206.91	-1787.74	  407.10
     67.8700	 1391.00	 1407.80	-1794.63	  407.21
     67.9700	 1579.00	 1636.32	-1835.14	  407.32
     68.0700	 1835.00	 1876.92	-1819.74	  407.43
     68.1700	 2070.00	 2104.63	-1812.46	  407.54
     68.2700	 2318.00	 2285.55	-1745.37	  407.65
     68.3700	 2341.00	 2382.96	-1819.79	  407.76
     68.4700	 2392.00	 2372.52	-1758.35	  407.87
     68.5700	 2348.00	 2257.03	-1686.85	  407.97
     68.6700	 2092.00	 2064.58	-1750.40	  408.08
     68.7700	 1797.00	 1832.33	-1813.15	  408.19
     68.8700	 1614.00	 1592.74	-1756.57	  408.30
     68.9700	 1374.00	 1368.95	-1772.77	  408.41
     69.0700	 1121.00	 1174.81	-1831.64	  408.52
     69.1700	  993.00	 1016.51	-1801.33	  408.63
     69.2700	  917.00	  894.22	-1755.04	  408.73
     69.3700	  796.00	  804.14	-1785.97	  408.84
     69.4700	  744.00	  740.46	-1774.29	  408.95
     69.5700	  702.00	  696.80	-1772.63	  409.05
     69.6700	  663.00	  667.45	-1782.28	  409.16
     69.7700	  653.00	  647.85	-1772.67	  409.27
     69.8700	  623.00	  634.66	-1789.49	  409.37
     69.9700	  636.00	  625.67	-1767.50	  409.48
     70.0700	  651.00	  619.48	-1746.31	  409.58
     70.1700	  573.00	  615.25	-1820.07	  409.69
     70.2700	  658.00	  612.50	-1732.33	  409.79
     70.3700	  611.00	  611.02	-1777.85	  409.90
     70.4700	  639.00	  610.53	-1749.36	  410.00
     70.5700	  669.00	  611.47	-1720.30	  410.10
     70.6700	  619.00	  614.78	-1773.61	  410.21
     70.7700	  643.00	  618.97	-1753.80	  410.31
     70.8700	  608.00	  625.69	-1795.51	  410.41
     70.9700	  627.00	  636.07	-1786.89	  410.51
     71.0700	  642.00	  651.83	-1787.66	  410.61
     71.1700	  667.00	  675.40	-1786.22	  410.71
     71.2700	  646.00	  709.92	-1841.75	  410.81
     71.3700	  748.00	  759.17	-1789.00	  410.91
     71.4700	  863.00	  827.11	-1741.93	  411.01
     71.5700	  896.00	  917.19	-1799.02	  411.10
     71.6700	 1008.00	 1031.47	-1801.29	  411.20
     71.7700	 1191.00	 1169.50	-1756.32	  411.30
     71.8700	 1311.00	 1327.33	-1794.16	  411.39
     71.9700	 1422.00	 1496.49	-1852.32	  411.49
     72.0700	 1657.00	 1663.27	-1784.10	  411.58
     72.1700	 1707.00	 1808.45	-1879.28	  411.68
     72.2700	 1867.00	 1909.20	-1820.03	  411.77
     72.3700	 1861.00	 1945.26	-1862.09	  411.86
     72.4700	 1834.00	 1908.29	-1852.12	  411.95
     72.5700	 1791.00	 1806.83	-1793.66	  412.04
     72.6700	 1648.00	 1661.29	-1791.12	  412.13
     72.7700	 1596.00	 1494.48	-1676.31	  412.22
     72.8700	 1317.00	 1325.43	-1786.26	  412.31
     72.9700	 1114.00	 1167.70	-1831.53	  412.40
     73.0700	 1053.00	 1029.57	-1754.39	  412.49
     73.1700	  909.00	  914.85	-1783.67	  412.57
     73.2700	  898.00	  823.86	-1703.69	  412.66
     73.3700	  822.00	  754.54	-1710.37	  412.74
     73.4700	  763.00	  703.51	-1718.33	  412.82
     73.5700	  690.00	  666.90	-1754.73	  412.91
     73.6700	  688.00	  641.08	-1730.90	  412.99
     73.7700	  678.00	  622.95	-1722.78	  413.07
     73.8700	  618.00	  610.16	-1769.98	  413.15
     73.9700	  667.00	  601.01	-1711.84	  413.22
     74.0700	  639.00	  594.39	-1733.22	  413.30
     74.1700	  643.00	  589.56	-1724.38	  413.38
     74.2700	  678.00	  585.51	-1685.33	  413.45
     74.3700	  625.00	  583.02	-1735.84	  413.53
     74.4700	  607.00	  581.32	-1752.14	  413.60
     74.5700	  664.00	  580.21	-1694.04	  413.67
     74.6700	  672.00	  579.50	-1685.32	  413.75
     74.7700	  626.00	  578.97	-1730.80	  413.82
     74.8700	  631.00	  578.41	-1725.24	  413.88
     74.9700	  647.00	  577.62	-1708.45	  413.95
     75.0700	  648.00	  576.50	-1706.33	  414.02
     75.1700	  641.00	  575.11	-1711.94	  414.09
     75.2700	  644.00	  573.64	-1707.46	  414.15
     75.3700	  640.00	  572.36	-1710.18	  414.21
     75.4700	  638.00	  571.59	-1711.42	  414.28
     75.5700	  634.00	  571.67	-1715.50	  414.34
     75.6700	  604.00	  572.98	-1746.80	  414.40
     75.7700	  598.00	  575.92	-1755.75	  414.45
     75.8700	  636.00	  580.94	-1722.77	  414.51
     75.9700	  620.00	  588.47	-1746.29	  414.57
     76.0700	  630.00	  598.85	-1746.68	  414.62
     76.1700	  661.00	  612.23	-1729.05	  414.68
     76.2700	  608.00	  628.65	-1798.48	  414.73
     76.3700	  697.00	  647.67	-1728.50	  414.78
     76.4700	  673.00	  668.45	-1773.27	  414.83
     76.5700	  708.00	  689.64	-1759.47	  414.88
     76.6700	  710.00	  709.36	-1777.18	  414.93
     76.7700	  737.00	  725.14	-1765.97	  414.97
     76.8700	  730.00	  734.69	-1782.52	  415.02
     76.9700	  748.00	  736.07	-1765.90	  415.06
     77.0700	  718.00	  728.94	-1788.77	  415.10
     77.1700	  716.00	  714.63	-1776.46	  415.14
     77.2700	  680.00	  695.47	-1793.29	  415.18
     77.3700	  671.00	  673.93	-1780.75	  415.22
     77.4700	  642.00	  652.09	-1787.91	  415.25
     77.5700	  610.00	  631.47	-1799.30	  415.29
     77.6700	  614.00	  613.09	-1776.92	  415.32
     77.7700	  607.00	  597.47	-1768.29	  415.35
     77.8700	  581.00	  584.74	-1781.56	  415.38
     77.9700	  572.00	  574.76	-1780.59	  415.41
     78.0700	  556.00	  567.21	-1789.03	  415.44
     78.1700	  562.00	  561.65	-1777.47	  415.47
     78.2700	  571.00	  557.59	-1764.41	  415.49
     78.3700	  549.00	  554.52	-1783.35	  415.51
     78.4700	  549.00	  552.52	-1781.34	  415.53
     78.5700	  566.00	  551.10	-1762.93	  415.55
     78.6700	  510.00	  550.09	-1817.92	  415.57
     78.7700	  546.00	  549.36	-1781.19	  415.59
     78.8700	  554.00	  548.85	-1772.67	  415.60
     78.9700	  559.00	  548.50	-1767.33	  415.62
     79.0700	  534.00	  548.29	-1792.12	  415.63
     79.1700	  520.00	  548.23	-1806.05	  415.64
     79.2700	  576.00	  548.30	-1750.13	  415.65
     79.3700	  525.00	  548.53	-1801.36	  415.65
     79.4700	  558.00	  548.95	-1768.77	  415.66
     79.5700	  528.00	  549.57	-1799.39	  415.66
     79.6700	  528.00	  550.44	-1800.26	  415.66
     79.7700	  548.00	  551.61	-1781.43	  415.66
     79.8700	  514.00	  553.14	-1816.97	  415.66
     79.9700	  539.00	  555.11	-1793.94	  415.66
     80.0700	  559.00	  557.63	-1776.46	  415.65
     80.1700	  555.00	  560.80	-1783.62	  415.65
     80.2700	  567.00	  564.74	-1775.57	  415.64
     80.3700	  622.00	  569.59	-1725.42	  415.63
     80.4700	  563.00	  575.48	-1790.30	  415.62
     80.5700	  588.00	  582.53	-1772.35	  415.60
     80.6700	  585.00	  590.86	-1783.69	  415.59
     80.7700	  613.00	  600.55	-1765.37	  415.57
     80.8700	  645.00	  611.55	-1744.37	  415.55
     80.9700	  671.00	  623.47	-1730.30	  415.53
     81.0700	  632.00	  636.35	-1782.17	  415.51
     81.1700	  699.00	  649.40	-1728.22	  415.48
     81.2700	  674.00	  661.95	-1765.78	  415.46
     81.3700	  741.00	  673.40	-1710.22	  415.43
     81.4700	  774.00	  683.36	-1687.18	  415.40
     81.5700	  736.00	  691.71	-1733.54	  415.37
     81.6700	  781.00	  698.45	-1695.27	  415.34
     81.7700	  761.00	  703.52	-1720.35	  415.30
     81.8700	  721.00	  706.77	-1763.59	  415.26
     81.9700	  770.00	  707.84	-1715.66	  415.22
     82.0700	  786.00	  706.32	-1698.15	  415.18
     82.1700	  730.00	  701.97	-1749.80	  415.14
     82.2700	  719.00	  694.92	-1753.74	  415.10
     82.3700	  717.00	  685.66	-1746.48	  415.05
     82.4700	  711.00	  674.84	-1741.67	  415.00
     82.5700	  651.00	  663.02	-1789.85	  414.95
     82.6700	  659.00	  650.63	-1769.46	  414.90
     82.7700	  602.00	  638.04	-1813.86	  414.85
     82.8700	  611.00	  625.65	-1792.48	  414.79
     82.9700	  597.00	  613.97	-1794.79	  414.73
     83.0700	  580.00	  603.44	-1801.26	  414.67
     83.1700	  575.00	  594.44	-1797.27	  414.61
     83.2700	  582.00	  587.22	-1783.05	  414.55
     83.3700	  538.00	  581.91	-1821.74	  414.48
     83.4700	  513.00	  578.53	-1843.35	  414.41
     83.5700	  600.00	  576.99	-1754.81	  414.34
     83.6700	  547.00	  577.13	-1807.96	  414.27
     83.7700	  554.00	  578.70	-1802.53	  414.20
     83.8700	  550.00	  581.37	-1809.19	  414.12
     83.9700	  575.00	  584.71	-1787.54	  414.04
     84.0700	  573.00	  588.25	-1793.07	  413.96
     84.1700	  583.00	  591.43	-1786.25	  413.88
     84.2700	  569.00	  593.69	-1802.52	  413.80
     84.3700	  619.00	  594.55	-1753.38	  413.71
     84.4700	  553.00	  593.61	-1818.43	  413.63
     84.5700	  602.00	  591.12	-1766.95	  413.54
     84.6700	  585.00	  587.27	-1780.09	  413.44
     84.7700	  584.00	  582.47	-1776.30	  413.35
     84.8700	  558.00	  577.20	-1797.02	  413.26
     84.9700	  557.00	  571.85	-1792.67	  413.16
     85.0700	  523.00	  566.74	-1821.57	  413.06
     85.1700	  585.00	  562.10	-1754.93	  412.96
     85.2700	  524.00	  558.09	-1811.91	  412.85
     85.3700	  571.00	  554.76	-1761.58	  412.75
     85.4700	  537.00	  552.14	-1792.97	  412.64
     85.5700	  510.00	  550.20	-1818.03	  412.53
     85.6700	  538.00	  548.89	-1788.72	  412.42
     85.7700	  533.00	  548.14	-1792.97	  412.30
     85.8700	  510.00	  547.91	-1815.73	  412.19
     85.9700	  539.00	  548.12	-1786.95	  412.07
     86.0700	  547.00	  548.81	-1779.63	  411.95
     86.1700	  535.00	  549.95	-1792.78	  411.83
     86.2700	  534.00	  551.60	-1795.42	  411.70
     86.3700	  538.00	  553.81	-1793.63	  411.58
     86.4700	  611.00	  556.68	-1723.50	  411.45
     86.5700	  597.00	  560.32	-1741.15	  411.32
     86.6700	  588.00	  564.86	-1754.69	  411.18
     86.7700	  556.00	  570.41	-1792.24	  411.05
     86.8700	  575.00	  577.09	-1779.92	  410.91
     86.9700	  546.00	  584.98	-1816.80	  410.77
     87.0700	  578.00	  594.09	-1793.92	  410.63
     87.1700	  580.00	  604.35	-1802.18	  410.49
     87.2700	  608.00	  615.55	-1785.37	  410.34
     87.3700	  597.00	  627.31	-1808.14	  410.20
     87.4700	  616.00	  639.09	-1800.92	  410.05
     87.5700	  620.00	  650.16	-1807.99	  409.90
     87.6700	  656.00	  659.64	-1781.46	  409.74
     87.7700	  660.00	  666.58	-1784.40	  409.59
     87.8700	  690.00	  670.17	-1758.00	  409.43
     87.9700	  633.00	  669.98	-1814.80	  409.27
     88.0700	  647.00	  666.09	-1796.91	  409.11
     88.1700	  661.00	  659.11	-1775.94	  408.95
     88.2700	  632.00	  649.99	-1795.82	  408.78
     88.3700	  697.00	  639.73	-1720.56	  408.61
     88.4700	  644.00	  629.30	-1763.12	  408.44
     88.5700	  572.00	  619.49	-1825.32	  408.27
     88.6700	  590.00	  610.97	-1798.79	  408.10
     88.7700	  575.00	  604.19	-1807.02	  407.92
     88.8700	  580.00	  599.44	-1797.27	  407.74
     88.9700	  588.00	  596.41	-1786.24	  407.56
     89.0700	  598.00	  595.89	-1775.71	  407.38
     89.1700	  595.00	  597.22	-1780.04	  407.20
     89.2700	  638.00	  600.04	-1739.87	  407.01
     89.3700	  582.00	  603.89	-1799.72	  406.82
     89.4700	  650.00	  608.19	-1736.01	  406.63
     89.5700	  595.00	  612.28	-1795.11	  406.44
     89.6700	  623.00	  615.51	-1770.34	  406.24
     89.7700	  574.00	  617.26	-1821.09	  406.05
     89.8700	  614.00	  617.11	-1780.93	  405.85
     89.9700	  627.00	  614.91	-1765.73	  405.65
     90.0700	  652.00	  610.83	-1736.65	  405.45
     90.1700	  576.00	  605.26	-1807.09	  405.24
     90.2700	  552.00	  598.72	-1824.54	  405.04
     90.3700	  546.00	  591.68	-1823.51	  404.83
     90.4700	  563.00	  584.59	-1799.42	  404.62
     90.5700	  532.00	  577.80	-1823.62	  404.41
     90.6700	  585.00	  571.55	-1764.38	  404.19
     90.7700	  545.00	  566.03	-1798.85	  403.97
     90.8700	  523.00	  561.33	-1816.15	  403.76
     90.9700	  551.00	  557.48	-1784.30	  403.54
     91.0700	  499.00	  554.46	-1833.28	  403.31
     91.1700	  535.00	  552.22	-1795.05	  403.09
     91.2700	  489.00	  550.69	-1839.52	  402.86
     91.3700	  550.00	  549.82	-1777.64	  402.64
     91.4700	  529.00	  549.53	-1798.35	  402.41
     91.5700	  515.00	  549.81	-1812.63	  402.17
     91.6700	  508.00	  550.65	-1820.48	  401.94
     91.7700	  517.00	  552.11	-1812.93	  401.70
     91.8700	  525.00	  554.26	-1807.08	  401.47
     91.9700	  572.00	  557.21	-1763.03	  401.23
     92.0700	  552.00	  561.12	-1786.94	  400.99
     92.1700	  549.00	  566.16	-1794.98	  400.74
     92.2700	  535.00	  572.51	-1815.33	  400.50
     92.3700	  534.00	  580.35	-1824.18	  400.25
     92.4700	  563.00	  589.84	-1804.67	  400.00
     92.5700	  557.00	  601.09	-1821.91	  399.75
     92.6700	  608.00	  614.13	-1783.95	  399.50
     92.7700	  615.00	  628.91	-1791.74	  399.24
     92.8700	  644.00	  645.31	-1779.13	  398.99
     92.9700	  680.00	  663.03	-1760.86	  398.73
     93.0700	  659.00	  681.70	-1800.53	  398.47
     93.1700	  643.00	  700.79	-1835.61	  398.21
     93.2700	  717.00	  719.64	-1780.47	  397.95
     93.3700	  759.00	  737.56	-1756.38	  397.68
     93.4700	  756.00	  753.89	-1775.72	  397.41
     93.5700	  737.00	  768.23	-1809.05	  397.15
     93.6700	  796.00	  780.53	-1762.36	  396.88
     93.7700	  806.00	  791.14	-1762.97	  396.60
     93.8700	  774.00	  800.64	-1804.47	  396.33
     93.9700	  855.00	  809.67	-1732.49	  396.05
     94.0700	  823.00	  818.73	-1773.55	  395.78
     94.1700	  809.00	  828.13	-1796.96	  395.50
     94.2700	  868.00	  838.01	-1747.83	  395.22
     94.3700	  821.00	  848.07	-1804.89	  394.94
     94.4700	  879.00	  858.95	-1757.78	  394.65
     94.5700	  880.00	  870.37	-1768.20	  394.37
     94.6700	  938.00	  882.27	-1722.10	  394.08
     94.7700	  912.00	  894.40	-1760.23	  393.79
     94.8700	  925.00	  906.20	-1759.03	  393.50
     94.9700	  917.00	  916.75	-1777.57	  393.21
     95.0700	  921.00	  924.80	-1781.63	  392.92
     95.1700	  924.00	  928.98	-1782.80	  392.63
     95.2700	  936.00	  928.00	-1769.83	  392.33
     95.3700	  904.00	  921.06	-1794.89	  392.03
     95.4700	  903.00	  908.09	-1782.91	  391.73
     95.5700	  902.00	  889.80	-1765.62	  391.43
     95.6700	  863.00	  867.53	-1782.35	  391.13
     95.7700	  844.00	  842.97	-1776.80	  390.83
     95.8700	  817.00	  817.89	-1778.72	  390.52
     95.9700	  731.00	  794.01	-1840.83	  390.22
     96.0700	  747.00	  772.89	-1803.71	  389.91
     96.1700	  789.00	  755.97	-1744.79	  389.60
     96.2700	  732.00	  744.53	-1790.36	  389.29
     96.3700	  692.00	  739.69	-1825.52	  388.98
     96.4700	  763.00	  742.41	-1757.24	  388.67
     96.5700	  751.00	  753.49	-1780.32	  388.35
     96.6700	  808.00	  773.53	-1743.36	  388.04
     96.7700	  768.00	  802.95	-1812.77	  387.72
     96.8700	  822.00	  841.85	-1797.68	  387.40
     96.9700	  913.00	  890.08	-1754.90	  387.08
     97.0700	  950.00	  947.05	-1774.87	  386.76
     97.1700	  994.00	 1011.76	-1795.59	  386.44
     97.2700	 1090.00	 1082.72	-1770.54	  386.12
     97.3700	 1211.00	 1157.84	-1724.66	  385.79
     97.4700	 1246.00	 1234.46	-1766.29	  385.47
     97.5700	 1245.00	 1309.33	-1842.15	  385.14
     97.6700	 1335.00	 1378.64	-1821.46	  384.82
     97.7700	 1353.00	 1438.23	-1863.06	  384.49
     97.8700	 1496.00	 1483.95	-1765.78	  384.16
     97.9700	 1490.00	 1512.26	-1800.09	  383.83
     98.0700	 1493.00	 1521.00	-1805.82	  383.50
     98.1700	 1500.00	 1509.82	-1787.65	  383.16
     98.2700	 1486.00	 1480.29	-1772.12	  382.83
     98.3700	 1361.00	 1435.43	-1852.26	  382.50
     98.4700	 1347.00	 1379.08	-1809.91	  382.16
     98.5700	 1286.00	 1315.34	-1807.17	  381.83
     98.6700	 1188.00	 1248.15	-1837.97	  381.49
     98.7700	 1137.00	 1181.06	-1821.89	  381.15
     98.8700	 1175.00	 1117.21	-1720.04	  380.81
     98.9700	 1067.00	 1059.22	-1770.04	  380.47
     99.0700	  970.00	 1009.24	-1817.06	  380.13
     99.1700	  929.00	  968.97	-1817.79	  379.79
     99.2700	  977.00	  939.73	-1740.56	  379.45
     99.3700	  927.00	  922.54	-1773.37	  379.11
     99.4700	  873.00	  918.06	-1822.88	  378.77
     99.5700	  892.00	  926.67	-1812.50	  378.42
     99.6700	  919.00	  948.48	-1807.30	  378.08
     99.7700	  982.00	  983.32	-1779.14	  377.73
     99.8700	 1042.00	 1030.76	-1766.59	  377.39
     99.9700	 1152.00	 1090.07	-1715.89	  377.04
    100.0700	 1188.00	 1160.15	-1749.98	  376.70
    100.1700	 1179.00	 1239.53	-1838.36	  376.35
    100.2700	 1365.00	 1326.31	-1739.14	  376.00
    100.3700	 1353.00	 1418.09	-1842.92	  375.65
    100.4700	 1546.00	 1511.96	-1743.79	  375.31
    100.5700	 1624.00	 1604.62	-1758.45	  374.96
    100.6700	 1730.00	 1692.50	-1740.33	  374.61
    100.7700	 1811.00	 1772.34	-1739.17	  374.26
    100.8700	 1847.00	 1841.30	-1772.13	  373.91
    100.9700	 1922.00	 1897.34	-1753.16	  373.56
    101.0700	 1990.00	 1939.21	-1727.04	  373.21
    101.1700	 1994.00	 1966.19	-1750.01	  372.86
    101.2700	 1988.00	 1977.72	-1767.55	  372.51
    101.3700	 1935.00	 1973.39	-1816.22	  372.16
    101.4700	 1943.00	 1953.04	-1787.86	  371.81
    101.5700	 2006.00	 1917.16	-1688.99	  371.45
    101.6700	 1909.00	 1867.27	-1736.10	  371.10
    101.7700	 1849.00	 1806.00	-1734.83	  370.75
    101.8700	 1724.00	 1736.82	-1790.65	  370.40
    101.9700	 1643.00	 1663.62	-1798.45	  370.05
    102.0700	 1578.00	 1590.09	-1789.92	  369.70
    102.1700	 1473.00	 1519.43	-1824.25	  369.35
    102.2700	 1455.00	 1454.06	-1776.88	  369.00
    102.3700	 1428.00	 1395.58	-1745.41	  368.65
    102.4700	 1373.00	 1344.84	-1749.66	  368.30
    102.5700	 1324.00	 1301.85	-1755.68	  367.95
    102.6700	 1221.00	 1266.00	-1822.82	  367.59
    102.7700	 1216.00	 1236.05	-1797.87	  367.25
    102.8700	 1236.00	 1210.27	-1752.10	  366.90
    102.9700	 1193.00	 1186.66	-1771.48	  366.55
    103.0700	 1171.00	 1163.12	-1769.94	  366.20
    103.1700	 1094.00	 1137.82	-1821.64	  365.85
    103.2700	 1102.00	 1109.45	-1785.28	  365.50
    103.3700	 1059.00	 1077.40	-1796.22	  365.15
    103.4700	  954.00	 1041.73	-1865.55	  364.81
    103.5700	 1025.00	 1003.04	-1755.86	  364.46
    103.6700	  932.00	  962.28	-1808.10	  364.12
    103.7700	  944.00	  920.49	-1754.32	  363.77
    103.8700	  908.00	  878.71	-1748.54	  363.43
    103.9700	  842.00	  837.90	-1773.72	  363.08
    104.0700	  816.00	  798.85	-1760.67	  362.74
    104.1700	  769.00	  762.23	-1771.05	  362.40
    104.2700	  765.00	  728.53	-1741.36	  362.06
    104.3700	  761.00	  698.09	-1714.92	  361.71
    104.4700	  667.00	  671.08	-1781.91	  361.38
    104.5700	  667.00	  647.54	-1758.36	  361.04
    104.6700	  669.00	  627.38	-1736.21	  360.70
    104.7700	  659.00	  610.43	-1729.25	  360.36
    104.8700	  612.00	  596.42	-1762.24	  360.03
    104.9700	  603.00	  585.07	-1759.89	  359.69
    105.0700	  594.00	  576.06	-1759.89	  359.36
    105.1700	  606.00	  569.10	-1740.93	  359.03
    105.2700	  600.00	  563.90	-1741.72	  358.69
    105.3700	  594.00	  560.19	-1744.02	  358.36
    105.4700	  531.00	  557.78	-1804.60	  358.04
    105.5700	  538.00	  556.47	-1796.30	  357.71
    105.6700	  566.00	  556.14	-1767.97	  357.38
    105.7700	  567.00	  556.70	-1767.52	  357.06
    105.8700	  584.00	  558.07	-1751.90	  356.74
    105.9700	  591.00	  560.22	-1747.05	  356.41
    106.0700	  525.00	  563.14	-1815.97	  356.09
    106.1700	  549.00	  566.87	-1795.69	  355.78
    106.2700	  600.00	  571.40	-1749.23	  355.46
    106.3700	  608.00	  576.80	-1746.63	  355.14
    106.4700	  558.00	  583.10	-1802.92	  354.83
    106.5700	  610.00	  590.32	-1758.14	  354.52
    106.6700	  573.00	  598.45	-1803.28	  354.21
    106.7700	  621.00	  607.48	-1764.31	  353.90
    106.8700	  616.00	  617.30	-1779.13	  353.60
    106.9700	  631.00	  627.78	-1774.61	  353.29
    107.0700	  652.00	  638.72	-1764.55	  352.99
    107.1700	  647.00	  649.87	-1780.70	  352.69
    107.2700	  606.00	  660.92	-1832.75	  352.39
    107.3700	  703.00	  671.52	-1746.35	  352.10
    107.4700	  652.00	  681.29	-1807.11	  351.80
    107.5700	  695.00	  689.83	-1772.65	  351.51
    107.6700	  694.00	  696.79	-1780.62	  351.22
    107.7700	  689.00	  701.92	-1790.75	  350.93
    107.8700	  718.00	  705.09	-1764.92	  350.65
    107.9700	  705.00	  706.34	-1779.16	  350.37
    108.0700	  753.00	  705.92	-1730.75	  350.09
    108.1700	  737.00	  704.17	-1745.00	  349.81
    108.2700	  709.00	  701.54	-1770.36	  349.54
    108.3700	  693.00	  698.45	-1783.28	  349.26
    108.4700	  710.00	  695.33	-1763.15	  349.00
    108.5700	  690.00	  692.50	-1780.33	  348.73
    108.6700	  668.00	  690.23	-1800.06	  348.47
    108.7700	  699.00	  688.68	-1767.51	  348.20
    108.8700	  713.00	  687.90	-1752.73	  347.95
    108.9700	  688.00	  687.86	-1777.68	  347.69
    109.0700	  698.00	  688.39	-1768.22	  347.44
    109.1700	  705.00	  689.28	-1762.11	  347.19
    109.2700	  702.00	  690.21	-1766.04	  346.94
    109.3700	  711.00	  690.81	-1757.64	  346.70
    109.4700	  716.00	  690.71	-1752.53	  346.46
    109.5700	  701.00	  689.54	-1766.36	  346.22
    109.6700	  723.00	  687.03	-1741.85	  345.99
    109.7700	  681.00	  683.02	-1779.85	  345.76
    109.8700	  692.00	  677.51	-1763.34	  345.53
    109.9700	  703.00	  670.61	-1745.43	  345.31
    110.0700	  698.00	  662.53	-1742.36	  345.09
    110.1700	  698.00	  653.57	-1733.40	  344.88
    110.2700	  650.00	  644.03	-1771.86	  344.66
    110.3700	  677.00	  634.22	-1735.05	  344.45
    110.4700	  641.00	  624.42	-1761.25	  344.25
    110.5700	  673.00	  614.89	-1719.72	  344.05
    110.6700	  560.00	  605.85	-1823.68	  343.85
    110.7700	  641.00	  597.47	-1734.29	  343.66
    110.8700	  583.00	  589.91	-1784.73	  343.47
    110.9700	  618.00	  583.26	-1743.09	  343.28
    111.0700	  540.00	  577.60	-1815.42	  343.10
    111.1700	  525.00	  572.94	-1825.76	  342.93
    111.2700	  583.00	  569.29	-1764.11	  342.75
    111.3700	  576.00	  566.61	-1768.44	  342.58
    111.4700	  598.00	  564.86	-1744.69	  342.42
    111.5700	  590.00	  563.96	-1751.79	  342.26
    111.6700	  576.00	  563.83	-1765.66	  342.10
    111.7700	  553.00	  564.37	-1789.20	  341.95
    111.8700	  567.00	  565.49	-1776.32	  341.81
    111.9700	  565.00	  567.08	-1779.91	  341.66
    112.0700	  570.00	  569.06	-1776.88	  341.53
    112.1700	  579.00	  571.31	-1770.14	  341.40
    112.2700	  564.00	  573.78	-1787.60	  341.27
    112.3700	  577.00	  576.38	-1777.20	  341.15
    112.4700	  582.00	  579.06	-1774.88	  341.03
    112.5700	  578.00	  581.79	-1781.62	  340.92
    112.6700	  558.00	  584.57	-1804.39	  340.81
    112.7700	  589.00	  587.41	-1776.24	  340.71
    112.8700	  562.00	  590.37	-1806.19	  340.61
    112.9700	  588.00	  593.49	-1783.32	  340.52
    113.0700	  614.00	  596.87	-1760.69	  340.43
    113.1700	  602.00	  600.59	-1776.41	  340.35
    113.2700	  617.00	  604.77	-1765.59	  340.27
    113.3700	  617.00	  609.54	-1770.36	  340.20
    113.4700	  623.00	  615.05	-1769.88	  340.14
    113.5700	  608.00	  621.51	-1791.33	  340.08
    113.6700	  635.00	  629.13	-1771.96	  340.03
    113.7700	  625.00	  638.21	-1791.04	  339.98
    113.8700	  649.00	  649.10	-1777.93	  339.94
    113.9700	  687.00	  662.25	-1753.07	  339.90
    114.0700	  676.00	  678.19	-1780.01	  339.87
    114.1700	  731.00	  697.59	-1744.42	  339.85
    114.2700	  702.00	  721.27	-1797.09	  339.83
    114.3700	  712.00	  750.19	-1816.02	  339.82
    114.4700	  726.00	  785.52	-1837.34	  339.82
    114.5700	  815.00	  828.57	-1791.39	  339.82
    114.6700	  815.00	  880.89	-1843.72	  339.82
    114.7700	  915.00	  944.22	-1807.04	  339.84
    114.8700	  988.00	 1020.44	-1810.27	  339.86
    114.9700	 1093.00	 1111.61	-1796.43	  339.89
    115.0700	 1230.00	 1219.82	-1767.65	  339.92
    115.1700	 1390.00	 1347.27	-1735.09	  339.96
    115.2700	 1558.00	 1496.06	-1715.89	  340.01
    115.3700	 1748.00	 1668.14	-1697.96	  340.07
    115.4700	 1945.00	 1865.14	-1697.97	  340.13
    115.5700	 2165.00	 2088.30	-1701.13	  340.20
    115.6700	 2456.00	 2338.35	-1660.18	  340.28
    115.7700	 2717.00	 2615.36	-1676.18	  340.36
    115.8700	 3067.00	 2918.50	-1629.33	  340.45
    115.9700	 3235.00	 3246.10	-1788.92	  340.55
    116.0700	 3570.00	 3595.37	-1803.19	  340.65
    116.1700	 3995.00	 3962.58	-1745.41	  340.77
    116.2700	 4327.00	 4342.90	-1793.73	  340.89
    116.3700	 4675.00	 4730.21	-1833.04	  341.02
    116.4700	 5183.00	 5117.43	-1712.25	  341.15
    116.5700	 5552.00	 5496.29	-1722.11	  341.30
    116.6700	 5777.00	 5857.72	-1858.54	  341.45
    116.7700	 6174.00	 6191.91	-1795.74	  341.61
    116.8700	 6368.00	 6488.52	-1898.34	  341.78
    116.9700	 6622.00	 6737.32	-1893.15	  341.96
    117.0700	 6906.00	 6928.85	-1800.68	  342.14
    117.1700	 7109.00	 7055.31	-1724.14	  342.34
    117.2700	 6977.00	 7111.30	-1912.13	  342.54
    117.3700	 7085.00	 7094.52	-1787.35	  342.75
    117.4700	 6903.00	 7006.13	-1880.96	  342.97
    117.5700	 6878.00	 6850.57	-1750.39	  343.20
    117.6700	 6576.00	 6634.92	-1836.75	  343.43
    117.7700	 6256.00	 6368.10	-1889.93	  343.68
    117.8700	 5967.00	 6060.11	-1870.93	  343.93
    117.9700	 5583.00	 5721.16	-1915.99	  344.19
    118.0700	 5287.00	 5361.25	-1852.07	  344.47
    118.1700	 4930.00	 4989.55	-1837.38	  344.75
    118.2700	 4672.00	 4614.34	-1720.17	  345.04
    118.3700	 4358.00	 4242.97	-1662.80	  345.34
    118.4700	 3986.00	 3881.61	-1673.44	  345.65
    118.5700	 3693.00	 3535.37	-1620.19	  345.97
    118.6700	 3263.00	 3208.10	-1722.93	  346.30
    118.7700	 2948.00	 2902.62	-1732.45	  346.64
    118.8700	 2594.00	 2620.87	-1804.70	  346.98
    118.9700	 2410.00	 2363.82	-1731.64	  347.34
    119.0700	 2127.00	 2131.70	-1782.53	  347.71
    119.1700	 1906.00	 1924.06	-1795.89	  348.09
    119.2700	 1721.00	 1739.93	-1796.75	  348.48
    119.3700	 1593.00	 1577.99	-1762.82	  348.87
    119.4700	 1487.00	 1436.65	-1727.47	  349.28
    119.5700	 1350.00	 1314.11	-1741.94	  349.70
    119.6700	 1250.00	 1208.48	-1736.31	  350.13
    119.7700	 1143.00	 1117.86	-1752.68	  350.57
    119.8700	  990.00	 1040.42	-1828.25	  351.02
    119.9700	 1043.00	  974.45	-1709.27	  351.49
    120.0700	  909.00	  918.35	-1787.17	  351.96
    120.1700	  914.00	  870.68	-1734.51	  352.44
    120.2700	  820.00	  830.19	-1788.02	  352.94
    120.3700	  751.00	  795.78	-1822.61	  353.44
    120.4700	  756.00	  766.52	-1788.34	  353.96
    120.5700	  724.00	  741.61	-1795.44	  354.49
    120.6700	  673.00	  720.41	-1825.23	  355.03
    120.7700	  761.00	  702.35	-1719.18	  355.58
    120.8700	  680.00	  687.00	-1784.82	  356.14
    120.9700	  687.00	  673.98	-1764.81	  356.72
    121.0700	  631.00	  663.01	-1809.83	  357.30
    121.1700	  596.00	  653.82	-1835.65	  357.90
    121.2700	  632.00	  646.23	-1792.05	  358.51
    121.3700	  622.00	  640.06	-1795.89	  359.14
    121.4700	  619.00	  635.19	-1794.01	  359.77
    121.5700	  634.00	  631.48	-1775.31	  360.42
    121.6700	  623.00	  628.86	-1783.68	  361.08
    121.7700	  625.00	  627.21	-1780.04	  361.75
    121.8700	  673.00	  626.48	-1731.30	  362.43
    121.9700	  600.00	  626.58	-1804.41	  363.13
    122.0700	  646.00	  627.45	-1759.27	  363.84
    122.1700	  606.00	  629.00	-1800.83	  364.57
    122.2700	  598.00	  631.18	-1811.01	  365.30
    122.3700	  649.00	  633.91	-1762.73	  366.05
    122.4700	  636.00	  637.10	-1778.92	  366.81
    122.5700	  667.00	  640.67	-1751.49	  367.59
    122.6700	  636.00	  644.52	-1786.35	  368.38
    122.7700	  647.00	  648.57	-1779.39	  369.18
    122.8700	  650.00	  652.69	-1780.52	  370.00
    122.9700	  685.00	  656.80	-1749.62	  370.83
    123.0700	  673.00	  660.75	-1765.58	  371.67
    123.1700	  652.00	  664.46	-1790.28	  372.53
    123.2700	  629.00	  667.79	-1816.61	  373.40
    123.3700	  674.00	  670.65	-1774.47	  374.29
    123.4700	  694.00	  672.95	-1756.77	  375.19
    123.5700	  649.00	  674.62	-1803.44	  376.10
    123.6700	  659.00	  675.62	-1794.45	  377.03
    123.7700	  686.00	  675.94	-1767.77	  377.98
    123.8700	  676.00	  675.59	-1777.42	  378.94
    123.9700	  722.00	  674.62	-1730.44	  379.91
    124.0700	  709.00	  673.07	-1741.89	  380.90
    124.1700	  642.00	  671.01	-1806.83	  381.90
    124.2700	  682.00	  668.52	-1764.35	  382.92
    124.3700	  662.00	  665.69	-1781.51	  383.95
    124.4700	  645.00	  662.55	-1795.38	  385.00
    124.5700	  657.00	  659.25	-1780.08	  386.07
    124.6700	  616.00	  655.84	-1817.66	  387.15
    124.7700	  640.00	  652.37	-1790.19	  388.24
    124.8700	  623.00	  648.92	-1803.74	  389.36
    124.9700	  602.00	  503.75	-1679.58	  390.48
    125.0700	  609.00	  504.90	-1777.83	  391.63
    125.1700	  607.00	  506.06	-1777.83	  392.79
    125.2700	  580.00	  507.23	-1777.83	  393.96
    125.3700	  604.00	  508.43	-1777.83	  395.16
    125.4700	  597.00	  509.64	-1777.83	  396.36
    125.5700	  633.00	  510.86	-1777.83	  397.59
    125.6700	  571.00	  512.10	-1777.83	  398.83
    125.7700	  590.00	  513.36	-1777.83	  400.09
    125.8700	  576.00	  514.64	-1777.83	  401.37
    125.9700	  540.00	  515.93	-1777.83	  402.66
    126.0700	  584.00	  517.24	-1777.83	  403.97
    126.1700	  592.00	  518.57	-1777.83	  405.30
    126.2700	  586.00	  519.92	-1777.83	  406.64
    126.3700	  608.00	  521.28	-1777.83	  408.01
    126.4700	  572.00	  522.66	-1777.83	  409.39
    126.5700	  553.00	  524.06	-1777.83	  410.79
    126.6700	  553.00	  525.47	-1777.83	  412.20
    126.7700	  611.00	  526.91	-1777.83	  413.64
    126.8700	  555.00	  528.36	-1777.83	  415.09
    126.9700	  586.00	  529.83	-1777.83	  416.56
    127.0700	  580.00	  531.32	-1777.83	  418.05
    127.1700	  571.00	  532.83	-1777.83	  419.56
    127.2700	  606.00	  534.36	-1777.83	  421.08
    127.3700	  538.00	  535.90	-1777.83	  422.63
    127.4700	  580.00	  537.46	-1777.83	  424.19
    127.5700	  587.00	  539.05	-1777.83	  425.78
    127.6700	  612.00	  540.65	-1777.83	  427.38
    127.7700	  583.00	  542.27	-1777.83	  429.00
    127.8700	  583.00	  543.91	-1777.83	  430.64
    127.9700	  656.00	  545.57	-1777.83	  432.30
    128.0700	  631.00	  547.25	-1777.83	  433.98
    128.1700	  638.00	  548.95	-1777.83	  435.68
    128.2700	  638.00	  550.67	-1777.83	  437.40
    128.3700	  665.00	  552.41	-1777.83	  439.14
    128.4700	  668.00	  554.17	-1777.83	  440.90
    128.5700	    0.00	  555.95	-1777.83	  442.68
    128.6700	    0.00	  557.75	-1777.83	  444.48
     12.3621	        	        	        	        	       0	(  0  0  2)	  0  1
     25.0015	        	        	        	        	       0	(  0  0  4)	  0  1
     28.4312	        	        	        	        	       0	(  1  0  0)	  0  1
     29.1323	        	        	        	        	       0	(  1  0  1)	  0  1
     31.1494	        	        	        	        	       0	(  1  0  2)	  0  1
     34.2745	        	        	        	        	       0	(  1  0  3)	  0  1
     37.9612	        	        	        	        	       0	(  0  0  6)	  0  1
     38.2728	        	        	        	        	       0	(  1  0  4)	  0  1
     42.9478	        	        	        	        	       0	(  1  0  5)	  0  1
     48.1599	        	        	        	        	       0	(  1  0  6)	  0  1
     50.4523	        	        	        	        	       0	(  1  1  0)	  0  1
     51.4509	        	        	        	        	       0	(  0  0  8)	  0  1
     52.1858	        	        	        	        	       0	(  1  1  2)	  0  1
     53.8216	        	        	        	        	       0	(  1  0  7)	  0  1
     57.1638	        	        	        	        	       0	(  1  1  4)	  0  1
     58.9858	        	        	        	        	       0	(  2  0  0)	  0  1
     59.3799	        	        	        	        	       0	(  2  0  1)	  0  1
     59.8869	        	        	        	        	       0	(  1  0  8)	  0  1
     60.5527	        	        	        	        	       0	(  2  0  2)	  0  1
     62.4783	        	        	        	        	       0	(  2  0  3)	  0  1
     64.9069	        	        	        	        	       0	(  1  1  6)	  0  1
     65.1195	        	        	        	        	       0	(  2  0  4)	  0  1
     65.7609	        	        	        	        	       0	(  0  0 10)	  0  1
     66.3422	        	        	        	        	       0	(  1  0  9)	  0  1
     68.4356	        	        	        	        	       0	(  2  0  5)	  0  1
     72.3900	        	        	        	        	       0	(  2  0  6)	  0  1
     73.2027	        	        	        	        	       0	(  1  0 10)	  0  1
     75.0121	        	        	        	        	       0	(  1  1  8)	  0  1
     76.9564	        	        	        	        	       0	(  2  0  7)	  0  1
     80.5118	        	        	        	        	       0	(  1  0 11)	  0  1
     81.3458	        	        	        	        	       0	(  0  0 12)	  0  1
     81.3403	        	        	        	        	       0	(  2  1  0)	  0  1
     81.6829	        	        	        	        	       0	(  2  1  1)	  0  1
     82.1251	        	        	        	        	       0	(  2  0  8)	  0  1
     82.7087	        	        	        	        	       0	(  2  1  2)	  0  1
     84.4135	        	        	        	        	       0	(  2  1  3)	  0  1
     86.7924	        	        	        	        	       0	(  2  1  4)	  0  1
     87.3771	        	        	        	        	       0	(  1  1 10)	  0  1
     87.9093	        	        	        	        	       0	(  2  0  9)	  0  1
     88.3475	        	        	        	        	       0	(  1  0 12)	  0  1
     89.8439	        	        	        	        	       0	(  2  1  5)	  0  1
     93.5741	        	        	        	        	       0	(  2  1  6)	  0  1
     94.3530	        	        	        	        	       0	(  2  0 10)	  0  1
     95.3210	        	        	        	        	       0	(  3  0  0)	  0  1
     95.6615	        	        	        	        	       0	(  3  0  1)	  0  1
     96.6844	        	        	        	        	       0	(  3  0  2)	  0  1
     96.8368	        	        	        	        	       0	(  1  0 13)	  0  1
     98.0042	        	        	        	        	       0	(  2  1  7)	  0  1
     98.3941	        	        	        	        	       0	(  3  0  3)	  0  1
     99.0380	        	        	        	        	       0	(  0  0 14)	  0  1
    100.8010	        	        	        	        	       0	(  3  0  4)	  0  1
    101.5454	        	        	        	        	       0	(  2  0 11)	  0  1
    102.3879	        	        	        	        	       0	(  1  1 12)	  0  1
    103.1794	        	        	        	        	       0	(  2  1  8)	  0  1
    103.9253	        	        	        	        	       0	(  3  0  5)	  0  1
    106.1890	        	        	        	        	       0	(  1  0 14)	  0  1
    107.8037	        	        	        	        	       0	(  3  0  6)	  0  1
    109.1847	        	        	        	        	       0	(  2  1  9)	  0  1
    109.6494	        	        	        	        	       0	(  2  0 12)	  0  1
    112.5016	        	        	        	        	       0	(  3  0  7)	  0  1
    116.1737	        	        	        	        	       0	(  2  1 10)	  0  1
    116.7744	        	        	        	        	       0	(  1  0 15)	  0  1
    117.2546	        	        	        	        	       0	(  2  2  0)	  0  1
    118.1330	        	        	        	        	       0	(  3  0  8)	  0  1
    118.7920	        	        	        	        	       0	(  2  2  2)	  0  1
    118.9650	        	        	        	        	       0	(  2  0 13)	  0  1
    120.8137	        	        	        	        	       0	(  0  0 16)	  0  1
    121.4907	        	        	        	        	       0	(  1  1 14)	  0  1
    123.5525	        	        	        	        	       0	(  2  2  4)	  0  1
    124.4342	        	        	        	        	       0	(  2  1 11)	  0  1
    124.9040	        	        	        	        	       0	(  3  0  9)	  0  1
    125.4341	        	        	        	        	       0	(  3  1  0)	  0  1
    125.8517	        	        	        	        	       0	(  3  1  1)	  0  1
    127.1183	        	        	        	        	       0	(  3  1  2)	  0  1
    129.2782	        	        	        	        	       0	(  3  1  3)	  0  1
    129.3528	        	        	        	        	       0	(  1  0 16)	  0  1
    130.1066	        	        	        	        	       0	(  2  0 14)	  0  1
    132.1593	        	        	        	        	       0	(  2  2  6)	  0  1
    132.4206	        	        	        	        	       0	(  3  1  4)	  0  1
    133.2184	        	        	        	        	       0	(  3  0 10)	  0  1
    134.5669	        	        	        	        	       0	(  2  1 12)	  0  1
    136.7118	        	        	        	        	       0	(  3  1  5)	  0  1
    142.4802	        	        	        	        	       0	(  3  1  6)	  0  1
    144.0274	        	        	        	        	       0	(  3  0 11)	  0  1
    144.7007	        	        	        	        	       0	(  2  0 15)	  0  1
    146.0728	        	        	        	        	       0	(  1  0 17)	  0  1
    146.8487	        	        	        	        	       0	(  2  2  8)	  0  1
    148.2132	        	        	        	        	       0	(  2  1 13)	  0  1
    150.4922	        	        	        	        	       0	(  3  1  7)	  0  1
    151.4088	        	        	        	        	       0	(  1  1 16)	  0  1
    156.2685	        	        	        	        	       0	(  0  0 18)	  0  1
    161.0691	        	        	        	        	       0	(  3  0 12)	  0  1
    161.0525	        	        	        	        	       0	(  4  0  0)	  0  1
    162.1328	        	        	        	        	       0	(  4  0  1)	  0  1
    163.6316	        	        	        	        	       0	(  3  1  8)	  0  1
    165.8480	        	        	        	        	       0	(  4  0  2)	  0  1
