MSG Master    CELL:    5.91782   5.91782  23.27472   90.0000   90.0000  120.0000   SPGR: P 63/m m c             TEMP:   1041.95
  1   1280     2.52000     0.00000    -0.12739     0.00000     0.00000    0
    99     0     2
       0.00000      10.00000
     125.00000     130.00000
 2Theta	Yobs	Ycal	Yobs-Ycal	Backg	Posr	(hkl)	K
      0.7700	    0.00	  515.43	-1717.00	  397.40
      0.8700	    0.00	  516.49	-1717.00	  398.45
      0.9700	   48.00	  517.53	-1717.00	  399.50
      1.0700	   36.00	  518.56	-1717.00	  400.53
      1.1700	   43.00	  519.58	-1717.00	  401.54
      1.2700	   48.00	  520.58	-1717.00	  402.55
      1.3700	   59.00	  521.57	-1717.00	  403.54
      1.4700	  110.00	  522.55	-1717.00	  404.51
      1.5700	  303.00	  523.51	-1717.00	  405.48
      1.6700	  453.00	  524.46	-1717.00	  406.43
      1.7700	  555.00	  525.40	-1717.00	  407.37
      1.8700	  643.00	  526.33	-1717.00	  408.29
      1.9700	  735.00	  527.24	-1717.00	  409.21
      2.0700	  768.00	  528.14	-1717.00	  410.11
      2.1700	  803.00	  529.03	-1717.00	  411.00
      2.2700	  762.00	  529.90	-1717.00	  411.87
      2.3700	  724.00	  530.77	-1717.00	  412.73
      2.4700	  736.00	  531.62	-1717.00	  413.59
      2.5700	  717.00	  532.46	-1717.00	  414.42
      2.6700	  671.00	  533.28	-1717.00	  415.25
      2.7700	  638.00	  534.10	-1717.00	  416.07
      2.8700	  599.00	  534.90	-1717.00	  416.87
      2.9700	  590.00	  535.69	-1717.00	  417.66
      3.0700	  612.00	  536.47	-1717.00	  418.44
      3.1700	  600.00	  537.24	-1717.00	  419.21
      3.2700	  659.00	  538.00	-1717.00	  419.96
      3.3700	  678.00	  538.74	-1717.00	  420.71
      3.4700	  830.00	  539.47	-1717.00	  421.44
      3.5700	  836.00	  540.20	-1717.00	  422.16
      3.6700	  870.00	  540.91	-1717.00	  422.87
      3.7700	  968.00	  541.61	-1717.00	  423.57
      3.8700	  965.00	  542.29	-1717.00	  424.26
      3.9700	 1059.00	  542.97	-1717.00	  424.94
      4.0700	 1121.00	  543.64	-1717.00	  425.61
      4.1700	 1123.00	  544.29	-1717.00	  426.26
      4.2700	 1109.00	  544.94	-1717.00	  426.91
      4.3700	 1138.00	  545.57	-1717.00	  427.54
      4.4700	 1110.00	  546.20	-1717.00	  428.16
      4.5700	 1085.00	  546.81	-1717.00	  428.78
      4.6700	 1012.00	  547.41	-1717.00	  429.38
      4.7700	  983.00	  548.00	-1717.00	  429.97
      4.8700	  966.00	  548.59	-1717.00	  430.55
      4.9700	 1004.00	  549.16	-1717.00	  431.12
      5.0700	  964.00	  549.72	-1717.00	  431.69
      5.1700	  903.00	  550.27	-1717.00	  432.24
      5.2700	  948.00	  550.81	-1717.00	  432.78
      5.3700	  898.00	  551.34	-1717.00	  433.31
      5.4700	  879.00	  551.86	-1717.00	  433.83
      5.5700	  911.00	  552.37	-1717.00	  434.34
      5.6700	  914.00	  552.88	-1717.00	  434.84
      5.7700	  878.00	  553.37	-1717.00	  435.34
      5.8700	  839.00	  553.85	-1717.00	  435.82
      5.9700	  773.00	  554.32	-1717.00	  436.29
      6.0700	  848.00	  554.79	-1717.00	  436.75
      6.1700	  779.00	  555.24	-1717.00	  437.21
      6.2700	  788.00	  555.68	-1717.00	  437.65
      6.3700	  753.00	  556.12	-1717.00	  438.09
      6.4700	  744.00	  556.55	-1717.00	  438.51
      6.5700	  762.00	  556.96	-1717.00	  438.93
      6.6700	  736.00	  557.37	-1717.00	  439.34
      6.7700	  746.00	  557.77	-1717.00	  439.74
      6.8700	  718.00	  558.16	-1717.00	  440.13
      6.9700	  716.00	  558.54	-1717.00	  440.51
      7.0700	  675.00	  558.92	-1717.00	  440.88
      7.1700	  706.00	  559.28	-1717.00	  441.25
      7.2700	  714.00	  559.64	-1717.00	  441.60
      7.3700	  667.00	  559.98	-1717.00	  441.95
      7.4700	  662.00	  560.32	-1717.00	  442.29
      7.5700	  610.00	  560.65	-1717.00	  442.62
      7.6700	  658.00	  560.97	-1717.00	  442.94
      7.7700	  634.00	  561.29	-1717.00	  443.25
      7.8700	  628.00	  561.59	-1717.00	  443.56
      7.9700	  614.00	  561.89	-1717.00	  443.86
      8.0700	  631.00	  562.18	-1717.00	  444.15
      8.1700	  603.00	  562.46	-1717.00	  444.43
      8.2700	  614.00	  562.73	-1717.00	  444.70
      8.3700	  629.00	  563.00	-1717.00	  444.97
      8.4700	  646.00	  563.26	-1717.00	  445.22
      8.5700	  581.00	  563.51	-1717.00	  445.47
      8.6700	  598.00	  563.75	-1717.00	  445.72
      8.7700	  584.00	  563.98	-1717.00	  445.95
      8.8700	  637.00	  564.21	-1717.00	  446.18
      8.9700	  606.00	  564.43	-1717.00	  446.40
      9.0700	  592.00	  564.64	-1717.00	  446.61
      9.1700	  651.00	  564.85	-1717.00	  446.81
      9.2700	  629.00	  565.04	-1717.00	  447.01
      9.3700	  626.00	  565.23	-1717.00	  447.20
      9.4700	  590.00	  565.42	-1717.00	  447.38
      9.5700	  592.00	  565.59	-1717.00	  447.56
      9.6700	  599.00	  565.76	-1717.00	  447.73
      9.7700	  630.00	  565.92	-1717.00	  447.89
      9.8700	  559.00	  566.08	-1717.00	  448.05
      9.9700	  621.00	  566.23	-1717.00	  448.19
     10.0700	  558.00	  567.56	-1726.56	  448.34
     10.1700	  569.00	  567.83	-1715.83	  448.47
     10.2700	  639.00	  568.12	-1646.12	  448.60
     10.3700	  603.00	  568.46	-1682.46	  448.72
     10.4700	  576.00	  568.88	-1709.88	  448.83
     10.5700	  611.00	  569.44	-1675.44	  448.94
     10.6700	  570.00	  570.24	-1717.24	  449.04
     10.7700	  562.00	  571.38	-1726.38	  449.14
     10.8700	  572.00	  572.94	-1717.94	  449.23
     10.9700	  605.00	  574.92	-1686.93	  449.31
     11.0700	  611.00	  577.30	-1683.30	  449.39
     11.1700	  629.00	  580.08	-1668.08	  449.46
     11.2700	  539.00	  583.31	-1761.31	  449.52
     11.3700	  600.00	  587.07	-1704.07	  449.58
     11.4700	  635.00	  591.51	-1673.51	  449.63
     11.5700	  598.00	  596.87	-1715.87	  449.68
     11.6700	  593.00	  603.55	-1727.55	  449.72
     11.7700	  652.00	  612.14	-1677.14	  449.76
     11.8700	  651.00	  623.33	-1689.33	  449.79
     11.9700	  653.00	  637.15	-1701.15	  449.81
     12.0700	  666.00	  651.42	-1702.42	  449.83
     12.1700	  686.00	  660.44	-1691.44	  449.84
     12.2700	  670.00	  656.13	-1703.13	  449.85
     12.3700	  635.00	  636.62	-1718.62	  449.85
     12.4700	  636.00	  612.78	-1693.78	  449.84
     12.5700	  623.00	  594.29	-1688.29	  449.84
     12.6700	  535.00	  583.06	-1765.06	  449.82
     12.7700	  551.00	  577.22	-1743.22	  449.80
     12.8700	  608.00	  574.30	-1683.30	  449.78
     12.9700	  565.00	  572.71	-1724.71	  449.75
     13.0700	  600.00	  571.69	-1688.69	  449.71
     13.1700	  574.00	  570.96	-1713.96	  449.67
     13.2700	  547.00	  570.40	-1740.40	  449.63
     13.3700	  563.00	  569.96	-1723.96	  449.58
     13.4700	  517.00	  569.59	-1769.59	  449.52
     13.5700	  545.00	  569.28	-1741.28	  449.46
     13.6700	  600.00	  569.02	-1686.02	  449.40
     13.7700	  583.00	  568.78	-1702.78	  449.33
     13.8700	  567.00	  568.57	-1718.57	  449.25
     13.9700	  576.00	  568.37	-1709.37	  449.17
     14.0700	  557.00	  568.19	-1728.19	  449.09
     14.1700	  599.00	  568.02	-1686.02	  449.00
     14.2700	  541.00	  567.85	-1743.85	  448.91
     14.3700	  542.00	  567.69	-1742.69	  448.81
     14.4700	  547.00	  567.53	-1737.53	  448.71
     14.5700	  587.00	  567.38	-1697.38	  448.61
     14.6700	  539.00	  567.22	-1745.22	  448.50
     14.7700	  559.00	  567.07	-1725.07	  448.38
     14.8700	  551.00	  566.92	-1732.92	  448.27
     14.9700	  557.00	  566.77	-1726.77	  448.15
     15.0700	  548.00	  566.61	-1735.61	  448.02
     15.1700	  547.00	  566.46	-1736.46	  447.89
     15.2700	  567.00	  566.33	-1716.33	  447.76
     15.3700	  529.00	  566.17	-1754.17	  447.62
     15.4700	  536.00	  566.01	-1747.01	  447.48
     15.5700	  559.00	  565.85	-1723.85	  447.33
     15.6700	  557.00	  565.68	-1725.68	  447.18
     15.7700	  542.00	  565.51	-1740.51	  447.03
     15.8700	  576.00	  565.34	-1706.34	  446.87
     15.9700	  560.00	  565.17	-1722.17	  446.71
     16.0700	  572.00	  565.00	-1710.00	  446.55
     16.1700	  512.00	  564.82	-1769.82	  446.38
     16.2700	  555.00	  564.64	-1726.64	  446.21
     16.3700	  554.00	  564.46	-1727.46	  446.03
     16.4700	  596.00	  564.27	-1685.27	  445.86
     16.5700	  537.00	  564.08	-1744.08	  445.67
     16.6700	  559.00	  563.89	-1721.89	  445.49
     16.7700	  553.00	  563.70	-1727.70	  445.30
     16.8700	  529.00	  563.50	-1751.50	  445.11
     16.9700	  562.00	  563.30	-1718.30	  444.92
     17.0700	  551.00	  563.10	-1729.10	  444.72
     17.1700	  548.00	  562.89	-1731.89	  444.52
     17.2700	  557.00	  562.69	-1722.69	  444.31
     17.3700	  592.00	  562.48	-1687.48	  444.11
     17.4700	  577.00	  562.26	-1702.26	  443.90
     17.5700	  540.00	  562.05	-1739.05	  443.69
     17.6700	  543.00	  561.83	-1735.83	  443.47
     17.7700	  538.00	  561.61	-1740.61	  443.25
     17.8700	  544.00	  561.39	-1734.39	  443.03
     17.9700	  541.00	  561.26	-1737.26	  442.81
     18.0700	  608.00	  561.04	-1670.04	  442.58
     18.1700	  527.00	  560.81	-1750.81	  442.35
     18.2700	  514.00	  560.58	-1763.58	  442.12
     18.3700	  527.00	  560.35	-1750.35	  441.89
     18.4700	  573.00	  560.11	-1704.11	  441.65
     18.5700	  610.00	  559.87	-1666.87	  441.41
     18.6700	  575.00	  559.72	-1701.72	  441.17
     18.7700	  543.00	  559.48	-1733.48	  440.92
     18.8700	  542.00	  559.24	-1734.24	  440.68
     18.9700	  536.00	  558.99	-1739.99	  440.43
     19.0700	  558.00	  558.75	-1717.75	  440.18
     19.1700	  548.00	  558.50	-1727.50	  439.92
     19.2700	  522.00	  558.25	-1753.25	  439.67
     19.3700	  557.00	  558.00	-1718.00	  439.41
     19.4700	  545.00	  557.74	-1729.74	  439.15
     19.5700	  570.00	  557.49	-1704.49	  438.89
     19.6700	  548.00	  557.23	-1726.23	  438.62
     19.7700	  567.00	  556.97	-1706.97	  438.35
     19.8700	  565.00	  556.71	-1708.71	  438.09
     19.9700	  533.00	  556.45	-1740.45	  437.81
     20.0700	  532.00	  556.19	-1741.19	  437.54
     20.1700	  516.00	  555.93	-1756.93	  437.27
     20.2700	  562.00	  555.66	-1710.66	  436.99
     20.3700	  494.00	  555.39	-1778.39	  436.71
     20.4700	  524.00	  555.16	-1748.16	  436.43
     20.5700	  573.00	  554.89	-1698.89	  436.15
     20.6700	  562.00	  554.62	-1709.62	  435.87
     20.7700	  556.00	  554.35	-1715.35	  435.58
     20.8700	  565.00	  554.08	-1706.08	  435.30
     20.9700	  537.00	  553.81	-1733.81	  435.01
     21.0700	  512.00	  553.54	-1758.54	  434.72
     21.1700	  531.00	  553.27	-1739.27	  434.43
     21.2700	  546.00	  553.00	-1724.00	  434.13
     21.3700	  555.00	  552.73	-1714.73	  433.84
     21.4700	  516.00	  552.46	-1753.46	  433.54
     21.5700	  538.00	  552.14	-1731.14	  433.25
     21.6700	  522.00	  551.87	-1746.87	  432.95
     21.7700	  511.00	  551.61	-1757.61	  432.65
     21.8700	  564.00	  551.34	-1704.34	  432.35
     21.9700	  545.00	  551.07	-1723.07	  432.05
     22.0700	  577.00	  550.81	-1690.81	  431.74
     22.1700	  500.00	  550.54	-1767.54	  431.44
     22.2700	  544.00	  550.28	-1723.28	  431.13
     22.3700	  551.00	  550.03	-1716.03	  430.82
     22.4700	  536.00	  549.78	-1730.78	  430.51
     22.5700	  556.00	  549.53	-1710.53	  430.21
     22.6700	  561.00	  549.29	-1705.29	  429.89
     22.7700	  566.00	  549.05	-1700.05	  429.58
     22.8700	  550.00	  548.83	-1715.83	  429.27
     22.9700	  546.00	  548.62	-1719.62	  428.96
     23.0700	  578.00	  548.42	-1687.42	  428.64
     23.1700	  525.00	  548.24	-1740.24	  428.33
     23.2700	  526.00	  548.23	-1739.23	  428.01
     23.3700	  531.00	  548.11	-1734.11	  427.69
     23.4700	  553.00	  548.03	-1712.03	  427.38
     23.5700	  588.00	  548.00	-1677.00	  427.06
     23.6700	  569.00	  548.06	-1696.06	  426.74
     23.7700	  552.00	  548.25	-1713.25	  426.42
     23.8700	  561.00	  548.68	-1704.68	  426.10
     23.9700	  527.00	  549.57	-1739.57	  425.78
     24.0700	  559.00	  551.26	-1709.26	  425.46
     24.1700	  568.00	  554.29	-1703.29	  425.13
     24.2700	  588.00	  559.34	-1688.34	  424.81
     24.3700	  607.00	  567.08	-1677.08	  424.49
     24.4700	  619.00	  578.03	-1676.03	  424.16
     24.5700	  618.00	  591.76	-1690.76	  423.84
     24.6700	  637.00	  605.80	-1685.80	  423.51
     24.7700	  645.00	  614.69	-1686.69	  423.19
     24.8700	  621.00	  611.69	-1707.69	  422.86
     24.9700	  649.00	  596.48	-1664.48	  422.53
     25.0700	  568.00	  577.98	-1726.98	  422.21
     25.1700	  595.00	  563.32	-1685.32	  421.88
     25.2700	  583.00	  554.10	-1688.10	  421.55
     25.3700	  555.00	  549.10	-1711.10	  421.23
     25.4700	  541.00	  546.52	-1722.52	  420.90
     25.5700	  543.00	  545.09	-1719.09	  420.57
     25.6700	  582.00	  544.17	-1679.17	  420.24
     25.7700	  556.00	  543.52	-1704.52	  419.91
     25.8700	  547.00	  543.03	-1713.03	  419.58
     25.9700	  524.00	  542.65	-1735.65	  419.26
     26.0700	  567.00	  542.37	-1692.37	  418.93
     26.1700	  578.00	  542.18	-1681.18	  418.60
     26.2700	  505.00	  542.07	-1754.07	  418.27
     26.3700	  572.00	  542.04	-1687.04	  417.94
     26.4700	  536.00	  542.11	-1723.11	  417.61
     26.5700	  544.00	  542.27	-1715.27	  417.28
     26.6700	  550.00	  542.54	-1709.54	  416.95
     26.7700	  555.00	  542.96	-1704.96	  416.63
     26.8700	  564.00	  543.54	-1696.54	  416.30
     26.9700	  559.00	  544.36	-1702.36	  415.97
     27.0700	  544.00	  545.47	-1718.47	  415.64
     27.1700	  548.00	  547.02	-1716.02	  415.31
     27.2700	  608.00	  549.24	-1658.24	  414.98
     27.3700	  569.00	  552.63	-1700.63	  414.66
     27.4700	  565.00	  558.14	-1710.14	  414.33
     27.5700	  567.00	  567.47	-1717.47	  414.00
     27.6700	  611.00	  583.36	-1689.36	  413.68
     27.7700	  579.00	  609.35	-1747.35	  413.35
     27.8700	  592.00	  648.63	-1773.63	  413.02
     27.9700	  677.00	  701.53	-1741.53	  412.70
     28.0700	  737.00	  762.38	-1742.38	  412.37
     28.1700	  856.00	  816.52	-1677.52	  412.05
     28.2700	  930.00	  841.40	-1628.40	  411.72
     28.3700	  893.00	  822.38	-1646.38	  411.40
     28.4700	  818.00	  779.08	-1678.08	  411.07
     28.5700	  729.00	  747.14	-1735.14	  410.75
     28.6700	  721.00	  743.69	-1739.69	  410.43
     28.7700	  782.00	  764.87	-1699.87	  410.10
     28.8700	  717.00	  791.85	-1791.85	  409.78
     28.9700	  829.00	  797.62	-1685.62	  409.46
     29.0700	  790.00	  763.89	-1690.89	  409.14
     29.1700	  680.00	  703.75	-1740.75	  408.82
     29.2700	  666.00	  644.77	-1695.77	  408.50
     29.3700	  651.00	  601.08	-1667.08	  408.18
     29.4700	  625.00	  573.87	-1665.87	  407.86
     29.5700	  571.00	  558.74	-1704.74	  407.54
     29.6700	  600.00	  550.60	-1667.60	  407.23
     29.7700	  546.00	  545.99	-1716.99	  406.91
     29.8700	  584.00	  543.15	-1676.15	  406.60
     29.9700	  558.00	  541.37	-1700.37	  406.28
     30.0700	  562.00	  540.44	-1695.44	  405.97
     30.1700	  536.00	  540.52	-1721.52	  405.65
     30.2700	  609.00	  542.08	-1650.08	  405.34
     30.3700	  591.00	  546.10	-1672.10	  405.03
     30.4700	  583.00	  553.90	-1687.90	  404.72
     30.5700	  588.00	  566.88	-1695.88	  404.41
     30.6700	  566.00	  585.30	-1736.30	  404.10
     30.7700	  626.00	  606.88	-1697.88	  403.79
     30.8700	  638.00	  625.72	-1704.72	  403.48
     30.9700	  638.00	  632.86	-1711.86	  403.18
     31.0700	  571.00	  621.83	-1767.83	  402.87
     31.1700	  646.00	  598.03	-1669.03	  402.57
     31.2700	  530.00	  573.30	-1760.30	  402.26
     31.3700	  554.00	  554.33	-1717.33	  401.96
     31.4700	  562.00	  542.24	-1697.24	  401.66
     31.5700	  529.00	  535.43	-1723.43	  401.36
     31.6700	  563.00	  531.78	-1685.78	  401.06
     31.7700	  513.00	  529.74	-1733.74	  400.76
     31.8700	  554.00	  528.48	-1691.48	  400.46
     31.9700	  523.00	  527.62	-1721.62	  400.17
     32.0700	  556.00	  527.04	-1688.04	  399.87
     32.1700	  543.00	  526.66	-1700.66	  399.58
     32.2700	  573.00	  526.45	-1670.45	  399.28
     32.3700	  521.00	  526.42	-1722.42	  398.99
     32.4700	  591.00	  526.57	-1652.57	  398.70
     32.5700	  516.00	  526.91	-1727.91	  398.41
     32.6700	  533.00	  527.49	-1711.49	  398.12
     32.7700	  579.00	  528.34	-1666.34	  397.83
     32.8700	  527.00	  529.57	-1719.57	  397.55
     32.9700	  550.00	  531.30	-1698.30	  397.26
     33.0700	  546.00	  533.78	-1704.78	  396.98
     33.1700	  560.00	  537.57	-1694.57	  396.70
     33.2700	  564.00	  543.81	-1696.81	  396.42
     33.3700	  568.00	  554.85	-1703.85	  396.14
     33.4700	  550.00	  574.94	-1741.94	  395.86
     33.5700	  603.00	  610.41	-1724.41	  395.58
     33.6700	  642.00	  668.00	-1743.00	  395.30
     33.7700	  747.00	  749.98	-1719.98	  395.03
     33.8700	  863.00	  847.34	-1701.34	  394.75
     33.9700	  952.00	  935.32	-1700.32	  394.48
     34.0700	 1095.00	  976.13	-1598.13	  394.21
     34.1700	 1055.00	  940.60	-1602.60	  393.94
     34.2700	  956.00	  845.81	-1606.81	  393.67
     34.3700	  764.00	  739.74	-1692.74	  393.40
     34.4700	  645.00	  654.03	-1726.03	  393.14
     34.5700	  622.00	  596.87	-1691.87	  392.88
     34.6700	  553.00	  563.70	-1727.70	  392.61
     34.7700	  571.00	  545.89	-1691.89	  392.35
     34.8700	  551.00	  536.25	-1702.25	  392.09
     34.9700	  533.00	  530.49	-1714.49	  391.83
     35.0700	  506.00	  526.58	-1737.58	  391.58
     35.1700	  508.00	  523.67	-1732.67	  391.32
     35.2700	  528.00	  521.38	-1710.38	  391.07
     35.3700	  478.00	  519.53	-1758.53	  390.81
     35.4700	  565.00	  517.99	-1669.99	  390.56
     35.5700	  502.00	  516.70	-1731.70	  390.31
     35.6700	  528.00	  515.59	-1704.59	  390.06
     35.7700	  518.00	  514.63	-1713.63	  389.82
     35.8700	  492.00	  513.79	-1738.79	  389.57
     35.9700	  511.00	  513.49	-1719.49	  389.33
     36.0700	  517.00	  512.83	-1712.83	  389.09
     36.1700	  515.00	  512.24	-1714.24	  388.84
     36.2700	  538.00	  511.71	-1690.71	  388.61
     36.3700	  501.00	  511.23	-1727.23	  388.37
     36.4700	  507.00	  510.80	-1720.80	  388.13
     36.5700	  526.00	  510.41	-1701.41	  387.90
     36.6700	  537.00	  510.08	-1690.08	  387.66
     36.7700	  473.00	  509.80	-1753.80	  387.43
     36.8700	  513.00	  509.62	-1713.62	  387.20
     36.9700	  517.00	  509.59	-1709.59	  386.98
     37.0700	  499.00	  509.87	-1727.87	  386.75
     37.1700	  498.00	  510.63	-1729.63	  386.52
     37.2700	  490.00	  512.16	-1739.16	  386.30
     37.3700	  530.00	  514.65	-1701.65	  386.08
     37.4700	  480.00	  517.98	-1754.98	  385.86
     37.5700	  522.00	  521.48	-1716.48	  385.64
     37.6700	  486.00	  523.93	-1754.93	  385.42
     37.7700	  536.00	  524.05	-1705.05	  385.21
     37.8700	  584.00	  521.65	-1654.65	  385.00
     37.9700	  504.00	  518.02	-1731.02	  384.78
     38.0700	  539.00	  514.38	-1692.38	  384.57
     38.1700	  545.00	  511.27	-1683.27	  384.37
     38.2700	  485.00	  508.87	-1740.87	  384.16
     38.3700	  450.00	  507.16	-1774.16	  383.96
     38.4700	  509.00	  506.00	-1714.00	  383.75
     38.5700	  480.00	  505.21	-1742.21	  383.55
     38.6700	  492.00	  504.56	-1729.56	  383.35
     38.7700	  510.00	  504.30	-1711.30	  383.15
     38.8700	  514.00	  503.97	-1706.97	  382.96
     38.9700	  510.00	  503.68	-1710.68	  382.76
     39.0700	  508.00	  503.43	-1712.43	  382.57
     39.1700	  494.00	  503.19	-1726.19	  382.38
     39.2700	  545.00	  502.97	-1674.97	  382.19
     39.3700	  490.00	  502.69	-1729.69	  382.00
     39.4700	  503.00	  502.50	-1716.50	  381.81
     39.5700	  486.00	  502.32	-1733.32	  381.63
     39.6700	  464.00	  502.15	-1755.15	  381.45
     39.7700	  506.00	  501.99	-1712.99	  381.27
     39.8700	  510.00	  501.85	-1708.85	  381.09
     39.9700	  489.00	  501.71	-1729.71	  380.91
     40.0700	  526.00	  501.58	-1692.58	  380.74
     40.1700	  509.00	  501.47	-1709.47	  380.56
     40.2700	  497.00	  501.36	-1721.36	  380.39
     40.3700	  491.00	  501.28	-1727.28	  380.22
     40.4700	  506.00	  501.20	-1712.20	  380.05
     40.5700	  462.00	  501.14	-1756.14	  379.89
     40.6700	  464.00	  501.10	-1754.10	  379.72
     40.7700	  512.00	  501.09	-1706.09	  379.56
     40.8700	  478.00	  501.10	-1740.10	  379.40
     40.9700	  512.00	  501.14	-1706.14	  379.24
     41.0700	  501.00	  501.22	-1717.22	  379.08
     41.1700	  499.00	  501.80	-1719.80	  378.92
     41.2700	  537.00	  501.99	-1681.99	  378.77
     41.3700	  541.00	  502.25	-1678.25	  378.62
     41.4700	  510.00	  502.60	-1709.60	  378.47
     41.5700	  491.00	  503.10	-1729.10	  378.32
     41.6700	  526.00	  503.77	-1694.77	  378.17
     41.7700	  484.00	  504.83	-1737.83	  378.03
     41.8700	  440.00	  506.60	-1783.60	  377.88
     41.9700	  479.00	  509.74	-1747.74	  377.74
     42.0700	  495.00	  515.46	-1737.46	  377.60
     42.1700	  518.00	  525.45	-1724.45	  377.46
     42.2700	  548.00	  541.51	-1710.51	  377.33
     42.3700	  548.00	  564.44	-1733.44	  377.19
     42.4700	  588.00	  592.31	-1721.31	  377.06
     42.5700	  575.00	  619.41	-1761.41	  376.93
     42.6700	  585.00	  636.55	-1768.55	  376.80
     42.7700	  601.00	  634.94	-1750.94	  376.68
     42.8700	  588.00	  614.87	-1743.87	  376.55
     42.9700	  590.00	  586.02	-1713.02	  376.43
     43.0700	  554.00	  558.15	-1721.15	  376.31
     43.1700	  534.00	  536.30	-1719.30	  376.19
     43.2700	  528.00	  521.58	-1710.58	  376.07
     43.3700	  501.00	  512.68	-1728.68	  375.95
     43.4700	  510.00	  507.70	-1714.70	  375.84
     43.5700	  470.00	  505.15	-1752.15	  375.73
     43.6700	  479.00	  503.54	-1741.54	  375.62
     43.7700	  511.00	  502.49	-1708.49	  375.51
     43.8700	  444.00	  501.74	-1774.74	  375.40
     43.9700	  516.00	  501.17	-1702.17	  375.29
     44.0700	  523.00	  500.73	-1694.73	  375.19
     44.1700	  520.00	  500.37	-1697.37	  375.09
     44.2700	  493.00	  500.09	-1724.09	  374.99
     44.3700	  482.00	  499.87	-1734.87	  374.89
     44.4700	  477.00	  499.70	-1739.70	  374.80
     44.5700	  519.00	  499.57	-1697.57	  374.70
     44.6700	  509.00	  499.48	-1707.48	  374.61
     44.7700	  474.00	  499.41	-1742.41	  374.52
     44.8700	  532.00	  499.56	-1684.56	  374.43
     44.9700	  502.00	  499.56	-1714.56	  374.34
     45.0700	  532.00	  499.58	-1684.58	  374.26
     45.1700	  464.00	  499.49	-1752.49	  374.17
     45.2700	  498.00	  499.56	-1718.56	  374.09
     45.3700	  518.00	  499.65	-1698.65	  374.01
     45.4700	  520.00	  499.77	-1696.77	  373.93
     45.5700	  509.00	  499.92	-1707.92	  373.86
     45.6700	  497.00	  500.09	-1720.09	  373.78
     45.7700	  491.00	  500.29	-1726.29	  373.71
     45.8700	  510.00	  500.52	-1707.52	  373.64
     45.9700	  489.00	  500.79	-1728.79	  373.57
     46.0700	  467.00	  501.10	-1751.10	  373.50
     46.1700	  515.00	  501.45	-1703.45	  373.44
     46.2700	  499.00	  501.85	-1719.85	  373.37
     46.3700	  507.00	  502.30	-1712.30	  373.31
     46.4700	  493.00	  502.83	-1726.83	  373.25
     46.5700	  507.00	  503.44	-1713.44	  373.19
     46.6700	  502.00	  504.26	-1719.26	  373.13
     46.7700	  536.00	  505.15	-1686.15	  373.08
     46.8700	  546.00	  506.24	-1677.24	  373.02
     46.9700	  551.00	  507.71	-1673.71	  372.97
     47.0700	  480.00	  509.90	-1746.90	  372.92
     47.1700	  530.00	  513.38	-1700.38	  372.87
     47.2700	  537.00	  519.04	-1699.04	  372.83
     47.3700	  523.00	  527.95	-1721.95	  372.78
     47.4700	  524.00	  540.94	-1733.94	  372.74
     47.5700	  613.00	  557.97	-1661.97	  372.70
     47.6700	  526.00	  577.34	-1768.34	  372.66
     47.7700	  577.00	  595.17	-1735.17	  372.62
     47.8700	  570.00	  605.91	-1752.91	  372.58
     47.9700	  645.00	  605.20	-1677.20	  372.55
     48.0700	  539.00	  593.96	-1771.96	  372.52
     48.1700	  617.00	  577.70	-1677.70	  372.48
     48.2700	  604.00	  561.87	-1674.87	  372.45
     48.3700	  551.00	  549.60	-1715.60	  372.43
     48.4700	  502.00	  541.95	-1756.95	  372.40
     48.5700	  530.00	  538.60	-1725.60	  372.38
     48.6700	  524.00	  538.67	-1731.67	  372.35
     48.7700	  562.00	  541.28	-1696.28	  372.33
     48.8700	  520.00	  545.91	-1742.91	  372.31
     48.9700	  514.00	  552.48	-1755.48	  372.29
     49.0700	  480.00	  561.88	-1798.88	  372.28
     49.1700	  533.00	  574.80	-1758.80	  372.26
     49.2700	  557.00	  594.59	-1754.59	  372.25
     49.3700	  594.00	  627.09	-1750.09	  372.24
     49.4700	  640.00	  682.22	-1759.22	  372.23
     49.5700	  708.00	  774.46	-1783.46	  372.22
     49.6700	  793.00	  920.73	-1844.73	  372.21
     49.7700	 1138.00	 1134.46	-1713.46	  372.21
     49.8700	 1401.00	 1416.02	-1732.02	  372.20
     49.9700	 1771.00	 1741.63	-1687.63	  372.20
     50.0700	 2086.00	 2054.51	-1685.51	  372.20
     50.1700	 2277.00	 2266.80	-1706.80	  372.20
     50.2700	 2345.00	 2294.07	-1666.07	  372.21
     50.3700	 2132.00	 2121.94	-1706.94	  372.21
     50.4700	 1827.00	 1824.08	-1714.08	  372.22
     50.5700	 1374.00	 1496.78	-1839.78	  372.22
     50.6700	 1083.00	 1206.67	-1840.67	  372.23
     50.7700	  854.00	  984.36	-1847.36	  372.24
     50.8700	  723.00	  833.29	-1827.29	  372.25
     50.9700	  682.00	  740.42	-1775.42	  372.27
     51.0700	  604.00	  686.31	-1799.31	  372.28
     51.1700	  629.00	  652.90	-1740.90	  372.30
     51.2700	  630.00	  628.16	-1715.16	  372.32
     51.3700	  579.00	  607.05	-1745.05	  372.34
     51.4700	  588.00	  588.75	-1717.75	  372.36
     51.5700	  562.00	  573.61	-1728.61	  372.38
     51.6700	  579.00	  561.90	-1699.90	  372.40
     51.7700	  562.00	  553.70	-1708.70	  372.43
     51.8700	  530.00	  547.99	-1734.99	  372.46
     51.9700	  543.00	  544.42	-1718.42	  372.49
     52.0700	  578.00	  542.43	-1681.43	  372.52
     52.1700	  560.00	  541.69	-1698.69	  372.55
     52.2700	  594.00	  542.10	-1665.10	  372.58
     52.3700	  564.00	  543.80	-1696.80	  372.61
     52.4700	  582.00	  547.36	-1682.36	  372.65
     52.5700	  548.00	  554.03	-1723.03	  372.69
     52.6700	  592.00	  566.22	-1691.22	  372.72
     52.7700	  625.00	  587.86	-1679.86	  372.76
     52.8700	  611.00	  624.49	-1730.49	  372.80
     52.9700	  707.00	  682.20	-1692.20	  372.85
     53.0700	  843.00	  765.38	-1639.38	  372.89
     53.1700	  891.00	  873.22	-1699.22	  372.94
     53.2700	 1024.00	  996.25	-1689.25	  372.98
     53.3700	 1076.00	 1113.63	-1754.63	  373.03
     53.4700	 1229.00	 1194.37	-1682.37	  373.08
     53.5700	 1140.00	 1208.72	-1785.72	  373.13
     53.6700	 1135.00	 1150.08	-1732.08	  373.18
     53.7700	 1050.00	 1041.92	-1708.92	  373.23
     53.8700	  881.00	  917.75	-1753.75	  373.29
     53.9700	  752.00	  802.89	-1767.89	  373.34
     54.0700	  655.00	  710.68	-1772.68	  373.40
     54.1700	  631.00	  644.63	-1730.63	  373.46
     54.2700	  594.00	  601.72	-1724.72	  373.52
     54.3700	  598.00	  576.05	-1695.05	  373.58
     54.4700	  574.00	  561.66	-1704.66	  373.64
     54.5700	  564.00	  553.95	-1706.95	  373.70
     54.6700	  541.00	  550.02	-1726.02	  373.77
     54.7700	  608.00	  548.22	-1657.22	  373.83
     54.8700	  574.00	  547.77	-1690.77	  373.90
     54.9700	  537.00	  548.33	-1728.33	  373.97
     55.0700	  564.00	  549.76	-1702.76	  374.04
     55.1700	  576.00	  552.06	-1693.06	  374.11
     55.2700	  574.00	  555.25	-1698.25	  374.18
     55.3700	  606.00	  559.51	-1670.51	  374.25
     55.4700	  573.00	  565.04	-1709.04	  374.32
     55.5700	  568.00	  572.28	-1721.28	  374.40
     55.6700	  556.00	  582.08	-1743.08	  374.48
     55.7700	  586.00	  596.16	-1727.16	  374.55
     55.8700	  612.00	  617.81	-1722.81	  374.63
     55.9700	  609.00	  652.97	-1760.97	  374.71
     56.0700	  695.00	  711.19	-1733.19	  374.79
     56.1700	  765.00	  805.90	-1757.90	  374.87
     56.2700	  928.00	  952.65	-1741.65	  374.95
     56.3700	 1100.00	 1164.66	-1781.66	  375.04
     56.4700	 1328.00	 1445.77	-1834.77	  375.12
     56.5700	 1727.00	 1782.23	-1772.23	  375.21
     56.6700	 2057.00	 2136.01	-1796.01	  375.30
     56.7700	 2359.00	 2441.31	-1799.31	  375.38
     56.8700	 2630.00	 2614.65	-1701.65	  375.47
     56.9700	 2575.00	 2593.79	-1735.79	  375.56
     57.0700	 2365.00	 2386.57	-1738.57	  375.65
     57.1700	 2056.00	 2064.90	-1725.90	  375.74
     57.2700	 1766.00	 1711.93	-1662.93	  375.84
     57.3700	 1357.00	 1387.81	-1747.81	  375.93
     57.4700	 1046.00	 1124.73	-1795.73	  376.03
     57.5700	  944.00	  932.05	-1705.05	  376.12
     57.6700	  836.00	  803.41	-1684.41	  376.22
     57.7700	  765.00	  725.21	-1677.21	  376.32
     57.8700	  727.00	  683.12	-1673.12	  376.41
     57.9700	  652.00	  666.17	-1731.17	  376.51
     58.0700	  692.00	  667.90	-1692.90	  376.61
     58.1700	  663.00	  685.57	-1739.57	  376.71
     58.2700	  707.00	  718.67	-1728.67	  376.82
     58.3700	  815.00	  767.24	-1669.24	  376.92
     58.4700	  900.00	  830.25	-1647.25	  377.02
     58.5700	  911.00	  904.21	-1710.21	  377.13
     58.6700	 1049.00	  982.40	-1650.40	  377.23
     58.7700	 1176.00	 1056.47	-1597.47	  377.34
     58.8700	 1280.00	 1120.17	-1557.17	  377.45
     58.9700	 1324.00	 1170.13	-1563.13	  377.55
     59.0700	 1334.00	 1202.10	-1585.10	  377.66
     59.1700	 1438.00	 1211.45	-1490.45	  377.77
     59.2700	 1393.00	 1199.69	-1523.69	  377.88
     59.3700	 1356.00	 1176.55	-1537.55	  377.99
     59.4700	 1207.00	 1153.20	-1663.20	  378.10
     59.5700	 1241.00	 1137.64	-1613.64	  378.21
     59.6700	 1178.00	 1137.05	-1676.05	  378.33
     59.7700	 1160.00	 1160.04	-1717.04	  378.44
     59.8700	 1259.00	 1212.76	-1670.76	  378.56
     59.9700	 1376.00	 1292.68	-1633.68	  378.67
     60.0700	 1503.00	 1385.49	-1599.49	  378.79
     60.1700	 1588.00	 1465.35	-1594.35	  378.90
     60.2700	 1590.00	 1500.49	-1627.49	  379.02
     60.3700	 1543.00	 1468.56	-1642.56	  379.14
     60.4700	 1450.00	 1372.39	-1639.39	  379.26
     60.5700	 1259.00	 1236.52	-1694.52	  379.37
     60.6700	 1097.00	 1089.58	-1709.58	  379.49
     60.7700	  991.00	  953.32	-1679.32	  379.61
     60.8700	  767.00	  840.57	-1790.57	  379.73
     60.9700	  719.00	  756.46	-1754.46	  379.86
     61.0700	  704.00	  700.81	-1713.81	  379.98
     61.1700	  629.00	  670.83	-1758.83	  380.10
     61.2700	  672.00	  663.82	-1708.82	  380.22
     61.3700	  649.00	  678.84	-1746.84	  380.35
     61.4700	  686.00	  717.09	-1748.09	  380.47
     61.5700	  760.00	  781.02	-1738.02	  380.59
     61.6700	  856.00	  872.16	-1733.16	  380.72
     61.7700	  934.00	  988.63	-1771.63	  380.85
     61.8700	 1047.00	 1122.68	-1792.68	  380.97
     61.9700	 1250.00	 1258.87	-1725.87	  381.10
     62.0700	 1295.00	 1373.72	-1795.72	  381.22
     62.1700	 1377.00	 1439.17	-1779.17	  381.35
     62.2700	 1376.00	 1434.59	-1775.59	  381.48
     62.3700	 1287.00	 1360.89	-1790.89	  381.61
     62.4700	 1187.00	 1240.02	-1770.02	  381.74
     62.5700	 1093.00	 1100.00	-1724.00	  381.86
     62.6700	  892.00	  963.58	-1788.58	  381.99
     62.7700	  777.00	  845.16	-1785.16	  382.12
     62.8700	  677.00	  751.38	-1791.38	  382.25
     62.9700	  704.00	  682.83	-1695.83	  382.38
     63.0700	  579.00	  636.16	-1774.16	  382.52
     63.1700	  569.00	  606.36	-1754.36	  382.65
     63.2700	  599.00	  588.48	-1706.48	  382.78
     63.3700	  523.00	  578.65	-1772.65	  382.91
     63.4700	  588.00	  574.44	-1703.44	  383.04
     63.5700	  603.00	  574.82	-1688.82	  383.17
     63.6700	  587.00	  579.97	-1709.97	  383.31
     63.7700	  566.00	  591.02	-1742.02	  383.44
     63.8700	  630.00	  609.70	-1696.70	  383.57
     63.9700	  683.00	  637.92	-1671.92	  383.70
     64.0700	  738.00	  676.98	-1655.98	  383.84
     64.1700	  800.00	  726.89	-1643.89	  383.97
     64.2700	  835.00	  785.53	-1667.53	  384.11
     64.3700	  867.00	  847.94	-1697.94	  384.24
     64.4700	  923.00	  905.67	-1699.67	  384.37
     64.5700	 1045.00	  949.56	-1621.56	  384.51
     64.6700	  982.00	  970.56	-1705.56	  384.64
     64.7700	  983.00	  965.19	-1699.19	  384.78
     64.8700	  964.00	  936.37	-1689.37	  384.91
     64.9700	  900.00	  891.21	-1708.21	  385.05
     65.0700	  886.00	  838.52	-1669.52	  385.18
     65.1700	  820.00	  786.06	-1683.06	  385.32
     65.2700	  767.00	  738.68	-1688.68	  385.45
     65.3700	  690.00	  698.23	-1725.23	  385.59
     65.4700	  634.00	  664.63	-1747.63	  385.72
     65.5700	  592.00	  637.27	-1762.27	  385.86
     65.6700	  580.00	  615.50	-1752.50	  385.99
     65.7700	  579.00	  598.70	-1736.70	  386.13
     65.8700	  560.00	  586.21	-1743.21	  386.26
     65.9700	  608.00	  577.38	-1686.38	  386.40
     66.0700	  568.00	  571.77	-1720.77	  386.54
     66.1700	  549.00	  568.61	-1736.61	  386.67
     66.2700	  545.00	  567.60	-1739.60	  386.81
     66.3700	  560.00	  568.40	-1725.40	  386.94
     66.4700	  538.00	  570.84	-1749.84	  387.08
     66.5700	  534.00	  574.95	-1757.95	  387.21
     66.6700	  616.00	  581.12	-1682.12	  387.35
     66.7700	  594.00	  590.26	-1713.26	  387.48
     66.8700	  610.00	  604.10	-1711.10	  387.62
     66.9700	  604.00	  625.59	-1738.59	  387.75
     67.0700	  635.00	  659.28	-1741.28	  387.89
     67.1700	  651.00	  711.61	-1777.61	  388.02
     67.2700	  771.00	  790.26	-1736.26	  388.16
     67.3700	  911.00	  903.69	-1709.69	  388.29
     67.4700	 1149.00	 1058.65	-1626.65	  388.42
     67.5700	 1229.00	 1257.69	-1745.69	  388.56
     67.6700	 1574.00	 1496.05	-1639.05	  388.69
     67.7700	 1739.00	 1758.78	-1736.78	  388.83
     67.8700	 2147.00	 2020.02	-1590.02	  388.96
     67.9700	 2190.00	 2242.41	-1769.41	  389.09
     68.0700	 2457.00	 2382.51	-1642.51	  389.22
     68.1700	 2375.00	 2405.54	-1747.54	  389.36
     68.2700	 2245.00	 2305.03	-1777.03	  389.49
     68.3700	 2141.00	 2107.49	-1683.49	  389.62
     68.4700	 1896.00	 1855.56	-1676.56	  389.75
     68.5700	 1544.00	 1590.07	-1763.07	  389.88
     68.6700	 1298.00	 1341.16	-1760.16	  390.02
     68.7700	 1145.00	 1127.50	-1699.50	  390.15
     68.8700	  948.00	  957.14	-1726.14	  390.28
     68.9700	  815.00	  829.92	-1731.92	  390.41
     69.0700	  730.00	  740.22	-1727.22	  390.54
     69.1700	  682.00	  679.97	-1714.97	  390.67
     69.2700	  613.00	  640.96	-1744.96	  390.80
     69.3700	  621.00	  616.20	-1712.20	  390.92
     69.4700	  579.00	  600.50	-1738.50	  391.05
     69.5700	  642.00	  590.34	-1665.34	  391.18
     69.6700	  602.00	  583.59	-1698.59	  391.31
     69.7700	  566.00	  578.94	-1729.94	  391.44
     69.8700	  575.00	  575.74	-1717.74	  391.56
     69.9700	  537.00	  573.61	-1753.61	  391.69
     70.0700	  570.00	  572.39	-1719.39	  391.81
     70.1700	  568.00	  571.99	-1720.99	  391.94
     70.2700	  554.00	  572.45	-1735.45	  392.06
     70.3700	  575.00	  573.89	-1715.89	  392.19
     70.4700	  574.00	  576.54	-1719.54	  392.31
     70.5700	  550.00	  580.90	-1747.90	  392.44
     70.6700	  586.00	  587.90	-1718.90	  392.56
     70.7700	  613.00	  599.06	-1703.06	  392.68
     70.8700	  561.00	  616.68	-1772.68	  392.80
     70.9700	  647.00	  644.13	-1714.13	  392.92
     71.0700	  624.00	  685.83	-1778.83	  393.04
     71.1700	  753.00	  746.87	-1710.87	  393.16
     71.2700	  770.00	  832.36	-1779.36	  393.28
     71.3700	  932.00	  946.05	-1731.05	  393.40
     71.4700	 1066.00	 1089.60	-1740.60	  393.52
     71.5700	 1247.00	 1257.69	-1727.69	  393.64
     71.6700	 1397.00	 1441.69	-1761.69	  393.76
     71.7700	 1609.00	 1625.52	-1733.52	  393.87
     71.8700	 1823.00	 1786.71	-1680.71	  393.99
     71.9700	 1843.00	 1898.67	-1772.67	  394.10
     72.0700	 1868.00	 1937.98	-1786.98	  394.22
     72.1700	 1846.00	 1895.21	-1766.21	  394.33
     72.2700	 1783.00	 1780.65	-1714.65	  394.44
     72.3700	 1614.00	 1618.16	-1721.16	  394.56
     72.4700	 1480.00	 1434.21	-1671.21	  394.67
     72.5700	 1248.00	 1250.94	-1719.94	  394.78
     72.6700	 1163.00	 1083.96	-1637.96	  394.89
     72.7700	  971.00	  942.31	-1688.31	  395.00
     72.8700	  853.00	  828.91	-1692.91	  395.11
     72.9700	  759.00	  743.61	-1701.61	  395.21
     73.0700	  704.00	  682.19	-1695.19	  395.32
     73.1700	  749.00	  639.64	-1607.64	  395.43
     73.2700	  695.00	  610.97	-1632.97	  395.53
     73.3700	  641.00	  591.92	-1667.92	  395.64
     73.4700	  647.00	  579.23	-1649.23	  395.74
     73.5700	  636.00	  570.65	-1651.65	  395.84
     73.6700	  598.00	  564.73	-1683.73	  395.95
     73.7700	  636.00	  560.57	-1641.57	  396.05
     73.8700	  595.00	  557.66	-1679.66	  396.15
     73.9700	  600.00	  555.70	-1672.70	  396.25
     74.0700	  618.00	  554.49	-1653.49	  396.35
     74.1700	  616.00	  553.85	-1654.85	  396.44
     74.2700	  580.00	  553.63	-1690.63	  396.54
     74.3700	  587.00	  553.62	-1683.62	  396.64
     74.4700	  667.00	  553.63	-1603.63	  396.73
     74.5700	  623.00	  553.42	-1647.42	  396.83
     74.6700	  650.00	  552.83	-1619.83	  396.92
     74.7700	  626.00	  551.79	-1642.79	  397.01
     74.8700	  684.00	  550.43	-1583.43	  397.10
     74.9700	  619.00	  548.96	-1646.96	  397.19
     75.0700	  629.00	  547.66	-1635.66	  397.28
     75.1700	  589.00	  546.77	-1674.77	  397.37
     75.2700	  591.00	  546.74	-1672.74	  397.46
     75.3700	  573.00	  547.89	-1691.89	  397.55
     75.4700	  583.00	  550.67	-1684.67	  397.63
     75.5700	  569.00	  555.60	-1703.60	  397.72
     75.6700	  595.00	  563.10	-1685.10	  397.80
     75.7700	  579.00	  573.82	-1711.82	  397.88
     75.8700	  620.00	  587.97	-1684.97	  397.96
     75.9700	  638.00	  605.51	-1684.51	  398.04
     76.0700	  622.00	  625.89	-1720.89	  398.12
     76.1700	  657.00	  648.13	-1708.13	  398.20
     76.2700	  655.00	  670.47	-1732.47	  398.28
     76.3700	  681.00	  690.59	-1726.59	  398.36
     76.4700	  697.00	  705.74	-1725.74	  398.43
     76.5700	  664.00	  713.28	-1766.28	  398.51
     76.6700	  689.00	  711.66	-1739.66	  398.58
     76.7700	  683.00	  701.19	-1735.19	  398.65
     76.8700	  716.00	  683.86	-1684.86	  398.72
     76.9700	  664.00	  662.43	-1715.43	  398.79
     77.0700	  612.00	  639.54	-1744.54	  398.86
     77.1700	  595.00	  617.13	-1739.13	  398.93
     77.2700	  571.00	  597.08	-1743.08	  398.99
     77.3700	  581.00	  580.05	-1716.05	  399.06
     77.4700	  565.00	  566.35	-1718.35	  399.12
     77.5700	  534.00	  555.86	-1738.86	  399.18
     77.6700	  475.00	  548.18	-1790.18	  399.25
     77.7700	  532.00	  542.76	-1727.76	  399.31
     77.8700	  548.00	  539.06	-1708.06	  399.37
     77.9700	  536.00	  536.59	-1717.59	  399.42
     78.0700	  513.00	  534.96	-1738.96	  399.48
     78.1700	  502.00	  533.89	-1748.89	  399.54
     78.2700	  478.00	  533.18	-1772.18	  399.59
     78.3700	  499.00	  532.71	-1750.71	  399.64
     78.4700	  509.00	  532.41	-1740.41	  399.70
     78.5700	  479.00	  532.25	-1770.25	  399.75
     78.6700	  502.00	  532.21	-1747.21	  399.80
     78.7700	  514.00	  532.30	-1735.30	  399.84
     78.8700	  540.00	  532.53	-1709.53	  399.89
     78.9700	  528.00	  532.94	-1721.94	  399.94
     79.0700	  509.00	  533.55	-1741.55	  399.98
     79.1700	  510.00	  534.42	-1741.42	  400.02
     79.2700	  553.00	  535.58	-1699.58	  400.06
     79.3700	  526.00	  537.08	-1728.08	  400.11
     79.4700	  548.00	  538.96	-1707.96	  400.14
     79.5700	  576.00	  541.26	-1682.26	  400.18
     79.6700	  544.00	  543.84	-1716.84	  400.22
     79.7700	  554.00	  547.14	-1710.14	  400.25
     79.8700	  532.00	  551.04	-1736.04	  400.29
     79.9700	  562.00	  555.67	-1710.67	  400.32
     80.0700	  582.00	  561.19	-1696.19	  400.35
     80.1700	  555.00	  567.85	-1729.85	  400.38
     80.2700	  631.00	  575.98	-1661.98	  400.41
     80.3700	  580.00	  585.89	-1722.89	  400.44
     80.4700	  557.00	  597.79	-1757.79	  400.46
     80.5700	  562.00	  611.69	-1766.69	  400.49
     80.6700	  614.00	  627.34	-1730.34	  400.51
     80.7700	  590.00	  644.14	-1771.14	  400.53
     80.8700	  641.00	  661.19	-1737.19	  400.55
     80.9700	  667.00	  677.36	-1727.36	  400.57
     81.0700	  718.00	  691.49	-1690.49	  400.59
     81.1700	  730.00	  702.62	-1689.62	  400.60
     81.2700	  703.00	  710.00	-1724.00	  400.62
     81.3700	  717.00	  713.15	-1713.15	  400.63
     81.4700	  720.00	  711.91	-1708.91	  400.64
     81.5700	  733.00	  706.43	-1690.43	  400.65
     81.6700	  737.00	  697.11	-1677.11	  400.66
     81.7700	  785.00	  684.53	-1616.53	  400.67
     81.8700	  709.00	  669.54	-1677.54	  400.68
     81.9700	  728.00	  653.17	-1642.17	  400.68
     82.0700	  629.00	  636.52	-1724.52	  400.68
     82.1700	  669.00	  620.50	-1668.50	  400.69
     82.2700	  698.00	  605.72	-1624.72	  400.69
     82.3700	  627.00	  592.55	-1682.55	  400.69
     82.4700	  625.00	  581.18	-1673.18	  400.68
     82.5700	  540.00	  571.67	-1748.67	  400.68
     82.6700	  566.00	  563.99	-1714.99	  400.67
     82.7700	  509.00	  558.22	-1766.22	  400.67
     82.8700	  537.00	  554.21	-1734.21	  400.66
     82.9700	  526.00	  551.90	-1742.90	  400.65
     83.0700	  528.00	  551.16	-1740.16	  400.64
     83.1700	  553.00	  551.95	-1715.95	  400.62
     83.2700	  568.00	  554.12	-1703.12	  400.61
     83.3700	  522.00	  557.48	-1752.48	  400.59
     83.4700	  556.00	  561.80	-1722.80	  400.58
     83.5700	  529.00	  566.75	-1754.75	  400.56
     83.6700	  564.00	  571.92	-1724.92	  400.54
     83.7700	  540.00	  576.80	-1753.80	  400.51
     83.8700	  591.00	  580.81	-1706.81	  400.49
     83.9700	  525.00	  583.38	-1775.38	  400.47
     84.0700	  567.00	  584.05	-1734.05	  400.44
     84.1700	  544.00	  582.68	-1755.68	  400.41
     84.2700	  556.00	  579.44	-1740.44	  400.38
     84.3700	  573.00	  574.76	-1718.76	  400.35
     84.4700	  511.00	  569.20	-1775.20	  400.32
     84.5700	  550.00	  563.27	-1730.27	  400.28
     84.6700	  514.00	  557.43	-1760.43	  400.25
     84.7700	  542.00	  551.99	-1726.99	  400.21
     84.8700	  571.00	  547.19	-1693.19	  400.17
     84.9700	  573.00	  543.15	-1687.15	  400.13
     85.0700	  558.00	  539.88	-1698.88	  400.09
     85.1700	  521.00	  537.37	-1733.37	  400.05
     85.2700	  513.00	  535.53	-1739.53	  400.00
     85.3700	  525.00	  534.26	-1726.26	  399.96
     85.4700	  529.00	  533.48	-1721.48	  399.91
     85.5700	  499.00	  533.10	-1751.10	  399.86
     85.6700	  569.00	  533.09	-1681.09	  399.81
     85.7700	  541.00	  533.44	-1709.44	  399.76
     85.8700	  516.00	  534.18	-1735.18	  399.70
     85.9700	  529.00	  535.40	-1723.40	  399.65
     86.0700	  529.00	  537.23	-1725.23	  399.59
     86.1700	  462.00	  539.82	-1794.82	  399.53
     86.2700	  561.00	  543.37	-1699.37	  399.47
     86.3700	  533.00	  548.08	-1732.08	  399.41
     86.4700	  590.00	  554.13	-1681.13	  399.34
     86.5700	  505.00	  561.65	-1773.65	  399.28
     86.6700	  538.00	  570.66	-1749.66	  399.21
     86.7700	  604.00	  581.05	-1694.05	  399.15
     86.8700	  569.00	  592.56	-1740.56	  399.08
     86.9700	  605.00	  604.69	-1716.69	  399.00
     87.0700	  594.00	  616.80	-1739.80	  398.93
     87.1700	  681.00	  628.04	-1664.04	  398.86
     87.2700	  637.00	  637.41	-1717.41	  398.78
     87.3700	  681.00	  643.59	-1679.59	  398.71
     87.4700	  658.00	  646.48	-1705.48	  398.63
     87.5700	  662.00	  645.37	-1700.37	  398.55
     87.6700	  692.00	  640.49	-1665.49	  398.46
     87.7700	  610.00	  632.60	-1739.60	  398.38
     87.8700	  603.00	  622.71	-1736.71	  398.30
     87.9700	  644.00	  611.88	-1684.89	  398.21
     88.0700	  631.00	  601.12	-1687.12	  398.12
     88.1700	  605.00	  591.25	-1703.25	  398.03
     88.2700	  617.00	  582.91	-1682.91	  397.94
     88.3700	  548.00	  576.56	-1745.56	  397.85
     88.4700	  578.00	  572.45	-1711.45	  397.75
     88.5700	  592.00	  570.61	-1695.61	  397.66
     88.6700	  584.00	  570.93	-1703.93	  397.56
     88.7700	  612.00	  573.13	-1678.13	  397.46
     88.8700	  631.00	  576.81	-1662.81	  397.36
     88.9700	  623.00	  581.47	-1675.47	  397.26
     89.0700	  604.00	  586.52	-1699.52	  397.16
     89.1700	  601.00	  591.32	-1707.32	  397.05
     89.2700	  592.00	  595.22	-1720.22	  396.95
     89.3700	  618.00	  597.64	-1696.64	  396.84
     89.4700	  622.00	  598.12	-1693.12	  396.73
     89.5700	  579.00	  596.53	-1734.53	  396.62
     89.6700	  606.00	  593.02	-1704.02	  396.50
     89.7700	  594.00	  587.96	-1710.96	  396.39
     89.8700	  479.00	  581.87	-1819.87	  396.28
     89.9700	  585.00	  575.25	-1707.25	  396.16
     90.0700	  553.00	  568.56	-1732.56	  396.04
     90.1700	  567.00	  562.16	-1712.16	  395.92
     90.2700	  506.00	  556.32	-1767.32	  395.80
     90.3700	  560.00	  551.21	-1708.21	  395.68
     90.4700	  559.00	  546.93	-1704.93	  395.55
     90.5700	  570.00	  543.49	-1690.49	  395.43
     90.6700	  499.00	  540.85	-1758.85	  395.30
     90.7700	  506.00	  538.93	-1749.93	  395.17
     90.8700	  497.00	  537.64	-1757.64	  395.04
     90.9700	  547.00	  536.91	-1706.91	  394.91
     91.0700	  516.00	  536.66	-1737.66	  394.78
     91.1700	  526.00	  536.86	-1727.86	  394.64
     91.2700	  537.00	  537.49	-1717.49	  394.51
     91.3700	  519.00	  538.60	-1736.60	  394.37
     91.4700	  549.00	  540.27	-1708.27	  394.23
     91.5700	  531.00	  542.61	-1728.61	  394.09
     91.6700	  513.00	  545.78	-1749.78	  393.95
     91.7700	  553.00	  549.96	-1713.96	  393.81
     91.8700	  533.00	  555.38	-1739.38	  393.66
     91.9700	  550.00	  562.23	-1729.23	  393.52
     92.0700	  506.00	  570.72	-1781.72	  393.37
     92.1700	  565.00	  580.97	-1732.97	  393.22
     92.2700	  608.00	  593.08	-1702.08	  393.07
     92.3700	  613.00	  607.01	-1711.01	  392.92
     92.4700	  571.00	  622.61	-1768.61	  392.77
     92.5700	  620.00	  639.38	-1736.38	  392.61
     92.6700	  659.00	  657.37	-1715.37	  392.46
     92.7700	  709.00	  675.77	-1683.77	  392.30
     92.8700	  663.00	  693.89	-1747.89	  392.14
     92.9700	  707.00	  710.97	-1720.97	  391.98
     93.0700	  718.00	  726.32	-1725.32	  391.82
     93.1700	  767.00	  739.48	-1689.48	  391.66
     93.2700	  763.00	  750.37	-1704.37	  391.50
     93.3700	  749.00	  759.27	-1727.27	  391.33
     93.4700	  753.00	  766.69	-1730.69	  391.17
     93.5700	  807.00	  773.20	-1683.20	  391.00
     93.6700	  803.00	  779.34	-1693.34	  390.83
     93.7700	  765.00	  785.57	-1737.57	  390.66
     93.8700	  837.00	  792.35	-1672.35	  390.49
     93.9700	  866.00	  800.17	-1651.17	  390.32
     94.0700	  847.00	  809.49	-1679.49	  390.15
     94.1700	  904.00	  820.63	-1633.63	  389.97
     94.2700	  829.00	  833.61	-1721.61	  389.80
     94.3700	  848.00	  848.02	-1717.02	  389.62
     94.4700	  856.00	  863.03	-1724.03	  389.44
     94.5700	  902.00	  877.36	-1692.36	  389.26
     94.6700	  901.00	  889.40	-1705.40	  389.08
     94.7700	  889.00	  897.39	-1725.40	  388.90
     94.8700	  956.00	  899.76	-1660.76	  388.72
     94.9700	  876.00	  895.43	-1736.43	  388.54
     95.0700	  911.00	  884.19	-1690.19	  388.35
     95.1700	  867.00	  866.75	-1716.75	  388.16
     95.2700	  840.00	  844.52	-1721.52	  387.98
     95.3700	  821.00	  819.30	-1715.30	  387.79
     95.4700	  788.00	  793.04	-1722.04	  387.60
     95.5700	  790.00	  767.61	-1694.61	  387.41
     95.6700	  750.00	  744.77	-1711.77	  387.22
     95.7700	  675.00	  726.11	-1768.11	  387.03
     95.8700	  762.00	  713.06	-1668.06	  386.83
     95.9700	  651.00	  706.87	-1772.87	  386.64
     96.0700	  667.00	  708.66	-1758.66	  386.44
     96.1700	  707.00	  719.32	-1729.32	  386.24
     96.2700	  756.00	  739.56	-1700.56	  386.05
     96.3700	  779.00	  769.83	-1707.83	  385.85
     96.4700	  812.00	  810.26	-1715.26	  385.65
     96.5700	  842.00	  860.58	-1735.58	  385.45
     96.6700	  920.00	  920.05	-1717.05	  385.25
     96.7700	  962.00	  987.33	-1742.33	  385.04
     96.8700	 1044.00	 1060.47	-1733.47	  384.84
     96.9700	 1147.00	 1136.85	-1706.85	  384.64
     97.0700	 1207.00	 1213.16	-1723.16	  384.43
     97.1700	 1232.00	 1285.55	-1770.55	  384.23
     97.2700	 1368.00	 1349.71	-1698.71	  384.02
     97.3700	 1310.00	 1401.17	-1808.17	  383.81
     97.4700	 1450.00	 1435.92	-1702.92	  383.60
     97.5700	 1416.00	 1451.11	-1752.11	  383.39
     97.6700	 1430.00	 1445.72	-1732.72	  383.18
     97.7700	 1490.00	 1420.73	-1647.73	  382.97
     97.8700	 1287.00	 1378.87	-1808.87	  382.76
     97.9700	 1261.00	 1323.94	-1779.94	  382.55
     98.0700	 1285.00	 1260.17	-1692.17	  382.34
     98.1700	 1149.00	 1191.71	-1759.71	  382.12
     98.2700	 1131.00	 1122.42	-1708.42	  381.91
     98.3700	 1075.00	 1055.71	-1697.71	  381.69
     98.4700	 1002.00	  994.49	-1709.49	  381.48
     98.5700	  877.00	  941.17	-1781.17	  381.26
     98.6700	  851.00	  897.62	-1763.62	  381.04
     98.7700	  833.00	  865.37	-1749.37	  380.82
     98.8700	  837.00	  845.52	-1725.52	  380.60
     98.9700	  842.00	  838.84	-1713.84	  380.39
     99.0700	  825.00	  845.85	-1737.85	  380.17
     99.1700	  863.00	  866.83	-1720.83	  379.95
     99.2700	  912.00	  901.85	-1706.85	  379.72
     99.3700	  930.00	  950.76	-1737.76	  379.50
     99.4700	 1058.00	 1013.09	-1672.09	  379.28
     99.5700	 1125.00	 1088.02	-1680.02	  379.06
     99.6700	 1097.00	 1174.30	-1794.30	  378.84
     99.7700	 1342.00	 1270.12	-1645.12	  378.61
     99.8700	 1408.00	 1373.05	-1682.05	  378.39
     99.9700	 1497.00	 1479.97	-1699.97	  378.16
    100.0700	 1583.00	 1587.13	-1721.13	  377.94
    100.1700	 1652.00	 1690.33	-1755.33	  377.71
    100.2700	 1818.00	 1785.18	-1684.18	  377.49
    100.3700	 1932.00	 1867.60	-1652.60	  377.26
    100.4700	 1815.00	 1934.24	-1836.24	  377.04
    100.5700	 2014.00	 1982.72	-1685.72	  376.81
    100.6700	 2054.00	 2011.48	-1674.48	  376.58
    100.7700	 2084.00	 2019.62	-1652.62	  376.36
    100.8700	 1955.00	 2006.83	-1768.83	  376.13
    100.9700	 1993.00	 1973.59	-1697.59	  375.90
    101.0700	 1929.00	 1921.58	-1709.58	  375.67
    101.1700	 1828.00	 1853.76	-1742.76	  375.45
    101.2700	 1734.00	 1774.29	-1757.29	  375.22
    101.3700	 1744.00	 1688.03	-1661.03	  374.99
    101.4700	 1674.00	 1599.84	-1642.84	  374.76
    101.5700	 1562.00	 1514.12	-1669.12	  374.53
    101.6700	 1411.00	 1434.42	-1740.42	  374.30
    101.7700	 1394.00	 1363.34	-1686.34	  374.08
    101.8700	 1304.00	 1302.47	-1715.47	  373.85
    101.9700	 1271.00	 1252.37	-1698.37	  373.62
    102.0700	 1208.00	 1212.66	-1721.66	  373.39
    102.1700	 1200.00	 1182.11	-1699.11	  373.16
    102.2700	 1135.00	 1158.83	-1740.83	  372.93
    102.3700	 1160.00	 1140.41	-1697.41	  372.70
    102.4700	 1158.00	 1124.17	-1683.17	  372.48
    102.5700	 1086.00	 1107.48	-1738.48	  372.25
    102.6700	 1038.00	 1088.11	-1767.11	  372.02
    102.7700	  998.00	 1064.54	-1783.54	  371.79
    102.8700	 1002.00	 1036.13	-1751.13	  371.56
    102.9700	 1025.00	 1003.03	-1695.03	  371.33
    103.0700	  972.00	  966.03	-1711.03	  371.11
    103.1700	  869.00	  926.27	-1774.27	  370.88
    103.2700	  874.00	  885.03	-1728.03	  370.65
    103.3700	  870.00	  843.58	-1690.58	  370.43
    103.4700	  833.00	  803.08	-1687.08	  370.20
    103.5700	  752.00	  764.53	-1729.53	  369.97
    103.6700	  723.00	  728.72	-1722.72	  369.75
    103.7700	  703.00	  696.24	-1710.24	  369.52
    103.8700	  770.00	  667.41	-1614.41	  369.30
    103.9700	  645.00	  642.40	-1714.40	  369.07
    104.0700	  589.00	  621.18	-1749.18	  368.85
    104.1700	  616.00	  603.54	-1704.54	  368.63
    104.2700	  607.00	  589.22	-1699.22	  368.40
    104.3700	  596.00	  577.85	-1698.85	  368.18
    104.4700	  568.00	  569.05	-1718.05	  367.96
    104.5700	  560.00	  562.43	-1719.43	  367.74
    104.6700	  551.00	  557.64	-1723.64	  367.52
    104.7700	  600.00	  554.33	-1671.33	  367.30
    104.8700	  533.00	  552.21	-1736.21	  367.08
    104.9700	  545.00	  551.08	-1723.08	  366.86
    105.0700	  609.00	  550.73	-1658.73	  366.64
    105.1700	  557.00	  551.03	-1711.03	  366.42
    105.2700	  543.00	  551.87	-1725.87	  366.21
    105.3700	  546.00	  553.20	-1724.20	  365.99
    105.4700	  520.00	  555.01	-1752.01	  365.78
    105.5700	  558.00	  557.31	-1716.31	  365.56
    105.6700	  548.00	  560.17	-1729.17	  365.35
    105.7700	  513.00	  563.64	-1767.64	  365.14
    105.8700	  572.00	  567.85	-1712.85	  364.93
    105.9700	  595.00	  572.85	-1694.85	  364.72
    106.0700	  592.00	  578.73	-1703.73	  364.51
    106.1700	  547.00	  585.49	-1755.49	  364.30
    106.2700	  569.00	  593.13	-1741.13	  364.10
    106.3700	  590.00	  601.57	-1728.57	  363.89
    106.4700	  587.00	  610.68	-1740.68	  363.69
    106.5700	  636.00	  620.28	-1701.28	  363.48
    106.6700	  616.00	  630.13	-1731.13	  363.28
    106.7700	  685.00	  639.94	-1671.94	  363.08
    106.8700	  667.00	  649.40	-1699.40	  362.88
    106.9700	  652.00	  658.16	-1723.16	  362.68
    107.0700	  680.00	  665.88	-1702.88	  362.48
    107.1700	  676.00	  672.30	-1713.30	  362.29
    107.2700	  710.00	  677.24	-1684.24	  362.10
    107.3700	  654.00	  680.66	-1743.66	  361.90
    107.4700	  652.00	  682.69	-1747.69	  361.71
    107.5700	  723.00	  683.58	-1677.58	  361.52
    107.6700	  671.00	  683.69	-1729.69	  361.33
    107.7700	  678.00	  683.42	-1722.42	  361.15
    107.8700	  717.00	  683.13	-1683.13	  360.96
    107.9700	  674.00	  683.15	-1726.15	  360.78
    108.0700	  700.00	  683.68	-1700.68	  360.60
    108.1700	  646.00	  684.85	-1755.85	  360.42
    108.2700	  691.00	  686.66	-1712.66	  360.24
    108.3700	  682.00	  689.00	-1724.00	  360.06
    108.4700	  664.00	  691.66	-1744.66	  359.89
    108.5700	  729.00	  694.32	-1682.32	  359.71
    108.6700	  714.00	  696.60	-1699.60	  359.54
    108.7700	  682.00	  698.06	-1733.06	  359.37
    108.8700	  726.00	  698.29	-1689.29	  359.20
    108.9700	  731.00	  696.92	-1682.92	  359.04
    109.0700	  685.00	  693.73	-1725.73	  358.88
    109.1700	  657.00	  688.61	-1748.61	  358.71
    109.2700	  635.00	  681.68	-1763.68	  358.55
    109.3700	  704.00	  673.13	-1686.13	  358.40
    109.4700	  684.00	  663.30	-1696.30	  358.24
    109.5700	  670.00	  652.54	-1699.54	  358.09
    109.6700	  620.00	  641.22	-1738.22	  357.94
    109.7700	  656.00	  629.72	-1690.72	  357.79
    109.8700	  606.00	  618.35	-1729.35	  357.64
    109.9700	  611.00	  607.42	-1713.42	  357.50
    110.0700	  644.00	  597.15	-1670.15	  357.36
    110.1700	  553.00	  587.74	-1751.74	  357.22
    110.2700	  578.00	  579.31	-1718.31	  357.08
    110.3700	  595.00	  571.94	-1693.94	  356.95
    110.4700	  546.00	  565.67	-1736.67	  356.82
    110.5700	  520.00	  560.49	-1757.49	  356.69
    110.6700	  530.00	  556.36	-1743.36	  356.56
    110.7700	  583.00	  553.19	-1687.19	  356.44
    110.8700	  550.00	  550.93	-1717.93	  356.32
    110.9700	  544.00	  549.45	-1722.45	  356.20
    111.0700	  547.00	  548.68	-1718.68	  356.08
    111.1700	  526.00	  548.52	-1739.52	  355.97
    111.2700	  542.00	  548.86	-1723.86	  355.86
    111.3700	  574.00	  549.65	-1692.65	  355.76
    111.4700	  549.00	  550.80	-1718.80	  355.65
    111.5700	  557.00	  552.26	-1712.26	  355.55
    111.6700	  564.00	  553.98	-1706.98	  355.45
    111.7700	  590.00	  555.92	-1682.92	  355.36
    111.8700	  575.00	  558.07	-1700.07	  355.26
    111.9700	  529.00	  560.39	-1748.39	  355.18
    112.0700	  554.00	  562.91	-1725.91	  355.09
    112.1700	  539.00	  565.61	-1743.61	  355.01
    112.2700	  533.00	  568.52	-1752.52	  354.93
    112.3700	  574.00	  571.67	-1714.67	  354.85
    112.4700	  584.00	  575.09	-1708.09	  354.78
    112.5700	  600.00	  578.85	-1695.85	  354.71
    112.6700	  596.00	  582.99	-1703.99	  354.65
    112.7700	  617.00	  587.60	-1687.60	  354.58
    112.8700	  619.00	  592.78	-1690.78	  354.52
    112.9700	  580.00	  598.66	-1735.66	  354.47
    113.0700	  618.00	  605.42	-1704.42	  354.42
    113.1700	  602.00	  613.27	-1728.27	  354.37
    113.2700	  649.00	  622.49	-1690.49	  354.33
    113.3700	  619.00	  633.45	-1731.45	  354.28
    113.4700	  709.00	  646.59	-1654.59	  354.25
    113.5700	  705.00	  662.50	-1674.50	  354.22
    113.6700	  723.00	  681.89	-1675.89	  354.19
    113.7700	  699.00	  705.63	-1723.63	  354.16
    113.8700	  790.00	  734.78	-1661.78	  354.14
    113.9700	  894.00	  770.57	-1593.57	  354.12
    114.0700	  919.00	  814.51	-1612.51	  354.11
    114.1700	  911.00	  868.26	-1674.26	  354.10
    114.2700	  924.00	  933.70	-1726.70	  354.10
    114.3700	 1041.00	 1012.92	-1688.92	  354.10
    114.4700	 1182.00	 1108.11	-1643.11	  354.10
    114.5700	 1314.00	 1221.59	-1624.59	  354.11
    114.6700	 1516.00	 1355.64	-1556.64	  354.12
    114.7700	 1599.00	 1512.43	-1630.43	  354.14
    114.8700	 1853.00	 1693.95	-1557.95	  354.16
    114.9700	 2036.00	 1901.73	-1582.73	  354.18
    115.0700	 2234.00	 2136.89	-1619.89	  354.22
    115.1700	 2427.00	 2399.78	-1689.78	  354.25
    115.2700	 2785.00	 2689.91	-1621.91	  354.29
    115.3700	 2989.00	 3005.94	-1733.94	  354.33
    115.4700	 3331.00	 3345.30	-1731.30	  354.38
    115.5700	 3653.00	 3704.44	-1768.44	  354.44
    115.6700	 4050.00	 4078.46	-1745.46	  354.50
    115.7700	 4257.00	 4461.25	-1921.25	  354.56
    115.8700	 4644.00	 4845.67	-1918.67	  354.63
    115.9700	 5027.00	 5223.24	-1913.24	  354.70
    116.0700	 5516.00	 5584.72	-1785.72	  354.78
    116.1700	 5711.00	 5919.93	-1925.93	  354.86
    116.2700	 6224.00	 6218.25	-1711.25	  354.95
    116.3700	 6352.00	 6469.24	-1834.24	  355.05
    116.4700	 6738.00	 6663.07	-1642.07	  355.15
    116.5700	 6759.00	 6791.63	-1749.63	  355.25
    116.6700	 6868.00	 6849.20	-1698.20	  355.36
    116.7700	 6806.00	 6833.29	-1744.29	  355.48
    116.8700	 6553.00	 6744.94	-1908.94	  355.60
    116.9700	 6679.00	 6588.59	-1626.59	  355.72
    117.0700	 6511.00	 6371.40	-1577.40	  355.86
    117.1700	 6085.00	 6102.56	-1734.56	  355.99
    117.2700	 5590.00	 5792.35	-1919.35	  356.14
    117.3700	 5385.00	 5451.18	-1783.18	  356.29
    117.4700	 5021.00	 5089.40	-1785.40	  356.44
    117.5700	 4710.00	 4716.46	-1723.46	  356.60
    117.6700	 4469.00	 4341.06	-1589.06	  356.77
    117.7700	 4121.00	 3970.79	-1566.79	  356.94
    117.8700	 3754.00	 3611.92	-1574.92	  357.12
    117.9700	 3342.00	 3269.73	-1644.73	  357.31
    118.0700	 3092.00	 2948.10	-1573.10	  357.50
    118.1700	 2772.00	 2649.91	-1594.91	  357.70
    118.2700	 2383.00	 2376.99	-1710.99	  357.90
    118.3700	 2175.00	 2130.10	-1672.10	  358.11
    118.4700	 1961.00	 1909.31	-1665.31	  358.33
    118.5700	 1634.00	 1713.90	-1796.90	  358.55
    118.6700	 1520.00	 1542.70	-1739.70	  358.78
    118.7700	 1372.00	 1394.10	-1739.10	  359.01
    118.8700	 1184.00	 1266.18	-1799.18	  359.26
    118.9700	 1123.00	 1156.92	-1750.92	  359.50
    119.0700	  982.00	 1064.21	-1799.21	  359.76
    119.1700	  930.00	  985.99	-1772.99	  360.02
    119.2700	  921.00	  920.32	-1716.32	  360.29
    119.3700	  858.00	  865.36	-1724.36	  360.57
    119.4700	  853.00	  819.49	-1683.49	  360.85
    119.5700	  707.00	  781.25	-1791.25	  361.14
    119.6700	  751.00	  749.39	-1715.39	  361.44
    119.7700	  705.00	  722.84	-1734.84	  361.74
    119.8700	  676.00	  700.68	-1741.68	  362.06
    119.9700	  660.00	  682.18	-1739.18	  362.37
    120.0700	  629.00	  666.69	-1754.69	  362.70
    120.1700	  624.00	  653.73	-1746.73	  363.03
    120.2700	  599.00	  642.87	-1760.87	  363.38
    120.3700	  600.00	  633.79	-1750.79	  363.72
    120.4700	  590.00	  626.22	-1753.22	  364.08
    120.5700	  612.00	  619.95	-1724.95	  364.45
    120.6700	  564.00	  614.82	-1767.82	  364.82
    120.7700	  587.00	  610.69	-1740.69	  365.20
    120.8700	  599.00	  607.45	-1725.45	  365.58
    120.9700	  593.00	  605.03	-1729.03	  365.98
    121.0700	  568.00	  603.36	-1752.36	  366.38
    121.1700	  583.00	  602.37	-1736.37	  366.79
    121.2700	  608.00	  602.02	-1711.02	  367.21
    121.3700	  614.00	  602.26	-1705.26	  367.64
    121.4700	  578.00	  603.04	-1742.04	  368.08
    121.5700	  609.00	  604.33	-1712.33	  368.52
    121.6700	  619.00	  606.06	-1704.06	  368.97
    121.7700	  565.00	  608.18	-1760.18	  369.43
    121.8700	  590.00	  610.64	-1737.64	  369.90
    121.9700	  651.00	  613.35	-1679.35	  370.38
    122.0700	  631.00	  616.25	-1702.25	  370.87
    122.1700	  664.00	  619.26	-1672.26	  371.36
    122.2700	  643.00	  622.29	-1696.29	  371.87
    122.3700	  617.00	  625.25	-1725.25	  372.38
    122.4700	  677.00	  628.02	-1668.02	  372.90
    122.5700	  667.00	  630.55	-1680.55	  373.43
    122.6700	  639.00	  632.75	-1710.75	  373.97
    122.7700	  683.00	  634.52	-1668.52	  374.52
    122.8700	  677.00	  635.83	-1675.83	  375.08
    122.9700	  606.00	  636.62	-1747.62	  375.65
    123.0700	  636.00	  636.88	-1717.88	  376.22
    123.1700	  624.00	  636.62	-1729.62	  376.81
    123.2700	  638.00	  635.86	-1714.86	  377.41
    123.3700	  635.00	  634.63	-1716.63	  378.01
    123.4700	  699.00	  633.01	-1651.01	  378.63
    123.5700	  653.00	  631.04	-1695.04	  379.25
    123.6700	  632.00	  628.78	-1713.78	  379.89
    123.7700	  612.00	  626.31	-1731.31	  380.53
    123.8700	  617.00	  623.68	-1723.68	  381.18
    123.9700	  637.00	  620.95	-1700.95	  381.85
    124.0700	  596.00	  618.19	-1739.19	  382.52
    124.1700	  569.00	  615.44	-1763.44	  383.21
    124.2700	  627.00	  612.75	-1702.75	  383.90
    124.3700	  617.00	  610.15	-1710.15	  384.60
    124.4700	  571.00	  607.69	-1753.69	  385.32
    124.5700	  623.00	  605.38	-1699.38	  386.04
    124.6700	  586.00	  603.25	-1734.25	  386.78
    124.7700	  628.00	  601.32	-1690.32	  387.53
    124.8700	  616.00	  599.60	-1700.60	  388.28
    124.9700	  571.00	  507.08	-1653.08	  389.05
    125.0700	  554.00	  507.86	-1717.00	  389.83
    125.1700	  583.00	  508.65	-1717.00	  390.62
    125.2700	  545.00	  509.45	-1717.00	  391.42
    125.3700	  584.00	  510.26	-1717.00	  392.23
    125.4700	  557.00	  511.09	-1717.00	  393.05
    125.5700	  581.00	  511.92	-1717.00	  393.89
    125.6700	  544.00	  512.77	-1717.00	  394.73
    125.7700	  566.00	  513.62	-1717.00	  395.59
    125.8700	  534.00	  514.49	-1717.00	  396.46
    125.9700	  551.00	  515.37	-1717.00	  397.34
    126.0700	  546.00	  516.26	-1717.00	  398.23
    126.1700	  568.00	  517.16	-1717.00	  399.13
    126.2700	  576.00	  518.08	-1717.00	  400.04
    126.3700	  594.00	  519.00	-1717.00	  400.97
    126.4700	  571.00	  519.94	-1717.00	  401.91
    126.5700	  610.00	  520.89	-1717.00	  402.86
    126.6700	  562.00	  521.85	-1717.00	  403.82
    126.7700	  587.00	  522.83	-1717.00	  404.79
    126.8700	  607.00	  523.81	-1717.00	  405.78
    126.9700	  615.00	  524.81	-1717.00	  406.78
    127.0700	  610.00	  525.82	-1717.00	  407.79
    127.1700	  622.00	  526.84	-1717.00	  408.81
    127.2700	  631.00	  527.88	-1717.00	  409.85
    127.3700	  680.00	  528.93	-1717.00	  410.90
    127.4700	  647.00	  529.99	-1717.00	  411.96
    127.5700	  630.00	  531.06	-1717.00	  413.03
    127.6700	  703.00	  532.15	-1717.00	  414.12
    127.7700	  739.00	  533.25	-1717.00	  415.22
    127.8700	  754.00	  534.36	-1717.00	  416.33
    127.9700	  741.00	  535.49	-1717.00	  417.46
    128.0700	  731.00	  536.63	-1717.00	  418.60
    128.1700	  769.00	  537.78	-1717.00	  419.75
    128.2700	  784.00	  538.95	-1717.00	  420.92
    128.3700	  797.00	  540.13	-1717.00	  422.09
    128.4700	  782.00	  541.32	-1717.00	  423.29
    128.5700	    0.00	  542.53	-1717.00	  424.49
    128.6700	    0.00	  543.75	-1717.00	  425.71
     12.3041	        	        	        	        	       0	(  0  0  2)	  0  1
     24.8850	        	        	        	        	       0	(  0  0  4)	  0  1
     28.3373	        	        	        	        	       0	(  1  0  0)	  0  1
     29.0342	        	        	        	        	       0	(  1  0  1)	  0  1
     31.0394	        	        	        	        	       0	(  1  0  2)	  0  1
     34.1463	        	        	        	        	       0	(  1  0  3)	  0  1
     37.7817	        	        	        	        	       0	(  0  0  6)	  0  1
     38.1217	        	        	        	        	       0	(  1  0  4)	  0  1
     42.7700	        	        	        	        	       0	(  1  0  5)	  0  1
     47.9522	        	        	        	        	       0	(  1  0  6)	  0  1
     50.2794	        	        	        	        	       0	(  1  1  0)	  0  1
     51.2003	        	        	        	        	       0	(  0  0  8)	  0  1
     52.0016	        	        	        	        	       0	(  1  1  2)	  0  1
     53.5808	        	        	        	        	       0	(  1  0  7)	  0  1
     56.9471	        	        	        	        	       0	(  1  1  4)	  0  1
     58.7787	        	        	        	        	       0	(  2  0  0)	  0  1
     59.1701	        	        	        	        	       0	(  2  0  1)	  0  1
     59.6092	        	        	        	        	       0	(  1  0  8)	  0  1
     60.3349	        	        	        	        	       0	(  2  0  2)	  0  1
     62.2472	        	        	        	        	       0	(  2  0  3)	  0  1
     64.6384	        	        	        	        	       0	(  1  1  6)	  0  1
     64.8700	        	        	        	        	       0	(  2  0  4)	  0  1
     65.4255	        	        	        	        	       0	(  0  0 10)	  0  1
     66.0234	        	        	        	        	       0	(  1  0  9)	  0  1
     68.1628	        	        	        	        	       0	(  2  0  5)	  0  1
     72.0886	        	        	        	        	       0	(  2  0  6)	  0  1
     72.8372	        	        	        	        	       0	(  1  0 10)	  0  1
     74.6721	        	        	        	        	       0	(  1  1  8)	  0  1
     76.6208	        	        	        	        	       0	(  2  0  7)	  0  1
     80.0922	        	        	        	        	       0	(  1  0 11)	  0  1
     80.9008	        	        	        	        	       0	(  0  0 12)	  0  1
     81.0269	        	        	        	        	       0	(  2  1  0)	  0  1
     81.3666	        	        	        	        	       0	(  2  1  1)	  0  1
     81.7490	        	        	        	        	       0	(  2  0  8)	  0  1
     82.3840	        	        	        	        	       0	(  2  1  2)	  0  1
     84.0746	        	        	        	        	       0	(  2  1  3)	  0  1
     86.4333	        	        	        	        	       0	(  2  1  4)	  0  1
     86.9387	        	        	        	        	       0	(  1  1 10)	  0  1
     87.4848	        	        	        	        	       0	(  2  0  9)	  0  1
     87.8635	        	        	        	        	       0	(  1  0 12)	  0  1
     89.4579	        	        	        	        	       0	(  2  1  5)	  0  1
     93.1539	        	        	        	        	       0	(  2  1  6)	  0  1
     93.8696	        	        	        	        	       0	(  2  0 10)	  0  1
     94.9214	        	        	        	        	       0	(  3  0  0)	  0  1
     95.2586	        	        	        	        	       0	(  3  0  1)	  0  1
     96.2715	        	        	        	        	       0	(  3  0  2)	  0  1
     96.2731	        	        	        	        	       0	(  1  0 13)	  0  1
     97.5409	        	        	        	        	       0	(  2  1  7)	  0  1
     97.9643	        	        	        	        	       0	(  3  0  3)	  0  1
     98.4328	        	        	        	        	       0	(  0  0 14)	  0  1
    100.3465	        	        	        	        	       0	(  3  0  4)	  0  1
    100.9886	        	        	        	        	       0	(  2  0 11)	  0  1
    101.8028	        	        	        	        	       0	(  1  1 12)	  0  1
    102.6615	        	        	        	        	       0	(  2  1  8)	  0  1
    103.4371	        	        	        	        	       0	(  3  0  5)	  0  1
    105.5213	        	        	        	        	       0	(  1  0 14)	  0  1
    107.2712	        	        	        	        	       0	(  3  0  6)	  0  1
    108.5963	        	        	        	        	       0	(  2  1  9)	  0  1
    108.9963	        	        	        	        	       0	(  2  0 12)	  0  1
    111.9103	        	        	        	        	       0	(  3  0  7)	  0  1
    115.4908	        	        	        	        	       0	(  2  1 10)	  0  1
    115.9586	        	        	        	        	       0	(  1  0 15)	  0  1
    116.6594	        	        	        	        	       0	(  2  2  0)	  0  1
    117.4624	        	        	        	        	       0	(  3  0  8)	  0  1
    118.1745	        	        	        	        	       0	(  2  2  2)	  0  1
    118.1764	        	        	        	        	       0	(  2  0 13)	  0  1
    119.9081	        	        	        	        	       0	(  0  0 16)	  0  1
    120.6375	        	        	        	        	       0	(  1  1 14)	  0  1
    122.8601	        	        	        	        	       0	(  2  2  4)	  0  1
    123.6152	        	        	        	        	       0	(  2  1 11)	  0  1
    124.1211	        	        	        	        	       0	(  3  0  9)	  0  1
    124.7318	        	        	        	        	       0	(  3  1  0)	  0  1
    125.1421	        	        	        	        	       0	(  3  1  1)	  0  1
    126.3857	        	        	        	        	       0	(  3  1  2)	  0  1
    128.2930	        	        	        	        	       0	(  1  0 16)	  0  1
    128.5045	        	        	        	        	       0	(  3  1  3)	  0  1
    129.1004	        	        	        	        	       0	(  2  0 14)	  0  1
    131.3011	        	        	        	        	       0	(  2  2  6)	  0  1
    131.5814	        	        	        	        	       0	(  3  1  4)	  0  1
    132.2609	        	        	        	        	       0	(  3  0 10)	  0  1
    133.5247	        	        	        	        	       0	(  2  1 12)	  0  1
    135.7703	        	        	        	        	       0	(  3  1  5)	  0  1
    141.3695	        	        	        	        	       0	(  3  1  6)	  0  1
    142.7401	        	        	        	        	       0	(  3  0 11)	  0  1
    143.2314	        	        	        	        	       0	(  2  0 15)	  0  1
    144.4456	        	        	        	        	       0	(  1  0 17)	  0  1
    145.5429	        	        	        	        	       0	(  2  2  8)	  0  1
    146.6778	        	        	        	        	       0	(  2  1 13)	  0  1
    149.0517	        	        	        	        	       0	(  3  1  7)	  0  1
    149.5510	        	        	        	        	       0	(  1  1 16)	  0  1
    153.9149	        	        	        	        	       0	(  0  0 18)	  0  1
    158.6302	        	        	        	        	       0	(  3  0 12)	  0  1
    158.9765	        	        	        	        	       0	(  4  0  0)	  0  1
    159.9394	        	        	        	        	       0	(  4  0  1)	  0  1
    161.0808	        	        	        	        	       0	(  3  1  8)	  0  1
    163.1432	        	        	        	        	       0	(  4  0  2)	  0  1
    169.6398	        	        	        	        	       0	(  2  0 16)	  0  1
    170.6176	        	        	        	        	       0	(  4  0  3)	  0  1
    174.1831	        	        	        	        	       0	(  2  1 14)	  0  1
