MSG Master    CELL:    5.91889   5.91889  23.28275   90.0000   90.0000  120.0000   SPGR: P 63/m m c             TEMP:   1056.85
  1   1280     2.52000     0.00000    -0.12117     0.00000     0.00000    0
    99     0     2
       0.00000      10.00000
     125.00000     130.00000
 2Theta	Yobs	Ycal	Yobs-Ycal	Backg	Posr	(hkl)	K
      0.7700	    0.00	  507.27	-1725.00	  390.17
      0.8700	    0.00	  508.46	-1725.00	  391.36
      0.9700	   43.00	  509.63	-1725.00	  392.53
      1.0700	   43.00	  510.78	-1725.00	  393.68
      1.1700	   36.00	  511.92	-1725.00	  394.82
      1.2700	   41.00	  513.05	-1725.00	  395.95
      1.3700	   39.00	  514.16	-1725.00	  397.06
      1.4700	   88.00	  515.26	-1725.00	  398.16
      1.5700	  278.00	  516.34	-1725.00	  399.24
      1.6700	  449.00	  517.41	-1725.00	  400.31
      1.7700	  588.00	  518.46	-1725.00	  401.36
      1.8700	  657.00	  519.51	-1725.00	  402.41
      1.9700	  672.00	  520.54	-1725.00	  403.44
      2.0700	  798.00	  521.55	-1725.00	  404.45
      2.1700	  789.00	  522.55	-1725.00	  405.45
      2.2700	  776.00	  523.54	-1725.00	  406.44
      2.3700	  743.00	  524.52	-1725.00	  407.42
      2.4700	  745.00	  525.48	-1725.00	  408.38
      2.5700	  647.00	  526.43	-1725.00	  409.33
      2.6700	  690.00	  527.36	-1725.00	  410.26
      2.7700	  677.00	  528.28	-1725.00	  411.18
      2.8700	  639.00	  529.19	-1725.00	  412.09
      2.9700	  605.00	  530.09	-1725.00	  412.99
      3.0700	  560.00	  530.98	-1725.00	  413.88
      3.1700	  571.00	  531.85	-1725.00	  414.75
      3.2700	  609.00	  532.71	-1725.00	  415.61
      3.3700	  698.00	  533.55	-1725.00	  416.45
      3.4700	  774.00	  534.39	-1725.00	  417.29
      3.5700	  818.00	  535.21	-1725.00	  418.11
      3.6700	  888.00	  536.02	-1725.00	  418.92
      3.7700	 1004.00	  536.82	-1725.00	  419.72
      3.8700	 1007.00	  537.61	-1725.00	  420.51
      3.9700	  997.00	  538.38	-1725.00	  421.28
      4.0700	 1027.00	  539.14	-1725.00	  422.04
      4.1700	 1136.00	  539.89	-1725.00	  422.79
      4.2700	 1142.00	  540.63	-1725.00	  423.53
      4.3700	 1149.00	  541.36	-1725.00	  424.26
      4.4700	 1109.00	  542.07	-1725.00	  424.97
      4.5700	 1073.00	  542.78	-1725.00	  425.68
      4.6700	 1059.00	  543.47	-1725.00	  426.37
      4.7700	  982.00	  544.15	-1725.00	  427.05
      4.8700	 1033.00	  544.82	-1725.00	  427.72
      4.9700	  983.00	  545.48	-1725.00	  428.38
      5.0700	  934.00	  546.13	-1725.00	  429.03
      5.1700	  873.00	  546.77	-1725.00	  429.67
      5.2700	  921.00	  547.40	-1725.00	  430.30
      5.3700	  901.00	  548.01	-1725.00	  430.91
      5.4700	  926.00	  548.62	-1725.00	  431.52
      5.5700	  922.00	  549.21	-1725.00	  432.11
      5.6700	  839.00	  549.80	-1725.00	  432.70
      5.7700	  811.00	  550.37	-1725.00	  433.27
      5.8700	  848.00	  550.93	-1725.00	  433.83
      5.9700	  843.00	  551.49	-1725.00	  434.39
      6.0700	  826.00	  552.03	-1725.00	  434.93
      6.1700	  775.00	  552.56	-1725.00	  435.46
      6.2700	  746.00	  553.08	-1725.00	  435.98
      6.3700	  735.00	  553.60	-1725.00	  436.50
      6.4700	  765.00	  554.10	-1725.00	  437.00
      6.5700	  740.00	  554.59	-1725.00	  437.49
      6.6700	  770.00	  555.07	-1725.00	  437.97
      6.7700	  777.00	  555.55	-1725.00	  438.45
      6.8700	  722.00	  556.01	-1725.00	  438.91
      6.9700	  753.00	  556.46	-1725.00	  439.36
      7.0700	  710.00	  556.91	-1725.00	  439.81
      7.1700	  722.00	  557.34	-1725.00	  440.24
      7.2700	  629.00	  557.77	-1725.00	  440.67
      7.3700	  656.00	  558.18	-1725.00	  441.08
      7.4700	  702.00	  558.59	-1725.00	  441.49
      7.5700	  669.00	  558.99	-1725.00	  441.89
      7.6700	  639.00	  559.38	-1725.00	  442.28
      7.7700	  637.00	  559.76	-1725.00	  442.66
      7.8700	  617.00	  560.13	-1725.00	  443.03
      7.9700	  607.00	  560.49	-1725.00	  443.39
      8.0700	  643.00	  560.84	-1725.00	  443.74
      8.1700	  674.00	  561.19	-1725.00	  444.09
      8.2700	  634.00	  561.52	-1725.00	  444.42
      8.3700	  598.00	  561.85	-1725.00	  444.75
      8.4700	  606.00	  562.17	-1725.00	  445.07
      8.5700	  598.00	  562.48	-1725.00	  445.38
      8.6700	  605.00	  562.78	-1725.00	  445.68
      8.7700	  651.00	  563.08	-1725.00	  445.98
      8.8700	  568.00	  563.36	-1725.00	  446.26
      8.9700	  585.00	  563.64	-1725.00	  446.54
      9.0700	  597.00	  563.91	-1725.00	  446.81
      9.1700	  633.00	  564.17	-1725.00	  447.07
      9.2700	  606.00	  564.42	-1725.00	  447.32
      9.3700	  603.00	  564.67	-1725.00	  447.57
      9.4700	  606.00	  564.91	-1725.00	  447.81
      9.5700	  656.00	  565.14	-1725.00	  448.04
      9.6700	  577.00	  565.36	-1725.00	  448.26
      9.7700	  628.00	  565.57	-1725.00	  448.47
      9.8700	  580.00	  565.78	-1725.00	  448.68
      9.9700	  570.00	  565.98	-1725.00	  448.88
     10.0700	  588.00	  567.47	-1704.47	  449.07
     10.1700	  605.00	  567.80	-1687.80	  449.26
     10.2700	  605.00	  568.16	-1688.16	  449.43
     10.3700	  574.00	  568.57	-1719.57	  449.60
     10.4700	  607.00	  569.06	-1687.06	  449.77
     10.5700	  604.00	  569.70	-1690.70	  449.92
     10.6700	  583.00	  570.57	-1712.57	  450.07
     10.7700	  576.00	  571.79	-1720.79	  450.21
     10.8700	  591.00	  573.41	-1707.41	  450.35
     10.9700	  581.00	  575.44	-1719.44	  450.47
     11.0700	  549.00	  577.88	-1753.88	  450.60
     11.1700	  594.00	  580.72	-1711.72	  450.71
     11.2700	  622.00	  584.01	-1687.01	  450.82
     11.3700	  599.00	  587.84	-1713.84	  450.92
     11.4700	  636.00	  592.35	-1681.35	  451.01
     11.5700	  550.00	  597.78	-1772.78	  451.10
     11.6700	  594.00	  604.51	-1735.51	  451.18
     11.7700	  612.00	  613.09	-1726.09	  451.26
     11.8700	  698.00	  624.08	-1651.08	  451.33
     11.9700	  670.00	  637.32	-1692.32	  451.39
     12.0700	  714.00	  650.70	-1661.70	  451.45
     12.1700	  694.00	  659.03	-1690.03	  451.50
     12.2700	  646.00	  655.05	-1734.05	  451.54
     12.3700	  667.00	  637.02	-1695.02	  451.58
     12.4700	  639.00	  614.58	-1700.58	  451.61
     12.5700	  607.00	  596.67	-1714.67	  451.64
     12.6700	  561.00	  585.37	-1749.37	  451.66
     12.7700	  588.00	  579.19	-1716.19	  451.68
     12.8700	  596.00	  576.00	-1705.00	  451.69
     12.9700	  536.00	  574.25	-1763.25	  451.69
     13.0700	  523.00	  573.15	-1775.15	  451.69
     13.1700	  569.00	  572.37	-1728.37	  451.68
     13.2700	  576.00	  571.79	-1720.79	  451.67
     13.3700	  561.00	  571.34	-1735.34	  451.65
     13.4700	  515.00	  570.97	-1780.97	  451.62
     13.5700	  557.00	  570.66	-1738.66	  451.59
     13.6700	  569.00	  570.40	-1726.40	  451.56
     13.7700	  576.00	  570.18	-1719.18	  451.52
     13.8700	  598.00	  569.98	-1696.98	  451.48
     13.9700	  522.00	  569.80	-1772.80	  451.43
     14.0700	  529.00	  569.63	-1765.63	  451.37
     14.1700	  560.00	  569.48	-1734.48	  451.31
     14.2700	  544.00	  569.33	-1750.33	  451.25
     14.3700	  578.00	  569.19	-1716.19	  451.18
     14.4700	  522.00	  569.05	-1772.05	  451.10
     14.5700	  558.00	  568.92	-1735.92	  451.02
     14.6700	  554.00	  568.79	-1739.79	  450.94
     14.7700	  522.00	  568.65	-1771.65	  450.85
     14.8700	  558.00	  568.55	-1735.55	  450.75
     14.9700	  570.00	  568.42	-1723.42	  450.66
     15.0700	  539.00	  568.29	-1754.29	  450.55
     15.1700	  541.00	  568.15	-1752.15	  450.45
     15.2700	  549.00	  568.02	-1744.02	  450.34
     15.3700	  569.00	  567.88	-1723.88	  450.22
     15.4700	  557.00	  567.74	-1735.74	  450.10
     15.5700	  549.00	  567.59	-1743.59	  449.97
     15.6700	  583.00	  567.45	-1709.45	  449.85
     15.7700	  511.00	  567.30	-1781.30	  449.71
     15.8700	  566.00	  567.15	-1726.15	  449.58
     15.9700	  550.00	  566.99	-1741.99	  449.44
     16.0700	  590.00	  566.84	-1701.84	  449.29
     16.1700	  533.00	  566.68	-1758.68	  449.14
     16.2700	  564.00	  566.51	-1727.51	  448.99
     16.3700	  555.00	  566.35	-1736.35	  448.83
     16.4700	  541.00	  566.18	-1750.18	  448.67
     16.5700	  588.00	  566.01	-1703.01	  448.51
     16.6700	  583.00	  565.83	-1707.83	  448.34
     16.7700	  552.00	  565.65	-1738.65	  448.17
     16.8700	  587.00	  565.47	-1703.47	  447.99
     16.9700	  590.00	  565.29	-1700.29	  447.81
     17.0700	  546.00	  565.10	-1744.10	  447.63
     17.1700	  549.00	  564.91	-1740.91	  447.44
     17.2700	  544.00	  564.71	-1745.71	  447.25
     17.3700	  547.00	  564.52	-1742.52	  447.06
     17.4700	  565.00	  564.32	-1724.32	  446.86
     17.5700	  533.00	  564.11	-1756.11	  446.66
     17.6700	  580.00	  563.91	-1708.91	  446.46
     17.7700	  566.00	  563.70	-1722.70	  446.25
     17.8700	  575.00	  563.49	-1713.49	  446.05
     17.9700	  565.00	  563.27	-1723.27	  445.83
     18.0700	  574.00	  563.15	-1714.15	  445.62
     18.1700	  563.00	  562.94	-1724.94	  445.40
     18.2700	  579.00	  562.72	-1708.72	  445.18
     18.3700	  551.00	  562.49	-1736.49	  444.95
     18.4700	  533.00	  562.27	-1754.27	  444.72
     18.5700	  538.00	  562.04	-1749.04	  444.49
     18.6700	  577.00	  561.89	-1709.89	  444.26
     18.7700	  582.00	  561.66	-1704.66	  444.03
     18.8700	  548.00	  561.42	-1738.42	  443.79
     18.9700	  564.00	  561.19	-1722.19	  443.55
     19.0700	  577.00	  560.95	-1708.95	  443.30
     19.1700	  535.00	  560.71	-1750.71	  443.05
     19.2700	  523.00	  560.46	-1762.46	  442.81
     19.3700	  558.00	  560.22	-1727.22	  442.55
     19.4700	  530.00	  559.97	-1754.97	  442.30
     19.5700	  545.00	  559.72	-1739.72	  442.04
     19.6700	  520.00	  559.47	-1764.47	  441.78
     19.7700	  520.00	  559.22	-1764.22	  441.52
     19.8700	  557.00	  558.96	-1726.96	  441.26
     19.9700	  522.00	  558.71	-1761.71	  440.99
     20.0700	  548.00	  558.45	-1735.45	  440.72
     20.1700	  566.00	  558.19	-1717.19	  440.45
     20.2700	  544.00	  557.93	-1738.93	  440.18
     20.3700	  582.00	  557.70	-1700.70	  439.91
     20.4700	  594.00	  557.43	-1688.43	  439.63
     20.5700	  549.00	  557.17	-1733.17	  439.35
     20.6700	  586.00	  556.90	-1695.90	  439.07
     20.7700	  548.00	  556.63	-1733.63	  438.79
     20.8700	  574.00	  556.37	-1707.37	  438.50
     20.9700	  575.00	  556.10	-1706.10	  438.21
     21.0700	  558.00	  555.83	-1722.83	  437.92
     21.1700	  549.00	  555.56	-1731.56	  437.63
     21.2700	  551.00	  555.29	-1729.29	  437.34
     21.3700	  590.00	  555.02	-1690.02	  437.05
     21.4700	  549.00	  554.75	-1730.75	  436.75
     21.5700	  556.00	  554.48	-1723.48	  436.45
     21.6700	  551.00	  554.21	-1728.21	  436.15
     21.7700	  495.00	  553.94	-1783.94	  435.85
     21.8700	  552.00	  553.63	-1726.63	  435.55
     21.9700	  594.00	  553.37	-1684.37	  435.25
     22.0700	  582.00	  553.11	-1696.11	  434.94
     22.1700	  530.00	  552.85	-1747.85	  434.64
     22.2700	  569.00	  552.59	-1708.59	  434.33
     22.3700	  527.00	  552.34	-1750.34	  434.02
     22.4700	  582.00	  552.09	-1695.09	  433.71
     22.5700	  534.00	  551.85	-1742.85	  433.39
     22.6700	  547.00	  551.61	-1729.61	  433.08
     22.7700	  545.00	  551.38	-1731.38	  432.77
     22.8700	  521.00	  551.17	-1755.17	  432.45
     22.9700	  574.00	  550.97	-1701.97	  432.13
     23.0700	  577.00	  550.93	-1698.93	  431.81
     23.1700	  560.00	  550.77	-1715.77	  431.49
     23.2700	  565.00	  550.63	-1710.63	  431.17
     23.3700	  549.00	  550.54	-1726.54	  430.85
     23.4700	  597.00	  550.49	-1678.49	  430.53
     23.5700	  556.00	  550.51	-1719.51	  430.20
     23.6700	  566.00	  550.62	-1709.62	  429.88
     23.7700	  586.00	  550.91	-1689.91	  429.55
     23.8700	  563.00	  551.47	-1713.47	  429.23
     23.9700	  578.00	  552.56	-1699.56	  428.90
     24.0700	  529.00	  554.55	-1750.55	  428.57
     24.1700	  545.00	  558.01	-1738.01	  428.24
     24.2700	  588.00	  563.63	-1700.63	  427.91
     24.3700	  562.00	  572.09	-1735.09	  427.58
     24.4700	  563.00	  583.76	-1745.76	  427.25
     24.5700	  616.00	  598.00	-1707.00	  426.92
     24.6700	  613.00	  612.11	-1724.11	  426.58
     24.7700	  646.00	  620.63	-1699.63	  426.25
     24.8700	  608.00	  617.07	-1734.07	  425.92
     24.9700	  652.00	  601.49	-1674.49	  425.58
     25.0700	  600.00	  582.71	-1707.71	  425.25
     25.1700	  596.00	  567.63	-1696.63	  424.91
     25.2700	  542.00	  557.86	-1740.86	  424.58
     25.3700	  606.00	  552.34	-1671.34	  424.24
     25.4700	  501.00	  549.37	-1773.37	  423.90
     25.5700	  537.00	  547.69	-1735.69	  423.56
     25.6700	  579.00	  546.61	-1692.61	  423.23
     25.7700	  549.00	  545.83	-1721.83	  422.89
     25.8700	  565.00	  545.24	-1705.24	  422.55
     25.9700	  547.00	  544.79	-1722.79	  422.21
     26.0700	  555.00	  544.45	-1714.45	  421.87
     26.1700	  578.00	  544.19	-1691.19	  421.53
     26.2700	  513.00	  544.02	-1756.02	  421.19
     26.3700	  543.00	  543.93	-1725.93	  420.85
     26.4700	  542.00	  543.94	-1726.94	  420.51
     26.5700	  533.00	  544.03	-1736.03	  420.17
     26.6700	  546.00	  544.24	-1723.24	  419.83
     26.7700	  548.00	  544.58	-1721.58	  419.49
     26.8700	  542.00	  545.09	-1728.09	  419.15
     26.9700	  558.00	  545.82	-1712.82	  418.81
     27.0700	  552.00	  546.82	-1719.82	  418.47
     27.1700	  575.00	  548.23	-1698.23	  418.13
     27.2700	  559.00	  550.28	-1716.28	  417.79
     27.3700	  529.00	  553.42	-1749.42	  417.45
     27.4700	  582.00	  558.56	-1701.56	  417.11
     27.5700	  553.00	  567.32	-1739.32	  416.77
     27.6700	  563.00	  582.33	-1744.33	  416.43
     27.7700	  572.00	  607.03	-1760.03	  416.09
     27.8700	  602.00	  644.56	-1767.56	  415.75
     27.9700	  647.00	  695.39	-1773.39	  415.41
     28.0700	  788.00	  754.16	-1691.16	  415.07
     28.1700	  900.00	  806.73	-1631.73	  414.74
     28.2700	  920.00	  831.10	-1636.10	  414.40
     28.3700	  876.00	  812.67	-1661.67	  414.06
     28.4700	  773.00	  770.15	-1722.15	  413.72
     28.5700	  703.00	  738.21	-1760.21	  413.38
     28.6700	  714.00	  733.62	-1744.62	  413.05
     28.7700	  724.00	  752.81	-1753.81	  412.71
     28.8700	  749.00	  777.91	-1753.91	  412.37
     28.9700	  862.00	  783.40	-1646.40	  412.04
     29.0700	  747.00	  751.91	-1729.91	  411.70
     29.1700	  652.00	  695.50	-1768.50	  411.37
     29.2700	  629.00	  640.01	-1736.01	  411.03
     29.3700	  589.00	  598.79	-1734.79	  410.70
     29.4700	  596.00	  573.03	-1702.03	  410.37
     29.5700	  565.00	  558.63	-1718.63	  410.03
     29.6700	  580.00	  550.86	-1695.86	  409.70
     29.7700	  601.00	  546.44	-1670.44	  409.37
     29.8700	  563.00	  543.69	-1705.69	  409.04
     29.9700	  558.00	  541.94	-1708.94	  408.71
     30.0700	  575.00	  541.01	-1691.01	  408.38
     30.1700	  511.00	  541.03	-1755.03	  408.05
     30.2700	  548.00	  542.37	-1719.37	  407.72
     30.3700	  591.00	  545.88	-1679.88	  407.39
     30.4700	  540.00	  552.77	-1737.77	  407.07
     30.5700	  571.00	  564.20	-1718.20	  406.74
     30.6700	  603.00	  580.34	-1702.34	  406.41
     30.7700	  604.00	  599.13	-1720.13	  406.09
     30.8700	  623.00	  615.43	-1717.43	  405.77
     30.9700	  623.00	  621.48	-1723.48	  405.44
     31.0700	  622.00	  611.74	-1714.74	  405.12
     31.1700	  586.00	  590.93	-1729.93	  404.80
     31.2700	  560.00	  569.27	-1734.27	  404.48
     31.3700	  596.00	  552.58	-1681.58	  404.16
     31.4700	  499.00	  541.82	-1767.82	  403.84
     31.5700	  566.00	  535.68	-1694.68	  403.52
     31.6700	  528.00	  532.35	-1729.35	  403.21
     31.7700	  539.00	  530.47	-1716.47	  402.89
     31.8700	  530.00	  529.31	-1724.31	  402.58
     31.9700	  560.00	  528.52	-1693.52	  402.26
     32.0700	  540.00	  527.99	-1712.99	  401.95
     32.1700	  553.00	  527.65	-1699.65	  401.64
     32.2700	  530.00	  527.48	-1722.48	  401.33
     32.3700	  613.00	  527.48	-1639.48	  401.02
     32.4700	  552.00	  527.66	-1700.66	  400.71
     32.5700	  543.00	  528.04	-1710.04	  400.40
     32.6700	  543.00	  528.65	-1710.65	  400.09
     32.7700	  512.00	  529.55	-1742.55	  399.79
     32.8700	  563.00	  530.82	-1692.82	  399.49
     32.9700	  535.00	  532.62	-1722.62	  399.18
     33.0700	  535.00	  535.21	-1725.21	  398.88
     33.1700	  561.00	  539.16	-1703.16	  398.58
     33.2700	  534.00	  545.65	-1736.65	  398.28
     33.3700	  553.00	  557.05	-1729.05	  397.98
     33.4700	  569.00	  577.54	-1733.54	  397.69
     33.5700	  594.00	  613.14	-1744.14	  397.39
     33.6700	  653.00	  670.01	-1742.01	  397.09
     33.7700	  804.00	  749.72	-1670.72	  396.80
     33.8700	  862.00	  843.05	-1706.05	  396.51
     33.9700	  962.00	  926.11	-1689.11	  396.22
     34.0700	 1039.00	  963.12	-1649.12	  395.93
     34.1700	 1010.00	  927.46	-1642.46	  395.64
     34.2700	  794.00	  836.44	-1767.44	  395.35
     34.3700	  807.00	  735.16	-1653.16	  395.07
     34.4700	  645.00	  653.00	-1733.00	  394.78
     34.5700	  567.00	  597.71	-1755.71	  394.50
     34.6700	  521.00	  565.10	-1769.10	  394.22
     34.7700	  556.00	  547.25	-1716.25	  393.94
     34.8700	  526.00	  537.45	-1736.45	  393.66
     34.9700	  503.00	  531.55	-1753.55	  393.38
     35.0700	  545.00	  527.55	-1707.55	  393.11
     35.1700	  553.00	  524.56	-1696.56	  392.83
     35.2700	  517.00	  522.22	-1730.22	  392.56
     35.3700	  575.00	  520.31	-1670.31	  392.29
     35.4700	  501.00	  518.73	-1742.73	  392.02
     35.5700	  529.00	  517.40	-1713.40	  391.75
     35.6700	  529.00	  516.25	-1712.25	  391.48
     35.7700	  565.00	  515.26	-1675.26	  391.22
     35.8700	  512.00	  514.39	-1727.39	  390.96
     35.9700	  526.00	  513.62	-1712.62	  390.69
     36.0700	  481.00	  513.38	-1757.38	  390.43
     36.1700	  522.00	  512.77	-1715.77	  390.17
     36.2700	  504.00	  512.22	-1733.22	  389.91
     36.3700	  523.00	  511.72	-1713.72	  389.66
     36.4700	  495.00	  511.27	-1741.27	  389.40
     36.5700	  495.00	  510.88	-1740.88	  389.15
     36.6700	  515.00	  510.55	-1720.55	  388.90
     36.7700	  483.00	  510.28	-1752.28	  388.65
     36.8700	  525.00	  510.11	-1710.11	  388.40
     36.9700	  542.00	  510.13	-1693.13	  388.15
     37.0700	  513.00	  510.47	-1722.47	  387.91
     37.1700	  544.00	  511.36	-1692.36	  387.66
     37.2700	  486.00	  513.03	-1752.03	  387.42
     37.3700	  541.00	  515.63	-1699.63	  387.18
     37.4700	  522.00	  518.97	-1721.97	  386.94
     37.5700	  538.00	  522.35	-1709.35	  386.71
     37.6700	  549.00	  524.55	-1700.55	  386.47
     37.7700	  510.00	  524.35	-1739.35	  386.24
     37.8700	  537.00	  521.73	-1709.73	  386.00
     37.9700	  512.00	  517.99	-1730.99	  385.77
     38.0700	  509.00	  514.31	-1730.31	  385.54
     38.1700	  520.00	  511.22	-1716.22	  385.32
     38.2700	  540.00	  508.86	-1693.86	  385.09
     38.3700	  493.00	  507.19	-1739.19	  384.87
     38.4700	  493.00	  506.21	-1738.21	  384.65
     38.5700	  536.00	  505.33	-1694.33	  384.43
     38.6700	  505.00	  504.77	-1724.77	  384.21
     38.7700	  515.00	  504.34	-1714.34	  383.99
     38.8700	  555.00	  503.99	-1673.99	  383.78
     38.9700	  463.00	  503.68	-1765.68	  383.56
     39.0700	  542.00	  503.40	-1686.40	  383.35
     39.1700	  478.00	  503.15	-1750.15	  383.14
     39.2700	  469.00	  502.91	-1758.91	  382.93
     39.3700	  542.00	  502.61	-1685.61	  382.73
     39.4700	  519.00	  502.40	-1708.40	  382.52
     39.5700	  542.00	  502.20	-1685.20	  382.32
     39.6700	  524.00	  502.02	-1703.02	  382.12
     39.7700	  498.00	  501.85	-1728.85	  381.92
     39.8700	  479.00	  501.68	-1747.68	  381.72
     39.9700	  475.00	  501.53	-1751.53	  381.53
     40.0700	  524.00	  501.39	-1702.39	  381.33
     40.1700	  512.00	  501.27	-1714.27	  381.14
     40.2700	  508.00	  501.15	-1718.15	  380.95
     40.3700	  516.00	  501.05	-1710.05	  380.76
     40.4700	  466.00	  500.97	-1759.97	  380.58
     40.5700	  467.00	  500.91	-1758.91	  380.39
     40.6700	  487.00	  500.86	-1738.86	  380.21
     40.7700	  500.00	  500.84	-1725.84	  380.03
     40.8700	  499.00	  500.85	-1726.85	  379.85
     40.9700	  458.00	  500.90	-1767.90	  379.67
     41.0700	  481.00	  501.46	-1745.46	  379.49
     41.1700	  518.00	  501.60	-1708.60	  379.32
     41.2700	  496.00	  501.81	-1730.81	  379.15
     41.3700	  472.00	  502.09	-1755.09	  378.98
     41.4700	  496.00	  502.49	-1731.49	  378.81
     41.5700	  463.00	  503.04	-1765.04	  378.64
     41.6700	  508.00	  503.80	-1720.80	  378.48
     41.7700	  453.00	  505.02	-1777.02	  378.32
     41.8700	  529.00	  507.03	-1703.03	  378.16
     41.9700	  489.00	  510.57	-1746.57	  378.00
     42.0700	  524.00	  516.87	-1717.87	  377.84
     42.1700	  522.00	  527.62	-1730.62	  377.68
     42.2700	  521.00	  544.43	-1748.43	  377.53
     42.3700	  566.00	  567.88	-1726.88	  377.38
     42.4700	  611.00	  595.74	-1709.74	  377.23
     42.5700	  608.00	  622.19	-1739.19	  377.08
     42.6700	  531.00	  638.11	-1832.11	  376.94
     42.7700	  592.00	  635.27	-1768.27	  376.79
     42.8700	  604.00	  614.64	-1735.64	  376.65
     42.9700	  565.00	  585.95	-1745.95	  376.51
     43.0700	  539.00	  558.41	-1744.41	  376.37
     43.1700	  567.00	  536.75	-1694.75	  376.23
     43.2700	  512.00	  521.97	-1734.97	  376.10
     43.3700	  504.00	  512.90	-1733.90	  375.97
     43.4700	  509.00	  507.90	-1723.90	  375.84
     43.5700	  479.00	  504.96	-1750.96	  375.71
     43.6700	  504.00	  503.21	-1724.21	  375.58
     43.7700	  470.00	  502.07	-1757.07	  375.45
     43.8700	  492.00	  501.24	-1734.24	  375.33
     43.9700	  517.00	  500.61	-1708.61	  375.21
     44.0700	  546.00	  500.11	-1679.11	  375.09
     44.1700	  511.00	  499.71	-1713.71	  374.97
     44.2700	  495.00	  499.39	-1729.39	  374.86
     44.3700	  483.00	  499.14	-1741.14	  374.74
     44.4700	  474.00	  498.93	-1749.93	  374.63
     44.5700	  473.00	  498.78	-1750.78	  374.52
     44.6700	  506.00	  498.66	-1717.66	  374.41
     44.7700	  518.00	  498.57	-1705.57	  374.30
     44.8700	  521.00	  498.71	-1702.71	  374.20
     44.9700	  509.00	  498.68	-1714.68	  374.09
     45.0700	  511.00	  498.69	-1712.69	  373.99
     45.1700	  514.00	  498.57	-1709.57	  373.89
     45.2700	  506.00	  498.63	-1717.63	  373.80
     45.3700	  483.00	  498.71	-1740.71	  373.70
     45.4700	  518.00	  498.82	-1705.82	  373.61
     45.5700	  486.00	  498.96	-1737.96	  373.52
     45.6700	  512.00	  499.12	-1712.12	  373.43
     45.7700	  501.00	  499.32	-1723.32	  373.34
     45.8700	  507.00	  499.55	-1717.55	  373.25
     45.9700	  497.00	  499.81	-1727.81	  373.17
     46.0700	  529.00	  500.12	-1696.12	  373.08
     46.1700	  476.00	  500.48	-1749.48	  373.00
     46.2700	  515.00	  500.88	-1710.88	  372.92
     46.3700	  524.00	  501.35	-1702.35	  372.85
     46.4700	  510.00	  501.96	-1716.96	  372.77
     46.5700	  499.00	  502.60	-1728.60	  372.70
     46.6700	  525.00	  503.42	-1703.42	  372.63
     46.7700	  511.00	  504.34	-1718.34	  372.56
     46.8700	  460.00	  505.52	-1770.52	  372.49
     46.9700	  513.00	  507.15	-1719.15	  372.42
     47.0700	  497.00	  509.57	-1737.57	  372.36
     47.1700	  526.00	  513.40	-1712.40	  372.30
     47.2700	  510.00	  519.53	-1734.53	  372.23
     47.3700	  541.00	  528.94	-1712.94	  372.18
     47.4700	  509.00	  542.35	-1758.35	  372.12
     47.5700	  556.00	  559.53	-1728.53	  372.06
     47.6700	  566.00	  578.63	-1737.64	  372.01
     47.7700	  582.00	  595.72	-1738.72	  371.96
     47.8700	  604.00	  605.39	-1726.39	  371.91
     47.9700	  573.00	  603.74	-1755.74	  371.86
     48.0700	  526.00	  592.15	-1791.15	  371.81
     48.1700	  539.00	  576.10	-1762.10	  371.77
     48.2700	  569.00	  560.71	-1716.71	  371.72
     48.3700	  557.00	  548.83	-1716.83	  371.68
     48.4700	  588.00	  541.41	-1678.41	  371.64
     48.5700	  512.00	  538.15	-1751.15	  371.61
     48.6700	  547.00	  538.22	-1716.22	  371.57
     48.7700	  528.00	  540.82	-1737.82	  371.54
     48.8700	  576.00	  545.45	-1694.45	  371.50
     48.9700	  532.00	  552.46	-1745.46	  371.47
     49.0700	  558.00	  561.62	-1728.62	  371.44
     49.1700	  548.00	  574.76	-1751.76	  371.42
     49.2700	  586.00	  594.99	-1733.99	  371.39
     49.3700	  634.00	  628.39	-1719.39	  371.37
     49.4700	  693.00	  685.35	-1717.35	  371.34
     49.5700	  694.00	  781.05	-1812.05	  371.32
     49.6700	  899.00	  933.26	-1759.26	  371.30
     49.7700	 1071.00	 1155.94	-1809.94	  371.29
     49.8700	 1406.00	 1449.12	-1768.12	  371.27
     49.9700	 1768.00	 1787.15	-1744.15	  371.26
     50.0700	 2143.00	 2109.71	-1691.71	  371.25
     50.1700	 2468.00	 2324.59	-1581.59	  371.23
     50.2700	 2478.00	 2345.22	-1592.22	  371.23
     50.3700	 2183.00	 2160.20	-1702.20	  371.22
     50.4700	 1853.00	 1848.50	-1720.50	  371.21
     50.5700	 1455.00	 1509.76	-1779.76	  371.21
     50.6700	 1043.00	 1211.75	-1893.75	  371.21
     50.7700	  850.00	  984.89	-1859.89	  371.21
     50.8700	  735.00	  831.59	-1821.59	  371.21
     50.9700	  711.00	  737.66	-1751.66	  371.21
     51.0700	  615.00	  682.88	-1792.88	  371.21
     51.1700	  634.00	  649.02	-1740.02	  371.22
     51.2700	  606.00	  624.28	-1743.28	  371.23
     51.3700	  561.00	  603.67	-1767.67	  371.24
     51.4700	  570.00	  586.18	-1741.18	  371.25
     51.5700	  580.00	  572.15	-1717.15	  371.26
     51.6700	  552.00	  561.15	-1734.15	  371.27
     51.7700	  570.00	  553.21	-1708.21	  371.29
     51.8700	  571.00	  547.85	-1701.85	  371.30
     51.9700	  497.00	  544.53	-1772.53	  371.32
     52.0700	  491.00	  542.78	-1776.78	  371.34
     52.1700	  555.00	  542.31	-1712.31	  371.36
     52.2700	  549.00	  543.07	-1719.07	  371.39
     52.3700	  526.00	  545.29	-1744.29	  371.41
     52.4700	  531.00	  549.67	-1743.67	  371.44
     52.5700	  607.00	  557.65	-1675.65	  371.46
     52.6700	  610.00	  571.84	-1686.84	  371.49
     52.7700	  621.00	  596.35	-1700.35	  371.52
     52.8700	  642.00	  636.60	-1719.60	  371.55
     52.9700	  724.00	  698.17	-1699.17	  371.59
     53.0700	  825.00	  784.48	-1684.48	  371.62
     53.1700	  896.00	  893.62	-1722.62	  371.66
     53.2700	 1042.00	 1015.09	-1698.09	  371.70
     53.3700	 1182.00	 1127.55	-1670.55	  371.73
     53.4700	 1163.00	 1200.36	-1762.36	  371.77
     53.5700	 1224.00	 1206.21	-1707.21	  371.82
     53.6700	 1079.00	 1142.18	-1788.18	  371.86
     53.7700	 1024.00	 1033.20	-1734.20	  371.90
     53.8700	  857.00	  911.33	-1779.33	  371.95
     53.9700	  780.00	  799.79	-1744.79	  372.00
     54.0700	  646.00	  710.41	-1789.41	  372.05
     54.1700	  624.00	  646.07	-1747.07	  372.10
     54.2700	  620.00	  603.82	-1708.82	  372.15
     54.3700	  637.00	  578.16	-1666.16	  372.20
     54.4700	  631.00	  563.51	-1657.51	  372.25
     54.5700	  554.00	  555.47	-1726.47	  372.31
     54.6700	  615.00	  551.25	-1661.25	  372.37
     54.7700	  544.00	  549.26	-1730.26	  372.43
     54.8700	  596.00	  548.71	-1677.71	  372.48
     54.9700	  601.00	  549.23	-1673.23	  372.55
     55.0700	  569.00	  550.69	-1706.69	  372.61
     55.1700	  528.00	  553.07	-1750.07	  372.67
     55.2700	  587.00	  556.39	-1694.39	  372.73
     55.3700	  598.00	  560.86	-1687.86	  372.80
     55.4700	  592.00	  566.69	-1699.69	  372.87
     55.5700	  565.00	  574.37	-1734.37	  372.94
     55.6700	  584.00	  584.85	-1725.85	  373.01
     55.7700	  567.00	  599.98	-1757.98	  373.08
     55.8700	  638.00	  623.32	-1710.32	  373.15
     55.9700	  602.00	  661.13	-1784.13	  373.22
     56.0700	  665.00	  723.25	-1783.25	  373.30
     56.1700	  743.00	  823.17	-1805.17	  373.37
     56.2700	  916.00	  976.06	-1785.06	  373.45
     56.3700	 1124.00	 1194.16	-1795.16	  373.52
     56.4700	 1462.00	 1479.75	-1742.75	  373.60
     56.5700	 1757.00	 1817.51	-1785.51	  373.68
     56.6700	 2099.00	 2167.81	-1793.81	  373.77
     56.7700	 2340.00	 2463.93	-1848.93	  373.85
     56.8700	 2620.00	 2623.27	-1728.27	  373.93
     56.9700	 2585.00	 2588.05	-1728.05	  374.02
     57.0700	 2402.00	 2371.64	-1694.64	  374.10
     57.1700	 2038.00	 2047.79	-1734.79	  374.19
     57.2700	 1658.00	 1697.52	-1764.52	  374.28
     57.3700	 1339.00	 1378.16	-1764.16	  374.36
     57.4700	 1173.00	 1119.89	-1671.89	  374.45
     57.5700	  930.00	  930.84	-1725.84	  374.54
     57.6700	  837.00	  804.50	-1692.50	  374.64
     57.7700	  770.00	  727.54	-1682.54	  374.73
     57.8700	  704.00	  686.18	-1707.18	  374.82
     57.9700	  675.00	  669.95	-1719.95	  374.92
     58.0700	  691.00	  672.75	-1706.75	  375.01
     58.1700	  732.00	  692.10	-1685.10	  375.11
     58.2700	  717.00	  727.63	-1735.63	  375.21
     58.3700	  761.00	  779.32	-1743.32	  375.31
     58.4700	  910.00	  845.95	-1660.95	  375.41
     58.5700	  964.00	  923.56	-1684.56	  375.51
     58.6700	  997.00	 1004.81	-1732.81	  375.61
     58.7700	 1251.00	 1080.86	-1554.86	  375.71
     58.8700	 1220.00	 1145.31	-1650.31	  375.82
     58.9700	 1362.00	 1194.74	-1557.74	  375.92
     59.0700	 1411.00	 1224.75	-1538.75	  376.02
     59.1700	 1455.00	 1230.76	-1500.76	  376.13
     59.2700	 1340.00	 1214.94	-1599.94	  376.24
     59.3700	 1355.00	 1187.68	-1557.68	  376.35
     59.4700	 1284.00	 1160.53	-1601.53	  376.45
     59.5700	 1240.00	 1141.98	-1626.98	  376.56
     59.6700	 1165.00	 1140.00	-1700.00	  376.67
     59.7700	 1131.00	 1163.61	-1757.61	  376.78
     59.8700	 1250.00	 1218.32	-1693.32	  376.90
     59.9700	 1316.00	 1300.39	-1709.39	  377.01
     60.0700	 1471.00	 1394.28	-1648.28	  377.12
     60.1700	 1539.00	 1473.20	-1659.20	  377.24
     60.2700	 1570.00	 1505.24	-1660.24	  377.35
     60.3700	 1495.00	 1469.16	-1699.16	  377.47
     60.4700	 1421.00	 1369.55	-1673.55	  377.58
     60.5700	 1301.00	 1231.77	-1655.77	  377.70
     60.6700	 1048.00	 1084.43	-1761.43	  377.82
     60.7700	  896.00	  948.80	-1777.80	  377.93
     60.8700	  785.00	  837.27	-1777.27	  378.05
     60.9700	  729.00	  754.63	-1750.63	  378.17
     61.0700	  676.00	  700.53	-1749.53	  378.29
     61.1700	  672.00	  672.24	-1725.24	  378.41
     61.2700	  664.00	  667.19	-1728.19	  378.54
     61.3700	  691.00	  684.65	-1718.65	  378.66
     61.4700	  707.00	  726.01	-1744.01	  378.78
     61.5700	  777.00	  793.65	-1741.65	  378.90
     61.6700	  864.00	  888.94	-1749.94	  379.03
     61.7700	  968.00	 1009.53	-1766.53	  379.15
     61.8700	 1122.00	 1146.92	-1749.92	  379.28
     61.9700	 1161.00	 1284.90	-1848.90	  379.40
     62.0700	 1337.00	 1398.99	-1786.99	  379.53
     62.1700	 1390.00	 1460.76	-1795.76	  379.66
     62.2700	 1359.00	 1450.46	-1816.46	  379.78
     62.3700	 1303.00	 1370.94	-1792.94	  379.91
     62.4700	 1203.00	 1245.49	-1767.49	  380.04
     62.5700	 1080.00	 1102.50	-1747.50	  380.17
     62.6700	  945.00	  964.44	-1744.44	  380.30
     62.7700	  801.00	  845.30	-1769.30	  380.43
     62.8700	  677.00	  751.36	-1799.36	  380.56
     62.9700	  658.00	  682.87	-1749.87	  380.69
     63.0700	  591.00	  636.34	-1770.34	  380.82
     63.1700	  591.00	  606.68	-1740.68	  380.95
     63.2700	  581.00	  588.96	-1732.96	  381.08
     63.3700	  558.00	  579.36	-1746.36	  381.21
     63.4700	  582.00	  575.52	-1718.52	  381.35
     63.5700	  584.00	  576.49	-1717.49	  381.48
     63.6700	  568.00	  582.55	-1739.55	  381.61
     63.7700	  624.00	  594.86	-1695.86	  381.75
     63.8700	  619.00	  615.12	-1721.12	  381.88
     63.9700	  692.00	  645.07	-1678.07	  382.01
     64.0700	  681.00	  685.82	-1729.82	  382.15
     64.1700	  769.00	  737.06	-1693.06	  382.28
     64.2700	  827.00	  796.20	-1694.20	  382.42
     64.3700	  905.00	  857.93	-1677.93	  382.55
     64.4700	  948.00	  913.47	-1690.47	  382.69
     64.5700	 1025.00	  953.74	-1653.74	  382.83
     64.6700	 1035.00	  970.30	-1660.30	  382.96
     64.7700	  990.00	  960.75	-1695.75	  383.10
     64.8700	  976.00	  928.89	-1677.89	  383.23
     64.9700	  947.00	  882.17	-1660.17	  383.37
     65.0700	  837.00	  829.21	-1717.21	  383.51
     65.1700	  745.00	  777.28	-1757.28	  383.65
     65.2700	  722.00	  730.73	-1733.73	  383.78
     65.3700	  681.00	  691.14	-1735.14	  383.92
     65.4700	  607.00	  658.42	-1776.42	  384.06
     65.5700	  636.00	  631.98	-1720.98	  384.19
     65.6700	  576.00	  611.21	-1760.21	  384.33
     65.7700	  592.00	  595.42	-1728.42	  384.47
     65.8700	  570.00	  583.99	-1738.99	  384.61
     65.9700	  569.00	  575.97	-1731.97	  384.75
     66.0700	  570.00	  570.91	-1725.91	  384.88
     66.1700	  545.00	  568.29	-1748.29	  385.02
     66.2700	  552.00	  567.72	-1740.72	  385.16
     66.3700	  562.00	  568.92	-1731.92	  385.30
     66.4700	  571.00	  571.76	-1725.76	  385.44
     66.5700	  555.00	  576.34	-1746.34	  385.57
     66.6700	  539.00	  583.16	-1769.16	  385.71
     66.7700	  598.00	  593.23	-1720.23	  385.85
     66.8700	  600.00	  608.47	-1733.47	  385.99
     66.9700	  671.00	  632.04	-1686.04	  386.13
     67.0700	  665.00	  668.81	-1728.81	  386.27
     67.1700	  716.00	  725.10	-1734.10	  386.40
     67.2700	  758.00	  809.02	-1776.02	  386.54
     67.3700	  930.00	  928.35	-1723.35	  386.68
     67.4700	 1060.00	 1089.35	-1754.35	  386.82
     67.5700	 1319.00	 1293.57	-1699.57	  386.95
     67.6700	 1594.00	 1535.09	-1666.09	  387.09
     67.7700	 1854.00	 1798.07	-1669.07	  387.23
     67.8700	 2041.00	 2055.46	-1739.46	  387.37
     67.9700	 2349.00	 2269.29	-1645.29	  387.50
     68.0700	 2358.00	 2396.45	-1763.45	  387.64
     68.1700	 2447.00	 2404.86	-1682.86	  387.78
     68.2700	 2321.00	 2292.15	-1696.15	  387.91
     68.3700	 2067.00	 2087.48	-1745.48	  388.05
     68.4700	 1835.00	 1833.75	-1723.75	  388.18
     68.5700	 1497.00	 1569.96	-1797.96	  388.32
     68.6700	 1358.00	 1324.97	-1691.97	  388.46
     68.7700	 1106.00	 1115.83	-1734.83	  388.59
     68.8700	  977.00	  949.66	-1697.66	  388.73
     68.9700	  788.00	  825.75	-1762.75	  388.86
     69.0700	  749.00	  738.35	-1714.35	  389.00
     69.1700	  643.00	  679.49	-1761.49	  389.13
     69.2700	  632.00	  641.21	-1734.21	  389.26
     69.3700	  621.00	  616.77	-1720.77	  389.40
     69.4700	  603.00	  601.16	-1723.16	  389.53
     69.5700	  566.00	  591.02	-1750.02	  389.66
     69.6700	  545.00	  584.20	-1764.20	  389.80
     69.7700	  599.00	  579.52	-1705.52	  389.93
     69.8700	  569.00	  576.30	-1732.30	  390.06
     69.9700	  544.00	  574.21	-1755.21	  390.19
     70.0700	  596.00	  573.04	-1702.04	  390.32
     70.1700	  601.00	  572.78	-1696.78	  390.45
     70.2700	  596.00	  573.39	-1702.39	  390.58
     70.3700	  549.00	  575.04	-1751.04	  390.71
     70.4700	  593.00	  578.05	-1710.05	  390.84
     70.5700	  562.00	  582.96	-1745.96	  390.97
     70.6700	  564.00	  590.78	-1751.78	  391.10
     70.7700	  569.00	  603.14	-1759.14	  391.23
     70.8700	  590.00	  622.52	-1757.52	  391.35
     70.9700	  637.00	  652.40	-1740.40	  391.48
     71.0700	  675.00	  697.22	-1747.22	  391.61
     71.1700	  778.00	  761.97	-1708.97	  391.73
     71.2700	  917.00	  851.41	-1659.41	  391.86
     71.3700	  867.00	  968.81	-1826.81	  391.98
     71.4700	 1138.00	 1114.32	-1701.32	  392.10
     71.5700	 1254.00	 1284.38	-1755.38	  392.23
     71.6700	 1467.00	 1467.17	-1725.17	  392.35
     71.7700	 1601.00	 1646.94	-1770.94	  392.47
     71.8700	 1704.00	 1801.00	-1822.00	  392.60
     71.9700	 1866.00	 1903.10	-1762.10	  392.72
     72.0700	 1931.00	 1931.38	-1725.38	  392.84
     72.1700	 1870.00	 1879.06	-1734.06	  392.96
     72.2700	 1804.00	 1758.60	-1679.60	  393.08
     72.3700	 1611.00	 1594.30	-1708.30	  393.19
     72.4700	 1461.00	 1411.84	-1675.84	  393.31
     72.5700	 1318.00	 1232.09	-1639.09	  393.43
     72.6700	 1012.00	 1069.51	-1782.51	  393.55
     72.7700	  990.00	  931.71	-1666.71	  393.66
     72.8700	  928.00	  822.39	-1619.39	  393.78
     72.9700	  817.00	  739.82	-1647.82	  393.89
     73.0700	  790.00	  680.21	-1615.21	  394.00
     73.1700	  721.00	  638.74	-1642.74	  394.12
     73.2700	  661.00	  610.62	-1674.62	  394.23
     73.3700	  634.00	  591.78	-1682.78	  394.34
     73.4700	  614.00	  579.13	-1690.13	  394.45
     73.5700	  634.00	  570.50	-1661.50	  394.56
     73.6700	  600.00	  564.50	-1689.50	  394.67
     73.7700	  626.00	  560.27	-1659.27	  394.78
     73.8700	  616.00	  557.30	-1666.30	  394.88
     73.9700	  549.00	  555.29	-1731.29	  394.99
     74.0700	  593.00	  554.03	-1686.03	  395.10
     74.1700	  598.00	  553.34	-1680.34	  395.20
     74.2700	  610.00	  553.05	-1668.05	  395.31
     74.3700	  603.00	  552.97	-1674.97	  395.41
     74.4700	  631.00	  552.86	-1646.86	  395.51
     74.5700	  630.00	  552.52	-1647.52	  395.61
     74.6700	  624.00	  551.79	-1652.79	  395.71
     74.7700	  611.00	  550.63	-1664.63	  395.81
     74.8700	  642.00	  549.19	-1632.19	  395.91
     74.9700	  624.00	  547.70	-1648.70	  396.01
     75.0700	  618.00	  546.42	-1653.42	  396.11
     75.1700	  580.00	  545.60	-1690.60	  396.20
     75.2700	  558.00	  545.68	-1712.68	  396.30
     75.3700	  580.00	  546.98	-1691.98	  396.39
     75.4700	  602.00	  549.92	-1672.92	  396.48
     75.5700	  597.00	  554.99	-1682.99	  396.57
     75.6700	  576.00	  562.56	-1711.56	  396.67
     75.7700	  601.00	  573.22	-1697.22	  396.76
     75.8700	  590.00	  587.09	-1722.09	  396.84
     75.9700	  621.00	  604.06	-1708.06	  396.93
     76.0700	  648.00	  623.55	-1700.55	  397.02
     76.1700	  617.00	  644.44	-1752.44	  397.11
     76.2700	  678.00	  665.15	-1712.15	  397.19
     76.3700	  631.00	  683.38	-1777.38	  397.27
     76.4700	  704.00	  696.54	-1717.54	  397.36
     76.5700	  692.00	  702.27	-1735.27	  397.44
     76.6700	  653.00	  699.37	-1771.37	  397.52
     76.7700	  700.00	  688.40	-1713.40	  397.60
     76.8700	  672.00	  671.41	-1724.41	  397.68
     76.9700	  652.00	  650.99	-1723.99	  397.75
     77.0700	  687.00	  629.53	-1667.53	  397.83
     77.1700	  622.00	  608.73	-1711.73	  397.90
     77.2700	  569.00	  590.26	-1746.26	  397.98
     77.3700	  536.00	  574.65	-1763.65	  398.05
     77.4700	  532.00	  562.13	-1755.13	  398.12
     77.5700	  534.00	  552.55	-1743.55	  398.19
     77.6700	  537.00	  545.53	-1733.53	  398.26
     77.7700	  535.00	  540.56	-1730.56	  398.33
     77.8700	  537.00	  537.16	-1725.16	  398.40
     77.9700	  503.00	  534.88	-1756.88	  398.46
     78.0700	  468.00	  533.37	-1790.37	  398.53
     78.1700	  503.00	  532.38	-1754.38	  398.59
     78.2700	  512.00	  531.72	-1744.72	  398.65
     78.3700	  572.00	  531.29	-1684.29	  398.71
     78.4700	  468.00	  531.03	-1788.03	  398.77
     78.5700	  500.00	  530.91	-1755.91	  398.83
     78.6700	  519.00	  530.91	-1736.91	  398.89
     78.7700	  505.00	  531.05	-1751.05	  398.94
     78.8700	  530.00	  531.33	-1726.33	  399.00
     78.9700	  510.00	  531.79	-1746.79	  399.05
     79.0700	  516.00	  532.46	-1741.46	  399.10
     79.1700	  475.00	  533.38	-1783.38	  399.15
     79.2700	  523.00	  534.58	-1736.58	  399.20
     79.3700	  501.00	  536.12	-1760.12	  399.25
     79.4700	  485.00	  538.04	-1778.04	  399.30
     79.5700	  466.00	  540.20	-1799.20	  399.34
     79.6700	  511.00	  543.06	-1757.06	  399.39
     79.7700	  571.00	  546.52	-1700.52	  399.43
     79.8700	  524.00	  550.71	-1751.71	  399.47
     79.9700	  554.00	  555.79	-1726.79	  399.51
     80.0700	  562.00	  562.01	-1725.01	  399.55
     80.1700	  533.00	  569.70	-1761.70	  399.59
     80.2700	  599.00	  579.19	-1705.19	  399.63
     80.3700	  564.00	  590.83	-1751.83	  399.66
     80.4700	  570.00	  604.79	-1759.79	  399.69
     80.5700	  615.00	  620.97	-1730.97	  399.73
     80.6700	  646.00	  639.00	-1718.00	  399.76
     80.7700	  622.00	  658.08	-1761.08	  399.79
     80.8700	  707.00	  677.09	-1695.09	  399.81
     80.9700	  704.00	  694.70	-1715.70	  399.84
     81.0700	  688.00	  709.57	-1746.57	  399.87
     81.1700	  719.00	  720.63	-1726.63	  399.89
     81.2700	  721.00	  727.09	-1731.09	  399.91
     81.3700	  740.00	  728.53	-1713.53	  399.93
     81.4700	  758.00	  724.90	-1691.90	  399.95
     81.5700	  731.00	  716.56	-1710.56	  399.97
     81.6700	  774.00	  704.15	-1655.15	  399.99
     81.7700	  717.00	  688.51	-1696.51	  400.00
     81.8700	  716.00	  670.71	-1679.71	  400.02
     81.9700	  650.00	  651.97	-1726.97	  400.03
     82.0700	  698.00	  633.44	-1660.44	  400.04
     82.1700	  628.00	  616.05	-1713.05	  400.05
     82.2700	  621.00	  600.40	-1704.40	  400.05
     82.3700	  617.00	  586.81	-1694.81	  400.06
     82.4700	  566.00	  575.40	-1734.40	  400.07
     82.5700	  573.00	  566.15	-1718.15	  400.07
     82.6700	  569.00	  558.92	-1714.92	  400.07
     82.7700	  568.00	  553.71	-1710.71	  400.07
     82.8700	  592.00	  550.32	-1683.32	  400.07
     82.9700	  589.00	  548.58	-1684.58	  400.07
     83.0700	  561.00	  548.42	-1712.42	  400.06
     83.1700	  525.00	  549.67	-1749.67	  400.06
     83.2700	  540.00	  552.20	-1737.20	  400.05
     83.3700	  563.00	  555.82	-1717.82	  400.04
     83.4700	  575.00	  560.30	-1710.30	  400.03
     83.5700	  578.00	  565.30	-1712.30	  400.02
     83.6700	  577.00	  570.42	-1718.42	  400.01
     83.7700	  569.00	  575.14	-1731.14	  399.99
     83.8700	  547.00	  578.93	-1756.93	  399.97
     83.9700	  585.00	  581.23	-1721.23	  399.96
     84.0700	  579.00	  581.63	-1727.63	  399.94
     84.1700	  560.00	  580.03	-1745.03	  399.92
     84.2700	  533.00	  576.64	-1768.64	  399.89
     84.3700	  565.00	  571.93	-1731.93	  399.87
     84.4700	  538.00	  566.43	-1753.43	  399.84
     84.5700	  494.00	  560.63	-1791.63	  399.82
     84.6700	  531.00	  554.96	-1748.96	  399.79
     84.7700	  571.00	  549.73	-1703.73	  399.76
     84.8700	  553.00	  545.14	-1717.14	  399.73
     84.9700	  554.00	  541.30	-1712.30	  399.69
     85.0700	  551.00	  538.23	-1712.23	  399.66
     85.1700	  523.00	  535.88	-1737.88	  399.62
     85.2700	  516.00	  534.18	-1743.18	  399.58
     85.3700	  502.00	  533.04	-1756.04	  399.54
     85.4700	  544.00	  532.38	-1713.38	  399.50
     85.5700	  564.00	  532.11	-1693.11	  399.46
     85.6700	  535.00	  532.21	-1722.21	  399.41
     85.7700	  498.00	  532.67	-1759.67	  399.37
     85.8700	  536.00	  533.54	-1722.54	  399.32
     85.9700	  528.00	  534.89	-1731.89	  399.27
     86.0700	  544.00	  536.84	-1717.84	  399.22
     86.1700	  522.00	  539.54	-1742.54	  399.17
     86.2700	  551.00	  543.16	-1717.17	  399.11
     86.3700	  536.00	  547.89	-1736.89	  399.06
     86.4700	  533.00	  553.85	-1745.85	  399.00
     86.5700	  558.00	  561.16	-1728.16	  398.94
     86.6700	  559.00	  569.79	-1735.79	  398.88
     86.7700	  561.00	  579.63	-1743.63	  398.82
     86.8700	  579.00	  590.39	-1736.39	  398.75
     86.9700	  617.00	  601.59	-1709.59	  398.69
     87.0700	  617.00	  612.61	-1720.61	  398.62
     87.1700	  627.00	  622.63	-1720.63	  398.55
     87.2700	  649.00	  630.75	-1706.75	  398.48
     87.3700	  658.00	  635.70	-1702.70	  398.41
     87.4700	  640.00	  637.56	-1722.56	  398.34
     87.5700	  662.00	  635.74	-1698.74	  398.26
     87.6700	  620.00	  630.57	-1735.57	  398.19
     87.7700	  630.00	  622.79	-1717.79	  398.11
     87.8700	  593.00	  613.35	-1745.35	  398.03
     87.9700	  580.00	  603.24	-1748.24	  397.95
     88.0700	  642.00	  593.31	-1676.31	  397.86
     88.1700	  631.00	  584.29	-1678.29	  397.78
     88.2700	  602.00	  576.71	-1699.71	  397.69
     88.3700	  607.00	  570.95	-1688.95	  397.61
     88.4700	  587.00	  567.19	-1705.19	  397.52
     88.5700	  590.00	  565.45	-1700.45	  397.42
     88.6700	  581.00	  565.60	-1709.60	  397.33
     88.7700	  571.00	  567.37	-1721.37	  397.24
     88.8700	  588.00	  570.40	-1707.40	  397.14
     88.9700	  591.00	  574.23	-1708.23	  397.05
     89.0700	  603.00	  578.36	-1700.36	  396.95
     89.1700	  623.00	  582.22	-1684.22	  396.85
     89.2700	  613.00	  585.27	-1697.27	  396.74
     89.3700	  611.00	  587.01	-1701.01	  396.64
     89.4700	  567.00	  587.09	-1745.09	  396.54
     89.5700	  580.00	  585.43	-1730.43	  396.43
     89.6700	  526.00	  582.20	-1781.20	  396.32
     89.7700	  578.00	  577.74	-1724.74	  396.21
     89.8700	  547.00	  572.49	-1750.49	  396.10
     89.9700	  520.00	  566.87	-1771.87	  395.99
     90.0700	  558.00	  561.25	-1728.25	  395.87
     90.1700	  528.00	  555.93	-1752.93	  395.76
     90.2700	  546.00	  551.11	-1730.11	  395.64
     90.3700	  496.00	  546.93	-1775.93	  395.52
     90.4700	  493.00	  543.46	-1775.46	  395.40
     90.5700	  499.00	  540.71	-1766.71	  395.28
     90.6700	  529.00	  538.63	-1734.63	  395.15
     90.7700	  503.00	  537.17	-1759.17	  395.03
     90.8700	  565.00	  536.25	-1696.25	  394.90
     90.9700	  491.00	  535.81	-1769.81	  394.77
     91.0700	  532.00	  535.81	-1728.81	  394.64
     91.1700	  503.00	  536.22	-1758.22	  394.51
     91.2700	  502.00	  537.07	-1760.07	  394.38
     91.3700	  513.00	  538.39	-1750.39	  394.24
     91.4700	  531.00	  540.30	-1734.30	  394.11
     91.5700	  538.00	  542.92	-1729.92	  393.97
     91.6700	  517.00	  546.43	-1754.43	  393.83
     91.7700	  554.00	  551.01	-1722.01	  393.69
     91.8700	  574.00	  556.88	-1707.88	  393.55
     91.9700	  562.00	  564.25	-1727.25	  393.40
     92.0700	  564.00	  573.29	-1734.29	  393.26
     92.1700	  535.00	  584.14	-1774.14	  393.11
     92.2700	  580.00	  596.84	-1741.84	  392.97
     92.3700	  594.00	  611.34	-1742.34	  392.82
     92.4700	  609.00	  627.45	-1743.45	  392.67
     92.5700	  632.00	  644.59	-1737.58	  392.51
     92.6700	  643.00	  662.80	-1744.80	  392.36
     92.7700	  679.00	  681.22	-1727.22	  392.21
     92.8700	  730.00	  699.11	-1694.11	  392.05
     92.9700	  685.00	  715.68	-1755.68	  391.89
     93.0700	  766.00	  730.28	-1689.28	  391.73
     93.1700	  793.00	  742.53	-1674.53	  391.57
     93.2700	  761.00	  752.44	-1716.44	  391.41
     93.3700	  758.00	  760.39	-1727.39	  391.25
     93.4700	  780.00	  766.98	-1711.98	  391.08
     93.5700	  838.00	  772.85	-1659.85	  390.92
     93.6700	  862.00	  778.58	-1641.58	  390.75
     93.7700	  766.00	  784.70	-1743.70	  390.58
     93.8700	  838.00	  791.73	-1678.73	  390.41
     93.9700	  836.00	  800.21	-1689.21	  390.24
     94.0700	  848.00	  810.58	-1687.58	  390.06
     94.1700	  841.00	  823.11	-1707.11	  389.89
     94.2700	  905.00	  837.68	-1657.68	  389.72
     94.3700	  872.00	  853.73	-1706.73	  389.54
     94.4700	  902.00	  870.23	-1693.23	  389.36
     94.5700	  891.00	  885.76	-1719.76	  389.18
     94.6700	  948.00	  898.57	-1675.57	  389.00
     94.7700	  895.00	  906.80	-1736.80	  388.82
     94.8700	  900.00	  908.87	-1733.87	  388.64
     94.9700	  894.00	  903.78	-1734.78	  388.45
     95.0700	  907.00	  891.50	-1709.50	  388.27
     95.1700	  874.00	  872.89	-1723.89	  388.08
     95.2700	  832.00	  849.53	-1742.53	  387.89
     95.3700	  830.00	  823.35	-1718.35	  387.70
     95.4700	  794.00	  796.38	-1727.38	  387.51
     95.5700	  770.00	  770.54	-1725.54	  387.32
     95.6700	  761.00	  747.63	-1711.63	  387.13
     95.7700	  741.00	  729.27	-1713.27	  386.93
     95.8700	  720.00	  716.90	-1721.90	  386.74
     95.9700	  680.00	  711.75	-1756.75	  386.54
     96.0700	  712.00	  714.87	-1727.87	  386.35
     96.1700	  680.00	  727.11	-1772.11	  386.15
     96.2700	  753.00	  749.09	-1721.09	  385.95
     96.3700	  809.00	  781.14	-1697.14	  385.75
     96.4700	  782.00	  823.26	-1766.26	  385.54
     96.5700	  841.00	  875.05	-1759.05	  385.34
     96.6700	  925.00	  935.58	-1735.58	  385.14
     96.7700	 1061.00	 1003.40	-1667.40	  384.93
     96.8700	 1033.00	 1076.40	-1768.40	  384.73
     96.9700	 1139.00	 1151.85	-1737.85	  384.52
     97.0700	 1234.00	 1226.35	-1717.35	  384.31
     97.1700	 1320.00	 1295.98	-1700.98	  384.10
     97.2700	 1421.00	 1356.44	-1660.44	  383.89
     97.3700	 1355.00	 1403.37	-1773.37	  383.68
     97.4700	 1409.00	 1433.02	-1749.02	  383.47
     97.5700	 1341.00	 1442.96	-1826.96	  383.26
     97.6700	 1344.00	 1432.66	-1813.66	  383.05
     97.7700	 1400.00	 1403.58	-1728.58	  382.83
     97.8700	 1337.00	 1358.73	-1746.73	  382.62
     97.9700	 1304.00	 1302.05	-1723.05	  382.40
     98.0700	 1194.00	 1237.74	-1768.74	  382.18
     98.1700	 1196.00	 1169.83	-1698.83	  381.96
     98.2700	 1117.00	 1102.01	-1710.01	  381.74
     98.3700	  976.00	 1037.53	-1786.53	  381.53
     98.4700	 1045.00	  979.15	-1659.15	  381.30
     98.5700	  907.00	  929.12	-1747.12	  381.08
     98.6700	  810.00	  889.22	-1804.22	  380.86
     98.7700	  802.00	  860.91	-1783.91	  380.64
     98.8700	  845.00	  845.19	-1725.19	  380.42
     98.9700	  805.00	  842.82	-1762.82	  380.19
     99.0700	  868.00	  854.27	-1711.27	  379.97
     99.1700	  899.00	  879.79	-1705.79	  379.74
     99.2700	  938.00	  919.40	-1706.40	  379.51
     99.3700	  977.00	  972.88	-1720.88	  379.29
     99.4700	 1034.00	 1039.66	-1730.66	  379.06
     99.5700	 1123.00	 1118.81	-1720.81	  378.83
     99.6700	 1210.00	 1208.88	-1723.88	  378.60
     99.7700	 1273.00	 1307.85	-1759.85	  378.37
     99.8700	 1350.00	 1413.08	-1788.08	  378.14
     99.9700	 1511.00	 1521.22	-1735.22	  377.91
    100.0700	 1621.00	 1628.31	-1732.31	  377.68
    100.1700	 1821.00	 1729.99	-1633.99	  377.45
    100.2700	 1807.00	 1821.86	-1739.86	  377.22
    100.3700	 1959.00	 1899.96	-1665.96	  376.98
    100.4700	 2016.00	 1961.15	-1670.15	  376.75
    100.5700	 2045.00	 2003.26	-1683.26	  376.52
    100.6700	 2033.00	 2024.98	-1716.98	  376.28
    100.7700	 1970.00	 2025.68	-1780.68	  376.05
    100.8700	 1968.00	 2005.32	-1762.32	  375.81
    100.9700	 1935.00	 1964.85	-1754.85	  375.58
    101.0700	 1945.00	 1906.39	-1686.39	  375.34
    101.1700	 1807.00	 1833.38	-1751.38	  375.11
    101.2700	 1741.00	 1750.30	-1734.30	  374.87
    101.3700	 1691.00	 1662.04	-1696.04	  374.63
    101.4700	 1615.00	 1573.34	-1683.34	  374.40
    101.5700	 1484.00	 1488.33	-1729.33	  374.16
    101.6700	 1385.00	 1410.21	-1750.21	  373.92
    101.7700	 1354.00	 1341.20	-1712.20	  373.69
    101.8700	 1320.00	 1282.56	-1687.56	  373.45
    101.9700	 1228.00	 1234.54	-1731.54	  373.21
    102.0700	 1210.00	 1196.54	-1711.54	  372.97
    102.1700	 1193.00	 1167.17	-1699.17	  372.74
    102.2700	 1127.00	 1144.42	-1742.42	  372.50
    102.3700	 1124.00	 1125.86	-1726.86	  372.26
    102.4700	 1113.00	 1108.89	-1720.89	  372.02
    102.5700	 1083.00	 1091.04	-1733.04	  371.78
    102.6700	 1058.00	 1070.31	-1737.31	  371.54
    102.7700	 1030.00	 1045.44	-1740.44	  371.31
    102.8700	 1007.00	 1016.03	-1734.03	  371.07
    102.9700	  990.00	  982.39	-1717.39	  370.83
    103.0700	  965.00	  945.39	-1705.39	  370.59
    103.1700	  894.00	  906.16	-1737.16	  370.35
    103.2700	  879.00	  865.92	-1711.92	  370.12
    103.3700	  783.00	  825.85	-1767.85	  369.88
    103.4700	  776.00	  787.02	-1736.02	  369.64
    103.5700	  744.00	  750.30	-1731.30	  369.40
    103.6700	  734.00	  716.39	-1707.39	  369.17
    103.7700	  739.00	  685.79	-1671.79	  368.93
    103.8700	  678.00	  658.78	-1705.78	  368.69
    103.9700	  621.00	  635.44	-1739.44	  368.46
    104.0700	  610.00	  615.72	-1730.72	  368.22
    104.1700	  591.00	  599.40	-1733.40	  367.98
    104.2700	  584.00	  586.21	-1727.21	  367.75
    104.3700	  553.00	  575.79	-1747.79	  367.51
    104.4700	  588.00	  567.77	-1704.77	  367.28
    104.5700	  575.00	  561.80	-1711.80	  367.05
    104.6700	  542.00	  557.52	-1740.52	  366.81
    104.7700	  520.00	  554.61	-1759.61	  366.58
    104.8700	  553.00	  552.84	-1724.84	  366.35
    104.9700	  507.00	  551.97	-1769.97	  366.11
    105.0700	  524.00	  551.84	-1752.84	  365.88
    105.1700	  524.00	  552.31	-1753.31	  365.65
    105.2700	  548.00	  553.28	-1730.28	  365.42
    105.3700	  535.00	  554.73	-1744.73	  365.19
    105.4700	  575.00	  556.65	-1706.65	  364.96
    105.5700	  572.00	  559.06	-1712.06	  364.74
    105.6700	  540.00	  562.04	-1747.04	  364.51
    105.7700	  603.00	  565.67	-1687.67	  364.28
    105.8700	  573.00	  570.04	-1722.04	  364.06
    105.9700	  563.00	  575.24	-1737.24	  363.83
    106.0700	  590.00	  581.34	-1716.34	  363.61
    106.1700	  573.00	  588.34	-1740.34	  363.39
    106.2700	  588.00	  596.21	-1733.21	  363.16
    106.3700	  605.00	  604.87	-1724.87	  362.94
    106.4700	  609.00	  614.17	-1730.17	  362.72
    106.5700	  606.00	  623.91	-1742.91	  362.50
    106.6700	  643.00	  633.83	-1715.83	  362.29
    106.7700	  607.00	  643.63	-1761.63	  362.07
    106.8700	  654.00	  652.97	-1723.97	  361.85
    106.9700	  653.00	  661.49	-1733.49	  361.64
    107.0700	  673.00	  668.88	-1720.88	  361.42
    107.1700	  674.00	  674.85	-1725.85	  361.21
    107.2700	  647.00	  679.26	-1757.26	  361.00
    107.3700	  665.00	  682.09	-1742.09	  360.79
    107.4700	  700.00	  683.49	-1708.49	  360.58
    107.5700	  694.00	  683.76	-1714.76	  360.37
    107.6700	  679.00	  683.25	-1729.25	  360.17
    107.7700	  712.00	  682.35	-1695.35	  359.96
    107.8700	  703.00	  681.43	-1703.43	  359.76
    107.9700	  710.00	  680.78	-1695.78	  359.56
    108.0700	  694.00	  680.59	-1711.59	  359.36
    108.1700	  699.00	  680.99	-1706.99	  359.16
    108.2700	  716.00	  681.94	-1690.94	  358.96
    108.3700	  713.00	  683.35	-1695.35	  358.77
    108.4700	  720.00	  684.98	-1689.98	  358.58
    108.5700	  676.00	  686.54	-1735.54	  358.38
    108.6700	  714.00	  687.66	-1698.66	  358.19
    108.7700	  676.00	  687.95	-1736.95	  358.00
    108.8700	  720.00	  687.03	-1692.03	  357.82
    108.9700	  661.00	  684.60	-1748.60	  357.63
    109.0700	  667.00	  680.48	-1738.48	  357.45
    109.1700	  602.00	  674.69	-1797.69	  357.27
    109.2700	  695.00	  667.32	-1697.32	  357.09
    109.3700	  680.00	  658.62	-1703.62	  356.91
    109.4700	  639.00	  648.90	-1734.90	  356.74
    109.5700	  614.00	  638.49	-1749.49	  356.56
    109.6700	  648.00	  627.72	-1704.72	  356.39
    109.7700	  632.00	  616.93	-1709.93	  356.22
    109.8700	  632.00	  606.38	-1699.38	  356.05
    109.9700	  622.00	  596.33	-1699.33	  355.89
    110.0700	  597.00	  586.95	-1714.95	  355.73
    110.1700	  610.00	  578.41	-1693.41	  355.57
    110.2700	  562.00	  570.80	-1733.80	  355.41
    110.3700	  559.00	  564.19	-1730.19	  355.25
    110.4700	  572.00	  558.57	-1711.57	  355.10
    110.5700	  560.00	  553.94	-1718.94	  354.95
    110.6700	  527.00	  550.25	-1748.25	  354.80
    110.7700	  522.00	  547.44	-1750.44	  354.65
    110.8700	  567.00	  545.42	-1703.42	  354.51
    110.9700	  533.00	  544.10	-1736.10	  354.37
    111.0700	  563.00	  543.42	-1705.42	  354.23
    111.1700	  578.00	  543.27	-1690.27	  354.09
    111.2700	  572.00	  543.59	-1696.59	  353.96
    111.3700	  503.00	  544.31	-1766.31	  353.83
    111.4700	  529.00	  545.38	-1741.38	  353.70
    111.5700	  556.00	  546.75	-1715.75	  353.58
    111.6700	  567.00	  548.38	-1706.38	  353.45
    111.7700	  550.00	  550.24	-1725.24	  353.33
    111.8700	  523.00	  552.33	-1754.33	  353.22
    111.9700	  508.00	  554.63	-1771.63	  353.10
    112.0700	  545.00	  557.14	-1737.14	  352.99
    112.1700	  524.00	  559.87	-1760.87	  352.89
    112.2700	  585.00	  562.85	-1702.85	  352.78
    112.3700	  520.00	  566.08	-1771.08	  352.68
    112.4700	  562.00	  569.62	-1732.62	  352.58
    112.5700	  662.00	  573.51	-1636.51	  352.49
    112.6700	  558.00	  577.80	-1744.80	  352.40
    112.7700	  575.00	  582.59	-1732.59	  352.31
    112.8700	  592.00	  587.96	-1720.96	  352.22
    112.9700	  601.00	  594.06	-1718.06	  352.14
    113.0700	  581.00	  601.06	-1745.06	  352.07
    113.1700	  667.00	  609.20	-1667.20	  351.99
    113.2700	  612.00	  618.76	-1731.76	  351.92
    113.3700	  669.00	  630.12	-1686.12	  351.85
    113.4700	  700.00	  643.77	-1668.77	  351.79
    113.5700	  750.00	  660.32	-1635.32	  351.73
    113.6700	  771.00	  680.49	-1634.49	  351.67
    113.7700	  756.00	  705.23	-1674.23	  351.62
    113.8700	  815.00	  735.63	-1645.63	  351.57
    113.9700	  857.00	  772.99	-1640.99	  351.53
    114.0700	  867.00	  818.86	-1676.86	  351.49
    114.1700	  912.00	  874.97	-1687.97	  351.45
    114.2700	 1011.00	  943.28	-1657.28	  351.42
    114.3700	 1133.00	 1025.91	-1617.91	  351.39
    114.4700	 1207.00	 1125.13	-1643.13	  351.36
    114.5700	 1374.00	 1243.26	-1594.26	  351.34
    114.6700	 1481.00	 1382.59	-1626.59	  351.32
    114.7700	 1631.00	 1545.30	-1639.30	  351.31
    114.8700	 1834.00	 1733.33	-1624.33	  351.30
    114.9700	 2071.00	 1948.15	-1602.15	  351.30
    115.0700	 2203.00	 2190.67	-1712.67	  351.30
    115.1700	 2558.00	 2461.07	-1628.07	  351.31
    115.2700	 2801.00	 2758.70	-1682.70	  351.32
    115.3700	 3202.00	 3081.92	-1604.92	  351.33
    115.4700	 3277.00	 3427.90	-1875.90	  351.35
    115.5700	 3749.00	 3792.66	-1768.66	  351.37
    115.6700	 4057.00	 4170.93	-1838.93	  351.40
    115.7700	 4425.00	 4556.33	-1856.33	  351.43
    115.8700	 4737.00	 4941.32	-1929.32	  351.47
    115.9700	 5118.00	 5317.10	-1924.10	  351.51
    116.0700	 5571.00	 5674.02	-1828.02	  351.56
    116.1700	 5844.00	 6001.66	-1882.66	  351.61
    116.2700	 6346.00	 6289.40	-1668.40	  351.67
    116.3700	 6431.00	 6526.81	-1820.81	  351.73
    116.4700	 6632.00	 6704.36	-1797.36	  351.80
    116.5700	 6716.00	 6814.44	-1823.44	  351.87
    116.6700	 6886.00	 6852.13	-1691.13	  351.95
    116.7700	 6900.00	 6815.92	-1640.92	  352.03
    116.8700	 6827.00	 6707.78	-1605.78	  352.12
    116.9700	 6476.00	 6533.01	-1782.01	  352.22
    117.0700	 6458.00	 6299.48	-1566.48	  352.32
    117.1700	 5931.00	 6016.85	-1810.85	  352.42
    117.2700	 5565.00	 5695.50	-1855.50	  352.53
    117.3700	 5218.00	 5345.96	-1852.96	  352.65
    117.4700	 4906.00	 4978.42	-1797.42	  352.77
    117.5700	 4630.00	 4602.29	-1697.29	  352.90
    117.6700	 4337.00	 4226.04	-1614.04	  353.03
    117.7700	 3924.00	 3856.89	-1657.89	  353.17
    117.8700	 3595.00	 3500.88	-1630.88	  353.31
    117.9700	 3322.00	 3162.95	-1565.95	  353.46
    118.0700	 2980.00	 2846.76	-1591.76	  353.62
    118.1700	 2599.00	 2554.92	-1680.92	  353.78
    118.2700	 2284.00	 2288.88	-1729.88	  353.95
    118.3700	 2073.00	 2049.17	-1701.17	  354.13
    118.4700	 1869.00	 1835.63	-1691.63	  354.31
    118.5700	 1585.00	 1647.41	-1787.41	  354.49
    118.6700	 1398.00	 1483.14	-1810.14	  354.69
    118.7700	 1362.00	 1341.07	-1704.07	  354.89
    118.8700	 1205.00	 1219.19	-1739.19	  355.09
    118.9700	 1004.00	 1115.44	-1836.44	  355.31
    119.0700	 1009.00	 1027.67	-1743.67	  355.53
    119.1700	  893.00	  953.84	-1785.84	  355.75
    119.2700	  843.00	  891.99	-1773.99	  355.99
    119.3700	  829.00	  840.34	-1736.34	  356.23
    119.4700	  809.00	  797.30	-1713.30	  356.47
    119.5700	  803.00	  761.46	-1683.46	  356.73
    119.6700	  761.00	  731.63	-1695.63	  356.99
    119.7700	  678.00	  706.78	-1753.78	  357.25
    119.8700	  638.00	  686.04	-1773.04	  357.53
    119.9700	  599.00	  668.71	-1794.71	  357.81
    120.0700	  627.00	  654.20	-1752.20	  358.10
    120.1700	  623.00	  642.05	-1744.05	  358.39
    120.2700	  579.00	  631.88	-1777.88	  358.70
    120.3700	  556.00	  623.37	-1792.37	  359.01
    120.4700	  638.00	  616.30	-1703.30	  359.33
    120.5700	  564.00	  610.46	-1771.46	  359.65
    120.6700	  574.00	  605.70	-1756.70	  359.98
    120.7700	  589.00	  601.91	-1737.91	  360.33
    120.8700	  581.00	  598.99	-1742.99	  360.67
    120.9700	  572.00	  596.85	-1749.85	  361.03
    121.0700	  557.00	  595.44	-1763.44	  361.39
    121.1700	  579.00	  594.71	-1740.71	  361.77
    121.2700	  588.00	  594.60	-1731.60	  362.15
    121.3700	  592.00	  595.06	-1728.06	  362.53
    121.4700	  575.00	  596.05	-1746.05	  362.93
    121.5700	  549.00	  597.52	-1773.52	  363.33
    121.6700	  549.00	  599.41	-1775.41	  363.75
    121.7700	  588.00	  601.66	-1738.66	  364.17
    121.8700	  564.00	  604.21	-1765.21	  364.60
    121.9700	  568.00	  606.99	-1763.99	  365.03
    122.0700	  655.00	  609.92	-1679.92	  365.48
    122.1700	  610.00	  612.91	-1727.91	  365.93
    122.2700	  640.00	  615.88	-1700.88	  366.40
    122.3700	  652.00	  618.71	-1691.71	  366.87
    122.4700	  656.00	  621.34	-1690.34	  367.35
    122.5700	  621.00	  623.68	-1727.68	  367.84
    122.6700	  645.00	  625.63	-1705.63	  368.34
    122.7700	  604.00	  627.13	-1748.13	  368.85
    122.8700	  669.00	  628.13	-1684.13	  369.36
    122.9700	  631.00	  628.60	-1722.60	  369.89
    123.0700	  666.00	  628.54	-1687.54	  370.42
    123.1700	  643.00	  627.95	-1709.95	  370.97
    123.2700	  662.00	  626.87	-1689.87	  371.52
    123.3700	  655.00	  625.36	-1695.36	  372.08
    123.4700	  655.00	  623.45	-1693.45	  372.65
    123.5700	  621.00	  621.25	-1725.25	  373.24
    123.6700	  625.00	  618.79	-1718.79	  373.83
    123.7700	  630.00	  616.14	-1711.14	  374.43
    123.8700	  665.00	  613.38	-1673.38	  375.04
    123.9700	  600.00	  610.55	-1735.55	  375.66
    124.0700	  650.00	  607.72	-1682.72	  376.29
    124.1700	  618.00	  604.93	-1711.93	  376.93
    124.2700	  598.00	  602.23	-1729.23	  377.58
    124.3700	  610.00	  599.64	-1714.64	  378.24
    124.4700	  590.00	  597.21	-1732.21	  378.91
    124.5700	  594.00	  594.95	-1725.95	  379.59
    124.6700	  592.00	  592.87	-1725.88	  380.29
    124.7700	  563.00	  591.01	-1753.01	  380.99
    124.8700	  598.00	  589.37	-1716.37	  381.70
    124.9700	  591.00	  499.52	-1633.52	  382.42
    125.0700	  587.00	  500.26	-1725.00	  383.16
    125.1700	  619.00	  501.00	-1725.00	  383.90
    125.2700	  569.00	  501.76	-1725.00	  384.66
    125.3700	  569.00	  502.52	-1725.00	  385.42
    125.4700	  577.00	  503.30	-1725.00	  386.20
    125.5700	  583.00	  504.09	-1725.00	  386.99
    125.6700	  538.00	  504.89	-1725.00	  387.79
    125.7700	  584.00	  505.70	-1725.00	  388.60
    125.8700	  576.00	  506.52	-1725.00	  389.42
    125.9700	  614.00	  507.35	-1725.00	  390.25
    126.0700	  579.00	  508.20	-1725.00	  391.10
    126.1700	  609.00	  509.05	-1725.00	  391.95
    126.2700	  588.00	  509.92	-1725.00	  392.82
    126.3700	  574.00	  510.80	-1725.00	  393.70
    126.4700	  578.00	  511.69	-1725.00	  394.59
    126.5700	  582.00	  512.60	-1725.00	  395.50
    126.6700	  612.00	  513.51	-1725.00	  396.41
    126.7700	  643.00	  514.44	-1725.00	  397.34
    126.8700	  600.00	  515.38	-1725.00	  398.28
    126.9700	  648.00	  516.33	-1725.00	  399.23
    127.0700	  676.00	  517.29	-1725.00	  400.19
    127.1700	  643.00	  518.27	-1725.00	  401.17
    127.2700	  657.00	  519.26	-1725.00	  402.16
    127.3700	  732.00	  520.26	-1725.00	  403.16
    127.4700	  717.00	  521.27	-1725.00	  404.17
    127.5700	  693.00	  522.30	-1725.00	  405.20
    127.6700	  672.00	  523.34	-1725.00	  406.24
    127.7700	  665.00	  524.39	-1725.00	  407.29
    127.8700	  715.00	  525.45	-1725.00	  408.35
    127.9700	  716.00	  526.53	-1725.00	  409.43
    128.0700	  797.00	  527.62	-1725.00	  410.52
    128.1700	  748.00	  528.73	-1725.00	  411.63
    128.2700	  774.00	  529.84	-1725.00	  412.74
    128.3700	  833.00	  530.97	-1725.00	  413.87
    128.4700	  788.00	  532.12	-1725.00	  415.02
    128.5700	    0.00	  533.28	-1725.00	  416.18
    128.6700	    0.00	  534.45	-1725.00	  417.35
     12.3060	        	        	        	        	       0	(  0  0  2)	  0  1
     24.8824	        	        	        	        	       0	(  0  0  4)	  0  1
     28.3383	        	        	        	        	       0	(  1  0  0)	  0  1
     29.0348	        	        	        	        	       0	(  1  0  1)	  0  1
     31.0389	        	        	        	        	       0	(  1  0  2)	  0  1
     34.1443	        	        	        	        	       0	(  1  0  3)	  0  1
     37.7743	        	        	        	        	       0	(  0  0  6)	  0  1
     38.1179	        	        	        	        	       0	(  1  0  4)	  0  1
     42.7640	        	        	        	        	       0	(  1  0  5)	  0  1
     47.9438	        	        	        	        	       0	(  1  0  6)	  0  1
     50.2759	        	        	        	        	       0	(  1  1  0)	  0  1
     51.1875	        	        	        	        	       0	(  0  0  8)	  0  1
     51.9971	        	        	        	        	       0	(  1  1  2)	  0  1
     53.5698	        	        	        	        	       0	(  1  0  7)	  0  1
     56.9399	        	        	        	        	       0	(  1  1  4)	  0  1
     58.7732	        	        	        	        	       0	(  2  0  0)	  0  1
     59.1644	        	        	        	        	       0	(  2  0  1)	  0  1
     59.5953	        	        	        	        	       0	(  1  0  8)	  0  1
     60.3285	        	        	        	        	       0	(  2  0  2)	  0  1
     62.2397	        	        	        	        	       0	(  2  0  3)	  0  1
     64.6271	        	        	        	        	       0	(  1  1  6)	  0  1
     64.8611	        	        	        	        	       0	(  2  0  4)	  0  1
     65.4063	        	        	        	        	       0	(  0  0 10)	  0  1
     66.0063	        	        	        	        	       0	(  1  0  9)	  0  1
     68.1520	        	        	        	        	       0	(  2  0  5)	  0  1
     72.0756	        	        	        	        	       0	(  2  0  6)	  0  1
     72.8165	        	        	        	        	       0	(  1  0 10)	  0  1
     74.6552	        	        	        	        	       0	(  1  1  8)	  0  1
     76.6051	        	        	        	        	       0	(  2  0  7)	  0  1
     80.0674	        	        	        	        	       0	(  1  0 11)	  0  1
     80.8733	        	        	        	        	       0	(  0  0 12)	  0  1
     81.0154	        	        	        	        	       0	(  2  1  0)	  0  1
     81.3549	        	        	        	        	       0	(  2  1  1)	  0  1
     81.7302	        	        	        	        	       0	(  2  0  8)	  0  1
     82.3717	        	        	        	        	       0	(  2  1  2)	  0  1
     84.0611	        	        	        	        	       0	(  2  1  3)	  0  1
     86.4183	        	        	        	        	       0	(  2  1  4)	  0  1
     86.9142	        	        	        	        	       0	(  1  1 10)	  0  1
     87.4622	        	        	        	        	       0	(  2  0  9)	  0  1
     87.8338	        	        	        	        	       0	(  1  0 12)	  0  1
     89.4408	        	        	        	        	       0	(  2  1  5)	  0  1
     93.1343	        	        	        	        	       0	(  2  1  6)	  0  1
     93.8426	        	        	        	        	       0	(  2  0 10)	  0  1
     94.9050	        	        	        	        	       0	(  3  0  0)	  0  1
     95.2420	        	        	        	        	       0	(  3  0  1)	  0  1
     96.2374	        	        	        	        	       0	(  1  0 13)	  0  1
     96.2542	        	        	        	        	       0	(  3  0  2)	  0  1
     97.5180	        	        	        	        	       0	(  2  1  7)	  0  1
     97.9457	        	        	        	        	       0	(  3  0  3)	  0  1
     98.3931	        	        	        	        	       0	(  0  0 14)	  0  1
    100.3261	        	        	        	        	       0	(  3  0  4)	  0  1
    100.9560	        	        	        	        	       0	(  2  0 11)	  0  1
    101.7673	        	        	        	        	       0	(  1  1 12)	  0  1
    102.6346	        	        	        	        	       0	(  2  1  8)	  0  1
    103.4143	        	        	        	        	       0	(  3  0  5)	  0  1
    105.4777	        	        	        	        	       0	(  1  0 14)	  0  1
    107.2451	        	        	        	        	       0	(  3  0  6)	  0  1
    108.5642	        	        	        	        	       0	(  2  1  9)	  0  1
    108.9567	        	        	        	        	       0	(  2  0 12)	  0  1
    111.8800	        	        	        	        	       0	(  3  0  7)	  0  1
    115.4520	        	        	        	        	       0	(  2  1 10)	  0  1
    115.9041	        	        	        	        	       0	(  1  0 15)	  0  1
    116.6320	        	        	        	        	       0	(  2  2  0)	  0  1
    117.4265	        	        	        	        	       0	(  3  0  8)	  0  1
    118.1268	        	        	        	        	       0	(  2  0 13)	  0  1
    118.1456	        	        	        	        	       0	(  2  2  2)	  0  1
    119.8458	        	        	        	        	       0	(  0  0 16)	  0  1
    120.5822	        	        	        	        	       0	(  1  1 14)	  0  1
    122.8261	        	        	        	        	       0	(  2  2  4)	  0  1
    123.5667	        	        	        	        	       0	(  2  1 11)	  0  1
    124.0774	        	        	        	        	       0	(  3  0  9)	  0  1
    124.6984	        	        	        	        	       0	(  3  1  0)	  0  1
    125.1082	        	        	        	        	       0	(  3  1  1)	  0  1
    126.3504	        	        	        	        	       0	(  3  1  2)	  0  1
    128.2203	        	        	        	        	       0	(  1  0 16)	  0  1
    128.4665	        	        	        	        	       0	(  3  1  3)	  0  1
    129.0352	        	        	        	        	       0	(  2  0 14)	  0  1
    131.2562	        	        	        	        	       0	(  2  2  6)	  0  1
    131.5391	        	        	        	        	       0	(  3  1  4)	  0  1
    132.2053	        	        	        	        	       0	(  3  0 10)	  0  1
    133.4606	        	        	        	        	       0	(  2  1 12)	  0  1
    135.7215	        	        	        	        	       0	(  3  1  5)	  0  1
    141.3102	        	        	        	        	       0	(  3  1  6)	  0  1
    142.6628	        	        	        	        	       0	(  3  0 11)	  0  1
    143.1336	        	        	        	        	       0	(  2  0 15)	  0  1
    144.3322	        	        	        	        	       0	(  1  0 17)	  0  1
    145.4698	        	        	        	        	       0	(  2  2  8)	  0  1
    146.5807	        	        	        	        	       0	(  2  1 13)	  0  1
    148.9725	        	        	        	        	       0	(  3  1  7)	  0  1
    149.4251	        	        	        	        	       0	(  1  1 16)	  0  1
    153.7501	        	        	        	        	       0	(  0  0 18)	  0  1
    158.4828	        	        	        	        	       0	(  3  0 12)	  0  1
    158.8710	        	        	        	        	       0	(  4  0  0)	  0  1
    159.8280	        	        	        	        	       0	(  4  0  1)	  0  1
    160.9407	        	        	        	        	       0	(  3  1  8)	  0  1
    163.0080	        	        	        	        	       0	(  4  0  2)	  0  1
    169.2630	        	        	        	        	       0	(  2  0 16)	  0  1
    170.3659	        	        	        	        	       0	(  4  0  3)	  0  1
    173.5866	        	        	        	        	       0	(  2  1 14)	  0  1
