MSG Master    CELL:    5.87518   5.87518  23.06919   90.0000   90.0000  120.0000   SPGR: P 63/m m c             TEMP:    440.45
  2   1280     2.52000     0.00000    -0.08754     0.00000     0.00000    0
    95    95     0     0     2
       0.00000      10.00000
     125.00000     130.00000
 2Theta	Yobs	Ycal	Yobs-Ycal	Backg	Posr	(hkl)	K
      0.7700	    0.00	 1007.56	-2357.75	  862.86
      0.8700	    0.00	 1004.17	-2357.75	  859.48
      0.9700	   46.00	 1000.81	-2357.75	  856.12
      1.0700	   40.00	  997.47	-2357.75	  852.78
      1.1700	   52.00	  994.16	-2357.75	  849.46
      1.2700	   48.00	  990.86	-2357.75	  846.16
      1.3700	   52.00	  987.58	-2357.75	  842.88
      1.4700	  102.00	  984.32	-2357.75	  839.63
      1.5700	  317.00	  981.09	-2357.75	  836.39
      1.6700	  429.00	  977.87	-2357.75	  833.18
      1.7700	  585.00	  974.68	-2357.75	  829.98
      1.8700	  621.00	  971.50	-2357.75	  826.81
      1.9700	  741.00	  968.35	-2357.75	  823.65
      2.0700	  781.00	  965.21	-2357.75	  820.52
      2.1700	  782.00	  962.10	-2357.75	  817.40
      2.2700	  808.00	  959.01	-2357.75	  814.31
      2.3700	  728.00	  955.93	-2357.75	  811.23
      2.4700	  772.00	  952.88	-2357.75	  808.18
      2.5700	  681.00	  949.84	-2357.75	  805.15
      2.6700	  697.00	  946.83	-2357.75	  802.13
      2.7700	  595.00	  943.83	-2357.75	  799.14
      2.8700	  621.00	  940.86	-2357.75	  796.16
      2.9700	  619.00	  937.90	-2357.75	  793.20
      3.0700	  589.00	  934.96	-2357.75	  790.27
      3.1700	  666.00	  932.04	-2357.75	  787.35
      3.2700	  768.00	  929.15	-2357.75	  784.45
      3.3700	  888.00	  926.27	-2357.75	  781.57
      3.4700	  996.00	  923.41	-2357.75	  778.71
      3.5700	 1149.00	  920.56	-2357.75	  775.87
      3.6700	 1338.00	  917.74	-2357.75	  773.04
      3.7700	 1419.00	  914.94	-2357.75	  770.24
      3.8700	 1577.00	  912.15	-2357.75	  767.45
      3.9700	 1526.00	  909.38	-2357.75	  764.69
      4.0700	 1662.00	  906.64	-2357.75	  761.94
      4.1700	 1725.00	  903.91	-2357.75	  759.21
      4.2700	 1743.00	  901.19	-2357.75	  756.50
      4.3700	 1718.00	  898.50	-2357.75	  753.80
      4.4700	 1646.00	  895.83	-2357.75	  751.13
      4.5700	 1602.00	  893.17	-2357.75	  748.47
      4.6700	 1581.00	  890.53	-2357.75	  745.83
      4.7700	 1525.00	  887.91	-2357.75	  743.21
      4.8700	 1468.00	  885.31	-2357.75	  740.61
      4.9700	 1485.00	  882.72	-2357.75	  738.02
      5.0700	 1316.00	  880.15	-2357.75	  735.46
      5.1700	 1322.00	  877.60	-2357.75	  732.91
      5.2700	 1263.00	  875.07	-2357.75	  730.37
      5.3700	 1285.00	  872.56	-2357.75	  727.86
      5.4700	 1203.00	  870.06	-2357.75	  725.36
      5.5700	 1229.00	  867.58	-2357.75	  722.88
      5.6700	 1234.00	  865.11	-2357.75	  720.42
      5.7700	 1182.00	  862.67	-2357.75	  717.97
      5.8700	 1198.00	  860.24	-2357.75	  715.54
      5.9700	 1105.00	  857.83	-2357.75	  713.13
      6.0700	 1153.00	  855.43	-2357.75	  710.74
      6.1700	 1101.00	  853.05	-2357.75	  708.36
      6.2700	 1125.00	  850.69	-2357.75	  706.00
      6.3700	 1088.00	  848.35	-2357.75	  703.65
      6.4700	 1113.00	  846.02	-2357.75	  701.32
      6.5700	 1032.00	  843.71	-2357.75	  699.01
      6.6700	 1029.00	  841.41	-2357.75	  696.72
      6.7700	 1022.00	  839.14	-2357.75	  694.44
      6.8700	  948.00	  836.87	-2357.75	  692.18
      6.9700	  959.00	  834.63	-2357.75	  689.93
      7.0700	  920.00	  832.40	-2357.75	  687.70
      7.1700	  934.00	  830.18	-2357.75	  685.49
      7.2700	  940.00	  827.99	-2357.75	  683.29
      7.3700	  971.00	  825.81	-2357.75	  681.11
      7.4700	  950.00	  823.64	-2357.75	  678.94
      7.5700	  974.00	  821.49	-2357.75	  676.79
      7.6700	  845.00	  819.36	-2357.75	  674.66
      7.7700	  872.00	  817.24	-2357.75	  672.54
      7.8700	  821.00	  815.13	-2357.75	  670.44
      7.9700	  807.00	  813.05	-2357.75	  668.35
      8.0700	  826.00	  810.97	-2357.75	  666.28
      8.1700	  841.00	  808.92	-2357.75	  664.22
      8.2700	  873.00	  806.88	-2357.75	  662.18
      8.3700	  788.00	  804.85	-2357.75	  660.15
      8.4700	  811.00	  802.84	-2357.75	  658.14
      8.5700	  861.00	  800.84	-2357.75	  656.15
      8.6700	  838.00	  798.86	-2357.75	  654.16
      8.7700	  856.00	  796.89	-2357.75	  652.20
      8.8700	  835.00	  794.94	-2357.75	  650.25
      8.9700	  796.00	  793.01	-2357.75	  648.31
      9.0700	  830.00	  791.09	-2357.75	  646.39
      9.1700	  822.00	  789.18	-2357.75	  644.48
      9.2700	  834.00	  787.29	-2357.75	  642.59
      9.3700	  754.00	  785.41	-2357.75	  640.71
      9.4700	  755.00	  783.54	-2357.75	  638.85
      9.5700	  804.00	  781.69	-2357.75	  637.00
      9.6700	  790.00	  779.86	-2357.75	  635.16
      9.7700	  794.00	  778.04	-2357.75	  633.34
      9.8700	  746.00	  776.23	-2357.75	  631.54
      9.9700	  784.00	  774.44	-2357.75	  629.74
     10.0700	  758.00	  774.68	-2374.43	  627.96
     10.1700	  747.00	  773.13	-2383.88	  626.20
     10.2700	  764.00	  771.64	-2365.39	  624.45
     10.3700	  814.00	  770.22	-2313.97	  622.71
     10.4700	  759.00	  768.89	-2367.64	  620.99
     10.5700	  757.00	  767.70	-2368.45	  619.28
     10.6700	  743.00	  766.68	-2381.43	  617.58
     10.7700	  810.00	  765.93	-2313.68	  615.90
     10.8700	  714.00	  765.53	-2409.28	  614.23
     10.9700	  800.00	  765.57	-2323.32	  612.58
     11.0700	  769.00	  766.12	-2354.87	  610.94
     11.1700	  735.00	  767.20	-2389.95	  609.31
     11.2700	  745.00	  768.82	-2381.57	  607.69
     11.3700	  781.00	  771.02	-2347.77	  606.09
     11.4700	  771.00	  773.89	-2360.64	  604.50
     11.5700	  771.00	  777.56	-2364.31	  602.92
     11.6700	  815.00	  782.25	-2325.00	  601.36
     11.7700	  806.00	  788.22	-2339.97	  599.81
     11.8700	  850.00	  795.77	-2303.52	  598.27
     11.9700	  809.00	  805.04	-2353.79	  596.74
     12.0700	  848.00	  815.61	-2325.36	  595.23
     12.1700	  837.00	  826.04	-2346.79	  593.73
     12.2700	  864.00	  833.26	-2327.01	  592.25
     12.3700	  850.00	  832.64	-2340.39	  590.77
     12.4700	  887.00	  820.78	-2291.53	  589.31
     12.5700	  766.00	  800.90	-2392.65	  587.86
     12.6700	  790.00	  780.42	-2348.17	  586.42
     12.7700	  775.00	  763.79	-2346.54	  584.99
     12.8700	  739.00	  751.71	-2370.46	  583.58
     12.9700	  719.00	  743.39	-2382.14	  582.18
     13.0700	  704.00	  737.67	-2391.42	  580.79
     13.1700	  717.00	  733.55	-2374.30	  579.41
     13.2700	  715.00	  730.36	-2373.11	  578.05
     13.3700	  732.00	  727.71	-2353.46	  576.69
     13.4700	  666.00	  725.39	-2417.14	  575.35
     13.5700	  687.00	  723.31	-2394.06	  574.02
     13.6700	  770.00	  721.39	-2309.14	  572.70
     13.7700	  700.00	  719.59	-2377.34	  571.40
     13.8700	  672.00	  717.89	-2403.64	  570.10
     13.9700	  749.00	  716.28	-2325.03	  568.82
     14.0700	  710.00	  714.72	-2362.47	  567.55
     14.1700	  753.00	  713.22	-2317.98	  566.28
     14.2700	  684.00	  711.77	-2385.52	  565.03
     14.3700	  737.00	  710.36	-2331.11	  563.80
     14.4700	  714.00	  708.98	-2352.73	  562.57
     14.5700	  738.00	  707.63	-2327.38	  561.35
     14.6700	  665.00	  706.31	-2399.06	  560.15
     14.7700	  722.00	  705.01	-2340.76	  558.95
     14.8700	  742.00	  703.73	-2319.48	  557.77
     14.9700	  686.00	  702.48	-2374.23	  556.60
     15.0700	  686.00	  701.24	-2372.99	  555.43
     15.1700	  642.00	  700.03	-2415.78	  554.28
     15.2700	  682.00	  698.83	-2374.58	  553.14
     15.3700	  723.00	  697.65	-2332.40	  552.01
     15.4700	  690.00	  696.48	-2364.23	  550.89
     15.5700	  687.00	  695.33	-2366.08	  549.79
     15.6700	  668.00	  694.19	-2383.94	  548.69
     15.7700	  669.00	  693.06	-2381.81	  547.60
     15.8700	  676.00	  691.95	-2373.70	  546.52
     15.9700	  625.00	  690.85	-2423.60	  545.46
     16.0700	  708.00	  689.77	-2339.52	  544.40
     16.1700	  682.00	  688.70	-2364.45	  543.35
     16.2700	  672.00	  687.64	-2373.39	  542.31
     16.3700	  705.00	  686.59	-2339.34	  541.29
     16.4700	  662.00	  685.55	-2381.30	  540.27
     16.5700	  669.00	  684.52	-2373.27	  539.26
     16.6700	  699.00	  683.51	-2342.26	  538.27
     16.7700	  698.00	  682.51	-2342.26	  537.28
     16.8700	  701.00	  681.51	-2338.26	  536.30
     16.9700	  685.00	  680.53	-2353.28	  535.34
     17.0700	  704.00	  679.56	-2333.31	  534.38
     17.1700	  653.00	  678.60	-2383.35	  533.43
     17.2700	  646.00	  677.65	-2389.40	  532.49
     17.3700	  698.00	  676.71	-2336.46	  531.56
     17.4700	  670.00	  675.78	-2363.53	  530.64
     17.5700	  699.00	  674.86	-2333.61	  529.73
     17.6700	  672.00	  673.95	-2359.70	  528.83
     17.7700	  691.00	  673.05	-2339.80	  527.94
     17.8700	  704.00	  672.16	-2325.92	  527.05
     17.9700	  650.00	  671.29	-2379.04	  526.18
     18.0700	  667.00	  670.41	-2361.16	  525.32
     18.1700	  689.00	  669.55	-2338.30	  524.46
     18.2700	  641.00	  668.70	-2385.45	  523.61
     18.3700	  663.00	  667.86	-2362.61	  522.78
     18.4700	  682.00	  667.03	-2342.78	  521.95
     18.5700	  699.00	  666.21	-2324.96	  521.13
     18.6700	  626.00	  665.39	-2397.14	  520.32
     18.7700	  677.00	  664.59	-2345.34	  519.51
     18.8700	  688.00	  663.79	-2333.54	  518.72
     18.9700	  659.00	  663.00	-2361.75	  517.93
     19.0700	  730.00	  663.57	-2291.32	  517.16
     19.1700	  658.00	  665.10	-2364.85	  516.39
     19.2700	  671.00	  664.42	-2351.17	  515.63
     19.3700	  686.00	  663.74	-2335.49	  514.88
     19.4700	  666.00	  663.08	-2354.83	  514.14
     19.5700	  634.00	  662.44	-2386.19	  513.40
     19.6700	  647.00	  661.80	-2372.55	  512.67
     19.7700	  664.00	  661.17	-2354.92	  511.96
     19.8700	  688.00	  660.56	-2330.31	  511.25
     19.9700	  692.00	  659.96	-2325.71	  510.54
     20.0700	  651.00	  659.37	-2366.12	  509.85
     20.1700	  666.00	  658.79	-2350.54	  509.16
     20.2700	  681.00	  658.28	-2335.03	  508.49
     20.3700	  683.00	  657.73	-2332.48	  507.82
     20.4700	  669.00	  657.19	-2345.94	  507.15
     20.5700	  672.00	  656.66	-2342.41	  506.50
     20.6700	  660.00	  656.15	-2353.90	  505.85
     20.7700	  674.00	  655.65	-2339.40	  505.21
     20.8700	  655.00	  655.16	-2357.91	  504.58
     20.9700	  647.00	  654.69	-2365.44	  503.96
     21.0700	  642.00	  654.23	-2369.98	  503.34
     21.1700	  647.00	  653.79	-2364.54	  502.73
     21.2700	  659.00	  653.36	-2352.11	  502.13
     21.3700	  672.00	  652.94	-2338.69	  501.54
     21.4700	  649.00	  652.55	-2361.30	  500.95
     21.5700	  684.00	  652.16	-2325.91	  500.37
     21.6700	  689.00	  651.80	-2320.55	  499.80
     21.7700	  670.00	  651.45	-2339.20	  499.23
     21.8700	  631.00	  651.12	-2377.87	  498.68
     21.9700	  664.00	  650.81	-2344.56	  498.13
     22.0700	  689.00	  650.52	-2319.27	  497.58
     22.1700	  689.00	  650.25	-2319.00	  497.05
     22.2700	  616.00	  650.00	-2391.75	  496.52
     22.3700	  634.00	  649.77	-2373.52	  495.99
     22.4700	  638.00	  649.78	-2369.53	  495.48
     22.5700	  619.00	  649.61	-2388.36	  494.97
     22.6700	  635.00	  649.47	-2372.22	  494.47
     22.7700	  641.00	  649.35	-2366.10	  493.97
     22.8700	  701.00	  649.27	-2306.02	  493.48
     22.9700	  662.00	  649.23	-2344.98	  493.00
     23.0700	  639.00	  649.22	-2367.97	  492.52
     23.1700	  660.00	  649.26	-2347.01	  492.05
     23.2700	  686.00	  649.34	-2321.09	  491.59
     23.3700	  674.00	  649.48	-2333.23	  491.14
     23.4700	  699.00	  649.69	-2308.44	  490.69
     23.5700	  661.00	  649.97	-2346.72	  490.24
     23.6700	  677.00	  650.34	-2331.09	  489.81
     23.7700	  674.00	  650.83	-2334.58	  489.38
     23.8700	  616.00	  651.47	-2393.22	  488.95
     23.9700	  683.00	  652.31	-2327.06	  488.53
     24.0700	  620.00	  653.45	-2391.20	  488.12
     24.1700	  677.00	  655.05	-2335.80	  487.71
     24.2700	  712.00	  657.34	-2303.09	  487.31
     24.3700	  683.00	  660.61	-2335.36	  486.92
     24.4700	  681.00	  665.40	-2342.15	  486.53
     24.5700	  724.00	  672.00	-2305.75	  486.15
     24.6700	  686.00	  680.57	-2352.32	  485.77
     24.7700	  665.00	  690.74	-2383.49	  485.40
     24.8700	  739.00	  701.42	-2320.17	  485.04
     24.9700	  754.00	  710.36	-2314.11	  484.68
     25.0700	  729.00	  714.28	-2343.03	  484.33
     25.1700	  731.00	  710.69	-2337.44	  483.98
     25.2700	  739.00	  701.38	-2320.13	  483.64
     25.3700	  731.00	  691.02	-2317.77	  483.30
     25.4700	  711.00	  682.78	-2329.53	  482.97
     25.5700	  688.00	  677.37	-2347.12	  482.64
     25.6700	  707.00	  674.57	-2325.32	  482.32
     25.7700	  683.00	  673.77	-2348.52	  482.01
     25.8700	  663.00	  674.38	-2369.13	  481.70
     25.9700	  672.00	  675.98	-2361.73	  481.40
     26.0700	  648.00	  678.34	-2388.09	  481.10
     26.1700	  680.00	  681.37	-2359.12	  480.80
     26.2700	  704.00	  685.06	-2338.81	  480.52
     26.3700	  658.00	  689.47	-2389.22	  480.23
     26.4700	  764.00	  694.67	-2288.42	  479.96
     26.5700	  640.00	  700.80	-2418.55	  479.68
     26.6700	  684.00	  708.03	-2381.78	  479.42
     26.7700	  690.00	  716.60	-2384.35	  479.15
     26.8700	  708.00	  726.81	-2376.56	  478.89
     26.9700	  711.00	  739.07	-2385.82	  478.64
     27.0700	  692.00	  753.93	-2419.68	  478.39
     27.1700	  732.00	  772.18	-2397.93	  478.15
     27.2700	  756.00	  794.92	-2396.67	  477.91
     27.3700	  804.00	  823.90	-2377.65	  477.68
     27.4700	  830.00	  862.19	-2389.94	  477.45
     27.5700	  800.00	  916.20	-2473.95	  477.23
     27.6700	  898.00	 1000.10	-2459.85	  477.01
     27.7700	  977.00	 1143.56	-2524.31	  476.79
     27.8700	 1143.00	 1401.78	-2616.53	  476.58
     27.9700	 1427.00	 1862.66	-2793.41	  476.38
     28.0700	 1998.00	 2638.56	-2998.31	  476.18
     28.1700	 3323.00	 3822.81	-2857.56	  475.98
     28.2700	 5428.00	 5396.56	-2326.31	  475.79
     28.3700	 7836.00	 7089.99	-1611.74	  475.60
     28.4700	 9431.00	 8298.45	-1225.20	  475.41
     28.5700	 9082.00	 8286.56	-1562.31	  475.23
     28.6700	 7193.00	 7007.92	-2172.67	  475.06
     28.7700	 5092.00	 5456.59	-2722.34	  474.89
     28.8700	 4292.00	 4489.75	-2555.50	  474.72
     28.9700	 4201.00	 4299.13	-2455.88	  474.56
     29.0700	 4903.00	 4613.84	-2068.59	  474.40
     29.1700	 5355.00	 4939.63	-1942.38	  474.25
     29.2700	 5032.00	 4779.76	-2105.51	  474.10
     29.3700	 4030.00	 4002.69	-2330.44	  473.95
     29.4700	 2798.00	 2992.43	-2552.18	  473.81
     29.5700	 1971.00	 2133.35	-2520.10	  473.67
     29.6700	 1314.00	 1551.96	-2595.71	  473.54
     29.7700	 1212.00	 1213.86	-2359.61	  473.41
     29.8700	  996.00	 1032.56	-2394.31	  473.28
     29.9700	  930.00	  933.68	-2361.43	  473.16
     30.0700	  885.00	  873.76	-2346.51	  473.04
     30.1700	  802.00	  832.89	-2388.64	  472.92
     30.2700	  831.00	  802.92	-2329.67	  472.81
     30.3700	  756.00	  780.45	-2382.20	  472.70
     30.4700	  787.00	  764.06	-2334.81	  472.60
     30.5700	  729.00	  753.48	-2382.23	  472.50
     30.6700	  746.00	  749.42	-2361.17	  472.40
     30.7700	  778.00	  753.24	-2332.99	  472.30
     30.8700	  784.00	  766.03	-2339.78	  472.21
     30.9700	  765.00	  786.93	-2379.68	  472.13
     31.0700	  843.00	  811.39	-2326.14	  472.04
     31.1700	  829.00	  830.22	-2358.97	  471.96
     31.2700	  836.00	  831.08	-2352.83	  471.89
     31.3700	  809.00	  807.75	-2356.50	  471.81
     31.4700	  801.00	  770.25	-2327.00	  471.74
     31.5700	  752.00	  733.68	-2339.43	  471.68
     31.6700	  676.00	  705.51	-2387.26	  471.61
     31.7700	  717.00	  686.63	-2327.38	  471.55
     31.8700	  723.00	  674.95	-2309.70	  471.50
     31.9700	  701.00	  667.80	-2324.55	  471.44
     32.0700	  698.00	  663.17	-2322.92	  471.39
     32.1700	  689.00	  659.90	-2328.65	  471.34
     32.2700	  663.00	  657.45	-2352.20	  471.30
     32.3700	  699.00	  655.56	-2314.31	  471.26
     32.4700	  628.00	  654.13	-2383.88	  471.22
     32.5700	  738.00	  653.11	-2272.86	  471.18
     32.6700	  662.00	  652.46	-2348.21	  471.15
     32.7700	  664.00	  652.21	-2345.96	  471.12
     32.8700	  725.00	  652.37	-2285.12	  471.09
     32.9700	  636.00	  653.02	-2374.77	  471.07
     33.0700	  673.00	  654.18	-2338.93	  471.04
     33.1700	  652.00	  656.02	-2361.77	  471.02
     33.2700	  646.00	  658.77	-2370.52	  471.01
     33.3700	  689.00	  662.86	-2331.61	  470.99
     33.4700	  700.00	  669.15	-2326.90	  470.98
     33.5700	  690.00	  679.32	-2347.07	  470.97
     33.6700	  721.00	  696.42	-2333.17	  470.97
     33.7700	  750.00	  725.47	-2333.22	  470.96
     33.8700	  787.00	  773.14	-2343.90	  470.96
     33.9700	  859.00	  845.77	-2344.52	  470.97
     34.0700	 1018.00	  944.52	-2284.27	  470.97
     34.1700	 1139.00	 1059.23	-2277.98	  470.98
     34.2700	 1314.00	 1164.21	-2207.96	  470.99
     34.3700	 1318.00	 1219.72	-2259.47	  471.00
     34.4700	 1309.00	 1191.70	-2240.45	  471.01
     34.5700	 1188.00	 1090.60	-2260.35	  471.03
     34.6700	 1010.00	  965.71	-2313.46	  471.05
     34.7700	  836.00	  855.89	-2377.64	  471.07
     34.8700	  729.00	  775.23	-2403.98	  471.09
     34.9700	  743.00	  722.80	-2337.55	  471.11
     35.0700	  708.00	  691.39	-2341.14	  471.14
     35.1700	  727.00	  673.13	-2303.88	  471.17
     35.2700	  715.00	  662.15	-2304.90	  471.20
     35.3700	  693.00	  655.01	-2319.76	  471.24
     35.4700	  717.00	  649.99	-2290.74	  471.27
     35.5700	  635.00	  646.16	-2368.91	  471.31
     35.6700	  668.00	  643.18	-2332.93	  471.35
     35.7700	  668.00	  640.80	-2330.55	  471.39
     35.8700	  653.00	  638.88	-2343.63	  471.44
     35.9700	  618.00	  637.33	-2377.08	  471.48
     36.0700	  655.00	  636.07	-2338.82	  471.53
     36.1700	  625.00	  635.06	-2367.81	  471.58
     36.2700	  639.00	  634.25	-2353.00	  471.63
     36.3700	  651.00	  633.62	-2340.37	  471.68
     36.4700	  644.00	  633.16	-2346.91	  471.74
     36.5700	  648.00	  632.86	-2342.61	  471.79
     36.6700	  637.00	  632.70	-2353.45	  471.85
     36.7700	  619.00	  632.70	-2371.45	  471.91
     36.8700	  671.00	  632.88	-2319.63	  471.98
     36.9700	  647.00	  633.24	-2343.99	  472.04
     37.0700	  647.00	  634.05	-2344.80	  472.10
     37.1700	  659.00	  634.96	-2333.71	  472.17
     37.2700	  631.00	  636.85	-2363.60	  472.24
     37.3700	  648.00	  638.86	-2348.61	  472.31
     37.4700	  616.00	  641.92	-2383.67	  472.38
     37.5700	  660.00	  646.66	-2344.41	  472.46
     37.6700	  688.00	  654.13	-2323.88	  472.53
     37.7700	  671.00	  665.86	-2352.61	  472.61
     37.8700	  672.00	  683.57	-2369.32	  472.68
     37.9700	  718.00	  708.61	-2348.36	  472.76
     38.0700	  749.00	  740.78	-2349.53	  472.84
     38.1700	  776.00	  774.83	-2356.58	  472.93
     38.2700	  709.00	  808.09	-2456.84	  473.01
     38.3700	  806.00	  827.79	-2379.54	  473.09
     38.4700	  788.00	  823.69	-2393.44	  473.18
     38.5700	  776.00	  795.81	-2377.56	  473.27
     38.6700	  780.00	  756.52	-2334.27	  473.35
     38.7700	  731.00	  718.53	-2345.28	  473.44
     38.8700	  635.00	  688.13	-2410.88	  473.54
     38.9700	  630.00	  666.59	-2394.34	  473.63
     39.0700	  661.00	  652.65	-2349.40	  473.72
     39.1700	  597.00	  644.12	-2404.87	  473.81
     39.2700	  623.00	  638.98	-2373.73	  473.91
     39.3700	  613.00	  635.76	-2380.51	  474.01
     39.4700	  637.00	  633.61	-2354.36	  474.10
     39.5700	  610.00	  630.79	-2378.54	  474.20
     39.6700	  654.00	  629.66	-2333.41	  474.30
     39.7700	  641.00	  628.78	-2345.53	  474.40
     39.8700	  624.00	  628.11	-2361.86	  474.51
     39.9700	  638.00	  627.58	-2347.33	  474.61
     40.0700	  624.00	  627.16	-2360.91	  474.71
     40.1700	  561.00	  626.85	-2423.60	  474.82
     40.2700	  619.00	  626.61	-2365.36	  474.92
     40.3700	  653.00	  626.45	-2331.20	  475.03
     40.4700	  609.00	  626.34	-2375.09	  475.14
     40.5700	  641.00	  626.28	-2343.03	  475.24
     40.6700	  645.00	  626.26	-2339.01	  475.35
     40.7700	  610.00	  626.29	-2374.04	  475.46
     40.8700	  599.00	  626.89	-2385.64	  475.57
     40.9700	  630.00	  627.01	-2354.76	  475.68
     41.0700	  630.00	  627.17	-2354.92	  475.80
     41.1700	  577.00	  627.36	-2408.11	  475.91
     41.2700	  578.00	  627.61	-2407.36	  476.02
     41.3700	  604.00	  627.90	-2381.65	  476.14
     41.4700	  632.00	  628.31	-2354.06	  476.25
     41.5700	  621.00	  628.74	-2365.49	  476.37
     41.6700	  612.00	  629.24	-2374.99	  476.48
     41.7700	  618.00	  629.86	-2369.61	  476.60
     41.8700	  659.00	  630.61	-2329.36	  476.72
     41.9700	  585.00	  631.56	-2404.31	  476.83
     42.0700	  608.00	  632.82	-2382.57	  476.95
     42.1700	  642.00	  634.59	-2350.34	  477.07
     42.2700	  608.00	  637.26	-2387.01	  477.19
     42.3700	  671.00	  641.42	-2328.17	  477.31
     42.4700	  589.00	  647.88	-2416.63	  477.43
     42.5700	  639.00	  657.75	-2376.50	  477.55
     42.6700	  647.00	  671.76	-2382.51	  477.67
     42.7700	  655.00	  689.96	-2392.71	  477.79
     42.8700	  690.00	  710.85	-2378.60	  477.91
     42.9700	  737.00	  730.69	-2351.44	  478.04
     43.0700	  703.00	  743.52	-2398.27	  478.16
     43.1700	  733.00	  743.74	-2368.49	  478.28
     43.2700	  733.00	  730.95	-2355.70	  478.41
     43.3700	  714.00	  710.85	-2354.60	  478.53
     43.4700	  710.00	  689.96	-2337.71	  478.65
     43.5700	  651.00	  672.23	-2378.98	  478.78
     43.6700	  693.00	  658.73	-2323.48	  478.90
     43.7700	  652.00	  649.43	-2355.18	  479.03
     43.8700	  643.00	  643.47	-2358.22	  479.15
     43.9700	  668.00	  639.82	-2329.57	  479.27
     44.0700	  635.00	  637.80	-2360.55	  479.40
     44.1700	  636.00	  636.43	-2358.18	  479.53
     44.2700	  629.00	  635.55	-2364.30	  479.65
     44.3700	  589.00	  634.96	-2403.71	  479.78
     44.4700	  643.00	  634.56	-2349.31	  479.90
     44.5700	  664.00	  634.29	-2328.04	  480.03
     44.6700	  621.00	  634.12	-2370.87	  480.15
     44.7700	  588.00	  634.03	-2403.78	  480.28
     44.8700	  656.00	  634.01	-2335.76	  480.40
     44.9700	  654.00	  634.04	-2337.79	  480.53
     45.0700	  666.00	  634.13	-2325.88	  480.66
     45.1700	  667.00	  634.52	-2325.27	  480.78
     45.2700	  652.00	  634.68	-2340.43	  480.91
     45.3700	  654.00	  634.88	-2338.63	  481.03
     45.4700	  645.00	  635.10	-2347.85	  481.16
     45.5700	  685.00	  635.36	-2308.10	  481.29
     45.6700	  628.00	  635.64	-2365.39	  481.41
     45.7700	  649.00	  635.95	-2344.70	  481.54
     45.8700	  639.00	  636.39	-2355.14	  481.66
     45.9700	  644.00	  636.76	-2350.51	  481.79
     46.0700	  605.00	  637.17	-2389.92	  481.91
     46.1700	  648.00	  637.62	-2347.37	  482.04
     46.2700	  661.00	  638.12	-2334.87	  482.16
     46.3700	  659.00	  638.65	-2337.40	  482.29
     46.4700	  683.00	  639.22	-2313.97	  482.41
     46.5700	  606.00	  639.64	-2391.39	  482.54
     46.6700	  686.00	  640.50	-2312.25	  482.66
     46.7700	  666.00	  641.28	-2333.02	  482.78
     46.8700	  663.00	  642.13	-2336.88	  482.91
     46.9700	  613.00	  643.10	-2387.85	  483.03
     47.0700	  623.00	  644.21	-2378.96	  483.15
     47.1700	  623.00	  645.51	-2380.26	  483.28
     47.2700	  643.00	  647.10	-2361.85	  483.40
     47.3700	  626.00	  649.15	-2380.90	  483.52
     47.4700	  648.00	  651.95	-2361.70	  483.64
     47.5700	  666.00	  655.92	-2347.67	  483.76
     47.6700	  663.00	  661.66	-2356.41	  483.89
     47.7700	  655.00	  669.81	-2372.56	  484.01
     47.8700	  637.00	  680.90	-2401.65	  484.13
     47.9700	  712.00	  695.03	-2340.78	  484.25
     48.0700	  710.00	  711.47	-2359.22	  484.37
     48.1700	  719.00	  728.23	-2366.98	  484.49
     48.2700	  778.00	  741.81	-2321.56	  484.60
     48.3700	  730.00	  748.07	-2375.82	  484.72
     48.4700	  740.00	  744.97	-2362.72	  484.84
     48.5700	  694.00	  734.61	-2398.36	  484.96
     48.6700	  721.00	  721.82	-2358.57	  485.07
     48.7700	  677.00	  709.39	-2390.14	  485.19
     48.8700	  671.00	  699.73	-2386.48	  485.31
     48.9700	  706.00	  693.58	-2345.33	  485.42
     49.0700	  645.00	  690.92	-2403.67	  485.54
     49.1700	  675.00	  691.37	-2374.12	  485.65
     49.2700	  670.00	  694.50	-2382.25	  485.76
     49.3700	  694.00	  700.08	-2363.83	  485.88
     49.4700	  671.00	  708.31	-2395.06	  485.99
     49.5700	  731.00	  720.15	-2346.90	  486.10
     49.6700	  729.00	  738.21	-2366.96	  486.21
     49.7700	  793.00	  768.40	-2333.15	  486.32
     49.8700	  863.00	  822.61	-2317.36	  486.43
     49.9700	  899.00	  921.39	-2380.14	  486.54
     50.0700	 1183.00	 1093.81	-2268.56	  486.65
     50.1700	 1530.00	 1370.65	-2198.40	  486.76
     50.2700	 1849.00	 1768.43	-2277.18	  486.86
     50.3700	 2401.00	 2267.16	-2223.91	  486.97
     50.4700	 2851.00	 2791.54	-2298.29	  487.08
     50.5700	 3258.00	 3207.17	-2306.92	  487.18
     50.6700	 3225.00	 3359.50	-2492.25	  487.29
     50.7700	 3128.00	 3175.67	-2405.42	  487.39
     50.8700	 2636.00	 2738.86	-2460.61	  487.49
     50.9700	 2148.00	 2211.34	-2421.09	  487.60
     51.0700	 1641.00	 1725.15	-2441.90	  487.70
     51.1700	 1303.00	 1347.96	-2402.71	  487.80
     51.2700	 1062.00	 1093.93	-2389.68	  487.90
     51.3700	  938.00	  942.79	-2362.54	  488.00
     51.4700	  874.00	  861.64	-2345.39	  488.10
     51.5700	  838.00	  820.21	-2339.96	  488.20
     51.6700	  851.00	  797.28	-2304.03	  488.29
     51.7700	  793.00	  780.79	-2345.54	  488.39
     51.8700	  734.00	  766.16	-2389.91	  488.48
     51.9700	  768.00	  752.95	-2342.70	  488.58
     52.0700	  777.00	  741.88	-2322.63	  488.67
     52.1700	  761.00	  733.36	-2330.11	  488.76
     52.2700	  725.00	  727.06	-2359.81	  488.86
     52.3700	  723.00	  722.23	-2356.98	  488.95
     52.4700	  698.00	  718.08	-2377.83	  489.04
     52.5700	  715.00	  714.38	-2357.13	  489.13
     52.6700	  714.00	  711.60	-2355.35	  489.22
     52.7700	  723.00	  710.45	-2345.20	  489.30
     52.8700	  744.00	  711.67	-2325.42	  489.39
     52.9700	  697.00	  716.22	-2376.97	  489.48
     53.0700	  806.00	  725.44	-2277.19	  489.56
     53.1700	  767.00	  741.36	-2332.11	  489.64
     53.2700	  819.00	  766.75	-2305.50	  489.73
     53.3700	  769.00	  804.88	-2393.63	  489.81
     53.4700	  852.00	  858.83	-2364.58	  489.89
     53.5700	  951.00	  930.26	-2337.01	  489.97
     53.6700	  984.00	 1017.89	-2391.64	  490.05
     53.7700	 1156.00	 1115.76	-2317.51	  490.13
     53.8700	 1249.00	 1210.79	-2319.54	  490.21
     53.9700	 1325.00	 1282.86	-2315.61	  490.28
     54.0700	 1344.00	 1309.81	-2323.56	  490.36
     54.1700	 1256.00	 1281.36	-2383.11	  490.43
     54.2700	 1213.00	 1208.12	-2352.87	  490.50
     54.3700	 1161.00	 1112.84	-2309.59	  490.58
     54.4700	 1011.00	 1015.82	-2362.57	  490.65
     54.5700	  938.00	  929.56	-2349.31	  490.72
     54.6700	  848.00	  859.78	-2369.53	  490.79
     54.7700	  784.00	  807.47	-2381.22	  490.86
     54.8700	  740.00	  770.80	-2388.55	  490.92
     54.9700	  712.00	  746.52	-2392.27	  490.99
     55.0700	  699.00	  731.23	-2389.98	  491.05
     55.1700	  739.00	  722.04	-2340.79	  491.12
     55.2700	  718.00	  716.84	-2356.59	  491.18
     55.3700	  694.00	  714.27	-2378.02	  491.24
     55.4700	  681.00	  713.55	-2390.30	  491.30
     55.5700	  702.00	  714.27	-2370.02	  491.36
     55.6700	  699.00	  716.28	-2375.03	  491.42
     55.7700	  746.00	  719.56	-2331.31	  491.48
     55.8700	  716.00	  724.24	-2365.99	  491.53
     55.9700	  690.00	  730.58	-2398.33	  491.59
     56.0700	  714.00	  739.14	-2382.89	  491.64
     56.1700	  702.00	  750.97	-2406.72	  491.70
     56.2700	  780.00	  768.09	-2345.84	  491.75
     56.3700	  807.00	  794.14	-2344.89	  491.80
     56.4700	  818.00	  835.22	-2374.97	  491.85
     56.5700	  887.00	  900.54	-2371.29	  491.90
     56.6700	 1007.00	 1002.26	-2353.01	  491.95
     56.7700	 1113.00	 1153.69	-2398.44	  491.99
     56.8700	 1337.00	 1365.47	-2386.22	  492.04
     56.9700	 1675.00	 1639.97	-2322.72	  492.08
     57.0700	 2042.00	 1964.97	-2280.72	  492.12
     57.1700	 2322.00	 2307.67	-2343.42	  492.16
     57.2700	 2717.00	 2610.59	-2251.34	  492.21
     57.3700	 2825.00	 2797.66	-2330.41	  492.24
     57.4700	 2795.00	 2805.93	-2368.68	  492.28
     57.5700	 2491.00	 2632.07	-2498.82	  492.32
     57.6700	 2278.00	 2335.93	-2415.68	  492.36
     57.7700	 1910.00	 1995.25	-2443.00	  492.39
     57.8700	 1615.00	 1669.69	-2412.44	  492.42
     57.9700	 1263.00	 1393.79	-2488.54	  492.46
     58.0700	 1157.00	 1181.11	-2381.86	  492.49
     58.1700	  995.00	 1030.46	-2393.21	  492.52
     58.2700	  922.00	  932.31	-2368.06	  492.54
     58.3700	  875.00	  874.75	-2357.50	  492.57
     58.4700	  891.00	  847.79	-2314.54	  492.60
     58.5700	  863.00	  845.03	-2339.78	  492.62
     58.6700	  847.00	  863.67	-2374.42	  492.65
     58.7700	  926.00	  903.14	-2334.89	  492.67
     58.8700	  987.00	  962.83	-2333.58	  492.69
     58.9700	 1014.00	 1039.93	-2383.68	  492.71
     59.0700	 1059.00	 1127.80	-2426.55	  492.73
     59.1700	 1246.00	 1215.37	-2327.12	  492.75
     59.2700	 1248.00	 1289.58	-2399.33	  492.76
     59.3700	 1316.00	 1341.70	-2383.45	  492.78
     59.4700	 1285.00	 1370.08	-2442.83	  492.79
     59.5700	 1375.00	 1375.07	-2357.82	  492.81
     59.6700	 1304.00	 1356.24	-2409.99	  492.82
     59.7700	 1339.00	 1317.98	-2336.73	  492.83
     59.8700	 1299.00	 1272.81	-2331.56	  492.84
     59.9700	 1267.00	 1235.82	-2326.57	  492.84
     60.0700	 1253.00	 1218.20	-2322.95	  492.85
     60.1700	 1350.00	 1226.29	-2234.04	  492.86
     60.2700	 1376.00	 1263.46	-2245.21	  492.86
     60.3700	 1387.00	 1330.81	-2301.56	  492.86
     60.4700	 1497.00	 1424.43	-2285.18	  492.86
     60.5700	 1498.00	 1531.48	-2391.23	  492.86
     60.6700	 1640.00	 1628.65	-2346.40	  492.86
     60.7700	 1679.00	 1685.15	-2363.90	  492.86
     60.8700	 1598.00	 1674.79	-2434.54	  492.86
     60.9700	 1538.00	 1593.40	-2413.15	  492.85
     61.0700	 1444.00	 1461.95	-2375.70	  492.85
     61.1700	 1180.00	 1310.75	-2488.50	  492.84
     61.2700	 1082.00	 1165.14	-2440.89	  492.83
     61.3700	 1084.00	 1041.31	-2315.06	  492.82
     61.4700	  908.00	  946.91	-2396.66	  492.81
     61.5700	  922.00	  883.36	-2319.11	  492.80
     61.6700	  868.00	  848.64	-2338.39	  492.78
     61.7700	  838.00	  840.31	-2360.06	  492.77
     61.8700	  909.00	  857.68	-2306.43	  492.75
     61.9700	  982.00	  902.69	-2278.44	  492.73
     62.0700	 1008.00	  979.19	-2328.94	  492.72
     62.1700	 1136.00	 1090.80	-2312.55	  492.70
     62.2700	 1263.00	 1237.99	-2332.74	  492.67
     62.3700	 1437.00	 1414.76	-2335.51	  492.65
     62.4700	 1597.00	 1606.10	-2366.85	  492.63
     62.5700	 1908.00	 1786.10	-2235.85	  492.60
     62.6700	 1909.00	 1919.22	-2367.97	  492.58
     62.7700	 1877.00	 1969.60	-2450.35	  492.55
     62.8700	 1868.00	 1920.75	-2410.50	  492.52
     62.9700	 1722.00	 1787.93	-2423.68	  492.49
     63.0700	 1604.00	 1606.87	-2360.62	  492.46
     63.1700	 1428.00	 1413.45	-2343.20	  492.43
     63.2700	 1183.00	 1233.71	-2408.46	  492.39
     63.3700	 1103.00	 1082.77	-2337.52	  492.36
     63.4700	  930.00	  966.27	-2394.02	  492.32
     63.5700	  887.00	  882.96	-2353.71	  492.28
     63.6700	  826.00	  827.53	-2359.28	  492.24
     63.7700	  798.00	  793.19	-2352.94	  492.20
     63.8700	  831.00	  773.86	-2300.61	  492.16
     63.9700	  810.00	  765.00	-2312.75	  492.12
     64.0700	  847.00	  764.16	-2274.91	  492.07
     64.1700	  760.00	  770.71	-2368.46	  492.03
     64.2700	  817.00	  785.16	-2325.91	  491.98
     64.3700	  794.00	  811.06	-2374.81	  491.93
     64.4700	  828.00	  851.42	-2381.17	  491.88
     64.5700	  891.00	  910.35	-2377.10	  491.83
     64.6700	 1034.00	  991.50	-2315.25	  491.78
     64.7700	 1083.00	 1096.80	-2371.55	  491.73
     64.8700	 1214.00	 1224.89	-2368.64	  491.67
     64.9700	 1358.00	 1369.31	-2369.06	  491.62
     65.0700	 1529.00	 1517.34	-2346.09	  491.56
     65.1700	 1635.00	 1650.03	-2372.78	  491.50
     65.2700	 1698.00	 1745.29	-2405.04	  491.45
     65.3700	 1748.00	 1783.89	-2393.64	  491.39
     65.4700	 1717.00	 1756.84	-2397.59	  491.32
     65.5700	 1665.00	 1670.15	-2362.90	  491.26
     65.6700	 1424.00	 1543.82	-2477.57	  491.20
     65.7700	 1379.00	 1401.69	-2380.44	  491.13
     65.8700	 1170.00	 1262.51	-2450.26	  491.06
     65.9700	 1037.00	 1138.50	-2459.25	  491.00
     66.0700	  961.00	 1034.94	-2431.69	  490.93
     66.1700	  964.00	  952.70	-2346.45	  490.86
     66.2700	  885.00	  889.84	-2362.59	  490.79
     66.3700	  830.00	  843.32	-2371.07	  490.71
     66.4700	  744.00	  809.79	-2423.54	  490.64
     66.5700	  710.00	  786.03	-2433.78	  490.56
     66.6700	  751.00	  769.46	-2376.21	  490.49
     66.7700	  755.00	  758.19	-2360.94	  490.41
     66.8700	  703.00	  750.94	-2405.69	  490.33
     66.9700	  766.00	  746.96	-2338.71	  490.25
     67.0700	  672.00	  745.87	-2431.62	  490.17
     67.1700	  685.00	  747.61	-2420.36	  490.09
     67.2700	  775.00	  752.60	-2335.35	  490.00
     67.3700	  740.00	  761.58	-2379.33	  489.92
     67.4700	  793.00	  776.35	-2341.10	  489.83
     67.5700	  735.00	  799.87	-2422.62	  489.74
     67.6700	  846.00	  836.21	-2347.96	  489.66
     67.7700	  937.00	  891.25	-2312.00	  489.57
     67.8700	  967.00	  971.98	-2362.73	  489.48
     67.9700	 1110.00	 1085.62	-2333.37	  489.38
     68.0700	 1360.00	 1238.17	-2235.92	  489.29
     68.1700	 1453.00	 1431.95	-2336.70	  489.20
     68.2700	 1686.00	 1663.51	-2335.26	  489.10
     68.3700	 1924.00	 1921.46	-2355.21	  489.00
     68.4700	 2183.00	 2184.48	-2359.23	  488.91
     68.5700	 2471.00	 2420.73	-2307.48	  488.81
     68.6700	 2550.00	 2589.95	-2397.70	  488.71
     68.7700	 2666.00	 2654.23	-2345.98	  488.61
     68.8700	 2555.00	 2596.69	-2399.44	  488.50
     68.9700	 2384.00	 2432.37	-2406.12	  488.40
     69.0700	 2256.00	 2198.36	-2300.11	  488.29
     69.1700	 1943.00	 1935.28	-2350.03	  488.19
     69.2700	 1701.00	 1675.74	-2332.49	  488.08
     69.3700	 1441.00	 1441.53	-2358.28	  487.97
     69.4700	 1268.00	 1244.68	-2334.43	  487.86
     69.5700	 1161.00	 1089.02	-2285.77	  487.75
     69.6700	 1041.00	  972.42	-2289.18	  487.64
     69.7700	  941.00	  889.11	-2305.86	  487.53
     69.8700	  877.00	  831.80	-2312.55	  487.42
     69.9700	  840.00	  793.42	-2311.17	  487.30
     70.0700	  820.00	  768.04	-2305.79	  487.19
     70.1700	  799.00	  751.20	-2309.95	  487.07
     70.2700	  779.00	  739.84	-2318.59	  486.95
     70.3700	  732.00	  732.01	-2357.75	  486.83
     70.4700	  737.00	  726.53	-2347.28	  486.71
     70.5700	  710.00	  722.73	-2370.48	  486.59
     70.6700	  795.00	  720.25	-2283.00	  486.47
     70.7700	  772.00	  718.93	-2304.68	  486.34
     70.8700	  696.00	  718.73	-2380.48	  486.22
     70.9700	  751.00	  719.72	-2326.47	  486.09
     71.0700	  704.00	  722.13	-2375.88	  485.97
     71.1700	  708.00	  726.41	-2376.16	  485.84
     71.2700	  803.00	  733.12	-2287.87	  485.71
     71.3700	  767.00	  743.90	-2334.65	  485.58
     71.4700	  769.00	  760.42	-2349.17	  485.45
     71.5700	  812.00	  785.35	-2331.10	  485.32
     71.6700	  797.00	  822.18	-2382.93	  485.19
     71.7700	  925.00	  874.97	-2307.72	  485.05
     71.8700	  991.00	  948.09	-2314.84	  484.92
     71.9700	 1083.00	 1045.24	-2319.99	  484.78
     72.0700	 1137.00	 1168.54	-2389.29	  484.64
     72.1700	 1354.00	 1317.22	-2320.97	  484.51
     72.2700	 1488.00	 1486.49	-2356.24	  484.37
     72.3700	 1761.00	 1666.71	-2263.46	  484.23
     72.4700	 1790.00	 1842.46	-2410.21	  484.09
     72.5700	 2017.00	 1992.68	-2333.43	  483.95
     72.6700	 2003.00	 2092.95	-2447.70	  483.80
     72.7700	 2069.00	 2122.66	-2411.41	  483.66
     72.8700	 2000.00	 2074.89	-2432.64	  483.52
     72.9700	 1886.00	 1960.51	-2432.26	  483.37
     73.0700	 1783.00	 1802.59	-2377.34	  483.22
     73.1700	 1648.00	 1623.76	-2333.51	  483.08
     73.2700	 1389.00	 1444.57	-2413.32	  482.93
     73.3700	 1215.00	 1278.92	-2421.67	  482.78
     73.4700	 1118.00	 1135.23	-2374.98	  482.63
     73.5700	  972.00	 1017.09	-2402.84	  482.48
     73.6700	  892.00	  924.48	-2390.23	  482.33
     73.7700	  840.00	  854.86	-2372.61	  482.17
     73.8700	  805.00	  804.32	-2357.07	  482.02
     73.9700	  808.00	  768.66	-2318.41	  481.86
     74.0700	  796.00	  743.98	-2305.73	  481.71
     74.1700	  756.00	  726.58	-2328.33	  481.55
     74.2700	  719.00	  715.14	-2353.89	  481.40
     74.3700	  705.00	  707.49	-2360.24	  481.24
     74.4700	  714.00	  702.59	-2346.34	  481.08
     74.5700	  724.00	  699.80	-2333.55	  480.92
     74.6700	  717.00	  698.69	-2339.44	  480.76
     74.7700	  747.00	  698.99	-2309.74	  480.60
     74.8700	  713.00	  700.42	-2345.17	  480.43
     74.9700	  738.00	  702.61	-2322.36	  480.27
     75.0700	  732.00	  705.31	-2331.06	  480.11
     75.1700	  732.00	  707.97	-2333.72	  479.94
     75.2700	  715.00	  710.03	-2352.78	  479.78
     75.3700	  734.00	  710.96	-2334.71	  479.61
     75.4700	  762.00	  710.49	-2306.24	  479.44
     75.5700	  779.00	  708.76	-2287.51	  479.28
     75.6700	  745.00	  706.31	-2319.06	  479.11
     75.7700	  747.00	  703.92	-2314.67	  478.94
     75.8700	  701.00	  702.42	-2359.17	  478.77
     75.9700	  720.00	  702.88	-2340.63	  478.60
     76.0700	  733.00	  706.26	-2331.01	  478.43
     76.1700	  742.00	  713.66	-2329.41	  478.25
     76.2700	  751.00	  726.25	-2333.00	  478.08
     76.3700	  722.00	  745.17	-2380.92	  477.91
     76.4700	  783.00	  771.43	-2346.18	  477.73
     76.5700	  805.00	  805.63	-2358.38	  477.56
     76.6700	  826.00	  847.81	-2379.56	  477.38
     76.7700	  910.00	  897.09	-2344.84	  477.20
     76.8700	  945.00	  951.50	-2364.25	  477.03
     76.9700	 1051.00	 1007.78	-2314.53	  476.85
     77.0700	 1026.00	 1061.27	-2393.02	  476.67
     77.1700	 1045.00	 1106.01	-2418.76	  476.49
     77.2700	 1144.00	 1135.43	-2349.18	  476.31
     77.3700	 1155.00	 1144.19	-2346.94	  476.13
     77.4700	 1112.00	 1130.46	-2376.21	  475.95
     77.5700	 1044.00	 1096.85	-2410.60	  475.77
     77.6700	 1034.00	 1049.05	-2372.80	  475.59
     77.7700	  951.00	  993.41	-2400.16	  475.40
     77.8700	  945.00	  936.04	-2348.79	  475.22
     77.9700	  903.00	  881.11	-2335.86	  475.03
     78.0700	  810.00	  831.55	-2379.30	  474.85
     78.1700	  780.00	  789.01	-2366.76	  474.66
     78.2700	  802.00	  754.10	-2309.85	  474.48
     78.3700	  723.00	  726.58	-2361.33	  474.29
     78.4700	  676.00	  705.66	-2387.41	  474.10
     78.5700	  688.00	  690.25	-2360.00	  473.92
     78.6700	  695.00	  679.18	-2341.93	  473.73
     78.7700	  703.00	  671.39	-2326.14	  473.54
     78.8700	  658.00	  665.97	-2365.72	  473.35
     78.9700	  643.00	  662.22	-2376.97	  473.16
     79.0700	  640.00	  659.58	-2377.33	  472.97
     79.1700	  668.00	  657.81	-2347.56	  472.78
     79.2700	  640.00	  656.65	-2374.40	  472.59
     79.3700	  680.00	  655.96	-2333.71	  472.40
     79.4700	  648.00	  655.68	-2365.43	  472.20
     79.5700	  667.00	  655.79	-2346.54	  472.01
     79.6700	  670.00	  656.30	-2344.05	  471.82
     79.7700	  621.00	  657.27	-2394.02	  471.63
     79.8700	  655.00	  658.78	-2361.53	  471.43
     79.9700	  644.00	  660.97	-2374.72	  471.24
     80.0700	  684.00	  664.05	-2337.80	  471.04
     80.1700	  628.00	  668.38	-2398.13	  470.85
     80.2700	  691.00	  674.47	-2341.22	  470.65
     80.3700	  711.00	  683.08	-2329.83	  470.45
     80.4700	  760.00	  695.31	-2293.06	  470.26
     80.5700	  716.00	  712.35	-2354.10	  470.06
     80.6700	  790.00	  736.53	-2304.28	  469.86
     80.7700	  820.00	  769.68	-2307.43	  469.67
     80.8700	  907.00	  813.92	-2264.67	  469.47
     80.9700	  927.00	  871.14	-2301.89	  469.27
     81.0700	  985.00	  942.59	-2315.34	  469.07
     81.1700	  979.00	 1028.35	-2407.10	  468.87
     81.2700	 1243.00	 1126.81	-2241.56	  468.67
     81.3700	 1300.00	 1234.35	-2292.10	  468.47
     81.4700	 1328.00	 1344.99	-2374.74	  468.27
     81.5700	 1454.00	 1450.64	-2354.39	  468.07
     81.6700	 1566.00	 1541.81	-2333.56	  467.87
     81.7700	 1675.00	 1609.40	-2292.15	  467.67
     81.8700	 1625.00	 1646.87	-2379.62	  467.47
     81.9700	 1547.00	 1651.69	-2462.44	  467.27
     82.0700	 1662.00	 1625.07	-2320.82	  467.07
     82.1700	 1614.00	 1571.16	-2314.91	  466.86
     82.2700	 1494.00	 1496.41	-2360.16	  466.66
     82.3700	 1380.00	 1408.51	-2386.26	  466.46
     82.4700	 1283.00	 1315.05	-2389.80	  466.26
     82.5700	 1206.00	 1222.24	-2373.99	  466.06
     82.6700	 1093.00	 1134.68	-2399.43	  465.85
     82.7700	 1026.00	 1055.40	-2387.15	  465.65
     82.8700	  932.00	  986.04	-2411.79	  465.45
     82.9700	  891.00	  926.92	-2393.67	  465.24
     83.0700	  784.00	  877.32	-2451.07	  465.04
     83.1700	  820.00	  835.92	-2373.67	  464.84
     83.2700	  755.00	  801.32	-2404.07	  464.63
     83.3700	  757.00	  772.44	-2373.19	  464.43
     83.4700	  704.00	  748.49	-2402.24	  464.22
     83.5700	  701.00	  728.99	-2385.74	  464.02
     83.6700	  704.00	  713.63	-2367.38	  463.81
     83.7700	  649.00	  702.19	-2410.94	  463.61
     83.8700	  644.00	  694.49	-2408.24	  463.41
     83.9700	  676.00	  690.33	-2372.08	  463.20
     84.0700	  717.00	  689.43	-2330.18	  463.00
     84.1700	  706.00	  691.40	-2343.15	  462.79
     84.2700	  700.00	  695.73	-2353.48	  462.59
     84.3700	  672.00	  701.55	-2387.30	  462.38
     84.4700	  657.00	  708.38	-2409.13	  462.18
     84.5700	  693.00	  715.10	-2379.85	  461.97
     84.6700	  672.00	  720.64	-2406.39	  461.77
     84.7700	  676.00	  723.93	-2405.68	  461.56
     84.8700	  730.00	  724.36	-2352.11	  461.36
     84.9700	  726.00	  721.53	-2353.28	  461.15
     85.0700	  686.00	  715.70	-2387.45	  460.95
     85.1700	  672.00	  707.57	-2393.32	  460.74
     85.2700	  667.00	  698.02	-2388.77	  460.54
     85.3700	  673.00	  687.93	-2372.68	  460.33
     85.4700	  659.00	  678.07	-2376.82	  460.13
     85.5700	  695.00	  669.03	-2331.78	  459.92
     85.6700	  620.00	  661.27	-2399.02	  459.72
     85.7700	  679.00	  655.09	-2333.84	  459.52
     85.8700	  655.00	  650.67	-2353.42	  459.31
     85.9700	  654.00	  648.09	-2351.84	  459.11
     86.0700	  700.00	  647.38	-2305.13	  458.90
     86.1700	  635.00	  648.53	-2371.28	  458.70
     86.2700	  658.00	  651.52	-2351.27	  458.50
     86.3700	  680.00	  656.29	-2334.04	  458.29
     86.4700	  641.00	  662.76	-2379.51	  458.09
     86.5700	  663.00	  670.78	-2365.53	  457.89
     86.6700	  707.00	  680.14	-2330.89	  457.68
     86.7700	  688.00	  690.55	-2360.30	  457.48
     86.8700	  691.00	  701.62	-2368.37	  457.28
     86.9700	  720.00	  712.85	-2350.60	  457.07
     87.0700	  708.00	  723.69	-2373.44	  456.87
     87.1700	  716.00	  733.58	-2375.33	  456.67
     87.2700	  712.00	  742.10	-2387.85	  456.47
     87.3700	  685.00	  749.18	-2421.93	  456.27
     87.4700	  715.00	  755.04	-2397.79	  456.07
     87.5700	  755.00	  760.20	-2362.95	  455.87
     87.6700	  727.00	  765.22	-2395.97	  455.67
     87.7700	  799.00	  770.49	-2329.24	  455.46
     87.8700	  726.00	  776.16	-2407.91	  455.26
     87.9700	  743.00	  782.07	-2396.82	  455.07
     88.0700	  810.00	  787.73	-2335.48	  454.87
     88.1700	  753.00	  792.37	-2397.12	  454.67
     88.2700	  790.00	  795.02	-2362.77	  454.47
     88.3700	  844.00	  794.76	-2308.51	  454.27
     88.4700	  780.00	  790.98	-2368.73	  454.07
     88.5700	  757.00	  783.59	-2384.34	  453.87
     88.6700	  743.00	  773.09	-2387.84	  453.68
     88.7700	  726.00	  760.33	-2392.08	  453.48
     88.8700	  698.00	  746.30	-2406.05	  453.28
     88.9700	  757.00	  731.51	-2332.26	  453.09
     89.0700	  672.00	  717.67	-2403.42	  452.89
     89.1700	  700.00	  705.04	-2362.79	  452.70
     89.2700	  727.00	  694.14	-2324.89	  452.50
     89.3700	  720.00	  685.32	-2323.07	  452.31
     89.4700	  766.00	  678.74	-2270.49	  452.11
     89.5700	  672.00	  674.38	-2360.13	  451.92
     89.6700	  667.00	  672.07	-2362.82	  451.73
     89.7700	  716.00	  671.50	-2313.25	  451.54
     89.8700	  709.00	  672.25	-2321.00	  451.34
     89.9700	  739.00	  673.81	-2292.56	  451.15
     90.0700	  741.00	  675.63	-2292.38	  450.96
     90.1700	  757.00	  677.13	-2277.88	  450.77
     90.2700	  756.00	  677.78	-2279.53	  450.58
     90.3700	  725.00	  677.19	-2309.94	  450.39
     90.4700	  717.00	  675.19	-2315.94	  450.20
     90.5700	  743.00	  671.84	-2286.59	  450.02
     90.6700	  724.00	  667.42	-2301.17	  449.83
     90.7700	  666.00	  662.26	-2354.01	  449.64
     90.8700	  667.00	  656.75	-2347.50	  449.46
     90.9700	  695.00	  651.21	-2313.96	  449.27
     91.0700	  667.00	  645.92	-2336.67	  449.09
     91.1700	  632.00	  641.08	-2366.83	  448.90
     91.2700	  640.00	  636.82	-2354.57	  448.72
     91.3700	  618.00	  633.23	-2372.98	  448.54
     91.4700	  632.00	  630.33	-2356.08	  448.35
     91.5700	  649.00	  628.11	-2336.86	  448.17
     91.6700	  607.00	  626.51	-2377.26	  447.99
     91.7700	  601.00	  625.49	-2382.24	  447.81
     91.8700	  622.00	  625.00	-2360.75	  447.63
     91.9700	  632.00	  625.01	-2350.76	  447.45
     92.0700	  609.00	  625.49	-2374.24	  447.27
     92.1700	  655.00	  626.48	-2329.23	  447.10
     92.2700	  657.00	  628.03	-2328.78	  446.92
     92.3700	  585.00	  630.24	-2402.99	  446.74
     92.4700	  614.00	  633.25	-2377.00	  446.57
     92.5700	  650.00	  637.24	-2344.99	  446.39
     92.6700	  595.00	  642.42	-2405.17	  446.22
     92.7700	  649.00	  649.01	-2357.76	  446.05
     92.8700	  645.00	  657.24	-2369.99	  445.88
     92.9700	  681.00	  667.32	-2344.07	  445.71
     93.0700	  710.00	  679.40	-2327.15	  445.54
     93.1700	  731.00	  693.58	-2320.33	  445.37
     93.2700	  700.00	  709.83	-2367.58	  445.20
     93.3700	  704.00	  728.04	-2381.79	  445.03
     93.4700	  706.00	  747.94	-2399.69	  444.86
     93.5700	  756.00	  769.11	-2370.86	  444.70
     93.6700	  795.00	  790.98	-2353.73	  444.53
     93.7700	  782.00	  812.86	-2388.61	  444.37
     93.8700	  783.00	  833.94	-2408.69	  444.20
     93.9700	  881.00	  853.44	-2330.19	  444.04
     94.0700	  815.00	  870.79	-2413.54	  443.88
     94.1700	  850.00	  885.80	-2393.55	  443.72
     94.2700	  862.00	  898.77	-2394.52	  443.56
     94.3700	  843.00	  910.40	-2425.15	  443.40
     94.4700	  921.00	  921.54	-2358.29	  443.25
     94.5700	  970.00	  932.70	-2320.45	  443.09
     94.6700	  946.00	  945.14	-2356.89	  442.93
     94.7700	  910.00	  958.91	-2406.66	  442.78
     94.8700	  941.00	  974.18	-2390.93	  442.63
     94.9700	 1039.00	  990.97	-2309.72	  442.47
     95.0700	 1012.00	 1009.25	-2355.00	  442.32
     95.1700	 1034.00	 1028.83	-2352.58	  442.17
     95.2700	  994.00	 1049.32	-2413.07	  442.02
     95.3700	 1083.00	 1069.92	-2344.67	  441.87
     95.4700	 1148.00	 1089.39	-2299.14	  441.73
     95.5700	 1129.00	 1106.02	-2334.77	  441.58
     95.6700	 1091.00	 1117.86	-2384.61	  441.44
     95.7700	 1130.00	 1122.97	-2350.72	  441.29
     95.8700	 1056.00	 1119.77	-2421.52	  441.15
     95.9700	 1039.00	 1107.58	-2426.33	  441.01
     96.0700	 1034.00	 1086.76	-2410.51	  440.87
     96.1700	 1059.00	 1058.69	-2357.44	  440.73
     96.2700	 1015.00	 1025.44	-2368.19	  440.59
     96.3700	  960.00	  989.42	-2387.17	  440.45
     96.4700	 1013.00	  953.08	-2297.83	  440.32
     96.5700	  928.00	  918.74	-2348.49	  440.18
     96.6700	  904.00	  888.48	-2342.23	  440.05
     96.7700	  874.00	  864.12	-2347.87	  439.92
     96.8700	  894.00	  847.18	-2310.93	  439.78
     96.9700	  843.00	  838.88	-2353.63	  439.66
     97.0700	  895.00	  840.17	-2302.92	  439.53
     97.1700	  908.00	  851.74	-2301.49	  439.40
     97.2700	  887.00	  874.03	-2344.78	  439.27
     97.3700	  960.00	  907.26	-2305.01	  439.15
     97.4700	 1022.00	  951.36	-2287.11	  439.02
     97.5700	 1071.00	 1005.92	-2292.67	  438.90
     97.6700	 1069.00	 1070.14	-2358.89	  438.78
     97.7700	 1122.00	 1142.75	-2378.50	  438.66
     97.8700	 1222.00	 1221.95	-2357.70	  438.54
     97.9700	 1308.00	 1305.31	-2355.06	  438.43
     98.0700	 1382.00	 1389.77	-2365.52	  438.31
     98.1700	 1410.00	 1471.62	-2419.37	  438.20
     98.2700	 1478.00	 1546.63	-2426.38	  438.08
     98.3700	 1604.00	 1610.20	-2363.95	  437.97
     98.4700	 1587.00	 1657.83	-2428.58	  437.86
     98.5700	 1619.00	 1685.86	-2424.61	  437.75
     98.6700	 1597.00	 1692.13	-2452.88	  437.65
     98.7700	 1642.00	 1676.56	-2392.31	  437.54
     98.8700	 1654.00	 1641.10	-2344.85	  437.43
     98.9700	 1562.00	 1589.21	-2384.96	  437.33
     99.0700	 1529.00	 1525.18	-2353.93	  437.23
     99.1700	 1414.00	 1453.52	-2397.27	  437.13
     99.2700	 1307.00	 1378.52	-2429.27	  437.03
     99.3700	 1357.00	 1304.06	-2304.81	  436.93
     99.4700	 1208.00	 1233.52	-2383.27	  436.84
     99.5700	 1195.00	 1169.73	-2332.48	  436.74
     99.6700	 1092.00	 1114.98	-2380.73	  436.65
     99.7700	 1077.00	 1071.10	-2351.85	  436.56
     99.8700	 1077.00	 1039.48	-2320.23	  436.47
     99.9700	 1061.00	 1021.18	-2317.93	  436.38
    100.0700	 1021.00	 1016.91	-2353.66	  436.29
    100.1700	 1092.00	 1027.07	-2292.82	  436.21
    100.2700	 1050.00	 1051.75	-2359.50	  436.12
    100.3700	 1104.00	 1090.76	-2344.51	  436.04
    100.4700	 1219.00	 1143.55	-2282.30	  435.96
    100.5700	 1212.00	 1209.27	-2355.02	  435.88
    100.6700	 1284.00	 1286.63	-2360.38	  435.80
    100.7700	 1411.00	 1373.92	-2320.67	  435.73
    100.8700	 1516.00	 1468.96	-2310.71	  435.65
    100.9700	 1576.00	 1569.01	-2350.76	  435.58
    101.0700	 1659.00	 1670.79	-2369.54	  435.51
    101.1700	 1805.00	 1770.91	-2323.66	  435.44
    101.2700	 1799.00	 1865.48	-2424.23	  435.37
    101.3700	 1891.00	 1950.95	-2417.70	  435.30
    101.4700	 2090.00	 2024.37	-2292.12	  435.24
    101.5700	 2060.00	 2083.74	-2381.49	  435.18
    101.6700	 2158.00	 2127.92	-2327.67	  435.12
    101.7700	 2161.00	 2156.43	-2353.18	  435.06
    101.8700	 2239.00	 2169.08	-2287.83	  435.00
    101.9700	 2194.00	 2165.71	-2329.46	  434.94
    102.0700	 2127.00	 2146.29	-2377.04	  434.89
    102.1700	 2128.00	 2111.26	-2341.01	  434.83
    102.2700	 2083.00	 2061.91	-2336.66	  434.78
    102.3700	 2069.00	 2000.60	-2289.35	  434.73
    102.4700	 2013.00	 1930.63	-2275.38	  434.69
    102.5700	 1862.00	 1855.77	-2351.52	  434.64
    102.6700	 1881.00	 1779.81	-2256.56	  434.60
    102.7700	 1901.00	 1706.13	-2162.88	  434.55
    102.8700	 1695.00	 1637.31	-2300.06	  434.51
    102.9700	 1624.00	 1575.19	-2308.94	  434.47
    103.0700	 1516.00	 1520.72	-2362.47	  434.44
    103.1700	 1428.00	 1474.12	-2403.87	  434.40
    103.2700	 1486.00	 1434.94	-2306.69	  434.37
    103.3700	 1342.00	 1402.06	-2417.81	  434.34
    103.4700	 1372.00	 1373.91	-2359.66	  434.31
    103.5700	 1314.00	 1348.51	-2392.26	  434.28
    103.6700	 1331.00	 1323.76	-2350.51	  434.25
    103.7700	 1209.00	 1297.67	-2446.42	  434.23
    103.8700	 1267.00	 1268.69	-2359.44	  434.21
    103.9700	 1283.00	 1235.90	-2310.65	  434.19
    104.0700	 1186.00	 1199.13	-2370.88	  434.17
    104.1700	 1158.00	 1158.81	-2358.56	  434.15
    104.2700	 1130.00	 1115.83	-2343.58	  434.14
    104.3700	 1110.00	 1071.28	-2319.03	  434.13
    104.4700	  983.00	 1026.26	-2401.01	  434.12
    104.5700	 1017.00	  981.86	-2322.61	  434.11
    104.6700	 1007.00	  938.98	-2289.73	  434.10
    104.7700	  937.00	  898.41	-2319.16	  434.09
    104.8700	  926.00	  860.74	-2292.49	  434.09
    104.9700	  875.00	  826.43	-2309.18	  434.09
    105.0700	  819.00	  795.64	-2334.39	  434.09
    105.1700	  787.00	  768.64	-2339.39	  434.09
    105.2700	  775.00	  745.30	-2328.05	  434.10
    105.3700	  764.00	  725.47	-2319.22	  434.11
    105.4700	  763.00	  708.91	-2303.66	  434.11
    105.5700	  683.00	  695.32	-2370.07	  434.13
    105.6700	  743.00	  684.37	-2299.12	  434.14
    105.7700	  730.00	  675.73	-2303.48	  434.15
    105.8700	  700.00	  669.02	-2326.77	  434.17
    105.9700	  715.00	  664.07	-2306.82	  434.19
    106.0700	  689.00	  660.59	-2329.34	  434.21
    106.1700	  662.00	  658.38	-2354.13	  434.23
    106.2700	  603.00	  657.30	-2412.05	  434.26
    106.3700	  691.00	  657.24	-2323.99	  434.29
    106.4700	  663.00	  658.16	-2352.91	  434.32
    106.5700	  657.00	  660.03	-2360.78	  434.35
    106.6700	  629.00	  662.86	-2391.61	  434.38
    106.7700	  670.00	  666.68	-2354.43	  434.42
    106.8700	  668.00	  671.56	-2361.31	  434.45
    106.9700	  660.00	  677.53	-2375.28	  434.49
    107.0700	  691.00	  684.67	-2351.42	  434.54
    107.1700	  716.00	  693.01	-2334.76	  434.58
    107.2700	  667.00	  702.56	-2393.31	  434.63
    107.3700	  689.00	  713.30	-2382.05	  434.67
    107.4700	  696.00	  725.14	-2386.89	  434.72
    107.5700	  694.00	  737.95	-2401.70	  434.78
    107.6700	  706.00	  751.53	-2403.28	  434.83
    107.7700	  744.00	  765.62	-2379.37	  434.89
    107.8700	  762.00	  779.88	-2375.63	  434.95
    107.9700	  783.00	  793.92	-2368.67	  435.01
    108.0700	  799.00	  807.31	-2366.06	  435.07
    108.1700	  769.00	  819.60	-2408.35	  435.14
    108.2700	  780.00	  830.30	-2408.05	  435.21
    108.3700	  803.00	  839.04	-2393.79	  435.28
    108.4700	  826.00	  845.50	-2377.25	  435.35
    108.5700	  837.00	  849.56	-2370.31	  435.42
    108.6700	  763.00	  851.34	-2446.09	  435.50
    108.7700	  795.00	  851.10	-2413.85	  435.58
    108.8700	  824.00	  849.26	-2383.01	  435.66
    108.9700	  800.00	  846.35	-2404.10	  435.75
    109.0700	  811.00	  842.89	-2389.64	  435.83
    109.1700	  766.00	  839.37	-2431.12	  435.92
    109.2700	  780.00	  836.21	-2413.96	  436.01
    109.3700	  768.00	  833.72	-2423.47	  436.10
    109.4700	  778.00	  832.11	-2411.86	  436.20
    109.5700	  777.00	  831.48	-2412.23	  436.30
    109.6700	  760.00	  831.78	-2429.53	  436.40
    109.7700	  752.00	  832.88	-2438.63	  436.50
    109.8700	  788.00	  834.50	-2404.25	  436.60
    109.9700	  776.00	  836.31	-2418.06	  436.71
    110.0700	  773.00	  837.86	-2422.61	  436.82
    110.1700	  815.00	  838.69	-2381.44	  436.93
    110.2700	  782.00	  838.35	-2414.10	  437.04
    110.3700	  816.00	  836.49	-2378.24	  437.16
    110.4700	  831.00	  832.84	-2359.59	  437.28
    110.5700	  802.00	  827.33	-2383.08	  437.40
    110.6700	  771.00	  820.02	-2406.77	  437.52
    110.7700	  823.00	  811.12	-2345.87	  437.65
    110.8700	  722.00	  800.94	-2436.69	  437.78
    110.9700	  798.00	  789.82	-2349.57	  437.91
    111.0700	  754.00	  778.11	-2381.86	  438.04
    111.1700	  768.00	  766.17	-2355.92	  438.18
    111.2700	  723.00	  754.31	-2389.06	  438.31
    111.3700	  778.00	  742.79	-2322.54	  438.45
    111.4700	  718.00	  731.85	-2371.60	  438.60
    111.5700	  749.00	  721.67	-2330.42	  438.74
    111.6700	  727.00	  712.40	-2343.15	  438.89
    111.7700	  683.00	  704.14	-2378.89	  439.04
    111.8700	  702.00	  696.94	-2352.69	  439.19
    111.9700	  697.00	  690.82	-2351.57	  439.34
    112.0700	  670.00	  685.78	-2373.53	  439.50
    112.1700	  654.00	  681.77	-2385.52	  439.66
    112.2700	  645.00	  678.73	-2391.48	  439.82
    112.3700	  642.00	  676.59	-2392.34	  439.99
    112.4700	  638.00	  675.24	-2394.99	  440.15
    112.5700	  649.00	  674.59	-2383.34	  440.32
    112.6700	  620.00	  674.55	-2412.30	  440.50
    112.7700	  699.00	  675.01	-2333.76	  440.67
    112.8700	  668.00	  675.87	-2365.62	  440.85
    112.9700	  681.00	  677.06	-2353.81	  441.03
    113.0700	  671.00	  678.49	-2365.24	  441.21
    113.1700	  632.00	  680.10	-2405.85	  441.39
    113.2700	  724.00	  681.84	-2315.59	  441.58
    113.3700	  641.00	  683.69	-2400.44	  441.77
    113.4700	  631.00	  685.64	-2412.39	  441.96
    113.5700	  658.00	  687.69	-2387.44	  442.16
    113.6700	  643.00	  689.87	-2404.62	  442.35
    113.7700	  646.00	  692.22	-2403.97	  442.55
    113.8700	  669.00	  694.79	-2383.54	  442.76
    113.9700	  636.00	  697.63	-2419.38	  442.96
    114.0700	  696.00	  700.85	-2362.60	  443.17
    114.1700	  632.00	  704.53	-2430.28	  443.38
    114.2700	  714.00	  708.79	-2352.54	  443.59
    114.3700	  745.00	  713.79	-2326.54	  443.81
    114.4700	  755.00	  719.71	-2322.46	  444.02
    114.5700	  757.00	  726.81	-2327.56	  444.24
    114.6700	  660.00	  735.40	-2433.15	  444.47
    114.7700	  736.00	  745.90	-2367.65	  444.69
    114.8700	  797.00	  758.83	-2319.58	  444.92
    114.9700	  849.00	  774.84	-2283.59	  445.15
    115.0700	  803.00	  794.77	-2349.52	  445.38
    115.1700	  837.00	  819.63	-2340.38	  445.62
    115.2700	  888.00	  850.65	-2320.40	  445.86
    115.3700	  918.00	  889.33	-2329.08	  446.10
    115.4700	  979.00	  937.40	-2316.15	  446.34
    115.5700	 1107.00	  996.86	-2247.61	  446.59
    115.6700	 1170.00	 1069.98	-2257.73	  446.84
    115.7700	 1243.00	 1159.23	-2273.98	  447.09
    115.8700	 1443.00	 1267.33	-2182.08	  447.34
    115.9700	 1567.00	 1397.02	-2187.77	  447.60
    116.0700	 1782.00	 1551.14	-2126.89	  447.86
    116.1700	 2032.00	 1732.35	-2058.10	  448.12
    116.2700	 2209.00	 1943.01	-2091.76	  448.38
    116.3700	 2499.00	 2185.14	-2043.89	  448.65
    116.4700	 2792.00	 2459.99	-2025.74	  448.92
    116.5700	 2959.00	 2768.13	-2166.88	  449.19
    116.6700	 3350.00	 3108.98	-2116.73	  449.47
    116.7700	 3676.00	 3480.77	-2162.52	  449.75
    116.8700	 4069.00	 3880.58	-2169.33	  450.03
    116.9700	 4368.00	 4303.84	-2293.59	  450.31
    117.0700	 4833.00	 4744.77	-2269.52	  450.60
    117.1700	 5226.00	 5195.95	-2327.70	  450.88
    117.2700	 5487.00	 5648.65	-2519.40	  451.18
    117.3700	 5974.00	 6093.03	-2476.78	  451.47
    117.4700	 6297.00	 6517.99	-2578.74	  451.77
    117.5700	 6795.00	 6911.94	-2474.69	  452.06
    117.6700	 6978.00	 7262.76	-2642.51	  452.37
    117.7700	 7331.00	 7558.59	-2585.34	  452.67
    117.8700	 7439.00	 7788.66	-2707.41	  452.98
    117.9700	 7665.00	 7943.84	-2636.59	  453.29
    118.0700	 7795.00	 8017.87	-2580.62	  453.60
    118.1700	 7626.00	 8007.78	-2739.53	  453.92
    118.2700	 7737.00	 7914.46	-2535.21	  454.23
    118.3700	 7474.00	 7742.42	-2626.17	  454.55
    118.4700	 7123.00	 7499.33	-2734.08	  454.88
    118.5700	 6934.00	 7195.05	-2618.80	  455.20
    118.6700	 6510.00	 6840.91	-2688.66	  455.53
    118.7700	 6177.00	 6448.86	-2629.61	  455.86
    118.8700	 5941.00	 6030.62	-2447.38	  456.20
    118.9700	 5599.00	 5597.56	-2356.31	  456.54
    119.0700	 5113.00	 5159.89	-2404.64	  456.88
    119.1700	 4833.00	 4726.86	-2251.61	  457.22
    119.2700	 4610.00	 4306.41	-2054.16	  457.56
    119.3700	 4326.00	 3904.86	-1936.61	  457.91
    119.4700	 3807.00	 3527.32	-2078.07	  458.26
    119.5700	 3458.00	 3177.26	-2077.01	  458.61
    119.6700	 3239.00	 2856.96	-1975.71	  458.97
    119.7700	 2749.00	 2567.49	-2176.24	  459.33
    119.8700	 2520.00	 2308.76	-2146.51	  459.69
    119.9700	 2454.00	 2079.99	-1983.74	  460.05
    120.0700	 2122.00	 1879.59	-2115.34	  460.42
    120.1700	 1980.00	 1705.62	-2083.37	  460.79
    120.2700	 1823.00	 1555.81	-2090.56	  461.16
    120.3700	 1623.00	 1427.64	-2162.39	  461.54
    120.4700	 1526.00	 1318.67	-2150.42	  461.91
    120.5700	 1438.00	 1226.42	-2146.17	  462.30
    120.6700	 1329.00	 1148.59	-2177.34	  462.68
    120.7700	 1250.00	 1083.10	-2190.85	  463.06
    120.8700	 1181.00	 1028.00	-2204.75	  463.45
    120.9700	 1112.00	  981.65	-2227.40	  463.84
    121.0700	 1042.00	  942.62	-2258.37	  464.24
    121.1700	 1010.00	  909.68	-2257.43	  464.64
    121.2700	  933.00	  881.84	-2306.59	  465.03
    121.3700	  892.00	  858.26	-2324.01	  465.44
    121.4700	  832.00	  838.29	-2364.04	  465.84
    121.5700	  855.00	  821.38	-2324.13	  466.25
    121.6700	  813.00	  807.10	-2351.85	  466.66
    121.7700	  814.00	  795.12	-2338.87	  467.07
    121.8700	  737.00	  785.16	-2405.91	  467.49
    121.9700	  694.00	  777.00	-2440.75	  467.91
    122.0700	  766.00	  770.48	-2362.23	  468.33
    122.1700	  706.00	  765.47	-2417.22	  468.75
    122.2700	  705.00	  761.83	-2414.58	  469.18
    122.3700	  743.00	  759.50	-2374.25	  469.61
    122.4700	  698.00	  758.38	-2418.13	  470.04
    122.5700	  738.00	  758.42	-2378.17	  470.48
    122.6700	  743.00	  759.55	-2374.30	  470.91
    122.7700	  720.00	  761.71	-2399.46	  471.35
    122.8700	  699.00	  764.86	-2423.61	  471.80
    122.9700	  720.00	  768.94	-2406.69	  472.24
    123.0700	  729.00	  773.88	-2402.63	  472.69
    123.1700	  743.00	  779.63	-2394.38	  473.14
    123.2700	  717.00	  786.10	-2426.85	  473.60
    123.3700	  757.00	  793.22	-2393.97	  474.05
    123.4700	  741.00	  800.90	-2417.65	  474.51
    123.5700	  805.00	  809.03	-2361.78	  474.98
    123.6700	  739.00	  817.50	-2436.25	  475.44
    123.7700	  752.00	  826.20	-2431.95	  475.91
    123.8700	  811.00	  835.00	-2381.75	  476.38
    123.9700	  804.00	  843.76	-2397.51	  476.85
    124.0700	  856.00	  852.36	-2354.11	  477.33
    124.1700	  839.00	  860.66	-2379.41	  477.81
    124.2700	  847.00	  868.54	-2379.29	  478.29
    124.3700	  847.00	  875.90	-2386.65	  478.77
    124.4700	  860.00	  882.66	-2380.41	  479.26
    124.5700	  811.00	  888.76	-2435.51	  479.75
    124.6700	  838.00	  894.17	-2413.92	  480.24
    124.7700	  874.00	  898.95	-2382.70	  480.73
    124.8700	  875.00	  903.10	-2385.85	  481.23
    124.9700	  948.00	  626.43	-2036.18	  481.73
    125.0700	  883.00	  626.93	-2357.75	  482.23
    125.1700	  902.00	  627.43	-2357.75	  482.74
    125.2700	  859.00	  627.94	-2357.75	  483.25
    125.3700	  872.00	  628.45	-2357.75	  483.76
    125.4700	  882.00	  628.97	-2357.75	  484.27
    125.5700	  860.00	  629.48	-2357.75	  484.79
    125.6700	  820.00	  630.00	-2357.75	  485.30
    125.7700	  872.00	  630.52	-2357.75	  485.83
    125.8700	  871.00	  631.05	-2357.75	  486.35
    125.9700	  848.00	  631.57	-2357.75	  486.88
    126.0700	  822.00	  632.10	-2357.75	  487.41
    126.1700	  889.00	  632.63	-2357.75	  487.94
    126.2700	  872.00	  633.17	-2357.75	  488.47
    126.3700	  825.00	  633.71	-2357.75	  489.01
    126.4700	  874.00	  634.25	-2357.75	  489.55
    126.5700	  819.00	  634.79	-2357.75	  490.09
    126.6700	  806.00	  635.33	-2357.75	  490.64
    126.7700	  794.00	  635.88	-2357.75	  491.18
    126.8700	  806.00	  636.43	-2357.75	  491.73
    126.9700	  828.00	  636.98	-2357.75	  492.29
    127.0700	  787.00	  637.54	-2357.75	  492.84
    127.1700	  793.00	  638.10	-2357.75	  493.40
    127.2700	  740.00	  638.66	-2357.75	  493.96
    127.3700	  703.00	  639.22	-2357.75	  494.53
    127.4700	  734.00	  639.79	-2357.75	  495.09
    127.5700	  734.00	  640.36	-2357.75	  495.66
    127.6700	  710.00	  640.93	-2357.75	  496.23
    127.7700	  728.00	  641.50	-2357.75	  496.81
    127.8700	  686.00	  642.08	-2357.75	  497.38
    127.9700	  682.00	  642.66	-2357.75	  497.96
    128.0700	  681.00	  643.24	-2357.75	  498.54
    128.1700	  698.00	  643.82	-2357.75	  499.13
    128.2700	  696.00	  644.41	-2357.75	  499.71
    128.3700	  706.00	  645.00	-2357.75	  500.30
    128.4700	  682.00	  645.59	-2357.75	  500.89
    128.5700	    0.00	  646.18	-2357.75	  501.49
    128.6700	    0.00	  646.78	-2357.75	  502.08
     12.4552	        	        	        	        	       0	(  0  0  2)	  0  1
     12.4552	        	        	        	        	    -589	(  0  0  2)	  0  1
     25.1515	        	        	        	        	       0	(  0  0  4)	  0  1
     25.1515	        	        	        	        	    -589	(  0  0  4)	  0  1
     28.5882	        	        	        	        	       0	(  1  0  0)	  0  1
     28.5882	        	        	        	        	    -589	(  1  0  0)	  0  1
     29.2927	        	        	        	        	       0	(  1  0  1)	  0  1
     29.2927	        	        	        	        	    -589	(  1  0  1)	  0  1
     31.3198	        	        	        	        	       0	(  1  0  2)	  0  1
     31.3198	        	        	        	        	    -589	(  1  0  2)	  0  1
     34.4604	        	        	        	        	       0	(  1  0  3)	  0  1
     34.4604	        	        	        	        	    -589	(  1  0  3)	  0  1
     38.1726	        	        	        	        	       0	(  0  0  6)	  0  1
     38.1726	        	        	        	        	    -589	(  0  0  6)	  0  1
     38.4788	        	        	        	        	       0	(  1  0  4)	  0  1
     38.4788	        	        	        	        	    -589	(  1  0  4)	  0  1
     43.1777	        	        	        	        	       0	(  1  0  5)	  0  1
     43.1777	        	        	        	        	    -589	(  1  0  5)	  0  1
     48.4173	        	        	        	        	       0	(  1  0  6)	  0  1
     48.4173	        	        	        	        	    -589	(  1  0  6)	  0  1
     50.7110	        	        	        	        	       0	(  1  1  0)	  0  1
     50.7110	        	        	        	        	    -589	(  1  1  0)	  0  1
     51.7315	        	        	        	        	       0	(  0  0  8)	  0  1
     51.7315	        	        	        	        	    -589	(  0  0  8)	  0  1
     52.4542	        	        	        	        	       0	(  1  1  2)	  0  1
     52.4542	        	        	        	        	    -589	(  1  1  2)	  0  1
     54.1099	        	        	        	        	       0	(  1  0  7)	  0  1
     54.1099	        	        	        	        	    -589	(  1  0  7)	  0  1
     57.4610	        	        	        	        	       0	(  1  1  4)	  0  1
     57.4610	        	        	        	        	    -589	(  1  1  4)	  0  1
     59.2887	        	        	        	        	       0	(  2  0  0)	  0  1
     59.2887	        	        	        	        	    -589	(  2  0  0)	  0  1
     59.6852	        	        	        	        	       0	(  2  0  1)	  0  1
     59.6852	        	        	        	        	    -589	(  2  0  1)	  0  1
     60.2099	        	        	        	        	       0	(  1  0  8)	  0  1
     60.2099	        	        	        	        	    -589	(  1  0  8)	  0  1
     60.8651	        	        	        	        	       0	(  2  0  2)	  0  1
     60.8651	        	        	        	        	    -589	(  2  0  2)	  0  1
     62.8025	        	        	        	        	       0	(  2  0  3)	  0  1
     62.8025	        	        	        	        	    -589	(  2  0  3)	  0  1
     65.2510	        	        	        	        	       0	(  1  1  6)	  0  1
     65.2510	        	        	        	        	    -589	(  1  1  6)	  0  1
     65.4602	        	        	        	        	       0	(  2  0  4)	  0  1
     65.4602	        	        	        	        	    -589	(  2  0  4)	  0  1
     66.1244	        	        	        	        	       0	(  0  0 10)	  0  1
     66.1244	        	        	        	        	    -589	(  0  0 10)	  0  1
     66.7046	        	        	        	        	       0	(  1  0  9)	  0  1
     66.7046	        	        	        	        	    -589	(  1  0  9)	  0  1
     68.7977	        	        	        	        	       0	(  2  0  5)	  0  1
     68.7977	        	        	        	        	    -589	(  2  0  5)	  0  1
     72.7785	        	        	        	        	       0	(  2  0  6)	  0  1
     72.7785	        	        	        	        	    -589	(  2  0  6)	  0  1
     73.6102	        	        	        	        	       0	(  1  0 10)	  0  1
     73.6102	        	        	        	        	    -589	(  1  0 10)	  0  1
     75.4233	        	        	        	        	       0	(  1  1  8)	  0  1
     75.4233	        	        	        	        	    -589	(  1  1  8)	  0  1
     77.3771	        	        	        	        	       0	(  2  0  7)	  0  1
     77.3771	        	        	        	        	    -589	(  2  0  7)	  0  1
     80.9719	        	        	        	        	       0	(  1  0 11)	  0  1
     80.9719	        	        	        	        	    -589	(  1  0 11)	  0  1
     81.7809	        	        	        	        	       0	(  2  1  0)	  0  1
     81.7809	        	        	        	        	    -589	(  2  1  0)	  0  1
     81.8165	        	        	        	        	       0	(  0  0 12)	  0  1
     81.8165	        	        	        	        	    -589	(  0  0 12)	  0  1
     82.1261	        	        	        	        	       0	(  2  1  1)	  0  1
     82.1261	        	        	        	        	    -589	(  2  1  1)	  0  1
     82.5847	        	        	        	        	       0	(  2  0  8)	  0  1
     82.5847	        	        	        	        	    -589	(  2  0  8)	  0  1
     83.1600	        	        	        	        	       0	(  2  1  2)	  0  1
     83.1600	        	        	        	        	    -589	(  2  1  2)	  0  1
     84.8784	        	        	        	        	       0	(  2  1  3)	  0  1
     84.8784	        	        	        	        	    -589	(  2  1  3)	  0  1
     87.2769	        	        	        	        	       0	(  2  1  4)	  0  1
     87.2769	        	        	        	        	    -589	(  2  1  4)	  0  1
     87.8835	        	        	        	        	       0	(  1  1 10)	  0  1
     87.8835	        	        	        	        	    -589	(  1  1 10)	  0  1
     88.4160	        	        	        	        	       0	(  2  0  9)	  0  1
     88.4160	        	        	        	        	    -589	(  2  0  9)	  0  1
     88.8707	        	        	        	        	       0	(  1  0 12)	  0  1
     88.8707	        	        	        	        	    -589	(  1  0 12)	  0  1
     90.3545	        	        	        	        	       0	(  2  1  5)	  0  1
     90.3545	        	        	        	        	    -589	(  2  1  5)	  0  1
     94.1186	        	        	        	        	       0	(  2  1  6)	  0  1
     94.1186	        	        	        	        	    -589	(  2  1  6)	  0  1
     94.9177	        	        	        	        	       0	(  2  0 10)	  0  1
     94.9177	        	        	        	        	    -589	(  2  0 10)	  0  1
     95.8736	        	        	        	        	       0	(  3  0  0)	  0  1
     95.8736	        	        	        	        	    -589	(  3  0  0)	  0  1
     96.2174	        	        	        	        	       0	(  3  0  1)	  0  1
     96.2174	        	        	        	        	    -589	(  3  0  1)	  0  1
     97.2503	        	        	        	        	       0	(  3  0  2)	  0  1
     97.2503	        	        	        	        	    -589	(  3  0  2)	  0  1
     97.4387	        	        	        	        	       0	(  1  0 13)	  0  1
     97.4387	        	        	        	        	    -589	(  1  0 13)	  0  1
     98.5921	        	        	        	        	       0	(  2  1  7)	  0  1
     98.5921	        	        	        	        	    -589	(  2  1  7)	  0  1
     98.9773	        	        	        	        	       0	(  3  0  3)	  0  1
     98.9773	        	        	        	        	    -589	(  3  0  3)	  0  1
     99.6668	        	        	        	        	       0	(  0  0 14)	  0  1
     99.6668	        	        	        	        	    -589	(  0  0 14)	  0  1
    101.4095	        	        	        	        	       0	(  3  0  4)	  0  1
    101.4095	        	        	        	        	    -589	(  3  0  4)	  0  1
    102.1838	        	        	        	        	       0	(  2  0 11)	  0  1
    102.1838	        	        	        	        	    -589	(  2  0 11)	  0  1
    103.0400	        	        	        	        	       0	(  1  1 12)	  0  1
    103.0400	        	        	        	        	    -589	(  1  1 12)	  0  1
    103.8230	        	        	        	        	       0	(  2  1  8)	  0  1
    103.8230	        	        	        	        	    -589	(  2  1  8)	  0  1
    104.5685	        	        	        	        	       0	(  3  0  5)	  0  1
    104.5685	        	        	        	        	    -589	(  3  0  5)	  0  1
    106.8946	        	        	        	        	       0	(  1  0 14)	  0  1
    106.8946	        	        	        	        	    -589	(  1  0 14)	  0  1
    108.4936	        	        	        	        	       0	(  3  0  6)	  0  1
    108.4936	        	        	        	        	    -589	(  3  0  6)	  0  1
    109.9012	        	        	        	        	       0	(  2  1  9)	  0  1
    109.9012	        	        	        	        	    -589	(  2  1  9)	  0  1
    110.3857	        	        	        	        	       0	(  2  0 12)	  0  1
    110.3857	        	        	        	        	    -589	(  2  0 12)	  0  1
    113.2539	        	        	        	        	       0	(  3  0  7)	  0  1
    113.2539	        	        	        	        	    -589	(  3  0  7)	  0  1
    116.9901	        	        	        	        	       0	(  2  1 10)	  0  1
    116.9901	        	        	        	        	    -589	(  2  1 10)	  0  1
    117.6292	        	        	        	        	       0	(  1  0 15)	  0  1
    117.6292	        	        	        	        	    -589	(  1  0 15)	  0  1
    118.0640	        	        	        	        	       0	(  2  2  0)	  0  1
    118.0640	        	        	        	        	    -589	(  2  2  0)	  0  1
    118.9713	        	        	        	        	       0	(  3  0  8)	  0  1
    118.9713	        	        	        	        	    -589	(  3  0  8)	  0  1
    119.6265	        	        	        	        	       0	(  2  2  2)	  0  1
    119.6265	        	        	        	        	    -589	(  2  2  2)	  0  1
    119.8418	        	        	        	        	       0	(  2  0 13)	  0  1
    119.8418	        	        	        	        	    -589	(  2  0 13)	  0  1
    121.7431	        	        	        	        	       0	(  0  0 16)	  0  1
    121.7431	        	        	        	        	    -589	(  0  0 16)	  0  1
    122.4176	        	        	        	        	       0	(  1  1 14)	  0  1
    122.4176	        	        	        	        	    -589	(  1  1 14)	  0  1
    124.4725	        	        	        	        	       0	(  2  2  4)	  0  1
    124.4725	        	        	        	        	    -589	(  2  2  4)	  0  1
    125.3977	        	        	        	        	       0	(  2  1 11)	  0  1
    125.3977	        	        	        	        	    -589	(  2  1 11)	  0  1
    125.8665	        	        	        	        	       0	(  3  0  9)	  0  1
    125.8665	        	        	        	        	    -589	(  3  0  9)	  0  1
    126.3863	        	        	        	        	       0	(  3  1  0)	  0  1
    126.3863	        	        	        	        	    -589	(  3  1  0)	  0  1
    126.8126	        	        	        	        	       0	(  3  1  1)	  0  1
    126.8126	        	        	        	        	    -589	(  3  1  1)	  0  1
    128.1062	        	        	        	        	       0	(  3  1  2)	  0  1
    128.1062	        	        	        	        	    -589	(  3  1  2)	  0  1
    130.3150	        	        	        	        	       0	(  3  1  3)	  0  1
    130.3150	        	        	        	        	    -589	(  3  1  3)	  0  1
    130.4586	        	        	        	        	       0	(  1  0 16)	  0  1
    130.4586	        	        	        	        	    -589	(  1  0 16)	  0  1
    131.2143	        	        	        	        	       0	(  2  0 14)	  0  1
    131.2143	        	        	        	        	    -589	(  2  0 14)	  0  1
    133.2739	        	        	        	        	       0	(  2  2  6)	  0  1
    133.2739	        	        	        	        	    -589	(  2  2  6)	  0  1
    133.5362	        	        	        	        	       0	(  3  1  4)	  0  1
    133.5362	        	        	        	        	    -589	(  3  1  4)	  0  1
    134.3795	        	        	        	        	       0	(  3  0 10)	  0  1
    134.3795	        	        	        	        	    -589	(  3  0 10)	  0  1
    135.7792	        	        	        	        	       0	(  2  1 12)	  0  1
    135.7792	        	        	        	        	    -589	(  2  1 12)	  0  1
    137.9530	        	        	        	        	       0	(  3  1  5)	  0  1
    137.9530	        	        	        	        	    -589	(  3  1  5)	  0  1
    143.9350	        	        	        	        	       0	(  3  1  6)	  0  1
    143.9350	        	        	        	        	    -589	(  3  1  6)	  0  1
    145.5816	        	        	        	        	       0	(  3  0 11)	  0  1
    145.5816	        	        	        	        	    -589	(  3  0 11)	  0  1
    146.3260	        	        	        	        	       0	(  2  0 15)	  0  1
    146.3260	        	        	        	        	    -589	(  2  0 15)	  0  1
    147.7943	        	        	        	        	       0	(  1  0 17)	  0  1
    147.7943	        	        	        	        	    -589	(  1  0 17)	  0  1
    148.5243	        	        	        	        	       0	(  2  2  8)	  0  1
    148.5243	        	        	        	        	    -589	(  2  2  8)	  0  1
    150.0109	        	        	        	        	       0	(  2  1 13)	  0  1
    150.0109	        	        	        	        	    -589	(  2  1 13)	  0  1
    152.3878	        	        	        	        	       0	(  3  1  7)	  0  1
    152.3878	        	        	        	        	    -589	(  3  1  7)	  0  1
    153.4674	        	        	        	        	       0	(  1  1 16)	  0  1
    153.4674	        	        	        	        	    -589	(  1  1 16)	  0  1
    158.8404	        	        	        	        	       0	(  0  0 18)	  0  1
    158.8404	        	        	        	        	    -589	(  0  0 18)	  0  1
    164.1525	        	        	        	        	       0	(  4  0  0)	  0  1
    164.1525	        	        	        	        	    -589	(  4  0  0)	  0  1
    164.2827	        	        	        	        	       0	(  3  0 12)	  0  1
    164.2827	        	        	        	        	    -589	(  3  0 12)	  0  1
    165.4644	        	        	        	        	       0	(  4  0  1)	  0  1
    165.4644	        	        	        	        	    -589	(  4  0  1)	  0  1
    167.4159	        	        	        	        	       0	(  3  1  8)	  0  1
    167.4159	        	        	        	        	    -589	(  3  1  8)	  0  1
