MSG Master    CELL:    5.91984   5.91984  23.28176   90.0000   90.0000  120.0000   SPGR: P 63/m m c             TEMP:   1074.85
  1   1280     2.52000     0.00000    -0.13089     0.00000     0.00000    0
    99     0     2
       0.00000      10.00000
     125.00000     130.00000
 2Theta	Yobs	Ycal	Yobs-Ycal	Backg	Posr	(hkl)	K
      0.7700	    0.00	  550.68	-1731.75	  430.63
      0.8700	    0.00	  551.28	-1731.75	  431.23
      0.9700	   35.00	  551.87	-1731.75	  431.82
      1.0700	   40.00	  552.45	-1731.75	  432.40
      1.1700	   52.00	  553.02	-1731.75	  432.97
      1.2700	   43.00	  553.58	-1731.75	  433.53
      1.3700	   42.00	  554.13	-1731.75	  434.08
      1.4700	   95.00	  554.68	-1731.75	  434.62
      1.5700	  314.00	  555.21	-1731.75	  435.16
      1.6700	  458.00	  555.73	-1731.75	  435.68
      1.7700	  533.00	  556.25	-1731.75	  436.20
      1.8700	  637.00	  556.76	-1731.75	  436.71
      1.9700	  735.00	  557.26	-1731.75	  437.20
      2.0700	  756.00	  557.74	-1731.75	  437.69
      2.1700	  770.00	  558.23	-1731.75	  438.17
      2.2700	  803.00	  558.70	-1731.75	  438.65
      2.3700	  754.00	  559.16	-1731.75	  439.11
      2.4700	  699.00	  559.62	-1731.75	  439.56
      2.5700	  689.00	  560.06	-1731.75	  440.01
      2.6700	  701.00	  560.50	-1731.75	  440.45
      2.7700	  700.00	  560.93	-1731.75	  440.88
      2.8700	  619.00	  561.35	-1731.75	  441.30
      2.9700	  571.00	  561.76	-1731.75	  441.71
      3.0700	  588.00	  562.17	-1731.75	  442.12
      3.1700	  631.00	  562.56	-1731.75	  442.51
      3.2700	  600.00	  562.95	-1731.75	  442.90
      3.3700	  736.00	  563.33	-1731.75	  443.28
      3.4700	  780.00	  563.71	-1731.75	  443.65
      3.5700	  819.00	  564.07	-1731.75	  444.02
      3.6700	  882.00	  564.43	-1731.75	  444.38
      3.7700	  897.00	  564.78	-1731.75	  444.72
      3.8700	 1052.00	  565.12	-1731.75	  445.07
      3.9700	 1018.00	  565.45	-1731.75	  445.40
      4.0700	 1103.00	  565.78	-1731.75	  445.73
      4.1700	 1080.00	  566.10	-1731.75	  446.04
      4.2700	 1111.00	  566.41	-1731.75	  446.36
      4.3700	 1067.00	  566.71	-1731.75	  446.66
      4.4700	 1056.00	  567.01	-1731.75	  446.96
      4.5700	 1044.00	  567.30	-1731.75	  447.24
      4.6700	 1031.00	  567.58	-1731.75	  447.53
      4.7700	  991.00	  567.85	-1731.75	  447.80
      4.8700	  968.00	  568.12	-1731.75	  448.07
      4.9700	 1017.00	  568.38	-1731.75	  448.33
      5.0700	  935.00	  568.63	-1731.75	  448.58
      5.1700	  884.00	  568.88	-1731.75	  448.83
      5.2700	  897.00	  569.12	-1731.75	  449.07
      5.3700	  894.00	  569.35	-1731.75	  449.30
      5.4700	  794.00	  569.58	-1731.75	  449.53
      5.5700	  881.00	  569.80	-1731.75	  449.75
      5.6700	  867.00	  570.01	-1731.75	  449.96
      5.7700	  818.00	  570.21	-1731.75	  450.16
      5.8700	  836.00	  570.41	-1731.75	  450.36
      5.9700	  865.00	  570.61	-1731.75	  450.55
      6.0700	  791.00	  570.79	-1731.75	  450.74
      6.1700	  803.00	  570.97	-1731.75	  450.92
      6.2700	  759.00	  571.15	-1731.75	  451.09
      6.3700	  787.00	  571.31	-1731.75	  451.26
      6.4700	  731.00	  571.47	-1731.75	  451.42
      6.5700	  766.00	  571.63	-1731.75	  451.58
      6.6700	  755.00	  571.78	-1731.75	  451.72
      6.7700	  731.00	  571.92	-1731.75	  451.87
      6.8700	  720.00	  572.05	-1731.75	  452.00
      6.9700	  717.00	  572.18	-1731.75	  452.13
      7.0700	  668.00	  572.31	-1731.75	  452.26
      7.1700	  688.00	  572.43	-1731.75	  452.37
      7.2700	  626.00	  572.54	-1731.75	  452.49
      7.3700	  732.00	  572.65	-1731.75	  452.59
      7.4700	  661.00	  572.75	-1731.75	  452.69
      7.5700	  673.00	  572.84	-1731.75	  452.79
      7.6700	  628.00	  572.93	-1731.75	  452.88
      7.7700	  665.00	  573.01	-1731.75	  452.96
      7.8700	  626.00	  573.09	-1731.75	  453.04
      7.9700	  609.00	  573.17	-1731.75	  453.11
      8.0700	  606.00	  573.23	-1731.75	  453.18
      8.1700	  659.00	  573.29	-1731.75	  453.24
      8.2700	  625.00	  573.35	-1731.75	  453.30
      8.3700	  650.00	  573.40	-1731.75	  453.35
      8.4700	  636.00	  573.45	-1731.75	  453.40
      8.5700	  610.00	  573.49	-1731.75	  453.44
      8.6700	  598.00	  573.53	-1731.75	  453.47
      8.7700	  601.00	  573.56	-1731.75	  453.50
      8.8700	  623.00	  573.58	-1731.75	  453.53
      8.9700	  616.00	  573.60	-1731.75	  453.55
      9.0700	  602.00	  573.62	-1731.75	  453.57
      9.1700	  581.00	  573.63	-1731.75	  453.58
      9.2700	  626.00	  573.63	-1731.75	  453.58
      9.3700	  607.00	  573.63	-1731.75	  453.58
      9.4700	  634.00	  573.63	-1731.75	  453.58
      9.5700	  612.00	  573.62	-1731.75	  453.57
      9.6700	  540.00	  573.61	-1731.75	  453.56
      9.7700	  609.00	  573.59	-1731.75	  453.54
      9.8700	  614.00	  573.57	-1731.75	  453.52
      9.9700	  601.00	  573.54	-1731.75	  453.49
     10.0700	  579.00	  574.66	-1727.41	  453.46
     10.1700	  549.00	  574.75	-1757.50	  453.42
     10.2700	  609.00	  574.87	-1697.62	  453.38
     10.3700	  632.00	  575.05	-1674.80	  453.34
     10.4700	  596.00	  575.30	-1711.05	  453.29
     10.5700	  585.00	  575.71	-1722.46	  453.23
     10.6700	  578.00	  576.38	-1730.13	  453.17
     10.7700	  527.00	  577.42	-1782.17	  453.11
     10.8700	  539.00	  578.90	-1771.65	  453.05
     10.9700	  589.00	  580.81	-1723.56	  452.98
     11.0700	  639.00	  583.14	-1675.89	  452.90
     11.1700	  553.00	  585.88	-1764.63	  452.82
     11.2700	  645.00	  589.08	-1675.83	  452.74
     11.3700	  564.00	  592.85	-1760.60	  452.65
     11.4700	  628.00	  597.33	-1701.08	  452.56
     11.5700	  611.00	  602.79	-1723.54	  452.47
     11.6700	  595.00	  609.64	-1746.39	  452.37
     11.7700	  598.00	  618.57	-1752.32	  452.27
     11.8700	  685.00	  630.35	-1677.10	  452.16
     11.9700	  686.00	  645.03	-1690.78	  452.06
     12.0700	  677.00	  660.15	-1714.90	  451.94
     12.1700	  680.00	  669.20	-1720.95	  451.83
     12.2700	  702.00	  663.28	-1693.03	  451.71
     12.3700	  686.00	  641.30	-1687.05	  451.58
     12.4700	  677.00	  615.82	-1670.57	  451.46
     12.5700	  590.00	  596.75	-1738.50	  451.33
     12.6700	  568.00	  585.58	-1749.33	  451.19
     12.7700	  547.00	  579.91	-1764.66	  451.05
     12.8700	  595.00	  577.09	-1713.84	  450.91
     12.9700	  542.00	  575.50	-1765.25	  450.77
     13.0700	  593.00	  574.43	-1713.18	  450.62
     13.1700	  554.00	  573.63	-1751.38	  450.47
     13.2700	  528.00	  572.98	-1776.73	  450.32
     13.3700	  569.00	  572.45	-1735.20	  450.16
     13.4700	  536.00	  571.99	-1767.74	  450.00
     13.5700	  573.00	  571.59	-1730.34	  449.84
     13.6700	  560.00	  571.23	-1742.98	  449.67
     13.7700	  574.00	  570.90	-1728.65	  449.50
     13.8700	  585.00	  570.60	-1717.35	  449.33
     13.9700	  555.00	  570.31	-1747.06	  449.16
     14.0700	  571.00	  570.04	-1730.79	  448.98
     14.1700	  571.00	  569.78	-1730.53	  448.80
     14.2700	  579.00	  569.52	-1722.27	  448.62
     14.3700	  509.00	  569.28	-1792.03	  448.43
     14.4700	  590.00	  569.03	-1710.78	  448.24
     14.5700	  589.00	  568.79	-1711.54	  448.05
     14.6700	  541.00	  568.56	-1759.31	  447.86
     14.7700	  529.00	  568.32	-1771.07	  447.66
     14.8700	  583.00	  568.09	-1716.84	  447.46
     14.9700	  589.00	  567.86	-1710.61	  447.26
     15.0700	  546.00	  567.63	-1753.38	  447.06
     15.1700	  570.00	  567.40	-1729.15	  446.85
     15.2700	  576.00	  567.17	-1722.92	  446.64
     15.3700	  557.00	  566.94	-1741.69	  446.43
     15.4700	  561.00	  566.73	-1737.48	  446.21
     15.5700	  568.00	  566.50	-1730.25	  446.00
     15.6700	  538.00	  566.27	-1760.02	  445.78
     15.7700	  585.00	  566.03	-1712.78	  445.56
     15.8700	  553.00	  565.80	-1744.55	  445.34
     15.9700	  538.00	  565.56	-1759.31	  445.11
     16.0700	  598.00	  565.32	-1699.07	  444.88
     16.1700	  587.00	  565.08	-1709.83	  444.65
     16.2700	  557.00	  564.84	-1739.59	  444.42
     16.3700	  523.00	  564.60	-1773.35	  444.19
     16.4700	  537.00	  564.36	-1759.11	  443.95
     16.5700	  583.00	  564.11	-1712.86	  443.72
     16.6700	  563.00	  563.87	-1732.62	  443.48
     16.7700	  570.00	  563.62	-1725.37	  443.23
     16.8700	  508.00	  563.37	-1787.12	  442.99
     16.9700	  540.00	  563.12	-1754.87	  442.75
     17.0700	  574.00	  562.87	-1720.62	  442.50
     17.1700	  548.00	  562.62	-1746.37	  442.25
     17.2700	  542.00	  562.36	-1752.11	  442.00
     17.3700	  591.00	  562.11	-1702.86	  441.75
     17.4700	  559.00	  561.85	-1734.60	  441.49
     17.5700	  562.00	  561.59	-1731.34	  441.24
     17.6700	  555.00	  561.33	-1738.08	  440.98
     17.7700	  614.00	  561.07	-1678.82	  440.72
     17.8700	  572.00	  560.81	-1720.56	  440.46
     17.9700	  554.00	  560.54	-1738.29	  440.20
     18.0700	  511.00	  560.28	-1781.03	  439.93
     18.1700	  561.00	  560.11	-1730.86	  439.67
     18.2700	  587.00	  559.85	-1704.60	  439.40
     18.3700	  510.00	  559.58	-1781.33	  439.13
     18.4700	  548.00	  559.31	-1743.06	  438.86
     18.5700	  572.00	  559.04	-1718.79	  438.59
     18.6700	  547.00	  558.77	-1743.52	  438.32
     18.7700	  553.00	  558.50	-1737.25	  438.05
     18.8700	  533.00	  558.32	-1757.07	  437.77
     18.9700	  546.00	  558.04	-1743.79	  437.50
     19.0700	  576.00	  557.77	-1713.52	  437.22
     19.1700	  552.00	  557.50	-1737.25	  436.94
     19.2700	  537.00	  557.23	-1751.98	  436.66
     19.3700	  522.00	  556.95	-1766.70	  436.38
     19.4700	  532.00	  556.68	-1756.43	  436.10
     19.5700	  543.00	  556.40	-1745.15	  435.81
     19.6700	  607.00	  556.12	-1680.87	  435.53
     19.7700	  574.00	  555.85	-1713.60	  435.24
     19.8700	  533.00	  555.57	-1754.32	  434.96
     19.9700	  561.00	  555.29	-1726.04	  434.67
     20.0700	  602.00	  555.01	-1684.76	  434.38
     20.1700	  554.00	  554.73	-1732.48	  434.09
     20.2700	  530.00	  554.45	-1756.20	  433.80
     20.3700	  564.00	  554.17	-1721.92	  433.51
     20.4700	  563.00	  553.89	-1722.64	  433.22
     20.5700	  549.00	  553.61	-1736.36	  432.93
     20.6700	  527.00	  553.37	-1758.12	  432.63
     20.7700	  546.00	  553.09	-1738.84	  432.34
     20.8700	  542.00	  552.81	-1742.56	  432.04
     20.9700	  573.00	  552.53	-1711.28	  431.75
     21.0700	  523.00	  552.26	-1761.01	  431.45
     21.1700	  543.00	  551.98	-1740.73	  431.16
     21.2700	  542.00	  551.70	-1741.45	  430.86
     21.3700	  516.00	  551.39	-1767.14	  430.56
     21.4700	  525.00	  551.11	-1757.86	  430.26
     21.5700	  548.00	  550.84	-1734.59	  429.96
     21.6700	  537.00	  550.57	-1745.32	  429.66
     21.7700	  570.00	  550.30	-1712.05	  429.36
     21.8700	  540.00	  550.03	-1741.78	  429.06
     21.9700	  555.00	  549.77	-1726.52	  428.76
     22.0700	  578.00	  549.51	-1703.26	  428.46
     22.1700	  555.00	  549.25	-1726.00	  428.15
     22.2700	  540.00	  548.99	-1740.74	  427.85
     22.3700	  535.00	  548.74	-1745.49	  427.55
     22.4700	  545.00	  548.49	-1735.24	  427.24
     22.5700	  568.00	  548.25	-1712.00	  426.94
     22.6700	  531.00	  548.02	-1748.77	  426.63
     22.7700	  557.00	  547.80	-1722.55	  426.33
     22.8700	  554.00	  547.59	-1725.34	  426.03
     22.9700	  579.00	  547.39	-1700.14	  425.72
     23.0700	  581.00	  547.20	-1697.95	  425.41
     23.1700	  564.00	  547.04	-1714.79	  425.11
     23.2700	  543.00	  546.90	-1735.66	  424.80
     23.3700	  562.00	  546.80	-1716.55	  424.50
     23.4700	  603.00	  546.89	-1675.64	  424.19
     23.5700	  527.00	  546.89	-1751.64	  423.89
     23.6700	  542.00	  546.99	-1736.74	  423.58
     23.7700	  567.00	  547.24	-1711.99	  423.27
     23.8700	  552.00	  547.78	-1727.53	  422.97
     23.9700	  567.00	  548.84	-1713.59	  422.66
     24.0700	  545.00	  550.87	-1737.62	  422.35
     24.1700	  554.00	  554.49	-1732.24	  422.05
     24.2700	  552.00	  560.49	-1740.24	  421.74
     24.3700	  565.00	  569.68	-1736.43	  421.43
     24.4700	  572.00	  582.65	-1742.40	  421.13
     24.5700	  645.00	  598.85	-1685.60	  420.82
     24.6700	  621.00	  615.03	-1725.78	  420.51
     24.7700	  659.00	  624.33	-1697.08	  420.21
     24.8700	  623.00	  618.99	-1727.74	  419.90
     24.9700	  623.00	  600.11	-1708.86	  419.60
     25.0700	  570.00	  578.83	-1740.58	  419.29
     25.1700	  543.00	  562.77	-1751.52	  418.99
     25.2700	  548.00	  553.13	-1736.88	  418.68
     25.3700	  591.00	  548.13	-1688.88	  418.38
     25.4700	  568.00	  545.62	-1709.37	  418.07
     25.5700	  553.00	  544.22	-1722.97	  417.77
     25.6700	  512.00	  543.32	-1763.07	  417.46
     25.7700	  532.00	  542.68	-1742.43	  417.16
     25.8700	  554.00	  542.19	-1719.94	  416.85
     25.9700	  533.00	  541.82	-1740.57	  416.55
     26.0700	  583.00	  541.55	-1690.30	  416.25
     26.1700	  584.00	  541.37	-1689.12	  415.95
     26.2700	  493.00	  541.26	-1780.01	  415.64
     26.3700	  566.00	  541.24	-1706.99	  415.34
     26.4700	  574.00	  541.31	-1699.06	  415.04
     26.5700	  528.00	  541.47	-1745.22	  414.74
     26.6700	  556.00	  541.75	-1717.50	  414.44
     26.7700	  558.00	  542.17	-1715.92	  414.14
     26.8700	  532.00	  542.75	-1742.50	  413.84
     26.9700	  566.00	  543.56	-1709.31	  413.54
     27.0700	  535.00	  544.66	-1741.41	  413.24
     27.1700	  564.00	  546.20	-1713.95	  412.94
     27.2700	  564.00	  548.42	-1716.17	  412.65
     27.3700	  581.00	  551.84	-1702.59	  412.35
     27.4700	  568.00	  557.48	-1721.23	  412.05
     27.5700	  560.00	  567.18	-1738.93	  411.76
     27.6700	  531.00	  583.86	-1784.61	  411.46
     27.7700	  606.00	  611.26	-1737.01	  411.17
     27.8700	  579.00	  652.61	-1805.36	  410.88
     27.9700	  671.00	  707.96	-1768.71	  410.58
     28.0700	  768.00	  770.55	-1734.30	  410.29
     28.1700	  932.00	  823.78	-1623.53	  410.00
     28.2700	  989.00	  843.47	-1586.22	  409.71
     28.3700	  870.00	  817.66	-1679.41	  409.42
     28.4700	  844.00	  771.80	-1659.55	  409.13
     28.5700	  735.00	  742.21	-1738.96	  408.84
     28.6700	  708.00	  743.61	-1767.36	  408.55
     28.7700	  783.00	  769.33	-1718.08	  408.26
     28.8700	  770.00	  797.61	-1759.36	  407.98
     28.9700	  805.00	  799.59	-1726.34	  407.69
     29.0700	  777.00	  759.45	-1714.20	  407.41
     29.1700	  699.00	  695.62	-1728.37	  407.12
     29.2700	  620.00	  636.52	-1748.27	  406.84
     29.3700	  598.00	  594.60	-1728.35	  406.56
     29.4700	  574.00	  569.56	-1727.31	  406.28
     29.5700	  588.00	  556.11	-1699.86	  406.00
     29.6700	  551.00	  549.02	-1729.77	  405.72
     29.7700	  540.00	  545.00	-1736.75	  405.44
     29.8700	  593.00	  542.50	-1681.25	  405.16
     29.9700	  545.00	  540.95	-1727.70	  404.88
     30.0700	  549.00	  540.21	-1722.96	  404.61
     30.1700	  549.00	  540.49	-1723.24	  404.33
     30.2700	  571.00	  542.32	-1703.07	  404.06
     30.3700	  553.00	  546.76	-1725.51	  403.79
     30.4700	  562.00	  555.31	-1725.06	  403.51
     30.5700	  562.00	  569.45	-1739.20	  403.24
     30.6700	  594.00	  589.22	-1726.97	  402.97
     30.7700	  590.00	  611.86	-1753.61	  402.70
     30.8700	  644.00	  630.61	-1718.36	  402.44
     30.9700	  558.00	  635.73	-1809.48	  402.17
     31.0700	  634.00	  621.62	-1719.37	  401.90
     31.1700	  595.00	  595.88	-1732.63	  401.64
     31.2700	  587.00	  570.83	-1715.58	  401.38
     31.3700	  525.00	  552.49	-1759.24	  401.11
     31.4700	  554.00	  541.29	-1719.04	  400.85
     31.5700	  525.00	  535.22	-1741.97	  400.59
     31.6700	  531.00	  532.06	-1732.81	  400.33
     31.7700	  533.00	  530.29	-1729.04	  400.07
     31.8700	  502.00	  529.19	-1758.94	  399.82
     31.9700	  578.00	  528.45	-1682.20	  399.56
     32.0700	  547.00	  527.94	-1712.69	  399.31
     32.1700	  524.00	  527.62	-1735.37	  399.05
     32.2700	  565.00	  527.48	-1694.23	  398.80
     32.3700	  574.00	  527.49	-1685.24	  398.55
     32.4700	  531.00	  527.68	-1728.43	  398.30
     32.5700	  525.00	  528.05	-1734.80	  398.05
     32.6700	  550.00	  528.65	-1710.40	  397.80
     32.7700	  531.00	  529.52	-1730.27	  397.56
     32.8700	  559.00	  530.76	-1703.51	  397.31
     32.9700	  546.00	  532.50	-1718.25	  397.07
     33.0700	  555.00	  535.00	-1711.75	  396.83
     33.1700	  569.00	  538.85	-1701.59	  396.58
     33.2700	  579.00	  545.28	-1698.03	  396.34
     33.3700	  539.00	  556.87	-1749.62	  396.11
     33.4700	  554.00	  578.29	-1756.04	  395.87
     33.5700	  574.00	  616.41	-1774.16	  395.63
     33.6700	  631.00	  678.26	-1779.01	  395.40
     33.7700	  788.00	  765.37	-1709.12	  395.16
     33.8700	  961.00	  866.35	-1637.10	  394.93
     33.9700	 1057.00	  952.80	-1627.55	  394.70
     34.0700	 1060.00	  984.11	-1655.86	  394.47
     34.1700	  948.00	  934.94	-1718.69	  394.24
     34.2700	  849.00	  831.62	-1714.37	  394.01
     34.3700	  747.00	  724.34	-1709.09	  393.79
     34.4700	  641.00	  641.72	-1732.47	  393.56
     34.5700	  569.00	  589.06	-1751.81	  393.34
     34.6700	  600.00	  559.75	-1691.50	  393.12
     34.7700	  550.00	  544.46	-1726.21	  392.90
     34.8700	  584.00	  536.23	-1683.98	  392.68
     34.9700	  536.00	  531.24	-1726.99	  392.46
     35.0700	  539.00	  527.80	-1720.55	  392.25
     35.1700	  522.00	  525.20	-1734.95	  392.03
     35.2700	  570.00	  523.15	-1684.90	  391.82
     35.3700	  498.00	  521.48	-1755.23	  391.61
     35.4700	  513.00	  520.11	-1738.86	  391.40
     35.5700	  548.00	  518.95	-1702.70	  391.19
     35.6700	  516.00	  517.96	-1733.71	  390.98
     35.7700	  476.00	  517.11	-1772.86	  390.78
     35.8700	  575.00	  516.37	-1673.12	  390.57
     35.9700	  494.00	  515.71	-1753.46	  390.37
     36.0700	  500.00	  515.12	-1746.87	  390.17
     36.1700	  536.00	  515.05	-1710.80	  389.97
     36.2700	  523.00	  514.59	-1723.34	  389.77
     36.3700	  507.00	  514.18	-1738.93	  389.57
     36.4700	  511.00	  513.82	-1734.57	  389.37
     36.5700	  552.00	  513.50	-1693.25	  389.18
     36.6700	  520.00	  513.24	-1724.99	  388.99
     36.7700	  502.00	  513.04	-1742.79	  388.79
     36.8700	  481.00	  512.95	-1763.70	  388.60
     36.9700	  493.00	  513.05	-1751.80	  388.42
     37.0700	  493.00	  513.51	-1752.26	  388.23
     37.1700	  488.00	  514.61	-1758.36	  388.04
     37.2700	  516.00	  516.70	-1732.45	  387.86
     37.3700	  522.00	  519.97	-1729.72	  387.68
     37.4700	  538.00	  524.22	-1717.97	  387.50
     37.5700	  512.00	  528.55	-1748.30	  387.32
     37.6700	  531.00	  531.38	-1732.13	  387.14
     37.7700	  530.00	  531.22	-1732.97	  386.96
     37.8700	  532.00	  528.17	-1727.92	  386.79
     37.9700	  521.00	  523.88	-1734.63	  386.61
     38.0700	  515.00	  519.68	-1736.43	  386.44
     38.1700	  500.00	  516.11	-1747.86	  386.27
     38.2700	  518.00	  513.36	-1727.11	  386.10
     38.3700	  482.00	  511.43	-1761.18	  385.94
     38.4700	  533.00	  510.14	-1708.89	  385.77
     38.5700	  531.00	  509.20	-1709.95	  385.61
     38.6700	  501.00	  508.64	-1739.39	  385.44
     38.7700	  523.00	  508.24	-1716.99	  385.28
     38.8700	  465.00	  507.93	-1774.68	  385.12
     38.9700	  508.00	  507.81	-1731.56	  384.96
     39.0700	  502.00	  507.58	-1737.33	  384.81
     39.1700	  480.00	  507.38	-1759.13	  384.65
     39.2700	  549.00	  507.11	-1689.86	  384.50
     39.3700	  537.00	  506.94	-1701.69	  384.35
     39.4700	  503.00	  506.78	-1735.53	  384.20
     39.5700	  506.00	  506.63	-1732.38	  384.05
     39.6700	  504.00	  506.50	-1734.25	  383.90
     39.7700	  554.00	  506.37	-1684.12	  383.76
     39.8700	  526.00	  506.25	-1712.00	  383.61
     39.9700	  470.00	  506.15	-1767.90	  383.47
     40.0700	  498.00	  506.05	-1739.80	  383.33
     40.1700	  494.00	  505.97	-1743.72	  383.19
     40.2700	  513.00	  505.89	-1724.64	  383.05
     40.3700	  470.00	  505.83	-1767.58	  382.92
     40.4700	  488.00	  505.79	-1749.54	  382.78
     40.5700	  477.00	  505.76	-1760.51	  382.65
     40.6700	  515.00	  505.74	-1722.49	  382.52
     40.7700	  491.00	  505.75	-1746.50	  382.39
     40.8700	  504.00	  505.79	-1733.54	  382.26
     40.9700	  502.00	  505.85	-1735.60	  382.13
     41.0700	  491.00	  505.95	-1746.70	  382.01
     41.1700	  533.00	  506.10	-1704.85	  381.88
     41.2700	  505.00	  506.30	-1733.05	  381.76
     41.3700	  458.00	  507.01	-1780.76	  381.64
     41.4700	  485.00	  507.35	-1754.10	  381.52
     41.5700	  494.00	  507.86	-1745.61	  381.41
     41.6700	  501.00	  508.58	-1739.33	  381.29
     41.7700	  527.00	  509.67	-1714.42	  381.18
     41.8700	  517.00	  511.49	-1726.24	  381.06
     41.9700	  535.00	  514.80	-1711.55	  380.95
     42.0700	  532.00	  520.90	-1720.65	  380.84
     42.1700	  576.00	  531.62	-1687.37	  380.74
     42.2700	  533.00	  548.80	-1747.55	  380.63
     42.3700	  543.00	  573.00	-1761.75	  380.53
     42.4700	  581.00	  601.81	-1752.56	  380.42
     42.5700	  587.00	  628.46	-1773.21	  380.32
     42.6700	  618.00	  643.00	-1756.75	  380.22
     42.7700	  597.00	  637.59	-1772.34	  380.12
     42.8700	  540.00	  614.67	-1806.42	  380.03
     42.9700	  514.00	  584.85	-1802.60	  379.93
     43.0700	  558.00	  557.54	-1731.29	  379.84
     43.1700	  569.00	  537.02	-1699.77	  379.75
     43.2700	  488.00	  523.71	-1767.46	  379.66
     43.3700	  489.00	  516.00	-1758.75	  379.57
     43.4700	  474.00	  511.87	-1769.62	  379.48
     43.5700	  494.00	  509.59	-1747.34	  379.39
     43.6700	  503.00	  508.43	-1737.18	  379.31
     43.7700	  502.00	  507.55	-1737.30	  379.23
     43.8700	  528.00	  506.91	-1710.66	  379.15
     43.9700	  490.00	  506.43	-1748.18	  379.07
     44.0700	  543.00	  506.06	-1694.81	  378.99
     44.1700	  512.00	  505.77	-1725.52	  378.91
     44.2700	  576.00	  505.54	-1661.29	  378.84
     44.3700	  519.00	  505.37	-1718.12	  378.76
     44.4700	  482.00	  505.24	-1754.99	  378.69
     44.5700	  545.00	  505.15	-1691.90	  378.62
     44.6700	  513.00	  505.09	-1723.84	  378.55
     44.7700	  509.00	  505.06	-1727.81	  378.49
     44.8700	  509.00	  505.05	-1727.80	  378.42
     44.9700	  495.00	  504.94	-1741.69	  378.36
     45.0700	  518.00	  505.16	-1718.91	  378.29
     45.1700	  531.00	  505.24	-1705.99	  378.23
     45.2700	  488.00	  505.33	-1749.08	  378.17
     45.3700	  531.00	  505.45	-1706.20	  378.12
     45.4700	  503.00	  505.59	-1734.34	  378.06
     45.5700	  544.00	  505.75	-1693.50	  378.00
     45.6700	  503.00	  505.94	-1734.69	  377.95
     45.7700	  506.00	  506.16	-1731.91	  377.90
     45.8700	  486.00	  506.41	-1752.16	  377.85
     45.9700	  524.00	  506.69	-1714.44	  377.80
     46.0700	  525.00	  507.01	-1713.76	  377.75
     46.1700	  469.00	  507.38	-1770.13	  377.71
     46.2700	  520.00	  507.79	-1719.54	  377.66
     46.3700	  513.00	  508.26	-1727.01	  377.62
     46.4700	  487.00	  508.80	-1753.55	  377.58
     46.5700	  515.00	  509.42	-1726.17	  377.54
     46.6700	  524.00	  510.15	-1717.90	  377.50
     46.7700	  509.00	  511.03	-1733.78	  377.46
     46.8700	  531.00	  512.20	-1712.95	  377.42
     46.9700	  536.00	  513.77	-1709.52	  377.39
     47.0700	  470.00	  516.08	-1777.83	  377.36
     47.1700	  548.00	  519.85	-1703.60	  377.33
     47.2700	  540.00	  526.04	-1717.79	  377.30
     47.3700	  522.00	  535.83	-1745.58	  377.27
     47.4700	  568.00	  550.06	-1713.81	  377.24
     47.5700	  593.00	  568.45	-1707.20	  377.22
     47.6700	  623.00	  588.79	-1697.54	  377.19
     47.7700	  618.00	  606.53	-1720.28	  377.17
     47.8700	  568.00	  615.60	-1779.35	  377.15
     47.9700	  579.00	  612.24	-1764.99	  377.13
     48.0700	  594.00	  598.69	-1736.44	  377.11
     48.1700	  562.00	  581.17	-1750.92	  377.09
     48.2700	  540.00	  565.06	-1756.81	  377.08
     48.3700	  504.00	  553.16	-1780.91	  377.06
     48.4700	  557.00	  546.17	-1720.92	  377.05
     48.5700	  498.00	  543.51	-1777.26	  377.04
     48.6700	  539.00	  544.12	-1736.87	  377.03
     48.7700	  503.00	  547.12	-1775.87	  377.02
     48.8700	  530.00	  552.04	-1753.79	  377.01
     48.9700	  548.00	  558.90	-1742.65	  377.00
     49.0700	  590.00	  568.34	-1710.09	  377.00
     49.1700	  537.00	  581.97	-1776.72	  377.00
     49.2700	  578.00	  603.62	-1757.37	  376.99
     49.3700	  609.00	  639.36	-1762.11	  376.99
     49.4700	  598.00	  700.95	-1834.70	  376.99
     49.5700	  740.00	  804.81	-1796.56	  377.00
     49.6700	  942.00	  969.48	-1759.23	  377.00
     49.7700	 1151.00	 1208.22	-1788.97	  377.00
     49.8700	 1556.00	 1517.72	-1693.47	  377.01
     49.9700	 1898.00	 1865.85	-1699.60	  377.02
     50.0700	 2232.00	 2183.50	-1683.25	  377.03
     50.1700	 2492.00	 2372.32	-1612.07	  377.04
     50.2700	 2323.00	 2351.95	-1760.70	  377.05
     50.3700	 2186.00	 2130.03	-1675.78	  377.06
     50.4700	 1864.00	 1798.42	-1666.17	  377.07
     50.5700	 1319.00	 1456.07	-1868.82	  377.09
     50.6700	 1033.00	 1165.31	-1864.06	  377.10
     50.7700	  803.00	  951.02	-1879.77	  377.12
     50.8700	  699.00	  811.01	-1843.76	  377.14
     50.9700	  652.00	  728.05	-1807.80	  377.16
     51.0700	  636.00	  680.70	-1776.45	  377.18
     51.1700	  653.00	  650.85	-1729.60	  377.20
     51.2700	  569.00	  627.64	-1790.39	  377.23
     51.3700	  579.00	  607.29	-1760.04	  377.25
     51.4700	  591.00	  589.60	-1730.35	  377.28
     51.5700	  557.00	  575.15	-1749.90	  377.31
     51.6700	  563.00	  564.16	-1732.91	  377.33
     51.7700	  570.00	  556.38	-1718.13	  377.36
     51.8700	  580.00	  551.47	-1703.22	  377.40
     51.9700	  572.00	  548.29	-1708.04	  377.43
     52.0700	  580.00	  546.56	-1698.31	  377.46
     52.1700	  521.00	  545.97	-1756.72	  377.50
     52.2700	  558.00	  546.45	-1720.20	  377.53
     52.3700	  558.00	  548.21	-1721.96	  377.57
     52.4700	  579.00	  551.87	-1704.62	  377.61
     52.5700	  595.00	  558.81	-1695.56	  377.64
     52.6700	  575.00	  571.67	-1728.42	  377.68
     52.7700	  611.00	  594.77	-1715.52	  377.73
     52.8700	  595.00	  634.00	-1770.75	  377.77
     52.9700	  724.00	  695.69	-1703.44	  377.81
     53.0700	  808.00	  783.81	-1707.56	  377.86
     53.1700	  943.00	  896.23	-1684.98	  377.90
     53.2700	 1064.00	 1021.07	-1688.82	  377.95
     53.3700	 1115.00	 1134.46	-1751.21	  378.00
     53.4700	 1192.00	 1203.56	-1743.31	  378.05
     53.5700	 1177.00	 1201.27	-1756.02	  378.10
     53.6700	 1086.00	 1128.11	-1773.86	  378.15
     53.7700	  991.00	 1012.50	-1753.25	  378.20
     53.8700	  937.00	  887.78	-1682.53	  378.25
     53.9700	  723.00	  777.06	-1785.81	  378.31
     54.0700	  680.00	  691.36	-1743.11	  378.36
     54.1700	  625.00	  632.14	-1738.89	  378.42
     54.2700	  566.00	  595.01	-1760.76	  378.47
     54.3700	  546.00	  573.54	-1759.29	  378.53
     54.4700	  586.00	  561.86	-1707.61	  378.59
     54.5700	  614.00	  555.77	-1673.52	  378.65
     54.6700	  574.00	  552.76	-1710.51	  378.71
     54.7700	  568.00	  551.50	-1715.25	  378.77
     54.8700	  578.00	  551.43	-1705.18	  378.84
     54.9700	  554.00	  552.19	-1729.94	  378.90
     55.0700	  581.00	  553.80	-1704.55	  378.97
     55.1700	  602.00	  556.23	-1685.98	  379.03
     55.2700	  577.00	  559.54	-1714.29	  379.10
     55.3700	  566.00	  563.89	-1729.64	  379.17
     55.4700	  556.00	  569.51	-1745.26	  379.24
     55.5700	  577.00	  576.88	-1731.63	  379.31
     55.6700	  570.00	  586.95	-1748.70	  379.38
     55.7700	  594.00	  601.65	-1739.40	  379.45
     55.8700	  627.00	  624.73	-1729.48	  379.52
     55.9700	  656.00	  662.96	-1738.71	  379.59
     56.0700	  714.00	  727.12	-1744.87	  379.67
     56.1700	  735.00	  832.13	-1828.88	  379.74
     56.2700	  927.00	  994.70	-1799.45	  379.82
     56.3700	 1165.00	 1227.83	-1794.58	  379.89
     56.4700	 1550.00	 1532.75	-1714.50	  379.97
     56.5700	 1761.00	 1889.89	-1860.64	  380.05
     56.6700	 2126.00	 2252.36	-1858.11	  380.13
     56.7700	 2512.00	 2544.69	-1764.44	  380.21
     56.8700	 2633.00	 2679.60	-1778.35	  380.29
     56.9700	 2577.00	 2606.18	-1760.93	  380.37
     57.0700	 2245.00	 2352.68	-1839.43	  380.45
     57.1700	 2093.00	 2002.81	-1641.56	  380.53
     57.2700	 1652.00	 1639.64	-1719.39	  380.62
     57.3700	 1286.00	 1318.96	-1764.71	  380.70
     57.4700	 1021.00	 1067.61	-1778.36	  380.79
     57.5700	  832.00	  889.79	-1789.54	  380.87
     57.6700	  811.00	  775.29	-1696.04	  380.96
     57.7700	  756.00	  708.48	-1684.23	  381.05
     57.8700	  695.00	  674.81	-1711.56	  381.14
     57.9700	  707.00	  664.12	-1688.87	  381.22
     58.0700	  686.00	  671.01	-1716.76	  381.31
     58.1700	  696.00	  693.72	-1729.47	  381.40
     58.2700	  770.00	  732.23	-1693.98	  381.49
     58.3700	  831.00	  786.56	-1687.31	  381.59
     58.4700	  877.00	  855.15	-1709.90	  381.68
     58.5700	  973.00	  933.39	-1692.14	  381.77
     58.6700	 1089.00	 1013.40	-1656.15	  381.86
     58.7700	 1237.00	 1086.42	-1581.17	  381.96
     58.8700	 1357.00	 1146.77	-1521.52	  382.05
     58.9700	 1409.00	 1191.17	-1513.92	  382.15
     59.0700	 1476.00	 1214.83	-1470.58	  382.24
     59.1700	 1406.00	 1214.03	-1539.78	  382.34
     59.2700	 1408.00	 1193.07	-1516.82	  382.44
     59.3700	 1348.00	 1163.60	-1547.35	  382.53
     59.4700	 1241.00	 1136.95	-1627.70	  382.63
     59.5700	 1157.00	 1121.20	-1695.95	  382.73
     59.6700	 1200.00	 1124.25	-1656.00	  382.83
     59.7700	 1147.00	 1154.72	-1739.47	  382.93
     59.8700	 1205.00	 1216.80	-1743.55	  383.03
     59.9700	 1353.00	 1304.54	-1683.29	  383.13
     60.0700	 1437.00	 1399.82	-1694.57	  383.23
     60.1700	 1548.00	 1473.63	-1657.38	  383.33
     60.2700	 1606.00	 1494.14	-1619.89	  383.44
     60.3700	 1482.00	 1444.29	-1694.04	  383.54
     60.4700	 1400.00	 1334.17	-1665.92	  383.64
     60.5700	 1213.00	 1191.71	-1710.46	  383.75
     60.6700	 1145.00	 1044.92	-1631.67	  383.85
     60.7700	  881.00	  913.63	-1764.38	  383.96
     60.8700	  779.00	  808.58	-1761.33	  384.06
     60.9700	  705.00	  733.06	-1759.81	  384.17
     61.0700	  659.00	  685.56	-1758.31	  384.27
     61.1700	  624.00	  662.75	-1770.50	  384.38
     61.2700	  660.00	  662.09	-1733.84	  384.48
     61.3700	  721.00	  683.40	-1694.15	  384.59
     61.4700	  736.00	  728.61	-1724.36	  384.70
     61.5700	  739.00	  800.60	-1793.35	  384.81
     61.6700	  888.00	  900.70	-1744.45	  384.92
     61.7700	  982.00	 1025.82	-1775.57	  385.02
     61.8700	 1073.00	 1166.07	-1824.82	  385.13
     61.9700	 1284.00	 1303.13	-1750.88	  385.24
     62.0700	 1327.00	 1410.66	-1815.41	  385.35
     62.1700	 1334.00	 1460.10	-1857.85	  385.46
     62.2700	 1326.00	 1434.99	-1840.74	  385.57
     62.3700	 1246.00	 1343.15	-1828.90	  385.68
     62.4700	 1092.00	 1210.72	-1850.47	  385.79
     62.5700	 1004.00	 1066.06	-1793.81	  385.90
     62.6700	  923.00	  930.49	-1739.24	  386.01
     62.7700	  717.00	  816.61	-1831.36	  386.13
     62.8700	  711.00	  729.21	-1749.96	  386.24
     62.9700	  650.00	  667.26	-1749.01	  386.35
     63.0700	  569.00	  626.36	-1789.11	  386.46
     63.1700	  617.00	  601.03	-1715.78	  386.57
     63.2700	  551.00	  586.35	-1767.10	  386.69
     63.3700	  552.00	  578.73	-1758.48	  386.80
     63.4700	  581.00	  576.16	-1726.91	  386.91
     63.5700	  621.00	  578.03	-1688.78	  387.03
     63.6700	  571.00	  584.91	-1745.66	  387.14
     63.7700	  612.00	  598.31	-1718.06	  387.25
     63.8700	  657.00	  620.24	-1694.99	  387.37
     63.9700	  696.00	  652.73	-1688.48	  387.48
     64.0700	  734.00	  696.98	-1694.73	  387.59
     64.1700	  783.00	  752.51	-1701.26	  387.71
     64.2700	  859.00	  816.17	-1688.92	  387.82
     64.3700	  932.00	  881.69	-1681.44	  387.94
     64.4700	 1020.00	  939.19	-1650.94	  388.05
     64.5700	  982.00	  978.70	-1728.45	  388.16
     64.6700	 1001.00	  991.82	-1722.57	  388.28
     64.7700	 1058.00	  977.08	-1650.83	  388.39
     64.8700	 1014.00	  939.41	-1657.16	  388.51
     64.9700	  903.00	  887.29	-1716.04	  388.62
     65.0700	  835.00	  830.17	-1726.92	  388.74
     65.1700	  829.00	  775.59	-1678.34	  388.85
     65.2700	  774.00	  727.82	-1685.57	  388.97
     65.3700	  673.00	  688.02	-1746.77	  389.08
     65.4700	  663.00	  655.71	-1724.46	  389.19
     65.5700	  606.00	  629.97	-1755.72	  389.31
     65.6700	  565.00	  609.95	-1776.70	  389.42
     65.7700	  616.00	  594.82	-1710.57	  389.54
     65.8700	  604.00	  583.80	-1711.55	  389.65
     65.9700	  544.00	  576.21	-1763.96	  389.77
     66.0700	  539.00	  571.46	-1764.21	  389.88
     66.1700	  568.00	  569.07	-1732.82	  390.00
     66.2700	  573.00	  568.73	-1727.48	  390.11
     66.3700	  564.00	  569.93	-1737.68	  390.22
     66.4700	  590.00	  572.63	-1714.38	  390.34
     66.5700	  558.00	  576.94	-1750.69	  390.45
     66.6700	  554.00	  583.34	-1761.09	  390.57
     66.7700	  572.00	  592.88	-1752.63	  390.68
     66.8700	  642.00	  607.55	-1697.30	  390.79
     66.9700	  582.00	  630.65	-1780.40	  390.91
     67.0700	  679.00	  667.24	-1719.99	  391.02
     67.1700	  685.00	  724.30	-1771.05	  391.13
     67.2700	  767.00	  810.28	-1775.03	  391.25
     67.3700	  923.00	  933.87	-1742.62	  391.36
     67.4700	 1087.00	 1101.25	-1746.00	  391.47
     67.5700	 1289.00	 1313.53	-1756.28	  391.58
     67.6700	 1576.00	 1563.33	-1719.08	  391.70
     67.7700	 1809.00	 1832.44	-1755.19	  391.81
     67.8700	 2104.00	 2090.64	-1718.39	  391.92
     67.9700	 2324.00	 2296.68	-1704.43	  392.03
     68.0700	 2388.00	 2406.71	-1750.46	  392.14
     68.1700	 2446.00	 2391.97	-1677.72	  392.25
     68.2700	 2283.00	 2256.37	-1705.12	  392.36
     68.3700	 2036.00	 2034.47	-1730.22	  392.47
     68.4700	 1827.00	 1770.81	-1675.56	  392.58
     68.5700	 1487.00	 1504.25	-1749.00	  392.69
     68.6700	 1245.00	 1262.28	-1749.03	  392.80
     68.7700	  999.00	 1060.46	-1793.21	  392.91
     68.8700	  914.00	  904.01	-1721.76	  393.02
     68.9700	  802.00	  790.34	-1720.09	  393.13
     69.0700	  710.00	  712.31	-1734.06	  393.24
     69.1700	  693.00	  661.15	-1699.90	  393.35
     69.2700	  663.00	  628.66	-1697.41	  393.45
     69.3700	  635.00	  608.32	-1705.07	  393.56
     69.4700	  619.00	  595.48	-1708.23	  393.67
     69.5700	  588.00	  587.14	-1730.89	  393.77
     69.6700	  621.00	  581.53	-1692.28	  393.88
     69.7700	  552.00	  577.65	-1757.40	  393.98
     69.8700	  566.00	  574.98	-1740.73	  394.09
     69.9700	  594.00	  573.27	-1711.02	  394.19
     70.0700	  569.00	  572.34	-1735.09	  394.30
     70.1700	  587.00	  572.19	-1716.94	  394.40
     70.2700	  567.00	  572.84	-1737.59	  394.51
     70.3700	  571.00	  574.43	-1735.19	  394.61
     70.4700	  562.00	  577.27	-1747.02	  394.71
     70.5700	  570.00	  581.93	-1743.68	  394.81
     70.6700	  547.00	  589.44	-1774.19	  394.91
     70.7700	  583.00	  601.46	-1750.21	  395.02
     70.8700	  572.00	  620.63	-1780.38	  395.12
     70.9700	  638.00	  650.63	-1744.38	  395.22
     71.0700	  706.00	  696.25	-1722.00	  395.32
     71.1700	  737.00	  762.91	-1757.66	  395.41
     71.2700	  897.00	  855.64	-1690.39	  395.51
     71.3700	  943.00	  977.84	-1766.59	  395.61
     71.4700	 1084.00	 1129.33	-1777.08	  395.71
     71.5700	 1221.00	 1304.83	-1815.58	  395.80
     71.6700	 1497.00	 1492.64	-1727.39	  395.90
     71.7700	 1631.00	 1674.96	-1775.71	  396.00
     71.8700	 1859.00	 1825.63	-1698.38	  396.09
     71.9700	 1871.00	 1918.27	-1779.02	  396.19
     72.0700	 1925.00	 1932.32	-1739.07	  396.28
     72.1700	 1823.00	 1864.40	-1773.15	  396.37
     72.2700	 1744.00	 1730.48	-1718.23	  396.47
     72.3700	 1598.00	 1556.73	-1690.48	  396.56
     72.4700	 1428.00	 1369.25	-1673.00	  396.65
     72.5700	 1209.00	 1188.15	-1710.90	  396.74
     72.6700	 1063.00	 1028.10	-1696.85	  396.83
     72.7700	 1005.00	  895.84	-1622.59	  396.92
     72.8700	  834.00	  792.91	-1690.66	  397.01
     72.9700	  781.00	  716.96	-1667.71	  397.10
     73.0700	  714.00	  663.39	-1681.14	  397.18
     73.1700	  723.00	  626.94	-1635.69	  397.27
     73.2700	  694.00	  602.68	-1640.43	  397.35
     73.3700	  635.00	  586.66	-1683.41	  397.44
     73.4700	  581.00	  575.98	-1726.73	  397.52
     73.5700	  570.00	  568.71	-1730.46	  397.61
     73.6700	  612.00	  563.66	-1683.41	  397.69
     73.7700	  593.00	  560.12	-1698.87	  397.77
     73.8700	  556.00	  557.67	-1733.42	  397.85
     73.9700	  582.00	  556.07	-1705.82	  397.94
     74.0700	  563.00	  555.14	-1723.89	  398.02
     74.1700	  631.00	  554.71	-1655.46	  398.09
     74.2700	  628.00	  554.63	-1658.38	  398.17
     74.3700	  618.00	  554.69	-1668.44	  398.25
     74.4700	  653.00	  554.67	-1633.42	  398.33
     74.5700	  601.00	  554.38	-1685.13	  398.40
     74.6700	  597.00	  553.66	-1688.41	  398.48
     74.7700	  653.00	  552.52	-1631.27	  398.55
     74.8700	  635.00	  551.09	-1647.84	  398.63
     74.9700	  629.00	  549.63	-1652.38	  398.70
     75.0700	  617.00	  548.34	-1663.09	  398.77
     75.1700	  592.00	  547.62	-1687.37	  398.84
     75.2700	  574.00	  547.76	-1705.51	  398.91
     75.3700	  566.00	  549.12	-1714.87	  398.98
     75.4700	  563.00	  552.17	-1720.92	  399.05
     75.5700	  582.00	  557.32	-1707.07	  399.12
     75.6700	  577.00	  565.24	-1719.99	  399.19
     75.7700	  567.00	  576.27	-1741.02	  399.25
     75.8700	  608.00	  590.59	-1714.34	  399.32
     75.9700	  621.00	  608.13	-1718.88	  399.38
     76.0700	  633.00	  628.21	-1726.96	  399.44
     76.1700	  662.00	  649.61	-1719.36	  399.51
     76.2700	  683.00	  670.46	-1719.21	  399.57
     76.3700	  724.00	  688.36	-1696.11	  399.63
     76.4700	  730.00	  700.64	-1702.39	  399.69
     76.5700	  686.00	  705.00	-1750.75	  399.75
     76.6700	  711.00	  700.50	-1721.25	  399.80
     76.7700	  684.00	  688.06	-1735.81	  399.86
     76.8700	  662.00	  669.92	-1739.67	  399.92
     76.9700	  628.00	  648.59	-1752.34	  399.97
     77.0700	  609.00	  626.83	-1749.58	  400.02
     77.1700	  563.00	  606.32	-1775.07	  400.08
     77.2700	  531.00	  588.27	-1789.02	  400.13
     77.3700	  541.00	  573.31	-1764.06	  400.18
     77.4700	  534.00	  561.57	-1759.32	  400.23
     77.5700	  557.00	  552.78	-1727.53	  400.28
     77.6700	  533.00	  546.49	-1745.24	  400.33
     77.7700	  468.00	  542.14	-1805.89	  400.37
     77.8700	  534.00	  539.23	-1736.98	  400.42
     77.9700	  533.00	  537.32	-1736.07	  400.46
     78.0700	  526.00	  536.07	-1741.82	  400.51
     78.1700	  520.00	  535.26	-1747.01	  400.55
     78.2700	  502.00	  534.72	-1764.47	  400.59
     78.3700	  484.00	  534.38	-1782.13	  400.63
     78.4700	  464.00	  534.17	-1801.92	  400.67
     78.5700	  507.00	  534.07	-1758.82	  400.71
     78.6700	  562.00	  534.09	-1703.84	  400.75
     78.7700	  510.00	  534.22	-1755.97	  400.78
     78.8700	  489.00	  534.50	-1777.25	  400.82
     78.9700	  529.00	  534.94	-1737.69	  400.85
     79.0700	  507.00	  535.59	-1760.34	  400.88
     79.1700	  504.00	  536.48	-1764.23	  400.92
     79.2700	  510.00	  537.67	-1759.42	  400.95
     79.3700	  510.00	  539.19	-1760.94	  400.98
     79.4700	  494.00	  540.92	-1778.67	  401.01
     79.5700	  504.00	  543.27	-1771.02	  401.03
     79.6700	  552.00	  546.12	-1725.87	  401.06
     79.7700	  561.00	  549.56	-1720.31	  401.08
     79.8700	  532.00	  553.72	-1753.47	  401.11
     79.9700	  558.00	  558.75	-1732.50	  401.13
     80.0700	  517.00	  564.89	-1779.64	  401.15
     80.1700	  568.00	  572.46	-1736.21	  401.17
     80.2700	  531.00	  581.80	-1782.55	  401.19
     80.3700	  582.00	  593.21	-1742.96	  401.21
     80.4700	  573.00	  606.86	-1765.61	  401.23
     80.5700	  571.00	  622.64	-1783.39	  401.24
     80.6700	  623.00	  640.14	-1748.90	  401.26
     80.7700	  629.00	  658.62	-1761.37	  401.27
     80.8700	  701.00	  676.97	-1707.72	  401.29
     80.9700	  728.00	  693.96	-1697.71	  401.30
     81.0700	  746.00	  708.40	-1694.15	  401.31
     81.1700	  721.00	  719.30	-1730.05	  401.32
     81.2700	  782.00	  725.98	-1675.73	  401.32
     81.3700	  763.00	  728.01	-1696.76	  401.33
     81.4700	  726.00	  725.30	-1731.05	  401.34
     81.5700	  799.00	  718.11	-1650.86	  401.34
     81.6700	  746.00	  706.88	-1692.63	  401.34
     81.7700	  737.00	  692.33	-1687.08	  401.35
     81.8700	  703.00	  675.46	-1704.21	  401.35
     81.9700	  675.00	  657.46	-1714.21	  401.35
     82.0700	  654.00	  639.49	-1717.24	  401.34
     82.1700	  675.00	  622.46	-1679.21	  401.34
     82.2700	  642.00	  606.95	-1696.70	  401.34
     82.3700	  606.00	  593.29	-1719.04	  401.33
     82.4700	  638.00	  581.57	-1675.32	  401.32
     82.5700	  529.00	  571.96	-1774.71	  401.32
     82.6700	  551.00	  564.38	-1745.13	  401.31
     82.7700	  631.00	  558.71	-1659.46	  401.30
     82.8700	  565.00	  554.89	-1721.64	  401.28
     82.9700	  555.00	  552.80	-1729.55	  401.27
     83.0700	  538.00	  552.29	-1746.04	  401.26
     83.1700	  583.00	  553.25	-1702.00	  401.24
     83.2700	  567.00	  555.51	-1720.26	  401.22
     83.3700	  587.00	  558.90	-1703.65	  401.21
     83.4700	  522.00	  563.13	-1772.88	  401.19
     83.5700	  540.00	  567.84	-1759.59	  401.17
     83.6700	  544.00	  572.61	-1760.36	  401.14
     83.7700	  545.00	  576.91	-1763.66	  401.12
     83.8700	  529.00	  580.19	-1782.94	  401.10
     83.9700	  564.00	  581.92	-1749.67	  401.07
     84.0700	  547.00	  581.79	-1766.54	  401.04
     84.1700	  614.00	  579.75	-1697.50	  401.02
     84.2700	  576.00	  576.09	-1731.84	  400.99
     84.3700	  515.00	  571.29	-1788.04	  400.96
     84.4700	  540.00	  565.85	-1757.60	  400.92
     84.5700	  542.00	  560.25	-1750.00	  400.89
     84.6700	  541.00	  554.87	-1745.62	  400.86
     84.7700	  559.00	  549.99	-1722.74	  400.82
     84.8700	  516.00	  545.76	-1761.51	  400.78
     84.9700	  538.00	  542.28	-1736.03	  400.74
     85.0700	  529.00	  539.53	-1742.28	  400.70
     85.1700	  499.00	  537.46	-1770.21	  400.66
     85.2700	  530.00	  535.98	-1737.73	  400.62
     85.3700	  534.00	  534.99	-1732.74	  400.58
     85.4700	  552.00	  534.41	-1714.16	  400.53
     85.5700	  535.00	  534.19	-1730.94	  400.49
     85.6700	  495.00	  534.27	-1771.02	  400.44
     85.7700	  548.00	  534.68	-1718.43	  400.39
     85.8700	  541.00	  535.46	-1726.21	  400.34
     85.9700	  538.00	  536.71	-1730.46	  400.29
     86.0700	  480.00	  538.54	-1790.29	  400.24
     86.1700	  538.00	  541.13	-1734.88	  400.18
     86.2700	  527.00	  544.67	-1749.42	  400.13
     86.3700	  561.00	  549.34	-1720.09	  400.07
     86.4700	  532.00	  555.31	-1755.06	  400.01
     86.5700	  596.00	  562.66	-1698.41	  399.95
     86.6700	  569.00	  571.38	-1734.13	  399.89
     86.7700	  554.00	  581.33	-1759.08	  399.83
     86.8700	  602.00	  592.18	-1721.93	  399.77
     86.9700	  617.00	  603.43	-1718.18	  399.70
     87.0700	  642.00	  614.04	-1703.79	  399.64
     87.1700	  628.00	  623.86	-1727.61	  399.57
     87.2700	  615.00	  631.60	-1748.35	  399.50
     87.3700	  648.00	  636.39	-1720.14	  399.43
     87.4700	  646.00	  637.63	-1723.38	  399.36
     87.5700	  635.00	  635.18	-1731.93	  399.29
     87.6700	  615.00	  629.46	-1746.21	  399.22
     87.7700	  606.00	  621.28	-1747.03	  399.14
     87.8700	  664.00	  611.63	-1679.38	  399.07
     87.9700	  624.00	  601.47	-1709.22	  398.99
     88.0700	  614.00	  591.68	-1709.43	  398.91
     88.1700	  625.00	  582.95	-1689.70	  398.83
     88.2700	  603.00	  575.82	-1704.57	  398.75
     88.3700	  568.00	  570.61	-1734.36	  398.67
     88.4700	  591.00	  567.49	-1708.24	  398.58
     88.5700	  626.00	  566.42	-1672.17	  398.50
     88.6700	  576.00	  567.23	-1722.98	  398.41
     88.7700	  614.00	  569.60	-1687.35	  398.32
     88.8700	  602.00	  573.15	-1702.90	  398.23
     88.9700	  587.00	  577.37	-1722.12	  398.14
     89.0700	  613.00	  581.73	-1700.48	  398.05
     89.1700	  615.00	  585.66	-1702.41	  397.96
     89.2700	  601.00	  588.58	-1719.33	  397.87
     89.3700	  582.00	  590.03	-1739.78	  397.77
     89.4700	  580.00	  589.72	-1741.47	  397.67
     89.5700	  641.00	  587.62	-1678.37	  397.58
     89.6700	  574.00	  583.98	-1741.73	  397.48
     89.7700	  554.00	  579.19	-1756.94	  397.38
     89.8700	  561.00	  573.69	-1744.44	  397.28
     89.9700	  519.00	  567.91	-1780.66	  397.17
     90.0700	  559.00	  562.22	-1734.97	  397.07
     90.1700	  558.00	  556.90	-1730.65	  396.96
     90.2700	  522.00	  552.16	-1761.91	  396.86
     90.3700	  503.00	  548.11	-1776.86	  396.75
     90.4700	  489.00	  544.80	-1787.55	  396.64
     90.5700	  517.00	  542.21	-1756.96	  396.53
     90.6700	  519.00	  540.30	-1753.05	  396.42
     90.7700	  468.00	  538.99	-1802.74	  396.31
     90.8700	  533.00	  538.19	-1736.94	  396.19
     90.9700	  563.00	  537.85	-1706.60	  396.08
     91.0700	  554.00	  537.92	-1715.67	  395.96
     91.1700	  543.00	  538.39	-1727.14	  395.85
     91.2700	  516.00	  539.27	-1755.02	  395.73
     91.3700	  523.00	  540.63	-1749.38	  395.61
     91.4700	  470.00	  542.57	-1804.32	  395.49
     91.5700	  540.00	  545.25	-1737.00	  395.36
     91.6700	  505.00	  548.83	-1775.58	  395.24
     91.7700	  563.00	  553.53	-1722.28	  395.12
     91.8700	  547.00	  559.58	-1744.33	  394.99
     91.9700	  555.00	  567.18	-1743.93	  394.86
     92.0700	  549.00	  576.53	-1759.28	  394.74
     92.1700	  549.00	  587.74	-1770.49	  394.61
     92.2700	  617.00	  600.62	-1715.36	  394.48
     92.3700	  636.00	  615.55	-1711.30	  394.35
     92.4700	  594.00	  632.08	-1769.83	  394.21
     92.5700	  679.00	  649.85	-1702.60	  394.08
     92.6700	  660.00	  668.35	-1740.10	  393.94
     92.7700	  718.00	  686.91	-1700.66	  393.81
     92.8700	  720.00	  704.78	-1716.53	  393.67
     92.9700	  737.00	  721.17	-1715.92	  393.53
     93.0700	  754.00	  735.47	-1713.22	  393.39
     93.1700	  756.00	  747.37	-1723.12	  393.25
     93.2700	  797.00	  756.98	-1691.73	  393.11
     93.3700	  713.00	  764.74	-1783.49	  392.97
     93.4700	  807.00	  771.26	-1696.01	  392.83
     93.5700	  819.00	  777.18	-1689.93	  392.68
     93.6700	  814.00	  783.05	-1700.80	  392.54
     93.7700	  818.00	  789.40	-1703.15	  392.39
     93.8700	  898.00	  796.74	-1630.49	  392.24
     93.9700	  828.00	  805.57	-1709.32	  392.09
     94.0700	  817.00	  816.32	-1731.07	  391.94
     94.1700	  811.00	  829.18	-1749.93	  391.79
     94.2700	  872.00	  843.91	-1703.66	  391.64
     94.3700	  898.00	  859.86	-1693.61	  391.49
     94.4700	  895.00	  875.89	-1712.64	  391.33
     94.5700	  888.00	  890.47	-1734.22	  391.18
     94.6700	  915.00	  901.82	-1718.57	  391.02
     94.7700	  890.00	  908.12	-1749.87	  390.87
     94.8700	  873.00	  907.90	-1766.65	  390.71
     94.9700	  928.00	  900.42	-1704.17	  390.55
     95.0700	  862.00	  885.89	-1755.64	  390.39
     95.1700	  871.00	  865.42	-1726.17	  390.23
     95.2700	  856.00	  840.67	-1716.42	  390.07
     95.3700	  828.00	  813.63	-1717.38	  389.91
     95.4700	  785.00	  786.27	-1733.02	  389.74
     95.5700	  786.00	  760.50	-1706.25	  389.58
     95.6700	  702.00	  738.06	-1767.81	  389.41
     95.7700	  698.00	  720.51	-1754.26	  389.25
     95.8700	  696.00	  709.25	-1745.00	  389.08
     95.9700	  688.00	  705.50	-1749.25	  388.91
     96.0700	  768.00	  710.26	-1674.01	  388.74
     96.1700	  702.00	  724.38	-1754.13	  388.58
     96.2700	  718.00	  748.47	-1762.22	  388.41
     96.3700	  768.00	  782.86	-1746.61	  388.23
     96.4700	  780.00	  827.50	-1779.25	  388.06
     96.5700	  851.00	  881.93	-1762.68	  387.89
     96.6700	  960.00	  945.14	-1716.89	  387.72
     96.7700	 1005.00	 1015.49	-1742.24	  387.54
     96.8700	 1127.00	 1090.67	-1695.42	  387.37
     96.9700	 1146.00	 1167.69	-1753.44	  387.19
     97.0700	 1222.00	 1242.92	-1752.67	  387.01
     97.1700	 1310.00	 1312.19	-1733.94	  386.84
     97.2700	 1405.00	 1371.01	-1697.76	  386.66
     97.3700	 1345.00	 1415.00	-1801.75	  386.48
     97.4700	 1416.00	 1440.56	-1756.31	  386.30
     97.5700	 1360.00	 1445.64	-1817.39	  386.12
     97.6700	 1486.00	 1430.17	-1675.92	  385.94
     97.7700	 1317.00	 1396.05	-1810.80	  385.76
     97.8700	 1385.00	 1346.64	-1693.39	  385.58
     97.9700	 1280.00	 1286.08	-1737.83	  385.39
     98.0700	 1245.00	 1218.67	-1705.42	  385.21
     98.1700	 1081.00	 1148.52	-1799.27	  385.03
     98.2700	 1072.00	 1079.38	-1739.13	  384.84
     98.3700	 1043.00	 1014.48	-1703.23	  384.66
     98.4700	  922.00	  956.50	-1766.25	  384.47
     98.5700	  856.00	  907.66	-1783.41	  384.28
     98.6700	  863.00	  869.61	-1738.36	  384.10
     98.7700	  845.00	  843.63	-1730.38	  383.91
     98.8700	  792.00	  830.63	-1770.38	  383.72
     98.9700	  859.00	  831.23	-1703.98	  383.53
     99.0700	  822.00	  845.81	-1755.56	  383.34
     99.1700	  875.00	  874.55	-1731.30	  383.15
     99.2700	  943.00	  917.39	-1706.14	  382.96
     99.3700	  963.00	  974.05	-1742.80	  382.77
     99.4700	 1051.00	 1043.90	-1724.65	  382.58
     99.5700	 1108.00	 1125.91	-1749.66	  382.39
     99.6700	 1223.00	 1218.54	-1727.29	  382.20
     99.7700	 1297.00	 1319.64	-1754.39	  382.01
     99.8700	 1419.00	 1426.42	-1739.17	  381.82
     99.9700	 1505.00	 1535.37	-1762.12	  381.62
    100.0700	 1624.00	 1642.41	-1750.16	  381.43
    100.1700	 1760.00	 1743.09	-1714.84	  381.24
    100.2700	 1819.00	 1833.06	-1745.81	  381.04
    100.3700	 1921.00	 1908.51	-1719.26	  380.85
    100.4700	 1985.00	 1966.50	-1713.25	  380.65
    100.5700	 2094.00	 2005.06	-1642.81	  380.46
    100.6700	 2074.00	 2022.99	-1680.74	  380.26
    100.7700	 2040.00	 2019.73	-1711.48	  380.07
    100.8700	 2055.00	 1995.34	-1672.09	  379.87
    100.9700	 2032.00	 1950.91	-1650.66	  379.68
    101.0700	 1877.00	 1888.77	-1743.52	  379.48
    101.1700	 1723.00	 1812.62	-1821.37	  379.28
    101.2700	 1764.00	 1727.10	-1694.85	  379.09
    101.3700	 1558.00	 1637.18	-1810.93	  378.89
    101.4700	 1603.00	 1547.65	-1676.40	  378.69
    101.5700	 1529.00	 1462.58	-1665.33	  378.50
    101.6700	 1426.00	 1385.12	-1690.87	  378.30
    101.7700	 1290.00	 1317.38	-1759.13	  378.10
    101.8700	 1268.00	 1260.48	-1724.23	  377.91
    101.9700	 1196.00	 1214.51	-1750.26	  377.71
    102.0700	 1232.00	 1178.66	-1678.41	  377.51
    102.1700	 1070.00	 1151.36	-1813.11	  377.32
    102.2700	 1175.00	 1130.39	-1687.14	  377.12
    102.3700	 1112.00	 1113.18	-1732.93	  376.92
    102.4700	 1134.00	 1097.04	-1694.79	  376.72
    102.5700	 1087.00	 1079.50	-1724.25	  376.53
    102.6700	 1025.00	 1058.66	-1765.41	  376.33
    102.7700	 1020.00	 1033.40	-1745.15	  376.13
    102.8700	 1048.00	 1003.49	-1687.24	  375.94
    102.9700	  988.00	  969.38	-1713.13	  375.74
    103.0700	  909.00	  932.03	-1754.78	  375.54
    103.1700	  899.00	  892.64	-1725.39	  375.35
    103.2700	  804.00	  852.47	-1780.22	  375.15
    103.3700	  801.00	  812.71	-1743.46	  374.96
    103.4700	  752.00	  774.44	-1754.19	  374.76
    103.5700	  733.00	  738.53	-1737.28	  374.56
    103.6700	  694.00	  705.65	-1743.40	  374.37
    103.7700	  672.00	  676.25	-1736.00	  374.17
    103.8700	  643.00	  650.56	-1739.31	  373.98
    103.9700	  636.00	  628.62	-1724.37	  373.79
    104.0700	  562.00	  610.30	-1780.05	  373.59
    104.1700	  552.00	  595.35	-1775.10	  373.40
    104.2700	  560.00	  583.45	-1755.20	  373.21
    104.3700	  570.00	  574.22	-1735.97	  373.01
    104.4700	  556.00	  567.28	-1743.03	  372.82
    104.5700	  580.00	  562.25	-1714.00	  372.63
    104.6700	  599.00	  558.80	-1691.55	  372.44
    104.7700	  585.00	  556.61	-1703.36	  372.25
    104.8700	  547.00	  555.46	-1740.21	  372.06
    104.9700	  544.00	  555.12	-1742.87	  371.87
    105.0700	  557.00	  555.45	-1730.20	  371.68
    105.1700	  568.00	  556.33	-1720.08	  371.49
    105.2700	  551.00	  557.70	-1738.45	  371.30
    105.3700	  538.00	  559.52	-1753.27	  371.11
    105.4700	  578.00	  561.80	-1715.55	  370.93
    105.5700	  564.00	  564.60	-1732.35	  370.74
    105.6700	  559.00	  567.99	-1740.74	  370.56
    105.7700	  564.00	  572.07	-1739.82	  370.37
    105.8700	  562.00	  576.94	-1746.69	  370.19
    105.9700	  611.00	  582.68	-1703.43	  370.01
    106.0700	  591.00	  589.35	-1730.10	  369.82
    106.1700	  580.00	  596.94	-1748.69	  369.64
    106.2700	  621.00	  605.41	-1716.17	  369.46
    106.3700	  605.00	  614.65	-1741.40	  369.28
    106.4700	  615.00	  624.47	-1741.22	  369.10
    106.5700	  613.00	  634.64	-1753.39	  368.93
    106.6700	  643.00	  644.86	-1733.61	  368.75
    106.7700	  676.00	  654.78	-1710.53	  368.57
    106.8700	  674.00	  664.04	-1721.79	  368.40
    106.9700	  645.00	  672.25	-1759.00	  368.22
    107.0700	  682.00	  679.06	-1728.81	  368.05
    107.1700	  654.00	  684.22	-1761.97	  367.88
    107.2700	  665.00	  687.61	-1754.36	  367.71
    107.3700	  688.00	  689.25	-1733.00	  367.54
    107.4700	  689.00	  689.35	-1732.10	  367.37
    107.5700	  685.00	  688.26	-1735.01	  367.20
    107.6700	  687.00	  686.37	-1731.12	  367.04
    107.7700	  682.00	  684.12	-1733.87	  366.87
    107.8700	  697.00	  681.87	-1716.62	  366.71
    107.9700	  699.00	  679.95	-1712.70	  366.55
    108.0700	  688.00	  678.56	-1722.31	  366.39
    108.1700	  647.00	  677.82	-1762.57	  366.23
    108.2700	  656.00	  677.73	-1753.48	  366.07
    108.3700	  705.00	  678.17	-1704.92	  365.91
    108.4700	  704.00	  678.93	-1706.68	  365.76
    108.5700	  688.00	  679.72	-1723.47	  365.60
    108.6700	  667.00	  680.18	-1744.93	  365.45
    108.7700	  664.00	  679.93	-1747.68	  365.30
    108.8700	  697.00	  678.62	-1713.37	  365.15
    108.9700	  665.00	  675.97	-1742.72	  365.00
    109.0700	  674.00	  671.85	-1729.60	  364.85
    109.1700	  694.00	  666.23	-1703.98	  364.71
    109.2700	  651.00	  659.23	-1739.98	  364.57
    109.3700	  695.00	  651.07	-1687.82	  364.43
    109.4700	  654.00	  642.04	-1719.79	  364.29
    109.5700	  632.00	  632.44	-1732.19	  364.15
    109.6700	  569.00	  622.59	-1785.34	  364.01
    109.7700	  586.00	  612.78	-1758.53	  363.88
    109.8700	  601.00	  603.26	-1734.01	  363.74
    109.9700	  610.00	  594.26	-1716.01	  363.61
    110.0700	  623.00	  585.95	-1694.70	  363.49
    110.1700	  573.00	  578.47	-1737.22	  363.36
    110.2700	  581.00	  571.90	-1722.65	  363.23
    110.3700	  609.00	  566.28	-1689.03	  363.11
    110.4700	  570.00	  561.61	-1723.36	  362.99
    110.5700	  549.00	  557.88	-1740.63	  362.87
    110.6700	  555.00	  555.01	-1731.76	  362.75
    110.7700	  568.00	  552.96	-1716.71	  362.64
    110.8700	  569.00	  551.62	-1714.37	  362.53
    110.9700	  542.00	  550.93	-1740.68	  362.42
    111.0700	  557.00	  550.79	-1725.54	  362.31
    111.1700	  549.00	  551.12	-1733.87	  362.20
    111.2700	  550.00	  551.86	-1733.61	  362.10
    111.3700	  589.00	  552.94	-1695.69	  362.00
    111.4700	  542.00	  554.30	-1744.05	  361.90
    111.5700	  539.00	  555.91	-1748.66	  361.80
    111.6700	  552.00	  557.72	-1737.47	  361.71
    111.7700	  552.00	  559.72	-1739.47	  361.61
    111.8700	  539.00	  561.89	-1754.64	  361.52
    111.9700	  596.00	  564.22	-1699.97	  361.44
    112.0700	  577.00	  566.73	-1721.48	  361.35
    112.1700	  556.00	  569.42	-1745.17	  361.27
    112.2700	  521.00	  572.32	-1783.07	  361.19
    112.3700	  580.00	  575.47	-1727.22	  361.11
    112.4700	  574.00	  578.89	-1736.64	  361.04
    112.5700	  593.00	  582.66	-1721.41	  360.97
    112.6700	  583.00	  586.84	-1735.59	  360.90
    112.7700	  593.00	  591.52	-1730.27	  360.83
    112.8700	  627.00	  596.81	-1701.56	  360.77
    112.9700	  620.00	  602.86	-1714.61	  360.71
    113.0700	  649.00	  609.85	-1692.60	  360.65
    113.1700	  642.00	  618.05	-1707.80	  360.60
    113.2700	  673.00	  627.76	-1686.51	  360.55
    113.3700	  690.00	  639.40	-1681.15	  360.50
    113.4700	  735.00	  653.49	-1650.24	  360.45
    113.5700	  700.00	  670.66	-1702.41	  360.41
    113.6700	  809.00	  691.71	-1614.46	  360.37
    113.7700	  751.00	  717.66	-1698.41	  360.34
    113.8700	  814.00	  749.66	-1667.41	  360.30
    113.9700	  837.00	  789.11	-1683.86	  360.27
    114.0700	  867.00	  837.62	-1702.37	  360.25
    114.1700	  983.00	  897.03	-1645.78	  360.22
    114.2700	 1044.00	  969.40	-1657.15	  360.20
    114.3700	 1127.00	 1056.93	-1661.68	  360.19
    114.4700	 1254.00	 1161.96	-1639.71	  360.17
    114.5700	 1354.00	 1286.85	-1664.60	  360.16
    114.6700	 1514.00	 1433.93	-1651.68	  360.16
    114.7700	 1750.00	 1605.39	-1587.14	  360.15
    114.8700	 1889.00	 1803.02	-1645.77	  360.15
    114.9700	 2135.00	 2028.18	-1624.93	  360.16
    115.0700	 2357.00	 2281.55	-1656.30	  360.17
    115.1700	 2570.00	 2563.08	-1724.83	  360.18
    115.2700	 2865.00	 2871.80	-1738.55	  360.19
    115.3700	 3108.00	 3205.56	-1829.31	  360.21
    115.4700	 3490.00	 3561.09	-1802.84	  360.24
    115.5700	 3974.00	 3933.82	-1691.57	  360.26
    115.6700	 4238.00	 4318.05	-1811.80	  360.29
    115.7700	 4574.00	 4706.83	-1864.58	  360.33
    115.8700	 4954.00	 5091.92	-1869.67	  360.37
    115.9700	 5289.00	 5464.09	-1906.84	  360.41
    116.0700	 5733.00	 5813.19	-1811.94	  360.46
    116.1700	 5918.00	 6128.60	-1942.35	  360.51
    116.2700	 6345.00	 6399.58	-1786.33	  360.56
    116.3700	 6616.00	 6615.82	-1731.57	  360.62
    116.4700	 6780.00	 6768.40	-1720.15	  360.68
    116.5700	 6802.00	 6850.63	-1780.38	  360.75
    116.6700	 6927.00	 6858.89	-1663.64	  360.82
    116.7700	 6769.00	 6793.06	-1755.81	  360.90
    116.8700	 6671.00	 6656.53	-1717.28	  360.98
    116.9700	 6407.00	 6455.79	-1780.54	  361.06
    117.0700	 6141.00	 6199.64	-1790.39	  361.15
    117.1700	 5921.00	 5898.18	-1708.93	  361.25
    117.2700	 5586.00	 5562.01	-1707.76	  361.34
    117.3700	 5086.00	 5201.78	-1847.53	  361.45
    117.4700	 4831.00	 4827.47	-1728.22	  361.55
    117.5700	 4511.00	 4448.30	-1669.05	  361.67
    117.6700	 4152.00	 4072.27	-1652.02	  361.78
    117.7700	 3722.00	 3706.22	-1715.97	  361.91
    117.8700	 3350.00	 3355.87	-1737.62	  362.03
    117.9700	 3169.00	 3025.62	-1588.37	  362.16
    118.0700	 2820.00	 2718.74	-1630.49	  362.30
    118.1700	 2446.00	 2437.24	-1722.99	  362.44
    118.2700	 2274.00	 2182.16	-1639.91	  362.59
    118.3700	 1943.00	 1953.73	-1742.48	  362.74
    118.4700	 1792.00	 1751.38	-1691.13	  362.89
    118.5700	 1520.00	 1574.00	-1785.75	  363.06
    118.6700	 1422.00	 1419.94	-1729.69	  363.22
    118.7700	 1242.00	 1287.30	-1777.05	  363.39
    118.8700	 1133.00	 1174.00	-1772.75	  363.57
    118.9700	 1085.00	 1077.89	-1724.64	  363.75
    119.0700	  972.00	  996.86	-1756.61	  363.94
    119.1700	  942.00	  928.85	-1718.60	  364.14
    119.2700	  821.00	  871.98	-1782.73	  364.33
    119.3700	  769.00	  824.55	-1787.30	  364.54
    119.4700	  723.00	  785.05	-1793.80	  364.75
    119.5700	  767.00	  752.18	-1716.93	  364.96
    119.6700	  723.00	  724.82	-1733.57	  365.19
    119.7700	  690.00	  702.01	-1743.76	  365.41
    119.8700	  612.00	  682.98	-1802.73	  365.65
    119.9700	  649.00	  667.08	-1749.83	  365.88
    120.0700	  576.00	  653.79	-1809.54	  366.13
    120.1700	  597.00	  642.68	-1777.43	  366.38
    120.2700	  580.00	  633.42	-1785.17	  366.63
    120.3700	  589.00	  625.72	-1768.47	  366.90
    120.4700	  584.00	  619.37	-1767.12	  367.16
    120.5700	  589.00	  614.21	-1756.96	  367.44
    120.6700	  584.00	  610.09	-1757.84	  367.72
    120.7700	  592.00	  606.90	-1746.65	  368.01
    120.8700	  600.00	  604.57	-1736.32	  368.30
    120.9700	  611.00	  603.01	-1723.76	  368.60
    121.0700	  543.00	  602.18	-1790.93	  368.90
    121.1700	  609.00	  602.02	-1724.77	  369.22
    121.2700	  522.00	  602.48	-1812.23	  369.54
    121.3700	  593.00	  603.51	-1742.26	  369.86
    121.4700	  559.00	  605.07	-1777.82	  370.19
    121.5700	  606.00	  607.09	-1732.84	  370.53
    121.6700	  623.00	  609.53	-1718.28	  370.88
    121.7700	  615.00	  612.31	-1729.06	  371.23
    121.8700	  628.00	  615.36	-1719.11	  371.59
    121.9700	  647.00	  618.60	-1703.35	  371.95
    122.0700	  644.00	  621.94	-1709.69	  372.32
    122.1700	  625.00	  625.26	-1732.01	  372.70
    122.2700	  661.00	  628.51	-1699.26	  373.09
    122.3700	  666.00	  631.57	-1697.32	  373.48
    122.4700	  590.00	  634.33	-1776.08	  373.88
    122.5700	  678.00	  636.69	-1690.44	  374.29
    122.6700	  630.00	  638.59	-1740.34	  374.71
    122.7700	  644.00	  639.94	-1727.69	  375.13
    122.8700	  644.00	  640.70	-1728.45	  375.56
    122.9700	  639.00	  640.86	-1733.61	  375.99
    123.0700	  674.00	  640.41	-1698.16	  376.44
    123.1700	  646.00	  639.39	-1725.14	  376.89
    123.2700	  661.00	  637.85	-1708.60	  377.35
    123.3700	  682.00	  635.85	-1685.60	  377.82
    123.4700	  655.00	  633.45	-1710.20	  378.29
    123.5700	  645.00	  630.72	-1717.47	  378.77
    123.6700	  649.00	  627.74	-1710.49	  379.26
    123.7700	  603.00	  624.59	-1753.34	  379.76
    123.8700	  626.00	  621.33	-1727.08	  380.27
    123.9700	  581.00	  618.02	-1768.77	  380.78
    124.0700	  637.00	  614.73	-1709.48	  381.30
    124.1700	  620.00	  611.51	-1723.26	  381.83
    124.2700	  582.00	  608.40	-1758.15	  382.37
    124.3700	  656.00	  605.44	-1681.19	  382.92
    124.4700	  617.00	  602.65	-1717.40	  383.47
    124.5700	  624.00	  600.07	-1707.82	  384.04
    124.6700	  613.00	  597.71	-1716.46	  384.61
    124.7700	  573.00	  595.58	-1754.33	  385.19
    124.8700	  583.00	  593.70	-1742.45	  385.77
    124.9700	  528.00	  506.42	-1710.17	  386.37
    125.0700	  588.00	  507.03	-1731.75	  386.98
    125.1700	  609.00	  507.64	-1731.75	  387.59
    125.2700	  568.00	  508.27	-1731.75	  388.21
    125.3700	  620.00	  508.90	-1731.75	  388.85
    125.4700	  581.00	  509.54	-1731.75	  389.49
    125.5700	  558.00	  510.19	-1731.75	  390.14
    125.6700	  564.00	  510.85	-1731.75	  390.79
    125.7700	  532.00	  511.51	-1731.75	  391.46
    125.8700	  535.00	  512.19	-1731.75	  392.14
    125.9700	  589.00	  512.88	-1731.75	  392.82
    126.0700	  529.00	  513.57	-1731.75	  393.52
    126.1700	  564.00	  514.27	-1731.75	  394.22
    126.2700	  572.00	  514.99	-1731.75	  394.94
    126.3700	  593.00	  515.71	-1731.75	  395.66
    126.4700	  600.00	  516.44	-1731.75	  396.39
    126.5700	  543.00	  517.19	-1731.75	  397.13
    126.6700	  596.00	  517.94	-1731.75	  397.89
    126.7700	  627.00	  518.70	-1731.75	  398.65
    126.8700	  612.00	  519.47	-1731.75	  399.42
    126.9700	  657.00	  520.25	-1731.75	  400.20
    127.0700	  667.00	  521.04	-1731.75	  400.99
    127.1700	  652.00	  521.84	-1731.75	  401.79
    127.2700	  686.00	  522.65	-1731.75	  402.60
    127.3700	  647.00	  523.47	-1731.75	  403.42
    127.4700	  651.00	  524.31	-1731.75	  404.25
    127.5700	  700.00	  525.15	-1731.75	  405.10
    127.6700	  733.00	  526.00	-1731.75	  405.95
    127.7700	  713.00	  526.86	-1731.75	  406.81
    127.8700	  750.00	  527.73	-1731.75	  407.68
    127.9700	  733.00	  528.62	-1731.75	  408.56
    128.0700	  797.00	  529.51	-1731.75	  409.46
    128.1700	  771.00	  530.41	-1731.75	  410.36
    128.2700	  789.00	  531.33	-1731.75	  411.28
    128.3700	  807.00	  532.25	-1731.75	  412.20
    128.4700	  797.00	  533.19	-1731.75	  413.14
    128.5700	    1.00	  534.14	-1731.75	  414.09
    128.6700	    0.00	  535.09	-1731.75	  415.04
     12.2968	        	        	        	        	       0	(  0  0  2)	  0  1
     24.8737	        	        	        	        	       0	(  0  0  4)	  0  1
     28.3239	        	        	        	        	       0	(  1  0  0)	  0  1
     29.0205	        	        	        	        	       0	(  1  0  1)	  0  1
     31.0251	        	        	        	        	       0	(  1  0  2)	  0  1
     34.1311	        	        	        	        	       0	(  1  0  3)	  0  1
     37.7662	        	        	        	        	       0	(  0  0  6)	  0  1
     38.1052	        	        	        	        	       0	(  1  0  4)	  0  1
     42.7520	        	        	        	        	       0	(  1  0  5)	  0  1
     47.9324	        	        	        	        	       0	(  1  0  6)	  0  1
     50.2575	        	        	        	        	       0	(  1  1  0)	  0  1
     51.1800	        	        	        	        	       0	(  0  0  8)	  0  1
     51.9790	        	        	        	        	       0	(  1  1  2)	  0  1
     53.5589	        	        	        	        	       0	(  1  0  7)	  0  1
     56.9227	        	        	        	        	       0	(  1  1  4)	  0  1
     58.7530	        	        	        	        	       0	(  2  0  0)	  0  1
     59.1443	        	        	        	        	       0	(  2  0  1)	  0  1
     59.5850	        	        	        	        	       0	(  1  0  8)	  0  1
     60.3086	        	        	        	        	       0	(  2  0  2)	  0  1
     62.2202	        	        	        	        	       0	(  2  0  3)	  0  1
     64.6111	        	        	        	        	       0	(  1  1  6)	  0  1
     64.8420	        	        	        	        	       0	(  2  0  4)	  0  1
     65.3996	        	        	        	        	       0	(  0  0 10)	  0  1
     65.9966	        	        	        	        	       0	(  1  0  9)	  0  1
     68.1334	        	        	        	        	       0	(  2  0  5)	  0  1
     72.0574	        	        	        	        	       0	(  2  0  6)	  0  1
     72.8073	        	        	        	        	       0	(  1  0 10)	  0  1
     74.6403	        	        	        	        	       0	(  1  1  8)	  0  1
     76.5876	        	        	        	        	       0	(  2  0  7)	  0  1
     80.0588	        	        	        	        	       0	(  1  0 11)	  0  1
     80.8675	        	        	        	        	       0	(  0  0 12)	  0  1
     80.9898	        	        	        	        	       0	(  2  1  0)	  0  1
     81.3293	        	        	        	        	       0	(  2  1  1)	  0  1
     81.7132	        	        	        	        	       0	(  2  0  8)	  0  1
     82.3462	        	        	        	        	       0	(  2  1  2)	  0  1
     84.0359	        	        	        	        	       0	(  2  1  3)	  0  1
     86.3933	        	        	        	        	       0	(  2  1  4)	  0  1
     86.9004	        	        	        	        	       0	(  1  1 10)	  0  1
     87.4457	        	        	        	        	       0	(  2  0  9)	  0  1
     87.8258	        	        	        	        	       0	(  1  0 12)	  0  1
     89.4161	        	        	        	        	       0	(  2  1  5)	  0  1
     93.1098	        	        	        	        	       0	(  2  1  6)	  0  1
     93.8266	        	        	        	        	       0	(  2  0 10)	  0  1
     94.8751	        	        	        	        	       0	(  3  0  0)	  0  1
     95.2121	        	        	        	        	       0	(  3  0  1)	  0  1
     96.2243	        	        	        	        	       0	(  3  0  2)	  0  1
     96.2301	        	        	        	        	       0	(  1  0 13)	  0  1
     97.4938	        	        	        	        	       0	(  2  1  7)	  0  1
     97.9158	        	        	        	        	       0	(  3  0  3)	  0  1
     98.3888	        	        	        	        	       0	(  0  0 14)	  0  1
    100.2963	        	        	        	        	       0	(  3  0  4)	  0  1
    100.9405	        	        	        	        	       0	(  2  0 11)	  0  1
    101.7547	        	        	        	        	       0	(  1  1 12)	  0  1
    102.6106	        	        	        	        	       0	(  2  1  8)	  0  1
    103.3845	        	        	        	        	       0	(  3  0  5)	  0  1
    105.4712	        	        	        	        	       0	(  1  0 14)	  0  1
    107.2153	        	        	        	        	       0	(  3  0  6)	  0  1
    108.5403	        	        	        	        	       0	(  2  1  9)	  0  1
    108.9416	        	        	        	        	       0	(  2  0 12)	  0  1
    111.8500	        	        	        	        	       0	(  3  0  7)	  0  1
    115.4279	        	        	        	        	       0	(  2  1 10)	  0  1
    115.8987	        	        	        	        	       0	(  1  0 15)	  0  1
    116.5922	        	        	        	        	       0	(  2  2  0)	  0  1
    117.3960	        	        	        	        	       0	(  3  0  8)	  0  1
    118.1055	        	        	        	        	       0	(  2  2  2)	  0  1
    118.1121	        	        	        	        	       0	(  2  0 13)	  0  1
    119.8442	        	        	        	        	       0	(  0  0 16)	  0  1
    120.5708	        	        	        	        	       0	(  1  1 14)	  0  1
    122.7849	        	        	        	        	       0	(  2  2  4)	  0  1
    123.5421	        	        	        	        	       0	(  2  1 11)	  0  1
    124.0460	        	        	        	        	       0	(  3  0  9)	  0  1
    124.6532	        	        	        	        	       0	(  3  1  0)	  0  1
    125.0629	        	        	        	        	       0	(  3  1  1)	  0  1
    126.3046	        	        	        	        	       0	(  3  1  2)	  0  1
    128.2166	        	        	        	        	       0	(  1  0 16)	  0  1
    128.4198	        	        	        	        	       0	(  3  1  3)	  0  1
    129.0208	        	        	        	        	       0	(  2  0 14)	  0  1
    131.2120	        	        	        	        	       0	(  2  2  6)	  0  1
    131.4910	        	        	        	        	       0	(  3  1  4)	  0  1
    132.1720	        	        	        	        	       0	(  3  0 10)	  0  1
    133.4347	        	        	        	        	       0	(  2  1 12)	  0  1
    135.6710	        	        	        	        	       0	(  3  1  5)	  0  1
    141.2553	        	        	        	        	       0	(  3  1  6)	  0  1
    142.6251	        	        	        	        	       0	(  3  0 11)	  0  1
    143.1192	        	        	        	        	       0	(  2  0 15)	  0  1
    144.3321	        	        	        	        	       0	(  1  0 17)	  0  1
    145.4156	        	        	        	        	       0	(  2  2  8)	  0  1
    146.5508	        	        	        	        	       0	(  2  1 13)	  0  1
    148.9087	        	        	        	        	       0	(  3  1  7)	  0  1
    149.4159	        	        	        	        	       0	(  1  1 16)	  0  1
    153.7604	        	        	        	        	       0	(  0  0 18)	  0  1
    158.4286	        	        	        	        	       0	(  3  0 12)	  0  1
    158.7615	        	        	        	        	       0	(  4  0  0)	  0  1
    159.7141	        	        	        	        	       0	(  4  0  1)	  0  1
    160.8468	        	        	        	        	       0	(  3  1  8)	  0  1
    162.8755	        	        	        	        	       0	(  4  0  2)	  0  1
    169.2425	        	        	        	        	       0	(  2  0 16)	  0  1
    170.1431	        	        	        	        	       0	(  4  0  3)	  0  1
    173.4832	        	        	        	        	       0	(  2  1 14)	  0  1
