MSG Master    CELL:    5.91365   5.91365  23.23674   90.0000   90.0000  120.0000   SPGR: P 63/m m c             TEMP:    973.25
  1   1280     2.52000     0.00000    -0.12689     0.00000     0.00000    0
    98     0     2
       0.00000      10.00000
     125.00000     130.00000
 2Theta	Yobs	Ycal	Yobs-Ycal	Backg	Posr	(hkl)	K
      0.7700	    0.00	  513.26	-1851.25	  400.94
      0.8700	    0.00	  514.34	-1851.25	  402.02
      0.9700	   45.00	  515.41	-1851.25	  403.09
      1.0700	   42.00	  516.46	-1851.25	  404.14
      1.1700	   49.00	  517.50	-1851.25	  405.19
      1.2700	   40.00	  518.53	-1851.25	  406.21
      1.3700	   41.00	  519.55	-1851.25	  407.23
      1.4700	   85.00	  520.55	-1851.25	  408.23
      1.5700	  267.00	  521.54	-1851.25	  409.22
      1.6700	  464.00	  522.51	-1851.25	  410.19
      1.7700	  604.00	  523.47	-1851.25	  411.15
      1.8700	  604.00	  524.42	-1851.25	  412.10
      1.9700	  702.00	  525.36	-1851.25	  413.04
      2.0700	  802.00	  526.28	-1851.25	  413.96
      2.1700	  790.00	  527.19	-1851.25	  414.87
      2.2700	  775.00	  528.09	-1851.25	  415.77
      2.3700	  758.00	  528.97	-1851.25	  416.65
      2.4700	  732.00	  529.84	-1851.25	  417.52
      2.5700	  692.00	  530.70	-1851.25	  418.38
      2.6700	  653.00	  531.55	-1851.25	  419.23
      2.7700	  642.00	  532.38	-1851.25	  420.07
      2.8700	  654.00	  533.21	-1851.25	  420.89
      2.9700	  639.00	  534.02	-1851.25	  421.70
      3.0700	  578.00	  534.82	-1851.25	  422.50
      3.1700	  570.00	  535.60	-1851.25	  423.29
      3.2700	  603.00	  536.38	-1851.25	  424.06
      3.3700	  641.00	  537.14	-1851.25	  424.82
      3.4700	  724.00	  537.89	-1851.25	  425.58
      3.5700	  795.00	  538.63	-1851.25	  426.32
      3.6700	  900.00	  539.36	-1851.25	  427.04
      3.7700	  896.00	  540.08	-1851.25	  427.76
      3.8700	  874.00	  540.78	-1851.25	  428.47
      3.9700	 1009.00	  541.48	-1851.25	  429.16
      4.0700	  980.00	  542.16	-1851.25	  429.84
      4.1700	 1103.00	  542.83	-1851.25	  430.52
      4.2700	 1069.00	  543.49	-1851.25	  431.18
      4.3700	 1073.00	  544.14	-1851.25	  431.83
      4.4700	 1027.00	  544.78	-1851.25	  432.47
      4.5700	 1024.00	  545.41	-1851.25	  433.09
      4.6700	 1016.00	  546.03	-1851.25	  433.71
      4.7700	  927.00	  546.63	-1851.25	  434.32
      4.8700	 1010.00	  547.23	-1851.25	  434.91
      4.9700	  948.00	  547.82	-1851.25	  435.50
      5.0700	  940.00	  548.39	-1851.25	  436.07
      5.1700	  966.00	  548.96	-1851.25	  436.64
      5.2700	  911.00	  549.51	-1851.25	  437.19
      5.3700	  868.00	  550.06	-1851.25	  437.74
      5.4700	  841.00	  550.59	-1851.25	  438.27
      5.5700	  848.00	  551.11	-1851.25	  438.80
      5.6700	  833.00	  551.63	-1851.25	  439.31
      5.7700	  813.00	  552.13	-1851.25	  439.82
      5.8700	  818.00	  552.63	-1851.25	  440.31
      5.9700	  857.00	  553.11	-1851.25	  440.80
      6.0700	  811.00	  553.59	-1851.25	  441.27
      6.1700	  765.00	  554.05	-1851.25	  441.74
      6.2700	  765.00	  554.51	-1851.25	  442.19
      6.3700	  759.00	  554.96	-1851.25	  442.64
      6.4700	  729.00	  555.39	-1851.25	  443.08
      6.5700	  742.00	  555.82	-1851.25	  443.50
      6.6700	  765.00	  556.24	-1851.25	  443.92
      6.7700	  735.00	  556.65	-1851.25	  444.33
      6.8700	  739.00	  557.05	-1851.25	  444.73
      6.9700	  705.00	  557.44	-1851.25	  445.12
      7.0700	  666.00	  557.82	-1851.25	  445.51
      7.1700	  692.00	  558.20	-1851.25	  445.88
      7.2700	  712.00	  558.56	-1851.25	  446.24
      7.3700	  601.00	  558.92	-1851.25	  446.60
      7.4700	  699.00	  559.26	-1851.25	  446.95
      7.5700	  639.00	  559.60	-1851.25	  447.29
      7.6700	  668.00	  559.93	-1851.25	  447.62
      7.7700	  600.00	  560.25	-1851.25	  447.94
      7.8700	  590.00	  560.57	-1851.25	  448.25
      7.9700	  619.00	  560.87	-1851.25	  448.56
      8.0700	  674.00	  561.17	-1851.25	  448.85
      8.1700	  656.00	  561.46	-1851.25	  449.14
      8.2700	  636.00	  561.74	-1851.25	  449.42
      8.3700	  634.00	  562.01	-1851.25	  449.69
      8.4700	  627.00	  562.28	-1851.25	  449.96
      8.5700	  624.00	  562.53	-1851.25	  450.21
      8.6700	  613.00	  562.78	-1851.25	  450.46
      8.7700	  623.00	  563.02	-1851.25	  450.70
      8.8700	  608.00	  563.25	-1851.25	  450.94
      8.9700	  650.00	  563.48	-1851.25	  451.16
      9.0700	  610.00	  563.70	-1851.25	  451.38
      9.1700	  604.00	  563.91	-1851.25	  451.59
      9.2700	  598.00	  564.11	-1851.25	  451.79
      9.3700	  582.00	  564.30	-1851.25	  451.99
      9.4700	  576.00	  564.49	-1851.25	  452.18
      9.5700	  585.00	  564.67	-1851.25	  452.36
      9.6700	  602.00	  564.85	-1851.25	  452.53
      9.7700	  631.00	  565.01	-1851.25	  452.70
      9.8700	  615.00	  565.17	-1851.25	  452.86
      9.9700	  535.00	  565.33	-1851.25	  453.01
     10.0700	  586.00	  566.11	-1831.36	  453.15
     10.1700	  595.00	  566.31	-1822.56	  453.29
     10.2700	  602.00	  566.52	-1815.77	  453.42
     10.3700	  562.00	  566.73	-1855.98	  453.55
     10.4700	  591.00	  566.98	-1827.23	  453.67
     10.5700	  554.00	  567.31	-1864.56	  453.78
     10.6700	  555.00	  567.79	-1864.04	  453.88
     10.7700	  566.00	  568.52	-1853.77	  453.98
     10.8700	  551.00	  569.60	-1869.85	  454.07
     10.9700	  638.00	  571.02	-1784.27	  454.16
     11.0700	  573.00	  572.75	-1851.00	  454.24
     11.1700	  599.00	  574.76	-1827.01	  454.31
     11.2700	  575.00	  577.08	-1853.33	  454.38
     11.3700	  576.00	  579.78	-1855.03	  454.44
     11.4700	  596.00	  582.95	-1838.20	  454.49
     11.5700	  561.00	  586.76	-1877.01	  454.54
     11.6700	  593.00	  591.48	-1849.73	  454.58
     11.7700	  608.00	  597.60	-1840.85	  454.62
     11.8700	  658.00	  605.98	-1799.23	  454.65
     11.9700	  669.00	  617.58	-1799.83	  454.67
     12.0700	  677.00	  631.88	-1806.13	  454.69
     12.1700	  655.00	  643.98	-1840.23	  454.71
     12.2700	  659.00	  644.36	-1836.61	  454.71
     12.3700	  619.00	  627.49	-1859.74	  454.71
     12.4700	  642.00	  603.66	-1812.91	  454.71
     12.5700	  602.00	  585.56	-1834.81	  454.70
     12.6700	  544.00	  575.93	-1883.18	  454.69
     12.7700	  537.00	  571.88	-1886.13	  454.67
     12.8700	  573.00	  570.25	-1848.50	  454.64
     12.9700	  591.00	  569.44	-1829.69	  454.61
     13.0700	  571.00	  568.91	-1849.16	  454.58
     13.1700	  606.00	  568.53	-1813.78	  454.54
     13.2700	  509.00	  568.23	-1910.48	  454.49
     13.3700	  533.00	  567.98	-1886.23	  454.44
     13.4700	  549.00	  567.78	-1870.03	  454.38
     13.5700	  559.00	  567.60	-1859.85	  454.32
     13.6700	  596.00	  567.43	-1822.68	  454.26
     13.7700	  571.00	  567.28	-1847.53	  454.19
     13.8700	  567.00	  567.14	-1851.39	  454.11
     13.9700	  567.00	  567.01	-1851.26	  454.03
     14.0700	  610.00	  566.87	-1808.12	  453.95
     14.1700	  514.00	  566.74	-1903.99	  453.86
     14.2700	  525.00	  566.62	-1892.87	  453.76
     14.3700	  561.00	  566.49	-1856.74	  453.66
     14.4700	  523.00	  566.36	-1894.61	  453.56
     14.5700	  559.00	  566.23	-1858.48	  453.45
     14.6700	  585.00	  566.10	-1832.35	  453.34
     14.7700	  499.00	  565.96	-1918.21	  453.23
     14.8700	  539.00	  565.83	-1878.08	  453.11
     14.9700	  550.00	  565.69	-1866.94	  452.98
     15.0700	  511.00	  565.55	-1905.80	  452.85
     15.1700	  528.00	  565.40	-1888.65	  452.72
     15.2700	  572.00	  565.25	-1844.50	  452.58
     15.3700	  546.00	  565.10	-1870.35	  452.44
     15.4700	  566.00	  564.95	-1850.20	  452.30
     15.5700	  555.00	  564.79	-1861.04	  452.15
     15.6700	  554.00	  564.63	-1861.88	  452.00
     15.7700	  530.00	  564.47	-1885.72	  451.84
     15.8700	  525.00	  564.30	-1890.55	  451.68
     15.9700	  569.00	  564.13	-1846.38	  451.52
     16.0700	  548.00	  563.96	-1867.21	  451.35
     16.1700	  563.00	  563.79	-1852.04	  451.18
     16.2700	  569.00	  563.61	-1845.86	  451.00
     16.3700	  582.00	  563.42	-1832.67	  450.82
     16.4700	  561.00	  563.24	-1853.49	  450.64
     16.5700	  584.00	  563.07	-1830.32	  450.46
     16.6700	  529.00	  562.88	-1885.13	  450.27
     16.7700	  568.00	  562.69	-1845.94	  450.08
     16.8700	  536.00	  562.49	-1877.74	  449.88
     16.9700	  532.00	  562.29	-1881.54	  449.68
     17.0700	  547.00	  562.08	-1866.33	  449.48
     17.1700	  526.00	  561.88	-1887.13	  449.27
     17.2700	  538.00	  561.67	-1874.92	  449.07
     17.3700	  548.00	  561.46	-1864.71	  448.86
     17.4700	  620.00	  561.24	-1792.49	  448.64
     17.5700	  534.00	  561.02	-1878.27	  448.42
     17.6700	  498.00	  560.80	-1914.05	  448.20
     17.7700	  594.00	  560.69	-1817.94	  447.98
     17.8700	  577.00	  560.46	-1834.71	  447.75
     17.9700	  555.00	  560.23	-1856.48	  447.53
     18.0700	  530.00	  560.00	-1881.25	  447.29
     18.1700	  624.00	  559.77	-1787.02	  447.06
     18.2700	  542.00	  559.54	-1868.79	  446.82
     18.3700	  546.00	  559.30	-1864.55	  446.58
     18.4700	  553.00	  559.06	-1857.31	  446.34
     18.5700	  538.00	  558.82	-1872.07	  446.10
     18.6700	  547.00	  558.57	-1862.82	  445.85
     18.7700	  542.00	  558.33	-1867.58	  445.60
     18.8700	  547.00	  558.16	-1862.41	  445.35
     18.9700	  551.00	  557.91	-1858.16	  445.09
     19.0700	  539.00	  557.66	-1869.91	  444.83
     19.1700	  585.00	  557.41	-1823.66	  444.57
     19.2700	  539.00	  557.15	-1869.40	  444.31
     19.3700	  564.00	  556.89	-1844.14	  444.05
     19.4700	  590.00	  556.64	-1817.89	  443.78
     19.5700	  576.00	  556.37	-1831.62	  443.51
     19.6700	  563.00	  556.11	-1844.36	  443.24
     19.7700	  540.00	  555.85	-1867.10	  442.97
     19.8700	  558.00	  555.58	-1848.83	  442.70
     19.9700	  526.00	  555.31	-1880.56	  442.42
     20.0700	  590.00	  555.04	-1816.29	  442.14
     20.1700	  538.00	  554.77	-1868.02	  441.86
     20.2700	  539.00	  554.47	-1866.72	  441.58
     20.3700	  514.00	  554.20	-1891.45	  441.29
     20.4700	  518.00	  553.93	-1887.18	  441.01
     20.5700	  562.00	  553.65	-1842.90	  440.72
     20.6700	  542.00	  553.37	-1862.62	  440.43
     20.7700	  556.00	  553.10	-1848.35	  440.14
     20.8700	  557.00	  552.82	-1847.07	  439.84
     20.9700	  536.00	  552.57	-1867.82	  439.55
     21.0700	  555.00	  552.29	-1848.54	  439.25
     21.1700	  557.00	  552.01	-1846.26	  438.95
     21.2700	  520.00	  551.73	-1882.98	  438.65
     21.3700	  541.00	  551.45	-1861.70	  438.35
     21.4700	  590.00	  551.17	-1812.42	  438.05
     21.5700	  511.00	  550.88	-1891.13	  437.75
     21.6700	  598.00	  550.60	-1803.85	  437.44
     21.7700	  588.00	  550.32	-1813.57	  437.13
     21.8700	  581.00	  550.04	-1820.29	  436.83
     21.9700	  553.00	  549.76	-1848.01	  436.52
     22.0700	  549.00	  549.48	-1851.73	  436.21
     22.1700	  562.00	  549.20	-1838.45	  435.89
     22.2700	  555.00	  548.92	-1845.17	  435.58
     22.3700	  541.00	  548.65	-1858.90	  435.27
     22.4700	  544.00	  548.38	-1855.62	  434.95
     22.5700	  517.00	  548.11	-1882.36	  434.64
     22.6700	  519.00	  547.84	-1880.09	  434.32
     22.7700	  542.00	  547.58	-1856.83	  434.00
     22.8700	  553.00	  547.32	-1845.57	  433.68
     22.9700	  577.00	  547.08	-1821.33	  433.36
     23.0700	  552.00	  546.84	-1846.09	  433.04
     23.1700	  541.00	  546.61	-1856.86	  432.71
     23.2700	  555.00	  546.40	-1842.65	  432.39
     23.3700	  574.00	  546.20	-1823.45	  432.07
     23.4700	  535.00	  546.03	-1862.28	  431.74
     23.5700	  589.00	  545.89	-1808.14	  431.42
     23.6700	  583.00	  545.80	-1814.05	  431.09
     23.7700	  547.00	  545.79	-1850.04	  430.76
     23.8700	  577.00	  546.03	-1820.28	  430.43
     23.9700	  557.00	  546.43	-1840.68	  430.11
     24.0700	  626.00	  547.45	-1772.70	  429.78
     24.1700	  582.00	  549.64	-1818.89	  429.45
     24.2700	  576.00	  553.80	-1829.05	  429.12
     24.3700	  544.00	  560.85	-1868.10	  428.79
     24.4700	  613.00	  571.89	-1810.14	  428.45
     24.5700	  586.00	  587.97	-1853.22	  428.12
     24.6700	  613.00	  608.15	-1846.40	  427.79
     24.7700	  603.00	  626.41	-1874.66	  427.46
     24.8700	  617.00	  631.39	-1865.64	  427.12
     24.9700	  678.00	  615.58	-1788.83	  426.79
     25.0700	  586.00	  588.82	-1854.07	  426.46
     25.1700	  553.00	  566.15	-1864.40	  426.12
     25.2700	  626.00	  552.74	-1777.99	  425.79
     25.3700	  530.00	  546.54	-1867.79	  425.45
     25.4700	  506.00	  543.94	-1889.19	  425.12
     25.5700	  552.00	  542.70	-1841.95	  424.78
     25.6700	  569.00	  541.95	-1824.20	  424.45
     25.7700	  585.00	  541.41	-1807.66	  424.11
     25.8700	  550.00	  541.00	-1842.25	  423.77
     25.9700	  562.00	  540.70	-1829.95	  423.44
     26.0700	  586.00	  540.48	-1805.73	  423.10
     26.1700	  547.00	  540.33	-1844.58	  422.77
     26.2700	  548.00	  540.26	-1843.51	  422.43
     26.3700	  544.00	  540.27	-1847.52	  422.09
     26.4700	  564.00	  540.36	-1827.61	  421.76
     26.5700	  535.00	  540.54	-1856.79	  421.42
     26.6700	  532.00	  540.84	-1860.09	  421.08
     26.7700	  518.00	  541.28	-1874.53	  420.75
     26.8700	  588.00	  541.89	-1805.14	  420.41
     26.9700	  614.00	  542.72	-1779.97	  420.08
     27.0700	  586.00	  543.86	-1809.11	  419.74
     27.1700	  560.00	  545.42	-1836.67	  419.41
     27.2700	  543.00	  547.64	-1855.89	  419.07
     27.3700	  565.00	  550.96	-1837.21	  418.74
     27.4700	  492.00	  556.28	-1915.53	  418.40
     27.5700	  567.00	  565.15	-1849.40	  418.07
     27.6700	  618.00	  580.12	-1813.37	  417.73
     27.7700	  550.00	  604.62	-1905.87	  417.40
     27.8700	  596.00	  641.90	-1897.15	  417.06
     27.9700	  635.00	  692.84	-1909.09	  416.73
     28.0700	  732.00	  752.99	-1872.24	  416.40
     28.1700	  892.00	  809.68	-1768.93	  416.07
     28.2700	  928.00	  841.75	-1765.00	  415.73
     28.3700	  929.00	  830.97	-1753.22	  415.40
     28.4700	  869.00	  789.04	-1771.29	  415.07
     28.5700	  721.00	  751.25	-1881.50	  414.74
     28.6700	  664.00	  739.69	-1926.94	  414.41
     28.7700	  725.00	  754.94	-1881.19	  414.08
     28.8700	  758.00	  781.53	-1874.78	  413.75
     28.9700	  784.00	  793.70	-1860.95	  413.43
     29.0700	  856.00	  768.75	-1764.00	  413.10
     29.1700	  663.00	  712.16	-1900.41	  412.77
     29.2700	  643.00	  651.54	-1859.79	  412.44
     29.3700	  592.00	  604.67	-1863.92	  412.12
     29.4700	  578.00	  574.79	-1848.04	  411.79
     29.5700	  591.00	  558.02	-1818.27	  411.47
     29.6700	  607.00	  549.07	-1793.32	  411.14
     29.7700	  667.00	  544.08	-1728.33	  410.82
     29.8700	  621.00	  541.01	-1771.26	  410.50
     29.9700	  585.00	  539.02	-1805.27	  410.18
     30.0700	  557.00	  537.84	-1832.09	  409.86
     30.1700	  547.00	  537.54	-1841.79	  409.54
     30.2700	  584.00	  538.50	-1805.75	  409.22
     30.3700	  565.00	  541.59	-1827.84	  408.90
     30.4700	  576.00	  548.25	-1823.50	  408.58
     30.5700	  536.00	  560.23	-1875.48	  408.27
     30.6700	  580.00	  578.59	-1849.84	  407.95
     30.7700	  576.00	  602.00	-1877.25	  407.64
     30.8700	  598.00	  625.06	-1878.31	  407.32
     30.9700	  599.00	  638.10	-1890.35	  407.01
     31.0700	  585.00	  631.52	-1897.77	  406.70
     31.1700	  611.00	  607.27	-1847.52	  406.39
     31.2700	  556.00	  578.85	-1874.10	  406.08
     31.3700	  565.00	  556.13	-1842.38	  405.77
     31.4700	  592.00	  541.51	-1800.76	  405.46
     31.5700	  530.00	  533.44	-1854.69	  405.15
     31.6700	  545.00	  529.27	-1835.52	  404.85
     31.7700	  528.00	  527.03	-1850.28	  404.54
     31.8700	  542.00	  525.66	-1834.91	  404.24
     31.9700	  508.00	  524.72	-1867.97	  403.94
     32.0700	  540.00	  524.03	-1835.28	  403.63
     32.1700	  575.00	  523.54	-1799.79	  403.33
     32.2700	  540.00	  523.21	-1834.46	  403.03
     32.3700	  535.00	  523.02	-1839.27	  402.74
     32.4700	  558.00	  522.98	-1816.23	  402.44
     32.5700	  593.00	  523.10	-1781.35	  402.14
     32.6700	  538.00	  523.40	-1836.65	  401.85
     32.7700	  495.00	  523.91	-1880.16	  401.56
     32.8700	  561.00	  524.69	-1814.94	  401.26
     32.9700	  530.00	  525.83	-1847.08	  400.97
     33.0700	  593.00	  527.49	-1785.74	  400.68
     33.1700	  556.00	  529.99	-1825.24	  400.40
     33.2700	  543.00	  534.06	-1842.31	  400.11
     33.3700	  593.00	  541.36	-1799.61	  399.82
     33.4700	  507.00	  555.40	-1899.65	  399.54
     33.5700	  568.00	  582.23	-1865.48	  399.26
     33.6700	  613.00	  630.18	-1868.43	  398.97
     33.7700	  676.00	  705.99	-1881.24	  398.69
     33.8700	  854.00	  806.76	-1804.01	  398.41
     33.9700	 1007.00	  911.78	-1756.03	  398.14
     34.0700	 1067.00	  981.49	-1765.74	  397.86
     34.1700	 1035.00	  973.18	-1789.43	  397.59
     34.2700	  984.00	  884.80	-1752.05	  397.31
     34.3700	  794.00	  766.95	-1824.20	  397.04
     34.4700	  697.00	  665.90	-1820.15	  396.77
     34.5700	  594.00	  598.08	-1855.33	  396.50
     34.6700	  569.00	  559.92	-1842.17	  396.23
     34.7700	  519.00	  540.69	-1872.94	  395.97
     34.8700	  488.00	  531.07	-1894.32	  395.70
     34.9700	  526.00	  525.68	-1850.93	  395.44
     35.0700	  550.00	  522.13	-1823.38	  395.18
     35.1700	  564.00	  519.52	-1806.77	  394.92
     35.2700	  497.00	  517.47	-1871.72	  394.66
     35.3700	  494.00	  515.81	-1873.06	  394.40
     35.4700	  506.00	  514.44	-1859.69	  394.14
     35.5700	  558.00	  513.30	-1806.55	  393.89
     35.6700	  539.00	  512.31	-1824.56	  393.64
     35.7700	  479.00	  511.45	-1883.70	  393.39
     35.8700	  505.00	  511.19	-1857.44	  393.14
     35.9700	  550.00	  510.52	-1811.77	  392.89
     36.0700	  508.00	  509.91	-1853.16	  392.64
     36.1700	  476.00	  509.36	-1884.61	  392.40
     36.2700	  541.00	  508.86	-1819.11	  392.15
     36.3700	  518.00	  508.41	-1841.66	  391.91
     36.4700	  515.00	  507.99	-1844.24	  391.67
     36.5700	  495.00	  507.60	-1863.85	  391.43
     36.6700	  547.00	  507.25	-1811.50	  391.20
     36.7700	  466.00	  506.94	-1892.19	  390.96
     36.8700	  493.00	  506.67	-1864.92	  390.73
     36.9700	  511.00	  506.46	-1846.71	  390.50
     37.0700	  495.00	  506.39	-1862.64	  390.27
     37.1700	  492.00	  506.58	-1865.83	  390.04
     37.2700	  513.00	  507.31	-1845.56	  389.81
     37.3700	  543.00	  508.95	-1817.20	  389.59
     37.4700	  522.00	  511.81	-1841.06	  389.36
     37.5700	  549.00	  515.77	-1818.02	  389.14
     37.6700	  556.00	  519.95	-1815.20	  388.92
     37.7700	  537.00	  522.85	-1837.10	  388.70
     37.8700	  520.00	  523.13	-1854.38	  388.49
     37.9700	  440.00	  521.03	-1932.28	  388.27
     38.0700	  510.00	  517.77	-1859.02	  388.06
     38.1700	  514.00	  514.10	-1851.35	  387.85
     38.2700	  528.00	  510.46	-1833.71	  387.64
     38.3700	  468.00	  507.36	-1890.61	  387.43
     38.4700	  502.00	  505.06	-1854.31	  387.23
     38.5700	  477.00	  503.53	-1877.78	  387.02
     38.6700	  451.00	  502.57	-1902.82	  386.82
     38.7700	  481.00	  501.97	-1872.22	  386.62
     38.8700	  529.00	  501.46	-1823.71	  386.42
     38.9700	  491.00	  501.14	-1861.39	  386.22
     39.0700	  466.00	  500.87	-1886.12	  386.03
     39.1700	  472.00	  500.63	-1879.88	  385.83
     39.2700	  474.00	  500.32	-1877.57	  385.64
     39.3700	  474.00	  500.11	-1877.36	  385.45
     39.4700	  478.00	  499.92	-1873.17	  385.26
     39.5700	  484.00	  499.73	-1866.98	  385.08
     39.6700	  507.00	  499.56	-1843.81	  384.89
     39.7700	  500.00	  499.39	-1850.64	  384.71
     39.8700	  488.00	  499.35	-1862.60	  384.53
     39.9700	  502.00	  499.20	-1848.45	  384.35
     40.0700	  475.00	  499.06	-1875.31	  384.17
     40.1700	  489.00	  498.94	-1861.19	  384.00
     40.2700	  484.00	  498.82	-1866.07	  383.82
     40.3700	  484.00	  498.71	-1865.96	  383.65
     40.4700	  507.00	  498.62	-1842.87	  383.48
     40.5700	  505.00	  498.53	-1844.78	  383.31
     40.6700	  512.00	  498.47	-1837.72	  383.15
     40.7700	  495.00	  498.41	-1854.67	  382.98
     40.8700	  500.00	  498.38	-1849.63	  382.82
     40.9700	  507.00	  498.38	-1842.63	  382.66
     41.0700	  518.00	  498.40	-1831.65	  382.50
     41.1700	  519.00	  498.45	-1830.70	  382.34
     41.2700	  499.00	  498.51	-1850.76	  382.19
     41.3700	  515.00	  498.66	-1834.91	  382.04
     41.4700	  511.00	  498.87	-1839.12	  381.88
     41.5700	  488.00	  499.17	-1862.42	  381.73
     41.6700	  472.00	  500.03	-1879.28	  381.59
     41.7700	  498.00	  500.67	-1853.92	  381.44
     41.8700	  494.00	  501.68	-1858.93	  381.30
     41.9700	  474.00	  503.51	-1880.76	  381.15
     42.0700	  503.00	  507.09	-1855.34	  381.01
     42.1700	  495.00	  514.27	-1870.52	  380.88
     42.2700	  482.00	  527.55	-1896.80	  380.74
     42.3700	  543.00	  549.61	-1857.86	  380.61
     42.4700	  555.00	  580.96	-1877.21	  380.47
     42.5700	  545.00	  617.38	-1923.63	  380.34
     42.6700	  588.00	  648.71	-1911.96	  380.21
     42.7700	  592.00	  661.21	-1920.46	  380.09
     42.8700	  557.00	  647.31	-1941.56	  379.96
     42.9700	  547.00	  614.20	-1918.45	  379.84
     43.0700	  578.00	  576.78	-1850.03	  379.72
     43.1700	  533.00	  545.54	-1863.79	  379.60
     43.2700	  459.00	  524.22	-1916.47	  379.48
     43.3700	  482.00	  511.79	-1881.04	  379.36
     43.4700	  505.00	  505.33	-1851.58	  379.25
     43.5700	  464.00	  502.11	-1889.36	  379.14
     43.6700	  480.00	  500.61	-1871.86	  379.03
     43.7700	  526.00	  499.60	-1824.85	  378.92
     43.8700	  510.00	  498.90	-1840.15	  378.81
     43.9700	  493.00	  498.38	-1856.63	  378.71
     44.0700	  503.00	  497.97	-1846.22	  378.60
     44.1700	  478.00	  497.66	-1870.91	  378.50
     44.2700	  488.00	  497.41	-1860.66	  378.40
     44.3700	  512.00	  497.22	-1836.47	  378.31
     44.4700	  499.00	  497.11	-1849.36	  378.21
     44.5700	  476.00	  496.88	-1872.13	  378.12
     44.6700	  462.00	  496.81	-1886.06	  378.03
     44.7700	  531.00	  496.77	-1817.02	  377.94
     44.8700	  477.00	  496.75	-1871.00	  377.85
     44.9700	  480.00	  496.75	-1868.00	  377.76
     45.0700	  483.00	  496.78	-1865.03	  377.68
     45.1700	  492.00	  496.84	-1856.09	  377.60
     45.2700	  555.00	  497.09	-1793.34	  377.52
     45.3700	  461.00	  497.19	-1887.44	  377.44
     45.4700	  523.00	  497.31	-1825.56	  377.36
     45.5700	  494.00	  497.45	-1854.70	  377.29
     45.6700	  483.00	  497.62	-1865.87	  377.21
     45.7700	  490.00	  497.81	-1859.06	  377.14
     45.8700	  501.00	  498.03	-1848.28	  377.07
     45.9700	  517.00	  498.28	-1832.53	  377.01
     46.0700	  519.00	  498.56	-1830.81	  376.94
     46.1700	  528.00	  498.87	-1822.12	  376.88
     46.2700	  490.00	  499.23	-1860.48	  376.81
     46.3700	  549.00	  499.63	-1801.88	  376.75
     46.4700	  485.00	  500.08	-1866.33	  376.70
     46.5700	  504.00	  500.59	-1847.84	  376.64
     46.6700	  499.00	  501.17	-1853.42	  376.58
     46.7700	  496.00	  501.85	-1857.10	  376.53
     46.8700	  495.00	  502.64	-1858.89	  376.48
     46.9700	  522.00	  503.61	-1832.86	  376.43
     47.0700	  506.00	  504.90	-1850.15	  376.38
     47.1700	  505.00	  506.86	-1853.11	  376.34
     47.2700	  506.00	  510.06	-1855.31	  376.29
     47.3700	  541.00	  515.51	-1825.76	  376.25
     47.4700	  535.00	  524.59	-1840.84	  376.21
     47.5700	  528.00	  538.21	-1861.46	  376.17
     47.6700	  551.00	  556.21	-1856.46	  376.14
     47.7700	  568.00	  576.15	-1859.40	  376.10
     47.8700	  607.00	  593.05	-1837.30	  376.07
     47.9700	  603.00	  600.80	-1849.05	  376.04
     48.0700	  600.00	  596.21	-1847.46	  376.01
     48.1700	  545.00	  582.38	-1888.63	  375.98
     48.2700	  581.00	  565.77	-1836.02	  375.95
     48.3700	  549.00	  551.57	-1853.82	  375.93
     48.4700	  520.00	  542.23	-1873.48	  375.90
     48.5700	  536.00	  537.99	-1853.24	  375.88
     48.6700	  500.00	  537.88	-1889.13	  375.86
     48.7700	  558.00	  540.76	-1834.01	  375.84
     48.8700	  527.00	  545.85	-1870.10	  375.83
     48.9700	  595.00	  552.94	-1809.19	  375.81
     49.0700	  556.00	  562.45	-1857.70	  375.80
     49.1700	  494.00	  575.59	-1932.84	  375.79
     49.2700	  547.00	  595.02	-1899.27	  375.78
     49.3700	  608.00	  625.89	-1869.14	  375.77
     49.4700	  718.00	  677.17	-1810.42	  375.77
     49.5700	  752.00	  762.47	-1861.72	  375.76
     49.6700	  825.00	  899.09	-1925.34	  375.76
     49.7700	 1020.00	 1102.19	-1933.44	  375.76
     49.8700	 1314.00	 1377.95	-1915.20	  375.76
     49.9700	 1618.00	 1711.70	-1944.95	  375.76
     50.0700	 2142.00	 2057.64	-1766.89	  375.77
     50.1700	 2453.00	 2334.31	-1732.56	  375.77
     50.2700	 2557.00	 2444.72	-1738.97	  375.78
     50.3700	 2395.00	 2338.17	-1794.42	  375.79
     50.4700	 2075.00	 2060.94	-1837.19	  375.80
     50.5700	 1646.00	 1713.88	-1919.13	  375.81
     50.6700	 1212.00	 1381.61	-2020.86	  375.82
     50.7700	  865.00	 1110.41	-2096.66	  375.84
     50.8700	  786.00	  914.92	-1980.17	  375.85
     50.9700	  645.00	  788.40	-1994.65	  375.87
     51.0700	  695.00	  713.23	-1869.48	  375.89
     51.1700	  653.00	  669.64	-1867.89	  375.91
     51.2700	  572.00	  641.33	-1920.58	  375.94
     51.3700	  587.00	  618.57	-1882.82	  375.96
     51.4700	  603.00	  598.14	-1846.39	  375.99
     51.5700	  570.00	  580.22	-1861.47	  376.02
     51.6700	  548.00	  565.67	-1868.92	  376.04
     51.7700	  530.00	  554.78	-1876.03	  376.08
     51.8700	  563.00	  547.17	-1835.42	  376.11
     51.9700	  567.00	  542.03	-1826.28	  376.14
     52.0700	  560.00	  538.58	-1829.83	  376.18
     52.1700	  577.00	  536.28	-1810.53	  376.21
     52.2700	  516.00	  534.87	-1870.12	  376.25
     52.3700	  544.00	  534.31	-1841.56	  376.29
     52.4700	  570.00	  534.96	-1816.21	  376.33
     52.5700	  574.00	  536.85	-1814.10	  376.37
     52.6700	  571.00	  541.31	-1821.56	  376.42
     52.7700	  620.00	  550.74	-1781.99	  376.46
     52.8700	  582.00	  569.59	-1838.84	  376.51
     52.9700	  699.00	  604.74	-1756.99	  376.56
     53.0700	  762.00	  664.47	-1753.72	  376.61
     53.1700	  841.00	  755.30	-1765.55	  376.66
     53.2700	  955.00	  876.63	-1772.88	  376.71
     53.3700	 1151.00	 1015.46	-1715.71	  376.76
     53.4700	 1070.00	 1143.87	-1925.12	  376.82
     53.5700	 1198.00	 1223.28	-1876.53	  376.87
     53.6700	 1115.00	 1221.96	-1958.21	  376.93
     53.7700	 1010.00	 1139.91	-1981.16	  376.99
     53.8700	  954.00	 1009.83	-1907.08	  377.05
     53.9700	  835.00	  870.89	-1887.14	  377.11
     54.0700	  760.00	  750.66	-1841.91	  377.18
     54.1700	  663.00	  661.48	-1849.73	  377.24
     54.2700	  598.00	  603.44	-1856.69	  377.31
     54.3700	  553.00	  569.69	-1867.94	  377.37
     54.4700	  552.00	  551.88	-1851.13	  377.44
     54.5700	  570.00	  543.14	-1824.39	  377.51
     54.6700	  558.00	  539.09	-1832.34	  377.58
     54.7700	  545.00	  537.42	-1843.67	  377.65
     54.8700	  558.00	  537.06	-1830.31	  377.73
     54.9700	  550.00	  537.59	-1838.84	  377.80
     55.0700	  567.00	  538.84	-1823.09	  377.88
     55.1700	  526.00	  540.78	-1866.03	  377.96
     55.2700	  533.00	  543.46	-1861.71	  378.03
     55.3700	  575.00	  546.93	-1823.18	  378.11
     55.4700	  550.00	  551.39	-1852.64	  378.19
     55.5700	  548.00	  557.04	-1860.29	  378.27
     55.6700	  549.00	  564.40	-1866.65	  378.36
     55.7700	  593.00	  574.48	-1832.73	  378.44
     55.8700	  589.00	  589.34	-1851.59	  378.53
     55.9700	  596.00	  613.12	-1868.37	  378.61
     56.0700	  608.00	  653.35	-1896.60	  378.70
     56.1700	  678.00	  722.10	-1895.35	  378.79
     56.2700	  759.00	  836.07	-1928.32	  378.88
     56.3700	  922.00	 1013.59	-1942.84	  378.97
     56.4700	 1167.00	 1268.08	-1952.33	  379.06
     56.5700	 1477.00	 1598.47	-1972.72	  379.15
     56.6700	 1893.00	 1979.26	-1937.51	  379.25
     56.7700	 2244.00	 2354.30	-1961.55	  379.34
     56.8700	 2590.00	 2638.10	-1899.35	  379.44
     56.9700	 2560.00	 2740.44	-2031.69	  379.54
     57.0700	 2589.00	 2621.40	-1883.65	  379.63
     57.1700	 2320.00	 2326.73	-1857.98	  379.73
     57.2700	 1973.00	 1949.50	-1827.75	  379.83
     57.3700	 1525.00	 1573.91	-1900.16	  379.94
     57.4700	 1214.00	 1253.32	-1890.57	  380.04
     57.5700	 1000.00	 1010.58	-1861.83	  380.14
     57.6700	  836.00	  845.28	-1860.53	  380.24
     57.7700	  753.00	  743.60	-1841.85	  380.35
     57.8700	  654.00	  688.10	-1885.35	  380.46
     57.9700	  624.00	  664.05	-1891.30	  380.56
     58.0700	  664.00	  662.00	-1849.25	  380.67
     58.1700	  684.00	  677.51	-1844.76	  380.78
     58.2700	  731.00	  709.48	-1829.73	  380.89
     58.3700	  806.00	  758.14	-1803.39	  381.00
     58.4700	  895.00	  823.28	-1779.53	  381.11
     58.5700	 1004.00	  902.49	-1749.74	  381.22
     58.6700	 1207.00	  989.79	-1634.04	  381.34
     58.7700	 1362.00	 1075.90	-1565.15	  381.45
     58.8700	 1503.00	 1151.84	-1500.09	  381.56
     58.9700	 1601.00	 1212.24	-1462.49	  381.68
     59.0700	 1636.00	 1253.02	-1468.27	  381.80
     59.1700	 1630.00	 1268.68	-1489.93	  381.91
     59.2700	 1564.00	 1257.52	-1544.77	  382.03
     59.3700	 1454.00	 1228.09	-1625.34	  382.15
     59.4700	 1343.00	 1194.87	-1703.12	  382.27
     59.5700	 1235.00	 1169.55	-1785.80	  382.39
     59.6700	 1256.00	 1158.67	-1753.92	  382.51
     59.7700	 1194.00	 1167.59	-1824.84	  382.63
     59.8700	 1098.00	 1202.58	-1955.83	  382.75
     59.9700	 1323.00	 1266.46	-1794.71	  382.88
     60.0700	 1337.00	 1352.23	-1866.48	  383.00
     60.1700	 1541.00	 1440.43	-1750.68	  383.12
     60.2700	 1533.00	 1500.86	-1819.11	  383.25
     60.3700	 1627.00	 1503.13	-1727.38	  383.38
     60.4700	 1475.00	 1435.44	-1811.69	  383.50
     60.5700	 1391.00	 1313.07	-1773.32	  383.63
     60.6700	 1242.00	 1165.14	-1774.39	  383.76
     60.7700	 1026.00	 1018.12	-1843.37	  383.88
     60.8700	  870.00	  889.79	-1871.04	  384.01
     60.9700	  744.00	  789.09	-1896.34	  384.14
     61.0700	  673.00	  718.13	-1896.38	  384.27
     61.1700	  620.00	  674.78	-1906.03	  384.40
     61.2700	  600.00	  655.79	-1907.04	  384.53
     61.3700	  631.00	  659.11	-1879.36	  384.67
     61.4700	  713.00	  685.14	-1823.39	  384.80
     61.5700	  671.00	  736.45	-1916.70	  384.93
     61.6700	  782.00	  816.10	-1885.35	  385.06
     61.7700	  824.00	  924.99	-1952.24	  385.20
     61.8700	  997.00	 1058.90	-1913.15	  385.33
     61.9700	 1044.00	 1206.04	-2013.29	  385.47
     62.0700	 1285.00	 1345.69	-1911.94	  385.60
     62.1700	 1364.00	 1449.27	-1936.52	  385.74
     62.2700	 1383.00	 1487.91	-1956.16	  385.87
     62.3700	 1345.00	 1448.31	-1954.56	  386.01
     62.4700	 1306.00	 1342.97	-1888.22	  386.15
     62.5700	 1127.00	 1200.64	-1924.89	  386.28
     62.6700	 1010.00	 1050.08	-1891.33	  386.42
     62.7700	  829.00	  912.00	-1934.25	  386.56
     62.8700	  701.00	  798.06	-1948.31	  386.70
     62.9700	  621.00	  712.00	-1942.25	  386.83
     63.0700	  592.00	  651.87	-1911.12	  386.97
     63.1700	  614.00	  612.63	-1849.88	  387.11
     63.2700	  608.00	  588.47	-1831.72	  387.25
     63.3700	  581.00	  574.38	-1844.63	  387.39
     63.4700	  555.00	  566.84	-1863.09	  387.53
     63.5700	  568.00	  563.89	-1847.14	  387.67
     63.6700	  543.00	  564.97	-1873.22	  387.81
     63.7700	  522.00	  570.73	-1899.98	  387.95
     63.8700	  570.00	  582.75	-1864.00	  388.09
     63.9700	  578.00	  603.26	-1876.51	  388.24
     64.0700	  675.00	  634.46	-1810.71	  388.38
     64.1700	  742.00	  677.75	-1787.00	  388.52
     64.2700	  752.00	  732.56	-1831.81	  388.66
     64.3700	  836.00	  795.51	-1810.76	  388.80
     64.4700	  923.00	  859.80	-1788.05	  388.95
     64.5700	  965.00	  915.30	-1801.55	  389.09
     64.6700	  972.00	  950.79	-1830.04	  389.23
     64.7700	 1038.00	  957.89	-1771.14	  389.37
     64.8700	 1065.00	  937.09	-1723.34	  389.52
     64.9700	  939.00	  894.29	-1806.54	  389.66
     65.0700	  864.00	  839.37	-1826.62	  389.80
     65.1700	  866.00	  782.23	-1767.48	  389.94
     65.2700	  786.00	  730.18	-1795.43	  390.09
     65.3700	  680.00	  686.88	-1858.13	  390.23
     65.4700	  655.00	  652.77	-1849.02	  390.37
     65.5700	  700.00	  626.36	-1777.61	  390.52
     65.6700	  600.00	  605.83	-1857.08	  390.66
     65.7700	  600.00	  589.77	-1841.02	  390.80
     65.8700	  562.00	  577.37	-1866.62	  390.95
     65.9700	  535.00	  568.08	-1884.33	  391.09
     66.0700	  550.00	  561.56	-1862.81	  391.23
     66.1700	  540.00	  557.49	-1868.74	  391.38
     66.2700	  555.00	  555.52	-1851.77	  391.52
     66.3700	  537.00	  555.33	-1869.58	  391.66
     66.4700	  540.00	  556.61	-1867.86	  391.81
     66.5700	  550.00	  559.24	-1860.49	  391.95
     66.6700	  560.00	  563.28	-1854.53	  392.09
     66.7700	  501.00	  569.15	-1919.40	  392.23
     66.8700	  601.00	  577.96	-1828.21	  392.38
     66.9700	  548.00	  591.37	-1894.62	  392.52
     67.0700	  595.00	  612.75	-1869.00	  392.66
     67.1700	  588.00	  647.20	-1910.45	  392.80
     67.2700	  646.00	  701.95	-1907.20	  392.94
     67.3700	  775.00	  786.04	-1862.29	  393.09
     67.4700	  918.00	  908.90	-1842.15	  393.23
     67.5700	 1090.00	 1077.92	-1839.17	  393.37
     67.6700	 1333.00	 1294.90	-1813.15	  393.51
     67.7700	 1552.00	 1552.58	-1851.83	  393.65
     67.8700	 1921.00	 1831.93	-1762.18	  393.79
     67.9700	 2176.00	 2100.96	-1776.21	  393.93
     68.0700	 2368.00	 2316.48	-1799.73	  394.07
     68.1700	 2377.00	 2432.40	-1906.65	  394.21
     68.2700	 2446.00	 2418.39	-1823.64	  394.35
     68.3700	 2270.00	 2278.32	-1859.57	  394.49
     68.4700	 2120.00	 2047.78	-1779.03	  394.63
     68.5700	 1793.00	 1773.58	-1831.83	  394.77
     68.6700	 1432.00	 1496.96	-1916.21	  394.90
     68.7700	 1262.00	 1247.14	-1836.39	  395.04
     68.8700	  979.00	 1040.48	-1912.73	  395.18
     68.9700	  842.00	  882.21	-1891.46	  395.31
     69.0700	  715.00	  768.85	-1905.10	  395.45
     69.1700	  663.00	  692.31	-1880.56	  395.59
     69.2700	  620.00	  643.08	-1874.33	  395.72
     69.3700	  616.00	  612.45	-1847.70	  395.86
     69.4700	  616.00	  593.63	-1828.88	  395.99
     69.5700	  594.00	  581.94	-1839.19	  396.13
     69.6700	  594.00	  574.44	-1831.69	  396.26
     69.7700	  572.00	  569.41	-1848.66	  396.39
     69.8700	  605.00	  565.93	-1812.18	  396.53
     69.9700	  589.00	  563.52	-1825.77	  396.66
     70.0700	  539.00	  561.95	-1874.20	  396.79
     70.1700	  544.00	  561.09	-1868.34	  396.92
     70.2700	  605.00	  560.90	-1807.15	  397.05
     70.3700	  549.00	  561.43	-1863.68	  397.18
     70.4700	  528.00	  562.74	-1885.99	  397.31
     70.5700	  583.00	  565.11	-1833.36	  397.44
     70.6700	  582.00	  569.00	-1838.25	  397.57
     70.7700	  547.00	  575.32	-1879.57	  397.70
     70.8700	  569.00	  585.62	-1867.87	  397.83
     70.9700	  568.00	  602.42	-1885.67	  397.95
     71.0700	  590.00	  629.44	-1890.69	  398.08
     71.1700	  671.00	  672.62	-1852.87	  398.20
     71.2700	  740.00	  736.16	-1847.41	  398.33
     71.3700	  804.00	  827.03	-1874.28	  398.45
     71.4700	  935.00	  949.78	-1866.03	  398.58
     71.5700	 1110.00	 1105.46	-1846.71	  398.70
     71.6700	 1214.00	 1289.56	-1926.81	  398.82
     71.7700	 1433.00	 1490.37	-1908.62	  398.94
     71.8700	 1643.00	 1688.53	-1896.78	  399.06
     71.9700	 1733.00	 1857.73	-1975.98	  399.18
     72.0700	 1909.00	 1968.45	-1910.70	  399.30
     72.1700	 2012.00	 1996.70	-1835.95	  399.42
     72.2700	 2031.00	 1935.71	-1755.96	  399.54
     72.3700	 1916.00	 1799.72	-1734.97	  399.65
     72.4700	 1647.00	 1617.19	-1821.44	  399.77
     72.5700	 1451.00	 1416.64	-1816.89	  399.88
     72.6700	 1322.00	 1221.73	-1750.98	  400.00
     72.7700	 1185.00	 1048.63	-1714.88	  400.11
     72.8700	 1051.00	  905.90	-1706.15	  400.22
     72.9700	 1017.00	  795.55	-1629.80	  400.34
     73.0700	  903.00	  714.82	-1663.07	  400.45
     73.1700	  824.00	  658.47	-1685.72	  400.56
     73.2700	  777.00	  620.53	-1694.78	  400.67
     73.3700	  743.00	  595.56	-1703.81	  400.77
     73.4700	  712.00	  579.23	-1718.48	  400.88
     73.5700	  613.00	  568.45	-1806.70	  400.99
     73.6700	  572.00	  561.23	-1840.48	  401.09
     73.7700	  578.00	  556.32	-1829.57	  401.20
     73.8700	  582.00	  553.03	-1822.28	  401.30
     73.9700	  610.00	  550.97	-1792.22	  401.41
     74.0700	  616.00	  549.90	-1785.15	  401.51
     74.1700	  622.00	  549.64	-1778.89	  401.61
     74.2700	  600.00	  550.03	-1801.28	  401.71
     74.3700	  626.00	  550.86	-1776.11	  401.81
     74.4700	  629.00	  551.86	-1774.11	  401.90
     74.5700	  646.00	  552.73	-1757.98	  402.00
     74.6700	  650.00	  553.14	-1754.39	  402.10
     74.7700	  623.00	  552.82	-1781.07	  402.19
     74.8700	  627.00	  551.70	-1775.95	  402.29
     74.9700	  640.00	  549.91	-1761.16	  402.38
     75.0700	  616.00	  547.72	-1782.97	  402.47
     75.1700	  622.00	  545.57	-1774.82	  402.56
     75.2700	  617.00	  543.79	-1778.04	  402.65
     75.3700	  584.00	  542.76	-1810.01	  402.74
     75.4700	  567.00	  542.82	-1827.07	  402.82
     75.5700	  561.00	  544.54	-1834.79	  402.91
     75.6700	  544.00	  548.33	-1855.58	  403.00
     75.7700	  535.00	  554.64	-1870.89	  403.08
     75.8700	  561.00	  564.15	-1854.40	  403.16
     75.9700	  587.00	  577.09	-1841.34	  403.24
     76.0700	  601.00	  593.48	-1843.73	  403.32
     76.1700	  631.00	  612.85	-1833.10	  403.40
     76.2700	  665.00	  634.12	-1820.37	  403.48
     76.3700	  650.00	  655.56	-1856.81	  403.56
     76.4700	  706.00	  674.82	-1820.07	  403.63
     76.5700	  691.00	  689.20	-1849.45	  403.71
     76.6700	  692.00	  696.17	-1855.42	  403.78
     76.7700	  661.00	  694.29	-1884.54	  403.85
     76.8700	  656.00	  683.94	-1879.19	  403.92
     76.9700	  630.00	  667.09	-1888.34	  403.99
     77.0700	  630.00	  646.24	-1867.49	  404.06
     77.1700	  622.00	  624.36	-1853.61	  404.13
     77.2700	  587.00	  603.36	-1867.61	  404.19
     77.3700	  575.00	  584.71	-1860.96	  404.26
     77.4700	  554.00	  569.19	-1866.44	  404.32
     77.5700	  547.00	  557.01	-1861.26	  404.38
     77.6700	  500.00	  547.97	-1899.22	  404.44
     77.7700	  536.00	  541.56	-1856.81	  404.50
     77.8700	  537.00	  537.22	-1851.47	  404.56
     77.9700	  540.00	  534.38	-1845.63	  404.62
     78.0700	  539.00	  532.57	-1844.82	  404.67
     78.1700	  546.00	  531.44	-1836.69	  404.73
     78.2700	  512.00	  530.73	-1869.98	  404.78
     78.3700	  516.00	  530.29	-1865.54	  404.83
     78.4700	  526.00	  530.03	-1855.28	  404.88
     78.5700	  529.00	  529.89	-1852.14	  404.93
     78.6700	  518.00	  529.85	-1863.10	  404.97
     78.7700	  525.00	  529.89	-1856.14	  405.02
     78.8700	  517.00	  530.03	-1864.28	  405.06
     78.9700	  514.00	  530.29	-1867.54	  405.11
     79.0700	  467.00	  530.70	-1914.95	  405.15
     79.1700	  526.00	  531.30	-1856.55	  405.19
     79.2700	  514.00	  532.15	-1869.40	  405.23
     79.3700	  534.00	  533.31	-1850.56	  405.26
     79.4700	  557.00	  534.69	-1828.94	  405.30
     79.5700	  553.00	  536.72	-1834.97	  405.33
     79.6700	  542.00	  539.31	-1848.56	  405.36
     79.7700	  512.00	  542.56	-1881.81	  405.40
     79.8700	  537.00	  546.58	-1860.83	  405.42
     79.9700	  538.00	  551.49	-1864.74	  405.45
     80.0700	  528.00	  557.47	-1880.72	  405.48
     80.1700	  542.00	  564.69	-1873.94	  405.50
     80.2700	  535.00	  573.41	-1889.66	  405.53
     80.3700	  527.00	  583.88	-1908.13	  405.55
     80.4700	  583.00	  596.34	-1864.59	  405.57
     80.5700	  609.00	  610.86	-1853.11	  405.59
     80.6700	  594.00	  627.30	-1884.55	  405.61
     80.7700	  590.00	  645.13	-1906.38	  405.62
     80.8700	  611.00	  663.47	-1903.72	  405.64
     80.9700	  616.00	  681.08	-1916.33	  405.65
     81.0700	  672.00	  696.56	-1875.81	  405.66
     81.1700	  632.00	  708.60	-1927.85	  405.67
     81.2700	  708.00	  716.20	-1859.45	  405.68
     81.3700	  713.00	  718.79	-1857.04	  405.69
     81.4700	  725.00	  716.20	-1842.45	  405.69
     81.5700	  721.00	  708.79	-1839.04	  405.69
     81.6700	  795.00	  697.36	-1753.61	  405.70
     81.7700	  748.00	  682.91	-1786.16	  405.70
     81.8700	  715.00	  666.45	-1802.70	  405.69
     81.9700	  706.00	  648.99	-1794.24	  405.69
     82.0700	  683.00	  631.43	-1799.68	  405.69
     82.1700	  710.00	  614.74	-1755.99	  405.68
     82.2700	  714.00	  599.51	-1736.76	  405.67
     82.3700	  693.00	  586.12	-1744.37	  405.66
     82.4700	  583.00	  574.75	-1843.00	  405.65
     82.5700	  580.00	  565.41	-1836.66	  405.64
     82.6700	  566.00	  558.01	-1843.26	  405.62
     82.7700	  570.00	  552.50	-1833.75	  405.61
     82.8700	  529.00	  548.71	-1870.96	  405.59
     82.9700	  533.00	  546.53	-1864.78	  405.57
     83.0700	  577.00	  545.85	-1820.10	  405.55
     83.1700	  574.00	  546.58	-1823.83	  405.52
     83.2700	  555.00	  548.65	-1844.90	  405.50
     83.3700	  512.00	  551.94	-1891.19	  405.47
     83.4700	  541.00	  556.29	-1866.54	  405.45
     83.5700	  558.00	  561.46	-1854.71	  405.42
     83.6700	  531.00	  567.12	-1887.37	  405.38
     83.7700	  580.00	  572.82	-1844.07	  405.35
     83.8700	  556.00	  578.02	-1873.27	  405.32
     83.9700	  588.00	  582.11	-1845.36	  405.28
     84.0700	  588.00	  584.52	-1847.77	  405.24
     84.1700	  592.00	  584.82	-1844.07	  405.20
     84.2700	  565.00	  582.93	-1869.18	  405.16
     84.3700	  508.00	  579.11	-1922.36	  405.12
     84.4700	  538.00	  573.87	-1887.12	  405.07
     84.5700	  513.00	  567.81	-1906.06	  405.02
     84.6700	  555.00	  561.46	-1857.71	  404.97
     84.7700	  522.00	  555.28	-1884.53	  404.92
     84.8700	  509.00	  549.62	-1891.87	  404.87
     84.9700	  517.00	  544.67	-1878.92	  404.82
     85.0700	  507.00	  540.56	-1884.81	  404.76
     85.1700	  507.00	  537.30	-1881.55	  404.70
     85.2700	  503.00	  534.85	-1883.10	  404.65
     85.3700	  525.00	  533.11	-1859.36	  404.58
     85.4700	  522.00	  531.99	-1861.24	  404.52
     85.5700	  487.00	  531.38	-1895.63	  404.46
     85.6700	  474.00	  531.19	-1908.44	  404.39
     85.7700	  518.00	  531.35	-1864.60	  404.32
     85.8700	  535.00	  531.84	-1848.09	  404.25
     85.9700	  486.00	  532.62	-1897.87	  404.18
     86.0700	  505.00	  533.72	-1879.97	  404.11
     86.1700	  543.00	  535.18	-1843.43	  404.03
     86.2700	  518.00	  537.07	-1870.32	  403.96
     86.3700	  531.00	  539.49	-1859.74	  403.88
     86.4700	  523.00	  542.56	-1870.81	  403.80
     86.5700	  574.00	  546.41	-1823.66	  403.71
     86.6700	  539.00	  551.18	-1863.43	  403.63
     86.7700	  557.00	  556.95	-1851.20	  403.54
     86.8700	  580.00	  563.42	-1834.67	  403.46
     86.9700	  613.00	  571.07	-1809.32	  403.37
     87.0700	  589.00	  579.31	-1841.56	  403.28
     87.1700	  638.00	  587.69	-1800.94	  403.18
     87.2700	  601.00	  595.64	-1845.89	  403.09
     87.3700	  605.00	  602.44	-1848.69	  402.99
     87.4700	  663.00	  607.38	-1795.63	  402.89
     87.5700	  683.00	  609.83	-1778.08	  402.79
     87.6700	  620.00	  609.45	-1840.70	  402.69
     87.7700	  665.00	  606.32	-1792.57	  402.59
     87.8700	  643.00	  600.90	-1809.15	  402.48
     87.9700	  627.00	  593.94	-1818.19	  402.37
     88.0700	  612.00	  586.28	-1825.53	  402.26
     88.1700	  584.00	  578.73	-1845.98	  402.15
     88.2700	  578.00	  572.00	-1845.25	  402.04
     88.3700	  576.00	  566.65	-1841.90	  401.93
     88.4700	  538.00	  563.09	-1876.34	  401.81
     88.5700	  571.00	  561.55	-1841.80	  401.69
     88.6700	  562.00	  562.08	-1851.33	  401.57
     88.7700	  550.00	  564.57	-1865.82	  401.45
     88.8700	  587.00	  568.75	-1833.00	  401.33
     88.9700	  585.00	  574.22	-1840.47	  401.20
     89.0700	  633.00	  580.47	-1798.72	  401.07
     89.1700	  568.00	  586.90	-1870.15	  400.94
     89.2700	  586.00	  592.82	-1858.07	  400.81
     89.3700	  627.00	  597.55	-1821.80	  400.68
     89.4700	  587.00	  600.46	-1864.71	  400.55
     89.5700	  604.00	  601.11	-1848.36	  400.41
     89.6700	  570.00	  599.35	-1880.60	  400.27
     89.7700	  545.00	  595.38	-1901.63	  400.13
     89.8700	  577.00	  589.65	-1863.90	  399.99
     89.9700	  538.00	  582.76	-1896.01	  399.85
     90.0700	  503.00	  575.28	-1923.53	  399.70
     90.1700	  500.00	  567.72	-1918.97	  399.56
     90.2700	  553.00	  560.51	-1858.76	  399.41
     90.3700	  495.00	  553.96	-1910.21	  399.26
     90.4700	  521.00	  548.25	-1878.50	  399.11
     90.5700	  502.00	  543.48	-1892.73	  398.95
     90.6700	  514.00	  539.65	-1876.90	  398.80
     90.7700	  538.00	  536.71	-1849.96	  398.64
     90.8700	  540.00	  534.56	-1845.81	  398.48
     90.9700	  511.00	  533.08	-1873.33	  398.32
     91.0700	  464.00	  532.17	-1919.42	  398.16
     91.1700	  470.00	  531.74	-1912.99	  397.99
     91.2700	  493.00	  531.73	-1889.98	  397.83
     91.3700	  474.00	  532.12	-1909.37	  397.66
     91.4700	  493.00	  532.92	-1891.17	  397.49
     91.5700	  517.00	  534.20	-1868.45	  397.32
     91.6700	  510.00	  536.05	-1877.30	  397.15
     91.7700	  474.00	  538.60	-1915.85	  396.97
     91.8700	  535.00	  542.04	-1858.29	  396.80
     91.9700	  538.00	  546.33	-1859.58	  396.62
     92.0700	  517.00	  552.10	-1886.35	  396.44
     92.1700	  542.00	  559.30	-1868.55	  396.26
     92.2700	  556.00	  568.08	-1863.33	  396.08
     92.3700	  533.00	  578.49	-1896.74	  395.89
     92.4700	  605.00	  590.51	-1836.76	  395.70
     92.5700	  610.00	  604.01	-1845.26	  395.52
     92.6700	  592.00	  618.73	-1877.98	  395.33
     92.7700	  681.00	  634.30	-1804.55	  395.14
     92.8700	  670.00	  650.22	-1831.47	  394.94
     92.9700	  671.00	  665.90	-1846.15	  394.75
     93.0700	  709.00	  680.74	-1822.99	  394.55
     93.1700	  777.00	  694.18	-1768.43	  394.35
     93.2700	  718.00	  705.90	-1839.15	  394.15
     93.3700	  758.00	  715.95	-1809.20	  393.95
     93.4700	  795.00	  724.70	-1780.95	  393.75
     93.5700	  770.00	  732.77	-1814.02	  393.55
     93.6700	  818.00	  740.85	-1774.10	  393.34
     93.7700	  845.00	  749.58	-1755.83	  393.13
     93.8700	  831.00	  759.46	-1779.71	  392.92
     93.9700	  854.00	  770.90	-1768.15	  392.71
     94.0700	  906.00	  784.19	-1729.44	  392.50
     94.1700	  907.00	  799.55	-1743.80	  392.29
     94.2700	  890.00	  816.98	-1778.23	  392.07
     94.3700	  844.00	  836.22	-1843.47	  391.85
     94.4700	  898.00	  856.60	-1809.85	  391.64
     94.5700	  865.00	  877.01	-1863.26	  391.42
     94.6700	  880.00	  895.95	-1867.20	  391.19
     94.7700	  927.00	  911.59	-1835.84	  390.97
     94.8700	  888.00	  922.01	-1885.26	  390.75
     94.9700	  953.00	  925.49	-1823.74	  390.52
     95.0700	  963.00	  921.00	-1809.25	  390.29
     95.1700	  910.00	  908.44	-1849.69	  390.06
     95.2700	  868.00	  888.74	-1871.99	  389.83
     95.3700	  797.00	  863.52	-1917.77	  389.60
     95.4700	  809.00	  834.83	-1877.08	  389.37
     95.5700	  780.00	  804.77	-1876.02	  389.13
     95.6700	  771.00	  775.35	-1855.60	  388.90
     95.7700	  766.00	  748.41	-1833.66	  388.66
     95.8700	  648.00	  725.60	-1928.85	  388.42
     95.9700	  707.00	  708.42	-1852.67	  388.18
     96.0700	  685.00	  698.18	-1864.43	  387.94
     96.1700	  663.00	  696.03	-1884.28	  387.70
     96.2700	  665.00	  702.96	-1889.21	  387.45
     96.3700	  654.00	  719.79	-1917.04	  387.21
     96.4700	  696.00	  747.10	-1902.35	  386.96
     96.5700	  778.00	  785.20	-1858.45	  386.71
     96.6700	  785.00	  833.98	-1900.23	  386.46
     96.7700	  844.00	  892.82	-1900.07	  386.21
     96.8700	  923.00	  960.50	-1888.75	  385.96
     96.9700	 1048.00	 1035.10	-1838.35	  385.70
     97.0700	 1059.00	 1113.99	-1906.24	  385.45
     97.1700	 1181.00	 1193.77	-1864.02	  385.19
     97.2700	 1252.00	 1270.41	-1869.66	  384.93
     97.3700	 1348.00	 1339.41	-1842.66	  384.68
     97.4700	 1338.00	 1396.05	-1909.30	  384.42
     97.5700	 1459.00	 1435.96	-1828.21	  384.15
     97.6700	 1467.00	 1455.84	-1840.09	  383.89
     97.7700	 1486.00	 1454.12	-1819.37	  383.63
     97.8700	 1413.00	 1431.41	-1869.66	  383.36
     97.9700	 1405.00	 1390.21	-1836.46	  383.10
     98.0700	 1312.00	 1334.34	-1873.59	  382.83
     98.1700	 1267.00	 1268.32	-1852.57	  382.56
     98.2700	 1195.00	 1196.68	-1852.93	  382.29
     98.3700	 1151.00	 1123.68	-1823.93	  382.02
     98.4700	 1031.00	 1053.17	-1873.42	  381.75
     98.5700	  908.00	  988.35	-1931.60	  381.48
     98.6700	  886.00	  931.84	-1897.09	  381.21
     98.7700	  814.00	  885.67	-1922.92	  380.93
     98.8700	  784.00	  851.33	-1918.58	  380.65
     98.9700	  797.00	  829.92	-1884.17	  380.38
     99.0700	  770.00	  822.16	-1903.41	  380.10
     99.1700	  834.00	  828.52	-1845.77	  379.82
     99.2700	  804.00	  849.23	-1896.48	  379.54
     99.3700	  914.00	  884.35	-1821.60	  379.26
     99.4700	  869.00	  933.69	-1915.94	  378.98
     99.5700	  991.00	  996.85	-1857.10	  378.70
     99.6700	 1015.00	 1073.07	-1909.32	  378.41
     99.7700	 1124.00	 1161.20	-1888.45	  378.13
     99.8700	 1227.00	 1259.57	-1883.82	  377.84
     99.9700	 1329.00	 1365.91	-1888.16	  377.56
    100.0700	 1472.00	 1477.26	-1856.51	  377.27
    100.1700	 1588.00	 1589.97	-1853.22	  376.98
    100.2700	 1675.00	 1699.88	-1876.13	  376.70
    100.3700	 1796.00	 1802.54	-1857.79	  376.41
    100.4700	 1965.00	 1893.74	-1779.99	  376.12
    100.5700	 1980.00	 1969.98	-1841.23	  375.83
    100.6700	 2110.00	 2028.69	-1769.94	  375.53
    100.7700	 2082.00	 2068.17	-1837.42	  375.24
    100.8700	 2165.00	 2087.27	-1773.52	  374.95
    100.9700	 2159.00	 2085.30	-1777.55	  374.66
    101.0700	 2082.00	 2062.01	-1831.26	  374.36
    101.1700	 2091.00	 2018.08	-1778.33	  374.07
    101.2700	 2102.00	 1955.40	-1704.65	  373.77
    101.3700	 1886.00	 1877.28	-1842.53	  373.47
    101.4700	 1812.00	 1788.21	-1827.46	  373.18
    101.5700	 1684.00	 1693.25	-1860.50	  372.88
    101.6700	 1620.00	 1597.44	-1828.69	  372.58
    101.7700	 1494.00	 1505.25	-1862.50	  372.28
    101.8700	 1401.00	 1420.28	-1870.53	  371.99
    101.9700	 1354.00	 1345.11	-1842.36	  371.69
    102.0700	 1275.00	 1281.21	-1857.46	  371.39
    102.1700	 1252.00	 1228.94	-1828.19	  371.09
    102.2700	 1186.00	 1187.63	-1852.88	  370.78
    102.3700	 1134.00	 1155.74	-1872.99	  370.48
    102.4700	 1174.00	 1131.01	-1808.26	  370.18
    102.5700	 1063.00	 1110.74	-1898.99	  369.88
    102.6700	 1154.00	 1092.10	-1789.35	  369.58
    102.7700	 1086.00	 1072.45	-1837.70	  369.28
    102.8700	 1053.00	 1049.78	-1848.03	  368.97
    102.9700	 1062.00	 1022.88	-1812.13	  368.67
    103.0700	  978.00	  991.43	-1864.68	  368.37
    103.1700	  925.00	  955.86	-1882.11	  368.06
    103.2700	  903.00	  917.09	-1865.34	  367.76
    103.3700	  846.00	  876.34	-1881.59	  367.46
    103.4700	  841.00	  834.89	-1845.14	  367.15
    103.5700	  784.00	  794.00	-1861.25	  366.85
    103.6700	  814.00	  754.76	-1792.01	  366.54
    103.7700	  722.00	  718.09	-1847.34	  366.24
    103.8700	  683.00	  684.69	-1852.94	  365.93
    103.9700	  692.00	  655.02	-1814.27	  365.63
    104.0700	  571.00	  629.29	-1909.54	  365.32
    104.1700	  609.00	  607.53	-1849.78	  365.02
    104.2700	  573.00	  589.58	-1867.83	  364.72
    104.3700	  574.00	  575.18	-1852.43	  364.41
    104.4700	  528.00	  563.96	-1887.21	  364.11
    104.5700	  589.00	  555.53	-1817.78	  363.80
    104.6700	  518.00	  549.48	-1882.73	  363.50
    104.7700	  528.00	  545.44	-1868.69	  363.19
    104.8700	  504.00	  543.05	-1890.30	  362.89
    104.9700	  544.00	  541.98	-1849.23	  362.59
    105.0700	  557.00	  541.98	-1836.23	  362.28
    105.1700	  554.00	  542.82	-1840.07	  361.98
    105.2700	  532.00	  544.33	-1863.58	  361.68
    105.3700	  520.00	  546.37	-1877.62	  361.37
    105.4700	  513.00	  548.83	-1887.08	  361.07
    105.5700	  498.00	  551.64	-1904.89	  360.77
    105.6700	  571.00	  554.82	-1835.07	  360.47
    105.7700	  514.00	  558.36	-1895.61	  360.17
    105.8700	  549.00	  562.33	-1864.58	  359.87
    105.9700	  565.00	  566.81	-1853.06	  359.57
    106.0700	  581.00	  571.92	-1842.17	  359.27
    106.1700	  578.00	  577.77	-1851.02	  358.97
    106.2700	  558.00	  584.43	-1877.68	  358.67
    106.3700	  585.00	  591.95	-1858.20	  358.37
    106.4700	  591.00	  600.31	-1860.56	  358.07
    106.5700	  572.00	  609.39	-1888.64	  357.78
    106.6700	  583.00	  619.04	-1887.29	  357.48
    106.7700	  612.00	  629.02	-1868.27	  357.18
    106.8700	  577.00	  639.01	-1913.26	  356.89
    106.9700	  639.00	  648.64	-1860.89	  356.60
    107.0700	  647.00	  657.53	-1861.78	  356.30
    107.1700	  628.00	  665.25	-1888.50	  356.01
    107.2700	  707.00	  671.46	-1815.71	  355.72
    107.3700	  686.00	  675.89	-1841.14	  355.43
    107.4700	  684.00	  678.42	-1845.67	  355.14
    107.5700	  604.00	  679.12	-1926.37	  354.85
    107.6700	  718.00	  678.25	-1811.50	  354.56
    107.7700	  712.00	  676.20	-1815.45	  354.27
    107.8700	  591.00	  673.43	-1933.68	  353.99
    107.9700	  698.00	  670.44	-1823.69	  353.70
    108.0700	  649.00	  667.65	-1869.90	  353.42
    108.1700	  704.00	  665.45	-1812.70	  353.14
    108.2700	  658.00	  664.07	-1857.32	  352.86
    108.3700	  665.00	  663.65	-1849.90	  352.58
    108.4700	  681.00	  664.19	-1834.44	  352.30
    108.5700	  703.00	  665.58	-1813.83	  352.02
    108.6700	  650.00	  667.57	-1868.82	  351.74
    108.7700	  669.00	  669.82	-1852.07	  351.47
    108.8700	  682.00	  671.91	-1841.16	  351.19
    108.9700	  709.00	  673.38	-1815.63	  350.92
    109.0700	  701.00	  673.78	-1824.03	  350.65
    109.1700	  685.00	  672.73	-1838.98	  350.38
    109.2700	  627.00	  669.97	-1894.22	  350.11
    109.3700	  724.00	  665.37	-1792.62	  349.85
    109.4700	  592.00	  658.99	-1918.24	  349.58
    109.5700	  594.00	  650.99	-1908.24	  349.32
    109.6700	  680.00	  641.68	-1812.93	  349.06
    109.7700	  667.00	  631.40	-1815.65	  348.80
    109.8700	  636.00	  620.54	-1835.79	  348.54
    109.9700	  609.00	  609.45	-1851.70	  348.28
    110.0700	  632.00	  598.48	-1817.73	  348.03
    110.1700	  588.00	  587.95	-1851.20	  347.78
    110.2700	  600.00	  578.08	-1829.33	  347.52
    110.3700	  591.00	  569.10	-1829.35	  347.28
    110.4700	  570.00	  561.12	-1842.37	  347.03
    110.5700	  577.00	  554.22	-1828.47	  346.78
    110.6700	  552.00	  548.44	-1847.69	  346.54
    110.7700	  551.00	  543.75	-1844.00	  346.30
    110.8700	  587.00	  540.10	-1804.35	  346.06
    110.9700	  520.00	  537.41	-1868.66	  345.82
    111.0700	  526.00	  535.59	-1860.84	  345.59
    111.1700	  522.00	  534.54	-1863.79	  345.35
    111.2700	  531.00	  534.16	-1854.41	  345.12
    111.3700	  540.00	  534.36	-1845.61	  344.90
    111.4700	  545.00	  535.04	-1841.29	  344.67
    111.5700	  530.00	  536.15	-1857.40	  344.45
    111.6700	  535.00	  537.62	-1853.87	  344.23
    111.7700	  527.00	  539.41	-1863.66	  344.01
    111.8700	  516.00	  541.47	-1876.72	  343.79
    111.9700	  561.00	  543.78	-1834.03	  343.58
    112.0700	  524.00	  546.34	-1873.59	  343.37
    112.1700	  591.00	  549.13	-1809.38	  343.16
    112.2700	  552.00	  552.17	-1851.42	  342.95
    112.3700	  530.00	  555.46	-1876.71	  342.75
    112.4700	  559.00	  559.04	-1851.29	  342.55
    112.5700	  560.00	  562.94	-1854.19	  342.35
    112.6700	  600.00	  567.20	-1818.45	  342.15
    112.7700	  585.00	  571.89	-1838.14	  341.96
    112.8700	  604.00	  577.08	-1824.33	  341.77
    112.9700	  617.00	  582.88	-1817.13	  341.59
    113.0700	  641.00	  589.43	-1799.68	  341.40
    113.1700	  646.00	  596.88	-1802.13	  341.22
    113.2700	  694.00	  605.49	-1762.74	  341.04
    113.3700	  718.00	  615.53	-1748.78	  340.87
    113.4700	  724.00	  627.38	-1754.63	  340.70
    113.5700	  848.00	  641.51	-1644.76	  340.53
    113.6700	  833.00	  658.52	-1676.77	  340.37
    113.7700	  843.00	  679.12	-1687.37	  340.20
    113.8700	  919.00	  704.22	-1636.47	  340.05
    113.9700	  937.00	  734.88	-1649.13	  339.89
    114.0700	  954.00	  772.40	-1669.65	  339.74
    114.1700	 1090.00	  818.26	-1579.51	  339.59
    114.2700	 1071.00	  874.16	-1654.41	  339.45
    114.3700	 1234.00	  942.02	-1559.27	  339.31
    114.4700	 1213.00	 1023.92	-1662.17	  339.17
    114.5700	 1370.00	 1122.12	-1603.37	  339.03
    114.6700	 1456.00	 1238.96	-1634.21	  338.90
    114.7700	 1648.00	 1376.73	-1579.98	  338.78
    114.8700	 1729.00	 1537.73	-1659.98	  338.66
    114.9700	 1872.00	 1723.91	-1703.16	  338.54
    115.0700	 2021.00	 1937.01	-1767.26	  338.42
    115.1700	 2269.00	 2178.14	-1760.39	  338.31
    115.2700	 2616.00	 2447.78	-1683.03	  338.20
    115.3700	 2687.00	 2745.68	-1909.93	  338.10
    115.4700	 3038.00	 3070.49	-1883.74	  338.00
    115.5700	 3315.00	 3419.99	-1956.24	  337.91
    115.6700	 3704.00	 3790.65	-1937.90	  337.82
    115.7700	 3989.00	 4177.72	-2039.97	  337.73
    115.8700	 4264.00	 4575.42	-2162.67	  337.65
    115.9700	 4526.00	 4976.50	-2301.75	  337.57
    116.0700	 5065.00	 5372.78	-2159.03	  337.50
    116.1700	 5353.00	 5754.86	-2253.11	  337.43
    116.2700	 5973.00	 6112.44	-1990.69	  337.36
    116.3700	 6196.00	 6434.83	-2090.08	  337.30
    116.4700	 6505.00	 6710.96	-2057.21	  337.25
    116.5700	 6756.00	 6930.50	-2025.75	  337.20
    116.6700	 7043.00	 7084.33	-1892.58	  337.15
    116.7700	 7200.00	 7165.70	-1816.95	  337.11
    116.8700	 7329.00	 7170.98	-1693.23	  337.07
    116.9700	 7405.00	 7100.13	-1546.38	  337.04
    117.0700	 7031.00	 6956.70	-1776.95	  337.01
    117.1700	 7099.00	 6747.39	-1499.64	  336.99
    117.2700	 6415.00	 6481.24	-1917.49	  336.97
    117.3700	 6272.00	 6168.56	-1747.81	  336.96
    117.4700	 5750.00	 5820.34	-1921.59	  336.95
    117.5700	 5488.00	 5447.24	-1810.49	  336.95
    117.6700	 5150.00	 5059.49	-1760.74	  336.95
    117.7700	 4725.00	 4666.41	-1792.66	  336.96
    117.8700	 4391.00	 4276.05	-1736.30	  336.98
    117.9700	 4019.00	 3895.55	-1727.80	  337.00
    118.0700	 3785.00	 3530.55	-1596.80	  337.02
    118.1700	 3326.00	 3185.66	-1710.91	  337.05
    118.2700	 2974.00	 2864.26	-1741.51	  337.09
    118.3700	 2594.00	 2568.46	-1825.71	  337.13
    118.4700	 2349.00	 2299.55	-1801.80	  337.17
    118.5700	 2033.00	 2057.76	-1876.01	  337.23
    118.6700	 1703.00	 1842.68	-1990.93	  337.28
    118.7700	 1554.00	 1653.26	-1950.51	  337.35
    118.8700	 1414.00	 1487.95	-1925.20	  337.42
    118.9700	 1185.00	 1344.94	-2011.19	  337.49
    119.0700	 1073.00	 1222.15	-2000.40	  337.58
    119.1700	  986.00	 1117.46	-1982.71	  337.66
    119.2700	  969.00	 1028.74	-1910.99	  337.76
    119.3700	  849.00	  953.92	-1956.17	  337.86
    119.4700	  788.00	  891.08	-1954.33	  337.96
    119.5700	  780.00	  838.46	-1909.71	  338.08
    119.6700	  705.00	  794.47	-1940.72	  338.20
    119.7700	  735.00	  757.75	-1874.00	  338.32
    119.8700	  684.00	  727.09	-1894.34	  338.45
    119.9700	  651.00	  701.48	-1901.73	  338.59
    120.0700	  650.00	  680.07	-1881.32	  338.74
    120.1700	  658.00	  662.14	-1855.39	  338.89
    120.2700	  597.00	  647.12	-1901.37	  339.04
    120.3700	  613.00	  634.51	-1872.76	  339.21
    120.4700	  572.00	  623.94	-1903.19	  339.38
    120.5700	  560.00	  615.09	-1906.34	  339.56
    120.6700	  579.00	  607.71	-1879.96	  339.74
    120.7700	  542.00	  601.60	-1910.85	  339.94
    120.8700	  511.00	  596.59	-1936.84	  340.14
    120.9700	  560.00	  592.57	-1883.82	  340.34
    121.0700	  545.00	  589.44	-1895.69	  340.56
    121.1700	  528.00	  587.11	-1910.36	  340.78
    121.2700	  545.00	  585.53	-1891.78	  341.01
    121.3700	  531.00	  584.63	-1904.88	  341.24
    121.4700	  558.00	  584.38	-1877.63	  341.49
    121.5700	  568.00	  584.73	-1867.98	  341.74
    121.6700	  612.00	  585.63	-1824.88	  341.99
    121.7700	  541.00	  587.04	-1897.29	  342.26
    121.8700	  572.00	  588.90	-1868.15	  342.53
    121.9700	  575.00	  591.16	-1867.41	  342.81
    122.0700	  574.00	  593.72	-1870.97	  343.10
    122.1700	  562.00	  596.54	-1885.79	  343.40
    122.2700	  555.00	  599.53	-1895.78	  343.71
    122.3700	  591.00	  602.58	-1862.83	  344.02
    122.4700	  599.00	  605.59	-1857.84	  344.34
    122.5700	  624.00	  608.47	-1835.72	  344.67
    122.6700	  641.00	  611.11	-1821.36	  345.01
    122.7700	  625.00	  613.40	-1839.65	  345.35
    122.8700	  595.00	  615.27	-1871.52	  345.71
    122.9700	  634.00	  616.61	-1833.86	  346.07
    123.0700	  635.00	  617.39	-1833.64	  346.44
    123.1700	  638.00	  617.57	-1830.82	  346.82
    123.2700	  614.00	  617.14	-1854.39	  347.21
    123.3700	  649.00	  616.12	-1818.37	  347.60
    123.4700	  661.00	  614.55	-1804.80	  348.01
    123.5700	  624.00	  612.48	-1839.73	  348.43
    123.6700	  601.00	  609.99	-1860.24	  348.85
    123.7700	  648.00	  607.14	-1810.39	  349.28
    123.8700	  605.00	  604.01	-1850.26	  349.72
    123.9700	  613.00	  600.66	-1838.91	  350.17
    124.0700	  657.00	  597.17	-1791.42	  350.63
    124.1700	  614.00	  593.60	-1830.85	  351.10
    124.2700	  600.00	  590.02	-1841.27	  351.58
    124.3700	  618.00	  586.47	-1819.72	  352.07
    124.4700	  620.00	  583.00	-1814.25	  352.57
    124.5700	  615.00	  579.64	-1815.89	  353.07
    124.6700	  596.00	  576.44	-1831.69	  353.59
    124.7700	  621.00	  573.41	-1803.66	  354.12
    124.8700	  577.00	  570.56	-1844.81	  354.65
    124.9700	  606.00	  467.52	-1712.77	  355.20
    125.0700	  570.00	  468.07	-1851.25	  355.75
    125.1700	  576.00	  468.64	-1851.25	  356.32
    125.2700	  556.00	  469.21	-1851.25	  356.90
    125.3700	  547.00	  469.80	-1851.25	  357.48
    125.4700	  503.00	  470.40	-1851.25	  358.08
    125.5700	  571.00	  471.00	-1851.25	  358.69
    125.6700	  562.00	  471.62	-1851.25	  359.30
    125.7700	  539.00	  472.25	-1851.25	  359.93
    125.8700	  579.00	  472.89	-1851.25	  360.57
    125.9700	  533.00	  473.53	-1851.25	  361.22
    126.0700	  583.00	  474.19	-1851.25	  361.88
    126.1700	  520.00	  474.86	-1851.25	  362.55
    126.2700	  560.00	  475.54	-1851.25	  363.23
    126.3700	  547.00	  476.24	-1851.25	  363.92
    126.4700	  556.00	  476.94	-1851.25	  364.62
    126.5700	  545.00	  477.65	-1851.25	  365.34
    126.6700	  547.00	  478.38	-1851.25	  366.06
    126.7700	  563.00	  479.11	-1851.25	  366.80
    126.8700	  579.00	  479.86	-1851.25	  367.54
    126.9700	  557.00	  480.62	-1851.25	  368.30
    127.0700	  593.00	  481.39	-1851.25	  369.07
    127.1700	  561.00	  482.17	-1851.25	  369.86
    127.2700	  632.00	  482.97	-1851.25	  370.65
    127.3700	  624.00	  483.77	-1851.25	  371.45
    127.4700	  589.00	  484.59	-1851.25	  372.27
    127.5700	  625.00	  485.42	-1851.25	  373.10
    127.6700	  618.00	  486.26	-1851.25	  373.94
    127.7700	  623.00	  487.11	-1851.25	  374.80
    127.8700	  660.00	  487.98	-1851.25	  375.66
    127.9700	  684.00	  488.86	-1851.25	  376.54
    128.0700	  676.00	  489.74	-1851.25	  377.43
    128.1700	  687.00	  490.65	-1851.25	  378.33
    128.2700	  751.00	  491.56	-1851.25	  379.24
    128.3700	  752.00	  492.49	-1851.25	  380.17
    128.4700	  781.00	  493.43	-1851.25	  381.11
    128.5700	    0.00	  494.38	-1851.25	  382.06
    128.6700	    0.00	  495.35	-1851.25	  383.03
     12.3251	        	        	        	        	       0	(  0  0  2)	  0  1
     24.9272	        	        	        	        	       0	(  0  0  4)	  0  1
     28.3582	        	        	        	        	       0	(  1  0  0)	  0  1
     29.0569	        	        	        	        	       0	(  1  0  1)	  0  1
     31.0671	        	        	        	        	       0	(  1  0  2)	  0  1
     34.1816	        	        	        	        	       0	(  1  0  3)	  0  1
     37.8467	        	        	        	        	       0	(  0  0  6)	  0  1
     38.1663	        	        	        	        	       0	(  1  0  4)	  0  1
     42.8252	        	        	        	        	       0	(  1  0  5)	  0  1
     48.0190	        	        	        	        	       0	(  1  0  6)	  0  1
     50.3178	        	        	        	        	       0	(  1  1  0)	  0  1
     51.2911	        	        	        	        	       0	(  0  0  8)	  0  1
     52.0446	        	        	        	        	       0	(  1  1  2)	  0  1
     53.6603	        	        	        	        	       0	(  1  0  7)	  0  1
     57.0033	        	        	        	        	       0	(  1  1  4)	  0  1
     58.8246	        	        	        	        	       0	(  2  0  0)	  0  1
     59.2170	        	        	        	        	       0	(  2  0  1)	  0  1
     59.7025	        	        	        	        	       0	(  1  0  8)	  0  1
     60.3851	        	        	        	        	       0	(  2  0  2)	  0  1
     62.3027	        	        	        	        	       0	(  2  0  3)	  0  1
     64.7150	        	        	        	        	       0	(  1  1  6)	  0  1
     64.9329	        	        	        	        	       0	(  2  0  4)	  0  1
     65.5470	        	        	        	        	       0	(  0  0 10)	  0  1
     66.1320	        	        	        	        	       0	(  1  0  9)	  0  1
     68.2348	        	        	        	        	       0	(  2  0  5)	  0  1
     72.1716	        	        	        	        	       0	(  2  0  6)	  0  1
     72.9630	        	        	        	        	       0	(  1  0 10)	  0  1
     74.7759	        	        	        	        	       0	(  1  1  8)	  0  1
     76.7167	        	        	        	        	       0	(  2  0  7)	  0  1
     80.2378	        	        	        	        	       0	(  1  0 11)	  0  1
     81.0620	        	        	        	        	       0	(  0  0 12)	  0  1
     81.0962	        	        	        	        	       0	(  2  1  0)	  0  1
     81.4370	        	        	        	        	       0	(  2  1  1)	  0  1
     81.8600	        	        	        	        	       0	(  2  0  8)	  0  1
     82.4576	        	        	        	        	       0	(  2  1  2)	  0  1
     84.1535	        	        	        	        	       0	(  2  1  3)	  0  1
     86.5196	        	        	        	        	       0	(  2  1  4)	  0  1
     87.0787	        	        	        	        	       0	(  1  1 10)	  0  1
     87.6135	        	        	        	        	       0	(  2  0  9)	  0  1
     88.0325	        	        	        	        	       0	(  1  0 12)	  0  1
     89.5540	        	        	        	        	       0	(  2  1  5)	  0  1
     93.2623	        	        	        	        	       0	(  2  1  6)	  0  1
     94.0196	        	        	        	        	       0	(  2  0 10)	  0  1
     95.0097	        	        	        	        	       0	(  3  0  0)	  0  1
     95.3481	        	        	        	        	       0	(  3  0  1)	  0  1
     96.3645	        	        	        	        	       0	(  3  0  2)	  0  1
     96.4709	        	        	        	        	       0	(  1  0 13)	  0  1
     97.6645	        	        	        	        	       0	(  2  1  7)	  0  1
     98.0632	        	        	        	        	       0	(  3  0  3)	  0  1
     98.6518	        	        	        	        	       0	(  0  0 14)	  0  1
    100.4539	        	        	        	        	       0	(  3  0  4)	  0  1
    101.1646	        	        	        	        	       0	(  2  0 11)	  0  1
    101.9954	        	        	        	        	       0	(  1  1 12)	  0  1
    102.8041	        	        	        	        	       0	(  2  1  8)	  0  1
    103.5560	        	        	        	        	       0	(  3  0  5)	  0  1
    105.7563	        	        	        	        	       0	(  1  0 14)	  0  1
    107.4050	        	        	        	        	       0	(  3  0  6)	  0  1
    108.7630	        	        	        	        	       0	(  2  1  9)	  0  1
    109.2061	        	        	        	        	       0	(  2  0 12)	  0  1
    112.0635	        	        	        	        	       0	(  3  0  7)	  0  1
    115.6892	        	        	        	        	       0	(  2  1 10)	  0  1
    116.2464	        	        	        	        	       0	(  1  0 15)	  0  1
    116.7906	        	        	        	        	       0	(  2  2  0)	  0  1
    117.6413	        	        	        	        	       0	(  3  0  8)	  0  1
    118.3126	        	        	        	        	       0	(  2  2  2)	  0  1
    118.4329	        	        	        	        	       0	(  2  0 13)	  0  1
    120.2350	        	        	        	        	       0	(  0  0 16)	  0  1
    120.9237	        	        	        	        	       0	(  1  1 14)	  0  1
    123.0208	        	        	        	        	       0	(  2  2  4)	  0  1
    123.8583	        	        	        	        	       0	(  2  1 11)	  0  1
    124.3357	        	        	        	        	       0	(  3  0  9)	  0  1
    124.8864	        	        	        	        	       0	(  3  1  0)	  0  1
    125.2988	        	        	        	        	       0	(  3  1  1)	  0  1
    126.5491	        	        	        	        	       0	(  3  1  2)	  0  1
    128.6797	        	        	        	        	       0	(  3  1  3)	  0  1
    128.6669	        	        	        	        	       0	(  1  0 16)	  0  1
    129.4307	        	        	        	        	       0	(  2  0 14)	  0  1
    131.5104	        	        	        	        	       0	(  2  2  6)	  0  1
    131.7750	        	        	        	        	       0	(  3  1  4)	  0  1
    132.5296	        	        	        	        	       0	(  3  0 10)	  0  1
    133.8393	        	        	        	        	       0	(  2  1 12)	  0  1
    135.9924	        	        	        	        	       0	(  3  1  5)	  0  1
    141.6374	        	        	        	        	       0	(  3  1  6)	  0  1
    143.1080	        	        	        	        	       0	(  3  0 11)	  0  1
    143.7153	        	        	        	        	       0	(  2  0 15)	  0  1
    145.0163	        	        	        	        	       0	(  1  0 17)	  0  1
    145.8767	        	        	        	        	       0	(  2  2  8)	  0  1
    147.1457	        	        	        	        	       0	(  2  1 13)	  0  1
    149.4061	        	        	        	        	       0	(  3  1  7)	  0  1
    150.1738	        	        	        	        	       0	(  1  1 16)	  0  1
    154.7434	        	        	        	        	       0	(  0  0 18)	  0  1
    159.3208	        	        	        	        	       0	(  3  0 12)	  0  1
    159.4175	        	        	        	        	       0	(  4  0  0)	  0  1
    160.4045	        	        	        	        	       0	(  4  0  1)	  0  1
    161.7024	        	        	        	        	       0	(  3  1  8)	  0  1
    163.7086	        	        	        	        	       0	(  4  0  2)	  0  1
    171.7107	        	        	        	        	       0	(  4  0  3)	  0  1
    171.6412	        	        	        	        	       0	(  2  0 16)	  0  1
