MSG Master    CELL:    5.91907   5.91907  23.26737   90.0000   90.0000  120.0000   SPGR: P 63/m m c             TEMP:   1074.85
  1   1280     2.52000     0.00000    -0.13102     0.00000     0.00000    0
    99     0     2
       0.00000      10.00000
     125.00000     130.00000
 2Theta	Yobs	Ycal	Yobs-Ycal	Backg	Posr	(hkl)	K
      0.7700	    0.00	  566.50	-1771.00	  448.19
      0.8700	    0.00	  566.98	-1771.00	  448.67
      0.9700	   43.00	  567.45	-1771.00	  449.14
      1.0700	   41.00	  567.91	-1771.00	  449.60
      1.1700	   34.00	  568.36	-1771.00	  450.05
      1.2700	   36.00	  568.80	-1771.00	  450.49
      1.3700	   47.00	  569.23	-1771.00	  450.92
      1.4700	   88.00	  569.66	-1771.00	  451.35
      1.5700	  308.00	  570.07	-1771.00	  451.76
      1.6700	  436.00	  570.48	-1771.00	  452.17
      1.7700	  576.00	  570.88	-1771.00	  452.57
      1.8700	  684.00	  571.27	-1771.00	  452.96
      1.9700	  732.00	  571.65	-1771.00	  453.34
      2.0700	  765.00	  572.02	-1771.00	  453.71
      2.1700	  813.00	  572.39	-1771.00	  454.08
      2.2700	  751.00	  572.74	-1771.00	  454.43
      2.3700	  754.00	  573.09	-1771.00	  454.78
      2.4700	  719.00	  573.43	-1771.00	  455.12
      2.5700	  675.00	  573.76	-1771.00	  455.45
      2.6700	  657.00	  574.08	-1771.00	  455.77
      2.7700	  653.00	  574.40	-1771.00	  456.09
      2.8700	  636.00	  574.70	-1771.00	  456.39
      2.9700	  613.00	  575.00	-1771.00	  456.69
      3.0700	  608.00	  575.29	-1771.00	  456.98
      3.1700	  615.00	  575.58	-1771.00	  457.27
      3.2700	  594.00	  575.85	-1771.00	  457.54
      3.3700	  692.00	  576.12	-1771.00	  457.81
      3.4700	  723.00	  576.38	-1771.00	  458.07
      3.5700	  777.00	  576.64	-1771.00	  458.33
      3.6700	  866.00	  576.88	-1771.00	  458.57
      3.7700	  872.00	  577.12	-1771.00	  458.81
      3.8700	  939.00	  577.35	-1771.00	  459.04
      3.9700	 1017.00	  577.57	-1771.00	  459.26
      4.0700	 1077.00	  577.79	-1771.00	  459.48
      4.1700	 1067.00	  578.00	-1771.00	  459.69
      4.2700	 1077.00	  578.20	-1771.00	  459.89
      4.3700	 1023.00	  578.39	-1771.00	  460.09
      4.4700	 1130.00	  578.58	-1771.00	  460.27
      4.5700	 1068.00	  578.76	-1771.00	  460.45
      4.6700	 1042.00	  578.94	-1771.00	  460.63
      4.7700	  995.00	  579.10	-1771.00	  460.79
      4.8700	  955.00	  579.26	-1771.00	  460.96
      4.9700	 1036.00	  579.42	-1771.00	  461.11
      5.0700	  931.00	  579.57	-1771.00	  461.26
      5.1700	  932.00	  579.71	-1771.00	  461.40
      5.2700	  842.00	  579.84	-1771.00	  461.53
      5.3700	  900.00	  579.97	-1771.00	  461.66
      5.4700	  911.00	  580.09	-1771.00	  461.78
      5.5700	  901.00	  580.20	-1771.00	  461.89
      5.6700	  864.00	  580.31	-1771.00	  462.00
      5.7700	  852.00	  580.41	-1771.00	  462.10
      5.8700	  787.00	  580.51	-1771.00	  462.20
      5.9700	  791.00	  580.60	-1771.00	  462.29
      6.0700	  792.00	  580.68	-1771.00	  462.37
      6.1700	  803.00	  580.76	-1771.00	  462.45
      6.2700	  751.00	  580.83	-1771.00	  462.52
      6.3700	  720.00	  580.89	-1771.00	  462.58
      6.4700	  747.00	  580.95	-1771.00	  462.64
      6.5700	  748.00	  581.01	-1771.00	  462.70
      6.6700	  725.00	  581.05	-1771.00	  462.74
      6.7700	  693.00	  581.10	-1771.00	  462.79
      6.8700	  730.00	  581.13	-1771.00	  462.82
      6.9700	  744.00	  581.16	-1771.00	  462.85
      7.0700	  650.00	  581.19	-1771.00	  462.88
      7.1700	  704.00	  581.21	-1771.00	  462.90
      7.2700	  704.00	  581.22	-1771.00	  462.91
      7.3700	  663.00	  581.23	-1771.00	  462.92
      7.4700	  683.00	  581.23	-1771.00	  462.92
      7.5700	  656.00	  581.23	-1771.00	  462.92
      7.6700	  657.00	  581.22	-1771.00	  462.91
      7.7700	  690.00	  581.21	-1771.00	  462.90
      7.8700	  673.00	  581.19	-1771.00	  462.88
      7.9700	  657.00	  581.17	-1771.00	  462.86
      8.0700	  616.00	  581.14	-1771.00	  462.83
      8.1700	  588.00	  581.11	-1771.00	  462.80
      8.2700	  658.00	  581.07	-1771.00	  462.76
      8.3700	  620.00	  581.03	-1771.00	  462.72
      8.4700	  581.00	  580.98	-1771.00	  462.67
      8.5700	  618.00	  580.93	-1771.00	  462.62
      8.6700	  651.00	  580.87	-1771.00	  462.56
      8.7700	  620.00	  580.81	-1771.00	  462.50
      8.8700	  574.00	  580.74	-1771.00	  462.43
      8.9700	  632.00	  580.67	-1771.00	  462.36
      9.0700	  634.00	  580.59	-1771.00	  462.28
      9.1700	  607.00	  580.51	-1771.00	  462.20
      9.2700	  624.00	  580.43	-1771.00	  462.12
      9.3700	  596.00	  580.34	-1771.00	  462.03
      9.4700	  622.00	  580.24	-1771.00	  461.93
      9.5700	  606.00	  580.14	-1771.00	  461.83
      9.6700	  639.00	  580.04	-1771.00	  461.73
      9.7700	  591.00	  579.93	-1771.00	  461.62
      9.8700	  598.00	  579.82	-1771.00	  461.51
      9.9700	  596.00	  579.71	-1771.00	  461.40
     10.0700	  588.00	  580.33	-1763.33	  461.28
     10.1700	  606.00	  580.29	-1745.29	  461.15
     10.2700	  621.00	  580.26	-1730.26	  461.03
     10.3700	  612.00	  580.25	-1739.25	  460.89
     10.4700	  573.00	  580.29	-1778.29	  460.76
     10.5700	  636.00	  580.45	-1715.45	  460.62
     10.6700	  580.00	  580.79	-1771.79	  460.48
     10.7700	  566.00	  581.45	-1786.45	  460.33
     10.8700	  582.00	  582.48	-1771.48	  460.18
     10.9700	  604.00	  583.87	-1750.87	  460.02
     11.0700	  623.00	  585.59	-1733.59	  459.87
     11.1700	  576.00	  587.63	-1782.63	  459.70
     11.2700	  617.00	  590.03	-1744.03	  459.54
     11.3700	  586.00	  592.86	-1777.86	  459.37
     11.4700	  588.00	  596.26	-1779.26	  459.20
     11.5700	  614.00	  600.40	-1757.40	  459.02
     11.6700	  619.00	  605.63	-1757.63	  458.84
     11.7700	  593.00	  612.55	-1790.55	  458.66
     11.8700	  624.00	  622.06	-1769.06	  458.47
     11.9700	  647.00	  634.85	-1758.85	  458.28
     12.0700	  675.00	  649.42	-1745.42	  458.09
     12.1700	  653.00	  659.66	-1777.66	  457.89
     12.2700	  663.00	  655.97	-1763.97	  457.69
     12.3700	  631.00	  635.73	-1775.73	  457.49
     12.4700	  636.00	  611.45	-1746.45	  457.28
     12.5700	  637.00	  593.98	-1727.98	  457.08
     12.6700	  577.00	  584.65	-1778.65	  456.86
     12.7700	  552.00	  580.47	-1799.47	  456.65
     12.8700	  617.00	  578.55	-1732.55	  456.43
     12.9700	  532.00	  577.44	-1816.44	  456.21
     13.0700	  560.00	  576.65	-1787.65	  455.99
     13.1700	  553.00	  576.02	-1794.02	  455.76
     13.2700	  575.00	  575.49	-1771.49	  455.53
     13.3700	  593.00	  575.03	-1753.03	  455.30
     13.4700	  530.00	  574.62	-1815.62	  455.07
     13.5700	  555.00	  574.23	-1790.23	  454.83
     13.6700	  560.00	  573.88	-1784.88	  454.59
     13.7700	  543.00	  573.54	-1801.54	  454.35
     13.8700	  594.00	  573.21	-1750.21	  454.10
     13.9700	  520.00	  572.90	-1823.90	  453.85
     14.0700	  541.00	  572.59	-1802.59	  453.61
     14.1700	  553.00	  572.29	-1790.29	  453.35
     14.2700	  568.00	  571.99	-1774.99	  453.10
     14.3700	  557.00	  571.70	-1785.70	  452.84
     14.4700	  519.00	  571.41	-1823.41	  452.58
     14.5700	  549.00	  571.12	-1793.12	  452.32
     14.6700	  537.00	  570.83	-1804.83	  452.06
     14.7700	  526.00	  570.54	-1815.54	  451.79
     14.8700	  564.00	  570.25	-1777.25	  451.52
     14.9700	  593.00	  569.96	-1747.96	  451.25
     15.0700	  540.00	  569.67	-1800.67	  450.98
     15.1700	  570.00	  569.38	-1770.38	  450.70
     15.2700	  546.00	  569.09	-1794.09	  450.43
     15.3700	  575.00	  568.80	-1764.80	  450.15
     15.4700	  586.00	  568.51	-1753.51	  449.87
     15.5700	  588.00	  568.22	-1751.22	  449.58
     15.6700	  534.00	  567.93	-1804.93	  449.30
     15.7700	  562.00	  567.63	-1776.63	  449.01
     15.8700	  553.00	  567.33	-1785.33	  448.73
     15.9700	  497.00	  567.04	-1841.04	  448.44
     16.0700	  560.00	  566.74	-1777.74	  448.14
     16.1700	  556.00	  566.44	-1781.44	  447.85
     16.2700	  581.00	  566.16	-1756.16	  447.55
     16.3700	  575.00	  565.86	-1761.86	  447.26
     16.4700	  576.00	  565.56	-1760.56	  446.96
     16.5700	  551.00	  565.26	-1785.26	  446.66
     16.6700	  559.00	  564.95	-1776.95	  446.36
     16.7700	  556.00	  564.64	-1779.64	  446.05
     16.8700	  556.00	  564.34	-1779.34	  445.75
     16.9700	  596.00	  564.03	-1739.03	  445.44
     17.0700	  515.00	  563.72	-1819.72	  445.13
     17.1700	  522.00	  563.40	-1812.40	  444.83
     17.2700	  646.00	  563.09	-1688.09	  444.51
     17.3700	  574.00	  562.78	-1759.78	  444.20
     17.4700	  556.00	  562.46	-1777.46	  443.89
     17.5700	  544.00	  562.15	-1789.15	  443.58
     17.6700	  549.00	  561.83	-1783.83	  443.26
     17.7700	  527.00	  561.51	-1805.51	  442.94
     17.8700	  584.00	  561.19	-1748.19	  442.62
     17.9700	  536.00	  560.97	-1795.97	  442.30
     18.0700	  576.00	  560.65	-1755.65	  441.98
     18.1700	  586.00	  560.33	-1745.33	  441.66
     18.2700	  574.00	  560.01	-1757.01	  441.34
     18.3700	  542.00	  559.69	-1788.69	  441.02
     18.4700	  541.00	  559.37	-1789.37	  440.69
     18.5700	  557.00	  559.04	-1773.04	  440.37
     18.6700	  561.00	  558.72	-1768.72	  440.04
     18.7700	  595.00	  558.39	-1734.39	  439.71
     18.8700	  559.00	  558.16	-1770.16	  439.38
     18.9700	  537.00	  557.83	-1791.83	  439.05
     19.0700	  596.00	  557.51	-1732.51	  438.72
     19.1700	  535.00	  557.18	-1793.18	  438.39
     19.2700	  517.00	  556.86	-1810.86	  438.06
     19.3700	  563.00	  556.53	-1764.53	  437.73
     19.4700	  539.00	  556.20	-1788.20	  437.39
     19.5700	  571.00	  555.88	-1755.88	  437.06
     19.6700	  548.00	  555.55	-1778.55	  436.72
     19.7700	  528.00	  555.22	-1798.22	  436.39
     19.8700	  570.00	  554.89	-1755.89	  436.05
     19.9700	  570.00	  554.57	-1755.57	  435.72
     20.0700	  577.00	  554.24	-1748.24	  435.38
     20.1700	  541.00	  553.91	-1783.91	  435.04
     20.2700	  503.00	  553.58	-1821.58	  434.70
     20.3700	  534.00	  553.25	-1790.25	  434.36
     20.4700	  565.00	  552.90	-1758.90	  434.02
     20.5700	  563.00	  552.57	-1760.57	  433.68
     20.6700	  555.00	  552.24	-1768.24	  433.34
     20.7700	  539.00	  551.91	-1783.91	  433.00
     20.8700	  587.00	  551.62	-1735.62	  432.66
     20.9700	  573.00	  551.30	-1749.30	  432.32
     21.0700	  561.00	  550.97	-1760.97	  431.98
     21.1700	  562.00	  550.65	-1759.65	  431.64
     21.2700	  550.00	  550.33	-1771.33	  431.30
     21.3700	  542.00	  550.00	-1779.00	  430.95
     21.4700	  542.00	  549.68	-1778.68	  430.61
     21.5700	  551.00	  549.36	-1769.36	  430.27
     21.6700	  532.00	  549.04	-1788.04	  429.92
     21.7700	  539.00	  548.73	-1780.73	  429.58
     21.8700	  534.00	  548.41	-1785.41	  429.24
     21.9700	  529.00	  548.10	-1790.10	  428.89
     22.0700	  574.00	  547.79	-1744.79	  428.55
     22.1700	  572.00	  547.48	-1746.48	  428.21
     22.2700	  574.00	  547.18	-1744.18	  427.86
     22.3700	  558.00	  546.87	-1759.87	  427.52
     22.4700	  577.00	  546.58	-1740.58	  427.18
     22.5700	  528.00	  546.28	-1789.28	  426.83
     22.6700	  543.00	  546.00	-1774.00	  426.49
     22.7700	  562.00	  545.72	-1754.72	  426.14
     22.8700	  548.00	  545.45	-1768.45	  425.80
     22.9700	  529.00	  545.19	-1787.19	  425.46
     23.0700	  552.00	  544.94	-1763.94	  425.11
     23.1700	  518.00	  544.70	-1797.70	  424.77
     23.2700	  556.00	  544.49	-1759.49	  424.43
     23.3700	  527.00	  544.30	-1788.30	  424.09
     23.4700	  545.00	  544.14	-1770.14	  423.74
     23.5700	  563.00	  544.02	-1752.02	  423.40
     23.6700	  561.00	  543.97	-1753.97	  423.06
     23.7700	  563.00	  544.15	-1752.15	  422.72
     23.8700	  516.00	  544.40	-1799.40	  422.38
     23.9700	  588.00	  545.06	-1728.06	  422.04
     24.0700	  541.00	  546.53	-1776.53	  421.70
     24.1700	  560.00	  549.46	-1760.46	  421.36
     24.2700	  595.00	  554.65	-1730.65	  421.02
     24.3700	  615.00	  563.04	-1719.04	  420.68
     24.4700	  566.00	  575.65	-1780.65	  420.34
     24.5700	  654.00	  592.83	-1709.83	  420.00
     24.6700	  581.00	  611.96	-1801.96	  419.66
     24.7700	  627.00	  625.39	-1769.39	  419.32
     24.8700	  598.00	  622.64	-1795.64	  418.98
     24.9700	  608.00	  602.24	-1765.24	  418.65
     25.0700	  571.00	  577.40	-1777.40	  418.31
     25.1700	  578.00	  558.89	-1751.89	  417.98
     25.2700	  510.00	  548.56	-1809.56	  417.64
     25.3700	  547.00	  543.78	-1767.78	  417.31
     25.4700	  548.00	  541.63	-1764.63	  416.97
     25.5700	  545.00	  540.49	-1766.49	  416.64
     25.6700	  549.00	  539.74	-1761.74	  416.31
     25.7700	  560.00	  539.19	-1750.19	  415.98
     25.8700	  524.00	  538.77	-1785.77	  415.64
     25.9700	  521.00	  538.45	-1788.45	  415.31
     26.0700	  579.00	  538.21	-1730.21	  414.98
     26.1700	  585.00	  538.05	-1724.05	  414.65
     26.2700	  529.00	  537.96	-1779.96	  414.33
     26.3700	  584.00	  537.95	-1724.95	  414.00
     26.4700	  524.00	  538.02	-1785.02	  413.67
     26.5700	  540.00	  538.18	-1769.18	  413.35
     26.6700	  534.00	  538.45	-1775.45	  413.02
     26.7700	  566.00	  538.86	-1743.86	  412.70
     26.8700	  513.00	  539.44	-1797.44	  412.37
     26.9700	  546.00	  540.23	-1765.23	  412.05
     27.0700	  561.00	  541.32	-1751.32	  411.73
     27.1700	  549.00	  542.83	-1764.83	  411.41
     27.2700	  514.00	  545.02	-1802.02	  411.09
     27.3700	  538.00	  548.36	-1781.36	  410.77
     27.4700	  559.00	  553.82	-1765.82	  410.45
     27.5700	  541.00	  563.06	-1793.06	  410.13
     27.6700	  618.00	  578.71	-1731.71	  409.82
     27.7700	  596.00	  604.12	-1779.12	  409.50
     27.8700	  627.00	  642.06	-1786.06	  409.19
     27.9700	  672.00	  692.44	-1791.44	  408.87
     28.0700	  776.00	  749.29	-1744.29	  408.56
     28.1700	  870.00	  798.25	-1699.25	  408.25
     28.2700	  873.00	  818.38	-1716.38	  407.94
     28.3700	  891.00	  798.75	-1678.75	  407.63
     28.4700	  821.00	  761.14	-1711.14	  407.32
     28.5700	  763.00	  738.51	-1746.51	  407.01
     28.6700	  704.00	  745.00	-1812.00	  406.71
     28.7700	  735.00	  774.68	-1810.68	  406.40
     28.8700	  827.00	  806.45	-1750.45	  406.10
     28.9700	  804.00	  810.96	-1777.96	  405.80
     29.0700	  782.00	  770.68	-1759.68	  405.50
     29.1700	  685.00	  703.80	-1789.80	  405.20
     29.2700	  643.00	  640.79	-1768.79	  404.90
     29.3700	  596.00	  595.66	-1770.66	  404.60
     29.4700	  591.00	  568.53	-1748.53	  404.30
     29.5700	  640.00	  553.93	-1684.93	  404.01
     29.6700	  586.00	  546.24	-1731.24	  403.71
     29.7700	  570.00	  541.90	-1742.90	  403.42
     29.8700	  586.00	  539.19	-1724.19	  403.13
     29.9700	  563.00	  537.49	-1745.49	  402.84
     30.0700	  551.00	  536.62	-1756.62	  402.55
     30.1700	  565.00	  536.76	-1742.76	  402.26
     30.2700	  549.00	  538.46	-1760.46	  401.97
     30.3700	  569.00	  542.83	-1744.83	  401.69
     30.4700	  519.00	  551.50	-1803.50	  401.40
     30.5700	  555.00	  566.19	-1782.19	  401.12
     30.6700	  571.00	  587.33	-1787.33	  400.84
     30.7700	  588.00	  612.21	-1795.21	  400.56
     30.8700	  572.00	  633.63	-1832.63	  400.28
     30.9700	  596.00	  640.74	-1815.74	  400.00
     31.0700	  615.00	  626.47	-1782.47	  399.73
     31.1700	  536.00	  598.44	-1833.44	  399.45
     31.2700	  542.00	  570.60	-1799.60	  399.18
     31.3700	  548.00	  550.20	-1773.20	  398.91
     31.4700	  552.00	  537.86	-1756.86	  398.64
     31.5700	  504.00	  531.30	-1798.30	  398.37
     31.6700	  527.00	  527.94	-1771.94	  398.10
     31.7700	  555.00	  526.07	-1742.07	  397.83
     31.8700	  510.00	  524.90	-1785.90	  397.57
     31.9700	  508.00	  524.09	-1787.09	  397.30
     32.0700	  517.00	  523.51	-1777.51	  397.04
     32.1700	  523.00	  523.12	-1771.12	  396.78
     32.2700	  537.00	  522.89	-1756.89	  396.52
     32.3700	  566.00	  522.81	-1727.81	  396.27
     32.4700	  568.00	  522.89	-1725.89	  396.01
     32.5700	  538.00	  523.14	-1756.14	  395.76
     32.6700	  536.00	  523.59	-1758.59	  395.50
     32.7700	  557.00	  524.28	-1738.28	  395.25
     32.8700	  555.00	  525.28	-1741.28	  395.00
     32.9700	  536.00	  526.72	-1761.72	  394.75
     33.0700	  539.00	  528.79	-1760.79	  394.51
     33.1700	  523.00	  531.98	-1779.98	  394.26
     33.2700	  565.00	  537.34	-1743.34	  394.02
     33.3700	  565.00	  547.20	-1753.20	  393.78
     33.4700	  593.00	  566.01	-1744.01	  393.54
     33.5700	  629.00	  600.92	-1742.92	  393.30
     33.6700	  643.00	  660.12	-1788.12	  393.06
     33.7700	  822.00	  747.21	-1696.21	  392.82
     33.8700	  889.00	  852.64	-1734.64	  392.59
     33.9700	 1017.00	  947.87	-1701.87	  392.36
     34.0700	 1068.00	  989.28	-1692.28	  392.13
     34.1700	 1004.00	  945.23	-1712.23	  391.90
     34.2700	  927.00	  838.73	-1682.73	  391.67
     34.3700	  738.00	  724.79	-1757.79	  391.44
     34.4700	  660.00	  636.97	-1747.97	  391.22
     34.5700	  627.00	  582.03	-1726.03	  391.00
     34.6700	  546.00	  552.45	-1777.45	  390.78
     34.7700	  512.00	  537.67	-1796.67	  390.56
     34.8700	  522.00	  529.99	-1778.99	  390.34
     34.9700	  509.00	  525.40	-1787.40	  390.12
     35.0700	  513.00	  522.24	-1780.24	  389.91
     35.1700	  538.00	  519.86	-1752.86	  389.70
     35.2700	  534.00	  517.99	-1754.99	  389.49
     35.3700	  512.00	  516.46	-1775.46	  389.28
     35.4700	  496.00	  515.20	-1790.20	  389.07
     35.5700	  513.00	  514.13	-1772.13	  388.86
     35.6700	  531.00	  513.22	-1753.22	  388.66
     35.7700	  552.00	  512.43	-1731.43	  388.46
     35.8700	  521.00	  511.73	-1761.73	  388.25
     35.9700	  535.00	  511.60	-1747.60	  388.06
     36.0700	  496.00	  511.06	-1786.06	  387.86
     36.1700	  498.00	  510.57	-1783.57	  387.66
     36.2700	  494.00	  510.13	-1787.13	  387.47
     36.3700	  478.00	  509.73	-1802.73	  387.28
     36.4700	  472.00	  509.38	-1808.38	  387.09
     36.5700	  532.00	  509.05	-1748.05	  386.90
     36.6700	  520.00	  508.77	-1759.77	  386.71
     36.7700	  507.00	  508.53	-1772.53	  386.53
     36.8700	  528.00	  508.35	-1751.35	  386.34
     36.9700	  532.00	  508.27	-1747.27	  386.16
     37.0700	  518.00	  508.39	-1761.39	  385.98
     37.1700	  487.00	  508.92	-1792.92	  385.80
     37.2700	  509.00	  510.17	-1772.17	  385.63
     37.3700	  534.00	  512.46	-1749.46	  385.45
     37.4700	  508.00	  515.87	-1778.87	  385.28
     37.5700	  533.00	  519.90	-1757.90	  385.11
     37.6700	  530.00	  523.36	-1764.36	  384.94
     37.7700	  529.00	  524.83	-1766.83	  384.77
     37.8700	  552.00	  523.81	-1742.81	  384.60
     37.9700	  532.00	  521.25	-1760.25	  384.44
     38.0700	  526.00	  518.05	-1763.05	  384.28
     38.1700	  505.00	  514.58	-1780.58	  384.12
     38.2700	  510.00	  511.30	-1772.30	  383.96
     38.3700	  482.00	  508.66	-1797.66	  383.80
     38.4700	  532.00	  506.80	-1745.80	  383.65
     38.5700	  493.00	  505.61	-1783.61	  383.49
     38.6700	  498.00	  504.88	-1777.88	  383.34
     38.7700	  539.00	  504.33	-1736.33	  383.19
     38.8700	  494.00	  504.01	-1781.01	  383.04
     38.9700	  465.00	  503.76	-1809.76	  382.90
     39.0700	  522.00	  503.55	-1752.55	  382.75
     39.1700	  474.00	  503.36	-1800.36	  382.61
     39.2700	  502.00	  503.11	-1772.11	  382.47
     39.3700	  514.00	  502.95	-1759.95	  382.33
     39.4700	  532.00	  502.81	-1741.81	  382.19
     39.5700	  482.00	  502.68	-1791.68	  382.06
     39.6700	  549.00	  502.68	-1724.68	  381.92
     39.7700	  491.00	  502.57	-1782.57	  381.79
     39.8700	  485.00	  502.47	-1788.47	  381.66
     39.9700	  479.00	  502.38	-1794.38	  381.53
     40.0700	  495.00	  502.29	-1778.29	  381.41
     40.1700	  516.00	  502.22	-1757.22	  381.28
     40.2700	  494.00	  502.16	-1779.16	  381.16
     40.3700	  488.00	  502.11	-1785.11	  381.04
     40.4700	  498.00	  502.08	-1775.08	  380.92
     40.5700	  503.00	  502.06	-1770.06	  380.80
     40.6700	  495.00	  502.06	-1778.06	  380.68
     40.7700	  481.00	  502.07	-1792.07	  380.57
     40.8700	  475.00	  502.11	-1798.11	  380.46
     40.9700	  523.00	  502.18	-1750.18	  380.35
     41.0700	  452.00	  502.27	-1821.27	  380.24
     41.1700	  503.00	  502.38	-1770.38	  380.13
     41.2700	  550.00	  502.57	-1723.57	  380.03
     41.3700	  510.00	  502.82	-1763.82	  379.92
     41.4700	  506.00	  503.16	-1768.16	  379.82
     41.5700	  518.00	  504.04	-1757.04	  379.72
     41.6700	  505.00	  504.68	-1770.68	  379.62
     41.7700	  505.00	  505.62	-1771.62	  379.53
     41.8700	  489.00	  507.17	-1789.17	  379.43
     41.9700	  518.00	  510.05	-1763.05	  379.34
     42.0700	  478.00	  515.62	-1808.62	  379.25
     42.1700	  482.00	  526.14	-1815.14	  379.16
     42.2700	  532.00	  544.31	-1783.31	  379.08
     42.3700	  574.00	  571.61	-1768.61	  378.99
     42.4700	  587.00	  606.21	-1790.21	  378.91
     42.5700	  556.00	  640.66	-1855.67	  378.82
     42.6700	  595.00	  662.60	-1838.60	  378.74
     42.7700	  594.00	  660.68	-1837.68	  378.67
     42.8700	  653.00	  634.99	-1752.99	  378.59
     42.9700	  508.00	  598.55	-1861.55	  378.51
     43.0700	  518.00	  564.26	-1817.26	  378.44
     43.1700	  490.00	  538.57	-1819.57	  378.37
     43.2700	  485.00	  522.32	-1808.32	  378.30
     43.3700	  496.00	  513.32	-1788.32	  378.23
     43.4700	  544.00	  508.73	-1735.73	  378.17
     43.5700	  511.00	  506.38	-1766.38	  378.10
     43.6700	  503.00	  505.24	-1773.24	  378.04
     43.7700	  493.00	  504.40	-1782.40	  377.98
     43.8700	  486.00	  503.80	-1788.80	  377.92
     43.9700	  498.00	  503.36	-1776.36	  377.86
     44.0700	  482.00	  503.02	-1792.02	  377.81
     44.1700	  514.00	  502.79	-1759.79	  377.75
     44.2700	  508.00	  502.60	-1765.60	  377.70
     44.3700	  512.00	  502.46	-1761.46	  377.65
     44.4700	  498.00	  502.36	-1775.36	  377.60
     44.5700	  500.00	  502.17	-1773.17	  377.55
     44.6700	  524.00	  502.14	-1749.14	  377.51
     44.7700	  481.00	  502.14	-1792.14	  377.47
     44.8700	  536.00	  502.16	-1737.16	  377.42
     44.9700	  529.00	  502.21	-1744.21	  377.38
     45.0700	  517.00	  502.28	-1756.28	  377.35
     45.1700	  514.00	  502.38	-1759.38	  377.31
     45.2700	  541.00	  502.67	-1732.67	  377.27
     45.3700	  497.00	  502.81	-1776.81	  377.24
     45.4700	  495.00	  502.97	-1778.97	  377.21
     45.5700	  486.00	  503.15	-1788.15	  377.18
     45.6700	  508.00	  503.36	-1766.36	  377.15
     45.7700	  527.00	  503.59	-1747.59	  377.12
     45.8700	  505.00	  503.85	-1769.85	  377.10
     45.9700	  478.00	  504.13	-1797.13	  377.07
     46.0700	  491.00	  504.46	-1784.46	  377.05
     46.1700	  503.00	  504.81	-1772.81	  377.03
     46.2700	  465.00	  505.21	-1811.21	  377.01
     46.3700	  481.00	  505.65	-1795.65	  377.00
     46.4700	  504.00	  506.15	-1773.15	  376.98
     46.5700	  507.00	  506.71	-1770.71	  376.97
     46.6700	  526.00	  507.35	-1752.35	  376.96
     46.7700	  511.00	  508.09	-1768.09	  376.94
     46.8700	  493.00	  508.97	-1786.97	  376.94
     46.9700	  496.00	  510.09	-1785.09	  376.93
     47.0700	  493.00	  511.67	-1789.67	  376.92
     47.1700	  506.00	  514.17	-1779.17	  376.92
     47.2700	  523.00	  518.29	-1766.29	  376.92
     47.3700	  529.00	  525.13	-1767.13	  376.92
     47.4700	  559.00	  535.56	-1747.56	  376.92
     47.5700	  548.00	  549.86	-1772.86	  376.92
     47.6700	  530.00	  566.69	-1807.69	  376.92
     47.7700	  562.00	  582.61	-1791.61	  376.93
     47.8700	  578.00	  592.59	-1785.59	  376.93
     47.9700	  579.00	  592.59	-1784.59	  376.94
     48.0700	  588.00	  583.31	-1766.31	  376.95
     48.1700	  601.00	  569.77	-1739.77	  376.96
     48.2700	  568.00	  556.86	-1759.86	  376.98
     48.3700	  536.00	  547.50	-1782.50	  376.99
     48.4700	  468.00	  542.53	-1845.53	  377.01
     48.5700	  533.00	  541.44	-1779.44	  377.03
     48.6700	  521.00	  543.30	-1793.30	  377.04
     48.7700	  567.00	  547.34	-1751.34	  377.07
     48.8700	  548.00	  553.21	-1776.21	  377.09
     48.9700	  543.00	  561.04	-1789.04	  377.11
     49.0700	  576.00	  571.60	-1766.60	  377.14
     49.1700	  586.00	  586.64	-1771.64	  377.16
     49.2700	  608.00	  609.80	-1772.80	  377.19
     49.3700	  669.00	  647.96	-1749.96	  377.22
     49.4700	  706.00	  712.54	-1777.54	  377.25
     49.5700	  791.00	  820.02	-1800.02	  377.28
     49.6700	  932.00	  987.79	-1826.79	  377.32
     49.7700	 1129.00	 1229.14	-1871.14	  377.35
     49.8700	 1506.00	 1541.16	-1806.16	  377.39
     49.9700	 1900.00	 1893.53	-1764.53	  377.43
     50.0700	 2215.00	 2219.67	-1775.67	  377.47
     50.1700	 2517.00	 2422.27	-1676.27	  377.51
     50.2700	 2529.00	 2417.32	-1659.32	  377.55
     50.3700	 2347.00	 2204.97	-1628.97	  377.59
     50.4700	 1777.00	 1873.18	-1867.18	  377.64
     50.5700	 1350.00	 1522.55	-1943.55	  377.68
     50.6700	 1011.00	 1218.65	-1978.65	  377.73
     50.7700	  786.00	  989.51	-1974.51	  377.78
     50.8700	  731.00	  835.96	-1875.96	  377.83
     50.9700	  664.00	  742.76	-1849.76	  377.88
     51.0700	  614.00	  689.15	-1846.15	  377.93
     51.1700	  622.00	  656.37	-1805.37	  377.99
     51.2700	  646.00	  631.95	-1756.95	  378.04
     51.3700	  566.00	  610.68	-1815.68	  378.10
     51.4700	  562.00	  591.95	-1800.95	  378.16
     51.5700	  571.00	  576.41	-1776.41	  378.22
     51.6700	  588.00	  564.50	-1747.50	  378.28
     51.7700	  528.00	  555.99	-1798.99	  378.34
     51.8700	  527.00	  550.25	-1794.25	  378.41
     51.9700	  540.00	  546.50	-1777.50	  378.47
     52.0700	  565.00	  544.16	-1750.16	  378.54
     52.1700	  523.00	  542.84	-1790.84	  378.60
     52.2700	  601.00	  542.64	-1712.64	  378.67
     52.3700	  579.00	  543.20	-1735.20	  378.74
     52.4700	  548.00	  545.09	-1768.09	  378.81
     52.5700	  548.00	  549.27	-1772.27	  378.88
     52.6700	  594.00	  557.78	-1734.78	  378.96
     52.7700	  630.00	  574.43	-1715.43	  379.03
     52.8700	  601.00	  605.23	-1775.23	  379.11
     52.9700	  714.00	  657.78	-1714.78	  379.18
     53.0700	  838.00	  738.73	-1671.73	  379.26
     53.1700	  939.00	  849.34	-1681.34	  379.34
     53.2700	 1072.00	  980.46	-1679.46	  379.42
     53.3700	 1102.00	 1109.23	-1778.23	  379.50
     53.4700	 1147.00	 1200.84	-1824.84	  379.58
     53.5700	 1171.00	 1221.01	-1821.01	  379.67
     53.6700	 1094.00	 1160.39	-1837.39	  379.75
     53.7700	  996.00	 1044.05	-1819.05	  379.84
     53.8700	  804.00	  910.01	-1877.01	  379.93
     53.9700	  776.00	  787.76	-1782.76	  380.01
     54.0700	  707.00	  692.74	-1756.74	  380.10
     54.1700	  632.00	  627.94	-1766.94	  380.19
     54.2700	  615.00	  588.49	-1744.49	  380.28
     54.3700	  576.00	  566.64	-1761.64	  380.38
     54.4700	  576.00	  555.45	-1750.45	  380.47
     54.5700	  561.00	  550.02	-1760.02	  380.56
     54.6700	  590.00	  547.56	-1728.56	  380.66
     54.7700	  546.00	  546.71	-1771.71	  380.76
     54.8700	  527.00	  546.88	-1790.88	  380.85
     54.9700	  545.00	  547.83	-1773.83	  380.95
     55.0700	  594.00	  549.49	-1726.49	  381.05
     55.1700	  544.00	  551.87	-1778.87	  381.15
     55.2700	  557.00	  555.08	-1769.08	  381.25
     55.3700	  549.00	  559.16	-1781.16	  381.35
     55.4700	  574.00	  564.37	-1761.37	  381.46
     55.5700	  557.00	  571.10	-1785.10	  381.56
     55.6700	  592.00	  580.14	-1759.14	  381.67
     55.7700	  570.00	  593.12	-1794.12	  381.77
     55.8700	  580.00	  613.33	-1804.33	  381.88
     55.9700	  596.00	  646.98	-1821.98	  381.99
     56.0700	  647.00	  704.44	-1828.44	  382.10
     56.1700	  765.00	  800.82	-1806.82	  382.21
     56.2700	  848.00	  954.21	-1877.21	  382.32
     56.3700	 1084.00	 1180.35	-1867.35	  382.43
     56.4700	 1375.00	 1484.09	-1880.09	  382.54
     56.5700	 1785.00	 1849.23	-1835.23	  382.65
     56.6700	 2186.00	 2230.80	-1815.80	  382.77
     56.7700	 2476.00	 2552.89	-1847.89	  382.88
     56.8700	 2714.00	 2722.78	-1779.78	  383.00
     56.9700	 2631.00	 2677.49	-1817.49	  383.11
     57.0700	 2317.00	 2434.55	-1888.55	  383.23
     57.1700	 2006.00	 2077.71	-1842.71	  383.35
     57.2700	 1612.00	 1697.45	-1856.45	  383.47
     57.3700	 1371.00	 1357.42	-1757.42	  383.59
     57.4700	 1107.00	 1089.61	-1753.61	  383.71
     57.5700	  951.00	  900.41	-1720.41	  383.83
     57.6700	  755.00	  779.51	-1795.51	  383.95
     57.7700	  718.00	  710.00	-1763.00	  384.07
     57.8700	  656.00	  675.93	-1790.93	  384.19
     57.9700	  667.00	  666.10	-1770.10	  384.32
     58.0700	  688.00	  674.61	-1757.61	  384.44
     58.1700	  693.00	  699.52	-1777.52	  384.57
     58.2700	  793.00	  740.96	-1718.96	  384.69
     58.3700	  856.00	  799.23	-1714.23	  384.82
     58.4700	  871.00	  873.09	-1773.09	  384.95
     58.5700	 1093.00	  958.13	-1636.13	  385.07
     58.6700	 1216.00	 1046.19	-1601.19	  385.20
     58.7700	 1438.00	 1127.60	-1460.60	  385.33
     58.8700	 1591.00	 1195.35	-1375.35	  385.46
     58.9700	 1642.00	 1244.96	-1373.96	  385.59
     59.0700	 1571.00	 1270.55	-1470.55	  385.72
     59.1700	 1563.00	 1267.27	-1475.27	  385.85
     59.2700	 1481.00	 1239.42	-1529.42	  385.98
     59.3700	 1337.00	 1200.56	-1634.56	  386.12
     59.4700	 1263.00	 1164.70	-1672.70	  386.25
     59.5700	 1147.00	 1141.30	-1765.30	  386.38
     59.6700	 1154.00	 1137.52	-1754.52	  386.52
     59.7700	 1177.00	 1160.94	-1754.94	  386.65
     59.8700	 1195.00	 1216.12	-1792.12	  386.79
     59.9700	 1360.00	 1298.65	-1709.65	  386.92
     60.0700	 1387.00	 1392.09	-1776.09	  387.06
     60.1700	 1508.00	 1468.51	-1731.51	  387.20
     60.2700	 1596.00	 1495.52	-1670.52	  387.33
     60.3700	 1528.00	 1453.25	-1696.25	  387.47
     60.4700	 1520.00	 1348.66	-1599.66	  387.61
     60.5700	 1353.00	 1208.44	-1626.44	  387.75
     60.6700	 1064.00	 1061.17	-1768.17	  387.88
     60.7700	  916.00	  927.62	-1782.62	  388.02
     60.8700	  787.00	  819.45	-1803.45	  388.16
     60.9700	  707.00	  740.70	-1804.70	  388.30
     61.0700	  676.00	  690.20	-1785.20	  388.44
     61.1700	  647.00	  664.72	-1788.72	  388.58
     61.2700	  610.00	  661.61	-1822.61	  388.73
     61.3700	  640.00	  680.48	-1811.48	  388.87
     61.4700	  696.00	  723.37	-1798.37	  389.01
     61.5700	  770.00	  793.48	-1794.48	  389.15
     61.6700	  806.00	  892.73	-1857.73	  389.29
     61.7700	  947.00	 1018.82	-1842.82	  389.44
     61.8700	 1045.00	 1162.51	-1888.51	  389.58
     61.9700	 1209.00	 1305.93	-1867.93	  389.72
     62.0700	 1293.00	 1422.60	-1900.60	  389.87
     62.1700	 1493.00	 1482.52	-1760.52	  390.01
     62.2700	 1369.00	 1466.14	-1868.14	  390.15
     62.3700	 1264.00	 1378.40	-1885.40	  390.30
     62.4700	 1156.00	 1244.97	-1859.97	  390.44
     62.5700	 1076.00	 1095.67	-1790.67	  390.59
     62.6700	  898.00	  953.82	-1826.82	  390.73
     62.7700	  801.00	  833.51	-1803.51	  390.88
     62.8700	  612.00	  740.56	-1899.56	  391.02
     62.9700	  649.00	  674.35	-1796.35	  391.17
     63.0700	  611.00	  630.46	-1790.46	  391.31
     63.1700	  606.00	  603.14	-1768.14	  391.46
     63.2700	  599.00	  587.08	-1759.08	  391.60
     63.3700	  570.00	  578.35	-1779.35	  391.75
     63.4700	  589.00	  574.63	-1756.63	  391.90
     63.5700	  609.00	  575.04	-1737.04	  392.04
     63.6700	  573.00	  579.99	-1777.99	  392.19
     63.7700	  627.00	  590.86	-1734.86	  392.34
     63.8700	  682.00	  609.73	-1698.73	  392.48
     63.9700	  625.00	  638.85	-1784.85	  392.63
     64.0700	  711.00	  679.81	-1739.81	  392.77
     64.1700	  762.00	  732.54	-1741.54	  392.92
     64.2700	  885.00	  794.37	-1680.37	  393.07
     64.3700	  911.00	  859.32	-1719.32	  393.22
     64.4700	  990.00	  918.06	-1699.06	  393.36
     64.5700	  993.00	  959.50	-1737.50	  393.51
     64.6700	 1060.00	  974.10	-1685.10	  393.66
     64.7700	 1011.00	  960.52	-1720.52	  393.80
     64.8700	  993.00	  923.12	-1701.12	  393.95
     64.9700	  922.00	  870.87	-1719.87	  394.10
     65.0700	  902.00	  813.68	-1682.68	  394.24
     65.1700	  751.00	  759.57	-1779.57	  394.39
     65.2700	  744.00	  713.09	-1740.09	  394.53
     65.3700	  714.00	  675.48	-1732.48	  394.68
     65.4700	  617.00	  645.80	-1799.80	  394.83
     65.5700	  645.00	  622.56	-1748.56	  394.97
     65.6700	  614.00	  604.48	-1761.48	  395.12
     65.7700	  617.00	  590.65	-1744.65	  395.27
     65.8700	  529.00	  580.41	-1822.41	  395.41
     65.9700	  550.00	  573.23	-1794.23	  395.56
     66.0700	  522.00	  568.67	-1817.67	  395.70
     66.1700	  564.00	  566.32	-1773.32	  395.85
     66.2700	  558.00	  565.80	-1778.80	  395.99
     66.3700	  542.00	  566.80	-1795.80	  396.14
     66.4700	  623.00	  569.14	-1717.14	  396.28
     66.5700	  563.00	  572.84	-1780.84	  396.43
     66.6700	  532.00	  578.36	-1817.36	  396.57
     66.7700	  579.00	  586.34	-1778.34	  396.72
     66.8700	  595.00	  598.55	-1774.55	  396.86
     66.9700	  609.00	  617.89	-1779.89	  397.00
     67.0700	  672.00	  649.00	-1748.00	  397.15
     67.1700	  661.00	  698.52	-1808.52	  397.29
     67.2700	  743.00	  774.95	-1802.95	  397.43
     67.3700	  814.00	  887.52	-1844.52	  397.57
     67.4700	  974.00	 1043.89	-1840.89	  397.72
     67.5700	 1257.00	 1247.07	-1761.07	  397.86
     67.6700	 1528.00	 1491.70	-1734.70	  398.00
     67.7700	 1793.00	 1761.50	-1739.50	  398.14
     67.8700	 2018.00	 2027.73	-1780.73	  398.28
     67.9700	 2347.00	 2250.05	-1674.05	  398.42
     68.0700	 2452.00	 2383.02	-1702.02	  398.56
     68.1700	 2353.00	 2392.69	-1810.69	  398.70
     68.2700	 2321.00	 2276.38	-1726.38	  398.84
     68.3700	 2124.00	 2064.49	-1711.49	  398.98
     68.4700	 1771.00	 1802.16	-1802.16	  399.12
     68.5700	 1545.00	 1531.10	-1757.10	  399.26
     68.6700	 1300.00	 1282.03	-1753.03	  399.39
     68.7700	 1056.00	 1072.78	-1787.78	  399.53
     68.8700	  849.00	  910.12	-1832.12	  399.67
     68.9700	  783.00	  792.17	-1780.17	  399.80
     69.0700	  674.00	  711.59	-1808.59	  399.94
     69.1700	  670.00	  659.25	-1760.25	  400.08
     69.2700	  614.00	  626.46	-1783.46	  400.21
     69.3700	  622.00	  606.26	-1755.26	  400.34
     69.4700	  603.00	  593.73	-1761.73	  400.48
     69.5700	  616.00	  585.72	-1740.72	  400.61
     69.6700	  589.00	  580.40	-1762.40	  400.74
     69.7700	  574.00	  576.75	-1773.75	  400.88
     69.8700	  572.00	  574.22	-1773.22	  401.01
     69.9700	  589.00	  572.56	-1754.56	  401.14
     70.0700	  613.00	  571.62	-1729.62	  401.27
     70.1700	  568.00	  571.37	-1774.37	  401.40
     70.2700	  565.00	  571.84	-1777.84	  401.53
     70.3700	  597.00	  573.08	-1747.08	  401.66
     70.4700	  586.00	  575.34	-1760.34	  401.79
     70.5700	  550.00	  579.08	-1800.08	  401.91
     70.6700	  565.00	  585.13	-1791.13	  402.04
     70.7700	  578.00	  594.95	-1787.95	  402.17
     70.8700	  584.00	  610.91	-1797.91	  402.29
     70.9700	  602.00	  636.51	-1805.51	  402.42
     71.0700	  627.00	  676.49	-1820.49	  402.54
     71.1700	  746.00	  736.60	-1761.60	  402.66
     71.2700	  822.00	  822.70	-1771.70	  402.79
     71.3700	  946.00	  939.32	-1764.32	  402.91
     71.4700	 1041.00	 1088.61	-1818.61	  403.03
     71.5700	 1210.00	 1265.04	-1826.04	  403.15
     71.6700	 1404.00	 1458.83	-1825.83	  403.27
     71.7700	 1646.00	 1651.95	-1776.95	  403.39
     71.8700	 1740.00	 1819.53	-1850.53	  403.51
     71.9700	 1880.00	 1932.97	-1823.97	  403.63
     72.0700	 1936.00	 1968.06	-1803.06	  403.74
     72.1700	 1897.00	 1916.42	-1790.42	  403.86
     72.2700	 1806.00	 1790.21	-1755.21	  403.98
     72.3700	 1636.00	 1616.45	-1751.45	  404.09
     72.4700	 1501.00	 1422.94	-1692.94	  404.20
     72.5700	 1388.00	 1233.05	-1616.05	  404.32
     72.6700	 1226.00	 1062.98	-1607.98	  404.43
     72.7700	 1088.00	  921.59	-1604.59	  404.54
     72.8700	  994.00	  811.31	-1588.31	  404.65
     72.9700	  924.00	  729.97	-1576.97	  404.76
     73.0700	  798.00	  672.71	-1645.71	  404.87
     73.1700	  781.00	  633.85	-1623.85	  404.98
     73.2700	  737.00	  608.11	-1642.11	  405.09
     73.3700	  634.00	  591.20	-1728.20	  405.19
     73.4700	  710.00	  580.03	-1641.03	  405.30
     73.5700	  618.00	  572.57	-1725.57	  405.40
     73.6700	  608.00	  567.55	-1730.55	  405.50
     73.7700	  592.00	  564.24	-1743.24	  405.61
     73.8700	  527.00	  562.25	-1806.25	  405.71
     73.9700	  563.00	  561.32	-1769.32	  405.81
     74.0700	  575.00	  561.26	-1757.26	  405.91
     74.1700	  600.00	  561.90	-1732.90	  406.01
     74.2700	  615.00	  562.99	-1718.99	  406.11
     74.3700	  610.00	  564.25	-1725.25	  406.20
     74.4700	  629.00	  565.32	-1707.32	  406.30
     74.5700	  653.00	  565.85	-1683.85	  406.39
     74.6700	  626.00	  565.55	-1710.55	  406.49
     74.7700	  612.00	  564.32	-1723.32	  406.58
     74.8700	  624.00	  562.33	-1709.33	  406.67
     74.9700	  590.00	  559.93	-1740.93	  406.76
     75.0700	  631.00	  557.52	-1697.52	  406.85
     75.1700	  620.00	  555.47	-1706.47	  406.94
     75.2700	  553.00	  554.26	-1772.26	  407.03
     75.3700	  553.00	  554.21	-1772.21	  407.12
     75.4700	  534.00	  555.90	-1792.90	  407.20
     75.5700	  531.00	  559.76	-1799.76	  407.29
     75.6700	  580.00	  566.21	-1757.21	  407.37
     75.7700	  603.00	  575.95	-1743.95	  407.45
     75.8700	  626.00	  589.18	-1734.18	  407.53
     75.9700	  610.00	  605.91	-1766.91	  407.61
     76.0700	  662.00	  625.64	-1734.64	  407.69
     76.1700	  668.00	  647.26	-1750.26	  407.77
     76.2700	  688.00	  669.02	-1752.02	  407.85
     76.3700	  671.00	  688.54	-1788.54	  407.92
     76.4700	  741.00	  703.07	-1733.07	  408.00
     76.5700	  692.00	  710.03	-1789.03	  408.07
     76.6700	  691.00	  707.99	-1787.99	  408.14
     76.7700	  691.00	  697.35	-1777.35	  408.21
     76.8700	  666.00	  680.13	-1785.13	  408.28
     76.9700	  640.00	  658.91	-1789.91	  408.35
     77.0700	  644.00	  636.66	-1763.66	  408.42
     77.1700	  608.00	  615.33	-1778.33	  408.49
     77.2700	  587.00	  596.36	-1780.36	  408.55
     77.3700	  552.00	  580.55	-1799.55	  408.62
     77.4700	  536.00	  568.13	-1803.13	  408.68
     77.5700	  506.00	  558.88	-1823.88	  408.74
     77.6700	  567.00	  552.30	-1756.30	  408.80
     77.7700	  539.00	  547.82	-1779.82	  408.86
     77.8700	  543.00	  544.86	-1772.86	  408.92
     77.9700	  546.00	  542.97	-1767.97	  408.98
     78.0700	  520.00	  541.77	-1792.77	  409.03
     78.1700	  510.00	  541.01	-1802.01	  409.08
     78.2700	  523.00	  540.54	-1788.54	  409.14
     78.3700	  524.00	  540.24	-1787.24	  409.19
     78.4700	  538.00	  540.07	-1773.07	  409.24
     78.5700	  510.00	  540.00	-1801.00	  409.29
     78.6700	  585.00	  540.03	-1726.03	  409.34
     78.7700	  562.00	  540.16	-1749.16	  409.38
     78.8700	  501.00	  540.40	-1810.40	  409.43
     78.9700	  536.00	  540.80	-1775.80	  409.47
     79.0700	  502.00	  541.38	-1810.38	  409.51
     79.1700	  534.00	  542.20	-1779.20	  409.56
     79.2700	  536.00	  543.15	-1778.15	  409.60
     79.3700	  546.00	  544.64	-1769.64	  409.63
     79.4700	  509.00	  546.57	-1808.57	  409.67
     79.5700	  560.00	  549.02	-1760.02	  409.71
     79.6700	  494.00	  552.09	-1829.09	  409.74
     79.7700	  560.00	  555.90	-1766.90	  409.77
     79.8700	  526.00	  560.59	-1805.59	  409.81
     79.9700	  517.00	  566.35	-1820.35	  409.84
     80.0700	  536.00	  573.40	-1808.40	  409.87
     80.1700	  526.00	  581.99	-1826.99	  409.89
     80.2700	  576.00	  592.42	-1787.42	  409.92
     80.3700	  575.00	  604.89	-1800.89	  409.94
     80.4700	  559.00	  619.47	-1831.47	  409.97
     80.5700	  636.00	  635.94	-1770.94	  409.99
     80.6700	  639.00	  653.73	-1785.73	  410.01
     80.7700	  631.00	  671.91	-1811.91	  410.03
     80.8700	  664.00	  689.21	-1796.21	  410.05
     80.9700	  700.00	  704.23	-1775.23	  410.06
     81.0700	  706.00	  715.75	-1780.75	  410.08
     81.1700	  696.00	  722.92	-1797.92	  410.09
     81.2700	  714.00	  725.30	-1782.30	  410.11
     81.3700	  769.00	  722.88	-1724.88	  410.12
     81.4700	  772.00	  716.02	-1715.02	  410.13
     81.5700	  727.00	  705.41	-1749.41	  410.13
     81.6700	  798.00	  691.91	-1664.91	  410.14
     81.7700	  774.00	  676.41	-1673.41	  410.14
     81.8700	  739.00	  659.83	-1691.83	  410.15
     81.9700	  719.00	  643.03	-1695.03	  410.15
     82.0700	  678.00	  626.97	-1719.97	  410.15
     82.1700	  650.00	  612.20	-1733.20	  410.15
     82.2700	  628.00	  599.10	-1742.10	  410.15
     82.3700	  607.00	  587.80	-1751.80	  410.14
     82.4700	  565.00	  578.34	-1784.34	  410.14
     82.5700	  605.00	  570.64	-1736.64	  410.13
     82.6700	  576.00	  564.69	-1759.69	  410.12
     82.7700	  586.00	  560.37	-1745.37	  410.11
     82.8700	  553.00	  557.56	-1775.56	  410.10
     82.9700	  538.00	  556.20	-1789.20	  410.09
     83.0700	  540.00	  556.19	-1787.19	  410.07
     83.1700	  575.00	  557.47	-1753.47	  410.06
     83.2700	  536.00	  559.91	-1794.91	  410.04
     83.3700	  552.00	  563.37	-1782.37	  410.02
     83.4700	  553.00	  567.63	-1785.63	  410.00
     83.5700	  526.00	  572.38	-1817.38	  409.98
     83.6700	  544.00	  577.20	-1804.20	  409.96
     83.7700	  545.00	  581.63	-1807.63	  409.93
     83.8700	  570.00	  585.11	-1786.11	  409.91
     83.9700	  549.00	  587.13	-1809.13	  409.88
     84.0700	  554.00	  587.33	-1804.33	  409.85
     84.1700	  610.00	  585.64	-1746.64	  409.82
     84.2700	  553.00	  582.28	-1800.28	  409.78
     84.3700	  569.00	  577.71	-1779.71	  409.75
     84.4700	  553.00	  572.42	-1790.42	  409.71
     84.5700	  565.00	  566.91	-1772.91	  409.68
     84.6700	  527.00	  561.56	-1805.56	  409.64
     84.7700	  539.00	  556.66	-1788.66	  409.60
     84.8700	  560.00	  552.40	-1763.40	  409.56
     84.9700	  506.00	  548.86	-1813.86	  409.51
     85.0700	  497.00	  546.06	-1820.06	  409.47
     85.1700	  550.00	  543.95	-1764.95	  409.42
     85.2700	  514.00	  542.45	-1799.45	  409.37
     85.3700	  560.00	  541.46	-1752.46	  409.32
     85.4700	  499.00	  540.91	-1812.91	  409.27
     85.5700	  527.00	  540.71	-1784.71	  409.22
     85.6700	  513.00	  540.81	-1798.81	  409.17
     85.7700	  492.00	  541.21	-1820.21	  409.11
     85.8700	  505.00	  541.91	-1807.91	  409.05
     85.9700	  539.00	  542.95	-1774.95	  408.99
     86.0700	  510.00	  544.42	-1805.42	  408.93
     86.1700	  501.00	  546.42	-1816.42	  408.87
     86.2700	  531.00	  549.08	-1789.08	  408.81
     86.3700	  520.00	  552.57	-1803.57	  408.74
     86.4700	  534.00	  557.02	-1794.02	  408.68
     86.5700	  555.00	  562.56	-1778.56	  408.61
     86.6700	  567.00	  569.25	-1773.25	  408.54
     86.7700	  560.00	  576.70	-1787.70	  408.47
     86.8700	  589.00	  585.36	-1767.36	  408.39
     86.9700	  599.00	  594.52	-1766.52	  408.32
     87.0700	  611.00	  603.68	-1763.68	  408.24
     87.1700	  606.00	  612.17	-1777.17	  408.16
     87.2700	  622.00	  619.20	-1768.20	  408.08
     87.3700	  685.00	  624.01	-1710.01	  408.00
     87.4700	  678.00	  626.00	-1719.00	  407.92
     87.5700	  610.00	  624.89	-1785.89	  407.84
     87.6700	  679.00	  620.89	-1712.89	  407.75
     87.7700	  662.00	  614.59	-1723.59	  407.66
     87.8700	  630.00	  606.84	-1747.84	  407.58
     87.9700	  584.00	  598.51	-1785.51	  407.49
     88.0700	  614.00	  590.41	-1747.41	  407.39
     88.1700	  572.00	  583.26	-1782.26	  407.30
     88.2700	  606.00	  577.59	-1742.59	  407.21
     88.3700	  631.00	  573.78	-1713.78	  407.11
     88.4700	  592.00	  572.01	-1751.01	  407.01
     88.5700	  591.00	  572.31	-1752.31	  406.91
     88.6700	  652.00	  574.53	-1693.53	  406.81
     88.7700	  576.00	  578.39	-1773.39	  406.71
     88.8700	  600.00	  583.46	-1754.46	  406.60
     88.9700	  587.00	  589.24	-1773.24	  406.50
     89.0700	  639.00	  595.14	-1727.14	  406.39
     89.1700	  594.00	  600.50	-1777.50	  406.28
     89.2700	  557.00	  604.67	-1818.67	  406.17
     89.3700	  600.00	  607.07	-1778.07	  406.06
     89.4700	  623.00	  607.31	-1755.31	  405.94
     89.5700	  608.00	  605.31	-1768.31	  405.83
     89.6700	  570.00	  601.30	-1802.30	  405.71
     89.7700	  536.00	  595.73	-1830.73	  405.59
     89.8700	  569.00	  589.16	-1791.16	  405.47
     89.9700	  602.00	  582.12	-1751.12	  405.35
     90.0700	  568.00	  575.09	-1778.09	  405.23
     90.1700	  558.00	  568.44	-1781.44	  405.11
     90.2700	  545.00	  562.45	-1788.45	  404.98
     90.3700	  521.00	  557.27	-1807.27	  404.85
     90.4700	  543.00	  552.98	-1780.98	  404.72
     90.5700	  509.00	  549.57	-1811.57	  404.59
     90.6700	  496.00	  546.99	-1821.99	  404.46
     90.7700	  519.00	  545.13	-1797.13	  404.33
     90.8700	  534.00	  543.89	-1780.89	  404.19
     90.9700	  516.00	  543.17	-1798.17	  404.06
     91.0700	  473.00	  542.89	-1840.89	  403.92
     91.1700	  561.00	  543.01	-1753.01	  403.78
     91.2700	  524.00	  543.53	-1790.53	  403.64
     91.3700	  530.00	  544.45	-1785.45	  403.50
     91.4700	  508.00	  545.87	-1808.87	  403.35
     91.5700	  527.00	  547.88	-1791.88	  403.21
     91.6700	  537.00	  550.63	-1784.63	  403.06
     91.7700	  534.00	  554.30	-1791.30	  402.92
     91.8700	  531.00	  558.86	-1798.86	  402.77
     91.9700	  551.00	  564.94	-1784.94	  402.61
     92.0700	  539.00	  572.49	-1804.49	  402.46
     92.1700	  570.00	  581.63	-1782.63	  402.31
     92.2700	  597.00	  592.42	-1766.42	  402.15
     92.3700	  619.00	  604.80	-1756.80	  402.00
     92.4700	  658.00	  618.62	-1731.62	  401.84
     92.5700	  686.00	  633.59	-1718.59	  401.68
     92.6700	  640.00	  649.29	-1780.29	  401.52
     92.7700	  679.00	  665.21	-1757.21	  401.36
     92.8700	  690.00	  680.73	-1761.73	  401.19
     92.9700	  738.00	  695.20	-1728.20	  401.03
     93.0700	  710.00	  708.11	-1769.11	  400.86
     93.1700	  797.00	  719.17	-1693.17	  400.69
     93.2700	  762.00	  728.49	-1737.49	  400.52
     93.3700	  813.00	  736.49	-1694.49	  400.35
     93.4700	  805.00	  743.80	-1709.80	  400.18
     93.5700	  831.00	  751.11	-1691.11	  400.01
     93.6700	  814.00	  759.03	-1716.03	  399.83
     93.7700	  894.00	  768.07	-1645.07	  399.66
     93.8700	  841.00	  778.67	-1708.67	  399.48
     93.9700	  831.00	  791.19	-1731.19	  399.30
     94.0700	  823.00	  805.88	-1753.88	  399.12
     94.1700	  877.00	  822.78	-1716.78	  398.94
     94.2700	  887.00	  841.56	-1725.56	  398.76
     94.3700	  874.00	  861.48	-1758.48	  398.58
     94.4700	  890.00	  881.35	-1762.35	  398.39
     94.5700	  954.00	  899.59	-1716.59	  398.20
     94.6700	  917.00	  914.35	-1768.35	  398.02
     94.7700	  909.00	  923.69	-1785.69	  397.83
     94.8700	  920.00	  926.01	-1777.01	  397.64
     94.9700	  838.00	  920.42	-1853.42	  397.45
     95.0700	  886.00	  906.99	-1791.99	  397.25
     95.1700	  881.00	  886.79	-1776.79	  397.06
     95.2700	  870.00	  861.53	-1762.53	  396.87
     95.3700	  818.00	  833.25	-1786.25	  396.67
     95.4700	  812.00	  804.05	-1763.05	  396.47
     95.5700	  762.00	  775.89	-1784.89	  396.27
     95.6700	  733.00	  750.61	-1788.61	  396.07
     95.7700	  682.00	  729.83	-1818.83	  395.87
     95.8700	  689.00	  715.01	-1797.01	  395.67
     95.9700	  657.00	  707.43	-1821.43	  395.47
     96.0700	  683.00	  708.20	-1796.20	  395.26
     96.1700	  646.00	  718.25	-1843.25	  395.06
     96.2700	  678.00	  738.34	-1831.34	  394.85
     96.3700	  786.00	  768.93	-1753.93	  394.65
     96.4700	  797.00	  810.17	-1784.17	  394.44
     96.5700	  819.00	  861.81	-1813.81	  394.23
     96.6700	  978.00	  923.02	-1716.02	  394.02
     96.7700	  924.00	  992.36	-1839.36	  393.80
     96.8700	 1094.00	 1067.68	-1744.68	  393.59
     96.9700	 1121.00	 1146.11	-1796.11	  393.38
     97.0700	 1178.00	 1224.11	-1817.11	  393.16
     97.1700	 1276.00	 1297.51	-1792.51	  392.95
     97.2700	 1375.00	 1361.74	-1757.74	  392.73
     97.3700	 1381.00	 1412.21	-1802.21	  392.51
     97.4700	 1370.00	 1444.88	-1845.88	  392.29
     97.5700	 1473.00	 1457.05	-1755.05	  392.07
     97.6700	 1510.00	 1447.94	-1708.94	  391.85
     97.7700	 1411.00	 1418.86	-1778.86	  391.63
     97.8700	 1356.00	 1372.79	-1787.79	  391.41
     97.9700	 1374.00	 1313.85	-1710.85	  391.18
     98.0700	 1259.00	 1246.44	-1758.44	  390.96
     98.1700	 1174.00	 1174.94	-1771.94	  390.73
     98.2700	 1051.00	 1103.39	-1823.39	  390.51
     98.3700	 1067.00	 1035.36	-1739.36	  390.28
     98.4700	  998.00	  973.82	-1746.82	  390.05
     98.5700	  842.00	  921.15	-1850.15	  389.82
     98.6700	  850.00	  879.18	-1800.18	  389.59
     98.7700	  801.00	  849.28	-1819.28	  389.36
     98.8700	  753.00	  832.44	-1850.44	  389.13
     98.9700	  789.00	  829.30	-1811.30	  388.90
     99.0700	  805.00	  840.25	-1806.25	  388.67
     99.1700	  809.00	  865.50	-1827.50	  388.43
     99.2700	  846.00	  905.04	-1830.04	  388.20
     99.3700	  892.00	  958.61	-1837.61	  387.96
     99.4700	 1018.00	 1025.70	-1778.70	  387.73
     99.5700	 1056.00	 1105.37	-1820.37	  387.49
     99.6700	 1157.00	 1196.26	-1810.26	  387.25
     99.7700	 1263.00	 1296.46	-1804.46	  387.01
     99.8700	 1390.00	 1403.37	-1784.37	  386.78
     99.9700	 1535.00	 1513.70	-1749.70	  386.54
    100.0700	 1651.00	 1623.49	-1743.49	  386.30
    100.1700	 1801.00	 1728.36	-1698.36	  386.06
    100.2700	 1833.00	 1823.88	-1761.88	  385.82
    100.3700	 1865.00	 1906.00	-1812.00	  385.57
    100.4700	 2021.00	 1971.54	-1721.54	  385.33
    100.5700	 2132.00	 2018.28	-1657.28	  385.09
    100.6700	 2172.00	 2044.84	-1643.84	  384.85
    100.7700	 2054.00	 2050.42	-1767.42	  384.60
    100.8700	 2082.00	 2034.72	-1723.72	  384.36
    100.9700	 2056.00	 1998.19	-1713.19	  384.11
    101.0700	 1989.00	 1942.41	-1724.41	  383.87
    101.1700	 1935.00	 1870.30	-1706.30	  383.62
    101.2700	 1779.00	 1786.01	-1778.01	  383.38
    101.3700	 1701.00	 1694.43	-1764.43	  383.13
    101.4700	 1623.00	 1600.60	-1748.60	  382.88
    101.5700	 1538.00	 1509.11	-1742.11	  382.63
    101.6700	 1434.00	 1423.76	-1760.76	  382.39
    101.7700	 1394.00	 1347.35	-1724.35	  382.14
    101.8700	 1247.00	 1281.65	-1805.65	  381.89
    101.9700	 1226.00	 1227.33	-1772.33	  381.64
    102.0700	 1162.00	 1184.09	-1793.09	  381.39
    102.1700	 1113.00	 1150.69	-1808.69	  381.14
    102.2700	 1142.00	 1125.16	-1754.16	  380.89
    102.3700	 1125.00	 1105.03	-1751.03	  380.64
    102.4700	 1052.00	 1087.56	-1806.56	  380.40
    102.5700	 1069.00	 1070.08	-1772.08	  380.15
    102.6700	 1068.00	 1050.36	-1753.36	  379.89
    102.7700	  982.00	 1026.88	-1815.88	  379.64
    102.8700	 1042.00	  998.98	-1727.98	  379.39
    102.9700	  930.00	  966.80	-1807.80	  379.14
    103.0700	  973.00	  931.08	-1729.08	  378.89
    103.1700	  958.00	  892.91	-1705.91	  378.64
    103.2700	  847.00	  853.51	-1777.51	  378.39
    103.3700	  844.00	  814.13	-1741.13	  378.14
    103.4700	  802.00	  775.89	-1744.89	  377.89
    103.5700	  746.00	  739.78	-1764.78	  377.64
    103.6700	  761.00	  706.54	-1716.54	  377.39
    103.7700	  668.00	  676.70	-1779.70	  377.14
    103.8700	  660.00	  650.58	-1761.58	  376.89
    103.9700	  598.00	  628.27	-1801.27	  376.64
    104.0700	  566.00	  609.69	-1814.69	  376.39
    104.1700	  592.00	  594.63	-1773.63	  376.13
    104.2700	  579.00	  582.76	-1774.76	  375.88
    104.3700	  579.00	  573.71	-1765.71	  375.63
    104.4700	  548.00	  567.11	-1790.11	  375.38
    104.5700	  574.00	  562.56	-1759.56	  375.14
    104.6700	  566.00	  559.70	-1764.70	  374.89
    104.7700	  537.00	  558.21	-1792.21	  374.64
    104.8700	  552.00	  557.82	-1776.82	  374.39
    104.9700	  576.00	  558.29	-1753.29	  374.14
    105.0700	  537.00	  559.40	-1793.40	  373.89
    105.1700	  536.00	  561.06	-1796.06	  373.64
    105.2700	  568.00	  563.13	-1766.13	  373.40
    105.3700	  538.00	  565.54	-1798.54	  373.15
    105.4700	  526.00	  568.28	-1813.28	  372.90
    105.5700	  570.00	  571.37	-1772.37	  372.66
    105.6700	  557.00	  574.85	-1788.85	  372.41
    105.7700	  612.00	  578.82	-1737.82	  372.17
    105.8700	  540.00	  583.42	-1814.42	  371.92
    105.9700	  590.00	  588.74	-1769.74	  371.68
    106.0700	  580.00	  594.90	-1785.90	  371.43
    106.1700	  609.00	  601.94	-1763.94	  371.19
    106.2700	  628.00	  609.87	-1752.87	  370.95
    106.3700	  597.00	  618.61	-1792.61	  370.71
    106.4700	  588.00	  628.03	-1811.03	  370.47
    106.5700	  600.00	  637.91	-1808.91	  370.23
    106.6700	  636.00	  647.97	-1782.97	  369.99
    106.7700	  657.00	  657.85	-1771.85	  369.75
    106.8700	  629.00	  667.18	-1809.18	  369.51
    106.9700	  663.00	  675.55	-1783.55	  369.27
    107.0700	  665.00	  682.57	-1788.57	  369.04
    107.1700	  669.00	  687.94	-1789.94	  368.80
    107.2700	  696.00	  691.46	-1766.46	  368.57
    107.3700	  658.00	  693.12	-1806.12	  368.33
    107.4700	  704.00	  693.10	-1760.10	  368.10
    107.5700	  678.00	  691.71	-1784.71	  367.87
    107.6700	  684.00	  689.39	-1776.39	  367.64
    107.7700	  664.00	  686.59	-1793.59	  367.41
    107.8700	  649.00	  683.76	-1805.76	  367.18
    107.9700	  651.00	  681.27	-1801.27	  366.95
    108.0700	  645.00	  679.42	-1805.42	  366.73
    108.1700	  690.00	  678.36	-1759.36	  366.50
    108.2700	  696.00	  678.14	-1753.14	  366.28
    108.3700	  679.00	  678.70	-1770.70	  366.05
    108.4700	  684.00	  679.84	-1766.84	  365.83
    108.5700	  680.00	  681.26	-1772.26	  365.61
    108.6700	  699.00	  682.60	-1754.60	  365.39
    108.7700	  726.00	  683.45	-1728.45	  365.17
    108.8700	  718.00	  683.37	-1736.37	  364.96
    108.9700	  679.00	  682.02	-1774.02	  364.74
    109.0700	  735.00	  679.12	-1715.12	  364.53
    109.1700	  663.00	  674.56	-1782.56	  364.32
    109.2700	  673.00	  668.37	-1766.37	  364.10
    109.3700	  585.00	  660.72	-1846.72	  363.90
    109.4700	  723.00	  651.86	-1699.86	  363.69
    109.5700	  597.00	  642.11	-1816.11	  363.48
    109.6700	  618.00	  631.84	-1784.84	  363.28
    109.7700	  643.00	  621.37	-1749.37	  363.07
    109.8700	  599.00	  611.02	-1783.02	  362.87
    109.9700	  627.00	  601.07	-1745.07	  362.67
    110.0700	  564.00	  591.75	-1798.75	  362.47
    110.1700	  582.00	  583.26	-1772.26	  362.28
    110.2700	  541.00	  575.70	-1805.70	  362.08
    110.3700	  569.00	  569.16	-1771.16	  361.89
    110.4700	  517.00	  563.67	-1817.67	  361.70
    110.5700	  526.00	  559.19	-1804.19	  361.51
    110.6700	  564.00	  555.70	-1762.70	  361.32
    110.7700	  521.00	  553.12	-1803.12	  361.14
    110.8700	  566.00	  551.35	-1756.35	  360.95
    110.9700	  545.00	  550.32	-1776.32	  360.77
    111.0700	  524.00	  549.91	-1796.91	  360.59
    111.1700	  605.00	  550.05	-1716.05	  360.42
    111.2700	  567.00	  550.66	-1754.66	  360.24
    111.3700	  556.00	  551.66	-1766.66	  360.07
    111.4700	  545.00	  552.99	-1778.99	  359.90
    111.5700	  574.00	  554.60	-1751.60	  359.73
    111.6700	  539.00	  556.47	-1788.47	  359.56
    111.7700	  552.00	  558.55	-1777.55	  359.40
    111.8700	  550.00	  560.84	-1781.84	  359.24
    111.9700	  566.00	  563.34	-1768.34	  359.08
    112.0700	  554.00	  566.03	-1783.03	  358.92
    112.1700	  569.00	  568.94	-1770.94	  358.77
    112.2700	  572.00	  572.09	-1771.09	  358.61
    112.3700	  552.00	  575.50	-1794.50	  358.46
    112.4700	  595.00	  579.22	-1755.22	  358.32
    112.5700	  640.00	  583.31	-1714.31	  358.17
    112.6700	  603.00	  587.83	-1755.83	  358.03
    112.7700	  621.00	  592.86	-1742.86	  357.89
    112.8700	  655.00	  598.54	-1714.54	  357.76
    112.9700	  712.00	  604.98	-1663.98	  357.62
    113.0700	  679.00	  612.41	-1704.41	  357.49
    113.1700	  753.00	  621.07	-1639.07	  357.36
    113.2700	  708.00	  631.28	-1694.28	  357.24
    113.3700	  765.00	  643.44	-1649.44	  357.11
    113.4700	  819.00	  658.07	-1610.07	  356.99
    113.5700	  821.00	  675.82	-1625.82	  356.88
    113.6700	  891.00	  697.49	-1577.49	  356.76
    113.7700	  931.00	  724.04	-1564.04	  356.65
    113.8700	  950.00	  756.64	-1577.64	  356.54
    113.9700	 1029.00	  796.65	-1538.65	  356.44
    114.0700	 1063.00	  845.66	-1553.66	  356.34
    114.1700	 1124.00	  905.48	-1552.48	  356.24
    114.2700	 1202.00	  978.08	-1547.08	  356.14
    114.3700	 1298.00	 1065.66	-1538.66	  356.05
    114.4700	 1364.00	 1170.47	-1577.47	  355.96
    114.5700	 1506.00	 1294.87	-1559.87	  355.88
    114.6700	 1556.00	 1441.14	-1656.14	  355.80
    114.7700	 1840.00	 1611.36	-1542.36	  355.72
    114.8700	 1915.00	 1807.40	-1663.40	  355.64
    114.9700	 2124.00	 2030.59	-1677.59	  355.57
    115.0700	 2390.00	 2281.77	-1662.77	  355.50
    115.1700	 2593.00	 2560.91	-1738.91	  355.44
    115.2700	 2848.00	 2867.09	-1790.09	  355.38
    115.3700	 3152.00	 3198.50	-1817.50	  355.32
    115.4700	 3448.00	 3551.98	-1874.98	  355.27
    115.5700	 3607.00	 3923.41	-2087.41	  355.22
    115.6700	 4058.00	 4307.29	-2020.29	  355.17
    115.7700	 4399.00	 4696.86	-2068.86	  355.13
    115.8700	 4704.00	 5084.41	-2151.41	  355.09
    115.9700	 5275.00	 5460.86	-1956.86	  355.06
    116.0700	 5492.00	 5816.49	-2095.49	  355.03
    116.1700	 5978.00	 6140.70	-1933.70	  355.00
    116.2700	 6240.00	 6422.67	-1953.67	  354.98
    116.3700	 6652.00	 6652.04	-1771.04	  354.96
    116.4700	 6775.00	 6819.42	-1815.42	  354.95
    116.5700	 7002.00	 6917.57	-1686.57	  354.94
    116.6700	 7084.00	 6942.05	-1629.05	  354.93
    116.7700	 7083.00	 6891.88	-1579.88	  354.93
    116.8700	 6840.00	 6769.70	-1700.70	  354.93
    116.9700	 6640.00	 6581.38	-1712.38	  354.94
    117.0700	 6452.00	 6335.21	-1654.21	  354.95
    117.1700	 6258.00	 6041.14	-1554.14	  354.97
    117.2700	 5718.00	 5709.83	-1762.83	  354.99
    117.3700	 5357.00	 5351.86	-1765.86	  355.01
    117.4700	 4874.00	 4977.47	-1874.47	  355.04
    117.5700	 4673.00	 4595.90	-1693.90	  355.08
    117.6700	 4324.00	 4215.51	-1662.51	  355.12
    117.7700	 4040.00	 3843.52	-1574.52	  355.16
    117.8700	 3701.00	 3485.78	-1555.78	  355.21
    117.9700	 3333.00	 3147.11	-1585.11	  355.26
    118.0700	 2876.00	 2830.92	-1725.92	  355.32
    118.1700	 2546.00	 2539.64	-1764.64	  355.38
    118.2700	 2226.00	 2274.67	-1819.67	  355.45
    118.3700	 1961.00	 2036.34	-1846.34	  355.52
    118.4700	 1738.00	 1824.40	-1857.40	  355.60
    118.5700	 1496.00	 1637.79	-1912.79	  355.69
    118.6700	 1447.00	 1475.09	-1799.09	  355.77
    118.7700	 1246.00	 1334.53	-1859.53	  355.87
    118.8700	 1058.00	 1214.03	-1927.03	  355.97
    118.9700	  983.00	 1111.52	-1899.52	  356.07
    119.0700	  914.00	 1024.82	-1881.82	  356.18
    119.1700	  847.00	  951.91	-1875.91	  356.30
    119.2700	  874.00	  890.86	-1787.86	  356.42
    119.3700	  829.00	  839.89	-1781.89	  356.54
    119.4700	  722.00	  797.43	-1846.43	  356.68
    119.5700	  714.00	  762.10	-1819.10	  356.81
    119.6700	  651.00	  732.71	-1852.71	  356.96
    119.7700	  626.00	  708.26	-1853.26	  357.10
    119.8700	  655.00	  687.88	-1803.88	  357.26
    119.9700	  599.00	  670.89	-1842.89	  357.42
    120.0700	  592.00	  656.69	-1835.69	  357.58
    120.1700	  611.00	  644.84	-1804.84	  357.76
    120.2700	  590.00	  634.94	-1815.94	  357.93
    120.3700	  588.00	  626.69	-1809.69	  358.12
    120.4700	  543.00	  619.85	-1847.85	  358.31
    120.5700	  587.00	  614.24	-1798.24	  358.51
    120.6700	  604.00	  609.69	-1776.69	  358.71
    120.7700	  532.00	  606.10	-1845.10	  358.92
    120.8700	  586.00	  603.36	-1788.36	  359.13
    120.9700	  566.00	  601.42	-1806.42	  359.35
    121.0700	  594.00	  600.20	-1777.20	  359.58
    121.1700	  566.00	  599.66	-1804.66	  359.81
    121.2700	  551.00	  599.76	-1819.76	  360.06
    121.3700	  570.00	  600.45	-1801.45	  360.30
    121.4700	  644.00	  601.69	-1728.69	  360.56
    121.5700	  581.00	  603.42	-1793.42	  360.82
    121.6700	  613.00	  605.61	-1763.61	  361.08
    121.7700	  601.00	  608.16	-1778.16	  361.36
    121.8700	  598.00	  611.04	-1784.04	  361.64
    121.9700	  621.00	  614.15	-1764.15	  361.93
    122.0700	  608.00	  617.41	-1780.41	  362.22
    122.1700	  651.00	  620.72	-1740.72	  362.52
    122.2700	  596.00	  623.98	-1798.98	  362.83
    122.3700	  616.00	  627.07	-1782.07	  363.15
    122.4700	  620.00	  629.91	-1780.91	  363.47
    122.5700	  665.00	  632.37	-1738.37	  363.80
    122.6700	  636.00	  634.38	-1769.38	  364.14
    122.7700	  645.00	  635.83	-1761.83	  364.49
    122.8700	  651.00	  636.69	-1756.69	  364.84
    122.9700	  645.00	  636.92	-1762.92	  365.20
    123.0700	  622.00	  636.51	-1785.51	  365.57
    123.1700	  683.00	  635.48	-1723.48	  365.94
    123.2700	  627.00	  633.87	-1777.87	  366.32
    123.3700	  687.00	  631.74	-1715.74	  366.71
    123.4700	  665.00	  629.16	-1735.16	  367.11
    123.5700	  617.00	  626.20	-1780.20	  367.52
    123.6700	  616.00	  622.93	-1777.93	  367.93
    123.7700	  648.00	  619.44	-1742.44	  368.36
    123.8700	  624.00	  615.80	-1762.80	  368.79
    123.9700	  679.00	  612.07	-1704.07	  369.22
    124.0700	  634.00	  608.33	-1745.33	  369.67
    124.1700	  665.00	  604.63	-1710.63	  370.12
    124.2700	  625.00	  601.02	-1747.02	  370.59
    124.3700	  613.00	  597.55	-1755.55	  371.06
    124.4700	  595.00	  594.25	-1770.25	  371.54
    124.5700	  600.00	  591.14	-1762.14	  372.03
    124.6700	  621.00	  588.26	-1738.26	  372.52
    124.7700	  577.00	  585.62	-1779.62	  373.03
    124.8700	  543.00	  583.22	-1811.22	  373.54
    124.9700	  574.00	  492.37	-1689.37	  374.06
    125.0700	  588.00	  492.90	-1771.00	  374.59
    125.1700	  587.00	  493.44	-1771.00	  375.13
    125.2700	  562.00	  493.99	-1771.00	  375.68
    125.3700	  587.00	  494.55	-1771.00	  376.24
    125.4700	  520.00	  495.12	-1771.00	  376.81
    125.5700	  540.00	  495.69	-1771.00	  377.38
    125.6700	  543.00	  496.28	-1771.00	  377.97
    125.7700	  566.00	  496.87	-1771.00	  378.56
    125.8700	  561.00	  497.47	-1771.00	  379.16
    125.9700	  521.00	  498.09	-1771.00	  379.78
    126.0700	  639.00	  498.71	-1771.00	  380.40
    126.1700	  546.00	  499.34	-1771.00	  381.03
    126.2700	  563.00	  499.98	-1771.00	  381.67
    126.3700	  609.00	  500.63	-1771.00	  382.32
    126.4700	  571.00	  501.29	-1771.00	  382.98
    126.5700	  546.00	  501.96	-1771.00	  383.65
    126.6700	  624.00	  502.64	-1771.00	  384.33
    126.7700	  628.00	  503.33	-1771.00	  385.02
    126.8700	  566.00	  504.03	-1771.00	  385.72
    126.9700	  642.00	  504.74	-1771.00	  386.43
    127.0700	  638.00	  505.46	-1771.00	  387.15
    127.1700	  646.00	  506.19	-1771.00	  387.88
    127.2700	  633.00	  506.93	-1771.00	  388.62
    127.3700	  616.00	  507.69	-1771.00	  389.38
    127.4700	  660.00	  508.45	-1771.00	  390.14
    127.5700	  663.00	  509.22	-1771.00	  390.91
    127.6700	  679.00	  510.00	-1771.00	  391.69
    127.7700	  692.00	  510.79	-1771.00	  392.48
    127.8700	  703.00	  511.60	-1771.00	  393.29
    127.9700	  736.00	  512.41	-1771.00	  394.10
    128.0700	  723.00	  513.23	-1771.00	  394.92
    128.1700	  757.00	  514.07	-1771.00	  395.76
    128.2700	  735.00	  514.92	-1771.00	  396.61
    128.3700	  768.00	  515.77	-1771.00	  397.46
    128.4700	  811.00	  516.64	-1771.00	  398.33
    128.5700	    0.00	  517.52	-1771.00	  399.21
    128.6700	    0.00	  518.41	-1771.00	  400.10
     12.3043	        	        	        	        	       0	(  0  0  2)	  0  1
     24.8891	        	        	        	        	       0	(  0  0  4)	  0  1
     28.3274	        	        	        	        	       0	(  1  0  0)	  0  1
     29.0248	        	        	        	        	       0	(  1  0  1)	  0  1
     31.0315	        	        	        	        	       0	(  1  0  2)	  0  1
     34.1406	        	        	        	        	       0	(  1  0  3)	  0  1
     37.7900	        	        	        	        	       0	(  0  0  6)	  0  1
     38.1185	        	        	        	        	       0	(  1  0  4)	  0  1
     42.7695	        	        	        	        	       0	(  1  0  5)	  0  1
     47.9544	        	        	        	        	       0	(  1  0  6)	  0  1
     50.2642	        	        	        	        	       0	(  1  1  0)	  0  1
     51.2133	        	        	        	        	       0	(  0  0  8)	  0  1
     51.9876	        	        	        	        	       0	(  1  1  2)	  0  1
     53.5858	        	        	        	        	       0	(  1  0  7)	  0  1
     56.9367	        	        	        	        	       0	(  1  1  4)	  0  1
     58.7611	        	        	        	        	       0	(  2  0  0)	  0  1
     59.1527	        	        	        	        	       0	(  2  0  1)	  0  1
     59.6172	        	        	        	        	       0	(  1  0  8)	  0  1
     60.3184	        	        	        	        	       0	(  2  0  2)	  0  1
     62.2321	        	        	        	        	       0	(  2  0  3)	  0  1
     64.6330	        	        	        	        	       0	(  1  1  6)	  0  1
     64.8568	        	        	        	        	       0	(  2  0  4)	  0  1
     65.4443	        	        	        	        	       0	(  0  0 10)	  0  1
     66.0345	        	        	        	        	       0	(  1  0  9)	  0  1
     68.1518	        	        	        	        	       0	(  2  0  5)	  0  1
     72.0801	        	        	        	        	       0	(  2  0  6)	  0  1
     72.8517	        	        	        	        	       0	(  1  0 10)	  0  1
     74.6727	        	        	        	        	       0	(  1  1  8)	  0  1
     76.6152	        	        	        	        	       0	(  2  0  7)	  0  1
     80.1106	        	        	        	        	       0	(  1  0 11)	  0  1
     80.9269	        	        	        	        	       0	(  0  0 12)	  0  1
     81.0021	        	        	        	        	       0	(  2  1  0)	  0  1
     81.3420	        	        	        	        	       0	(  2  1  1)	  0  1
     81.7465	        	        	        	        	       0	(  2  0  8)	  0  1
     82.3601	        	        	        	        	       0	(  2  1  2)	  0  1
     84.0518	        	        	        	        	       0	(  2  1  3)	  0  1
     86.4120	        	        	        	        	       0	(  2  1  4)	  0  1
     86.9464	        	        	        	        	       0	(  1  1 10)	  0  1
     87.4857	        	        	        	        	       0	(  2  0  9)	  0  1
     87.8862	        	        	        	        	       0	(  1  0 12)	  0  1
     89.4384	        	        	        	        	       0	(  2  1  5)	  0  1
     93.1367	        	        	        	        	       0	(  2  1  6)	  0  1
     93.8744	        	        	        	        	       0	(  2  0 10)	  0  1
     94.8907	        	        	        	        	       0	(  3  0  0)	  0  1
     95.2282	        	        	        	        	       0	(  3  0  1)	  0  1
     96.2416	        	        	        	        	       0	(  3  0  2)	  0  1
     96.3012	        	        	        	        	       0	(  1  0 13)	  0  1
     97.5262	        	        	        	        	       0	(  2  1  7)	  0  1
     97.9353	        	        	        	        	       0	(  3  0  3)	  0  1
     98.4696	        	        	        	        	       0	(  0  0 14)	  0  1
    100.3188	        	        	        	        	       0	(  3  0  4)	  0  1
    100.9979	        	        	        	        	       0	(  2  0 11)	  0  1
    101.8200	        	        	        	        	       0	(  1  1 12)	  0  1
    102.6498	        	        	        	        	       0	(  2  1  8)	  0  1
    103.4111	        	        	        	        	       0	(  3  0  5)	  0  1
    105.5560	        	        	        	        	       0	(  1  0 14)	  0  1
    107.2470	        	        	        	        	       0	(  3  0  6)	  0  1
    108.5880	        	        	        	        	       0	(  2  1  9)	  0  1
    109.0111	        	        	        	        	       0	(  2  0 12)	  0  1
    111.8884	        	        	        	        	       0	(  3  0  7)	  0  1
    115.4866	        	        	        	        	       0	(  2  1 10)	  0  1
    116.0028	        	        	        	        	       0	(  1  0 15)	  0  1
    116.6156	        	        	        	        	       0	(  2  2  0)	  0  1
    117.4431	        	        	        	        	       0	(  3  0  8)	  0  1
    118.1311	        	        	        	        	       0	(  2  2  2)	  0  1
    118.1983	        	        	        	        	       0	(  2  0 13)	  0  1
    119.9648	        	        	        	        	       0	(  0  0 16)	  0  1
    120.6699	        	        	        	        	       0	(  1  1 14)	  0  1
    122.8176	        	        	        	        	       0	(  2  2  4)	  0  1
    123.6161	        	        	        	        	       0	(  2  1 11)	  0  1
    124.1049	        	        	        	        	       0	(  3  0  9)	  0  1
    124.6808	        	        	        	        	       0	(  3  1  0)	  0  1
    125.0911	        	        	        	        	       0	(  3  1  1)	  0  1
    126.3348	        	        	        	        	       0	(  3  1  2)	  0  1
    128.3522	        	        	        	        	       0	(  1  0 16)	  0  1
    128.4535	        	        	        	        	       0	(  3  1  3)	  0  1
    129.1330	        	        	        	        	       0	(  2  0 14)	  0  1
    131.2594	        	        	        	        	       0	(  2  2  6)	  0  1
    131.5301	        	        	        	        	       0	(  3  1  4)	  0  1
    132.2484	        	        	        	        	       0	(  3  0 10)	  0  1
    133.5327	        	        	        	        	       0	(  2  1 12)	  0  1
    135.7182	        	        	        	        	       0	(  3  1  5)	  0  1
    141.3152	        	        	        	        	       0	(  3  1  6)	  0  1
    142.7328	        	        	        	        	       0	(  3  0 11)	  0  1
    143.2846	        	        	        	        	       0	(  2  0 15)	  0  1
    144.5386	        	        	        	        	       0	(  1  0 17)	  0  1
    145.4988	        	        	        	        	       0	(  2  2  8)	  0  1
    146.6989	        	        	        	        	       0	(  2  1 13)	  0  1
    148.9918	        	        	        	        	       0	(  3  1  7)	  0  1
    149.6331	        	        	        	        	       0	(  1  1 16)	  0  1
    154.0625	        	        	        	        	       0	(  0  0 18)	  0  1
    158.6333	        	        	        	        	       0	(  3  0 12)	  0  1
    158.8392	        	        	        	        	       0	(  4  0  0)	  0  1
    159.7965	        	        	        	        	       0	(  4  0  1)	  0  1
    160.9972	        	        	        	        	       0	(  3  1  8)	  0  1
    162.9770	        	        	        	        	       0	(  4  0  2)	  0  1
    169.8652	        	        	        	        	       0	(  2  0 16)	  0  1
    170.3322	        	        	        	        	       0	(  4  0  3)	  0  1
    174.3749	        	        	        	        	       0	(  2  1 14)	  0  1
