MSG Master    CELL:    5.91926   5.91926  23.27730   90.0000   90.0000  120.0000   SPGR: P 63/m m c             TEMP:   1074.85
  1   1280     2.52000     0.00000    -0.12286     0.00000     0.00000    0
    99     0     2
       0.00000      10.00000
     125.00000     130.00000
 2Theta	Yobs	Ycal	Yobs-Ycal	Backg	Posr	(hkl)	K
      0.7700	    0.00	  556.59	-1774.00	  437.37
      0.8700	    0.00	  557.18	-1774.00	  437.96
      0.9700	   44.00	  557.75	-1774.00	  438.53
      1.0700	   55.00	  558.32	-1774.00	  439.10
      1.1700	   42.00	  558.87	-1774.00	  439.66
      1.2700	   56.00	  559.42	-1774.00	  440.20
      1.3700	   46.00	  559.96	-1774.00	  440.74
      1.4700	   79.00	  560.48	-1774.00	  441.26
      1.5700	  283.00	  561.00	-1774.00	  441.78
      1.6700	  460.00	  561.51	-1774.00	  442.29
      1.7700	  574.00	  562.01	-1774.00	  442.79
      1.8700	  712.00	  562.50	-1774.00	  443.28
      1.9700	  722.00	  562.98	-1774.00	  443.76
      2.0700	  794.00	  563.45	-1774.00	  444.23
      2.1700	  834.00	  563.91	-1774.00	  444.69
      2.2700	  799.00	  564.36	-1774.00	  445.14
      2.3700	  716.00	  564.80	-1774.00	  445.58
      2.4700	  729.00	  565.24	-1774.00	  446.02
      2.5700	  736.00	  565.66	-1774.00	  446.44
      2.6700	  684.00	  566.08	-1774.00	  446.86
      2.7700	  640.00	  566.48	-1774.00	  447.27
      2.8700	  652.00	  566.88	-1774.00	  447.66
      2.9700	  615.00	  567.27	-1774.00	  448.05
      3.0700	  637.00	  567.65	-1774.00	  448.44
      3.1700	  583.00	  568.03	-1774.00	  448.81
      3.2700	  645.00	  568.39	-1774.00	  449.17
      3.3700	  676.00	  568.75	-1774.00	  449.53
      3.4700	  716.00	  569.10	-1774.00	  449.88
      3.5700	  835.00	  569.44	-1774.00	  450.22
      3.6700	  808.00	  569.77	-1774.00	  450.55
      3.7700	  883.00	  570.09	-1774.00	  450.87
      3.8700	  966.00	  570.40	-1774.00	  451.19
      3.9700	  985.00	  570.71	-1774.00	  451.49
      4.0700	 1056.00	  571.01	-1774.00	  451.79
      4.1700	 1070.00	  571.30	-1774.00	  452.08
      4.2700	 1136.00	  571.59	-1774.00	  452.37
      4.3700	 1102.00	  571.86	-1774.00	  452.64
      4.4700	 1130.00	  572.13	-1774.00	  452.91
      4.5700	 1048.00	  572.39	-1774.00	  453.17
      4.6700	 1015.00	  572.64	-1774.00	  453.42
      4.7700	  976.00	  572.89	-1774.00	  453.67
      4.8700	  979.00	  573.13	-1774.00	  453.91
      4.9700	 1031.00	  573.36	-1774.00	  454.14
      5.0700	  886.00	  573.58	-1774.00	  454.36
      5.1700	  910.00	  573.79	-1774.00	  454.57
      5.2700	  900.00	  574.00	-1774.00	  454.78
      5.3700	  879.00	  574.20	-1774.00	  454.98
      5.4700	  886.00	  574.40	-1774.00	  455.18
      5.5700	  875.00	  574.59	-1774.00	  455.37
      5.6700	  898.00	  574.77	-1774.00	  455.55
      5.7700	  865.00	  574.94	-1774.00	  455.72
      5.8700	  798.00	  575.11	-1774.00	  455.89
      5.9700	  791.00	  575.27	-1774.00	  456.05
      6.0700	  861.00	  575.42	-1774.00	  456.20
      6.1700	  799.00	  575.57	-1774.00	  456.35
      6.2700	  798.00	  575.70	-1774.00	  456.49
      6.3700	  783.00	  575.84	-1774.00	  456.62
      6.4700	  792.00	  575.96	-1774.00	  456.74
      6.5700	  728.00	  576.08	-1774.00	  456.86
      6.6700	  767.00	  576.20	-1774.00	  456.98
      6.7700	  752.00	  576.31	-1774.00	  457.09
      6.8700	  698.00	  576.41	-1774.00	  457.19
      6.9700	  715.00	  576.50	-1774.00	  457.28
      7.0700	  700.00	  576.59	-1774.00	  457.37
      7.1700	  670.00	  576.67	-1774.00	  457.45
      7.2700	  708.00	  576.75	-1774.00	  457.53
      7.3700	  738.00	  576.82	-1774.00	  457.60
      7.4700	  661.00	  576.88	-1774.00	  457.67
      7.5700	  659.00	  576.94	-1774.00	  457.72
      7.6700	  648.00	  577.00	-1774.00	  457.78
      7.7700	  643.00	  577.04	-1774.00	  457.82
      7.8700	  633.00	  577.08	-1774.00	  457.86
      7.9700	  634.00	  577.12	-1774.00	  457.90
      8.0700	  615.00	  577.15	-1774.00	  457.93
      8.1700	  653.00	  577.17	-1774.00	  457.95
      8.2700	  607.00	  577.19	-1774.00	  457.97
      8.3700	  648.00	  577.21	-1774.00	  457.99
      8.4700	  621.00	  577.21	-1774.00	  458.00
      8.5700	  593.00	  577.22	-1774.00	  458.00
      8.6700	  663.00	  577.21	-1774.00	  458.00
      8.7700	  636.00	  577.21	-1774.00	  457.99
      8.8700	  643.00	  577.19	-1774.00	  457.97
      8.9700	  596.00	  577.18	-1774.00	  457.96
      9.0700	  615.00	  577.15	-1774.00	  457.93
      9.1700	  650.00	  577.12	-1774.00	  457.90
      9.2700	  590.00	  577.09	-1774.00	  457.87
      9.3700	  634.00	  577.05	-1774.00	  457.83
      9.4700	  608.00	  577.01	-1774.00	  457.79
      9.5700	  616.00	  576.96	-1774.00	  457.74
      9.6700	  556.00	  576.91	-1774.00	  457.69
      9.7700	  651.00	  576.85	-1774.00	  457.63
      9.8700	  618.00	  576.79	-1774.00	  457.57
      9.9700	  583.00	  576.72	-1774.00	  457.50
     10.0700	  601.00	  577.46	-1750.46	  457.43
     10.1700	  572.00	  577.47	-1779.47	  457.35
     10.2700	  609.00	  577.49	-1742.49	  457.27
     10.3700	  581.00	  577.55	-1770.55	  457.19
     10.4700	  648.00	  577.66	-1703.66	  457.10
     10.5700	  561.00	  577.88	-1790.88	  457.00
     10.6700	  637.00	  578.32	-1715.32	  456.90
     10.7700	  557.00	  579.07	-1796.07	  456.80
     10.8700	  600.00	  580.23	-1754.23	  456.69
     10.9700	  603.00	  581.77	-1752.77	  456.58
     11.0700	  623.00	  583.67	-1734.67	  456.47
     11.1700	  580.00	  585.91	-1779.91	  456.35
     11.2700	  629.00	  588.54	-1733.54	  456.22
     11.3700	  579.00	  591.63	-1786.63	  456.10
     11.4700	  582.00	  595.32	-1787.32	  455.97
     11.5700	  626.00	  599.81	-1747.81	  455.83
     11.6700	  624.00	  605.46	-1755.46	  455.69
     11.7700	  624.00	  612.89	-1762.89	  455.55
     11.8700	  658.00	  623.04	-1739.04	  455.40
     11.9700	  631.00	  636.57	-1779.57	  455.25
     12.0700	  690.00	  651.90	-1735.90	  455.10
     12.1700	  696.00	  662.79	-1740.79	  454.94
     12.2700	  693.00	  659.36	-1740.36	  454.78
     12.3700	  653.00	  638.53	-1759.53	  454.61
     12.4700	  631.00	  613.00	-1756.00	  454.44
     12.5700	  599.00	  594.27	-1769.27	  454.27
     12.6700	  548.00	  584.06	-1810.06	  454.10
     12.7700	  537.00	  579.39	-1816.39	  453.92
     12.8700	  580.00	  577.25	-1771.25	  453.74
     12.9700	  554.00	  576.05	-1796.05	  453.55
     13.0700	  628.00	  575.22	-1721.22	  453.36
     13.1700	  578.00	  574.57	-1770.57	  453.17
     13.2700	  530.00	  574.03	-1818.03	  452.98
     13.3700	  590.00	  573.57	-1757.57	  452.78
     13.4700	  584.00	  573.17	-1763.17	  452.58
     13.5700	  578.00	  572.80	-1768.80	  452.37
     13.6700	  505.00	  572.46	-1841.46	  452.17
     13.7700	  572.00	  572.14	-1774.14	  451.95
     13.8700	  557.00	  571.84	-1788.84	  451.74
     13.9700	  523.00	  571.54	-1822.54	  451.53
     14.0700	  603.00	  571.26	-1742.26	  451.31
     14.1700	  539.00	  570.98	-1805.98	  451.09
     14.2700	  520.00	  570.71	-1824.71	  450.86
     14.3700	  554.00	  570.44	-1790.44	  450.63
     14.4700	  535.00	  570.17	-1809.17	  450.40
     14.5700	  580.00	  569.91	-1763.91	  450.17
     14.6700	  530.00	  569.65	-1813.65	  449.94
     14.7700	  584.00	  569.38	-1759.38	  449.70
     14.8700	  546.00	  569.12	-1797.12	  449.46
     14.9700	  559.00	  568.86	-1783.86	  449.22
     15.0700	  558.00	  568.59	-1784.59	  448.97
     15.1700	  558.00	  568.33	-1784.33	  448.72
     15.2700	  556.00	  568.07	-1786.07	  448.47
     15.3700	  556.00	  567.80	-1785.80	  448.22
     15.4700	  534.00	  567.53	-1807.53	  447.97
     15.5700	  561.00	  567.27	-1780.27	  447.71
     15.6700	  553.00	  567.00	-1788.00	  447.45
     15.7700	  559.00	  566.73	-1781.73	  447.19
     15.8700	  528.00	  566.45	-1812.45	  446.93
     15.9700	  578.00	  566.18	-1762.18	  446.66
     16.0700	  543.00	  565.90	-1796.90	  446.39
     16.1700	  620.00	  565.65	-1719.65	  446.12
     16.2700	  530.00	  565.38	-1809.38	  445.85
     16.3700	  578.00	  565.10	-1761.10	  445.58
     16.4700	  550.00	  564.82	-1788.82	  445.30
     16.5700	  547.00	  564.53	-1791.53	  445.03
     16.6700	  525.00	  564.25	-1813.25	  444.75
     16.7700	  514.00	  563.97	-1823.97	  444.47
     16.8700	  561.00	  563.68	-1776.68	  444.18
     16.9700	  549.00	  563.39	-1788.39	  443.90
     17.0700	  586.00	  563.10	-1751.10	  443.61
     17.1700	  537.00	  562.81	-1799.81	  443.32
     17.2700	  582.00	  562.52	-1754.52	  443.03
     17.3700	  543.00	  562.23	-1793.23	  442.74
     17.4700	  554.00	  561.93	-1781.93	  442.45
     17.5700	  507.00	  561.63	-1828.63	  442.15
     17.6700	  577.00	  561.34	-1758.34	  441.86
     17.7700	  563.00	  561.04	-1772.04	  441.56
     17.8700	  595.00	  560.74	-1739.74	  441.26
     17.9700	  550.00	  560.44	-1784.44	  440.96
     18.0700	  559.00	  560.24	-1775.24	  440.66
     18.1700	  566.00	  559.94	-1767.94	  440.36
     18.2700	  577.00	  559.63	-1756.63	  440.05
     18.3700	  569.00	  559.33	-1764.33	  439.75
     18.4700	  574.00	  559.02	-1759.02	  439.44
     18.5700	  541.00	  558.72	-1791.72	  439.13
     18.6700	  585.00	  558.41	-1747.41	  438.82
     18.7700	  515.00	  558.10	-1817.10	  438.51
     18.8700	  579.00	  557.79	-1752.79	  438.20
     18.9700	  546.00	  557.56	-1785.56	  437.88
     19.0700	  537.00	  557.25	-1794.25	  437.57
     19.1700	  543.00	  556.94	-1787.94	  437.25
     19.2700	  570.00	  556.63	-1760.63	  436.94
     19.3700	  549.00	  556.32	-1781.32	  436.62
     19.4700	  523.00	  556.01	-1807.01	  436.30
     19.5700	  590.00	  555.70	-1739.70	  435.98
     19.6700	  580.00	  555.38	-1749.38	  435.66
     19.7700	  590.00	  555.07	-1739.07	  435.34
     19.8700	  524.00	  554.76	-1804.76	  435.02
     19.9700	  503.00	  554.44	-1825.44	  434.70
     20.0700	  561.00	  554.13	-1767.13	  434.37
     20.1700	  537.00	  553.81	-1790.81	  434.05
     20.2700	  572.00	  553.50	-1755.50	  433.72
     20.3700	  536.00	  553.18	-1791.18	  433.40
     20.4700	  569.00	  552.87	-1757.87	  433.07
     20.5700	  560.00	  552.52	-1766.52	  432.75
     20.6700	  577.00	  552.20	-1749.20	  432.42
     20.7700	  528.00	  551.89	-1797.89	  432.09
     20.8700	  539.00	  551.57	-1786.57	  431.76
     20.9700	  543.00	  551.29	-1782.29	  431.43
     21.0700	  557.00	  550.98	-1767.98	  431.10
     21.1700	  553.00	  550.67	-1771.67	  430.77
     21.2700	  496.00	  550.35	-1828.35	  430.44
     21.3700	  540.00	  550.04	-1784.04	  430.11
     21.4700	  536.00	  549.73	-1787.73	  429.78
     21.5700	  564.00	  549.42	-1759.42	  429.44
     21.6700	  577.00	  549.11	-1746.11	  429.11
     21.7700	  534.00	  548.81	-1788.81	  428.78
     21.8700	  509.00	  548.50	-1813.50	  428.45
     21.9700	  558.00	  548.20	-1764.20	  428.11
     22.0700	  535.00	  547.90	-1786.90	  427.78
     22.1700	  571.00	  547.60	-1750.60	  427.44
     22.2700	  544.00	  547.30	-1777.30	  427.11
     22.3700	  529.00	  547.01	-1792.01	  426.78
     22.4700	  547.00	  546.72	-1773.72	  426.44
     22.5700	  559.00	  546.43	-1761.43	  426.11
     22.6700	  529.00	  546.16	-1791.16	  425.77
     22.7700	  553.00	  545.88	-1766.88	  425.44
     22.8700	  513.00	  545.62	-1806.62	  425.10
     22.9700	  584.00	  545.37	-1735.37	  424.77
     23.0700	  537.00	  545.12	-1782.12	  424.43
     23.1700	  520.00	  544.90	-1798.90	  424.10
     23.2700	  536.00	  544.69	-1782.69	  423.76
     23.3700	  554.00	  544.50	-1764.50	  423.42
     23.4700	  548.00	  544.35	-1770.35	  423.09
     23.5700	  555.00	  544.24	-1763.24	  422.76
     23.6700	  562.00	  544.19	-1756.19	  422.42
     23.7700	  575.00	  544.38	-1743.38	  422.09
     23.8700	  565.00	  544.63	-1753.63	  421.75
     23.9700	  531.00	  545.29	-1788.29	  421.42
     24.0700	  567.00	  546.73	-1753.73	  421.08
     24.1700	  543.00	  549.56	-1780.56	  420.75
     24.2700	  552.00	  554.54	-1776.54	  420.41
     24.3700	  565.00	  562.53	-1771.53	  420.08
     24.4700	  617.00	  574.43	-1731.43	  419.75
     24.5700	  605.00	  590.43	-1759.43	  419.41
     24.6700	  608.00	  607.91	-1773.91	  419.08
     24.7700	  638.00	  619.75	-1755.75	  418.75
     24.8700	  619.00	  616.60	-1771.60	  418.42
     24.9700	  601.00	  597.58	-1770.58	  418.09
     25.0700	  588.00	  574.86	-1760.86	  417.76
     25.1700	  580.00	  557.95	-1751.95	  417.42
     25.2700	  550.00	  548.42	-1772.42	  417.09
     25.3700	  561.00	  543.92	-1756.92	  416.76
     25.4700	  521.00	  541.85	-1794.85	  416.44
     25.5700	  559.00	  540.75	-1755.75	  416.11
     25.6700	  525.00	  540.02	-1789.02	  415.78
     25.7700	  556.00	  539.48	-1757.48	  415.45
     25.8700	  557.00	  539.08	-1756.08	  415.12
     25.9700	  548.00	  538.77	-1764.77	  414.80
     26.0700	  541.00	  538.54	-1771.54	  414.47
     26.1700	  547.00	  538.38	-1765.38	  414.15
     26.2700	  541.00	  538.30	-1771.30	  413.82
     26.3700	  564.00	  538.30	-1748.30	  413.50
     26.4700	  533.00	  538.37	-1779.37	  413.17
     26.5700	  541.00	  538.54	-1771.54	  412.85
     26.6700	  518.00	  538.83	-1794.83	  412.53
     26.7700	  562.00	  539.25	-1751.25	  412.21
     26.8700	  549.00	  539.84	-1764.84	  411.89
     26.9700	  526.00	  540.65	-1788.65	  411.57
     27.0700	  589.00	  541.77	-1726.77	  411.25
     27.1700	  529.00	  543.32	-1788.32	  410.93
     27.2700	  588.00	  545.56	-1731.56	  410.61
     27.3700	  570.00	  548.99	-1752.99	  410.29
     27.4700	  607.00	  554.60	-1721.60	  409.98
     27.5700	  593.00	  564.21	-1745.21	  409.66
     27.6700	  588.00	  580.69	-1766.69	  409.35
     27.7700	  562.00	  607.82	-1819.82	  409.03
     27.8700	  598.00	  648.98	-1824.98	  408.72
     27.9700	  674.00	  704.53	-1804.53	  408.41
     28.0700	  772.00	  768.29	-1770.29	  408.10
     28.1700	  882.00	  824.33	-1716.33	  407.79
     28.2700	  974.00	  848.26	-1648.26	  407.48
     28.3700	  910.00	  824.77	-1688.77	  407.17
     28.4700	  783.00	  775.48	-1766.48	  406.87
     28.5700	  725.00	  738.15	-1787.15	  406.56
     28.6700	  694.00	  730.64	-1810.64	  406.26
     28.7700	  653.00	  749.05	-1870.05	  405.95
     28.8700	  807.00	  774.16	-1741.16	  405.65
     28.9700	  816.00	  778.74	-1736.74	  405.35
     29.0700	  735.00	  744.88	-1783.88	  405.05
     29.1700	  676.00	  686.29	-1784.29	  404.75
     29.2700	  647.00	  630.04	-1757.04	  404.45
     29.3700	  648.00	  589.39	-1715.39	  404.15
     29.4700	  615.00	  564.85	-1723.85	  403.86
     29.5700	  586.00	  551.61	-1739.61	  403.56
     29.6700	  592.00	  544.63	-1726.63	  403.27
     29.7700	  605.00	  540.67	-1709.67	  402.97
     29.8700	  603.00	  538.19	-1709.19	  402.68
     29.9700	  571.00	  536.59	-1739.59	  402.39
     30.0700	  600.00	  535.74	-1709.74	  402.10
     30.1700	  600.00	  535.77	-1709.77	  401.81
     30.2700	  551.00	  537.16	-1760.16	  401.53
     30.3700	  527.00	  540.86	-1787.86	  401.24
     30.4700	  554.00	  548.34	-1768.34	  400.96
     30.5700	  594.00	  561.17	-1741.17	  400.67
     30.6700	  533.00	  579.85	-1820.85	  400.39
     30.7700	  586.00	  602.13	-1790.13	  400.11
     30.8700	  599.00	  621.74	-1796.74	  399.83
     30.9700	  604.00	  628.98	-1798.98	  399.56
     31.0700	  628.00	  617.05	-1763.05	  399.28
     31.1700	  522.00	  592.08	-1844.08	  399.00
     31.2700	  559.00	  566.82	-1781.82	  398.73
     31.3700	  566.00	  548.13	-1756.13	  398.46
     31.4700	  563.00	  536.76	-1747.76	  398.19
     31.5700	  520.00	  530.70	-1784.70	  397.92
     31.6700	  548.00	  527.60	-1753.60	  397.65
     31.7700	  529.00	  525.89	-1770.89	  397.38
     31.8700	  550.00	  524.82	-1748.82	  397.11
     31.9700	  563.00	  524.09	-1735.09	  396.85
     32.0700	  551.00	  523.57	-1746.57	  396.59
     32.1700	  552.00	  523.22	-1745.22	  396.33
     32.2700	  539.00	  523.03	-1758.03	  396.07
     32.3700	  512.00	  522.98	-1784.98	  395.81
     32.4700	  534.00	  523.08	-1763.08	  395.55
     32.5700	  558.00	  523.35	-1739.35	  395.29
     32.6700	  520.00	  523.81	-1777.81	  395.04
     32.7700	  516.00	  524.51	-1782.51	  394.79
     32.8700	  562.00	  525.52	-1737.52	  394.54
     32.9700	  563.00	  526.95	-1737.95	  394.29
     33.0700	  559.00	  529.02	-1744.02	  394.04
     33.1700	  583.00	  532.17	-1723.17	  393.79
     33.2700	  492.00	  537.46	-1819.46	  393.55
     33.3700	  543.00	  547.15	-1778.15	  393.30
     33.4700	  590.00	  565.61	-1749.61	  393.06
     33.5700	  605.00	  599.91	-1768.91	  392.82
     33.6700	  653.00	  658.17	-1779.17	  392.58
     33.7700	  747.00	  744.20	-1771.20	  392.34
     33.8700	  883.00	  848.93	-1739.93	  392.11
     33.9700	 1005.00	  944.47	-1713.47	  391.87
     34.0700	 1072.00	  987.66	-1689.66	  391.64
     34.1700	 1040.00	  946.09	-1680.09	  391.41
     34.2700	  883.00	  841.07	-1732.07	  391.18
     34.3700	  723.00	  727.29	-1778.29	  390.95
     34.4700	  642.00	  638.98	-1770.98	  390.72
     34.5700	  534.00	  583.40	-1823.40	  390.50
     34.6700	  523.00	  553.35	-1804.35	  390.28
     34.7700	  498.00	  538.29	-1814.29	  390.05
     34.8700	  557.00	  530.49	-1747.49	  389.83
     34.9700	  531.00	  525.85	-1768.85	  389.62
     35.0700	  519.00	  522.66	-1777.66	  389.40
     35.1700	  545.00	  520.26	-1749.26	  389.18
     35.2700	  547.00	  518.38	-1745.38	  388.97
     35.3700	  492.00	  516.85	-1798.85	  388.76
     35.4700	  515.00	  515.58	-1774.58	  388.55
     35.5700	  502.00	  514.51	-1786.51	  388.34
     35.6700	  510.00	  513.59	-1777.59	  388.13
     35.7700	  479.00	  512.80	-1807.80	  387.93
     35.8700	  540.00	  512.10	-1746.10	  387.73
     35.9700	  534.00	  511.49	-1751.49	  387.52
     36.0700	  532.00	  511.40	-1753.40	  387.32
     36.1700	  454.00	  510.92	-1830.92	  387.13
     36.2700	  502.00	  510.48	-1782.48	  386.93
     36.3700	  466.00	  510.08	-1818.08	  386.73
     36.4700	  506.00	  509.73	-1777.73	  386.54
     36.5700	  540.00	  509.42	-1743.42	  386.35
     36.6700	  538.00	  509.14	-1745.14	  386.16
     36.7700	  515.00	  508.92	-1767.92	  385.97
     36.8700	  504.00	  508.77	-1778.77	  385.79
     36.9700	  523.00	  508.75	-1759.75	  385.60
     37.0700	  525.00	  509.01	-1758.01	  385.42
     37.1700	  501.00	  509.80	-1782.80	  385.24
     37.2700	  543.00	  511.52	-1742.52	  385.06
     37.3700	  525.00	  514.50	-1763.50	  384.88
     37.4700	  474.00	  518.73	-1818.73	  384.71
     37.5700	  522.00	  523.39	-1775.39	  384.53
     37.6700	  502.00	  526.88	-1798.88	  384.36
     37.7700	  521.00	  527.43	-1780.43	  384.19
     37.8700	  569.00	  524.77	-1729.77	  384.02
     37.9700	  493.00	  520.56	-1801.56	  383.85
     38.0700	  481.00	  516.31	-1809.31	  383.69
     38.1700	  556.00	  512.65	-1730.65	  383.52
     38.2700	  473.00	  509.79	-1810.79	  383.36
     38.3700	  497.00	  507.75	-1784.75	  383.20
     38.4700	  473.00	  506.39	-1807.39	  383.04
     38.5700	  507.00	  505.52	-1772.52	  382.89
     38.6700	  476.00	  504.86	-1802.86	  382.73
     38.7700	  555.00	  504.48	-1723.48	  382.58
     38.8700	  487.00	  504.20	-1791.20	  382.43
     38.9700	  500.00	  503.96	-1777.96	  382.28
     39.0700	  495.00	  503.76	-1782.76	  382.13
     39.1700	  479.00	  503.50	-1798.50	  381.99
     39.2700	  551.00	  503.33	-1726.33	  381.84
     39.3700	  508.00	  503.18	-1769.18	  381.70
     39.4700	  505.00	  503.03	-1772.03	  381.56
     39.5700	  482.00	  503.02	-1795.02	  381.42
     39.6700	  541.00	  502.90	-1735.90	  381.29
     39.7700	  459.00	  502.79	-1817.79	  381.15
     39.8700	  475.00	  502.68	-1801.68	  381.02
     39.9700	  502.00	  502.59	-1774.59	  380.89
     40.0700	  473.00	  502.51	-1803.51	  380.76
     40.1700	  517.00	  502.43	-1759.43	  380.63
     40.2700	  496.00	  502.37	-1780.37	  380.50
     40.3700	  519.00	  502.32	-1757.32	  380.38
     40.4700	  525.00	  502.28	-1751.28	  380.26
     40.5700	  545.00	  502.25	-1731.25	  380.14
     40.6700	  519.00	  502.25	-1757.25	  380.02
     40.7700	  497.00	  502.26	-1779.26	  379.90
     40.8700	  513.00	  502.30	-1763.30	  379.79
     40.9700	  501.00	  502.36	-1775.36	  379.67
     41.0700	  503.00	  502.45	-1773.45	  379.56
     41.1700	  480.00	  502.56	-1796.56	  379.45
     41.2700	  494.00	  502.75	-1782.75	  379.34
     41.3700	  495.00	  503.00	-1782.00	  379.24
     41.4700	  492.00	  503.34	-1785.34	  379.13
     41.5700	  537.00	  504.21	-1741.21	  379.03
     41.6700	  486.00	  504.85	-1792.85	  378.93
     41.7700	  495.00	  505.80	-1784.80	  378.83
     41.8700	  472.00	  507.37	-1809.37	  378.73
     41.9700	  513.00	  510.28	-1771.28	  378.64
     42.0700	  522.00	  515.89	-1767.89	  378.54
     42.1700	  497.00	  526.40	-1803.40	  378.45
     42.2700	  548.00	  544.34	-1770.34	  378.36
     42.3700	  552.00	  571.20	-1793.20	  378.27
     42.4700	  558.00	  604.86	-1820.86	  378.19
     42.5700	  584.00	  638.02	-1828.02	  378.10
     42.6700	  594.00	  658.66	-1838.66	  378.02
     42.7700	  600.00	  655.92	-1829.92	  377.94
     42.8700	  592.00	  630.64	-1812.64	  377.86
     42.9700	  534.00	  595.27	-1835.27	  377.78
     43.0700	  516.00	  562.21	-1820.21	  377.70
     43.1700	  539.00	  537.48	-1772.48	  377.63
     43.2700	  502.00	  521.84	-1793.84	  377.56
     43.3700	  469.00	  513.15	-1818.15	  377.49
     43.4700	  517.00	  508.68	-1765.68	  377.42
     43.5700	  472.00	  506.38	-1808.38	  377.35
     43.6700	  492.00	  505.08	-1787.08	  377.29
     43.7700	  476.00	  504.43	-1802.43	  377.22
     43.8700	  472.00	  503.83	-1805.83	  377.16
     43.9700	  520.00	  503.39	-1757.39	  377.10
     44.0700	  534.00	  503.08	-1743.08	  377.04
     44.1700	  550.00	  502.83	-1726.83	  376.98
     44.2700	  484.00	  502.63	-1792.63	  376.93
     44.3700	  491.00	  502.48	-1785.48	  376.88
     44.4700	  489.00	  502.38	-1787.38	  376.82
     44.5700	  454.00	  502.19	-1822.19	  376.78
     44.6700	  523.00	  502.16	-1753.16	  376.73
     44.7700	  522.00	  502.15	-1754.15	  376.68
     44.8700	  527.00	  502.18	-1749.18	  376.64
     44.9700	  537.00	  502.22	-1739.22	  376.59
     45.0700	  538.00	  502.29	-1738.29	  376.55
     45.1700	  507.00	  502.38	-1769.38	  376.51
     45.2700	  495.00	  502.67	-1781.67	  376.47
     45.3700	  483.00	  502.81	-1793.81	  376.44
     45.4700	  538.00	  502.97	-1738.97	  376.40
     45.5700	  502.00	  503.15	-1775.15	  376.37
     45.6700	  503.00	  503.35	-1774.35	  376.34
     45.7700	  523.00	  503.59	-1754.59	  376.31
     45.8700	  474.00	  503.85	-1803.85	  376.28
     45.9700	  531.00	  504.14	-1747.14	  376.26
     46.0700	  516.00	  504.47	-1762.47	  376.23
     46.1700	  498.00	  504.84	-1780.84	  376.21
     46.2700	  511.00	  505.25	-1768.25	  376.19
     46.3700	  515.00	  505.71	-1764.71	  376.17
     46.4700	  490.00	  506.23	-1790.23	  376.15
     46.5700	  563.00	  506.83	-1717.83	  376.13
     46.6700	  515.00	  507.51	-1766.51	  376.12
     46.7700	  513.00	  508.32	-1769.32	  376.11
     46.8700	  513.00	  509.30	-1770.30	  376.09
     46.9700	  514.00	  510.60	-1770.60	  376.08
     47.0700	  545.00	  512.51	-1741.51	  376.08
     47.1700	  509.00	  515.62	-1780.62	  376.07
     47.2700	  524.00	  520.99	-1770.99	  376.06
     47.3700	  513.00	  529.79	-1790.79	  376.06
     47.4700	  540.00	  543.28	-1777.28	  376.06
     47.5700	  559.00	  561.64	-1776.64	  376.06
     47.6700	  584.00	  582.96	-1772.96	  376.06
     47.7700	  594.00	  602.67	-1782.67	  376.06
     47.8700	  610.00	  614.28	-1778.28	  376.07
     47.9700	  557.00	  612.88	-1829.88	  376.07
     48.0700	  563.00	  599.77	-1810.77	  376.08
     48.1700	  583.00	  581.48	-1772.48	  376.09
     48.2700	  615.00	  564.26	-1723.26	  376.10
     48.3700	  568.00	  551.51	-1757.51	  376.11
     48.4700	  532.00	  544.19	-1786.19	  376.13
     48.5700	  518.00	  541.59	-1797.59	  376.14
     48.6700	  495.00	  542.49	-1821.49	  376.16
     48.7700	  469.00	  545.82	-1850.82	  376.18
     48.8700	  532.00	  551.08	-1793.08	  376.20
     48.9700	  583.00	  558.25	-1749.25	  376.22
     49.0700	  553.00	  567.97	-1788.97	  376.24
     49.1700	  646.00	  581.81	-1709.81	  376.26
     49.2700	  613.00	  603.11	-1764.11	  376.29
     49.3700	  642.00	  638.33	-1770.33	  376.32
     49.4700	  719.00	  698.47	-1753.47	  376.34
     49.5700	  800.00	  799.83	-1773.83	  376.37
     49.6700	  939.00	  960.30	-1795.30	  376.41
     49.7700	 1180.00	 1194.34	-1788.34	  376.44
     49.8700	 1462.00	 1501.06	-1813.06	  376.47
     49.9700	 1832.00	 1852.22	-1794.22	  376.51
     50.0700	 2183.00	 2183.22	-1774.22	  376.55
     50.1700	 2479.00	 2397.24	-1692.24	  376.58
     50.2700	 2495.00	 2406.54	-1685.54	  376.62
     50.3700	 2242.00	 2204.68	-1736.68	  376.67
     50.4700	 1793.00	 1876.88	-1857.88	  376.71
     50.5700	 1412.00	 1525.80	-1887.80	  376.75
     50.6700	 1079.00	 1219.89	-1914.89	  376.80
     50.7700	  771.00	  989.14	-1992.14	  376.84
     50.8700	  698.00	  834.92	-1910.92	  376.89
     50.9700	  638.00	  741.74	-1877.74	  376.94
     51.0700	  691.00	  688.21	-1771.21	  376.99
     51.1700	  614.00	  655.19	-1815.19	  377.05
     51.2700	  612.00	  630.32	-1792.32	  377.10
     51.3700	  592.00	  608.75	-1790.75	  377.15
     51.4700	  565.00	  589.96	-1798.96	  377.21
     51.5700	  576.00	  574.58	-1772.58	  377.27
     51.6700	  522.00	  562.91	-1814.91	  377.33
     51.7700	  547.00	  554.67	-1781.67	  377.39
     51.8700	  559.00	  549.16	-1764.16	  377.45
     51.9700	  564.00	  545.63	-1755.63	  377.51
     52.0700	  548.00	  543.48	-1769.48	  377.57
     52.1700	  553.00	  542.36	-1763.36	  377.64
     52.2700	  565.00	  542.37	-1751.37	  377.70
     52.3700	  555.00	  543.18	-1762.18	  377.77
     52.4700	  548.00	  545.43	-1771.43	  377.84
     52.5700	  582.00	  550.18	-1742.18	  377.91
     52.6700	  557.00	  559.66	-1776.66	  377.98
     52.7700	  596.00	  577.91	-1755.91	  378.05
     52.8700	  661.00	  611.13	-1724.13	  378.13
     52.9700	  725.00	  666.87	-1715.87	  378.20
     53.0700	  806.00	  751.33	-1719.33	  378.28
     53.1700	  919.00	  864.79	-1719.79	  378.36
     53.2700	 1078.00	  996.85	-1692.85	  378.43
     53.3700	 1125.00	 1123.47	-1772.47	  378.51
     53.4700	 1189.00	 1209.29	-1794.29	  378.59
     53.5700	 1133.00	 1221.49	-1862.49	  378.68
     53.6700	 1097.00	 1154.19	-1831.19	  378.76
     53.7700	  959.00	 1034.78	-1849.78	  378.84
     53.8700	  860.00	  900.93	-1814.93	  378.93
     53.9700	  744.00	  780.69	-1810.69	  379.01
     54.0700	  683.00	  688.10	-1779.10	  379.10
     54.1700	  570.00	  625.34	-1829.34	  379.19
     54.2700	  583.00	  587.24	-1778.24	  379.28
     54.3700	  556.00	  566.12	-1784.12	  379.37
     54.4700	  574.00	  555.24	-1755.24	  379.46
     54.5700	  547.00	  549.90	-1776.90	  379.55
     54.6700	  521.00	  547.45	-1800.45	  379.65
     54.7700	  535.00	  546.56	-1785.56	  379.74
     54.8700	  577.00	  546.69	-1743.69	  379.84
     54.9700	  554.00	  547.59	-1767.59	  379.93
     55.0700	  558.00	  549.21	-1765.21	  380.03
     55.1700	  562.00	  551.56	-1763.56	  380.13
     55.2700	  586.00	  554.72	-1742.72	  380.23
     55.3700	  530.00	  558.76	-1802.76	  380.33
     55.4700	  570.00	  563.92	-1767.92	  380.43
     55.5700	  572.00	  570.59	-1772.59	  380.53
     55.6700	  559.00	  579.55	-1794.55	  380.63
     55.7700	  627.00	  592.42	-1739.42	  380.74
     55.8700	  674.00	  612.46	-1712.46	  380.84
     55.9700	  642.00	  645.86	-1777.86	  380.95
     56.0700	  675.00	  702.94	-1801.94	  381.06
     56.1700	  731.00	  798.85	-1841.85	  381.16
     56.2700	  879.00	  951.77	-1846.77	  381.27
     56.3700	 1061.00	 1177.63	-1890.63	  381.38
     56.4700	 1421.00	 1481.54	-1834.54	  381.49
     56.5700	 1813.00	 1847.53	-1808.53	  381.60
     56.6700	 2081.00	 2230.76	-1923.76	  381.72
     56.7700	 2374.00	 2555.26	-1955.26	  381.83
     56.8700	 2634.00	 2727.86	-1867.86	  381.94
     56.9700	 2660.00	 2684.66	-1798.66	  382.06
     57.0700	 2496.00	 2442.34	-1720.34	  382.17
     57.1700	 2178.00	 2084.65	-1680.65	  382.29
     57.2700	 1702.00	 1702.65	-1774.65	  382.40
     57.3700	 1331.00	 1360.63	-1803.63	  382.52
     57.4700	 1051.00	 1091.03	-1814.03	  382.64
     57.5700	  903.00	  900.42	-1771.42	  382.76
     57.6700	  753.00	  778.44	-1799.44	  382.88
     57.7700	  742.00	  708.06	-1740.06	  383.00
     57.8700	  707.00	  673.15	-1740.15	  383.12
     57.9700	  679.00	  662.37	-1757.37	  383.24
     58.0700	  664.00	  669.71	-1779.71	  383.36
     58.1700	  761.00	  693.17	-1706.17	  383.49
     58.2700	  773.00	  732.87	-1733.87	  383.61
     58.3700	  823.00	  789.07	-1740.07	  383.74
     58.4700	  919.00	  860.59	-1715.59	  383.86
     58.5700	 1028.00	  943.17	-1689.17	  383.99
     58.6700	 1177.00	 1028.95	-1625.95	  384.11
     58.7700	 1291.00	 1108.56	-1591.56	  384.24
     58.8700	 1456.00	 1175.44	-1493.44	  384.37
     58.9700	 1450.00	 1226.02	-1550.02	  384.50
     59.0700	 1665.00	 1255.52	-1364.52	  384.63
     59.1700	 1551.00	 1259.22	-1482.22	  384.76
     59.2700	 1573.00	 1240.08	-1441.08	  384.89
     59.3700	 1410.00	 1209.49	-1573.49	  385.02
     59.4700	 1236.00	 1179.41	-1717.41	  385.15
     59.5700	 1210.00	 1158.18	-1722.18	  385.28
     59.6700	 1170.00	 1153.40	-1757.40	  385.41
     59.7700	 1173.00	 1174.48	-1775.48	  385.54
     59.8700	 1195.00	 1227.78	-1806.78	  385.68
     59.9700	 1313.00	 1310.02	-1771.02	  385.81
     60.0700	 1527.00	 1405.14	-1652.14	  385.94
     60.1700	 1558.00	 1484.80	-1700.80	  386.08
     60.2700	 1588.00	 1515.45	-1701.45	  386.21
     60.3700	 1505.00	 1475.42	-1744.42	  386.35
     60.4700	 1435.00	 1370.45	-1709.45	  386.49
     60.5700	 1341.00	 1227.44	-1660.44	  386.62
     60.6700	 1096.00	 1076.07	-1754.07	  386.76
     60.7700	  922.00	  938.16	-1790.16	  386.90
     60.8700	  810.00	  826.17	-1790.17	  387.03
     60.9700	  752.00	  744.42	-1766.42	  387.17
     61.0700	  676.00	  691.80	-1789.80	  387.31
     61.1700	  648.00	  664.89	-1790.89	  387.45
     61.2700	  654.00	  660.80	-1780.80	  387.59
     61.3700	  615.00	  678.98	-1837.98	  387.73
     61.4700	  683.00	  721.39	-1812.39	  387.87
     61.5700	  748.00	  791.32	-1817.32	  388.01
     61.6700	  796.00	  890.91	-1868.91	  388.15
     61.7700	  943.00	 1018.03	-1849.03	  388.29
     61.8700	 1062.00	 1163.61	-1875.61	  388.43
     61.9700	 1247.00	 1309.71	-1836.71	  388.57
     62.0700	 1346.00	 1429.63	-1857.63	  388.71
     62.1700	 1330.00	 1492.80	-1936.80	  388.85
     62.2700	 1374.00	 1478.71	-1878.71	  388.99
     62.3700	 1316.00	 1391.52	-1849.52	  389.14
     62.4700	 1189.00	 1256.95	-1841.95	  389.28
     62.5700	 1064.00	 1105.44	-1815.44	  389.42
     62.6700	  930.00	  960.99	-1804.99	  389.56
     62.7700	  766.00	  838.26	-1846.26	  389.71
     62.8700	  718.00	  743.35	-1799.35	  389.85
     62.9700	  628.00	  675.75	-1821.75	  389.99
     63.0700	  578.00	  630.98	-1826.98	  390.14
     63.1700	  557.00	  603.15	-1820.15	  390.28
     63.2700	  579.00	  586.83	-1781.83	  390.42
     63.3700	  584.00	  577.97	-1767.97	  390.57
     63.4700	  554.00	  574.19	-1794.19	  390.71
     63.5700	  616.00	  574.57	-1732.57	  390.86
     63.6700	  578.00	  579.48	-1775.48	  391.00
     63.7700	  608.00	  590.26	-1756.26	  391.14
     63.8700	  614.00	  608.92	-1768.92	  391.29
     63.9700	  683.00	  637.64	-1728.64	  391.43
     64.0700	  681.00	  677.92	-1770.92	  391.58
     64.1700	  808.00	  729.66	-1695.66	  391.72
     64.2700	  816.00	  790.19	-1748.19	  391.86
     64.3700	  919.00	  853.68	-1708.68	  392.01
     64.4700	  950.00	  911.06	-1735.06	  392.15
     64.5700	  987.00	  951.03	-1738.03	  392.30
     64.6700	 1068.00	  966.00	-1672.00	  392.44
     64.7700	 1010.00	  953.48	-1717.48	  392.59
     64.8700	 1009.00	  917.92	-1682.92	  392.73
     64.9700	  878.00	  867.90	-1763.90	  392.88
     65.0700	  873.00	  812.84	-1713.84	  393.02
     65.1700	  746.00	  760.41	-1788.41	  393.16
     65.2700	  738.00	  714.93	-1750.93	  393.31
     65.3700	  644.00	  677.54	-1807.54	  393.45
     65.4700	  635.00	  647.50	-1786.50	  393.59
     65.5700	  595.00	  623.63	-1802.63	  393.74
     65.6700	  574.00	  604.94	-1804.94	  393.88
     65.7700	  586.00	  590.64	-1778.64	  394.03
     65.8700	  553.00	  580.10	-1801.10	  394.17
     65.9700	  581.00	  572.77	-1765.77	  394.31
     66.0700	  581.00	  568.17	-1761.17	  394.45
     66.1700	  535.00	  565.83	-1804.83	  394.60
     66.2700	  504.00	  565.34	-1835.34	  394.74
     66.3700	  546.00	  566.36	-1794.36	  394.88
     66.4700	  579.00	  568.72	-1763.72	  395.02
     66.5700	  582.00	  572.45	-1764.45	  395.17
     66.6700	  570.00	  577.99	-1781.99	  395.31
     66.7700	  585.00	  586.00	-1775.00	  395.45
     66.8700	  611.00	  598.27	-1761.27	  395.59
     66.9700	  593.00	  617.71	-1798.71	  395.73
     67.0700	  628.00	  649.01	-1795.01	  395.87
     67.1700	  618.00	  698.83	-1854.83	  396.01
     67.2700	  726.00	  775.73	-1823.73	  396.15
     67.3700	  878.00	  888.94	-1784.94	  396.29
     67.4700	  993.00	 1046.02	-1827.02	  396.43
     67.5700	 1245.00	 1250.19	-1779.19	  396.57
     67.6700	 1518.00	 1495.67	-1751.67	  396.71
     67.7700	 1719.00	 1766.09	-1821.09	  396.84
     67.8700	 2096.00	 2032.46	-1710.46	  396.98
     67.9700	 2348.00	 2254.21	-1680.21	  397.12
     68.0700	 2466.00	 2385.85	-1693.85	  397.26
     68.1700	 2393.00	 2393.70	-1774.70	  397.39
     68.2700	 2329.00	 2275.57	-1720.57	  397.53
     68.3700	 2033.00	 2062.28	-1803.28	  397.67
     68.4700	 1773.00	 1799.11	-1800.11	  397.80
     68.5700	 1605.00	 1527.84	-1696.84	  397.94
     68.6700	 1298.00	 1278.76	-1754.76	  398.07
     68.7700	 1058.00	 1069.85	-1785.85	  398.20
     68.8700	  854.00	  907.74	-1827.74	  398.34
     68.9700	  752.00	  790.23	-1812.23	  398.47
     69.0700	  712.00	  710.07	-1772.07	  398.60
     69.1700	  672.00	  658.07	-1760.07	  398.74
     69.2700	  648.00	  625.51	-1751.51	  398.87
     69.3700	  638.00	  605.46	-1741.46	  399.00
     69.4700	  580.00	  593.02	-1787.02	  399.13
     69.5700	  588.00	  585.08	-1771.08	  399.26
     69.6700	  616.00	  579.80	-1737.80	  399.39
     69.7700	  554.00	  576.16	-1796.16	  399.52
     69.8700	  589.00	  573.65	-1758.65	  399.65
     69.9700	  532.00	  572.01	-1814.01	  399.77
     70.0700	  557.00	  571.09	-1788.09	  399.90
     70.1700	  613.00	  570.85	-1731.85	  400.03
     70.2700	  584.00	  571.33	-1761.33	  400.15
     70.3700	  588.00	  572.60	-1758.60	  400.28
     70.4700	  564.00	  574.91	-1784.91	  400.40
     70.5700	  567.00	  578.71	-1785.71	  400.53
     70.6700	  548.00	  584.87	-1810.87	  400.65
     70.7700	  587.00	  594.89	-1781.89	  400.77
     70.8700	  598.00	  611.14	-1787.14	  400.89
     70.9700	  628.00	  637.19	-1783.19	  401.01
     71.0700	  611.00	  677.81	-1840.81	  401.14
     71.1700	  757.00	  738.73	-1755.73	  401.26
     71.2700	  816.00	  825.73	-1783.73	  401.37
     71.3700	  936.00	  943.25	-1781.25	  401.49
     71.4700	 1122.00	 1092.37	-1744.37	  401.61
     71.5700	 1214.00	 1268.93	-1828.93	  401.73
     71.6700	 1413.00	 1462.91	-1823.91	  401.84
     71.7700	 1667.00	 1654.41	-1761.41	  401.96
     71.8700	 1795.00	 1819.24	-1798.24	  402.07
     71.9700	 1906.00	 1928.89	-1796.89	  402.19
     72.0700	 1913.00	 1959.72	-1820.72	  402.30
     72.1700	 1864.00	 1904.30	-1814.30	  402.41
     72.2700	 1810.00	 1775.49	-1739.49	  402.52
     72.3700	 1634.00	 1600.50	-1740.50	  402.63
     72.4700	 1450.00	 1406.96	-1730.96	  402.74
     72.5700	 1279.00	 1217.88	-1712.88	  402.85
     72.6700	 1190.00	 1049.11	-1633.11	  402.96
     72.7700	 1011.00	  909.27	-1672.27	  403.07
     72.8700	  946.00	  800.66	-1628.66	  403.18
     72.9700	  827.00	  720.97	-1667.97	  403.28
     73.0700	  778.00	  665.27	-1661.27	  403.39
     73.1700	  759.00	  627.81	-1642.81	  403.49
     73.2700	  711.00	  603.27	-1666.27	  403.59
     73.3700	  675.00	  587.33	-1686.33	  403.69
     73.4700	  605.00	  576.89	-1745.89	  403.80
     73.5700	  621.00	  569.91	-1722.91	  403.90
     73.6700	  620.00	  565.14	-1719.14	  403.99
     73.7700	  564.00	  561.85	-1771.85	  404.09
     73.8700	  586.00	  559.63	-1747.63	  404.19
     73.9700	  603.00	  558.25	-1729.25	  404.29
     74.0700	  590.00	  557.55	-1741.55	  404.38
     74.1700	  615.00	  557.36	-1716.36	  404.48
     74.2700	  592.00	  557.54	-1739.54	  404.57
     74.3700	  592.00	  557.87	-1739.87	  404.66
     74.4700	  632.00	  558.13	-1700.13	  404.75
     74.5700	  654.00	  558.09	-1678.09	  404.84
     74.6700	  647.00	  557.58	-1684.58	  404.93
     74.7700	  642.00	  556.57	-1688.57	  405.02
     74.8700	  622.00	  555.16	-1707.16	  405.11
     74.9700	  626.00	  553.61	-1701.61	  405.20
     75.0700	  549.00	  552.18	-1777.18	  405.28
     75.1700	  603.00	  551.18	-1722.18	  405.36
     75.2700	  562.00	  550.85	-1762.85	  405.45
     75.3700	  582.00	  551.73	-1743.73	  405.53
     75.4700	  552.00	  554.19	-1776.19	  405.61
     75.5700	  587.00	  558.65	-1745.65	  405.69
     75.6700	  568.00	  565.83	-1771.83	  405.77
     75.7700	  616.00	  576.16	-1734.16	  405.85
     75.8700	  580.00	  589.96	-1783.96	  405.92
     75.9700	  635.00	  607.21	-1746.21	  406.00
     76.0700	  644.00	  627.38	-1757.38	  406.07
     76.1700	  715.00	  649.32	-1708.32	  406.15
     76.2700	  657.00	  671.22	-1788.22	  406.22
     76.3700	  666.00	  690.64	-1798.64	  406.29
     76.4700	  681.00	  704.80	-1797.80	  406.36
     76.5700	  724.00	  711.15	-1761.15	  406.43
     76.6700	  688.00	  708.37	-1794.37	  406.49
     76.7700	  725.00	  697.03	-1746.03	  406.56
     76.8700	  649.00	  679.25	-1804.25	  406.62
     76.9700	  636.00	  657.65	-1795.65	  406.69
     77.0700	  611.00	  635.21	-1798.21	  406.75
     77.1700	  602.00	  613.81	-1785.81	  406.81
     77.2700	  550.00	  594.89	-1818.89	  406.87
     77.3700	  539.00	  579.18	-1814.18	  406.93
     77.4700	  569.00	  566.88	-1771.88	  406.99
     77.5700	  509.00	  557.74	-1822.74	  407.05
     77.6700	  535.00	  551.26	-1790.26	  407.10
     77.7700	  539.00	  546.85	-1781.85	  407.15
     77.8700	  538.00	  543.95	-1779.95	  407.21
     77.9700	  517.00	  542.09	-1799.09	  407.26
     78.0700	  538.00	  540.91	-1776.91	  407.31
     78.1700	  475.00	  540.16	-1839.16	  407.36
     78.2700	  507.00	  539.68	-1806.68	  407.41
     78.3700	  538.00	  539.39	-1775.39	  407.45
     78.4700	  515.00	  539.23	-1798.23	  407.50
     78.5700	  550.00	  539.17	-1763.17	  407.54
     78.6700	  508.00	  539.21	-1805.21	  407.58
     78.7700	  514.00	  539.37	-1799.37	  407.62
     78.8700	  537.00	  539.66	-1776.66	  407.66
     78.9700	  511.00	  540.12	-1803.12	  407.70
     79.0700	  515.00	  540.80	-1799.80	  407.74
     79.1700	  523.00	  541.75	-1792.75	  407.77
     79.2700	  498.00	  542.85	-1818.85	  407.81
     79.3700	  534.00	  544.51	-1784.51	  407.84
     79.4700	  545.00	  546.61	-1775.61	  407.87
     79.5700	  544.00	  549.18	-1779.18	  407.90
     79.6700	  474.00	  552.30	-1852.30	  407.93
     79.7700	  520.00	  556.02	-1810.02	  407.96
     79.8700	  516.00	  560.45	-1818.45	  407.99
     79.9700	  528.00	  565.73	-1811.73	  408.01
     80.0700	  534.00	  572.08	-1812.08	  408.03
     80.1700	  542.00	  579.80	-1811.80	  408.06
     80.2700	  571.00	  589.26	-1792.26	  408.08
     80.3700	  627.00	  600.82	-1747.82	  408.10
     80.4700	  571.00	  614.68	-1817.68	  408.11
     80.5700	  583.00	  630.81	-1821.81	  408.13
     80.6700	  615.00	  648.84	-1807.84	  408.15
     80.7700	  619.00	  668.00	-1823.00	  408.16
     80.8700	  661.00	  687.14	-1800.14	  408.17
     80.9700	  749.00	  704.88	-1729.88	  408.18
     81.0700	  708.00	  719.86	-1785.86	  408.19
     81.1700	  695.00	  730.88	-1809.88	  408.20
     81.2700	  812.00	  737.07	-1699.07	  408.21
     81.3700	  767.00	  737.93	-1744.93	  408.21
     81.4700	  730.00	  733.43	-1777.43	  408.21
     81.5700	  816.00	  724.06	-1682.06	  408.22
     81.6700	  785.00	  710.60	-1699.60	  408.22
     81.7700	  753.00	  694.04	-1715.04	  408.22
     81.8700	  731.00	  675.50	-1718.50	  408.21
     81.9700	  683.00	  656.18	-1747.18	  408.21
     82.0700	  721.00	  637.34	-1690.34	  408.21
     82.1700	  635.00	  619.83	-1758.83	  408.20
     82.2700	  611.00	  604.24	-1767.24	  408.19
     82.3700	  564.00	  590.87	-1800.87	  408.18
     82.4700	  636.00	  579.81	-1717.81	  408.17
     82.5700	  582.00	  571.00	-1763.00	  408.16
     82.6700	  595.00	  564.35	-1743.35	  408.14
     82.7700	  546.00	  559.70	-1787.70	  408.13
     82.8700	  579.00	  556.87	-1751.87	  408.11
     82.9700	  575.00	  555.71	-1754.71	  408.09
     83.0700	  572.00	  556.09	-1758.09	  408.07
     83.1700	  517.00	  557.91	-1814.91	  408.05
     83.2700	  544.00	  561.03	-1791.03	  408.03
     83.3700	  537.00	  565.28	-1802.28	  408.00
     83.4700	  597.00	  570.39	-1747.39	  407.98
     83.5700	  578.00	  576.03	-1772.03	  407.95
     83.6700	  584.00	  581.74	-1771.74	  407.92
     83.7700	  539.00	  586.96	-1821.96	  407.89
     83.8700	  545.00	  591.09	-1820.09	  407.86
     83.9700	  601.00	  593.52	-1766.52	  407.82
     84.0700	  568.00	  593.84	-1799.84	  407.79
     84.1700	  530.00	  591.96	-1835.96	  407.75
     84.2700	  556.00	  588.13	-1806.13	  407.71
     84.3700	  550.00	  582.87	-1806.87	  407.67
     84.4700	  558.00	  576.78	-1792.78	  407.63
     84.5700	  536.00	  570.40	-1808.40	  407.59
     84.6700	  589.00	  564.21	-1749.21	  407.54
     84.7700	  562.00	  558.52	-1770.52	  407.50
     84.8700	  540.00	  553.57	-1787.57	  407.45
     84.9700	  549.00	  549.46	-1774.46	  407.40
     85.0700	  498.00	  546.19	-1822.19	  407.35
     85.1700	  501.00	  543.72	-1816.72	  407.30
     85.2700	  525.00	  541.93	-1790.93	  407.24
     85.3700	  457.00	  540.73	-1857.73	  407.19
     85.4700	  567.00	  540.01	-1747.01	  407.13
     85.5700	  531.00	  539.68	-1782.68	  407.07
     85.6700	  509.00	  539.68	-1804.68	  407.01
     85.7700	  535.00	  540.01	-1779.01	  406.95
     85.8700	  530.00	  540.67	-1784.67	  406.89
     85.9700	  576.00	  541.74	-1739.74	  406.82
     86.0700	  502.00	  543.31	-1815.31	  406.76
     86.1700	  503.00	  545.53	-1816.53	  406.69
     86.2700	  560.00	  548.56	-1762.56	  406.62
     86.3700	  542.00	  552.59	-1784.59	  406.55
     86.4700	  548.00	  557.80	-1783.80	  406.48
     86.5700	  574.00	  564.32	-1764.32	  406.40
     86.6700	  651.00	  572.19	-1695.19	  406.33
     86.7700	  563.00	  581.03	-1792.03	  406.25
     86.8700	  601.00	  591.19	-1764.19	  406.17
     86.9700	  672.00	  601.91	-1703.91	  406.09
     87.0700	  601.00	  612.57	-1785.57	  406.01
     87.1700	  639.00	  622.35	-1757.35	  405.93
     87.2700	  681.00	  630.35	-1723.35	  405.84
     87.3700	  677.00	  635.69	-1732.69	  405.75
     87.4700	  628.00	  637.68	-1783.68	  405.67
     87.5700	  645.00	  636.08	-1765.08	  405.58
     87.6700	  660.00	  631.16	-1745.16	  405.49
     87.7700	  632.00	  623.64	-1765.64	  405.39
     87.8700	  673.00	  614.47	-1715.47	  405.30
     87.9700	  634.00	  604.62	-1744.62	  405.20
     88.0700	  621.00	  594.99	-1747.99	  405.11
     88.1700	  592.00	  586.35	-1768.35	  405.01
     88.2700	  621.00	  579.26	-1732.26	  404.91
     88.3700	  552.00	  574.11	-1796.11	  404.81
     88.4700	  604.00	  571.09	-1741.09	  404.70
     88.5700	  580.00	  570.20	-1764.20	  404.60
     88.6700	  624.00	  571.28	-1721.28	  404.49
     88.7700	  629.00	  574.03	-1719.03	  404.39
     88.8700	  619.00	  578.04	-1733.04	  404.28
     88.9700	  624.00	  582.82	-1732.82	  404.17
     89.0700	  557.00	  587.79	-1804.79	  404.05
     89.1700	  626.00	  592.36	-1740.36	  403.94
     89.2700	  572.00	  595.91	-1797.91	  403.82
     89.3700	  573.00	  597.92	-1798.92	  403.71
     89.4700	  587.00	  598.04	-1785.04	  403.59
     89.5700	  627.00	  596.19	-1743.19	  403.47
     89.6700	  597.00	  592.57	-1769.57	  403.35
     89.7700	  583.00	  587.58	-1778.58	  403.23
     89.8700	  568.00	  581.72	-1787.72	  403.10
     89.9700	  531.00	  575.47	-1818.47	  402.98
     90.0700	  574.00	  569.24	-1769.24	  402.85
     90.1700	  493.00	  563.36	-1844.36	  402.72
     90.2700	  546.00	  558.07	-1786.07	  402.59
     90.3700	  526.00	  553.51	-1801.51	  402.46
     90.4700	  501.00	  549.75	-1822.75	  402.33
     90.5700	  520.00	  546.78	-1800.78	  402.19
     90.6700	  522.00	  544.54	-1796.54	  402.06
     90.7700	  507.00	  542.95	-1809.95	  401.92
     90.8700	  529.00	  541.93	-1786.93	  401.78
     90.9700	  547.00	  541.37	-1768.37	  401.64
     91.0700	  511.00	  541.24	-1804.24	  401.50
     91.1700	  535.00	  541.48	-1780.48	  401.35
     91.2700	  529.00	  542.11	-1787.11	  401.21
     91.3700	  547.00	  543.17	-1770.17	  401.06
     91.4700	  541.00	  544.74	-1777.74	  400.92
     91.5700	  533.00	  546.96	-1787.96	  400.77
     91.6700	  502.00	  549.98	-1821.98	  400.62
     91.7700	  511.00	  554.00	-1817.00	  400.47
     91.8700	  535.00	  559.02	-1798.02	  400.31
     91.9700	  523.00	  565.69	-1816.69	  400.16
     92.0700	  599.00	  573.97	-1748.97	  400.00
     92.1700	  577.00	  584.02	-1781.02	  399.85
     92.2700	  626.00	  595.87	-1743.87	  399.69
     92.3700	  596.00	  609.51	-1787.51	  399.53
     92.4700	  585.00	  624.74	-1813.74	  399.37
     92.5700	  630.00	  641.28	-1785.28	  399.21
     92.6700	  649.00	  658.66	-1783.66	  399.04
     92.7700	  710.00	  676.30	-1740.30	  398.88
     92.8700	  713.00	  693.52	-1754.52	  398.71
     92.9700	  702.00	  709.59	-1781.59	  398.54
     93.0700	  722.00	  723.90	-1775.90	  398.37
     93.1700	  775.00	  736.11	-1735.11	  398.20
     93.2700	  810.00	  746.25	-1710.25	  398.03
     93.3700	  809.00	  754.71	-1719.71	  397.86
     93.4700	  835.00	  762.09	-1701.09	  397.69
     93.5700	  830.00	  769.01	-1713.01	  397.51
     93.6700	  826.00	  776.06	-1724.06	  397.33
     93.7700	  864.00	  783.75	-1693.75	  397.16
     93.8700	  879.00	  792.57	-1687.57	  396.98
     93.9700	  892.00	  802.99	-1684.99	  396.80
     94.0700	  869.00	  815.41	-1720.41	  396.62
     94.1700	  852.00	  829.98	-1751.98	  396.43
     94.2700	  886.00	  846.53	-1734.53	  396.25
     94.3700	  880.00	  864.40	-1758.40	  396.07
     94.4700	  873.00	  882.49	-1783.49	  395.88
     94.5700	  903.00	  899.26	-1770.26	  395.69
     94.6700	  911.00	  912.89	-1775.89	  395.50
     94.7700	  927.00	  921.45	-1768.45	  395.31
     94.8700	  966.00	  923.31	-1731.31	  395.12
     94.9700	  887.00	  917.50	-1804.50	  394.93
     95.0700	  888.00	  904.06	-1790.06	  394.74
     95.1700	  902.00	  883.94	-1755.94	  394.54
     95.2700	  845.00	  858.82	-1787.82	  394.35
     95.3700	  809.00	  830.69	-1795.69	  394.15
     95.4700	  786.00	  801.64	-1789.64	  393.95
     95.5700	  750.00	  773.66	-1797.66	  393.76
     95.6700	  668.00	  748.56	-1854.56	  393.56
     95.7700	  661.00	  728.02	-1841.02	  393.36
     95.8700	  723.00	  713.51	-1764.51	  393.15
     95.9700	  683.00	  706.33	-1797.33	  392.95
     96.0700	  704.00	  707.60	-1777.60	  392.75
     96.1700	  718.00	  718.26	-1774.26	  392.54
     96.2700	  710.00	  739.04	-1803.04	  392.34
     96.3700	  768.00	  770.39	-1776.39	  392.13
     96.4700	  815.00	  812.43	-1771.43	  391.92
     96.5700	  816.00	  864.81	-1822.81	  391.72
     96.6700	  986.00	  926.65	-1714.65	  391.51
     96.7700	  990.00	  996.44	-1780.44	  391.30
     96.8700	 1013.00	 1071.95	-1832.95	  391.08
     96.9700	 1070.00	 1150.23	-1854.23	  390.87
     97.0700	 1248.00	 1227.63	-1753.63	  390.66
     97.1700	 1277.00	 1299.95	-1796.95	  390.44
     97.2700	 1398.00	 1362.62	-1738.62	  390.23
     97.3700	 1420.00	 1411.05	-1765.05	  390.01
     97.4700	 1356.00	 1441.33	-1859.33	  389.80
     97.5700	 1499.00	 1450.93	-1725.93	  389.58
     97.6700	 1453.00	 1439.31	-1760.31	  389.36
     97.7700	 1391.00	 1408.03	-1791.03	  389.14
     97.8700	 1378.00	 1360.23	-1756.23	  388.92
     97.9700	 1276.00	 1300.12	-1798.12	  388.70
     98.0700	 1288.00	 1232.14	-1718.14	  388.48
     98.1700	 1180.00	 1160.62	-1754.62	  388.26
     98.2700	 1098.00	 1089.48	-1765.48	  388.04
     98.3700	  993.00	 1022.20	-1803.20	  387.81
     98.4700	  984.00	  961.65	-1751.65	  387.59
     98.5700	  903.00	  910.13	-1781.13	  387.36
     98.6700	  827.00	  869.43	-1816.43	  387.14
     98.7700	  787.00	  840.87	-1827.87	  386.91
     98.8700	  768.00	  825.41	-1831.41	  386.69
     98.9700	  766.00	  823.71	-1831.71	  386.46
     99.0700	  790.00	  836.19	-1820.19	  386.23
     99.1700	  861.00	  863.07	-1776.07	  386.00
     99.2700	  895.00	  904.37	-1783.37	  385.77
     99.3700	  896.00	  959.89	-1837.89	  385.54
     99.4700	 1015.00	 1029.11	-1788.11	  385.31
     99.5700	 1060.00	 1111.14	-1825.14	  385.08
     99.6700	 1222.00	 1204.57	-1756.57	  384.85
     99.7700	 1310.00	 1307.36	-1771.36	  384.62
     99.8700	 1458.00	 1416.86	-1732.86	  384.39
     99.9700	 1488.00	 1529.61	-1815.61	  384.16
    100.0700	 1649.00	 1641.54	-1766.54	  383.92
    100.1700	 1786.00	 1748.05	-1736.05	  383.69
    100.2700	 1799.00	 1844.50	-1819.50	  383.46
    100.3700	 1977.00	 1926.71	-1723.71	  383.22
    100.4700	 2010.00	 1991.35	-1755.35	  382.99
    100.5700	 2043.00	 2036.13	-1767.13	  382.75
    100.6700	 2105.00	 2059.60	-1728.60	  382.52
    100.7700	 2047.00	 2061.02	-1788.02	  382.28
    100.8700	 2129.00	 2040.31	-1685.31	  382.04
    100.9700	 1972.00	 1998.31	-1800.31	  381.81
    101.0700	 1958.00	 1937.09	-1753.09	  381.57
    101.1700	 1947.00	 1860.11	-1687.11	  381.34
    101.2700	 1735.00	 1772.01	-1811.01	  381.10
    101.3700	 1735.00	 1677.92	-1716.92	  380.86
    101.4700	 1624.00	 1582.97	-1732.97	  380.62
    101.5700	 1471.00	 1491.67	-1794.67	  380.39
    101.6700	 1450.00	 1407.68	-1731.68	  380.15
    101.7700	 1352.00	 1333.60	-1755.60	  379.91
    101.8700	 1296.00	 1270.91	-1748.91	  379.67
    101.9700	 1221.00	 1220.03	-1773.03	  379.44
    102.0700	 1163.00	 1180.36	-1791.36	  379.20
    102.1700	 1182.00	 1150.40	-1742.40	  378.96
    102.2700	 1130.00	 1127.99	-1771.99	  378.72
    102.3700	 1105.00	 1110.45	-1779.45	  378.49
    102.4700	 1062.00	 1094.92	-1806.92	  378.25
    102.5700	 1089.00	 1078.70	-1763.70	  378.01
    102.6700	 1108.00	 1059.58	-1725.58	  377.77
    102.7700	  974.00	 1036.15	-1836.15	  377.53
    102.8700	  981.00	 1007.87	-1800.86	  377.30
    102.9700	  956.00	  975.01	-1793.01	  377.06
    103.0700	  941.00	  938.43	-1771.43	  376.82
    103.1700	  822.00	  899.30	-1851.30	  376.59
    103.2700	  866.00	  858.94	-1766.94	  376.35
    103.3700	  791.00	  818.61	-1801.61	  376.11
    103.4700	  793.00	  779.50	-1760.50	  375.88
    103.5700	  761.00	  742.57	-1755.57	  375.64
    103.6700	  682.00	  708.60	-1800.60	  375.40
    103.7700	  677.00	  678.11	-1775.11	  375.17
    103.8700	  662.00	  651.40	-1763.40	  374.93
    103.9700	  670.00	  628.56	-1732.56	  374.70
    104.0700	  625.00	  609.47	-1758.47	  374.46
    104.1700	  591.00	  593.91	-1776.91	  374.23
    104.2700	  583.00	  581.54	-1772.54	  374.00
    104.3700	  609.00	  571.97	-1736.97	  373.76
    104.4700	  545.00	  564.82	-1793.82	  373.53
    104.5700	  544.00	  559.68	-1789.68	  373.30
    104.6700	  591.00	  556.19	-1739.19	  373.07
    104.7700	  562.00	  554.03	-1766.03	  372.84
    104.8700	  544.00	  552.92	-1782.92	  372.61
    104.9700	  533.00	  552.66	-1793.66	  372.38
    105.0700	  556.00	  553.06	-1771.06	  372.15
    105.1700	  534.00	  553.99	-1793.99	  371.92
    105.2700	  558.00	  555.36	-1771.36	  371.69
    105.3700	  573.00	  557.15	-1758.15	  371.46
    105.4700	  575.00	  559.33	-1758.33	  371.24
    105.5700	  546.00	  561.94	-1789.94	  371.01
    105.6700	  532.00	  565.06	-1807.06	  370.79
    105.7700	  565.00	  568.79	-1777.79	  370.56
    105.8700	  564.00	  573.22	-1783.22	  370.34
    105.9700	  550.00	  578.46	-1802.46	  370.12
    106.0700	  575.00	  584.58	-1783.58	  369.90
    106.1700	  608.00	  591.62	-1757.62	  369.68
    106.2700	  595.00	  599.55	-1778.55	  369.46
    106.3700	  590.00	  608.27	-1792.27	  369.24
    106.4700	  528.00	  617.65	-1863.65	  369.02
    106.5700	  564.00	  627.45	-1837.45	  368.80
    106.6700	  624.00	  637.42	-1787.42	  368.59
    106.7700	  665.00	  647.22	-1756.22	  368.38
    106.8700	  615.00	  656.49	-1815.49	  368.16
    106.9700	  655.00	  664.86	-1783.86	  367.95
    107.0700	  657.00	  671.99	-1788.99	  367.74
    107.1700	  705.00	  677.60	-1746.60	  367.53
    107.2700	  679.00	  681.56	-1776.56	  367.32
    107.3700	  703.00	  683.86	-1754.86	  367.11
    107.4700	  631.00	  684.70	-1827.70	  366.91
    107.5700	  670.00	  684.38	-1788.38	  366.70
    107.6700	  669.00	  683.32	-1788.32	  366.50
    107.7700	  704.00	  681.94	-1751.94	  366.30
    107.8700	  640.00	  680.64	-1814.64	  366.10
    107.9700	  695.00	  679.74	-1758.74	  365.90
    108.0700	  628.00	  679.47	-1825.47	  365.70
    108.1700	  724.00	  679.95	-1729.95	  365.51
    108.2700	  709.00	  681.16	-1746.16	  365.31
    108.3700	  702.00	  682.98	-1754.98	  365.12
    108.4700	  739.00	  685.16	-1720.16	  364.93
    108.5700	  663.00	  687.38	-1798.38	  364.74
    108.6700	  692.00	  689.23	-1771.23	  364.55
    108.7700	  642.00	  690.28	-1822.28	  364.37
    108.8700	  682.00	  690.11	-1782.11	  364.18
    108.9700	  647.00	  688.39	-1815.39	  364.00
    109.0700	  666.00	  684.91	-1792.91	  363.82
    109.1700	  687.00	  679.60	-1766.60	  363.64
    109.2700	  701.00	  672.57	-1745.57	  363.47
    109.3700	  632.00	  664.05	-1806.05	  363.29
    109.4700	  676.00	  654.33	-1752.33	  363.12
    109.5700	  663.00	  643.80	-1754.80	  362.95
    109.6700	  670.00	  632.80	-1736.80	  362.78
    109.7700	  613.00	  621.71	-1782.71	  362.61
    109.8700	  577.00	  610.84	-1807.84	  362.45
    109.9700	  606.00	  600.47	-1768.47	  362.28
    110.0700	  609.00	  590.82	-1755.82	  362.12
    110.1700	  594.00	  582.08	-1762.08	  361.96
    110.2700	  548.00	  574.35	-1800.35	  361.81
    110.3700	  545.00	  567.69	-1796.69	  361.65
    110.4700	  546.00	  562.12	-1790.12	  361.50
    110.5700	  632.00	  557.60	-1699.60	  361.35
    110.6700	  549.00	  554.08	-1779.08	  361.21
    110.7700	  568.00	  551.48	-1757.48	  361.06
    110.8700	  510.00	  549.69	-1813.69	  360.92
    110.9700	  545.00	  548.63	-1777.63	  360.78
    111.0700	  524.00	  548.19	-1798.19	  360.64
    111.1700	  528.00	  548.29	-1794.29	  360.51
    111.2700	  573.00	  548.85	-1749.85	  360.37
    111.3700	  504.00	  549.79	-1819.79	  360.25
    111.4700	  572.00	  551.05	-1753.05	  360.12
    111.5700	  528.00	  552.60	-1798.60	  359.99
    111.6700	  542.00	  554.39	-1786.39	  359.87
    111.7700	  512.00	  556.40	-1818.40	  359.75
    111.8700	  533.00	  558.62	-1799.62	  359.64
    111.9700	  541.00	  561.04	-1794.04	  359.53
    112.0700	  595.00	  563.67	-1742.67	  359.42
    112.1700	  559.00	  566.51	-1781.51	  359.31
    112.2700	  553.00	  569.58	-1790.58	  359.20
    112.3700	  591.00	  572.92	-1755.92	  359.10
    112.4700	  601.00	  576.56	-1749.56	  359.01
    112.5700	  622.00	  580.54	-1732.54	  358.91
    112.6700	  607.00	  584.94	-1751.94	  358.82
    112.7700	  614.00	  589.84	-1749.84	  358.73
    112.8700	  613.00	  595.34	-1756.34	  358.64
    112.9700	  642.00	  601.57	-1733.57	  358.56
    113.0700	  697.00	  608.74	-1685.74	  358.48
    113.1700	  694.00	  617.09	-1697.09	  358.41
    113.2700	  692.00	  626.90	-1708.90	  358.34
    113.3700	  711.00	  638.60	-1701.60	  358.27
    113.4700	  724.00	  652.66	-1702.66	  358.20
    113.5700	  851.00	  669.72	-1592.72	  358.14
    113.6700	  848.00	  690.58	-1616.58	  358.08
    113.7700	  902.00	  716.17	-1588.17	  358.03
    113.8700	  924.00	  747.66	-1597.66	  357.97
    113.9700	  981.00	  786.38	-1579.38	  357.93
    114.0700	  950.00	  833.94	-1657.94	  357.88
    114.1700	 1100.00	  892.12	-1566.12	  357.84
    114.2700	 1169.00	  962.95	-1567.95	  357.81
    114.3700	 1207.00	 1048.59	-1615.59	  357.77
    114.4700	 1264.00	 1151.36	-1661.36	  357.75
    114.5700	 1343.00	 1273.63	-1704.63	  357.72
    114.6700	 1592.00	 1417.76	-1599.76	  357.70
    114.7700	 1692.00	 1585.92	-1667.92	  357.68
    114.8700	 1883.00	 1780.00	-1671.00	  357.67
    114.9700	 2131.00	 2001.43	-1644.43	  357.66
    115.0700	 2318.00	 2251.08	-1707.08	  357.66
    115.1700	 2541.00	 2529.10	-1762.10	  357.66
    115.2700	 2783.00	 2834.63	-1825.63	  357.66
    115.3700	 3072.00	 3165.82	-1867.82	  357.67
    115.4700	 3444.00	 3519.62	-1849.62	  357.68
    115.5700	 3758.00	 3891.84	-1907.84	  357.70
    115.6700	 3990.00	 4277.09	-2061.09	  357.72
    115.7700	 4498.00	 4668.58	-1944.58	  357.75
    115.8700	 4889.00	 5058.42	-1943.42	  357.78
    115.9700	 5065.00	 5437.54	-2146.54	  357.81
    116.0700	 5492.00	 5796.06	-2078.06	  357.85
    116.1700	 6021.00	 6123.42	-1876.42	  357.90
    116.2700	 6343.00	 6408.69	-1839.69	  357.95
    116.3700	 6651.00	 6641.36	-1764.36	  358.00
    116.4700	 6684.00	 6811.95	-1901.95	  358.06
    116.5700	 7001.00	 6913.14	-1686.14	  358.12
    116.6700	 7045.00	 6940.37	-1669.37	  358.19
    116.7700	 7096.00	 6892.57	-1570.57	  358.27
    116.8700	 6942.00	 6772.28	-1604.28	  358.34
    116.9700	 6792.00	 6585.32	-1567.32	  358.43
    117.0700	 6487.00	 6340.01	-1627.01	  358.52
    117.1700	 6190.00	 6046.22	-1630.22	  358.61
    117.2700	 5526.00	 5714.67	-1962.67	  358.71
    117.3700	 5326.00	 5356.08	-1804.08	  358.81
    117.4700	 4972.00	 4980.77	-1782.77	  358.92
    117.5700	 4596.00	 4598.11	-1776.11	  359.04
    117.6700	 4392.00	 4216.47	-1598.47	  359.16
    117.7700	 3880.00	 3843.14	-1737.14	  359.28
    117.8700	 3575.00	 3484.16	-1683.16	  359.41
    117.9700	 3215.00	 3144.37	-1703.37	  359.55
    118.0700	 2907.00	 2827.25	-1694.25	  359.69
    118.1700	 2611.00	 2535.19	-1698.19	  359.84
    118.2700	 2272.00	 2269.59	-1771.59	  359.99
    118.3700	 1955.00	 2030.89	-1849.89	  360.15
    118.4700	 1765.00	 1818.76	-1827.76	  360.32
    118.5700	 1489.00	 1632.17	-1917.17	  360.49
    118.6700	 1385.00	 1469.64	-1858.64	  360.67
    118.7700	 1211.00	 1329.33	-1892.33	  360.85
    118.8700	 1188.00	 1209.22	-1795.22	  361.04
    118.9700	 1021.00	 1107.15	-1860.15	  361.23
    119.0700	  938.00	 1020.96	-1856.96	  361.44
    119.1700	  872.00	  948.55	-1850.55	  361.64
    119.2700	  849.00	  887.98	-1812.98	  361.86
    119.3700	  806.00	  837.49	-1805.49	  362.08
    119.4700	  766.00	  795.49	-1803.49	  362.30
    119.5700	  707.00	  760.59	-1827.59	  362.54
    119.6700	  645.00	  731.58	-1860.58	  362.78
    119.7700	  638.00	  707.46	-1843.46	  363.02
    119.8700	  624.00	  687.38	-1837.38	  363.27
    119.9700	  658.00	  670.65	-1786.65	  363.53
    120.0700	  599.00	  656.67	-1831.67	  363.80
    120.1700	  620.00	  645.00	-1799.00	  364.07
    120.2700	  566.00	  635.25	-1843.25	  364.35
    120.3700	  603.00	  627.11	-1798.11	  364.64
    120.4700	  573.00	  620.36	-1821.36	  364.93
    120.5700	  557.00	  614.80	-1831.80	  365.23
    120.6700	  549.00	  610.28	-1835.28	  365.54
    120.7700	  546.00	  606.68	-1834.68	  365.85
    120.8700	  602.00	  603.92	-1775.92	  366.17
    120.9700	  592.00	  601.91	-1783.91	  366.50
    121.0700	  593.00	  600.60	-1781.60	  366.84
    121.1700	  564.00	  599.94	-1809.94	  367.18
    121.2700	  600.00	  599.89	-1773.89	  367.53
    121.3700	  578.00	  600.39	-1796.39	  367.89
    121.4700	  564.00	  601.41	-1811.41	  368.25
    121.5700	  609.00	  602.91	-1767.91	  368.63
    121.6700	  599.00	  604.82	-1779.82	  369.01
    121.7700	  583.00	  607.07	-1798.07	  369.40
    121.8700	  618.00	  609.64	-1765.64	  369.79
    121.9700	  584.00	  612.43	-1802.43	  370.20
    122.0700	  605.00	  615.36	-1784.36	  370.61
    122.1700	  618.00	  618.36	-1774.36	  371.03
    122.2700	  627.00	  621.32	-1768.32	  371.46
    122.3700	  615.00	  624.15	-1783.15	  371.89
    122.4700	  679.00	  626.77	-1721.77	  372.34
    122.5700	  609.00	  629.08	-1794.08	  372.79
    122.6700	  642.00	  631.00	-1763.00	  373.25
    122.7700	  651.00	  632.45	-1755.45	  373.72
    122.8700	  685.00	  633.40	-1722.40	  374.20
    122.9700	  684.00	  633.81	-1723.81	  374.68
    123.0700	  678.00	  633.68	-1729.68	  375.18
    123.1700	  665.00	  633.03	-1742.03	  375.68
    123.2700	  623.00	  631.89	-1782.89	  376.19
    123.3700	  634.00	  630.31	-1770.31	  376.71
    123.4700	  665.00	  628.36	-1737.36	  377.24
    123.5700	  596.00	  626.09	-1804.09	  377.78
    123.6700	  616.00	  623.56	-1781.56	  378.32
    123.7700	  674.00	  620.86	-1720.86	  378.88
    123.8700	  581.00	  618.03	-1811.03	  379.44
    123.9700	  665.00	  615.14	-1724.14	  380.02
    124.0700	  600.00	  612.24	-1786.24	  380.60
    124.1700	  623.00	  609.38	-1760.38	  381.19
    124.2700	  656.00	  606.59	-1724.59	  381.79
    124.3700	  631.00	  603.92	-1746.92	  382.40
    124.4700	  615.00	  601.38	-1760.38	  383.02
    124.5700	  597.00	  598.99	-1775.99	  383.65
    124.6700	  632.00	  596.78	-1738.78	  384.29
    124.7700	  613.00	  594.76	-1755.76	  384.94
    124.8700	  602.00	  592.93	-1764.93	  385.60
    124.9700	  621.00	  505.49	-1658.49	  386.27
    125.0700	  568.00	  506.16	-1774.00	  386.95
    125.1700	  520.00	  506.85	-1774.00	  387.63
    125.2700	  625.00	  507.55	-1774.00	  388.33
    125.3700	  563.00	  508.26	-1774.00	  389.04
    125.4700	  579.00	  508.98	-1774.00	  389.76
    125.5700	  561.00	  509.71	-1774.00	  390.49
    125.6700	  552.00	  510.44	-1774.00	  391.22
    125.7700	  525.00	  511.19	-1774.00	  391.97
    125.8700	  570.00	  511.95	-1774.00	  392.73
    125.9700	  591.00	  512.72	-1774.00	  393.50
    126.0700	  573.00	  513.50	-1774.00	  394.28
    126.1700	  558.00	  514.29	-1774.00	  395.07
    126.2700	  544.00	  515.09	-1774.00	  395.88
    126.3700	  568.00	  515.91	-1774.00	  396.69
    126.4700	  563.00	  516.73	-1774.00	  397.51
    126.5700	  592.00	  517.56	-1774.00	  398.34
    126.6700	  551.00	  518.41	-1774.00	  399.19
    126.7700	  615.00	  519.27	-1774.00	  400.05
    126.8700	  579.00	  520.13	-1774.00	  400.91
    126.9700	  602.00	  521.01	-1774.00	  401.79
    127.0700	  635.00	  521.90	-1774.00	  402.68
    127.1700	  657.00	  522.80	-1774.00	  403.58
    127.2700	  678.00	  523.71	-1774.00	  404.50
    127.3700	  607.00	  524.64	-1774.00	  405.42
    127.4700	  682.00	  525.57	-1774.00	  406.35
    127.5700	  682.00	  526.52	-1774.00	  407.30
    127.6700	  715.00	  527.48	-1774.00	  408.26
    127.7700	  735.00	  528.45	-1774.00	  409.23
    127.8700	  727.00	  529.43	-1774.00	  410.21
    127.9700	  733.00	  530.43	-1774.00	  411.21
    128.0700	  739.00	  531.44	-1774.00	  412.22
    128.1700	  746.00	  532.45	-1774.00	  413.23
    128.2700	  799.00	  533.48	-1774.00	  414.27
    128.3700	  766.00	  534.53	-1774.00	  415.31
    128.4700	  824.00	  535.58	-1774.00	  416.36
    128.5700	    0.00	  536.65	-1774.00	  417.43
    128.6700	    0.00	  537.73	-1774.00	  418.51
     12.3072	        	        	        	        	       0	(  0  0  2)	  0  1
     24.8867	        	        	        	        	       0	(  0  0  4)	  0  1
     28.3348	        	        	        	        	       0	(  1  0  0)	  0  1
     29.0316	        	        	        	        	       0	(  1  0  1)	  0  1
     31.0368	        	        	        	        	       0	(  1  0  2)	  0  1
     34.1436	        	        	        	        	       0	(  1  0  3)	  0  1
     37.7818	        	        	        	        	       0	(  0  0  6)	  0  1
     38.1188	        	        	        	        	       0	(  1  0  4)	  0  1
     42.7668	        	        	        	        	       0	(  1  0  5)	  0  1
     47.9486	        	        	        	        	       0	(  1  0  6)	  0  1
     50.2708	        	        	        	        	       0	(  1  1  0)	  0  1
     51.1987	        	        	        	        	       0	(  0  0  8)	  0  1
     51.9928	        	        	        	        	       0	(  1  1  2)	  0  1
     53.5766	        	        	        	        	       0	(  1  0  7)	  0  1
     56.9381	        	        	        	        	       0	(  1  1  4)	  0  1
     58.7674	        	        	        	        	       0	(  2  0  0)	  0  1
     59.1587	        	        	        	        	       0	(  2  0  1)	  0  1
     59.6043	        	        	        	        	       0	(  1  0  8)	  0  1
     60.3235	        	        	        	        	       0	(  2  0  2)	  0  1
     62.2356	        	        	        	        	       0	(  2  0  3)	  0  1
     64.6287	        	        	        	        	       0	(  1  1  6)	  0  1
     64.8583	        	        	        	        	       0	(  2  0  4)	  0  1
     65.4219	        	        	        	        	       0	(  0  0 10)	  0  1
     66.0176	        	        	        	        	       0	(  1  0  9)	  0  1
     68.1507	        	        	        	        	       0	(  2  0  5)	  0  1
     72.0761	        	        	        	        	       0	(  2  0  6)	  0  1
     72.8304	        	        	        	        	       0	(  1  0 10)	  0  1
     74.6612	        	        	        	        	       0	(  1  1  8)	  0  1
     76.6077	        	        	        	        	       0	(  2  0  7)	  0  1
     80.0842	        	        	        	        	       0	(  1  0 11)	  0  1
     80.8945	        	        	        	        	       0	(  0  0 12)	  0  1
     81.0074	        	        	        	        	       0	(  2  1  0)	  0  1
     81.3470	        	        	        	        	       0	(  2  1  1)	  0  1
     81.7351	        	        	        	        	       0	(  2  0  8)	  0  1
     82.3643	        	        	        	        	       0	(  2  1  2)	  0  1
     84.0546	        	        	        	        	       0	(  2  1  3)	  0  1
     86.4129	        	        	        	        	       0	(  2  1  4)	  0  1
     86.9256	        	        	        	        	       0	(  1  1 10)	  0  1
     87.4697	        	        	        	        	       0	(  2  0  9)	  0  1
     87.8539	        	        	        	        	       0	(  1  0 12)	  0  1
     89.4368	        	        	        	        	       0	(  2  1  5)	  0  1
     93.1320	        	        	        	        	       0	(  2  1  6)	  0  1
     93.8531	        	        	        	        	       0	(  2  0 10)	  0  1
     94.8953	        	        	        	        	       0	(  3  0  0)	  0  1
     95.2324	        	        	        	        	       0	(  3  0  1)	  0  1
     96.2450	        	        	        	        	       0	(  3  0  2)	  0  1
     96.2616	        	        	        	        	       0	(  1  0 13)	  0  1
     97.5178	        	        	        	        	       0	(  2  1  7)	  0  1
     97.9373	        	        	        	        	       0	(  3  0  3)	  0  1
     98.4226	        	        	        	        	       0	(  0  0 14)	  0  1
    100.3188	        	        	        	        	       0	(  3  0  4)	  0  1
    100.9701	        	        	        	        	       0	(  2  0 11)	  0  1
    101.7860	        	        	        	        	       0	(  1  1 12)	  0  1
    102.6368	        	        	        	        	       0	(  2  1  8)	  0  1
    103.4084	        	        	        	        	       0	(  3  0  5)	  0  1
    105.5072	        	        	        	        	       0	(  1  0 14)	  0  1
    107.2409	        	        	        	        	       0	(  3  0  6)	  0  1
    108.5694	        	        	        	        	       0	(  2  1  9)	  0  1
    108.9752	        	        	        	        	       0	(  2  0 12)	  0  1
    111.8780	        	        	        	        	       0	(  3  0  7)	  0  1
    115.4608	        	        	        	        	       0	(  2  1 10)	  0  1
    115.9408	        	        	        	        	       0	(  1  0 15)	  0  1
    116.6184	        	        	        	        	       0	(  2  2  0)	  0  1
    117.4271	        	        	        	        	       0	(  3  0  8)	  0  1
    118.1325	        	        	        	        	       0	(  2  2  2)	  0  1
    118.1512	        	        	        	        	       0	(  2  0 13)	  0  1
    119.8907	        	        	        	        	       0	(  0  0 16)	  0  1
    120.6133	        	        	        	        	       0	(  1  1 14)	  0  1
    122.8147	        	        	        	        	       0	(  2  2  4)	  0  1
    123.5804	        	        	        	        	       0	(  2  1 11)	  0  1
    124.0814	        	        	        	        	       0	(  3  0  9)	  0  1
    124.6826	        	        	        	        	       0	(  3  1  0)	  0  1
    125.0925	        	        	        	        	       0	(  3  1  1)	  0  1
    126.3351	        	        	        	        	       0	(  3  1  2)	  0  1
    128.2689	        	        	        	        	       0	(  1  0 16)	  0  1
    128.4518	        	        	        	        	       0	(  3  1  3)	  0  1
    129.0687	        	        	        	        	       0	(  2  0 14)	  0  1
    131.2478	        	        	        	        	       0	(  2  2  6)	  0  1
    131.5253	        	        	        	        	       0	(  3  1  4)	  0  1
    132.2140	        	        	        	        	       0	(  3  0 10)	  0  1
    133.4816	        	        	        	        	       0	(  2  1 12)	  0  1
    135.7088	        	        	        	        	       0	(  3  1  5)	  0  1
    141.2990	        	        	        	        	       0	(  3  1  6)	  0  1
    142.6793	        	        	        	        	       0	(  3  0 11)	  0  1
    143.1852	        	        	        	        	       0	(  2  0 15)	  0  1
    144.4073	        	        	        	        	       0	(  1  0 17)	  0  1
    145.4669	        	        	        	        	       0	(  2  2  8)	  0  1
    146.6161	        	        	        	        	       0	(  2  1 13)	  0  1
    148.9632	        	        	        	        	       0	(  3  1  7)	  0  1
    149.4977	        	        	        	        	       0	(  1  1 16)	  0  1
    153.8645	        	        	        	        	       0	(  0  0 18)	  0  1
    158.5213	        	        	        	        	       0	(  3  0 12)	  0  1
    158.8295	        	        	        	        	       0	(  4  0  0)	  0  1
    159.7851	        	        	        	        	       0	(  4  0  1)	  0  1
    160.9343	        	        	        	        	       0	(  3  1  8)	  0  1
    162.9593	        	        	        	        	       0	(  4  0  2)	  0  1
    169.4626	        	        	        	        	       0	(  2  0 16)	  0  1
    170.2867	        	        	        	        	       0	(  4  0  3)	  0  1
    173.8137	        	        	        	        	       0	(  2  1 14)	  0  1
