MSG Master    CELL:    5.88667   5.88667  23.13685   90.0000   90.0000  120.0000   SPGR: P 63/m m c             TEMP:    614.85
  2   1280     2.52000     0.00000    -0.09315     0.00000     0.00000    0
    96    96     0     0     2
       0.00000      10.00000
     125.00000     130.00000
 2Theta	Yobs	Ycal	Yobs-Ycal	Backg	Posr	(hkl)	K
      0.7700	    0.00	  787.01	-1903.51	  658.71
      0.8700	    0.00	  785.69	-1903.51	  657.39
      0.9700	   47.00	  784.37	-1903.51	  656.07
      1.0700	   39.00	  783.06	-1903.51	  654.76
      1.1700	   47.00	  781.75	-1903.51	  653.45
      1.2700	   39.00	  780.45	-1903.51	  652.15
      1.3700	   43.00	  779.15	-1903.51	  650.85
      1.4700	  107.00	  777.86	-1903.51	  649.56
      1.5700	  285.00	  776.57	-1903.51	  648.27
      1.6700	  462.00	  775.28	-1903.51	  646.98
      1.7700	  552.00	  774.00	-1903.51	  645.70
      1.8700	  671.00	  772.73	-1903.51	  644.43
      1.9700	  758.00	  771.45	-1903.51	  643.16
      2.0700	  804.00	  770.19	-1903.51	  641.89
      2.1700	  789.00	  768.93	-1903.51	  640.63
      2.2700	  804.00	  767.67	-1903.51	  639.37
      2.3700	  747.00	  766.42	-1903.51	  638.12
      2.4700	  775.00	  765.17	-1903.51	  636.87
      2.5700	  694.00	  763.92	-1903.51	  635.62
      2.6700	  689.00	  762.68	-1903.51	  634.38
      2.7700	  676.00	  761.45	-1903.51	  633.15
      2.8700	  642.00	  760.22	-1903.51	  631.92
      2.9700	  578.00	  758.99	-1903.51	  630.69
      3.0700	  626.00	  757.77	-1903.51	  629.47
      3.1700	  613.00	  756.55	-1903.51	  628.26
      3.2700	  701.00	  755.34	-1903.51	  627.04
      3.3700	  897.00	  754.13	-1903.51	  625.83
      3.4700	 1099.00	  752.93	-1903.51	  624.63
      3.5700	 1186.00	  751.73	-1903.51	  623.43
      3.6700	 1313.00	  750.54	-1903.51	  622.24
      3.7700	 1452.00	  749.35	-1903.51	  621.05
      3.8700	 1504.00	  748.16	-1903.51	  619.86
      3.9700	 1615.00	  746.98	-1903.51	  618.68
      4.0700	 1583.00	  745.80	-1903.51	  617.51
      4.1700	 1668.00	  744.63	-1903.51	  616.33
      4.2700	 1738.00	  743.46	-1903.51	  615.17
      4.3700	 1610.00	  742.30	-1903.51	  614.00
      4.4700	 1595.00	  741.14	-1903.51	  612.84
      4.5700	 1451.00	  739.99	-1903.51	  611.69
      4.6700	 1495.00	  738.84	-1903.51	  610.54
      4.7700	 1497.00	  737.69	-1903.51	  609.40
      4.8700	 1409.00	  736.55	-1903.51	  608.25
      4.9700	 1335.00	  735.42	-1903.51	  607.12
      5.0700	 1298.00	  734.28	-1903.51	  605.99
      5.1700	 1319.00	  733.16	-1903.51	  604.86
      5.2700	 1215.00	  732.03	-1903.51	  603.74
      5.3700	 1219.00	  730.92	-1903.51	  602.62
      5.4700	 1204.00	  729.80	-1903.51	  601.50
      5.5700	 1206.00	  728.69	-1903.51	  600.39
      5.6700	 1145.00	  727.59	-1903.51	  599.29
      5.7700	 1119.00	  726.49	-1903.51	  598.19
      5.8700	 1077.00	  725.39	-1903.51	  597.09
      5.9700	 1139.00	  724.30	-1903.51	  596.00
      6.0700	  967.00	  723.21	-1903.51	  594.91
      6.1700	 1008.00	  722.13	-1903.51	  593.83
      6.2700	  989.00	  721.05	-1903.51	  592.75
      6.3700	  984.00	  719.97	-1903.51	  591.67
      6.4700	 1003.00	  718.90	-1903.51	  590.60
      6.5700	  978.00	  717.84	-1903.51	  589.54
      6.6700	  931.00	  716.77	-1903.51	  588.48
      6.7700	  923.00	  715.72	-1903.51	  587.42
      6.8700	  928.00	  714.66	-1903.51	  586.36
      6.9700	  821.00	  713.61	-1903.51	  585.32
      7.0700	  875.00	  712.57	-1903.51	  584.27
      7.1700	  835.00	  711.53	-1903.51	  583.23
      7.2700	  876.00	  710.50	-1903.51	  582.20
      7.3700	  817.00	  709.46	-1903.51	  581.17
      7.4700	  819.00	  708.44	-1903.51	  580.14
      7.5700	  862.00	  707.41	-1903.51	  579.12
      7.6700	  818.00	  706.40	-1903.51	  578.10
      7.7700	  820.00	  705.38	-1903.51	  577.08
      7.8700	  787.00	  704.37	-1903.51	  576.07
      7.9700	  748.00	  703.37	-1903.51	  575.07
      8.0700	  807.00	  702.37	-1903.51	  574.07
      8.1700	  758.00	  701.37	-1903.51	  573.07
      8.2700	  777.00	  700.38	-1903.51	  572.08
      8.3700	  763.00	  699.39	-1903.51	  571.09
      8.4700	  734.00	  698.40	-1903.51	  570.11
      8.5700	  742.00	  697.42	-1903.51	  569.13
      8.6700	  748.00	  696.45	-1903.51	  568.15
      8.7700	  731.00	  695.48	-1903.51	  567.18
      8.8700	  723.00	  694.51	-1903.51	  566.21
      8.9700	  732.00	  693.55	-1903.51	  565.25
      9.0700	  705.00	  692.59	-1903.51	  564.29
      9.1700	  743.00	  691.64	-1903.51	  563.34
      9.2700	  695.00	  690.68	-1903.51	  562.39
      9.3700	  713.00	  689.74	-1903.51	  561.44
      9.4700	  759.00	  688.80	-1903.51	  560.50
      9.5700	  696.00	  687.86	-1903.51	  559.56
      9.6700	  680.00	  686.93	-1903.51	  558.63
      9.7700	  696.00	  686.00	-1903.51	  557.70
      9.8700	  756.00	  685.07	-1903.51	  556.77
      9.9700	  736.00	  684.15	-1903.51	  555.85
     10.0700	  743.00	  685.30	-1845.81	  554.94
     10.1700	  698.00	  684.62	-1890.12	  554.02
     10.2700	  707.00	  683.98	-1880.49	  553.12
     10.3700	  664.00	  683.42	-1922.92	  552.21
     10.4700	  696.00	  682.95	-1890.45	  551.31
     10.5700	  732.00	  682.62	-1854.13	  550.42
     10.6700	  680.00	  682.50	-1906.01	  549.52
     10.7700	  688.00	  682.69	-1898.19	  548.64
     10.8700	  647.00	  683.27	-1939.78	  547.75
     10.9700	  668.00	  684.35	-1919.86	  546.87
     11.0700	  710.00	  685.95	-1879.46	  546.00
     11.1700	  716.00	  688.09	-1875.60	  545.13
     11.2700	  702.00	  690.79	-1892.30	  544.26
     11.3700	  683.00	  694.11	-1914.61	  543.40
     11.4700	  699.00	  698.14	-1902.65	  542.54
     11.5700	  673.00	  703.08	-1933.58	  541.68
     11.6700	  686.00	  709.17	-1926.68	  540.83
     11.7700	  680.00	  716.77	-1940.27	  539.99
     11.8700	  775.00	  726.20	-1854.70	  539.14
     11.9700	  770.00	  737.50	-1871.01	  538.30
     12.0700	  816.00	  749.92	-1837.43	  537.47
     12.1700	  888.00	  761.23	-1776.74	  536.64
     12.2700	  883.00	  767.19	-1787.69	  535.81
     12.3700	  785.00	  762.38	-1880.89	  534.99
     12.4700	  791.00	  745.53	-1858.04	  534.17
     12.5700	  694.00	  723.43	-1932.94	  533.36
     12.6700	  713.00	  703.62	-1894.12	  532.55
     12.7700	  659.00	  688.87	-1933.37	  531.74
     12.8700	  661.00	  678.89	-1921.40	  530.94
     12.9700	  648.00	  672.42	-1927.92	  530.14
     13.0700	  658.00	  668.18	-1913.68	  529.34
     13.1700	  661.00	  665.17	-1907.68	  528.55
     13.2700	  656.00	  662.88	-1910.38	  527.77
     13.3700	  621.00	  660.99	-1943.49	  526.98
     13.4700	  562.00	  659.37	-2000.87	  526.21
     13.5700	  644.00	  657.93	-1917.43	  525.43
     13.6700	  625.00	  656.63	-1935.13	  524.66
     13.7700	  657.00	  655.42	-1901.93	  523.89
     13.8700	  640.00	  654.30	-1917.81	  523.13
     13.9700	  646.00	  653.24	-1910.75	  522.37
     14.0700	  705.00	  652.24	-1850.74	  521.62
     14.1700	  654.00	  651.27	-1900.77	  520.86
     14.2700	  662.00	  650.34	-1891.84	  520.12
     14.3700	  632.00	  649.43	-1920.94	  519.37
     14.4700	  620.00	  648.56	-1932.06	  518.63
     14.5700	  653.00	  647.70	-1898.20	  517.90
     14.6700	  619.00	  646.86	-1931.36	  517.16
     14.7700	  631.00	  646.04	-1918.54	  516.44
     14.8700	  604.00	  645.23	-1944.73	  515.71
     14.9700	  666.00	  644.43	-1881.94	  514.99
     15.0700	  669.00	  643.65	-1878.15	  514.27
     15.1700	  646.00	  642.87	-1900.38	  513.56
     15.2700	  646.00	  642.11	-1899.62	  512.85
     15.3700	  650.00	  641.36	-1894.86	  512.15
     15.4700	  635.00	  640.61	-1909.12	  511.45
     15.5700	  611.00	  639.87	-1932.38	  510.75
     15.6700	  662.00	  639.14	-1880.65	  510.05
     15.7700	  641.00	  638.42	-1900.92	  509.36
     15.8700	  646.00	  637.70	-1895.20	  508.68
     15.9700	  616.00	  636.99	-1924.49	  507.99
     16.0700	  638.00	  636.28	-1901.79	  507.32
     16.1700	  622.00	  635.58	-1917.09	  506.64
     16.2700	  587.00	  634.89	-1951.39	  505.97
     16.3700	  649.00	  634.20	-1888.71	  505.30
     16.4700	  641.00	  633.52	-1896.02	  504.64
     16.5700	  640.00	  632.84	-1896.35	  503.98
     16.6700	  630.00	  632.17	-1905.67	  503.32
     16.7700	  601.00	  631.50	-1934.00	  502.67
     16.8700	  622.00	  630.84	-1912.34	  502.02
     16.9700	  623.00	  630.18	-1910.68	  501.37
     17.0700	  626.00	  629.52	-1907.03	  500.73
     17.1700	  630.00	  628.87	-1902.38	  500.09
     17.2700	  625.00	  628.23	-1906.73	  499.46
     17.3700	  576.00	  627.59	-1955.09	  498.83
     17.4700	  635.00	  626.95	-1895.46	  498.20
     17.5700	  621.00	  626.32	-1908.83	  497.57
     17.6700	  607.00	  625.69	-1922.20	  496.95
     17.7700	  639.00	  625.07	-1889.57	  496.34
     17.8700	  667.00	  624.45	-1860.96	  495.72
     17.9700	  608.00	  623.83	-1919.34	  495.11
     18.0700	  651.00	  623.22	-1875.73	  494.51
     18.1700	  664.00	  622.62	-1862.12	  493.91
     18.2700	  637.00	  622.01	-1888.52	  493.31
     18.3700	  599.00	  621.41	-1925.92	  492.71
     18.4700	  630.00	  620.82	-1894.33	  492.12
     18.5700	  612.00	  620.23	-1911.73	  491.53
     18.6700	  638.00	  619.64	-1885.15	  490.95
     18.7700	  620.00	  620.48	-1903.98	  490.37
     18.8700	  622.00	  620.75	-1902.26	  489.79
     18.9700	  630.00	  620.23	-1893.73	  489.22
     19.0700	  608.00	  619.70	-1915.21	  488.64
     19.1700	  585.00	  619.19	-1937.69	  488.08
     19.2700	  630.00	  618.67	-1892.18	  487.51
     19.3700	  587.00	  618.17	-1934.67	  486.95
     19.4700	  633.00	  617.67	-1888.17	  486.40
     19.5700	  617.00	  617.17	-1903.68	  485.84
     19.6700	  612.00	  616.68	-1908.19	  485.29
     19.7700	  608.00	  616.20	-1911.71	  484.75
     19.8700	  601.00	  615.72	-1918.23	  484.21
     19.9700	  627.00	  615.25	-1891.76	  483.67
     20.0700	  624.00	  614.79	-1894.29	  483.13
     20.1700	  587.00	  614.37	-1930.88	  482.60
     20.2700	  615.00	  613.92	-1902.43	  482.07
     20.3700	  614.00	  613.48	-1902.98	  481.54
     20.4700	  627.00	  613.04	-1889.55	  481.02
     20.5700	  667.00	  612.61	-1849.12	  480.50
     20.6700	  605.00	  612.19	-1910.69	  479.98
     20.7700	  617.00	  611.77	-1898.28	  479.47
     20.8700	  585.00	  611.36	-1929.87	  478.96
     20.9700	  571.00	  610.96	-1943.47	  478.46
     21.0700	  557.00	  610.57	-1957.08	  477.95
     21.1700	  634.00	  610.19	-1879.69	  477.45
     21.2700	  599.00	  609.81	-1914.32	  476.96
     21.3700	  620.00	  609.45	-1892.95	  476.47
     21.4700	  598.00	  609.09	-1914.59	  475.98
     21.5700	  620.00	  608.74	-1892.25	  475.49
     21.6700	  627.00	  608.41	-1884.91	  475.01
     21.7700	  613.00	  608.08	-1898.59	  474.53
     21.8700	  613.00	  607.77	-1898.27	  474.05
     21.9700	  618.00	  607.47	-1892.97	  473.58
     22.0700	  587.00	  607.18	-1923.69	  473.11
     22.1700	  629.00	  606.91	-1881.41	  472.64
     22.2700	  575.00	  606.65	-1935.15	  472.18
     22.3700	  596.00	  606.40	-1913.91	  471.72
     22.4700	  635.00	  606.36	-1874.86	  471.26
     22.5700	  599.00	  606.15	-1910.66	  470.81
     22.6700	  628.00	  605.97	-1881.48	  470.36
     22.7700	  621.00	  605.81	-1888.31	  469.91
     22.8700	  584.00	  605.67	-1925.18	  469.46
     22.9700	  566.00	  605.57	-1943.07	  469.02
     23.0700	  665.00	  605.49	-1844.00	  468.59
     23.1700	  600.00	  605.45	-1908.96	  468.15
     23.2700	  611.00	  605.46	-1897.96	  467.72
     23.3700	  592.00	  605.51	-1917.02	  467.29
     23.4700	  600.00	  605.62	-1909.13	  466.86
     23.5700	  591.00	  605.81	-1918.32	  466.44
     23.6700	  575.00	  606.09	-1934.59	  466.02
     23.7700	  608.00	  606.49	-1902.00	  465.60
     23.8700	  626.00	  607.07	-1884.57	  465.19
     23.9700	  598.00	  607.84	-1913.35	  464.78
     24.0700	  655.00	  609.07	-1857.58	  464.37
     24.1700	  658.00	  610.94	-1856.45	  463.97
     24.2700	  625.00	  613.78	-1892.29	  463.57
     24.3700	  662.00	  618.05	-1859.56	  463.17
     24.4700	  657.00	  624.18	-1870.69	  462.77
     24.5700	  655.00	  632.43	-1880.93	  462.38
     24.6700	  677.00	  642.60	-1869.11	  461.99
     24.7700	  642.00	  653.72	-1915.23	  461.61
     24.8700	  679.00	  663.62	-1888.13	  461.22
     24.9700	  703.00	  668.76	-1869.27	  460.84
     25.0700	  717.00	  665.80	-1852.30	  460.47
     25.1700	  661.00	  655.66	-1898.17	  460.09
     25.2700	  668.00	  643.48	-1878.99	  459.72
     25.3700	  627.00	  633.23	-1909.74	  459.35
     25.4700	  630.00	  626.17	-1899.68	  458.98
     25.5700	  637.00	  621.97	-1888.48	  458.62
     25.6700	  591.00	  619.94	-1932.44	  458.26
     25.7700	  626.00	  619.35	-1896.86	  457.90
     25.8700	  644.00	  619.71	-1879.21	  457.55
     25.9700	  586.00	  620.71	-1938.21	  457.20
     26.0700	  628.00	  622.22	-1897.73	  456.85
     26.1700	  656.00	  624.21	-1871.71	  456.50
     26.2700	  632.00	  626.68	-1898.18	  456.16
     26.3700	  617.00	  629.67	-1916.18	  455.82
     26.4700	  619.00	  633.26	-1917.77	  455.48
     26.5700	  644.00	  637.55	-1897.06	  455.15
     26.6700	  579.00	  642.67	-1967.17	  454.82
     26.7700	  620.00	  648.80	-1932.30	  454.49
     26.8700	  649.00	  656.18	-1910.69	  454.16
     26.9700	  631.00	  665.15	-1937.65	  453.84
     27.0700	  682.00	  676.15	-1897.66	  453.52
     27.1700	  663.00	  689.83	-1930.34	  453.20
     27.2700	  663.00	  707.16	-1947.67	  452.88
     27.3700	  696.00	  729.79	-1937.29	  452.57
     27.4700	  752.00	  760.93	-1912.43	  452.26
     27.5700	  765.00	  807.41	-1945.92	  451.95
     27.6700	  782.00	  883.41	-2004.91	  451.65
     27.7700	  832.00	 1015.66	-2087.16	  451.35
     27.8700	  949.00	 1248.31	-2202.81	  451.05
     27.9700	 1236.00	 1641.35	-2308.85	  450.75
     28.0700	 1863.00	 2252.07	-2292.57	  450.46
     28.1700	 2872.00	 3092.47	-2123.98	  450.17
     28.2700	 4346.00	 4063.77	-1621.28	  449.88
     28.3700	 5668.00	 4896.76	-1132.27	  449.59
     28.4700	 5936.00	 5183.69	-1151.20	  449.31
     28.5700	 5036.00	 4697.02	-1564.52	  449.03
     28.6700	 3760.00	 3819.98	-1963.48	  448.75
     28.7700	 2839.00	 3126.59	-2191.10	  448.48
     28.8700	 2720.00	 2856.01	-2039.51	  448.20
     28.9700	 2966.00	 2941.03	-1878.53	  447.93
     29.0700	 3380.00	 3139.92	-1663.42	  447.66
     29.1700	 3275.00	 3152.45	-1780.96	  447.40
     29.2700	 2834.00	 2800.90	-1870.40	  447.14
     29.3700	 2187.00	 2221.42	-1937.93	  446.87
     29.4700	 1546.00	 1668.06	-2025.57	  446.62
     29.5700	 1156.00	 1263.07	-2010.57	  446.36
     29.6700	  916.00	 1012.23	-1999.73	  446.11
     29.7700	  855.00	  872.23	-1920.74	  445.86
     29.8700	  841.00	  795.76	-1858.27	  445.61
     29.9700	  743.00	  750.89	-1911.40	  445.36
     30.0700	  744.00	  721.36	-1880.87	  445.12
     30.1700	  742.00	  700.16	-1861.67	  444.88
     30.2700	  717.00	  684.41	-1870.91	  444.64
     30.3700	  653.00	  672.92	-1923.43	  444.41
     30.4700	  754.00	  665.44	-1814.95	  444.17
     30.5700	  692.00	  662.44	-1873.95	  443.94
     30.6700	  707.00	  664.95	-1861.45	  443.71
     30.7700	  687.00	  674.00	-1890.51	  443.49
     30.8700	  738.00	  689.49	-1854.99	  443.26
     30.9700	  714.00	  708.78	-1898.28	  443.04
     31.0700	  744.00	  725.80	-1885.30	  442.82
     31.1700	  754.00	  731.37	-1880.88	  442.61
     31.2700	  764.00	  718.46	-1857.97	  442.39
     31.3700	  733.00	  691.59	-1862.10	  442.18
     31.4700	  667.00	  662.73	-1899.23	  441.97
     31.5700	  685.00	  639.35	-1857.86	  441.76
     31.6700	  598.00	  623.20	-1928.71	  441.56
     31.7700	  629.00	  613.07	-1887.58	  441.35
     31.8700	  635.00	  606.92	-1875.43	  441.15
     31.9700	  644.00	  603.04	-1862.55	  440.95
     32.0700	  619.00	  600.38	-1884.89	  440.76
     32.1700	  612.00	  598.42	-1889.93	  440.56
     32.2700	  629.00	  596.92	-1871.43	  440.37
     32.3700	  630.00	  595.79	-1869.30	  440.18
     32.4700	  617.00	  594.97	-1881.48	  439.99
     32.5700	  655.00	  594.46	-1842.96	  439.81
     32.6700	  615.00	  594.24	-1882.74	  439.63
     32.7700	  603.00	  594.34	-1894.84	  439.44
     32.8700	  619.00	  594.79	-1879.30	  439.27
     32.9700	  577.00	  595.67	-1922.18	  439.09
     33.0700	  613.00	  597.11	-1887.61	  438.91
     33.1700	  637.00	  599.22	-1865.72	  438.74
     33.2700	  651.00	  602.36	-1854.86	  438.57
     33.3700	  662.00	  607.16	-1848.67	  438.40
     33.4700	  637.00	  614.89	-1881.40	  438.24
     33.5700	  709.00	  627.91	-1822.42	  438.07
     33.6700	  607.00	  650.16	-1946.67	  437.91
     33.7700	  724.00	  687.15	-1866.66	  437.75
     33.8700	  786.00	  744.51	-1862.02	  437.59
     33.9700	  867.00	  824.27	-1860.78	  437.44
     34.0700	 1013.00	  919.61	-1810.12	  437.28
     34.1700	 1055.00	 1010.81	-1859.31	  437.13
     34.2700	 1210.00	 1065.54	-1759.05	  436.98
     34.3700	 1142.00	 1052.32	-1813.82	  436.83
     34.4700	 1047.00	  973.41	-1829.91	  436.69
     34.5700	  895.00	  868.51	-1877.02	  436.54
     34.6700	  766.00	  773.38	-1910.88	  436.40
     34.7700	  747.00	  702.32	-1858.83	  436.26
     34.8700	  643.00	  655.66	-1916.17	  436.12
     34.9700	  644.00	  627.59	-1887.10	  435.99
     35.0700	  620.00	  611.32	-1894.82	  435.85
     35.1700	  627.00	  601.58	-1878.09	  435.72
     35.2700	  598.00	  595.27	-1900.78	  435.59
     35.3700	  605.00	  590.80	-1889.31	  435.46
     35.4700	  586.00	  587.41	-1904.92	  435.34
     35.5700	  640.00	  584.74	-1848.25	  435.21
     35.6700	  623.00	  582.59	-1863.09	  435.09
     35.7700	  594.00	  580.83	-1890.33	  434.97
     35.8700	  579.00	  579.37	-1903.88	  434.85
     35.9700	  584.00	  578.16	-1897.67	  434.73
     36.0700	  587.00	  577.15	-1893.66	  434.62
     36.1700	  560.00	  576.32	-1919.82	  434.50
     36.2700	  635.00	  575.62	-1844.13	  434.39
     36.3700	  556.00	  575.07	-1922.57	  434.28
     36.4700	  601.00	  574.63	-1877.13	  434.17
     36.5700	  579.00	  574.31	-1898.82	  434.07
     36.6700	  549.00	  574.11	-1928.62	  433.96
     36.7700	  578.00	  574.05	-1899.55	  433.86
     36.8700	  595.00	  574.61	-1883.11	  433.76
     36.9700	  557.00	  574.88	-1921.38	  433.66
     37.0700	  539.00	  575.39	-1939.89	  433.56
     37.1700	  574.00	  576.22	-1905.72	  433.46
     37.2700	  551.00	  577.79	-1930.30	  433.37
     37.3700	  625.00	  580.00	-1858.51	  433.28
     37.4700	  611.00	  583.53	-1876.04	  433.19
     37.5700	  569.00	  589.14	-1923.65	  433.10
     37.6700	  526.00	  597.82	-1975.32	  433.01
     37.7700	  596.00	  610.66	-1918.17	  432.92
     37.8700	  579.00	  628.41	-1952.91	  432.84
     37.9700	  656.00	  650.63	-1898.13	  432.76
     38.0700	  642.00	  675.00	-1936.50	  432.67
     38.1700	  639.00	  696.89	-1961.40	  432.60
     38.2700	  645.00	  709.27	-1967.78	  432.52
     38.3700	  714.00	  703.85	-1893.35	  432.44
     38.4700	  634.00	  683.51	-1953.02	  432.37
     38.5700	  675.00	  655.71	-1884.22	  432.29
     38.6700	  653.00	  629.15	-1879.65	  432.22
     38.7700	  541.00	  608.10	-1970.60	  432.15
     38.8700	  561.00	  593.33	-1935.83	  432.08
     38.9700	  577.00	  583.84	-1910.34	  432.02
     39.0700	  597.00	  578.04	-1884.55	  431.95
     39.1700	  555.00	  574.52	-1923.03	  431.89
     39.2700	  534.00	  572.28	-1941.79	  431.82
     39.3700	  542.00	  570.74	-1932.24	  431.76
     39.4700	  557.00	  569.59	-1916.10	  431.70
     39.5700	  597.00	  568.70	-1875.21	  431.64
     39.6700	  563.00	  567.21	-1907.72	  431.59
     39.7700	  576.00	  566.64	-1894.15	  431.53
     39.8700	  604.00	  566.18	-1865.69	  431.48
     39.9700	  581.00	  565.80	-1888.31	  431.43
     40.0700	  589.00	  565.49	-1879.99	  431.37
     40.1700	  589.00	  565.23	-1879.74	  431.32
     40.2700	  588.00	  565.02	-1880.53	  431.28
     40.3700	  505.00	  564.86	-1963.36	  431.23
     40.4700	  550.00	  564.73	-1918.24	  431.18
     40.5700	  570.00	  564.64	-1898.15	  431.14
     40.6700	  577.00	  564.58	-1891.09	  431.10
     40.7700	  564.00	  565.09	-1904.60	  431.05
     40.8700	  586.00	  565.11	-1882.61	  431.01
     40.9700	  570.00	  565.16	-1898.66	  430.98
     41.0700	  560.00	  565.25	-1908.75	  430.94
     41.1700	  537.00	  565.38	-1931.89	  430.90
     41.2700	  602.00	  565.56	-1867.07	  430.87
     41.3700	  548.00	  565.80	-1921.30	  430.83
     41.4700	  568.00	  566.10	-1901.61	  430.80
     41.5700	  576.00	  566.54	-1894.05	  430.77
     41.6700	  552.00	  567.04	-1918.54	  430.74
     41.7700	  609.00	  567.67	-1862.18	  430.71
     41.8700	  561.00	  568.52	-1911.02	  430.68
     41.9700	  532.00	  569.68	-1941.19	  430.66
     42.0700	  581.00	  571.40	-1893.91	  430.63
     42.1700	  575.00	  574.09	-1902.60	  430.61
     42.2700	  548.00	  578.41	-1933.92	  430.58
     42.3700	  597.00	  585.32	-1891.83	  430.56
     42.4700	  559.00	  595.84	-1940.35	  430.54
     42.5700	  584.00	  610.85	-1930.36	  430.52
     42.6700	  620.00	  630.17	-1913.67	  430.51
     42.7700	  605.00	  651.87	-1950.37	  430.49
     42.8700	  665.00	  671.54	-1910.04	  430.47
     42.9700	  645.00	  682.67	-1941.18	  430.46
     43.0700	  698.00	  679.97	-1885.47	  430.44
     43.1700	  683.00	  664.48	-1884.99	  430.43
     43.2700	  613.00	  642.88	-1933.39	  430.42
     43.3700	  617.00	  621.52	-1908.02	  430.41
     43.4700	  628.00	  603.86	-1879.37	  430.40
     43.5700	  615.00	  590.88	-1879.39	  430.39
     43.6700	  624.00	  582.15	-1861.66	  430.38
     43.7700	  620.00	  576.86	-1860.37	  430.38
     43.8700	  555.00	  573.51	-1922.01	  430.37
     43.9700	  595.00	  571.45	-1879.95	  430.37
     44.0700	  581.00	  570.12	-1892.63	  430.37
     44.1700	  580.00	  569.21	-1892.72	  430.36
     44.2700	  565.00	  568.56	-1907.06	  430.36
     44.3700	  570.00	  568.07	-1901.58	  430.36
     44.4700	  604.00	  567.71	-1867.21	  430.36
     44.5700	  573.00	  567.44	-1897.94	  430.36
     44.6700	  594.00	  567.24	-1876.75	  430.37
     44.7700	  577.00	  567.11	-1893.61	  430.37
     44.8700	  581.00	  567.03	-1889.53	  430.37
     44.9700	  558.00	  567.22	-1912.72	  430.38
     45.0700	  578.00	  567.22	-1892.73	  430.39
     45.1700	  571.00	  567.26	-1899.77	  430.39
     45.2700	  575.00	  567.33	-1895.84	  430.40
     45.3700	  544.00	  567.45	-1926.96	  430.41
     45.4700	  582.00	  567.59	-1889.09	  430.42
     45.5700	  527.00	  567.75	-1944.25	  430.43
     45.6700	  619.00	  567.94	-1852.44	  430.44
     45.7700	  554.00	  568.16	-1917.66	  430.45
     45.8700	  585.00	  568.50	-1887.01	  430.47
     45.9700	  602.00	  568.78	-1870.29	  430.48
     46.0700	  539.00	  569.10	-1933.60	  430.50
     46.1700	  574.00	  569.45	-1898.96	  430.51
     46.2700	  563.00	  569.84	-1910.35	  430.53
     46.3700	  585.00	  570.11	-1888.62	  430.55
     46.4700	  566.00	  570.61	-1908.11	  430.56
     46.5700	  591.00	  571.26	-1883.77	  430.58
     46.6700	  546.00	  571.89	-1929.39	  430.60
     46.7700	  572.00	  572.60	-1904.10	  430.62
     46.8700	  574.00	  573.41	-1902.92	  430.64
     46.9700	  561.00	  574.37	-1916.87	  430.66
     47.0700	  571.00	  575.51	-1908.02	  430.69
     47.1700	  604.00	  576.95	-1876.45	  430.71
     47.2700	  553.00	  578.87	-1929.37	  430.73
     47.3700	  583.00	  581.56	-1902.07	  430.76
     47.4700	  619.00	  585.50	-1870.00	  430.78
     47.5700	  597.00	  591.26	-1897.77	  430.81
     47.6700	  624.00	  599.47	-1878.98	  430.83
     47.7700	  643.00	  610.54	-1871.05	  430.86
     47.8700	  637.00	  624.35	-1890.86	  430.89
     47.9700	  647.00	  639.83	-1896.34	  430.92
     48.0700	  667.00	  654.58	-1891.08	  430.94
     48.1700	  715.00	  664.87	-1853.37	  430.97
     48.2700	  666.00	  667.21	-1904.72	  431.00
     48.3700	  651.00	  661.15	-1913.66	  431.03
     48.4700	  622.00	  649.88	-1931.38	  431.07
     48.5700	  621.00	  637.94	-1920.44	  431.10
     48.6700	  594.00	  627.27	-1936.77	  431.13
     48.7700	  592.00	  619.60	-1931.11	  431.16
     48.8700	  632.00	  615.26	-1886.76	  431.20
     48.9700	  638.00	  613.99	-1879.50	  431.23
     49.0700	  555.00	  615.36	-1963.87	  431.26
     49.1700	  606.00	  618.98	-1916.49	  431.30
     49.2700	  620.00	  624.72	-1908.22	  431.33
     49.3700	  641.00	  632.88	-1895.38	  431.37
     49.4700	  642.00	  644.54	-1906.05	  431.41
     49.5700	  635.00	  662.38	-1930.89	  431.44
     49.6700	  687.00	  692.06	-1908.57	  431.48
     49.7700	  708.00	  744.33	-1939.84	  431.52
     49.8700	  829.00	  836.61	-1911.12	  431.56
     49.9700	 1029.00	  991.96	-1866.46	  431.59
     50.0700	 1324.00	 1232.56	-1812.07	  431.63
     50.1700	 1690.00	 1566.82	-1780.32	  431.67
     50.2700	 2103.00	 1973.26	-1773.77	  431.71
     50.3700	 2562.00	 2386.70	-1728.21	  431.75
     50.4700	 2707.00	 2697.69	-1894.20	  431.79
     50.5700	 2796.00	 2787.62	-1895.12	  431.83
     50.6700	 2503.00	 2612.87	-2013.37	  431.88
     50.7700	 2240.00	 2251.56	-1915.07	  431.92
     50.8700	 1748.00	 1831.91	-1987.42	  431.96
     50.9700	 1394.00	 1451.36	-1960.86	  432.00
     51.0700	 1081.00	 1158.45	-1980.96	  432.04
     51.1700	  943.00	  960.90	-1921.40	  432.09
     51.2700	  793.00	  842.53	-1953.04	  432.13
     51.3700	  763.00	  777.84	-1918.34	  432.17
     51.4700	  728.00	  743.31	-1918.82	  432.22
     51.5700	  746.00	  722.57	-1880.07	  432.26
     51.6700	  715.00	  707.49	-1895.99	  432.31
     51.7700	  672.00	  695.98	-1927.48	  432.35
     51.8700	  691.00	  688.38	-1900.88	  432.40
     51.9700	  636.00	  684.93	-1952.43	  432.44
     52.0700	  688.00	  684.77	-1900.27	  432.49
     52.1700	  676.00	  685.78	-1913.28	  432.53
     52.2700	  654.00	  685.05	-1934.56	  432.58
     52.3700	  638.00	  680.48	-1945.98	  432.63
     52.4700	  706.00	  672.51	-1870.01	  432.67
     52.5700	  656.00	  663.58	-1911.08	  432.72
     52.6700	  653.00	  656.30	-1906.81	  432.77
     52.7700	  634.00	  652.72	-1922.22	  432.81
     52.8700	  612.00	  654.50	-1946.01	  432.86
     52.9700	  705.00	  663.45	-1861.95	  432.91
     53.0700	  690.00	  681.87	-1895.38	  432.96
     53.1700	  721.00	  712.76	-1895.27	  433.00
     53.2700	  723.00	  759.41	-1939.92	  433.05
     53.3700	  742.00	  824.34	-1985.84	  433.10
     53.4700	  942.00	  907.74	-1869.25	  433.15
     53.5700	 1066.00	 1005.60	-1843.10	  433.20
     53.6700	 1084.00	 1107.45	-1926.96	  433.25
     53.7700	 1144.00	 1194.96	-1954.47	  433.29
     53.8700	 1248.00	 1243.91	-1899.42	  433.34
     53.9700	 1282.00	 1236.53	-1858.04	  433.39
     54.0700	 1263.00	 1175.47	-1815.98	  433.44
     54.1700	 1095.00	 1081.96	-1890.47	  433.49
     54.2700	 1046.00	  979.78	-1837.28	  433.54
     54.3700	  847.00	  885.33	-1941.83	  433.59
     54.4700	  844.00	  806.99	-1866.50	  433.64
     54.5700	  758.00	  747.28	-1892.78	  433.68
     54.6700	  713.00	  704.95	-1895.46	  433.73
     54.7700	  674.00	  676.76	-1906.27	  433.78
     54.8700	  673.00	  658.97	-1889.47	  433.83
     54.9700	  642.00	  648.23	-1909.73	  433.88
     55.0700	  652.00	  642.06	-1893.56	  433.93
     55.1700	  622.00	  638.83	-1920.34	  433.98
     55.2700	  630.00	  637.59	-1911.09	  434.03
     55.3700	  640.00	  637.83	-1901.33	  434.08
     55.4700	  647.00	  639.32	-1895.83	  434.13
     55.5700	  662.00	  642.02	-1883.53	  434.18
     55.6700	  651.00	  645.99	-1898.50	  434.22
     55.7700	  712.00	  651.41	-1842.91	  434.27
     55.8700	  630.00	  658.65	-1932.15	  434.32
     55.9700	  662.00	  668.42	-1909.93	  434.37
     56.0700	  690.00	  682.10	-1895.61	  434.42
     56.1700	  680.00	  702.24	-1925.75	  434.47
     56.2700	  794.00	  733.37	-1842.87	  434.52
     56.3700	  735.00	  782.75	-1951.25	  434.56
     56.4700	  859.00	  860.86	-1905.36	  434.61
     56.5700	 1012.00	  980.61	-1872.12	  434.66
     56.6700	 1109.00	 1154.85	-1949.35	  434.71
     56.7700	 1390.00	 1391.67	-1905.17	  434.76
     56.8700	 1727.00	 1688.22	-1864.72	  434.80
     56.9700	 2019.00	 2024.74	-1909.24	  434.85
     57.0700	 2384.00	 2358.49	-1878.00	  434.90
     57.1700	 2667.00	 2622.62	-1859.13	  434.95
     57.2700	 2722.00	 2740.79	-1922.30	  434.99
     57.3700	 2643.00	 2670.09	-1930.60	  435.04
     57.4700	 2421.00	 2436.68	-1919.19	  435.09
     57.5700	 2075.00	 2114.23	-1942.74	  435.13
     57.6700	 1692.00	 1775.41	-1986.92	  435.18
     57.7700	 1434.00	 1469.14	-1938.65	  435.23
     57.8700	 1173.00	 1220.46	-1950.97	  435.27
     57.9700	  997.00	 1035.84	-1942.35	  435.32
     58.0700	  888.00	  909.91	-1925.42	  435.36
     58.1700	  760.00	  831.29	-1974.80	  435.41
     58.2700	  762.00	  788.55	-1930.06	  435.45
     58.3700	  761.00	  773.04	-1915.55	  435.50
     58.4700	  785.00	  779.98	-1898.48	  435.54
     58.5700	  780.00	  807.66	-1931.17	  435.58
     58.6700	  825.00	  855.73	-1934.24	  435.63
     58.7700	  935.00	  923.10	-1891.61	  435.67
     58.8700	 1010.00	 1005.96	-1899.47	  435.72
     58.9700	 1067.00	 1096.35	-1932.86	  435.76
     59.0700	 1145.00	 1182.17	-1940.67	  435.80
     59.1700	 1238.00	 1251.20	-1916.71	  435.84
     59.2700	 1273.00	 1297.38	-1927.89	  435.89
     59.3700	 1254.00	 1320.46	-1969.97	  435.93
     59.4700	 1341.00	 1320.22	-1882.73	  435.97
     59.5700	 1320.00	 1296.79	-1880.29	  436.01
     59.6700	 1271.00	 1257.05	-1889.55	  436.05
     59.7700	 1261.00	 1214.72	-1857.23	  436.09
     59.8700	 1223.00	 1183.34	-1863.85	  436.13
     59.9700	 1197.00	 1172.03	-1878.54	  436.17
     60.0700	 1239.00	 1187.09	-1851.60	  436.21
     60.1700	 1330.00	 1233.35	-1806.85	  436.25
     60.2700	 1368.00	 1311.79	-1847.30	  436.29
     60.3700	 1453.00	 1415.26	-1865.77	  436.32
     60.4700	 1523.00	 1525.63	-1906.14	  436.36
     60.5700	 1611.00	 1614.37	-1906.87	  436.40
     60.6700	 1637.00	 1648.90	-1915.40	  436.44
     60.7700	 1560.00	 1609.02	-1952.52	  436.47
     60.8700	 1394.00	 1501.64	-2011.14	  436.51
     60.9700	 1268.00	 1354.55	-1990.05	  436.54
     61.0700	 1151.00	 1198.01	-1950.52	  436.58
     61.1700	  991.00	 1054.36	-1966.87	  436.61
     61.2700	  876.00	  936.51	-1964.01	  436.65
     61.3700	  812.00	  849.44	-1940.94	  436.68
     61.4700	  776.00	  792.77	-1920.28	  436.71
     61.5700	  740.00	  763.64	-1927.14	  436.75
     61.6700	  778.00	  759.35	-1884.85	  436.78
     61.7700	  834.00	  779.08	-1848.59	  436.81
     61.8700	  871.00	  824.20	-1856.70	  436.84
     61.9700	  922.00	  897.13	-1878.64	  436.87
     62.0700	 1023.00	  999.30	-1879.81	  436.90
     62.1700	 1159.00	 1128.56	-1873.07	  436.93
     62.2700	 1347.00	 1276.65	-1833.15	  436.96
     62.3700	 1437.00	 1427.37	-1893.88	  436.99
     62.4700	 1571.00	 1555.89	-1888.40	  437.02
     62.5700	 1562.00	 1632.09	-1973.60	  437.05
     62.6700	 1523.00	 1632.81	-2013.32	  437.08
     62.7700	 1555.00	 1557.30	-1905.80	  437.10
     62.8700	 1349.00	 1427.96	-1982.47	  437.13
     62.9700	 1195.00	 1275.04	-1983.55	  437.15
     63.0700	 1101.00	 1123.64	-1926.15	  437.18
     63.1700	  992.00	  990.05	-1901.56	  437.20
     63.2700	  842.00	  882.41	-1943.92	  437.23
     63.3700	  811.00	  802.25	-1894.76	  437.25
     63.4700	  754.00	  746.77	-1896.27	  437.27
     63.5700	  725.00	  711.02	-1889.52	  437.30
     63.6700	  674.00	  689.81	-1919.31	  437.32
     63.7700	  682.00	  678.94	-1900.45	  437.34
     63.8700	  699.00	  675.75	-1880.26	  437.36
     63.9700	  662.00	  679.16	-1920.67	  437.38
     64.0700	  675.00	  689.58	-1918.08	  437.40
     64.1700	  677.00	  708.63	-1935.13	  437.42
     64.2700	  747.00	  738.81	-1895.32	  437.43
     64.3700	  792.00	  782.61	-1894.12	  437.45
     64.4700	  936.00	  843.56	-1811.07	  437.47
     64.5700	  913.00	  922.50	-1913.01	  437.48
     64.6700	  989.00	 1018.31	-1932.82	  437.50
     64.7700	 1130.00	 1126.15	-1899.66	  437.51
     64.8700	 1304.00	 1236.49	-1835.99	  437.53
     64.9700	 1390.00	 1335.11	-1848.62	  437.54
     65.0700	 1367.00	 1405.82	-1942.32	  437.55
     65.1700	 1415.00	 1435.48	-1923.98	  437.57
     65.2700	 1383.00	 1418.51	-1939.02	  437.58
     65.3700	 1349.00	 1359.22	-1913.72	  437.59
     65.4700	 1288.00	 1270.17	-1885.68	  437.60
     65.5700	 1106.00	 1167.93	-1965.43	  437.61
     65.6700	 1008.00	 1066.46	-1961.96	  437.62
     65.7700	  922.00	  974.52	-1956.02	  437.63
     65.8700	  867.00	  896.24	-1932.75	  437.63
     65.9700	  812.00	  832.72	-1924.23	  437.64
     66.0700	  745.00	  782.79	-1941.29	  437.64
     66.1700	  718.00	  744.95	-1930.46	  437.65
     66.2700	  676.00	  717.14	-1944.65	  437.65
     66.3700	  697.00	  697.20	-1903.70	  437.66
     66.4700	  663.00	  683.27	-1923.77	  437.66
     66.5700	  657.00	  673.89	-1920.40	  437.66
     66.6700	  696.00	  668.09	-1875.59	  437.66
     66.7700	  612.00	  665.21	-1956.72	  437.67
     66.8700	  620.00	  664.98	-1948.48	  437.67
     66.9700	  666.00	  667.18	-1904.68	  437.66
     67.0700	  623.00	  672.13	-1952.63	  437.66
     67.1700	  655.00	  680.57	-1929.07	  437.66
     67.2700	  674.00	  694.20	-1923.70	  437.66
     67.3700	  694.00	  715.14	-1924.65	  437.65
     67.4700	  735.00	  747.45	-1915.95	  437.65
     67.5700	  777.00	  796.46	-1922.97	  437.64
     67.6700	  854.00	  868.83	-1918.34	  437.64
     67.7700	  992.00	  971.81	-1883.31	  437.63
     67.8700	 1086.00	 1111.79	-1929.30	  437.62
     67.9700	 1337.00	 1292.27	-1858.78	  437.62
     68.0700	 1503.00	 1511.51	-1912.02	  437.61
     68.1700	 1777.00	 1760.25	-1886.75	  437.60
     68.2700	 1981.00	 2020.04	-1942.54	  437.59
     68.3700	 2253.00	 2261.91	-1912.41	  437.57
     68.4700	 2483.00	 2447.37	-1867.88	  437.56
     68.5700	 2575.00	 2536.99	-1865.49	  437.55
     68.6700	 2437.00	 2507.68	-1974.19	  437.53
     68.7700	 2391.00	 2367.25	-1879.76	  437.52
     68.8700	 2086.00	 2149.13	-1966.64	  437.50
     68.9700	 1868.00	 1894.04	-1929.55	  437.49
     69.0700	 1596.00	 1636.35	-1943.86	  437.47
     69.1700	 1403.00	 1399.96	-1900.46	  437.45
     69.2700	 1255.00	 1198.65	-1847.15	  437.43
     69.3700	 1120.00	 1037.69	-1821.20	  437.41
     69.4700	  925.00	  916.00	-1894.50	  437.39
     69.5700	  809.00	  828.39	-1922.90	  437.37
     69.6700	  808.00	  767.85	-1863.35	  437.35
     69.7700	  833.00	  727.22	-1797.72	  437.32
     69.8700	  750.00	  700.37	-1853.88	  437.30
     69.9700	  681.00	  682.64	-1905.15	  437.27
     70.0700	  675.00	  670.76	-1899.26	  437.25
     70.1700	  698.00	  662.61	-1868.12	  437.22
     70.2700	  672.00	  656.94	-1888.45	  437.19
     70.3700	  691.00	  653.00	-1865.50	  437.17
     70.4700	  676.00	  650.39	-1877.90	  437.14
     70.5700	  686.00	  648.93	-1866.43	  437.11
     70.6700	  675.00	  648.55	-1877.06	  437.08
     70.7700	  659.00	  649.12	-1893.62	  437.04
     70.8700	  659.00	  651.21	-1895.72	  437.01
     70.9700	  649.00	  655.03	-1909.54	  436.98
     71.0700	  659.00	  661.27	-1905.77	  436.94
     71.1700	  667.00	  671.06	-1907.56	  436.91
     71.2700	  683.00	  686.15	-1906.66	  436.87
     71.3700	  702.00	  709.04	-1910.54	  436.83
     71.4700	  752.00	  743.02	-1894.53	  436.80
     71.5700	  814.00	  792.04	-1881.55	  436.76
     71.6700	  834.00	  860.34	-1929.84	  436.72
     71.7700	  974.00	  951.63	-1881.14	  436.68
     71.8700	 1145.00	 1068.13	-1826.63	  436.63
     71.9700	 1211.00	 1209.32	-1901.82	  436.59
     72.0700	 1344.00	 1370.90	-1930.41	  436.55
     72.1700	 1531.00	 1543.82	-1916.32	  436.50
     72.2700	 1736.00	 1713.40	-1880.91	  436.46
     72.3700	 1933.00	 1859.46	-1829.96	  436.41
     72.4700	 1930.00	 1959.10	-1932.61	  436.36
     72.5700	 1992.00	 1990.51	-1902.02	  436.32
     72.6700	 1858.00	 1947.06	-1992.57	  436.27
     72.7700	 1842.00	 1838.68	-1900.19	  436.22
     72.8700	 1700.00	 1686.87	-1890.38	  436.16
     72.9700	 1471.00	 1515.06	-1947.56	  436.11
     73.0700	 1322.00	 1342.56	-1924.07	  436.06
     73.1700	 1225.00	 1183.02	-1861.52	  436.01
     73.2700	  988.00	 1044.69	-1960.20	  435.95
     73.3700	  929.00	  931.18	-1905.68	  435.90
     73.4700	  844.00	  842.46	-1901.96	  435.84
     73.5700	  746.00	  776.01	-1933.52	  435.78
     73.6700	  728.00	  728.03	-1903.54	  435.72
     73.7700	  717.00	  694.39	-1880.89	  435.66
     73.8700	  673.00	  671.26	-1901.77	  435.60
     73.9700	  695.00	  655.05	-1863.55	  435.54
     74.0700	  675.00	  644.48	-1872.98	  435.48
     74.1700	  687.00	  637.46	-1853.96	  435.42
     74.2700	  652.00	  632.98	-1884.48	  435.35
     74.3700	  637.00	  630.42	-1896.93	  435.29
     74.4700	  640.00	  629.40	-1892.90	  435.22
     74.5700	  640.00	  629.62	-1893.13	  435.16
     74.6700	  674.00	  630.84	-1860.34	  435.09
     74.7700	  663.00	  632.74	-1873.24	  435.02
     74.8700	  662.00	  634.94	-1876.45	  434.95
     74.9700	  654.00	  636.99	-1886.49	  434.88
     75.0700	  655.00	  638.35	-1886.85	  434.81
     75.1700	  719.00	  638.49	-1823.00	  434.73
     75.2700	  696.00	  637.36	-1844.87	  434.66
     75.3700	  715.00	  635.07	-1823.58	  434.59
     75.4700	  710.00	  632.14	-1825.65	  434.51
     75.5700	  701.00	  629.25	-1831.75	  434.43
     75.6700	  676.00	  627.11	-1854.61	  434.36
     75.7700	  665.00	  626.45	-1864.96	  434.28
     75.8700	  647.00	  628.03	-1884.54	  434.20
     75.9700	  663.00	  632.57	-1873.07	  434.12
     76.0700	  621.00	  641.04	-1923.55	  434.04
     76.1700	  672.00	  654.17	-1885.68	  433.96
     76.2700	  649.00	  672.61	-1927.12	  433.87
     76.3700	  725.00	  696.74	-1875.25	  433.79
     76.4700	  738.00	  726.47	-1891.97	  433.70
     76.5700	  759.00	  761.05	-1905.56	  433.62
     76.6700	  783.00	  798.98	-1919.48	  433.53
     76.7700	  822.00	  837.79	-1919.30	  433.44
     76.8700	  894.00	  874.04	-1883.55	  433.36
     76.9700	  915.00	  903.40	-1891.91	  433.27
     77.0700	  930.00	  921.32	-1894.82	  433.17
     77.1700	  945.00	  924.39	-1882.90	  433.08
     77.2700	  881.00	  911.92	-1934.42	  432.99
     77.3700	  829.00	  886.25	-1960.76	  432.90
     77.4700	  820.00	  851.63	-1935.13	  432.80
     77.5700	  804.00	  812.59	-1912.09	  432.71
     77.6700	  762.00	  772.95	-1914.46	  432.61
     77.7700	  748.00	  735.35	-1890.86	  432.51
     77.8700	  684.00	  702.06	-1921.56	  432.42
     77.9700	  679.00	  673.85	-1898.36	  432.32
     78.0700	  649.00	  650.99	-1905.50	  432.22
     78.1700	  633.00	  633.20	-1903.70	  432.12
     78.2700	  650.00	  619.82	-1873.33	  432.01
     78.3700	  673.00	  610.08	-1840.59	  431.91
     78.4700	  628.00	  603.16	-1878.66	  431.81
     78.5700	  640.00	  598.28	-1861.78	  431.70
     78.6700	  638.00	  594.94	-1860.45	  431.60
     78.7700	  554.00	  592.65	-1942.16	  431.49
     78.8700	  617.00	  591.09	-1877.60	  431.38
     78.9700	  564.00	  590.05	-1929.55	  431.27
     79.0700	  584.00	  589.39	-1908.89	  431.16
     79.1700	  574.00	  589.04	-1918.55	  431.05
     79.2700	  601.00	  588.98	-1891.48	  430.94
     79.3700	  580.00	  589.20	-1912.70	  430.83
     79.4700	  625.00	  589.71	-1868.22	  430.72
     79.5700	  590.00	  590.57	-1904.07	  430.60
     79.6700	  589.00	  591.82	-1906.33	  430.49
     79.7700	  557.00	  593.57	-1940.08	  430.37
     79.8700	  590.00	  595.96	-1909.47	  430.25
     79.9700	  666.00	  599.20	-1836.70	  430.14
     80.0700	  644.00	  603.60	-1863.10	  430.02
     80.1700	  566.00	  609.62	-1947.13	  429.90
     80.2700	  614.00	  617.92	-1907.42	  429.78
     80.3700	  651.00	  629.34	-1881.85	  429.66
     80.4700	  642.00	  644.73	-1906.24	  429.54
     80.5700	  663.00	  665.75	-1906.25	  429.41
     80.6700	  687.00	  693.43	-1909.94	  429.29
     80.7700	  765.00	  728.98	-1867.48	  429.16
     80.8700	  832.00	  773.21	-1844.72	  429.04
     80.9700	  855.00	  826.32	-1874.82	  428.91
     81.0700	  854.00	  887.49	-1936.99	  428.78
     81.1700	  930.00	  954.68	-1928.19	  428.65
     81.2700	 1059.00	 1024.47	-1868.97	  428.52
     81.3700	 1107.00	 1092.09	-1888.59	  428.39
     81.4700	 1203.00	 1151.85	-1852.35	  428.26
     81.5700	 1168.00	 1198.17	-1933.68	  428.13
     81.6700	 1197.00	 1226.95	-1933.46	  428.00
     81.7700	 1229.00	 1236.37	-1910.87	  427.86
     81.8700	 1220.00	 1226.75	-1910.26	  427.73
     81.9700	 1192.00	 1200.12	-1911.63	  427.59
     82.0700	 1171.00	 1159.85	-1892.35	  427.46
     82.1700	 1077.00	 1110.10	-1936.60	  427.32
     82.2700	 1010.00	 1055.03	-1948.53	  427.18
     82.3700	  983.00	  998.26	-1918.76	  427.04
     82.4700	  892.00	  942.76	-1954.27	  426.90
     82.5700	  877.00	  890.84	-1917.34	  426.76
     82.6700	  838.00	  843.98	-1909.48	  426.62
     82.7700	  785.00	  802.78	-1921.28	  426.48
     82.8700	  761.00	  767.08	-1909.58	  426.34
     82.9700	  743.00	  736.30	-1896.81	  426.19
     83.0700	  685.00	  709.81	-1928.31	  426.05
     83.1700	  659.00	  687.11	-1931.61	  425.90
     83.2700	  648.00	  667.91	-1923.41	  425.76
     83.3700	  655.00	  652.03	-1900.53	  425.61
     83.4700	  637.00	  639.34	-1905.85	  425.46
     83.5700	  601.00	  629.73	-1932.24	  425.31
     83.6700	  622.00	  623.06	-1904.57	  425.16
     83.7700	  613.00	  619.17	-1909.67	  425.01
     83.8700	  598.00	  617.80	-1923.31	  424.86
     83.9700	  602.00	  618.64	-1920.14	  424.71
     84.0700	  615.00	  621.25	-1909.76	  424.56
     84.1700	  635.00	  625.02	-1893.52	  424.40
     84.2700	  620.00	  629.50	-1913.01	  424.25
     84.3700	  638.00	  633.81	-1899.31	  424.09
     84.4700	  629.00	  637.35	-1911.86	  423.94
     84.5700	  653.00	  639.32	-1889.83	  423.78
     84.6700	  562.00	  639.20	-1980.71	  423.62
     84.7700	  649.00	  636.81	-1891.32	  423.47
     84.8700	  606.00	  632.39	-1929.89	  423.31
     84.9700	  620.00	  626.45	-1909.96	  423.15
     85.0700	  601.00	  619.63	-1922.14	  422.99
     85.1700	  596.00	  612.54	-1920.04	  422.83
     85.2700	  602.00	  605.69	-1907.19	  422.67
     85.3700	  578.00	  599.49	-1925.00	  422.50
     85.4700	  584.00	  594.24	-1913.75	  422.34
     85.5700	  619.00	  590.15	-1874.66	  422.18
     85.6700	  556.00	  587.33	-1934.83	  422.01
     85.7700	  588.00	  585.84	-1901.34	  421.85
     85.8700	  627.00	  585.70	-1862.21	  421.68
     85.9700	  605.00	  586.93	-1885.43	  421.51
     86.0700	  613.00	  589.50	-1880.00	  421.35
     86.1700	  591.00	  593.39	-1905.89	  421.18
     86.2700	  620.00	  598.55	-1882.06	  421.01
     86.3700	  646.00	  604.91	-1862.42	  420.84
     86.4700	  591.00	  612.33	-1924.84	  420.67
     86.5700	  618.00	  620.63	-1906.14	  420.50
     86.6700	  616.00	  629.60	-1917.10	  420.33
     86.7700	  655.00	  638.91	-1887.41	  420.16
     86.8700	  640.00	  648.23	-1911.73	  419.99
     86.9700	  624.00	  657.22	-1936.73	  419.81
     87.0700	  608.00	  665.68	-1961.19	  419.64
     87.1700	  653.00	  673.61	-1924.11	  419.46
     87.2700	  708.00	  681.20	-1876.70	  419.29
     87.3700	  689.00	  688.77	-1903.27	  419.11
     87.4700	  677.00	  696.55	-1923.06	  418.94
     87.5700	  687.00	  704.60	-1921.11	  418.76
     87.6700	  681.00	  712.73	-1935.24	  418.58
     87.7700	  726.00	  720.45	-1897.96	  418.41
     87.8700	  704.00	  727.04	-1926.54	  418.23
     87.9700	  709.00	  731.56	-1926.07	  418.05
     88.0700	  748.00	  733.08	-1888.59	  417.87
     88.1700	  715.00	  730.93	-1919.44	  417.69
     88.2700	  720.00	  724.95	-1908.46	  417.51
     88.3700	  726.00	  715.56	-1893.06	  417.33
     88.4700	  725.00	  703.57	-1882.08	  417.15
     88.5700	  701.00	  690.01	-1892.52	  416.96
     88.6700	  665.00	  675.87	-1914.38	  416.78
     88.7700	  641.00	  661.62	-1924.13	  416.60
     88.8700	  614.00	  648.86	-1938.37	  416.41
     88.9700	  642.00	  637.74	-1899.24	  416.23
     89.0700	  614.00	  628.64	-1918.14	  416.05
     89.1700	  586.00	  621.77	-1939.27	  415.86
     89.2700	  583.00	  617.16	-1937.66	  415.67
     89.3700	  599.00	  614.67	-1919.17	  415.49
     89.4700	  607.00	  614.03	-1910.54	  415.30
     89.5700	  632.00	  614.86	-1886.37	  415.12
     89.6700	  635.00	  616.69	-1885.20	  414.93
     89.7700	  631.00	  618.98	-1891.48	  414.74
     89.8700	  615.00	  621.15	-1909.66	  414.55
     89.9700	  652.00	  622.66	-1874.16	  414.36
     90.0700	  707.00	  623.02	-1819.53	  414.17
     90.1700	  644.00	  621.97	-1881.47	  413.99
     90.2700	  618.00	  619.44	-1904.94	  413.80
     90.3700	  677.00	  615.62	-1842.13	  413.61
     90.4700	  618.00	  610.86	-1896.37	  413.42
     90.5700	  555.00	  605.53	-1954.03	  413.22
     90.6700	  604.00	  599.99	-1899.49	  413.03
     90.7700	  647.00	  594.55	-1851.06	  412.84
     90.8700	  591.00	  589.46	-1901.96	  412.65
     90.9700	  621.00	  584.89	-1867.40	  412.46
     91.0700	  626.00	  580.96	-1858.46	  412.27
     91.1700	  583.00	  577.70	-1898.21	  412.07
     91.2700	  582.00	  575.13	-1896.64	  411.88
     91.3700	  521.00	  573.21	-1955.72	  411.69
     91.4700	  573.00	  571.90	-1902.40	  411.49
     91.5700	  573.00	  571.13	-1901.64	  411.30
     91.6700	  599.00	  570.87	-1875.38	  411.11
     91.7700	  573.00	  571.09	-1901.59	  410.91
     91.8700	  625.00	  571.79	-1850.29	  410.72
     91.9700	  585.00	  573.01	-1891.51	  410.52
     92.0700	  560.00	  574.83	-1918.33	  410.33
     92.1700	  566.00	  577.36	-1914.86	  410.13
     92.2700	  559.00	  580.76	-1925.27	  409.94
     92.3700	  599.00	  585.23	-1889.73	  409.74
     92.4700	  619.00	  590.97	-1875.47	  409.55
     92.5700	  615.00	  598.21	-1886.71	  409.35
     92.6700	  602.00	  607.17	-1908.67	  409.15
     92.7700	  582.00	  618.02	-1939.53	  408.96
     92.8700	  603.00	  630.90	-1931.41	  408.76
     92.9700	  602.00	  645.85	-1947.36	  408.56
     93.0700	  651.00	  662.80	-1915.31	  408.37
     93.1700	  638.00	  681.57	-1947.07	  408.17
     93.2700	  676.00	  701.81	-1929.32	  407.97
     93.3700	  707.00	  723.05	-1919.56	  407.78
     93.4700	  712.00	  744.65	-1936.15	  407.58
     93.5700	  739.00	  765.84	-1930.35	  407.38
     93.6700	  771.00	  785.82	-1918.33	  407.19
     93.7700	  793.00	  803.89	-1914.39	  406.99
     93.8700	  813.00	  819.64	-1910.14	  406.79
     93.9700	  820.00	  833.09	-1916.60	  406.60
     94.0700	  770.00	  844.67	-1978.18	  406.40
     94.1700	  816.00	  855.00	-1942.51	  406.20
     94.2700	  859.00	  864.42	-1908.93	  406.00
     94.3700	  866.00	  874.06	-1911.56	  405.81
     94.4700	  895.00	  883.93	-1892.44	  405.61
     94.5700	  931.00	  894.28	-1866.78	  405.41
     94.6700	  935.00	  905.29	-1873.80	  405.22
     94.7700	  911.00	  917.20	-1909.71	  405.02
     94.8700	  907.00	  930.21	-1926.71	  404.82
     94.9700	  984.00	  944.32	-1863.82	  404.63
     95.0700	  971.00	  959.20	-1891.71	  404.43
     95.1700	  926.00	  974.09	-1951.59	  404.23
     95.2700	 1017.00	  987.75	-1874.25	  404.04
     95.3700	  983.00	  998.58	-1919.09	  403.84
     95.4700	 1007.00	 1004.86	-1901.37	  403.65
     95.5700	 1002.00	 1004.99	-1906.49	  403.45
     95.6700	  940.00	  997.94	-1961.45	  403.26
     95.7700	  882.00	  983.56	-2005.06	  403.06
     95.8700	  948.00	  962.61	-1918.12	  402.87
     95.9700	  974.00	  936.66	-1866.17	  402.67
     96.0700	  903.00	  907.66	-1908.16	  402.48
     96.1700	  939.00	  877.72	-1842.22	  402.28
     96.2700	  912.00	  848.91	-1840.42	  402.09
     96.3700	  870.00	  823.19	-1856.69	  401.89
     96.4700	  801.00	  802.28	-1904.78	  401.70
     96.5700	  751.00	  787.68	-1940.18	  401.51
     96.6700	  818.00	  780.65	-1866.16	  401.31
     96.7700	  830.00	  782.25	-1855.75	  401.12
     96.8700	  817.00	  793.26	-1879.77	  400.93
     96.9700	  820.00	  814.28	-1897.79	  400.74
     97.0700	  916.00	  845.64	-1833.14	  400.55
     97.1700	  934.00	  887.38	-1856.89	  400.35
     97.2700	 1040.00	  939.25	-1802.76	  400.16
     97.3700	 1050.00	 1000.59	-1854.09	  399.97
     97.4700	 1027.00	 1070.22	-1946.73	  399.78
     97.5700	 1122.00	 1146.45	-1927.95	  399.59
     97.6700	 1269.00	 1226.93	-1861.43	  399.41
     97.7700	 1303.00	 1308.70	-1909.21	  399.22
     97.8700	 1367.00	 1388.19	-1924.70	  399.03
     97.9700	 1387.00	 1461.20	-1977.71	  398.84
     98.0700	 1567.00	 1523.23	-1859.73	  398.65
     98.1700	 1511.00	 1569.83	-1962.33	  398.47
     98.2700	 1611.00	 1597.35	-1889.86	  398.28
     98.3700	 1483.00	 1603.69	-2024.20	  398.10
     98.4700	 1570.00	 1588.71	-1922.21	  397.91
     98.5700	 1536.00	 1554.29	-1921.79	  397.73
     98.6700	 1464.00	 1503.82	-1943.32	  397.54
     98.7700	 1423.00	 1441.45	-1921.96	  397.36
     98.8700	 1250.00	 1371.54	-2025.05	  397.18
     98.9700	 1282.00	 1298.26	-1919.77	  397.00
     99.0700	 1259.00	 1225.38	-1869.89	  396.82
     99.1700	 1182.00	 1156.21	-1877.71	  396.63
     99.2700	 1073.00	 1093.49	-1924.00	  396.46
     99.3700	 1034.00	 1039.52	-1909.03	  396.28
     99.4700	 1034.00	  996.14	-1865.65	  396.10
     99.5700	 1002.00	  964.81	-1866.31	  395.92
     99.6700	  925.00	  946.60	-1925.11	  395.74
     99.7700	  948.00	  942.26	-1897.77	  395.57
     99.8700	 1013.00	  952.22	-1842.72	  395.39
     99.9700	 1000.00	  976.63	-1880.14	  395.22
    100.0700	  988.00	 1015.37	-1930.88	  395.04
    100.1700	 1075.00	 1068.00	-1896.51	  394.87
    100.2700	 1214.00	 1133.74	-1823.24	  394.70
    100.3700	 1277.00	 1211.38	-1837.88	  394.53
    100.4700	 1350.00	 1299.28	-1852.79	  394.36
    100.5700	 1389.00	 1395.31	-1909.82	  394.19
    100.6700	 1491.00	 1496.72	-1909.23	  394.02
    100.7700	 1617.00	 1600.39	-1886.89	  393.85
    100.8700	 1707.00	 1702.52	-1899.03	  393.69
    100.9700	 1784.00	 1799.16	-1918.66	  393.52
    101.0700	 1829.00	 1886.44	-1960.95	  393.36
    101.1700	 2027.00	 1961.08	-1837.59	  393.19
    101.2700	 2027.00	 2020.59	-1897.10	  393.03
    101.3700	 2068.00	 2063.42	-1898.92	  392.87
    101.4700	 2093.00	 2088.69	-1899.20	  392.71
    101.5700	 2129.00	 2095.98	-1870.49	  392.55
    101.6700	 2122.00	 2085.15	-1866.65	  392.39
    101.7700	 2087.00	 2056.54	-1873.04	  392.23
    101.8700	 2056.00	 2011.32	-1858.83	  392.08
    101.9700	 1981.00	 1951.77	-1874.28	  391.92
    102.0700	 1950.00	 1881.21	-1834.72	  391.77
    102.1700	 1772.00	 1803.66	-1935.16	  391.61
    102.2700	 1710.00	 1723.35	-1916.86	  391.46
    102.3700	 1539.00	 1644.16	-2008.66	  391.31
    102.4700	 1641.00	 1569.29	-1831.80	  391.16
    102.5700	 1507.00	 1501.08	-1897.58	  391.01
    102.6700	 1484.00	 1440.97	-1860.48	  390.87
    102.7700	 1391.00	 1389.63	-1902.14	  390.72
    102.8700	 1327.00	 1346.90	-1923.41	  390.58
    102.9700	 1258.00	 1311.95	-1957.46	  390.44
    103.0700	 1321.00	 1283.33	-1865.84	  390.29
    103.1700	 1244.00	 1259.13	-1918.64	  390.15
    103.2700	 1248.00	 1237.18	-1892.68	  390.02
    103.3700	 1179.00	 1215.22	-1939.73	  389.88
    103.4700	 1218.00	 1191.29	-1876.80	  389.74
    103.5700	 1211.00	 1163.94	-1856.45	  389.61
    103.6700	 1143.00	 1132.47	-1892.98	  389.47
    103.7700	 1124.00	 1096.91	-1876.42	  389.34
    103.8700	 1052.00	 1057.88	-1909.39	  389.21
    103.9700	 1091.00	 1016.36	-1828.86	  389.08
    104.0700	 1015.00	  973.47	-1861.98	  388.96
    104.1700	  879.00	  930.35	-1954.86	  388.83
    104.2700	  909.00	  888.02	-1882.53	  388.71
    104.3700	  905.00	  847.38	-1845.89	  388.59
    104.4700	  839.00	  809.17	-1873.68	  388.46
    104.5700	  856.00	  773.95	-1821.46	  388.35
    104.6700	  806.00	  742.09	-1839.59	  388.23
    104.7700	  713.00	  713.79	-1904.30	  388.11
    104.8700	  758.00	  689.11	-1834.61	  388.00
    104.9700	  709.00	  667.96	-1862.47	  387.89
    105.0700	  654.00	  650.16	-1899.66	  387.77
    105.1700	  653.00	  635.37	-1885.87	  387.67
    105.2700	  665.00	  623.39	-1861.90	  387.56
    105.3700	  661.00	  613.84	-1856.35	  387.45
    105.4700	  649.00	  606.40	-1860.91	  387.35
    105.5700	  557.00	  600.76	-1947.27	  387.25
    105.6700	  607.00	  596.66	-1893.17	  387.15
    105.7700	  608.00	  593.89	-1889.39	  387.05
    105.8700	  621.00	  592.22	-1874.73	  386.95
    105.9700	  618.00	  591.63	-1877.14	  386.86
    106.0700	  603.00	  591.99	-1892.50	  386.77
    106.1700	  598.00	  593.28	-1898.79	  386.67
    106.2700	  617.00	  595.49	-1881.99	  386.59
    106.3700	  621.00	  598.66	-1881.16	  386.50
    106.4700	  607.00	  602.83	-1899.34	  386.42
    106.5700	  639.00	  608.09	-1872.60	  386.33
    106.6700	  664.00	  614.51	-1854.01	  386.25
    106.7700	  596.00	  622.15	-1929.65	  386.17
    106.8700	  639.00	  631.05	-1895.56	  386.10
    106.9700	  634.00	  641.23	-1910.73	  386.02
    107.0700	  627.00	  652.63	-1929.14	  385.95
    107.1700	  641.00	  665.16	-1927.67	  385.88
    107.2700	  663.00	  678.65	-1919.16	  385.81
    107.3700	  671.00	  692.87	-1925.37	  385.75
    107.4700	  714.00	  707.51	-1897.01	  385.68
    107.5700	  700.00	  722.21	-1925.72	  385.62
    107.6700	  735.00	  736.56	-1905.07	  385.57
    107.7700	  706.00	  750.08	-1947.59	  385.51
    107.8700	  752.00	  762.30	-1913.80	  385.45
    107.9700	  743.00	  772.73	-1933.24	  385.40
    108.0700	  702.00	  781.00	-1982.50	  385.35
    108.1700	  723.00	  786.89	-1967.40	  385.31
    108.2700	  736.00	  790.35	-1957.85	  385.26
    108.3700	  745.00	  791.54	-1950.04	  385.22
    108.4700	  750.00	  790.81	-1944.31	  385.18
    108.5700	  778.00	  788.64	-1914.15	  385.14
    108.6700	  781.00	  785.56	-1908.07	  385.11
    108.7700	  744.00	  782.09	-1941.59	  385.08
    108.8700	  733.00	  778.67	-1949.17	  385.05
    108.9700	  692.00	  775.66	-1987.16	  385.02
    109.0700	  728.00	  773.31	-1948.81	  384.99
    109.1700	  757.00	  771.74	-1918.24	  384.97
    109.2700	  716.00	  770.95	-1958.45	  384.95
    109.3700	  749.00	  770.82	-1925.33	  384.94
    109.4700	  704.00	  771.12	-1970.63	  384.92
    109.5700	  708.00	  771.51	-1967.01	  384.91
    109.6700	  771.00	  771.57	-1904.08	  384.90
    109.7700	  743.00	  770.88	-1931.38	  384.90
    109.8700	  730.00	  769.01	-1942.52	  384.90
    109.9700	  731.00	  765.64	-1938.14	  384.90
    110.0700	  701.00	  760.56	-1963.07	  384.90
    110.1700	  750.00	  753.74	-1907.24	  384.90
    110.2700	  731.00	  745.30	-1917.80	  384.91
    110.3700	  704.00	  735.46	-1934.97	  384.92
    110.4700	  722.00	  724.55	-1906.06	  384.94
    110.5700	  734.00	  712.91	-1882.41	  384.96
    110.6700	  754.00	  700.88	-1850.38	  384.98
    110.7700	  671.00	  688.78	-1921.29	  385.00
    110.8700	  664.00	  676.92	-1916.42	  385.03
    110.9700	  652.00	  665.53	-1917.04	  385.06
    111.0700	  641.00	  654.84	-1917.34	  385.09
    111.1700	  641.00	  644.99	-1907.50	  385.12
    111.2700	  625.00	  636.12	-1914.63	  385.16
    111.3700	  628.00	  628.30	-1903.81	  385.21
    111.4700	  555.00	  621.58	-1970.08	  385.25
    111.5700	  611.00	  615.95	-1908.45	  385.30
    111.6700	  625.00	  611.39	-1889.89	  385.35
    111.7700	  607.00	  607.84	-1904.34	  385.41
    111.8700	  562.00	  605.23	-1946.74	  385.46
    111.9700	  561.00	  603.49	-1945.99	  385.53
    112.0700	  574.00	  602.50	-1932.01	  385.59
    112.1700	  610.00	  602.18	-1895.69	  385.66
    112.2700	  622.00	  602.42	-1883.93	  385.73
    112.3700	  596.00	  603.14	-1910.64	  385.81
    112.4700	  652.00	  604.23	-1855.73	  385.89
    112.5700	  611.00	  605.62	-1898.12	  385.97
    112.6700	  611.00	  607.23	-1899.73	  386.05
    112.7700	  596.00	  609.01	-1916.52	  386.14
    112.8700	  603.00	  610.91	-1911.42	  386.24
    112.9700	  621.00	  612.91	-1895.42	  386.33
    113.0700	  586.00	  615.00	-1932.51	  386.43
    113.1700	  601.00	  617.19	-1919.70	  386.54
    113.2700	  601.00	  619.50	-1922.01	  386.64
    113.3700	  562.00	  621.98	-1963.49	  386.76
    113.4700	  619.00	  624.67	-1909.18	  386.87
    113.5700	  550.00	  627.64	-1981.15	  386.99
    113.6700	  624.00	  630.97	-1910.47	  387.11
    113.7700	  609.00	  634.72	-1929.23	  387.24
    113.8700	  612.00	  639.05	-1930.56	  387.37
    113.9700	  638.00	  644.08	-1909.59	  387.50
    114.0700	  618.00	  649.99	-1935.49	  387.64
    114.1700	  659.00	  657.00	-1901.51	  387.78
    114.2700	  628.00	  665.41	-1940.92	  387.93
    114.3700	  634.00	  675.60	-1945.11	  388.08
    114.4700	  678.00	  688.04	-1913.54	  388.23
    114.5700	  716.00	  703.33	-1890.83	  388.39
    114.6700	  686.00	  722.22	-1939.73	  388.55
    114.7700	  737.00	  745.65	-1912.16	  388.72
    114.8700	  819.00	  774.74	-1859.25	  388.89
    114.9700	  885.00	  810.85	-1829.36	  389.06
    115.0700	  905.00	  855.56	-1854.07	  389.24
    115.1700	  939.00	  910.73	-1875.24	  389.43
    115.2700	 1017.00	  978.44	-1864.94	  389.61
    115.3700	 1102.00	 1060.98	-1862.48	  389.81
    115.4700	 1264.00	 1160.82	-1800.33	  390.00
    115.5700	 1402.00	 1280.58	-1782.09	  390.20
    115.6700	 1572.00	 1422.90	-1754.41	  390.41
    115.7700	 1787.00	 1590.31	-1706.82	  390.62
    115.8700	 1910.00	 1785.11	-1778.62	  390.83
    115.9700	 2281.00	 2009.20	-1631.71	  391.05
    116.0700	 2542.00	 2263.98	-1625.49	  391.27
    116.1700	 2687.00	 2550.13	-1766.64	  391.50
    116.2700	 2959.00	 2867.34	-1811.85	  391.73
    116.3700	 3473.00	 3214.26	-1644.77	  391.96
    116.4700	 3641.00	 3588.29	-1850.80	  392.20
    116.5700	 4110.00	 3985.59	-1779.10	  392.45
    116.6700	 4380.00	 4401.09	-1924.59	  392.70
    116.7700	 4818.00	 4828.11	-1913.62	  392.96
    116.8700	 5121.00	 5258.78	-2041.29	  393.22
    116.9700	 5459.00	 5683.92	-2128.43	  393.48
    117.0700	 6119.00	 6093.41	-1877.92	  393.75
    117.1700	 6311.00	 6476.32	-2068.83	  394.02
    117.2700	 6631.00	 6821.10	-2093.61	  394.30
    117.3700	 6957.00	 7116.29	-2062.80	  394.59
    117.4700	 7219.00	 7351.10	-2035.60	  394.88
    117.5700	 7288.00	 7516.33	-2131.84	  395.17
    117.6700	 7412.00	 7605.19	-2096.70	  395.47
    117.7700	 7400.00	 7614.02	-2117.53	  395.77
    117.8700	 7373.00	 7542.85	-2073.35	  396.08
    117.9700	 7142.00	 7395.34	-2156.85	  396.40
    118.0700	 6978.00	 7178.30	-2103.81	  396.71
    118.1700	 6743.00	 6900.87	-2061.38	  397.04
    118.2700	 6454.00	 6573.73	-2023.24	  397.37
    118.3700	 6070.00	 6208.22	-2041.72	  397.70
    118.4700	 5548.00	 5815.66	-2171.17	  398.04
    118.5700	 5403.00	 5406.83	-1907.34	  398.39
    118.6700	 5083.00	 4991.58	-1812.09	  398.74
    118.7700	 4699.00	 4578.83	-1783.33	  399.10
    118.8700	 4325.00	 4176.20	-1754.70	  399.46
    118.9700	 4029.00	 3790.04	-1664.54	  399.83
    119.0700	 3637.00	 3425.24	-1691.74	  400.20
    119.1700	 3256.00	 3085.37	-1732.87	  400.58
    119.2700	 2978.00	 2772.87	-1698.38	  400.96
    119.3700	 2624.00	 2489.01	-1768.51	  401.35
    119.4700	 2478.00	 2234.09	-1659.60	  401.74
    119.5700	 2227.00	 2007.54	-1684.05	  402.14
    119.6700	 1999.00	 1808.15	-1712.65	  402.55
    119.7700	 1765.00	 1634.27	-1772.77	  402.96
    119.8700	 1630.00	 1483.88	-1757.38	  403.38
    119.9700	 1539.00	 1354.78	-1719.29	  403.80
    120.0700	 1380.00	 1244.65	-1768.15	  404.23
    120.1700	 1237.00	 1151.16	-1817.67	  404.67
    120.2700	 1188.00	 1072.15	-1787.66	  405.11
    120.3700	 1153.00	 1005.57	-1756.08	  405.56
    120.4700	  988.00	  949.57	-1865.08	  406.01
    120.5700	  937.00	  902.49	-1869.00	  406.47
    120.6700	  924.00	  862.90	-1842.40	  406.93
    120.7700	  886.00	  829.58	-1847.09	  407.40
    120.8700	  822.00	  801.51	-1883.02	  407.88
    120.9700	  765.00	  777.84	-1916.35	  408.36
    121.0700	  812.00	  757.86	-1849.37	  408.85
    121.1700	  720.00	  741.01	-1924.51	  409.35
    121.2700	  700.00	  726.82	-1930.32	  409.85
    121.3700	  721.00	  714.92	-1897.43	  410.36
    121.4700	  639.00	  705.02	-1969.53	  410.87
    121.5700	  686.00	  696.88	-1914.39	  411.39
    121.6700	  699.00	  690.30	-1894.81	  411.92
    121.7700	  658.00	  685.14	-1930.64	  412.46
    121.8700	  625.00	  681.25	-1959.76	  413.00
    121.9700	  646.00	  678.55	-1936.05	  413.54
    122.0700	  657.00	  676.93	-1923.44	  414.10
    122.1700	  683.00	  676.33	-1896.84	  414.65
    122.2700	  661.00	  676.69	-1919.19	  415.22
    122.3700	  667.00	  677.93	-1914.43	  415.79
    122.4700	  659.00	  680.01	-1924.51	  416.37
    122.5700	  609.00	  682.85	-1977.36	  416.96
    122.6700	  654.00	  686.42	-1935.92	  417.55
    122.7700	  703.00	  690.63	-1891.13	  418.15
    122.8700	  678.00	  695.41	-1920.92	  418.76
    122.9700	  705.00	  700.70	-1899.21	  419.37
    123.0700	  702.00	  706.41	-1907.91	  420.00
    123.1700	  701.00	  712.44	-1914.94	  420.62
    123.2700	  736.00	  718.69	-1886.20	  421.26
    123.3700	  767.00	  725.07	-1861.58	  421.90
    123.4700	  727.00	  731.46	-1907.97	  422.55
    123.5700	  723.00	  737.75	-1918.25	  423.20
    123.6700	  747.00	  743.82	-1900.32	  423.87
    123.7700	  728.00	  749.56	-1925.06	  424.54
    123.8700	  782.00	  754.88	-1876.38	  425.21
    123.9700	  726.00	  759.69	-1937.19	  425.90
    124.0700	  692.00	  763.93	-1975.44	  426.59
    124.1700	  765.00	  767.58	-1906.09	  427.29
    124.2700	  776.00	  770.60	-1898.11	  428.00
    124.3700	  765.00	  773.06	-1911.57	  428.71
    124.4700	  708.00	  774.99	-1970.49	  429.43
    124.5700	  790.00	  776.43	-1889.93	  430.16
    124.6700	  747.00	  777.44	-1933.95	  430.90
    124.7700	  734.00	  778.09	-1947.60	  431.64
    124.8700	  739.00	  778.44	-1942.94	  432.40
    124.9700	  744.00	  561.45	-1720.96	  433.15
    125.0700	  738.00	  562.22	-1903.51	  433.92
    125.1700	  702.00	  563.00	-1903.51	  434.70
    125.2700	  748.00	  563.78	-1903.51	  435.48
    125.3700	  720.00	  564.57	-1903.51	  436.27
    125.4700	  713.00	  565.37	-1903.51	  437.07
    125.5700	  702.00	  566.17	-1903.51	  437.88
    125.6700	  734.00	  566.99	-1903.51	  438.69
    125.7700	  727.00	  567.81	-1903.51	  439.51
    125.8700	  683.00	  568.64	-1903.51	  440.34
    125.9700	  737.00	  569.48	-1903.51	  441.18
    126.0700	  706.00	  570.33	-1903.51	  442.03
    126.1700	  764.00	  571.18	-1903.51	  442.88
    126.2700	  709.00	  572.04	-1903.51	  443.75
    126.3700	  702.00	  572.92	-1903.51	  444.62
    126.4700	  692.00	  573.80	-1903.51	  445.50
    126.5700	  717.00	  574.68	-1903.51	  446.38
    126.6700	  655.00	  575.58	-1903.51	  447.28
    126.7700	  713.00	  576.48	-1903.51	  448.19
    126.8700	  670.00	  577.40	-1903.51	  449.10
    126.9700	  637.00	  578.32	-1903.51	  450.02
    127.0700	  677.00	  579.25	-1903.51	  450.95
    127.1700	  620.00	  580.19	-1903.51	  451.89
    127.2700	  672.00	  581.13	-1903.51	  452.84
    127.3700	  640.00	  582.09	-1903.51	  453.79
    127.4700	  637.00	  583.06	-1903.51	  454.76
    127.5700	  611.00	  584.03	-1903.51	  455.73
    127.6700	  649.00	  585.01	-1903.51	  456.71
    127.7700	  608.00	  586.00	-1903.51	  457.70
    127.8700	  638.00	  587.00	-1903.51	  458.70
    127.9700	  607.00	  588.01	-1903.51	  459.71
    128.0700	  639.00	  589.03	-1903.51	  460.73
    128.1700	  643.00	  590.06	-1903.51	  461.76
    128.2700	  636.00	  591.09	-1903.51	  462.79
    128.3700	  665.00	  592.14	-1903.51	  463.84
    128.4700	  653.00	  593.19	-1903.51	  464.89
    128.5700	    0.00	  594.25	-1903.51	  465.96
    128.6700	    0.00	  595.33	-1903.51	  467.03
     12.4126	        	        	        	        	       0	(  0  0  2)	  0  1
     12.4126	        	        	        	        	    -475	(  0  0  2)	  0  1
     25.0706	        	        	        	        	       0	(  0  0  4)	  0  1
     25.0706	        	        	        	        	    -475	(  0  0  4)	  0  1
     28.5254	        	        	        	        	       0	(  1  0  0)	  0  1
     28.5254	        	        	        	        	    -475	(  1  0  0)	  0  1
     29.2271	        	        	        	        	       0	(  1  0  1)	  0  1
     29.2271	        	        	        	        	    -475	(  1  0  1)	  0  1
     31.2462	        	        	        	        	       0	(  1  0  2)	  0  1
     31.2462	        	        	        	        	    -475	(  1  0  2)	  0  1
     34.3746	        	        	        	        	       0	(  1  0  3)	  0  1
     34.3746	        	        	        	        	    -475	(  1  0  3)	  0  1
     38.0503	        	        	        	        	       0	(  0  0  6)	  0  1
     38.0503	        	        	        	        	    -475	(  0  0  6)	  0  1
     38.3777	        	        	        	        	       0	(  1  0  4)	  0  1
     38.3777	        	        	        	        	    -475	(  1  0  4)	  0  1
     43.0589	        	        	        	        	       0	(  1  0  5)	  0  1
     43.0589	        	        	        	        	    -475	(  1  0  5)	  0  1
     48.2786	        	        	        	        	       0	(  1  0  6)	  0  1
     48.2786	        	        	        	        	    -475	(  1  0  6)	  0  1
     50.5992	        	        	        	        	       0	(  1  1  0)	  0  1
     50.5992	        	        	        	        	    -475	(  1  1  0)	  0  1
     51.5625	        	        	        	        	       0	(  0  0  8)	  0  1
     51.5625	        	        	        	        	    -475	(  0  0  8)	  0  1
     52.3349	        	        	        	        	       0	(  1  1  2)	  0  1
     52.3349	        	        	        	        	    -475	(  1  1  2)	  0  1
     53.9493	        	        	        	        	       0	(  1  0  7)	  0  1
     53.9493	        	        	        	        	    -475	(  1  0  7)	  0  1
     57.3198	        	        	        	        	       0	(  1  1  4)	  0  1
     57.3198	        	        	        	        	    -475	(  1  1  4)	  0  1
     59.1556	        	        	        	        	       0	(  2  0  0)	  0  1
     59.1556	        	        	        	        	    -475	(  2  0  0)	  0  1
     59.5503	        	        	        	        	       0	(  2  0  1)	  0  1
     59.5503	        	        	        	        	    -475	(  2  0  1)	  0  1
     60.0249	        	        	        	        	       0	(  1  0  8)	  0  1
     60.0249	        	        	        	        	    -475	(  1  0  8)	  0  1
     60.7248	        	        	        	        	       0	(  2  0  2)	  0  1
     60.7248	        	        	        	        	    -475	(  2  0  2)	  0  1
     62.6533	        	        	        	        	       0	(  2  0  3)	  0  1
     62.6533	        	        	        	        	    -475	(  2  0  3)	  0  1
     65.0754	        	        	        	        	       0	(  1  1  6)	  0  1
     65.0754	        	        	        	        	    -475	(  1  1  6)	  0  1
     65.2988	        	        	        	        	       0	(  2  0  4)	  0  1
     65.2988	        	        	        	        	    -475	(  2  0  4)	  0  1
     65.8995	        	        	        	        	       0	(  0  0 10)	  0  1
     65.8995	        	        	        	        	    -475	(  0  0 10)	  0  1
     66.4924	        	        	        	        	       0	(  1  0  9)	  0  1
     66.4924	        	        	        	        	    -475	(  1  0  9)	  0  1
     68.6208	        	        	        	        	       0	(  2  0  5)	  0  1
     68.6208	        	        	        	        	    -475	(  2  0  5)	  0  1
     72.5826	        	        	        	        	       0	(  2  0  6)	  0  1
     72.5826	        	        	        	        	    -475	(  2  0  6)	  0  1
     73.3671	        	        	        	        	       0	(  1  0 10)	  0  1
     73.3671	        	        	        	        	    -475	(  1  0 10)	  0  1
     75.2002	        	        	        	        	       0	(  1  1  8)	  0  1
     75.2002	        	        	        	        	    -475	(  1  1  8)	  0  1
     77.1585	        	        	        	        	       0	(  2  0  7)	  0  1
     77.1585	        	        	        	        	    -475	(  2  0  7)	  0  1
     80.6930	        	        	        	        	       0	(  1  0 11)	  0  1
     80.6930	        	        	        	        	    -475	(  1  0 11)	  0  1
     81.5193	        	        	        	        	       0	(  0  0 12)	  0  1
     81.5193	        	        	        	        	    -475	(  0  0 12)	  0  1
     81.5814	        	        	        	        	       0	(  2  1  0)	  0  1
     81.5814	        	        	        	        	    -475	(  2  1  0)	  0  1
     81.9248	        	        	        	        	       0	(  2  1  1)	  0  1
     81.9248	        	        	        	        	    -475	(  2  1  1)	  0  1
     82.3392	        	        	        	        	       0	(  2  0  8)	  0  1
     82.3392	        	        	        	        	    -475	(  2  0  8)	  0  1
     82.9530	        	        	        	        	       0	(  2  1  2)	  0  1
     82.9530	        	        	        	        	    -475	(  2  1  2)	  0  1
     84.6620	        	        	        	        	       0	(  2  1  3)	  0  1
     84.6620	        	        	        	        	    -475	(  2  1  3)	  0  1
     87.0471	        	        	        	        	       0	(  2  1  4)	  0  1
     87.0471	        	        	        	        	    -475	(  2  1  4)	  0  1
     87.5951	        	        	        	        	       0	(  1  1 10)	  0  1
     87.5951	        	        	        	        	    -475	(  1  1 10)	  0  1
     88.1383	        	        	        	        	       0	(  2  0  9)	  0  1
     88.1383	        	        	        	        	    -475	(  2  0  9)	  0  1
     88.5490	        	        	        	        	       0	(  1  0 12)	  0  1
     88.5490	        	        	        	        	    -475	(  1  0 12)	  0  1
     90.1069	        	        	        	        	       0	(  2  1  5)	  0  1
     90.1069	        	        	        	        	    -475	(  2  1  5)	  0  1
     93.8483	        	        	        	        	       0	(  2  1  6)	  0  1
     93.8483	        	        	        	        	    -475	(  2  1  6)	  0  1
     94.6009	        	        	        	        	       0	(  2  0 10)	  0  1
     94.6009	        	        	        	        	    -475	(  2  0 10)	  0  1
     95.6201	        	        	        	        	       0	(  3  0  0)	  0  1
     95.6201	        	        	        	        	    -475	(  3  0  0)	  0  1
     95.9617	        	        	        	        	       0	(  3  0  1)	  0  1
     95.9617	        	        	        	        	    -475	(  3  0  1)	  0  1
     96.9880	        	        	        	        	       0	(  3  0  2)	  0  1
     96.9880	        	        	        	        	    -475	(  3  0  2)	  0  1
     97.0639	        	        	        	        	       0	(  1  0 13)	  0  1
     97.0639	        	        	        	        	    -475	(  1  0 13)	  0  1
     98.2932	        	        	        	        	       0	(  2  1  7)	  0  1
     98.2932	        	        	        	        	    -475	(  2  1  7)	  0  1
     98.7038	        	        	        	        	       0	(  3  0  3)	  0  1
     98.7038	        	        	        	        	    -475	(  3  0  3)	  0  1
     99.2628	        	        	        	        	       0	(  0  0 14)	  0  1
     99.2628	        	        	        	        	    -475	(  0  0 14)	  0  1
    101.1196	        	        	        	        	       0	(  3  0  4)	  0  1
    101.1196	        	        	        	        	    -475	(  3  0  4)	  0  1
    101.8181	        	        	        	        	       0	(  2  0 11)	  0  1
    101.8181	        	        	        	        	    -475	(  2  0 11)	  0  1
    102.6539	        	        	        	        	       0	(  1  1 12)	  0  1
    102.6539	        	        	        	        	    -475	(  1  1 12)	  0  1
    103.4878	        	        	        	        	       0	(  2  1  8)	  0  1
    103.4878	        	        	        	        	    -475	(  2  1  8)	  0  1
    104.2563	        	        	        	        	       0	(  3  0  5)	  0  1
    104.2563	        	        	        	        	    -475	(  3  0  5)	  0  1
    106.4501	        	        	        	        	       0	(  1  0 14)	  0  1
    106.4501	        	        	        	        	    -475	(  1  0 14)	  0  1
    108.1519	        	        	        	        	       0	(  3  0  6)	  0  1
    108.1519	        	        	        	        	    -475	(  3  0  6)	  0  1
    109.5192	        	        	        	        	       0	(  2  1  9)	  0  1
    109.5192	        	        	        	        	    -475	(  2  1  9)	  0  1
    109.9556	        	        	        	        	       0	(  2  0 12)	  0  1
    109.9556	        	        	        	        	    -475	(  2  0 12)	  0  1
    112.8733	        	        	        	        	       0	(  3  0  7)	  0  1
    112.8733	        	        	        	        	    -475	(  3  0  7)	  0  1
    116.5448	        	        	        	        	       0	(  2  1 10)	  0  1
    116.5448	        	        	        	        	    -475	(  2  1 10)	  0  1
    117.0846	        	        	        	        	       0	(  1  0 15)	  0  1
    117.0846	        	        	        	        	    -475	(  1  0 15)	  0  1
    117.6861	        	        	        	        	       0	(  2  2  0)	  0  1
    117.6861	        	        	        	        	    -475	(  2  2  0)	  0  1
    118.5376	        	        	        	        	       0	(  3  0  8)	  0  1
    118.5376	        	        	        	        	    -475	(  3  0  8)	  0  1
    119.2337	        	        	        	        	       0	(  2  2  2)	  0  1
    119.2337	        	        	        	        	    -475	(  2  2  2)	  0  1
    119.3202	        	        	        	        	       0	(  2  0 13)	  0  1
    119.3202	        	        	        	        	    -475	(  2  0 13)	  0  1
    121.1356	        	        	        	        	       0	(  0  0 16)	  0  1
    121.1356	        	        	        	        	    -475	(  0  0 16)	  0  1
    121.8504	        	        	        	        	       0	(  1  1 14)	  0  1
    121.8504	        	        	        	        	    -475	(  1  1 14)	  0  1
    124.0297	        	        	        	        	       0	(  2  2  4)	  0  1
    124.0297	        	        	        	        	    -475	(  2  2  4)	  0  1
    124.8604	        	        	        	        	       0	(  2  1 11)	  0  1
    124.8604	        	        	        	        	    -475	(  2  1 11)	  0  1
    125.3573	        	        	        	        	       0	(  3  0  9)	  0  1
    125.3573	        	        	        	        	    -475	(  3  0  9)	  0  1
    125.9389	        	        	        	        	       0	(  3  1  0)	  0  1
    125.9389	        	        	        	        	    -475	(  3  1  0)	  0  1
    126.3603	        	        	        	        	       0	(  3  1  1)	  0  1
    126.3603	        	        	        	        	    -475	(  3  1  1)	  0  1
    127.6385	        	        	        	        	       0	(  3  1  2)	  0  1
    127.6385	        	        	        	        	    -475	(  3  1  2)	  0  1
    129.7455	        	        	        	        	       0	(  1  0 16)	  0  1
    129.7455	        	        	        	        	    -475	(  1  0 16)	  0  1
    129.8197	        	        	        	        	       0	(  3  1  3)	  0  1
    129.8197	        	        	        	        	    -475	(  3  1  3)	  0  1
    130.5432	        	        	        	        	       0	(  2  0 14)	  0  1
    130.5432	        	        	        	        	    -475	(  2  0 14)	  0  1
    132.7191	        	        	        	        	       0	(  2  2  6)	  0  1
    132.7191	        	        	        	        	    -475	(  2  2  6)	  0  1
    132.9965	        	        	        	        	       0	(  3  1  4)	  0  1
    132.9965	        	        	        	        	    -475	(  3  1  4)	  0  1
    133.7508	        	        	        	        	       0	(  3  0 10)	  0  1
    133.7508	        	        	        	        	    -475	(  3  0 10)	  0  1
    135.0878	        	        	        	        	       0	(  2  1 12)	  0  1
    135.0878	        	        	        	        	    -475	(  2  1 12)	  0  1
    137.3431	        	        	        	        	       0	(  3  1  5)	  0  1
    137.3431	        	        	        	        	    -475	(  3  1  5)	  0  1
    143.2064	        	        	        	        	       0	(  3  1  6)	  0  1
    143.2064	        	        	        	        	    -475	(  3  1  6)	  0  1
    144.7180	        	        	        	        	       0	(  3  0 11)	  0  1
    144.7180	        	        	        	        	    -475	(  3  0 11)	  0  1
    145.3203	        	        	        	        	       0	(  2  0 15)	  0  1
    145.3203	        	        	        	        	    -475	(  2  0 15)	  0  1
    146.6653	        	        	        	        	       0	(  1  0 17)	  0  1
    146.6653	        	        	        	        	    -475	(  1  0 17)	  0  1
    147.6517	        	        	        	        	       0	(  2  2  8)	  0  1
    147.6517	        	        	        	        	    -475	(  2  2  8)	  0  1
    148.9576	        	        	        	        	       0	(  2  1 13)	  0  1
    148.9576	        	        	        	        	    -475	(  2  1 13)	  0  1
    151.4144	        	        	        	        	       0	(  3  1  7)	  0  1
    151.4144	        	        	        	        	    -475	(  3  1  7)	  0  1
    152.1550	        	        	        	        	       0	(  1  1 16)	  0  1
    152.1550	        	        	        	        	    -475	(  1  1 16)	  0  1
    157.0969	        	        	        	        	       0	(  0  0 18)	  0  1
    157.0969	        	        	        	        	    -475	(  0  0 18)	  0  1
    162.4000	        	        	        	        	       0	(  3  0 12)	  0  1
    162.4000	        	        	        	        	    -475	(  3  0 12)	  0  1
    162.6057	        	        	        	        	       0	(  4  0  0)	  0  1
    162.6057	        	        	        	        	    -475	(  4  0  0)	  0  1
    163.7876	        	        	        	        	       0	(  4  0  1)	  0  1
    163.7876	        	        	        	        	    -475	(  4  0  1)	  0  1
    165.3394	        	        	        	        	       0	(  3  1  8)	  0  1
    165.3394	        	        	        	        	    -475	(  3  1  8)	  0  1
    167.9989	        	        	        	        	       0	(  4  0  2)	  0  1
    167.9989	        	        	        	        	    -475	(  4  0  2)	  0  1
