MSG Master    CELL:    5.89057   5.89057  23.15437   90.0000   90.0000  120.0000   SPGR: P 63/m m c             TEMP:    654.05
  2   1280     2.52000     0.00000    -0.09641     0.00000     0.00000    0
    96    96     0     0     2
       0.00000      10.00000
     125.00000     130.00000
 2Theta	Yobs	Ycal	Yobs-Ycal	Backg	Posr	(hkl)	K
      0.7700	    0.00	  741.49	-1875.87	  618.64
      0.8700	    0.00	  740.58	-1875.87	  617.72
      0.9700	   50.00	  739.66	-1875.87	  616.81
      1.0700	   47.00	  738.75	-1875.87	  615.89
      1.1700	   45.00	  737.83	-1875.87	  614.98
      1.2700	   50.00	  736.92	-1875.87	  614.07
      1.3700	   46.00	  736.01	-1875.87	  613.16
      1.4700	   96.00	  735.10	-1875.87	  612.25
      1.5700	  278.00	  734.19	-1875.87	  611.34
      1.6700	  481.00	  733.29	-1875.87	  610.44
      1.7700	  563.00	  732.38	-1875.87	  609.53
      1.8700	  653.00	  731.48	-1875.87	  608.63
      1.9700	  723.00	  730.58	-1875.87	  607.73
      2.0700	  754.00	  729.68	-1875.87	  606.83
      2.1700	  771.00	  728.78	-1875.87	  605.93
      2.2700	  796.00	  727.88	-1875.87	  605.03
      2.3700	  730.00	  726.98	-1875.87	  604.13
      2.4700	  679.00	  726.09	-1875.87	  603.24
      2.5700	  698.00	  725.19	-1875.87	  602.34
      2.6700	  688.00	  724.30	-1875.87	  601.45
      2.7700	  623.00	  723.41	-1875.87	  600.56
      2.8700	  616.00	  722.52	-1875.87	  599.67
      2.9700	  664.00	  721.64	-1875.87	  598.78
      3.0700	  580.00	  720.75	-1875.87	  597.90
      3.1700	  614.00	  719.86	-1875.87	  597.01
      3.2700	  701.00	  718.98	-1875.87	  596.13
      3.3700	  834.00	  718.10	-1875.87	  595.25
      3.4700	 1007.00	  717.22	-1875.87	  594.37
      3.5700	 1140.00	  716.34	-1875.87	  593.49
      3.6700	 1296.00	  715.47	-1875.87	  592.61
      3.7700	 1340.00	  714.59	-1875.87	  591.74
      3.8700	 1414.00	  713.72	-1875.87	  590.87
      3.9700	 1527.00	  712.85	-1875.87	  589.99
      4.0700	 1525.00	  711.97	-1875.87	  589.12
      4.1700	 1637.00	  711.11	-1875.87	  588.25
      4.2700	 1689.00	  710.24	-1875.87	  587.39
      4.3700	 1660.00	  709.37	-1875.87	  586.52
      4.4700	 1475.00	  708.51	-1875.87	  585.66
      4.5700	 1439.00	  707.65	-1875.87	  584.80
      4.6700	 1426.00	  706.79	-1875.87	  583.94
      4.7700	 1367.00	  705.93	-1875.87	  583.08
      4.8700	 1321.00	  705.07	-1875.87	  582.22
      4.9700	 1293.00	  704.22	-1875.87	  581.37
      5.0700	 1318.00	  703.37	-1875.87	  580.51
      5.1700	 1261.00	  702.51	-1875.87	  579.66
      5.2700	 1197.00	  701.67	-1875.87	  578.81
      5.3700	 1152.00	  700.82	-1875.87	  577.97
      5.4700	 1103.00	  699.97	-1875.87	  577.12
      5.5700	 1128.00	  699.13	-1875.87	  576.28
      5.6700	 1074.00	  698.28	-1875.87	  575.43
      5.7700	 1060.00	  697.44	-1875.87	  574.59
      5.8700	 1029.00	  696.61	-1875.87	  573.75
      5.9700	  994.00	  695.77	-1875.87	  572.92
      6.0700	 1026.00	  694.93	-1875.87	  572.08
      6.1700	  958.00	  694.10	-1875.87	  571.25
      6.2700	  991.00	  693.27	-1875.87	  570.42
      6.3700	  962.00	  692.44	-1875.87	  569.59
      6.4700	  930.00	  691.61	-1875.87	  568.76
      6.5700	  934.00	  690.79	-1875.87	  567.93
      6.6700	  884.00	  689.96	-1875.87	  567.11
      6.7700	  905.00	  689.14	-1875.87	  566.29
      6.8700	  847.00	  688.32	-1875.87	  565.47
      6.9700	  826.00	  687.50	-1875.87	  564.65
      7.0700	  881.00	  686.69	-1875.87	  563.84
      7.1700	  814.00	  685.87	-1875.87	  563.02
      7.2700	  830.00	  685.06	-1875.87	  562.21
      7.3700	  882.00	  684.25	-1875.87	  561.40
      7.4700	  803.00	  683.44	-1875.87	  560.59
      7.5700	  780.00	  682.64	-1875.87	  559.78
      7.6700	  783.00	  681.83	-1875.87	  558.98
      7.7700	  762.00	  681.03	-1875.87	  558.18
      7.8700	  770.00	  680.23	-1875.87	  557.38
      7.9700	  777.00	  679.43	-1875.87	  556.58
      8.0700	  802.00	  678.64	-1875.87	  555.78
      8.1700	  748.00	  677.84	-1875.87	  554.99
      8.2700	  785.00	  677.05	-1875.87	  554.20
      8.3700	  752.00	  676.26	-1875.87	  553.41
      8.4700	  758.00	  675.47	-1875.87	  552.62
      8.5700	  710.00	  674.69	-1875.87	  551.83
      8.6700	  706.00	  673.90	-1875.87	  551.05
      8.7700	  701.00	  673.12	-1875.87	  550.27
      8.8700	  680.00	  672.34	-1875.87	  549.49
      8.9700	  696.00	  671.56	-1875.87	  548.71
      9.0700	  768.00	  670.79	-1875.87	  547.94
      9.1700	  708.00	  670.01	-1875.87	  547.16
      9.2700	  712.00	  669.24	-1875.87	  546.39
      9.3700	  704.00	  668.47	-1875.87	  545.62
      9.4700	  739.00	  667.71	-1875.87	  544.86
      9.5700	  728.00	  666.94	-1875.87	  544.09
      9.6700	  705.00	  666.18	-1875.87	  543.33
      9.7700	  653.00	  665.42	-1875.87	  542.57
      9.8700	  668.00	  664.66	-1875.87	  541.81
      9.9700	  664.00	  663.90	-1875.87	  541.05
     10.0700	  721.00	  665.53	-1820.39	  540.30
     10.1700	  649.00	  665.04	-1891.91	  539.55
     10.2700	  677.00	  664.61	-1863.48	  538.80
     10.3700	  690.00	  664.26	-1850.13	  538.05
     10.4700	  699.00	  664.02	-1840.89	  537.30
     10.5700	  618.00	  663.94	-1921.80	  536.56
     10.6700	  670.00	  664.08	-1869.95	  535.82
     10.7700	  709.00	  664.55	-1831.41	  535.08
     10.8700	  660.00	  665.43	-1881.29	  534.34
     10.9700	  710.00	  666.79	-1832.66	  533.61
     11.0700	  652.00	  668.69	-1892.55	  532.88
     11.1700	  630.00	  671.12	-1916.98	  532.15
     11.2700	  682.00	  674.12	-1867.99	  531.42
     11.3700	  722.00	  677.77	-1831.63	  530.70
     11.4700	  699.00	  682.17	-1859.03	  529.97
     11.5700	  690.00	  687.50	-1873.37	  529.25
     11.6700	  732.00	  694.01	-1837.88	  528.53
     11.7700	  722.00	  701.99	-1855.86	  527.82
     11.8700	  753.00	  711.63	-1834.49	  527.10
     11.9700	  813.00	  722.74	-1785.61	  526.39
     12.0700	  763.00	  734.36	-1847.22	  525.68
     12.1700	  838.00	  744.18	-1782.05	  524.98
     12.2700	  786.00	  748.23	-1838.10	  524.27
     12.3700	  812.00	  742.11	-1805.98	  523.57
     12.4700	  726.00	  725.71	-1875.58	  522.87
     12.5700	  713.00	  705.36	-1868.23	  522.17
     12.6700	  717.00	  687.21	-1846.08	  521.47
     12.7700	  686.00	  673.47	-1863.33	  520.78
     12.8700	  627.00	  663.90	-1912.77	  520.09
     12.9700	  650.00	  657.48	-1883.35	  519.40
     13.0700	  634.00	  653.15	-1895.01	  518.71
     13.1700	  623.00	  650.08	-1902.94	  518.03
     13.2700	  617.00	  647.74	-1906.61	  517.35
     13.3700	  645.00	  645.86	-1876.72	  516.67
     13.4700	  588.00	  644.25	-1932.12	  515.99
     13.5700	  650.00	  642.85	-1868.72	  515.32
     13.6700	  599.00	  641.59	-1918.46	  514.64
     13.7700	  656.00	  640.44	-1860.31	  513.97
     13.8700	  654.00	  639.38	-1861.24	  513.31
     13.9700	  685.00	  638.38	-1829.24	  512.64
     14.0700	  637.00	  637.43	-1876.30	  511.98
     14.1700	  637.00	  636.53	-1875.40	  511.32
     14.2700	  602.00	  635.67	-1909.53	  510.66
     14.3700	  621.00	  634.83	-1889.70	  510.00
     14.4700	  597.00	  634.02	-1912.89	  509.35
     14.5700	  600.00	  633.24	-1909.10	  508.70
     14.6700	  589.00	  632.47	-1919.33	  508.05
     14.7700	  591.00	  631.72	-1916.58	  507.40
     14.8700	  624.00	  630.98	-1882.84	  506.76
     14.9700	  598.00	  630.25	-1908.12	  506.12
     15.0700	  600.00	  629.54	-1905.40	  505.48
     15.1700	  622.00	  628.83	-1882.70	  504.84
     15.2700	  591.00	  628.14	-1913.00	  504.21
     15.3700	  603.00	  627.45	-1900.31	  503.58
     15.4700	  635.00	  626.77	-1867.63	  502.95
     15.5700	  592.00	  626.10	-1909.96	  502.32
     15.6700	  644.00	  625.43	-1857.29	  501.70
     15.7700	  617.00	  624.77	-1883.63	  501.07
     15.8700	  600.00	  624.11	-1899.98	  500.45
     15.9700	  614.00	  623.46	-1885.33	  499.84
     16.0700	  607.00	  622.82	-1891.68	  499.22
     16.1700	  598.00	  622.18	-1900.04	  498.61
     16.2700	  641.00	  621.54	-1856.41	  498.00
     16.3700	  556.00	  620.91	-1940.78	  497.39
     16.4700	  606.00	  620.28	-1890.15	  496.78
     16.5700	  628.00	  619.66	-1867.53	  496.18
     16.6700	  616.00	  619.04	-1878.91	  495.58
     16.7700	  595.00	  618.43	-1899.29	  494.98
     16.8700	  581.00	  617.82	-1912.68	  494.39
     16.9700	  610.00	  617.21	-1883.08	  493.79
     17.0700	  646.00	  616.60	-1846.47	  493.20
     17.1700	  631.00	  616.00	-1860.87	  492.61
     17.2700	  669.00	  615.41	-1822.27	  492.03
     17.3700	  575.00	  614.81	-1915.68	  491.45
     17.4700	  604.00	  614.22	-1886.09	  490.86
     17.5700	  646.00	  613.63	-1843.50	  490.29
     17.6700	  619.00	  613.05	-1869.91	  489.71
     17.7700	  583.00	  612.47	-1905.33	  489.14
     17.8700	  583.00	  611.89	-1904.75	  488.56
     17.9700	  615.00	  611.31	-1872.18	  488.00
     18.0700	  651.00	  610.74	-1835.61	  487.43
     18.1700	  592.00	  610.17	-1894.04	  486.87
     18.2700	  585.00	  609.61	-1900.47	  486.30
     18.3700	  627.00	  609.04	-1857.91	  485.74
     18.4700	  574.00	  608.48	-1910.35	  485.19
     18.5700	  606.00	  609.71	-1879.57	  484.63
     18.6700	  592.00	  609.19	-1893.06	  484.08
     18.7700	  580.00	  608.67	-1904.54	  483.53
     18.8700	  559.00	  608.16	-1925.03	  482.99
     18.9700	  561.00	  607.66	-1922.52	  482.44
     19.0700	  569.00	  607.16	-1914.02	  481.90
     19.1700	  547.00	  606.66	-1935.52	  481.36
     19.2700	  583.00	  606.16	-1899.03	  480.82
     19.3700	  604.00	  605.67	-1877.54	  480.29
     19.4700	  608.00	  605.19	-1873.06	  479.76
     19.5700	  618.00	  604.71	-1862.58	  479.23
     19.6700	  633.00	  604.23	-1847.10	  478.70
     19.7700	  618.00	  603.82	-1861.68	  478.17
     19.8700	  583.00	  603.35	-1896.22	  477.65
     19.9700	  630.00	  602.89	-1848.76	  477.13
     20.0700	  607.00	  602.43	-1871.30	  476.61
     20.1700	  650.00	  601.98	-1827.85	  476.10
     20.2700	  646.00	  601.54	-1831.40	  475.59
     20.3700	  599.00	  601.10	-1877.97	  475.08
     20.4700	  610.00	  600.66	-1866.53	  474.57
     20.5700	  586.00	  600.24	-1890.10	  474.06
     20.6700	  604.00	  599.81	-1871.68	  473.56
     20.7700	  606.00	  599.40	-1869.26	  473.06
     20.8700	  626.00	  598.99	-1848.85	  472.56
     20.9700	  586.00	  598.58	-1888.45	  472.07
     21.0700	  603.00	  598.19	-1871.05	  471.57
     21.1700	  572.00	  597.80	-1901.66	  471.08
     21.2700	  578.00	  597.42	-1895.28	  470.60
     21.3700	  595.00	  597.04	-1877.91	  470.11
     21.4700	  547.00	  596.68	-1925.54	  469.63
     21.5700	  606.00	  596.32	-1866.19	  469.15
     21.6700	  589.00	  595.97	-1882.84	  468.67
     21.7700	  579.00	  595.63	-1892.50	  468.19
     21.8700	  599.00	  595.30	-1872.17	  467.72
     21.9700	  578.00	  595.17	-1893.04	  467.25
     22.0700	  585.00	  594.87	-1885.74	  466.78
     22.1700	  558.00	  594.58	-1912.45	  466.31
     22.2700	  545.00	  594.30	-1925.17	  465.85
     22.3700	  613.00	  594.04	-1856.91	  465.39
     22.4700	  613.00	  593.80	-1856.67	  464.93
     22.5700	  560.00	  593.57	-1909.44	  464.47
     22.6700	  616.00	  593.37	-1853.23	  464.02
     22.7700	  599.00	  593.18	-1870.05	  463.56
     22.8700	  586.00	  593.02	-1882.89	  463.12
     22.9700	  617.00	  592.89	-1851.75	  462.67
     23.0700	  613.00	  592.79	-1855.65	  462.22
     23.1700	  568.00	  592.73	-1900.59	  461.78
     23.2700	  599.00	  592.71	-1869.57	  461.34
     23.3700	  615.00	  592.74	-1853.61	  460.90
     23.4700	  635.00	  592.84	-1833.71	  460.47
     23.5700	  585.00	  593.02	-1883.89	  460.04
     23.6700	  640.00	  593.31	-1829.17	  459.61
     23.7700	  622.00	  593.73	-1847.60	  459.18
     23.8700	  604.00	  594.36	-1866.22	  458.75
     23.9700	  623.00	  595.29	-1848.15	  458.33
     24.0700	  575.00	  596.69	-1897.55	  457.91
     24.1700	  622.00	  598.74	-1852.61	  457.49
     24.2700	  589.00	  601.92	-1888.79	  457.08
     24.3700	  611.00	  606.57	-1871.43	  456.66
     24.4700	  628.00	  613.02	-1860.88	  456.25
     24.5700	  649.00	  621.35	-1848.21	  455.84
     24.6700	  635.00	  631.15	-1872.02	  455.44
     24.7700	  662.00	  641.27	-1855.13	  455.03
     24.8700	  710.00	  649.43	-1815.30	  454.63
     24.9700	  698.00	  652.43	-1830.29	  454.23
     25.0700	  668.00	  647.90	-1855.77	  453.84
     25.1700	  665.00	  637.76	-1848.63	  453.44
     25.2700	  656.00	  626.53	-1846.40	  453.05
     25.3700	  655.00	  617.22	-1838.09	  452.66
     25.4700	  633.00	  610.64	-1853.51	  452.27
     25.5700	  618.00	  606.55	-1864.42	  451.89
     25.6700	  636.00	  604.35	-1844.21	  451.50
     25.7700	  599.00	  603.45	-1880.32	  451.12
     25.8700	  609.00	  603.43	-1870.30	  450.75
     25.9700	  645.00	  604.02	-1834.89	  450.37
     26.0700	  620.00	  605.10	-1860.96	  450.00
     26.1700	  637.00	  606.60	-1845.47	  449.63
     26.2700	  634.00	  608.55	-1850.41	  449.26
     26.3700	  582.00	  610.95	-1904.82	  448.89
     26.4700	  630.00	  613.89	-1859.75	  448.53
     26.5700	  613.00	  617.43	-1880.29	  448.16
     26.6700	  674.00	  621.69	-1823.56	  447.80
     26.7700	  655.00	  626.84	-1847.70	  447.45
     26.8700	  626.00	  633.08	-1882.94	  447.09
     26.9700	  651.00	  640.69	-1865.56	  446.74
     27.0700	  683.00	  650.09	-1842.96	  446.39
     27.1700	  669.00	  661.84	-1868.71	  446.04
     27.2700	  676.00	  676.84	-1876.71	  445.70
     27.3700	  725.00	  696.65	-1847.52	  445.35
     27.4700	  722.00	  724.37	-1878.24	  445.01
     27.5700	  739.00	  766.49	-1903.36	  444.67
     27.6700	  784.00	  835.97	-1927.84	  444.33
     27.7700	  796.00	  956.21	-2036.07	  444.00
     27.8700	  903.00	 1163.86	-2136.72	  443.67
     27.9700	 1162.00	 1504.80	-2218.66	  443.34
     28.0700	 1635.00	 2015.41	-2256.28	  443.01
     28.1700	 2540.00	 2686.80	-2022.67	  442.68
     28.2700	 3755.00	 3416.69	-1537.55	  442.36
     28.3700	 4589.00	 3975.99	-1262.86	  442.04
     28.4700	 4650.00	 4064.11	-1289.98	  441.72
     28.5700	 3858.00	 3602.38	-1620.25	  441.40
     28.6700	 2742.00	 2953.92	-2087.79	  441.09
     28.7700	 2183.00	 2500.19	-2193.05	  440.78
     28.8700	 2177.00	 2357.98	-2056.84	  440.47
     28.9700	 2408.00	 2443.19	-1911.06	  440.16
     29.0700	 2779.00	 2563.39	-1660.25	  439.86
     29.1700	 2679.00	 2505.36	-1702.23	  439.55
     29.2700	 2256.00	 2186.01	-1805.88	  439.25
     29.3700	 1712.00	 1744.25	-1908.12	  438.95
     29.4700	 1320.00	 1349.12	-1904.99	  438.66
     29.5700	  993.00	 1066.89	-1949.76	  438.36
     29.6700	  908.00	  892.35	-1860.22	  438.07
     29.7700	  837.00	  793.25	-1832.11	  437.78
     29.8700	  802.00	  737.44	-1811.31	  437.49
     29.9700	  730.00	  703.72	-1849.58	  437.20
     30.0700	  764.00	  681.20	-1793.07	  436.92
     30.1700	  669.00	  665.12	-1871.98	  436.64
     30.2700	  731.00	  653.52	-1798.38	  436.36
     30.3700	  718.00	  645.77	-1803.64	  436.08
     30.4700	  661.00	  642.07	-1856.94	  435.81
     30.5700	  636.00	  643.30	-1883.16	  435.53
     30.6700	  670.00	  650.72	-1856.59	  435.26
     30.7700	  702.00	  665.22	-1839.09	  434.99
     30.8700	  708.00	  685.94	-1853.81	  434.73
     30.9700	  715.00	  709.00	-1869.86	  434.46
     31.0700	  735.00	  726.72	-1867.59	  434.20
     31.1700	  753.00	  728.91	-1851.78	  433.94
     31.2700	  696.00	  710.46	-1890.32	  433.68
     31.3700	  627.00	  679.49	-1928.35	  433.42
     31.4700	  664.00	  648.62	-1860.49	  433.17
     31.5700	  657.00	  624.38	-1843.24	  432.92
     31.6700	  626.00	  607.80	-1857.66	  432.67
     31.7700	  640.00	  597.39	-1833.26	  432.42
     31.8700	  597.00	  591.06	-1869.92	  432.17
     31.9700	  612.00	  587.07	-1850.94	  431.93
     32.0700	  574.00	  584.38	-1886.25	  431.69
     32.1700	  616.00	  582.44	-1842.31	  431.45
     32.2700	  621.00	  581.01	-1835.88	  431.21
     32.3700	  575.00	  579.97	-1880.84	  430.97
     32.4700	  618.00	  579.31	-1837.18	  430.74
     32.5700	  606.00	  578.95	-1848.81	  430.51
     32.6700	  618.00	  578.91	-1836.78	  430.28
     32.7700	  623.00	  579.23	-1832.10	  430.05
     32.8700	  605.00	  579.96	-1850.82	  429.83
     32.9700	  582.00	  581.17	-1875.04	  429.60
     33.0700	  590.00	  583.01	-1868.87	  429.38
     33.1700	  618.00	  585.70	-1843.57	  429.16
     33.2700	  587.00	  589.69	-1878.55	  428.94
     33.3700	  620.00	  595.81	-1851.68	  428.73
     33.4700	  604.00	  605.66	-1877.53	  428.51
     33.5700	  669.00	  621.97	-1828.84	  428.30
     33.6700	  584.00	  648.91	-1940.78	  428.09
     33.7700	  683.00	  691.61	-1884.47	  427.88
     33.8700	  753.00	  754.17	-1877.04	  427.68
     33.9700	  861.00	  835.93	-1850.80	  427.47
     34.0700	  963.00	  927.01	-1839.87	  427.27
     34.1700	 1061.00	 1005.64	-1820.51	  427.07
     34.2700	 1161.00	 1040.62	-1755.48	  426.87
     34.3700	 1062.00	 1009.15	-1823.01	  426.67
     34.4700	  964.00	  924.92	-1836.79	  426.48
     34.5700	  821.00	  826.39	-1881.26	  426.29
     34.6700	  760.00	  741.01	-1856.88	  426.10
     34.7700	  730.00	  678.08	-1823.95	  425.91
     34.8700	  670.00	  636.48	-1842.34	  425.72
     34.9700	  726.00	  610.87	-1760.74	  425.53
     35.0700	  646.00	  595.49	-1825.36	  425.35
     35.1700	  580.00	  585.96	-1881.83	  425.17
     35.2700	  644.00	  579.61	-1811.48	  424.99
     35.3700	  605.00	  575.03	-1845.90	  424.81
     35.4700	  594.00	  571.52	-1853.39	  424.63
     35.5700	  587.00	  568.73	-1857.60	  424.46
     35.6700	  585.00	  566.47	-1857.33	  424.29
     35.7700	  568.00	  564.60	-1872.47	  424.12
     35.8700	  519.00	  563.05	-1919.92	  423.95
     35.9700	  499.00	  561.75	-1938.62	  423.78
     36.0700	  587.00	  560.66	-1849.52	  423.61
     36.1700	  548.00	  559.74	-1887.61	  423.45
     36.2700	  559.00	  558.97	-1875.84	  423.29
     36.3700	  555.00	  558.34	-1879.21	  423.13
     36.4700	  512.00	  557.84	-1921.71	  422.97
     36.5700	  531.00	  557.67	-1902.53	  422.81
     36.6700	  592.00	  557.91	-1841.77	  422.66
     36.7700	  573.00	  557.80	-1860.66	  422.51
     36.8700	  563.00	  557.85	-1870.72	  422.35
     36.9700	  596.00	  558.10	-1837.96	  422.20
     37.0700	  566.00	  558.62	-1868.48	  422.06
     37.1700	  599.00	  559.49	-1836.36	  421.91
     37.2700	  546.00	  560.98	-1890.85	  421.77
     37.3700	  544.00	  563.36	-1895.23	  421.62
     37.4700	  614.00	  567.11	-1828.98	  421.48
     37.5700	  554.00	  572.88	-1894.74	  421.34
     37.6700	  586.00	  581.42	-1871.29	  421.20
     37.7700	  611.00	  593.40	-1858.26	  421.07
     37.8700	  618.00	  608.91	-1866.78	  420.93
     37.9700	  632.00	  627.00	-1870.87	  420.80
     38.0700	  614.00	  645.28	-1907.15	  420.67
     38.1700	  630.00	  659.76	-1905.63	  420.54
     38.2700	  659.00	  665.07	-1881.93	  420.41
     38.3700	  653.00	  657.19	-1880.05	  420.29
     38.4700	  617.00	  638.70	-1897.57	  420.16
     38.5700	  576.00	  615.70	-1915.57	  420.04
     38.6700	  539.00	  595.89	-1932.75	  419.92
     38.7700	  609.00	  580.48	-1847.35	  419.80
     38.8700	  547.00	  569.65	-1898.52	  419.68
     38.9700	  532.00	  562.55	-1906.42	  419.56
     39.0700	  579.00	  558.07	-1854.94	  419.44
     39.1700	  518.00	  555.23	-1913.09	  419.33
     39.2700	  568.00	  553.33	-1861.20	  419.22
     39.3700	  591.00	  551.98	-1836.85	  419.11
     39.4700	  547.00	  550.96	-1879.83	  419.00
     39.5700	  543.00	  550.15	-1883.01	  418.89
     39.6700	  567.00	  549.48	-1858.35	  418.78
     39.7700	  501.00	  548.93	-1923.80	  418.68
     39.8700	  561.00	  547.84	-1862.71	  418.58
     39.9700	  553.00	  547.47	-1870.33	  418.47
     40.0700	  541.00	  547.15	-1882.02	  418.37
     40.1700	  536.00	  546.89	-1886.76	  418.28
     40.2700	  519.00	  547.22	-1904.09	  418.18
     40.3700	  555.00	  547.05	-1867.92	  418.08
     40.4700	  550.00	  546.92	-1872.79	  417.99
     40.5700	  533.00	  546.82	-1889.69	  417.90
     40.6700	  516.00	  546.76	-1906.63	  417.80
     40.7700	  595.00	  546.73	-1827.60	  417.71
     40.8700	  509.00	  546.80	-1913.67	  417.63
     40.9700	  513.00	  546.85	-1909.72	  417.54
     41.0700	  551.00	  546.94	-1871.81	  417.45
     41.1700	  589.00	  547.08	-1833.95	  417.37
     41.2700	  509.00	  547.28	-1914.15	  417.28
     41.3700	  549.00	  547.55	-1874.41	  417.20
     41.4700	  508.00	  547.89	-1915.76	  417.12
     41.5700	  567.00	  548.34	-1857.21	  417.04
     41.6700	  536.00	  548.93	-1888.79	  416.97
     41.7700	  572.00	  549.70	-1853.56	  416.89
     41.8700	  545.00	  550.75	-1881.61	  416.82
     41.9700	  549.00	  552.25	-1879.12	  416.74
     42.0700	  523.00	  554.52	-1907.39	  416.67
     42.1700	  515.00	  558.06	-1918.93	  416.60
     42.2700	  565.00	  563.62	-1874.49	  416.53
     42.3700	  540.00	  572.12	-1907.99	  416.46
     42.4700	  550.00	  584.43	-1910.29	  416.39
     42.5700	  563.00	  600.87	-1913.73	  416.33
     42.6700	  594.00	  620.78	-1902.65	  416.26
     42.7700	  636.00	  641.48	-1881.34	  416.20
     42.8700	  612.00	  657.96	-1921.83	  416.14
     42.9700	  635.00	  664.26	-1905.12	  416.08
     43.0700	  646.00	  656.86	-1886.73	  416.02
     43.1700	  606.00	  639.17	-1909.04	  415.96
     43.2700	  641.00	  617.87	-1852.74	  415.90
     43.3700	  546.00	  598.05	-1927.91	  415.85
     43.4700	  565.00	  582.25	-1893.12	  415.79
     43.5700	  525.00	  570.54	-1921.40	  415.74
     43.6700	  538.00	  562.58	-1900.45	  415.69
     43.7700	  526.00	  557.44	-1907.31	  415.64
     43.8700	  569.00	  554.20	-1861.07	  415.59
     43.9700	  580.00	  552.12	-1847.99	  415.54
     44.0700	  546.00	  550.73	-1880.60	  415.49
     44.1700	  562.00	  549.75	-1863.62	  415.44
     44.2700	  594.00	  549.03	-1830.89	  415.40
     44.3700	  569.00	  548.47	-1855.34	  415.35
     44.4700	  545.00	  548.05	-1878.91	  415.31
     44.5700	  526.00	  547.96	-1897.82	  415.27
     44.6700	  553.00	  547.71	-1870.58	  415.23
     44.7700	  560.00	  547.53	-1863.40	  415.19
     44.8700	  550.00	  547.41	-1873.28	  415.15
     44.9700	  597.00	  547.34	-1826.20	  415.11
     45.0700	  565.00	  547.31	-1858.17	  415.07
     45.1700	  576.00	  547.31	-1847.18	  415.04
     45.2700	  558.00	  547.45	-1865.32	  415.01
     45.3700	  570.00	  547.53	-1853.40	  414.97
     45.4700	  494.00	  547.64	-1929.51	  414.94
     45.5700	  544.00	  547.79	-1879.66	  414.91
     45.6700	  507.00	  547.97	-1916.84	  414.88
     45.7700	  533.00	  548.19	-1891.05	  414.85
     45.8700	  545.00	  548.43	-1879.30	  414.82
     45.9700	  597.00	  548.72	-1827.58	  414.79
     46.0700	  529.00	  549.13	-1896.00	  414.77
     46.1700	  551.00	  549.50	-1874.37	  414.74
     46.2700	  544.00	  549.92	-1881.79	  414.72
     46.3700	  518.00	  550.40	-1908.27	  414.69
     46.4700	  496.00	  550.94	-1930.81	  414.67
     46.5700	  559.00	  551.37	-1868.24	  414.65
     46.6700	  573.00	  552.08	-1854.95	  414.63
     46.7700	  569.00	  552.90	-1859.77	  414.61
     46.8700	  531.00	  553.86	-1898.72	  414.59
     46.9700	  528.00	  555.01	-1902.87	  414.57
     47.0700	  538.00	  556.44	-1894.31	  414.56
     47.1700	  560.00	  558.32	-1874.18	  414.54
     47.2700	  572.00	  560.89	-1864.76	  414.53
     47.3700	  601.00	  564.56	-1839.43	  414.51
     47.4700	  558.00	  569.85	-1887.72	  414.50
     47.5700	  618.00	  577.37	-1835.24	  414.48
     47.6700	  592.00	  587.62	-1871.49	  414.47
     47.7700	  587.00	  600.78	-1889.65	  414.46
     47.8700	  617.00	  616.29	-1875.16	  414.45
     47.9700	  699.00	  632.53	-1809.39	  414.44
     48.0700	  669.00	  646.87	-1853.74	  414.43
     48.1700	  612.00	  654.48	-1918.34	  414.43
     48.2700	  621.00	  653.21	-1908.07	  414.42
     48.3700	  659.00	  644.25	-1861.12	  414.41
     48.4700	  610.00	  631.59	-1897.45	  414.41
     48.5700	  606.00	  618.98	-1888.85	  414.40
     48.6700	  594.00	  608.66	-1890.53	  414.40
     48.7700	  587.00	  601.56	-1890.42	  414.40
     48.8700	  581.00	  597.80	-1892.66	  414.40
     48.9700	  593.00	  597.09	-1879.96	  414.39
     49.0700	  569.00	  599.05	-1905.92	  414.39
     49.1700	  622.00	  603.38	-1857.24	  414.39
     49.2700	  602.00	  610.09	-1883.96	  414.39
     49.3700	  588.00	  619.78	-1907.65	  414.40
     49.4700	  640.00	  634.09	-1869.95	  414.40
     49.5700	  644.00	  656.76	-1888.63	  414.40
     49.6700	  658.00	  695.29	-1913.16	  414.40
     49.7700	  709.00	  762.81	-1929.67	  414.41
     49.8700	  867.00	  878.61	-1887.47	  414.41
     49.9700	 1113.00	 1065.23	-1828.09	  414.42
     50.0700	 1427.00	 1339.57	-1788.44	  414.42
     50.1700	 1784.00	 1699.26	-1791.13	  414.43
     50.2700	 2201.00	 2107.75	-1782.62	  414.44
     50.3700	 2581.00	 2484.34	-1779.21	  414.45
     50.4700	 2771.00	 2713.69	-1818.55	  414.45
     50.5700	 2585.00	 2698.39	-1989.25	  414.46
     50.6700	 2355.00	 2444.09	-1964.96	  414.47
     50.7700	 2034.00	 2057.06	-1898.93	  414.48
     50.8700	 1633.00	 1654.79	-1897.65	  414.49
     50.9700	 1184.00	 1312.13	-2003.99	  414.51
     51.0700	  970.00	 1059.47	-1965.34	  414.52
     51.1700	  853.00	  894.51	-1917.38	  414.53
     51.2700	  755.00	  797.26	-1918.12	  414.54
     51.3700	  712.00	  743.26	-1907.12	  414.56
     51.4700	  703.00	  711.95	-1884.82	  414.57
     51.5700	  673.00	  690.24	-1893.11	  414.59
     51.6700	  679.00	  672.19	-1869.05	  414.60
     51.7700	  680.00	  656.35	-1852.21	  414.62
     51.8700	  648.00	  642.84	-1870.71	  414.63
     51.9700	  637.00	  632.03	-1870.90	  414.65
     52.0700	  631.00	  623.86	-1868.72	  414.67
     52.1700	  585.00	  618.05	-1908.91	  414.68
     52.2700	  695.00	  614.20	-1795.06	  414.70
     52.3700	  618.00	  612.00	-1869.86	  414.72
     52.4700	  638.00	  611.39	-1849.25	  414.74
     52.5700	  665.00	  612.57	-1823.43	  414.76
     52.6700	  613.00	  616.01	-1878.87	  414.78
     52.7700	  625.00	  622.57	-1873.44	  414.80
     52.8700	  628.00	  633.69	-1881.56	  414.82
     52.9700	  635.00	  651.49	-1892.35	  414.84
     53.0700	  683.00	  678.77	-1871.64	  414.86
     53.1700	  704.00	  718.77	-1890.64	  414.88
     53.2700	  790.00	  774.16	-1860.03	  414.90
     53.3700	  836.00	  846.31	-1886.18	  414.93
     53.4700	  917.00	  933.60	-1892.47	  414.95
     53.5700	 1009.00	 1029.74	-1896.60	  414.97
     53.6700	 1186.00	 1121.78	-1811.64	  415.00
     53.7700	 1268.00	 1189.81	-1797.68	  415.02
     53.8700	 1204.00	 1212.78	-1884.65	  415.04
     53.9700	 1248.00	 1181.98	-1809.84	  415.07
     54.0700	 1171.00	 1108.70	-1813.56	  415.09
     54.1700	 1075.00	 1015.03	-1815.90	  415.12
     54.2700	  917.00	  920.23	-1879.10	  415.14
     54.3700	  812.00	  835.99	-1899.86	  415.17
     54.4700	  772.00	  767.58	-1871.45	  415.19
     54.5700	  710.00	  715.93	-1881.80	  415.22
     54.6700	  672.00	  679.34	-1883.20	  415.25
     54.7700	  652.00	  654.81	-1878.67	  415.27
     54.8700	  684.00	  639.15	-1831.01	  415.30
     54.9700	  615.00	  629.61	-1890.47	  415.33
     55.0700	  615.00	  624.14	-1885.01	  415.35
     55.1700	  627.00	  621.42	-1870.29	  415.38
     55.2700	  618.00	  620.64	-1878.51	  415.41
     55.3700	  661.00	  621.40	-1836.27	  415.44
     55.4700	  619.00	  623.52	-1880.38	  415.46
     55.5700	  603.00	  626.98	-1899.85	  415.49
     55.6700	  651.00	  631.92	-1856.79	  415.52
     55.7700	  645.00	  638.62	-1869.49	  415.55
     55.8700	  624.00	  647.65	-1899.52	  415.58
     55.9700	  663.00	  660.09	-1872.95	  415.61
     56.0700	  675.00	  677.93	-1878.79	  415.63
     56.1700	  688.00	  704.62	-1892.49	  415.66
     56.2700	  751.00	  745.89	-1870.76	  415.69
     56.3700	  816.00	  810.16	-1870.03	  415.72
     56.4700	  900.00	  908.33	-1884.20	  415.75
     56.5700	 1033.00	 1052.27	-1895.14	  415.78
     56.6700	 1281.00	 1251.51	-1846.38	  415.81
     56.7700	 1507.00	 1508.53	-1877.40	  415.84
     56.8700	 1849.00	 1813.34	-1840.21	  415.87
     56.9700	 2278.00	 2137.88	-1735.75	  415.90
     57.0700	 2553.00	 2431.65	-1754.52	  415.93
     57.1700	 2584.00	 2624.99	-1916.86	  415.96
     57.2700	 2672.00	 2655.64	-1859.51	  415.99
     57.3700	 2517.00	 2511.98	-1870.85	  416.02
     57.4700	 2266.00	 2244.03	-1853.89	  416.05
     57.5700	 1835.00	 1924.42	-1965.28	  416.08
     57.6700	 1561.00	 1611.58	-1926.45	  416.11
     57.7700	 1241.00	 1340.52	-1975.39	  416.14
     57.8700	 1029.00	 1126.50	-1973.37	  416.17
     57.9700	  880.00	  970.76	-1966.63	  416.20
     58.0700	  852.00	  866.21	-1890.08	  416.23
     58.1700	  802.00	  802.60	-1876.46	  416.26
     58.2700	  761.00	  770.45	-1885.32	  416.29
     58.3700	  816.00	  763.28	-1823.15	  416.32
     58.4700	  795.00	  777.81	-1858.67	  416.35
     58.5700	  794.00	  812.94	-1894.81	  416.38
     58.6700	  822.00	  868.04	-1921.91	  416.41
     58.7700	  952.00	  941.01	-1864.88	  416.44
     58.8700	 1015.00	 1026.56	-1887.42	  416.47
     58.9700	 1125.00	 1115.07	-1865.94	  416.50
     59.0700	 1229.00	 1194.19	-1841.06	  416.52
     59.1700	 1258.00	 1254.24	-1872.11	  416.55
     59.2700	 1283.00	 1292.02	-1884.89	  416.58
     59.3700	 1247.00	 1307.15	-1936.01	  416.61
     59.4700	 1340.00	 1298.18	-1834.04	  416.64
     59.5700	 1307.00	 1267.25	-1836.12	  416.67
     59.6700	 1249.00	 1224.88	-1851.75	  416.70
     59.7700	 1242.00	 1185.57	-1819.44	  416.73
     59.8700	 1173.00	 1160.97	-1863.83	  416.75
     59.9700	 1111.00	 1158.65	-1923.52	  416.78
     60.0700	 1261.00	 1184.00	-1798.86	  416.81
     60.1700	 1335.00	 1240.12	-1780.99	  416.84
     60.2700	 1351.00	 1324.45	-1849.32	  416.87
     60.3700	 1406.00	 1425.40	-1895.27	  416.89
     60.4700	 1536.00	 1521.03	-1860.90	  416.92
     60.5700	 1526.00	 1581.55	-1931.41	  416.95
     60.6700	 1479.00	 1579.84	-1976.71	  416.97
     60.7700	 1489.00	 1508.52	-1895.39	  417.00
     60.8700	 1376.00	 1385.30	-1885.16	  417.03
     60.9700	 1196.00	 1239.03	-1918.90	  417.05
     61.0700	 1030.00	 1094.81	-1940.68	  417.08
     61.1700	  994.00	  969.04	-1850.91	  417.10
     61.2700	  833.00	  870.09	-1912.95	  417.13
     61.3700	  792.00	  800.20	-1884.06	  417.15
     61.4700	  764.00	  757.94	-1869.80	  417.18
     61.5700	  740.00	  740.73	-1876.60	  417.20
     61.6700	  803.00	  746.80	-1819.67	  417.23
     61.7700	  817.00	  776.12	-1834.98	  417.25
     61.8700	  880.00	  830.05	-1825.91	  417.27
     61.9700	  924.00	  910.02	-1861.88	  417.30
     62.0700	 1105.00	 1015.47	-1786.34	  417.32
     62.1700	 1139.00	 1141.65	-1878.51	  417.34
     62.2700	 1314.00	 1277.83	-1839.70	  417.37
     62.3700	 1372.00	 1405.67	-1909.54	  417.39
     62.4700	 1496.00	 1500.05	-1879.92	  417.41
     62.5700	 1510.00	 1535.54	-1901.40	  417.43
     62.6700	 1462.00	 1500.34	-1914.20	  417.45
     62.7700	 1372.00	 1405.19	-1909.06	  417.47
     62.8700	 1208.00	 1275.35	-1943.22	  417.49
     62.9700	 1087.00	 1136.19	-1925.06	  417.51
     63.0700	  977.00	 1006.02	-1904.89	  417.53
     63.1700	  850.00	  895.57	-1921.44	  417.55
     63.2700	  772.00	  809.11	-1912.98	  417.57
     63.3700	  707.00	  746.17	-1915.04	  417.59
     63.4700	  719.00	  703.43	-1860.30	  417.60
     63.5700	  632.00	  676.47	-1920.33	  417.62
     63.6700	  649.00	  661.12	-1887.99	  417.64
     63.7700	  653.00	  654.37	-1877.24	  417.66
     63.8700	  700.00	  654.49	-1830.35	  417.67
     63.9700	  673.00	  661.13	-1863.99	  417.69
     64.0700	  652.00	  675.12	-1898.98	  417.70
     64.1700	  721.00	  698.16	-1853.03	  417.72
     64.2700	  725.00	  732.45	-1883.32	  417.73
     64.3700	  770.00	  780.14	-1886.01	  417.74
     64.4700	  900.00	  842.61	-1818.48	  417.76
     64.5700	 1003.00	  919.13	-1792.00	  417.77
     64.6700	 1050.00	 1007.83	-1833.70	  417.78
     64.7700	 1117.00	 1101.97	-1860.84	  417.80
     64.8700	 1257.00	 1190.78	-1809.65	  417.81
     64.9700	 1224.00	 1261.16	-1913.02	  417.82
     65.0700	 1240.00	 1300.71	-1936.58	  417.83
     65.1700	 1329.00	 1302.40	-1849.27	  417.84
     65.2700	 1257.00	 1266.25	-1885.11	  417.85
     65.3700	 1222.00	 1200.51	-1854.38	  417.86
     65.4700	 1161.00	 1118.12	-1832.99	  417.86
     65.5700	  970.00	 1031.59	-1937.45	  417.87
     65.6700	  891.00	  950.04	-1934.90	  417.88
     65.7700	  825.00	  878.21	-1929.07	  417.89
     65.8700	  799.00	  817.92	-1894.78	  417.89
     65.9700	  699.00	  769.19	-1946.06	  417.90
     66.0700	  690.00	  731.16	-1917.03	  417.90
     66.1700	  678.00	  702.45	-1900.31	  417.91
     66.2700	  664.00	  681.42	-1893.29	  417.91
     66.3700	  628.00	  666.47	-1914.33	  417.91
     66.4700	  646.00	  656.24	-1886.11	  417.92
     66.5700	  604.00	  649.82	-1921.69	  417.92
     66.6700	  608.00	  646.38	-1914.24	  417.92
     66.7700	  617.00	  645.72	-1904.58	  417.92
     66.8700	  650.00	  647.50	-1873.36	  417.92
     66.9700	  696.00	  652.01	-1831.88	  417.92
     67.0700	  626.00	  659.87	-1909.73	  417.92
     67.1700	  664.00	  672.30	-1884.16	  417.92
     67.2700	  694.00	  691.40	-1873.27	  417.92
     67.3700	  721.00	  720.43	-1875.30	  417.91
     67.4700	  823.00	  763.97	-1816.83	  417.91
     67.5700	  810.00	  827.74	-1893.60	  417.91
     67.6700	  924.00	  918.30	-1870.16	  417.90
     67.7700	 1064.00	 1041.79	-1853.66	  417.90
     67.8700	 1193.00	 1202.39	-1885.26	  417.89
     67.9700	 1391.00	 1400.28	-1885.15	  417.88
     68.0700	 1581.00	 1629.71	-1924.57	  417.88
     68.1700	 1887.00	 1877.14	-1866.00	  417.87
     68.2700	 2120.00	 2119.55	-1875.41	  417.86
     68.3700	 2301.00	 2324.25	-1899.11	  417.85
     68.4700	 2419.00	 2452.81	-1909.67	  417.84
     68.5700	 2427.00	 2474.68	-1923.55	  417.83
     68.6700	 2414.00	 2384.02	-1845.89	  417.82
     68.7700	 2236.00	 2203.61	-1843.48	  417.81
     68.8700	 1933.00	 1971.02	-1913.88	  417.79
     68.9700	 1745.00	 1722.13	-1853.00	  417.78
     69.0700	 1480.00	 1483.69	-1879.56	  417.77
     69.1700	 1237.00	 1272.65	-1911.51	  417.75
     69.2700	 1140.00	 1097.54	-1833.40	  417.73
     69.3700	  931.00	  960.17	-1905.04	  417.72
     69.4700	  843.00	  857.65	-1890.51	  417.70
     69.5700	  827.00	  784.31	-1833.17	  417.68
     69.6700	  743.00	  733.58	-1866.44	  417.66
     69.7700	  687.00	  699.30	-1888.17	  417.64
     69.8700	  721.00	  676.34	-1831.21	  417.62
     69.9700	  656.00	  660.91	-1880.78	  417.60
     70.0700	  683.00	  650.39	-1843.26	  417.58
     70.1700	  618.00	  643.10	-1900.97	  417.56
     70.2700	  651.00	  638.04	-1862.91	  417.54
     70.3700	  651.00	  634.64	-1859.50	  417.51
     70.4700	  593.00	  632.58	-1915.45	  417.49
     70.5700	  610.00	  631.76	-1897.63	  417.46
     70.6700	  693.00	  632.17	-1815.04	  417.44
     70.7700	  629.00	  633.98	-1880.85	  417.41
     70.8700	  629.00	  637.31	-1884.18	  417.38
     70.9700	  674.00	  643.22	-1845.09	  417.35
     71.0700	  649.00	  652.46	-1879.33	  417.32
     71.1700	  693.00	  666.59	-1849.45	  417.29
     71.2700	  728.00	  687.79	-1835.65	  417.26
     71.3700	  713.00	  718.97	-1881.84	  417.23
     71.4700	  750.00	  763.68	-1889.55	  417.20
     71.5700	  793.00	  825.74	-1908.61	  417.16
     71.6700	  943.00	  908.71	-1841.58	  417.13
     71.7700	  997.00	 1015.05	-1893.91	  417.09
     71.8700	 1177.00	 1145.09	-1843.95	  417.06
     71.9700	 1283.00	 1295.99	-1888.86	  417.02
     72.0700	 1508.00	 1460.86	-1828.72	  416.98
     72.1700	 1661.00	 1627.85	-1842.72	  416.94
     72.2700	 1766.00	 1780.58	-1890.45	  416.91
     72.3700	 1858.00	 1895.76	-1913.63	  416.87
     72.4700	 1976.00	 1952.56	-1852.43	  416.82
     72.5700	 1875.00	 1938.28	-1939.14	  416.78
     72.6700	 1775.00	 1856.18	-1957.05	  416.74
     72.7700	 1796.00	 1723.55	-1803.42	  416.70
     72.8700	 1606.00	 1562.85	-1832.72	  416.65
     72.9700	 1385.00	 1394.36	-1885.22	  416.61
     73.0700	 1251.00	 1233.12	-1857.98	  416.56
     73.1700	 1123.00	 1088.91	-1841.77	  416.51
     73.2700	  979.00	  966.86	-1863.73	  416.47
     73.3700	  809.00	  868.43	-1935.30	  416.42
     73.4700	  822.00	  792.37	-1846.23	  416.37
     73.5700	  750.00	  735.74	-1861.61	  416.32
     73.6700	  717.00	  694.87	-1853.74	  416.27
     73.7700	  687.00	  666.03	-1854.90	  416.21
     73.8700	  706.00	  645.98	-1815.85	  416.16
     73.9700	  713.00	  632.15	-1795.02	  416.11
     74.0700	  594.00	  622.66	-1904.53	  416.05
     74.1700	  636.00	  615.69	-1855.56	  416.00
     74.2700	  602.00	  611.52	-1885.38	  415.94
     74.3700	  631.00	  609.05	-1853.91	  415.88
     74.4700	  635.00	  607.93	-1848.79	  415.82
     74.5700	  684.00	  607.87	-1799.73	  415.76
     74.6700	  638.00	  608.60	-1846.46	  415.70
     74.7700	  630.00	  609.80	-1855.66	  415.64
     74.8700	  654.00	  611.09	-1832.96	  415.58
     74.9700	  692.00	  612.04	-1795.91	  415.52
     75.0700	  688.00	  612.23	-1800.09	  415.46
     75.1700	  660.00	  611.40	-1827.27	  415.39
     75.2700	  706.00	  609.61	-1779.48	  415.32
     75.3700	  628.00	  607.15	-1855.02	  415.26
     75.4700	  684.00	  604.70	-1796.57	  415.19
     75.5700	  699.00	  602.80	-1779.67	  415.12
     75.6700	  707.00	  602.08	-1770.95	  415.05
     75.7700	  606.00	  603.20	-1873.06	  414.98
     75.8700	  654.00	  606.82	-1828.69	  414.91
     75.9700	  676.00	  613.65	-1813.51	  414.84
     76.0700	  659.00	  624.36	-1841.22	  414.77
     76.1700	  706.00	  639.45	-1809.32	  414.69
     76.2700	  668.00	  659.46	-1867.33	  414.62
     76.3700	  679.00	  684.32	-1881.19	  414.54
     76.4700	  716.00	  713.56	-1873.42	  414.47
     76.5700	  708.00	  746.06	-1913.93	  414.39
     76.6700	  812.00	  780.01	-1843.88	  414.31
     76.7700	  811.00	  812.71	-1877.58	  414.23
     76.8700	  821.00	  840.64	-1895.51	  414.15
     76.9700	  868.00	  859.84	-1867.70	  414.07
     77.0700	  854.00	  866.88	-1888.74	  413.99
     77.1700	  889.00	  860.29	-1847.15	  413.91
     77.2700	  874.00	  841.28	-1843.14	  413.82
     77.3700	  881.00	  813.13	-1808.00	  413.74
     77.4700	  777.00	  779.80	-1878.67	  413.65
     77.5700	  715.00	  744.84	-1905.71	  413.57
     77.6700	  713.00	  710.98	-1873.84	  413.48
     77.7700	  672.00	  680.07	-1883.94	  413.39
     77.8700	  628.00	  653.24	-1901.11	  413.30
     77.9700	  670.00	  630.73	-1836.60	  413.21
     78.0700	  581.00	  612.91	-1907.77	  413.12
     78.1700	  615.00	  599.15	-1860.02	  413.03
     78.2700	  592.00	  588.86	-1872.72	  412.93
     78.3700	  566.00	  581.35	-1891.22	  412.84
     78.4700	  563.00	  575.99	-1888.85	  412.74
     78.5700	  574.00	  572.14	-1874.01	  412.65
     78.6700	  595.00	  569.49	-1850.35	  412.55
     78.7700	  546.00	  567.64	-1897.51	  412.45
     78.8700	  594.00	  566.37	-1848.23	  412.36
     78.9700	  564.00	  565.52	-1877.38	  412.26
     79.0700	  556.00	  565.00	-1884.87	  412.16
     79.1700	  562.00	  564.78	-1878.65	  412.05
     79.2700	  563.00	  564.83	-1877.69	  411.95
     79.3700	  581.00	  565.15	-1860.02	  411.85
     79.4700	  542.00	  565.79	-1899.65	  411.75
     79.5700	  574.00	  566.77	-1868.63	  411.64
     79.6700	  574.00	  568.16	-1870.03	  411.53
     79.7700	  563.00	  570.08	-1882.94	  411.43
     79.8700	  559.00	  572.66	-1889.53	  411.32
     79.9700	  582.00	  576.15	-1870.01	  411.21
     80.0700	  559.00	  580.86	-1897.73	  411.10
     80.1700	  604.00	  587.28	-1859.14	  410.99
     80.2700	  621.00	  596.02	-1850.88	  410.88
     80.3700	  587.00	  607.87	-1896.73	  410.77
     80.4700	  632.00	  623.75	-1867.62	  410.65
     80.5700	  701.00	  644.67	-1819.54	  410.54
     80.6700	  695.00	  671.38	-1852.24	  410.42
     80.7700	  697.00	  705.08	-1883.95	  410.31
     80.8700	  761.00	  745.92	-1860.79	  410.19
     80.9700	  833.00	  793.56	-1836.42	  410.07
     81.0700	  896.00	  846.74	-1826.61	  409.96
     81.1700	  878.00	  903.17	-1901.03	  409.84
     81.2700	 1028.00	  959.41	-1807.27	  409.72
     81.3700	 1013.00	 1011.15	-1874.02	  409.59
     81.4700	 1054.00	 1053.85	-1875.71	  409.47
     81.5700	 1074.00	 1083.75	-1885.62	  409.35
     81.6700	 1075.00	 1098.78	-1899.64	  409.23
     81.7700	 1035.00	 1098.58	-1939.45	  409.10
     81.8700	 1047.00	 1084.26	-1913.12	  408.97
     81.9700	 1100.00	 1058.00	-1833.86	  408.85
     82.0700	 1012.00	 1022.78	-1886.64	  408.72
     82.1700	  966.00	  981.77	-1891.64	  408.59
     82.2700	  922.00	  937.89	-1891.76	  408.46
     82.3700	  905.00	  893.60	-1864.47	  408.33
     82.4700	  813.00	  850.95	-1913.81	  408.20
     82.5700	  780.00	  811.41	-1907.28	  408.07
     82.6700	  773.00	  775.78	-1878.65	  407.94
     82.7700	  727.00	  744.16	-1893.03	  407.80
     82.8700	  646.00	  716.21	-1946.08	  407.67
     82.9700	  678.00	  691.49	-1889.35	  407.53
     83.0700	  643.00	  669.68	-1902.55	  407.40
     83.1700	  661.00	  650.69	-1865.56	  407.26
     83.2700	  610.00	  634.53	-1900.40	  407.12
     83.3700	  603.00	  621.23	-1894.10	  406.99
     83.4700	  650.00	  610.81	-1836.68	  406.85
     83.5700	  582.00	  603.23	-1897.09	  406.71
     83.6700	  584.00	  598.39	-1890.26	  406.57
     83.7700	  577.00	  596.12	-1894.98	  406.42
     83.8700	  557.00	  596.13	-1915.00	  406.28
     83.9700	  572.00	  598.05	-1901.92	  406.14
     84.0700	  581.00	  601.39	-1896.26	  405.99
     84.1700	  605.00	  605.56	-1876.42	  405.85
     84.2700	  602.00	  609.86	-1883.73	  405.70
     84.3700	  579.00	  613.57	-1910.43	  405.56
     84.4700	  588.00	  615.75	-1903.62	  405.41
     84.5700	  624.00	  616.19	-1868.05	  405.26
     84.6700	  590.00	  614.41	-1900.28	  405.11
     84.7700	  612.00	  610.56	-1874.42	  404.96
     84.8700	  623.00	  605.06	-1857.93	  404.81
     84.9700	  599.00	  598.54	-1875.40	  404.66
     85.0700	  622.00	  591.58	-1845.45	  404.51
     85.1700	  564.00	  584.72	-1896.59	  404.35
     85.2700	  603.00	  578.39	-1851.26	  404.20
     85.3700	  595.00	  572.89	-1853.75	  404.05
     85.4700	  576.00	  568.44	-1868.30	  403.89
     85.5700	  530.00	  565.16	-1911.02	  403.74
     85.6700	  529.00	  563.12	-1909.99	  403.58
     85.7700	  579.00	  562.34	-1859.21	  403.42
     85.8700	  581.00	  562.81	-1857.68	  403.26
     85.9700	  553.00	  564.51	-1887.37	  403.11
     86.0700	  574.00	  567.39	-1869.26	  402.95
     86.1700	  593.00	  571.42	-1854.29	  402.79
     86.2700	  559.00	  576.52	-1893.39	  402.62
     86.3700	  589.00	  582.61	-1869.48	  402.46
     86.4700	  573.00	  589.55	-1892.42	  402.30
     86.5700	  546.00	  597.17	-1927.04	  402.14
     86.6700	  580.00	  605.28	-1901.15	  401.97
     86.7700	  661.00	  613.61	-1828.47	  401.81
     86.8700	  604.00	  621.90	-1893.76	  401.65
     86.9700	  658.00	  629.96	-1847.82	  401.48
     87.0700	  609.00	  637.75	-1904.62	  401.31
     87.1700	  656.00	  645.42	-1865.29	  401.15
     87.2700	  648.00	  653.20	-1881.07	  400.98
     87.3700	  653.00	  661.31	-1884.18	  400.81
     87.4700	  649.00	  669.79	-1896.65	  400.64
     87.5700	  667.00	  678.45	-1887.32	  400.47
     87.6700	  702.00	  686.87	-1860.74	  400.30
     87.7700	  676.00	  694.35	-1894.22	  400.13
     87.8700	  673.00	  700.00	-1902.87	  399.96
     87.9700	  633.00	  702.90	-1945.76	  399.79
     88.0700	  698.00	  702.31	-1880.17	  399.62
     88.1700	  656.00	  697.99	-1917.85	  399.44
     88.2700	  696.00	  690.22	-1870.09	  399.27
     88.3700	  651.00	  679.76	-1904.62	  399.10
     88.4700	  659.00	  667.53	-1884.40	  398.92
     88.5700	  628.00	  654.52	-1902.38	  398.75
     88.6700	  622.00	  641.59	-1895.45	  398.57
     88.7700	  649.00	  629.48	-1856.35	  398.39
     88.8700	  624.00	  618.33	-1870.20	  398.22
     88.9700	  583.00	  609.46	-1902.32	  398.04
     89.0700	  593.00	  602.65	-1885.51	  397.86
     89.1700	  576.00	  597.96	-1897.83	  397.68
     89.2700	  600.00	  595.32	-1871.19	  397.50
     89.3700	  618.00	  594.50	-1852.37	  397.33
     89.4700	  606.00	  595.17	-1865.03	  397.15
     89.5700	  590.00	  596.88	-1882.75	  396.96
     89.6700	  619.00	  599.13	-1856.00	  396.78
     89.7700	  585.00	  601.37	-1892.24	  396.60
     89.8700	  654.00	  603.03	-1824.90	  396.42
     89.9700	  652.00	  603.62	-1827.49	  396.24
     90.0700	  602.00	  602.81	-1876.68	  396.06
     90.1700	  643.00	  600.51	-1833.38	  395.87
     90.2700	  600.00	  596.87	-1872.74	  395.69
     90.3700	  610.00	  592.20	-1858.07	  395.51
     90.4700	  618.00	  586.88	-1844.75	  395.32
     90.5700	  625.00	  581.29	-1832.16	  395.14
     90.6700	  588.00	  575.75	-1863.62	  394.95
     90.7700	  629.00	  570.51	-1817.38	  394.77
     90.8700	  589.00	  565.76	-1852.63	  394.58
     90.9700	  561.00	  561.63	-1876.50	  394.40
     91.0700	  604.00	  558.18	-1830.05	  394.21
     91.1700	  555.00	  555.43	-1876.30	  394.02
     91.2700	  536.00	  553.35	-1893.22	  393.83
     91.3700	  575.00	  551.92	-1852.78	  393.65
     91.4700	  558.00	  551.07	-1868.93	  393.46
     91.5700	  517.00	  550.76	-1909.63	  393.27
     91.6700	  544.00	  550.98	-1882.85	  393.08
     91.7700	  579.00	  551.73	-1848.60	  392.89
     91.8700	  542.00	  553.04	-1886.91	  392.71
     91.9700	  580.00	  555.00	-1850.86	  392.52
     92.0700	  529.00	  557.70	-1904.57	  392.33
     92.1700	  567.00	  561.32	-1870.19	  392.14
     92.2700	  576.00	  566.04	-1865.90	  391.95
     92.3700	  571.00	  572.06	-1876.92	  391.76
     92.4700	  545.00	  579.61	-1910.47	  391.57
     92.5700	  560.00	  588.89	-1904.76	  391.38
     92.6700	  595.00	  600.10	-1880.96	  391.19
     92.7700	  641.00	  613.34	-1848.21	  391.00
     92.8700	  598.00	  628.67	-1906.53	  390.81
     92.9700	  609.00	  646.01	-1912.87	  390.61
     93.0700	  677.00	  665.17	-1864.04	  390.42
     93.1700	  652.00	  685.83	-1909.70	  390.23
     93.2700	  698.00	  707.50	-1885.37	  390.04
     93.3700	  698.00	  729.53	-1907.40	  389.85
     93.4700	  756.00	  751.14	-1871.01	  389.66
     93.5700	  689.00	  771.49	-1958.35	  389.47
     93.6700	  723.00	  789.82	-1942.68	  389.27
     93.7700	  766.00	  805.67	-1915.54	  389.08
     93.8700	  728.00	  819.02	-1966.88	  388.89
     93.9700	  741.00	  830.24	-1965.11	  388.70
     94.0700	  818.00	  840.00	-1897.87	  388.51
     94.1700	  778.00	  848.98	-1946.85	  388.31
     94.2700	  862.00	  857.76	-1871.63	  388.12
     94.3700	  856.00	  866.42	-1886.29	  387.93
     94.4700	  905.00	  875.87	-1846.74	  387.74
     94.5700	  947.00	  886.02	-1814.89	  387.55
     94.6700	  941.00	  897.12	-1831.99	  387.36
     94.7700	  953.00	  909.38	-1832.24	  387.16
     94.8700	  898.00	  922.84	-1900.71	  386.97
     94.9700	  925.00	  937.23	-1888.09	  386.78
     95.0700	  971.00	  951.82	-1856.69	  386.59
     95.1700	  982.00	  965.44	-1859.31	  386.40
     95.2700	 1014.00	  976.55	-1838.41	  386.21
     95.3700	  996.00	  983.40	-1863.26	  386.02
     95.4700	 1026.00	  984.37	-1834.24	  385.83
     95.5700	  978.00	  978.35	-1876.21	  385.63
     95.6700	  953.00	  965.05	-1887.91	  385.44
     95.7700	  904.00	  945.15	-1917.01	  385.25
     95.8700	  943.00	  920.09	-1852.96	  385.06
     95.9700	  874.00	  891.82	-1893.68	  384.87
     96.0700	  843.00	  862.41	-1895.28	  384.68
     96.1700	  854.00	  833.96	-1855.83	  384.49
     96.2700	  819.00	  808.41	-1865.28	  384.31
     96.3700	  826.00	  787.50	-1837.37	  384.12
     96.4700	  702.00	  772.78	-1946.64	  383.93
     96.5700	  768.00	  765.51	-1873.38	  383.74
     96.6700	  754.00	  766.76	-1888.63	  383.55
     96.7700	  763.00	  777.34	-1890.21	  383.36
     96.8700	  870.00	  797.82	-1803.68	  383.18
     96.9700	  817.00	  828.50	-1887.37	  382.99
     97.0700	  858.00	  869.42	-1887.28	  382.80
     97.1700	  929.00	  920.25	-1867.12	  382.62
     97.2700	  973.00	  980.31	-1883.18	  382.43
     97.3700	 1069.00	 1048.46	-1855.33	  382.25
     97.4700	 1100.00	 1123.02	-1898.89	  382.06
     97.5700	 1186.00	 1201.77	-1891.63	  381.88
     97.6700	 1283.00	 1281.85	-1874.71	  381.70
     97.7700	 1375.00	 1359.83	-1860.69	  381.51
     97.8700	 1390.00	 1431.72	-1917.58	  381.33
     97.9700	 1497.00	 1493.15	-1872.01	  381.15
     98.0700	 1520.00	 1539.81	-1895.68	  380.96
     98.1700	 1578.00	 1568.11	-1865.97	  380.78
     98.2700	 1551.00	 1575.88	-1900.75	  380.60
     98.3700	 1505.00	 1562.92	-1933.79	  380.42
     98.4700	 1481.00	 1530.97	-1925.83	  380.24
     98.5700	 1429.00	 1483.23	-1930.09	  380.07
     98.6700	 1362.00	 1423.74	-1937.60	  379.89
     98.7700	 1322.00	 1356.70	-1910.57	  379.71
     98.8700	 1259.00	 1286.17	-1903.03	  379.53
     98.9700	 1186.00	 1215.80	-1905.66	  379.36
     99.0700	 1097.00	 1148.79	-1927.66	  379.18
     99.1700	 1044.00	 1087.89	-1919.75	  379.01
     99.2700	 1030.00	 1035.34	-1881.20	  378.83
     99.3700	 1022.00	  992.99	-1846.85	  378.66
     99.4700	 1013.00	  962.31	-1825.17	  378.49
     99.5700	  948.00	  944.41	-1872.28	  378.32
     99.6700	  930.00	  940.08	-1885.95	  378.14
     99.7700	 1022.00	  949.78	-1803.65	  377.97
     99.8700	 1048.00	  973.69	-1801.55	  377.81
     99.9700	 1041.00	 1011.66	-1846.52	  377.64
    100.0700	 1047.00	 1063.24	-1892.11	  377.47
    100.1700	 1160.00	 1127.66	-1843.53	  377.30
    100.2700	 1256.00	 1203.72	-1823.58	  377.14
    100.3700	 1328.00	 1289.78	-1837.65	  376.97
    100.4700	 1419.00	 1383.71	-1840.58	  376.81
    100.5700	 1469.00	 1482.87	-1889.73	  376.65
    100.6700	 1576.00	 1584.05	-1883.92	  376.48
    100.7700	 1680.00	 1683.56	-1879.43	  376.32
    100.8700	 1811.00	 1777.67	-1842.54	  376.16
    100.9700	 1837.00	 1862.53	-1901.40	  376.01
    101.0700	 1923.00	 1934.93	-1887.80	  375.85
    101.1700	 1945.00	 1992.47	-1923.33	  375.69
    101.2700	 2010.00	 2033.63	-1899.50	  375.54
    101.3700	 2056.00	 2057.65	-1877.52	  375.38
    101.4700	 2072.00	 2064.12	-1867.98	  375.23
    101.5700	 2024.00	 2053.00	-1904.87	  375.08
    101.6700	 2027.00	 2024.68	-1873.55	  374.92
    101.7700	 2035.00	 1980.34	-1821.21	  374.78
    101.8700	 1997.00	 1922.24	-1801.11	  374.63
    101.9700	 1895.00	 1853.61	-1834.48	  374.48
    102.0700	 1801.00	 1778.35	-1853.22	  374.33
    102.1700	 1717.00	 1700.50	-1859.36	  374.19
    102.2700	 1614.00	 1623.74	-1885.61	  374.05
    102.3700	 1582.00	 1551.12	-1844.98	  373.90
    102.4700	 1555.00	 1484.84	-1805.71	  373.76
    102.5700	 1389.00	 1426.28	-1913.15	  373.62
    102.6700	 1407.00	 1376.00	-1844.86	  373.49
    102.7700	 1275.00	 1333.83	-1934.70	  373.35
    102.8700	 1296.00	 1298.96	-1878.82	  373.21
    102.9700	 1258.00	 1270.01	-1887.88	  373.08
    103.0700	 1280.00	 1245.16	-1841.03	  372.95
    103.1700	 1188.00	 1222.34	-1910.20	  372.82
    103.2700	 1189.00	 1199.41	-1886.28	  372.69
    103.3700	 1186.00	 1174.53	-1864.40	  372.56
    103.4700	 1142.00	 1146.37	-1880.24	  372.43
    103.5700	 1029.00	 1114.31	-1961.18	  372.31
    103.6700	 1066.00	 1078.43	-1888.29	  372.19
    103.7700	  989.00	 1039.35	-1926.21	  372.06
    103.8700	 1026.00	  998.02	-1847.88	  371.95
    103.9700	 1001.00	  955.54	-1830.40	  371.83
    104.0700	  926.00	  912.96	-1862.82	  371.71
    104.1700	  863.00	  871.25	-1884.12	  371.60
    104.2700	  830.00	  831.27	-1877.13	  371.48
    104.3700	  786.00	  793.65	-1883.52	  371.37
    104.4700	  737.00	  758.94	-1897.81	  371.26
    104.5700	  755.00	  727.46	-1848.33	  371.15
    104.6700	  749.00	  699.42	-1826.29	  371.05
    104.7700	  665.00	  674.87	-1885.73	  370.94
    104.8700	  631.00	  653.72	-1898.58	  370.84
    104.9700	  641.00	  635.80	-1870.67	  370.74
    105.0700	  690.00	  620.88	-1806.74	  370.64
    105.1700	  665.00	  608.65	-1819.52	  370.55
    105.2700	  601.00	  598.79	-1873.65	  370.45
    105.3700	  623.00	  591.05	-1843.92	  370.36
    105.4700	  604.00	  585.13	-1857.00	  370.27
    105.5700	  601.00	  580.76	-1855.63	  370.18
    105.6700	  581.00	  577.75	-1872.61	  370.09
    105.7700	  580.00	  575.91	-1871.78	  370.01
    105.8700	  584.00	  575.14	-1867.01	  369.93
    105.9700	  576.00	  575.32	-1875.19	  369.85
    106.0700	  613.00	  576.48	-1839.35	  369.77
    106.1700	  563.00	  578.59	-1891.45	  369.69
    106.2700	  620.00	  581.66	-1837.52	  369.62
    106.3700	  606.00	  585.73	-1855.60	  369.55
    106.4700	  612.00	  590.88	-1854.75	  369.48
    106.5700	  627.00	  597.16	-1846.03	  369.41
    106.6700	  628.00	  604.62	-1852.49	  369.35
    106.7700	  615.00	  613.30	-1874.17	  369.29
    106.8700	  631.00	  623.19	-1868.06	  369.23
    106.9700	  616.00	  634.25	-1894.11	  369.17
    107.0700	  683.00	  646.36	-1839.23	  369.11
    107.1700	  660.00	  659.37	-1875.24	  369.06
    107.2700	  711.00	  673.06	-1837.92	  369.01
    107.3700	  699.00	  687.13	-1864.00	  368.96
    107.4700	  709.00	  701.25	-1868.11	  368.92
    107.5700	  702.00	  715.00	-1888.87	  368.87
    107.6700	  742.00	  727.95	-1861.81	  368.83
    107.7700	  694.00	  739.64	-1921.51	  368.80
    107.8700	  709.00	  749.64	-1916.51	  368.76
    107.9700	  722.00	  757.59	-1911.45	  368.73
    108.0700	  742.00	  763.24	-1897.11	  368.70
    108.1700	  761.00	  766.63	-1881.50	  368.67
    108.2700	  738.00	  767.91	-1905.77	  368.65
    108.3700	  713.00	  767.40	-1930.27	  368.63
    108.4700	  752.00	  765.58	-1889.45	  368.61
    108.5700	  762.00	  762.93	-1876.80	  368.59
    108.6700	  687.00	  759.93	-1948.80	  368.58
    108.7700	  724.00	  757.00	-1908.86	  368.57
    108.8700	  756.00	  754.43	-1874.30	  368.56
    108.9700	  727.00	  752.46	-1901.32	  368.56
    109.0700	  715.00	  751.17	-1912.04	  368.55
    109.1700	  751.00	  750.56	-1875.43	  368.56
    109.2700	  691.00	  750.48	-1935.35	  368.56
    109.3700	  710.00	  750.71	-1916.57	  368.57
    109.4700	  659.00	  750.90	-1967.77	  368.58
    109.5700	  712.00	  750.68	-1914.55	  368.59
    109.6700	  764.00	  749.63	-1861.49	  368.61
    109.7700	  739.00	  747.37	-1884.24	  368.63
    109.8700	  692.00	  743.63	-1927.50	  368.65
    109.9700	  699.00	  738.25	-1915.12	  368.68
    110.0700	  739.00	  731.23	-1868.10	  368.71
    110.1700	  708.00	  722.71	-1890.58	  368.74
    110.2700	  766.00	  712.93	-1822.80	  368.77
    110.3700	  659.00	  702.21	-1919.08	  368.81
    110.4700	  643.00	  690.88	-1923.75	  368.86
    110.5700	  674.00	  679.27	-1881.13	  368.90
    110.6700	  668.00	  667.66	-1875.52	  368.95
    110.7700	  650.00	  656.32	-1882.19	  369.00
    110.8700	  621.00	  645.48	-1900.35	  369.06
    110.9700	  654.00	  635.34	-1857.20	  369.12
    111.0700	  615.00	  626.02	-1886.89	  369.18
    111.1700	  651.00	  617.64	-1842.50	  369.25
    111.2700	  591.00	  610.26	-1895.13	  369.32
    111.3700	  647.00	  603.92	-1832.79	  369.39
    111.4700	  606.00	  598.62	-1868.49	  369.47
    111.5700	  618.00	  594.33	-1852.20	  369.55
    111.6700	  608.00	  591.01	-1858.88	  369.64
    111.7700	  536.00	  588.58	-1928.45	  369.73
    111.8700	  586.00	  586.98	-1876.84	  369.82
    111.9700	  632.00	  586.10	-1829.97	  369.91
    112.0700	  639.00	  585.87	-1822.74	  370.01
    112.1700	  586.00	  586.19	-1876.05	  370.12
    112.2700	  551.00	  586.96	-1911.83	  370.23
    112.3700	  577.00	  588.11	-1886.98	  370.34
    112.4700	  648.00	  589.57	-1817.43	  370.45
    112.5700	  612.00	  591.26	-1855.12	  370.57
    112.6700	  572.00	  593.12	-1896.99	  370.70
    112.7700	  602.00	  595.13	-1869.00	  370.83
    112.8700	  555.00	  597.26	-1918.13	  370.96
    112.9700	  572.00	  599.51	-1903.37	  371.09
    113.0700	  570.00	  601.88	-1907.75	  371.23
    113.1700	  627.00	  604.41	-1853.28	  371.38
    113.2700	  567.00	  607.14	-1916.01	  371.53
    113.3700	  555.00	  610.12	-1930.99	  371.68
    113.4700	  562.00	  613.42	-1927.29	  371.84
    113.5700	  610.00	  617.12	-1882.99	  372.00
    113.6700	  609.00	  621.32	-1888.19	  372.16
    113.7700	  621.00	  626.13	-1881.00	  372.33
    113.8700	  680.00	  631.72	-1827.58	  372.51
    113.9700	  656.00	  638.26	-1858.12	  372.69
    114.0700	  620.00	  646.02	-1901.89	  372.87
    114.1700	  641.00	  655.31	-1890.18	  373.06
    114.2700	  658.00	  666.53	-1884.40	  373.25
    114.3700	  702.00	  680.20	-1854.07	  373.45
    114.4700	  665.00	  696.95	-1907.82	  373.65
    114.5700	  699.00	  717.59	-1894.45	  373.86
    114.6700	  750.00	  743.08	-1868.95	  374.07
    114.7700	  789.00	  774.61	-1861.48	  374.28
    114.8700	  844.00	  813.58	-1845.45	  374.51
    114.9700	  903.00	  861.62	-1834.49	  374.73
    115.0700	  907.00	  920.62	-1889.49	  374.96
    115.1700	 1035.00	  992.67	-1833.54	  375.20
    115.2700	 1171.00	 1080.06	-1784.93	  375.44
    115.3700	 1193.00	 1185.28	-1868.14	  375.68
    115.4700	 1443.00	 1310.82	-1743.69	  375.93
    115.5700	 1506.00	 1459.27	-1829.13	  376.19
    115.6700	 1748.00	 1632.99	-1760.86	  376.45
    115.7700	 2037.00	 1834.09	-1672.95	  376.71
    115.8700	 2259.00	 2064.33	-1681.19	  376.98
    115.9700	 2462.00	 2324.74	-1738.61	  377.26
    116.0700	 2690.00	 2615.76	-1801.63	  377.54
    116.1700	 3088.00	 2936.75	-1724.62	  377.83
    116.2700	 3325.00	 3286.00	-1836.87	  378.12
    116.3700	 3744.00	 3660.75	-1792.62	  378.41
    116.4700	 4101.00	 4056.74	-1831.61	  378.72
    116.5700	 4430.00	 4468.62	-1914.48	  379.02
    116.6700	 4851.00	 4889.59	-1914.46	  379.34
    116.7700	 5234.00	 5311.54	-1953.41	  379.65
    116.8700	 5805.00	 5725.38	-1796.25	  379.98
    116.9700	 5813.00	 6120.79	-2183.66	  380.31
    117.0700	 6289.00	 6486.94	-2073.81	  380.64
    117.1700	 6621.00	 6812.45	-2067.32	  380.98
    117.2700	 6885.00	 7086.13	-2076.99	  381.33
    117.3700	 7337.00	 7297.78	-1836.65	  381.68
    117.4700	 7428.00	 7438.85	-1886.71	  382.04
    117.5700	 7462.00	 7503.47	-1917.33	  382.40
    117.6700	 7308.00	 7489.05	-2056.91	  382.77
    117.7700	 7370.00	 7396.71	-1902.58	  383.15
    117.8700	 7032.00	 7231.01	-2074.88	  383.53
    117.9700	 6966.00	 6999.51	-1909.38	  383.92
    118.0700	 6555.00	 6711.72	-2032.59	  384.31
    118.1700	 6315.00	 6378.44	-1939.31	  384.71
    118.2700	 5826.00	 6010.90	-2060.77	  385.11
    118.3700	 5475.00	 5619.97	-2020.84	  385.52
    118.4700	 5270.00	 5216.09	-1821.95	  385.94
    118.5700	 4833.00	 4808.52	-1851.39	  386.36
    118.6700	 4460.00	 4405.65	-1821.51	  386.79
    118.7700	 4204.00	 4014.55	-1686.41	  387.23
    118.8700	 3753.00	 3640.85	-1763.72	  387.67
    118.9700	 3509.00	 3289.11	-1655.98	  388.12
    119.0700	 3079.00	 2962.40	-1759.27	  388.58
    119.1700	 2814.00	 2662.80	-1724.66	  389.04
    119.2700	 2547.00	 2391.30	-1720.16	  389.50
    119.3700	 2290.00	 2147.89	-1733.75	  389.98
    119.4700	 2033.00	 1931.96	-1774.83	  390.46
    119.5700	 1900.00	 1742.19	-1718.06	  390.95
    119.6700	 1699.00	 1576.90	-1753.77	  391.44
    119.7700	 1522.00	 1434.09	-1787.96	  391.94
    119.8700	 1447.00	 1311.55	-1740.41	  392.45
    119.9700	 1273.00	 1207.06	-1809.93	  392.96
    120.0700	 1216.00	 1118.39	-1778.25	  393.49
    120.1700	 1134.00	 1043.44	-1785.30	  394.01
    120.2700	 1052.00	  980.26	-1804.13	  394.55
    120.3700	  907.00	  927.08	-1895.94	  395.09
    120.4700	  930.00	  882.34	-1828.20	  395.64
    120.5700	  874.00	  844.68	-1846.55	  396.19
    120.6700	  862.00	  812.96	-1826.83	  396.76
    120.7700	  781.00	  786.22	-1881.08	  397.33
    120.8700	  826.00	  763.63	-1813.50	  397.90
    120.9700	  753.00	  744.56	-1867.42	  398.49
    121.0700	  747.00	  728.45	-1857.32	  399.08
    121.1700	  698.00	  714.89	-1892.76	  399.68
    121.2700	  727.00	  703.53	-1852.40	  400.28
    121.3700	  687.00	  694.08	-1882.95	  400.90
    121.4700	  719.00	  686.32	-1843.19	  401.52
    121.5700	  660.00	  680.07	-1895.94	  402.15
    121.6700	  681.00	  675.18	-1870.05	  402.78
    121.7700	  658.00	  671.54	-1889.41	  403.43
    121.8700	  651.00	  669.04	-1893.91	  404.08
    121.9700	  650.00	  667.60	-1893.46	  404.74
    122.0700	  618.00	  667.14	-1925.01	  405.40
    122.1700	  669.00	  667.60	-1874.47	  406.08
    122.2700	  655.00	  668.92	-1889.79	  406.76
    122.3700	  650.00	  671.03	-1896.90	  407.45
    122.4700	  632.00	  673.88	-1917.75	  408.14
    122.5700	  692.00	  677.40	-1861.26	  408.85
    122.6700	  713.00	  681.51	-1844.38	  409.56
    122.7700	  702.00	  686.16	-1860.02	  410.28
    122.8700	  655.00	  691.24	-1912.11	  411.01
    122.9700	  636.00	  696.69	-1936.56	  411.75
    123.0700	  677.00	  702.40	-1901.27	  412.50
    123.1700	  700.00	  708.27	-1884.14	  413.25
    123.2700	  684.00	  714.19	-1906.06	  414.01
    123.3700	  680.00	  720.06	-1915.92	  414.78
    123.4700	  681.00	  725.74	-1920.61	  415.56
    123.5700	  748.00	  731.15	-1859.01	  416.35
    123.6700	  719.00	  736.16	-1893.02	  417.14
    123.7700	  741.00	  740.69	-1875.55	  417.95
    123.8700	  722.00	  744.66	-1898.53	  418.76
    123.9700	  789.00	  748.03	-1834.90	  419.58
    124.0700	  756.00	  750.79	-1870.66	  420.41
    124.1700	  740.00	  752.93	-1888.80	  421.25
    124.2700	  695.00	  754.50	-1935.36	  422.10
    124.3700	  739.00	  755.50	-1892.37	  422.95
    124.4700	  772.00	  756.07	-1859.94	  423.82
    124.5700	  725.00	  756.24	-1907.10	  424.69
    124.6700	  703.00	  756.07	-1928.93	  425.57
    124.7700	  713.00	  755.62	-1918.49	  426.46
    124.8700	  734.00	  754.96	-1896.83	  427.36
    124.9700	  681.00	  551.12	-1745.99	  428.27
    125.0700	  695.00	  552.04	-1875.87	  429.19
    125.1700	  684.00	  552.97	-1875.87	  430.12
    125.2700	  682.00	  553.91	-1875.87	  431.06
    125.3700	  671.00	  554.85	-1875.87	  432.00
    125.4700	  692.00	  555.81	-1875.87	  432.96
    125.5700	  692.00	  556.77	-1875.87	  433.92
    125.6700	  681.00	  557.75	-1875.87	  434.90
    125.7700	  648.00	  558.73	-1875.87	  435.88
    125.8700	  675.00	  559.73	-1875.87	  436.87
    125.9700	  651.00	  560.73	-1875.87	  437.88
    126.0700	  645.00	  561.74	-1875.87	  438.89
    126.1700	  642.00	  562.76	-1875.87	  439.91
    126.2700	  670.00	  563.79	-1875.87	  440.94
    126.3700	  640.00	  564.84	-1875.87	  441.98
    126.4700	  664.00	  565.89	-1875.87	  443.04
    126.5700	  592.00	  566.95	-1875.87	  444.10
    126.6700	  622.00	  568.02	-1875.87	  445.17
    126.7700	  632.00	  569.10	-1875.87	  446.25
    126.8700	  621.00	  570.19	-1875.87	  447.34
    126.9700	  637.00	  571.29	-1875.87	  448.44
    127.0700	  618.00	  572.41	-1875.87	  449.55
    127.1700	  569.00	  573.53	-1875.87	  450.68
    127.2700	  600.00	  574.66	-1875.87	  451.81
    127.3700	  639.00	  575.80	-1875.87	  452.95
    127.4700	  570.00	  576.95	-1875.87	  454.10
    127.5700	  614.00	  578.12	-1875.87	  455.27
    127.6700	  575.00	  579.29	-1875.87	  456.44
    127.7700	  622.00	  580.48	-1875.87	  457.62
    127.8700	  618.00	  581.67	-1875.87	  458.82
    127.9700	  628.00	  582.88	-1875.87	  460.02
    128.0700	  670.00	  584.09	-1875.87	  461.24
    128.1700	  635.00	  585.32	-1875.87	  462.47
    128.2700	  675.00	  586.56	-1875.87	  463.70
    128.3700	  658.00	  587.80	-1875.87	  464.95
    128.4700	  666.00	  589.06	-1875.87	  466.21
    128.5700	    0.00	  590.33	-1875.87	  467.48
    128.6700	    0.00	  591.61	-1875.87	  468.76
     12.3999	        	        	        	        	       0	(  0  0  2)	  0  1
     12.3999	        	        	        	        	    -468	(  0  0  2)	  0  1
     25.0481	        	        	        	        	       0	(  0  0  4)	  0  1
     25.0481	        	        	        	        	    -468	(  0  0  4)	  0  1
     28.5028	        	        	        	        	       0	(  1  0  0)	  0  1
     28.5028	        	        	        	        	    -468	(  1  0  0)	  0  1
     29.2038	        	        	        	        	       0	(  1  0  1)	  0  1
     29.2038	        	        	        	        	    -468	(  1  0  1)	  0  1
     31.2211	        	        	        	        	       0	(  1  0  2)	  0  1
     31.2211	        	        	        	        	    -468	(  1  0  2)	  0  1
     34.3468	        	        	        	        	       0	(  1  0  3)	  0  1
     34.3468	        	        	        	        	    -468	(  1  0  3)	  0  1
     38.0172	        	        	        	        	       0	(  0  0  6)	  0  1
     38.0172	        	        	        	        	    -468	(  0  0  6)	  0  1
     38.3464	        	        	        	        	       0	(  1  0  4)	  0  1
     38.3464	        	        	        	        	    -468	(  1  0  4)	  0  1
     43.0234	        	        	        	        	       0	(  1  0  5)	  0  1
     43.0234	        	        	        	        	    -468	(  1  0  5)	  0  1
     48.2383	        	        	        	        	       0	(  1  0  6)	  0  1
     48.2383	        	        	        	        	    -468	(  1  0  6)	  0  1
     50.5600	        	        	        	        	       0	(  1  1  0)	  0  1
     50.5600	        	        	        	        	    -468	(  1  1  0)	  0  1
     51.5175	        	        	        	        	       0	(  0  0  8)	  0  1
     51.5175	        	        	        	        	    -468	(  0  0  8)	  0  1
     52.2939	        	        	        	        	       0	(  1  1  2)	  0  1
     52.2939	        	        	        	        	    -468	(  1  1  2)	  0  1
     53.9036	        	        	        	        	       0	(  1  0  7)	  0  1
     53.9036	        	        	        	        	    -468	(  1  0  7)	  0  1
     57.2738	        	        	        	        	       0	(  1  1  4)	  0  1
     57.2738	        	        	        	        	    -468	(  1  1  4)	  0  1
     59.1092	        	        	        	        	       0	(  2  0  0)	  0  1
     59.1092	        	        	        	        	    -468	(  2  0  0)	  0  1
     59.5034	        	        	        	        	       0	(  2  0  1)	  0  1
     59.5034	        	        	        	        	    -468	(  2  0  1)	  0  1
     59.9732	        	        	        	        	       0	(  1  0  8)	  0  1
     59.9732	        	        	        	        	    -468	(  1  0  8)	  0  1
     60.6767	        	        	        	        	       0	(  2  0  2)	  0  1
     60.6767	        	        	        	        	    -468	(  2  0  2)	  0  1
     62.6032	        	        	        	        	       0	(  2  0  3)	  0  1
     62.6032	        	        	        	        	    -468	(  2  0  3)	  0  1
     65.0211	        	        	        	        	       0	(  1  1  6)	  0  1
     65.0211	        	        	        	        	    -468	(  1  1  6)	  0  1
     65.2458	        	        	        	        	       0	(  2  0  4)	  0  1
     65.2458	        	        	        	        	    -468	(  2  0  4)	  0  1
     65.8403	        	        	        	        	       0	(  0  0 10)	  0  1
     65.8403	        	        	        	        	    -468	(  0  0 10)	  0  1
     66.4339	        	        	        	        	       0	(  1  0  9)	  0  1
     66.4339	        	        	        	        	    -468	(  1  0  9)	  0  1
     68.5640	        	        	        	        	       0	(  2  0  5)	  0  1
     68.5640	        	        	        	        	    -468	(  2  0  5)	  0  1
     72.5212	        	        	        	        	       0	(  2  0  6)	  0  1
     72.5212	        	        	        	        	    -468	(  2  0  6)	  0  1
     73.3008	        	        	        	        	       0	(  1  0 10)	  0  1
     73.3008	        	        	        	        	    -468	(  1  0 10)	  0  1
     75.1344	        	        	        	        	       0	(  1  1  8)	  0  1
     75.1344	        	        	        	        	    -468	(  1  1  8)	  0  1
     77.0915	        	        	        	        	       0	(  2  0  7)	  0  1
     77.0915	        	        	        	        	    -468	(  2  0  7)	  0  1
     80.6176	        	        	        	        	       0	(  1  0 11)	  0  1
     80.6176	        	        	        	        	    -468	(  1  0 11)	  0  1
     81.4416	        	        	        	        	       0	(  0  0 12)	  0  1
     81.4416	        	        	        	        	    -468	(  0  0 12)	  0  1
     81.5125	        	        	        	        	       0	(  2  1  0)	  0  1
     81.5125	        	        	        	        	    -468	(  2  1  0)	  0  1
     81.8554	        	        	        	        	       0	(  2  1  1)	  0  1
     81.8554	        	        	        	        	    -468	(  2  1  1)	  0  1
     82.2654	        	        	        	        	       0	(  2  0  8)	  0  1
     82.2654	        	        	        	        	    -468	(  2  0  8)	  0  1
     82.8823	        	        	        	        	       0	(  2  1  2)	  0  1
     82.8823	        	        	        	        	    -468	(  2  1  2)	  0  1
     84.5889	        	        	        	        	       0	(  2  1  3)	  0  1
     84.5889	        	        	        	        	    -468	(  2  1  3)	  0  1
     86.9706	        	        	        	        	       0	(  2  1  4)	  0  1
     86.9706	        	        	        	        	    -468	(  2  1  4)	  0  1
     87.5128	        	        	        	        	       0	(  1  1 10)	  0  1
     87.5128	        	        	        	        	    -468	(  1  1 10)	  0  1
     88.0565	        	        	        	        	       0	(  2  0  9)	  0  1
     88.0565	        	        	        	        	    -468	(  2  0  9)	  0  1
     88.4628	        	        	        	        	       0	(  1  0 12)	  0  1
     88.4628	        	        	        	        	    -468	(  1  0 12)	  0  1
     90.0259	        	        	        	        	       0	(  2  1  5)	  0  1
     90.0259	        	        	        	        	    -468	(  2  1  5)	  0  1
     93.7615	        	        	        	        	       0	(  2  1  6)	  0  1
     93.7615	        	        	        	        	    -468	(  2  1  6)	  0  1
     94.5091	        	        	        	        	       0	(  2  0 10)	  0  1
     94.5091	        	        	        	        	    -468	(  2  0 10)	  0  1
     95.5329	        	        	        	        	       0	(  3  0  0)	  0  1
     95.5329	        	        	        	        	    -468	(  3  0  0)	  0  1
     95.8740	        	        	        	        	       0	(  3  0  1)	  0  1
     95.8740	        	        	        	        	    -468	(  3  0  1)	  0  1
     96.8986	        	        	        	        	       0	(  3  0  2)	  0  1
     96.8986	        	        	        	        	    -468	(  3  0  2)	  0  1
     96.9643	        	        	        	        	       0	(  1  0 13)	  0  1
     96.9643	        	        	        	        	    -468	(  1  0 13)	  0  1
     98.1990	        	        	        	        	       0	(  2  1  7)	  0  1
     98.1990	        	        	        	        	    -468	(  2  1  7)	  0  1
     98.6114	        	        	        	        	       0	(  3  0  3)	  0  1
     98.6114	        	        	        	        	    -468	(  3  0  3)	  0  1
     99.1580	        	        	        	        	       0	(  0  0 14)	  0  1
     99.1580	        	        	        	        	    -468	(  0  0 14)	  0  1
    101.0229	        	        	        	        	       0	(  3  0  4)	  0  1
    101.0229	        	        	        	        	    -468	(  3  0  4)	  0  1
    101.7137	        	        	        	        	       0	(  2  0 11)	  0  1
    101.7137	        	        	        	        	    -468	(  2  0 11)	  0  1
    102.5467	        	        	        	        	       0	(  1  1 12)	  0  1
    102.5467	        	        	        	        	    -468	(  1  1 12)	  0  1
    103.3841	        	        	        	        	       0	(  2  1  8)	  0  1
    103.3841	        	        	        	        	    -468	(  2  1  8)	  0  1
    104.1537	        	        	        	        	       0	(  3  0  5)	  0  1
    104.1537	        	        	        	        	    -468	(  3  0  5)	  0  1
    106.3327	        	        	        	        	       0	(  1  0 14)	  0  1
    106.3327	        	        	        	        	    -468	(  1  0 14)	  0  1
    108.0414	        	        	        	        	       0	(  3  0  6)	  0  1
    108.0414	        	        	        	        	    -468	(  3  0  6)	  0  1
    109.4030	        	        	        	        	       0	(  2  1  9)	  0  1
    109.4030	        	        	        	        	    -468	(  2  1  9)	  0  1
    109.8345	        	        	        	        	       0	(  2  0 12)	  0  1
    109.8345	        	        	        	        	    -468	(  2  0 12)	  0  1
    112.7521	        	        	        	        	       0	(  3  0  7)	  0  1
    112.7521	        	        	        	        	    -468	(  3  0  7)	  0  1
    116.4118	        	        	        	        	       0	(  2  1 10)	  0  1
    116.4118	        	        	        	        	    -468	(  2  1 10)	  0  1
    116.9417	        	        	        	        	       0	(  1  0 15)	  0  1
    116.9417	        	        	        	        	    -468	(  1  0 15)	  0  1
    117.5570	        	        	        	        	       0	(  2  2  0)	  0  1
    117.5570	        	        	        	        	    -468	(  2  2  0)	  0  1
    118.4020	        	        	        	        	       0	(  3  0  8)	  0  1
    118.4020	        	        	        	        	    -468	(  3  0  8)	  0  1
    119.1005	        	        	        	        	       0	(  2  2  2)	  0  1
    119.1005	        	        	        	        	    -468	(  2  2  2)	  0  1
    119.1753	        	        	        	        	       0	(  2  0 13)	  0  1
    119.1753	        	        	        	        	    -468	(  2  0 13)	  0  1
    120.9794	        	        	        	        	       0	(  0  0 16)	  0  1
    120.9794	        	        	        	        	    -468	(  0  0 16)	  0  1
    121.6964	        	        	        	        	       0	(  1  1 14)	  0  1
    121.6964	        	        	        	        	    -468	(  1  1 14)	  0  1
    123.8822	        	        	        	        	       0	(  2  2  4)	  0  1
    123.8822	        	        	        	        	    -468	(  2  2  4)	  0  1
    124.7026	        	        	        	        	       0	(  2  1 11)	  0  1
    124.7026	        	        	        	        	    -468	(  2  1 11)	  0  1
    125.2008	        	        	        	        	       0	(  3  0  9)	  0  1
    125.2008	        	        	        	        	    -468	(  3  0  9)	  0  1
    125.7866	        	        	        	        	       0	(  3  1  0)	  0  1
    125.7866	        	        	        	        	    -468	(  3  1  0)	  0  1
    126.2066	        	        	        	        	       0	(  3  1  1)	  0  1
    126.2066	        	        	        	        	    -468	(  3  1  1)	  0  1
    127.4803	        	        	        	        	       0	(  3  1  2)	  0  1
    127.4803	        	        	        	        	    -468	(  3  1  2)	  0  1
    129.5600	        	        	        	        	       0	(  1  0 16)	  0  1
    129.5600	        	        	        	        	    -468	(  1  0 16)	  0  1
    129.6534	        	        	        	        	       0	(  3  1  3)	  0  1
    129.6534	        	        	        	        	    -468	(  3  1  3)	  0  1
    130.3593	        	        	        	        	       0	(  2  0 14)	  0  1
    130.3593	        	        	        	        	    -468	(  2  0 14)	  0  1
    132.5393	        	        	        	        	       0	(  2  2  6)	  0  1
    132.5393	        	        	        	        	    -468	(  2  2  6)	  0  1
    132.8171	        	        	        	        	       0	(  3  1  4)	  0  1
    132.8171	        	        	        	        	    -468	(  3  1  4)	  0  1
    133.5611	        	        	        	        	       0	(  3  0 10)	  0  1
    133.5611	        	        	        	        	    -468	(  3  0 10)	  0  1
    134.8883	        	        	        	        	       0	(  2  1 12)	  0  1
    134.8883	        	        	        	        	    -468	(  2  1 12)	  0  1
    137.1430	        	        	        	        	       0	(  3  1  5)	  0  1
    137.1430	        	        	        	        	    -468	(  3  1  5)	  0  1
    142.9711	        	        	        	        	       0	(  3  1  6)	  0  1
    142.9711	        	        	        	        	    -468	(  3  1  6)	  0  1
    144.4633	        	        	        	        	       0	(  3  0 11)	  0  1
    144.4633	        	        	        	        	    -468	(  3  0 11)	  0  1
    145.0499	        	        	        	        	       0	(  2  0 15)	  0  1
    145.0499	        	        	        	        	    -468	(  2  0 15)	  0  1
    146.3766	        	        	        	        	       0	(  1  0 17)	  0  1
    146.3766	        	        	        	        	    -468	(  1  0 17)	  0  1
    147.3795	        	        	        	        	       0	(  2  2  8)	  0  1
    147.3795	        	        	        	        	    -468	(  2  2  8)	  0  1
    148.6613	        	        	        	        	       0	(  2  1 13)	  0  1
    148.6613	        	        	        	        	    -468	(  2  1 13)	  0  1
    151.1073	        	        	        	        	       0	(  3  1  7)	  0  1
    151.1073	        	        	        	        	    -468	(  3  1  7)	  0  1
    151.8128	        	        	        	        	       0	(  1  1 16)	  0  1
    151.8128	        	        	        	        	    -468	(  1  1 16)	  0  1
    156.6701	        	        	        	        	       0	(  0  0 18)	  0  1
    156.6701	        	        	        	        	    -468	(  0  0 18)	  0  1
    161.8817	        	        	        	        	       0	(  3  0 12)	  0  1
    161.8817	        	        	        	        	    -468	(  3  0 12)	  0  1
    162.1100	        	        	        	        	       0	(  4  0  0)	  0  1
    162.1100	        	        	        	        	    -468	(  4  0  0)	  0  1
    163.2563	        	        	        	        	       0	(  4  0  1)	  0  1
    163.2563	        	        	        	        	    -468	(  4  0  1)	  0  1
    164.7384	        	        	        	        	       0	(  3  1  8)	  0  1
    164.7384	        	        	        	        	    -468	(  3  1  8)	  0  1
    167.2871	        	        	        	        	       0	(  4  0  2)	  0  1
    167.2871	        	        	        	        	    -468	(  4  0  2)	  0  1
