MSG Master    CELL:    5.91439   5.91439  23.25908   90.0000   90.0000  120.0000   SPGR: P 63/m m c             TEMP:    988.35
  1   1280     2.52000     0.00000    -0.12590     0.00000     0.00000    0
    99     0     2
       0.00000      10.00000
     125.00000     130.00000
 2Theta	Yobs	Ycal	Yobs-Ycal	Backg	Posr	(hkl)	K
      0.7700	    0.00	  521.23	-1714.25	  406.82
      0.8700	    0.00	  522.20	-1714.25	  407.78
      0.9700	   50.00	  523.15	-1714.25	  408.74
      1.0700	   38.00	  524.10	-1714.25	  409.68
      1.1700	   42.00	  525.02	-1714.25	  410.61
      1.2700	   38.00	  525.94	-1714.25	  411.52
      1.3700	   41.00	  526.84	-1714.25	  412.43
      1.4700	   80.00	  527.74	-1714.25	  413.32
      1.5700	  288.00	  528.61	-1714.25	  414.20
      1.6700	  448.00	  529.48	-1714.25	  415.06
      1.7700	  577.00	  530.34	-1714.25	  415.92
      1.8700	  630.00	  531.18	-1714.25	  416.76
      1.9700	  739.00	  532.01	-1714.25	  417.59
      2.0700	  729.00	  532.83	-1714.25	  418.41
      2.1700	  812.00	  533.64	-1714.25	  419.22
      2.2700	  796.00	  534.43	-1714.25	  420.02
      2.3700	  738.00	  535.22	-1714.25	  420.80
      2.4700	  715.00	  535.99	-1714.25	  421.57
      2.5700	  650.00	  536.75	-1714.25	  422.33
      2.6700	  680.00	  537.50	-1714.25	  423.08
      2.7700	  654.00	  538.24	-1714.25	  423.82
      2.8700	  631.00	  538.97	-1714.25	  424.55
      2.9700	  617.00	  539.68	-1714.25	  425.26
      3.0700	  617.00	  540.39	-1714.25	  425.97
      3.1700	  605.00	  541.08	-1714.25	  426.66
      3.2700	  630.00	  541.76	-1714.25	  427.35
      3.3700	  713.00	  542.44	-1714.25	  428.02
      3.4700	  844.00	  543.10	-1714.25	  428.68
      3.5700	  903.00	  543.75	-1714.25	  429.33
      3.6700	  955.00	  544.39	-1714.25	  429.97
      3.7700	 1037.00	  545.02	-1714.25	  430.60
      3.8700	 1012.00	  545.64	-1714.25	  431.22
      3.9700	 1046.00	  546.24	-1714.25	  431.83
      4.0700	 1142.00	  546.84	-1714.25	  432.43
      4.1700	 1138.00	  547.43	-1714.25	  433.01
      4.2700	 1178.00	  548.01	-1714.25	  433.59
      4.3700	 1183.00	  548.58	-1714.25	  434.16
      4.4700	 1201.00	  549.13	-1714.25	  434.72
      4.5700	 1105.00	  549.68	-1714.25	  435.26
      4.6700	 1130.00	  550.22	-1714.25	  435.80
      4.7700	 1020.00	  550.75	-1714.25	  436.33
      4.8700	 1033.00	  551.27	-1714.25	  436.85
      4.9700	  971.00	  551.77	-1714.25	  437.36
      5.0700	 1030.00	  552.27	-1714.25	  437.86
      5.1700	  988.00	  552.76	-1714.25	  438.35
      5.2700	  911.00	  553.24	-1714.25	  438.83
      5.3700	  910.00	  553.71	-1714.25	  439.30
      5.4700	  915.00	  554.17	-1714.25	  439.76
      5.5700	  851.00	  554.63	-1714.25	  440.21
      5.6700	  858.00	  555.07	-1714.25	  440.65
      5.7700	  835.00	  555.50	-1714.25	  441.09
      5.8700	  909.00	  555.93	-1714.25	  441.51
      5.9700	  794.00	  556.34	-1714.25	  441.93
      6.0700	  807.00	  556.75	-1714.25	  442.33
      6.1700	  795.00	  557.15	-1714.25	  442.73
      6.2700	  825.00	  557.54	-1714.25	  443.12
      6.3700	  787.00	  557.92	-1714.25	  443.50
      6.4700	  797.00	  558.29	-1714.25	  443.87
      6.5700	  736.00	  558.65	-1714.25	  444.24
      6.6700	  733.00	  559.01	-1714.25	  444.59
      6.7700	  720.00	  559.35	-1714.25	  444.94
      6.8700	  764.00	  559.69	-1714.25	  445.27
      6.9700	  665.00	  560.02	-1714.25	  445.60
      7.0700	  726.00	  560.34	-1714.25	  445.93
      7.1700	  670.00	  560.66	-1714.25	  446.24
      7.2700	  666.00	  560.96	-1714.25	  446.54
      7.3700	  707.00	  561.26	-1714.25	  446.84
      7.4700	  696.00	  561.55	-1714.25	  447.13
      7.5700	  679.00	  561.83	-1714.25	  447.41
      7.6700	  673.00	  562.10	-1714.25	  447.68
      7.7700	  610.00	  562.37	-1714.25	  447.95
      7.8700	  660.00	  562.63	-1714.25	  448.21
      7.9700	  609.00	  562.88	-1714.25	  448.46
      8.0700	  588.00	  563.12	-1714.25	  448.70
      8.1700	  640.00	  563.35	-1714.25	  448.94
      8.2700	  648.00	  563.58	-1714.25	  449.16
      8.3700	  632.00	  563.80	-1714.25	  449.38
      8.4700	  593.00	  564.01	-1714.25	  449.60
      8.5700	  626.00	  564.22	-1714.25	  449.80
      8.6700	  611.00	  564.42	-1714.25	  450.00
      8.7700	  634.00	  564.61	-1714.25	  450.19
      8.8700	  649.00	  564.79	-1714.25	  450.37
      8.9700	  592.00	  564.97	-1714.25	  450.55
      9.0700	  587.00	  565.14	-1714.25	  450.72
      9.1700	  593.00	  565.30	-1714.25	  450.88
      9.2700	  609.00	  565.46	-1714.25	  451.04
      9.3700	  600.00	  565.61	-1714.25	  451.19
      9.4700	  595.00	  565.75	-1714.25	  451.33
      9.5700	  582.00	  565.89	-1714.25	  451.47
      9.6700	  587.00	  566.02	-1714.25	  451.60
      9.7700	  618.00	  566.14	-1714.25	  451.72
      9.8700	  548.00	  566.25	-1714.25	  451.84
      9.9700	  553.00	  566.36	-1714.25	  451.95
     10.0700	  615.00	  567.79	-1667.04	  452.05
     10.1700	  622.00	  568.03	-1660.28	  452.15
     10.2700	  535.00	  568.30	-1747.55	  452.24
     10.3700	  570.00	  568.62	-1712.87	  452.32
     10.4700	  590.00	  569.01	-1693.26	  452.40
     10.5700	  563.00	  569.55	-1720.80	  452.47
     10.6700	  570.00	  570.31	-1714.56	  452.54
     10.7700	  597.00	  571.41	-1688.66	  452.60
     10.8700	  594.00	  572.91	-1693.16	  452.65
     10.9700	  572.00	  574.84	-1717.09	  452.70
     11.0700	  602.00	  577.16	-1689.41	  452.74
     11.1700	  607.00	  579.89	-1687.14	  452.78
     11.2700	  579.00	  583.07	-1718.32	  452.81
     11.3700	  581.00	  586.78	-1720.03	  452.84
     11.4700	  599.00	  591.15	-1706.40	  452.86
     11.5700	  581.00	  596.43	-1729.68	  452.87
     11.6700	  570.00	  602.97	-1747.22	  452.88
     11.7700	  638.00	  611.32	-1687.57	  452.88
     11.8700	  645.00	  622.07	-1691.32	  452.88
     11.9700	  658.00	  635.16	-1691.41	  452.87
     12.0700	  625.00	  648.69	-1737.94	  452.86
     12.1700	  698.00	  657.69	-1673.94	  452.84
     12.2700	  697.00	  654.85	-1672.10	  452.82
     12.3700	  658.00	  637.53	-1693.78	  452.79
     12.4700	  627.00	  614.81	-1702.06	  452.76
     12.5700	  614.00	  596.25	-1696.50	  452.72
     12.6700	  578.00	  584.36	-1720.61	  452.68
     12.7700	  568.00	  577.81	-1724.06	  452.63
     12.8700	  586.00	  574.40	-1702.65	  452.58
     12.9700	  583.00	  572.52	-1703.77	  452.52
     13.0700	  554.00	  571.33	-1731.58	  452.46
     13.1700	  567.00	  570.48	-1717.73	  452.39
     13.2700	  534.00	  569.83	-1750.08	  452.32
     13.3700	  536.00	  569.31	-1747.56	  452.24
     13.4700	  581.00	  568.88	-1702.13	  452.16
     13.5700	  550.00	  568.51	-1732.76	  452.07
     13.6700	  581.00	  568.20	-1701.45	  451.98
     13.7700	  584.00	  567.91	-1698.17	  451.89
     13.8700	  559.00	  567.66	-1722.91	  451.79
     13.9700	  565.00	  567.43	-1716.68	  451.69
     14.0700	  588.00	  567.21	-1693.46	  451.58
     14.1700	  547.00	  567.00	-1734.25	  451.47
     14.2700	  575.00	  566.80	-1706.05	  451.35
     14.3700	  578.00	  566.61	-1702.86	  451.23
     14.4700	  511.00	  566.42	-1769.67	  451.11
     14.5700	  549.00	  566.24	-1731.49	  450.98
     14.6700	  557.00	  566.06	-1723.31	  450.85
     14.7700	  554.00	  565.88	-1726.13	  450.71
     14.8700	  537.00	  565.70	-1742.95	  450.57
     14.9700	  603.00	  565.55	-1676.80	  450.42
     15.0700	  582.00	  565.37	-1697.62	  450.28
     15.1700	  558.00	  565.19	-1721.44	  450.13
     15.2700	  570.00	  565.01	-1709.26	  449.97
     15.3700	  546.00	  564.83	-1733.08	  449.81
     15.4700	  572.00	  564.65	-1706.90	  449.65
     15.5700	  532.00	  564.46	-1746.71	  449.48
     15.6700	  562.00	  564.28	-1716.53	  449.31
     15.7700	  560.00	  564.09	-1718.34	  449.14
     15.8700	  534.00	  563.90	-1744.15	  448.96
     15.9700	  623.00	  563.71	-1654.96	  448.78
     16.0700	  560.00	  563.51	-1717.76	  448.60
     16.1700	  568.00	  563.31	-1709.56	  448.41
     16.2700	  563.00	  563.11	-1714.36	  448.22
     16.3700	  554.00	  562.91	-1723.16	  448.03
     16.4700	  530.00	  562.71	-1746.96	  447.83
     16.5700	  593.00	  562.50	-1683.75	  447.63
     16.6700	  582.00	  562.29	-1694.54	  447.43
     16.7700	  549.00	  562.08	-1727.33	  447.23
     16.8700	  530.00	  561.86	-1746.11	  447.02
     16.9700	  599.00	  561.64	-1676.89	  446.81
     17.0700	  541.00	  561.42	-1734.67	  446.59
     17.1700	  546.00	  561.20	-1729.45	  446.37
     17.2700	  591.00	  560.98	-1684.23	  446.15
     17.3700	  533.00	  560.75	-1742.00	  445.93
     17.4700	  520.00	  560.52	-1754.77	  445.70
     17.5700	  518.00	  560.29	-1756.54	  445.48
     17.6700	  529.00	  560.05	-1745.30	  445.24
     17.7700	  542.00	  559.82	-1732.07	  445.01
     17.8700	  513.00	  559.68	-1760.93	  444.77
     17.9700	  539.00	  559.44	-1734.69	  444.53
     18.0700	  560.00	  559.20	-1713.45	  444.29
     18.1700	  504.00	  558.95	-1769.20	  444.05
     18.2700	  555.00	  558.71	-1717.96	  443.80
     18.3700	  562.00	  558.46	-1710.71	  443.55
     18.4700	  544.00	  558.30	-1728.55	  443.30
     18.5700	  560.00	  558.05	-1712.30	  443.05
     18.6700	  568.00	  557.80	-1704.05	  442.79
     18.7700	  516.00	  557.55	-1755.80	  442.53
     18.8700	  594.00	  557.29	-1677.54	  442.27
     18.9700	  530.00	  557.03	-1741.28	  442.01
     19.0700	  557.00	  556.77	-1714.02	  441.74
     19.1700	  555.00	  556.51	-1715.76	  441.48
     19.2700	  524.00	  556.25	-1746.50	  441.21
     19.3700	  537.00	  555.99	-1733.24	  440.94
     19.4700	  551.00	  555.72	-1718.97	  440.66
     19.5700	  521.00	  555.45	-1748.70	  440.39
     19.6700	  602.00	  555.18	-1667.43	  440.11
     19.7700	  542.00	  554.91	-1727.16	  439.83
     19.8700	  514.00	  554.64	-1754.89	  439.55
     19.9700	  548.00	  554.37	-1720.62	  439.27
     20.0700	  560.00	  554.10	-1708.35	  438.98
     20.1700	  532.00	  553.82	-1736.07	  438.70
     20.2700	  519.00	  553.58	-1748.83	  438.41
     20.3700	  515.00	  553.31	-1752.56	  438.12
     20.4700	  540.00	  553.03	-1727.28	  437.83
     20.5700	  533.00	  552.75	-1734.00	  437.54
     20.6700	  512.00	  552.47	-1754.72	  437.24
     20.7700	  572.00	  552.19	-1694.44	  436.95
     20.8700	  549.00	  551.91	-1717.16	  436.65
     20.9700	  554.00	  551.63	-1711.88	  436.35
     21.0700	  525.00	  551.35	-1740.60	  436.05
     21.1700	  555.00	  551.07	-1710.32	  435.75
     21.2700	  544.00	  550.79	-1721.04	  435.44
     21.3700	  549.00	  550.51	-1715.76	  435.14
     21.4700	  561.00	  550.23	-1703.48	  434.83
     21.5700	  553.00	  549.95	-1711.20	  434.53
     21.6700	  552.00	  549.68	-1711.93	  434.22
     21.7700	  569.00	  549.40	-1694.65	  433.91
     21.8700	  548.00	  549.08	-1715.33	  433.60
     21.9700	  539.00	  548.81	-1724.06	  433.29
     22.0700	  565.00	  548.54	-1697.79	  432.97
     22.1700	  561.00	  548.27	-1701.52	  432.66
     22.2700	  591.00	  548.01	-1671.26	  432.34
     22.3700	  527.00	  547.75	-1735.00	  432.03
     22.4700	  536.00	  547.49	-1725.74	  431.71
     22.5700	  540.00	  547.24	-1721.49	  431.39
     22.6700	  545.00	  547.00	-1716.25	  431.07
     22.7700	  533.00	  546.76	-1728.01	  430.75
     22.8700	  555.00	  546.54	-1705.79	  430.43
     22.9700	  521.00	  546.48	-1739.73	  430.11
     23.0700	  582.00	  546.29	-1678.54	  429.79
     23.1700	  549.00	  546.11	-1711.36	  429.46
     23.2700	  563.00	  545.97	-1697.22	  429.14
     23.3700	  541.00	  545.86	-1719.11	  428.81
     23.4700	  597.00	  545.79	-1663.04	  428.49
     23.5700	  530.00	  545.78	-1730.03	  428.16
     23.6700	  579.00	  545.86	-1681.11	  427.83
     23.7700	  563.00	  546.08	-1697.33	  427.50
     23.8700	  601.00	  546.55	-1659.80	  427.18
     23.9700	  562.00	  547.45	-1699.70	  426.85
     24.0700	  587.00	  549.14	-1676.39	  426.52
     24.1700	  543.00	  552.12	-1723.37	  426.19
     24.2700	  571.00	  557.06	-1700.31	  425.86
     24.3700	  555.00	  564.63	-1723.88	  425.53
     24.4700	  546.00	  575.31	-1743.56	  425.19
     24.5700	  584.00	  588.79	-1719.04	  424.86
     24.6700	  652.00	  602.98	-1665.23	  424.53
     24.7700	  646.00	  613.09	-1681.34	  424.20
     24.8700	  673.00	  612.55	-1653.80	  423.86
     24.9700	  643.00	  599.31	-1670.56	  423.53
     25.0700	  574.00	  580.87	-1721.12	  423.20
     25.1700	  550.00	  565.10	-1729.35	  422.86
     25.2700	  579.00	  554.52	-1689.77	  422.53
     25.3700	  586.00	  548.41	-1676.66	  422.20
     25.4700	  513.00	  545.14	-1746.39	  421.86
     25.5700	  596.00	  543.33	-1661.58	  421.53
     25.6700	  595.00	  542.21	-1661.46	  421.19
     25.7700	  574.00	  541.42	-1681.67	  420.86
     25.8700	  494.00	  540.84	-1761.09	  420.52
     25.9700	  537.00	  540.40	-1717.65	  420.19
     26.0700	  586.00	  540.06	-1668.31	  419.85
     26.1700	  521.00	  539.83	-1733.08	  419.52
     26.2700	  544.00	  539.68	-1709.93	  419.18
     26.3700	  567.00	  539.62	-1686.87	  418.85
     26.4700	  523.00	  539.65	-1730.90	  418.51
     26.5700	  556.00	  539.77	-1698.02	  418.18
     26.6700	  556.00	  540.01	-1698.26	  417.84
     26.7700	  525.00	  540.39	-1729.64	  417.51
     26.8700	  541.00	  540.93	-1714.18	  417.17
     26.9700	  562.00	  541.69	-1693.94	  416.84
     27.0700	  567.00	  542.73	-1689.98	  416.50
     27.1700	  540.00	  544.17	-1718.42	  416.17
     27.2700	  553.00	  546.22	-1707.47	  415.83
     27.3700	  525.00	  549.29	-1738.54	  415.50
     27.4700	  595.00	  554.18	-1673.43	  415.17
     27.5700	  534.00	  562.34	-1742.59	  414.83
     27.6700	  527.00	  576.06	-1763.31	  414.50
     27.7700	  566.00	  598.47	-1746.72	  414.17
     27.8700	  623.00	  632.52	-1723.77	  413.84
     27.9700	  631.00	  679.00	-1762.25	  413.51
     28.0700	  742.00	  733.87	-1706.12	  413.17
     28.1700	  827.00	  785.70	-1672.95	  412.84
     28.2700	  897.00	  815.54	-1632.79	  412.51
     28.3700	  877.00	  807.69	-1644.94	  412.18
     28.4700	  828.00	  773.99	-1660.24	  411.85
     28.5700	  752.00	  746.54	-1708.79	  411.52
     28.6700	  693.00	  744.35	-1765.60	  411.20
     28.7700	  790.00	  766.41	-1690.66	  410.87
     28.8700	  766.00	  796.61	-1744.86	  410.54
     28.9700	  818.00	  809.20	-1705.45	  410.21
     29.0700	  785.00	  782.56	-1711.81	  409.89
     29.1700	  743.00	  723.82	-1695.07	  409.56
     29.2700	  667.00	  661.08	-1708.33	  409.24
     29.3700	  604.00	  612.02	-1722.27	  408.91
     29.4700	  623.00	  580.03	-1671.28	  408.59
     29.5700	  537.00	  561.56	-1738.81	  408.26
     29.6700	  591.00	  551.46	-1674.71	  407.94
     29.7700	  558.00	  545.81	-1702.06	  407.62
     29.8700	  609.00	  542.40	-1647.65	  407.30
     29.9700	  575.00	  540.27	-1679.52	  406.98
     30.0700	  582.00	  539.11	-1671.36	  406.66
     30.1700	  562.00	  539.03	-1691.28	  406.34
     30.2700	  575.00	  540.38	-1679.63	  406.02
     30.3700	  578.00	  544.06	-1680.31	  405.71
     30.4700	  551.00	  551.36	-1714.61	  405.39
     30.5700	  608.00	  563.68	-1669.93	  405.07
     30.6700	  574.00	  581.48	-1721.73	  404.76
     30.7700	  598.00	  602.97	-1719.22	  404.45
     30.8700	  634.00	  623.03	-1703.28	  404.13
     30.9700	  619.00	  633.21	-1728.46	  403.82
     31.0700	  606.00	  625.88	-1734.13	  403.51
     31.1700	  544.00	  603.71	-1773.96	  403.20
     31.2700	  612.00	  578.21	-1680.46	  402.89
     31.3700	  600.00	  557.42	-1671.67	  402.58
     31.4700	  537.00	  543.45	-1720.70	  402.27
     31.5700	  515.00	  535.20	-1734.45	  401.97
     31.6700	  556.00	  530.66	-1688.91	  401.66
     31.7700	  564.00	  528.14	-1678.39	  401.36
     31.8700	  544.00	  526.61	-1696.86	  401.06
     31.9700	  528.00	  525.60	-1711.85	  400.75
     32.0700	  552.00	  524.91	-1687.16	  400.45
     32.1700	  509.00	  524.46	-1729.71	  400.15
     32.2700	  560.00	  524.21	-1678.46	  399.85
     32.3700	  543.00	  524.14	-1695.39	  399.56
     32.4700	  528.00	  524.27	-1710.52	  399.26
     32.5700	  560.00	  524.60	-1678.85	  398.96
     32.6700	  525.00	  525.18	-1714.43	  398.67
     32.7700	  562.00	  526.04	-1678.29	  398.38
     32.8700	  545.00	  527.28	-1696.53	  398.08
     32.9700	  517.00	  529.02	-1726.27	  397.79
     33.0700	  543.00	  531.51	-1702.76	  397.50
     33.1700	  569.00	  535.24	-1680.49	  397.22
     33.2700	  490.00	  541.23	-1765.48	  396.93
     33.3700	  579.00	  551.56	-1686.81	  396.64
     33.4700	  571.00	  569.99	-1713.24	  396.36
     33.5700	  607.00	  602.16	-1709.41	  396.07
     33.6700	  598.00	  654.46	-1770.71	  395.79
     33.7700	  780.00	  729.99	-1664.24	  395.51
     33.8700	  838.00	  822.52	-1698.77	  395.23
     33.9700	  998.00	  911.78	-1628.03	  394.95
     34.0700	 1033.00	  963.97	-1645.22	  394.67
     34.1700	 1017.00	  946.80	-1644.05	  394.40
     34.2700	  897.00	  865.14	-1682.39	  394.12
     34.3700	  795.00	  761.89	-1681.14	  393.85
     34.4700	  684.00	  672.45	-1702.70	  393.58
     34.5700	  580.00	  609.32	-1743.57	  393.31
     34.6700	  551.00	  570.63	-1733.88	  393.04
     34.7700	  538.00	  549.00	-1725.25	  392.77
     34.8700	  559.00	  537.14	-1692.39	  392.51
     34.9700	  528.00	  530.16	-1716.41	  392.24
     35.0700	  498.00	  525.58	-1741.83	  391.98
     35.1700	  532.00	  522.25	-1704.50	  391.72
     35.2700	  492.00	  519.66	-1741.91	  391.45
     35.3700	  515.00	  517.58	-1716.83	  391.20
     35.4700	  543.00	  515.87	-1687.12	  390.94
     35.5700	  507.00	  514.44	-1721.69	  390.68
     35.6700	  506.00	  513.21	-1721.46	  390.43
     35.7700	  523.00	  512.16	-1703.41	  390.17
     35.8700	  498.00	  511.71	-1727.96	  389.92
     35.9700	  531.00	  510.90	-1694.15	  389.67
     36.0700	  475.00	  510.19	-1749.44	  389.42
     36.1700	  515.00	  509.55	-1708.80	  389.17
     36.2700	  515.00	  508.98	-1708.22	  388.93
     36.3700	  516.00	  508.46	-1706.71	  388.68
     36.4700	  500.00	  508.00	-1722.25	  388.44
     36.5700	  514.00	  507.59	-1707.84	  388.20
     36.6700	  517.00	  507.24	-1704.49	  387.96
     36.7700	  515.00	  506.97	-1706.22	  387.72
     36.8700	  519.00	  506.77	-1702.02	  387.48
     36.9700	  474.00	  506.74	-1746.99	  387.25
     37.0700	  495.00	  506.97	-1726.22	  387.02
     37.1700	  501.00	  507.69	-1720.94	  386.78
     37.2700	  504.00	  509.14	-1719.39	  386.55
     37.3700	  514.00	  511.55	-1711.80	  386.32
     37.4700	  506.00	  514.88	-1723.13	  386.10
     37.5700	  510.00	  518.61	-1722.86	  385.87
     37.6700	  461.00	  521.66	-1774.91	  385.65
     37.7700	  503.00	  522.64	-1733.89	  385.43
     37.8700	  521.00	  520.94	-1714.19	  385.20
     37.9700	  497.00	  517.50	-1734.75	  384.99
     38.0700	  539.00	  513.66	-1688.91	  384.77
     38.1700	  497.00	  510.15	-1727.40	  384.55
     38.2700	  507.00	  507.24	-1714.49	  384.34
     38.3700	  500.00	  505.06	-1719.31	  384.12
     38.4700	  456.00	  503.52	-1761.77	  383.91
     38.5700	  529.00	  502.64	-1687.89	  383.70
     38.6700	  502.00	  501.92	-1714.17	  383.50
     38.7700	  514.00	  501.40	-1701.65	  383.29
     38.8700	  495.00	  500.91	-1720.16	  383.09
     38.9700	  497.00	  500.57	-1717.82	  382.88
     39.0700	  487.00	  500.28	-1727.53	  382.68
     39.1700	  520.00	  500.02	-1694.27	  382.48
     39.2700	  498.00	  499.78	-1716.03	  382.29
     39.3700	  479.00	  499.56	-1734.81	  382.09
     39.4700	  458.00	  499.35	-1755.60	  381.90
     39.5700	  514.00	  499.15	-1699.40	  381.70
     39.6700	  504.00	  498.87	-1709.12	  381.51
     39.7700	  446.00	  498.70	-1766.95	  381.32
     39.8700	  532.00	  498.54	-1680.79	  381.13
     39.9700	  497.00	  498.40	-1715.65	  380.95
     40.0700	  529.00	  498.26	-1683.51	  380.77
     40.1700	  483.00	  498.13	-1729.38	  380.58
     40.2700	  498.00	  498.02	-1714.27	  380.40
     40.3700	  556.00	  497.92	-1656.17	  380.22
     40.4700	  514.00	  497.84	-1698.09	  380.05
     40.5700	  466.00	  497.77	-1746.02	  379.87
     40.6700	  491.00	  497.73	-1720.98	  379.70
     40.7700	  464.00	  497.70	-1747.95	  379.52
     40.8700	  477.00	  497.70	-1734.95	  379.35
     40.9700	  497.00	  498.22	-1715.47	  379.19
     41.0700	  460.00	  498.29	-1752.54	  379.02
     41.1700	  457.00	  498.41	-1755.66	  378.85
     41.2700	  515.00	  498.59	-1697.84	  378.69
     41.3700	  466.00	  498.84	-1747.09	  378.53
     41.4700	  468.00	  499.19	-1745.44	  378.37
     41.5700	  520.00	  499.66	-1693.91	  378.21
     41.6700	  508.00	  500.33	-1706.58	  378.06
     41.7700	  456.00	  501.32	-1759.57	  377.90
     41.8700	  524.00	  502.92	-1693.17	  377.75
     41.9700	  483.00	  505.64	-1736.89	  377.60
     42.0700	  468.00	  510.55	-1756.80	  377.45
     42.1700	  511.00	  519.11	-1722.36	  377.30
     42.2700	  520.00	  532.83	-1727.08	  377.15
     42.3700	  551.00	  552.74	-1715.99	  377.01
     42.4700	  562.00	  577.99	-1730.24	  376.87
     42.5700	  563.00	  604.20	-1755.45	  376.73
     42.6700	  560.00	  623.72	-1777.97	  376.59
     42.7700	  635.00	  627.84	-1707.09	  376.45
     42.8700	  607.00	  613.72	-1720.97	  376.32
     42.9700	  587.00	  588.34	-1715.59	  376.18
     43.0700	  553.00	  561.30	-1722.55	  376.05
     43.1700	  525.00	  538.65	-1727.90	  375.92
     43.2700	  520.00	  522.39	-1716.64	  375.79
     43.3700	  526.00	  512.23	-1700.48	  375.67
     43.4700	  487.00	  506.15	-1733.40	  375.54
     43.5700	  484.00	  502.72	-1732.97	  375.42
     43.6700	  491.00	  500.73	-1723.98	  375.30
     43.7700	  498.00	  499.47	-1715.72	  375.18
     43.8700	  517.00	  498.59	-1695.84	  375.06
     43.9700	  479.00	  497.94	-1733.19	  374.94
     44.0700	  554.00	  497.43	-1657.68	  374.83
     44.1700	  504.00	  497.03	-1707.28	  374.72
     44.2700	  512.00	  496.71	-1698.96	  374.61
     44.3700	  530.00	  496.46	-1680.71	  374.50
     44.4700	  498.00	  496.26	-1712.51	  374.39
     44.5700	  520.00	  496.11	-1690.36	  374.28
     44.6700	  520.00	  496.00	-1690.25	  374.18
     44.7700	  488.00	  496.12	-1722.37	  374.08
     44.8700	  490.00	  496.07	-1720.32	  373.98
     44.9700	  506.00	  496.06	-1704.31	  373.88
     45.0700	  517.00	  496.07	-1693.32	  373.78
     45.1700	  527.00	  496.11	-1683.36	  373.69
     45.2700	  543.00	  496.17	-1667.42	  373.60
     45.3700	  522.00	  496.30	-1688.55	  373.50
     45.4700	  515.00	  496.28	-1695.53	  373.41
     45.5700	  477.00	  496.42	-1733.67	  373.33
     45.6700	  464.00	  496.60	-1746.85	  373.24
     45.7700	  489.00	  496.80	-1722.05	  373.15
     45.8700	  514.00	  497.04	-1697.29	  373.07
     45.9700	  473.00	  497.32	-1738.57	  372.99
     46.0700	  488.00	  497.63	-1723.88	  372.91
     46.1700	  475.00	  497.99	-1737.24	  372.83
     46.2700	  493.00	  498.41	-1719.66	  372.76
     46.3700	  520.00	  498.88	-1693.13	  372.68
     46.4700	  461.00	  499.49	-1752.74	  372.61
     46.5700	  501.00	  500.15	-1713.40	  372.54
     46.6700	  515.00	  500.90	-1700.15	  372.47
     46.7700	  521.00	  501.79	-1695.04	  372.40
     46.8700	  488.00	  502.89	-1729.14	  372.33
     46.9700	  534.00	  504.36	-1684.61	  372.27
     47.0700	  491.00	  506.49	-1729.74	  372.21
     47.1700	  534.00	  509.75	-1690.00	  372.15
     47.2700	  509.00	  514.96	-1720.21	  372.09
     47.3700	  546.00	  523.10	-1691.35	  372.03
     47.4700	  501.00	  535.08	-1748.33	  371.97
     47.5700	  559.00	  551.16	-1706.41	  371.92
     47.6700	  565.00	  570.22	-1719.47	  371.87
     47.7700	  562.00	  589.19	-1741.44	  371.82
     47.8700	  625.00	  603.00	-1692.25	  371.77
     47.9700	  619.00	  606.51	-1701.76	  371.72
     48.0700	  627.00	  598.56	-1685.81	  371.67
     48.1700	  592.00	  583.49	-1705.74	  371.63
     48.2700	  618.00	  567.12	-1663.37	  371.59
     48.3700	  562.00	  553.36	-1705.61	  371.54
     48.4700	  525.00	  543.93	-1733.19	  371.50
     48.5700	  531.00	  539.00	-1722.25	  371.47
     48.6700	  522.00	  537.88	-1730.13	  371.43
     48.7700	  546.00	  539.72	-1707.97	  371.39
     48.8700	  537.00	  544.23	-1721.48	  371.36
     48.9700	  538.00	  550.48	-1726.73	  371.33
     49.0700	  552.00	  559.15	-1721.40	  371.30
     49.1700	  560.00	  571.38	-1725.63	  371.27
     49.2700	  562.00	  589.70	-1741.95	  371.24
     49.3700	  595.00	  619.04	-1738.29	  371.22
     49.4700	  660.00	  668.02	-1722.27	  371.20
     49.5700	  684.00	  749.63	-1779.88	  371.17
     49.6700	  803.00	  879.98	-1791.23	  371.15
     49.7700	 1008.00	 1073.70	-1779.95	  371.13
     49.8700	 1261.00	 1335.67	-1788.92	  371.12
     49.9700	 1644.00	 1650.80	-1721.05	  371.10
     50.0700	 2025.00	 1974.23	-1663.48	  371.09
     50.1700	 2328.00	 2227.80	-1614.05	  371.07
     50.2700	 2425.00	 2320.98	-1610.23	  371.06
     50.3700	 2339.00	 2210.70	-1585.95	  371.05
     50.4700	 2009.00	 1945.34	-1650.59	  371.04
     50.5700	 1580.00	 1620.34	-1754.59	  371.04
     50.6700	 1180.00	 1313.20	-1847.45	  371.03
     50.7700	  955.00	 1065.11	-1824.36	  371.03
     50.8700	  766.00	  887.84	-1836.09	  371.02
     50.9700	  660.00	  773.60	-1827.85	  371.02
     51.0700	  700.00	  705.17	-1719.42	  371.02
     51.1700	  663.00	  664.05	-1715.30	  371.02
     51.2700	  616.00	  636.02	-1734.27	  371.03
     51.3700	  568.00	  613.53	-1759.78	  371.03
     51.4700	  597.00	  594.53	-1711.78	  371.04
     51.5700	  580.00	  578.38	-1712.63	  371.05
     51.6700	  525.00	  565.51	-1754.76	  371.06
     51.7700	  528.00	  555.88	-1742.13	  371.07
     51.8700	  572.00	  549.12	-1691.37	  371.08
     51.9700	  531.00	  544.70	-1727.95	  371.09
     52.0700	  561.00	  542.08	-1695.33	  371.11
     52.1700	  529.00	  540.89	-1726.14	  371.12
     52.2700	  526.00	  540.93	-1729.18	  371.14
     52.3700	  578.00	  542.29	-1678.54	  371.16
     52.4700	  553.00	  545.40	-1706.65	  371.18
     52.5700	  581.00	  551.26	-1684.51	  371.20
     52.6700	  582.00	  561.84	-1694.09	  371.22
     52.7700	  593.00	  580.44	-1701.69	  371.25
     52.8700	  654.00	  611.82	-1672.07	  371.27
     52.9700	  669.00	  661.62	-1706.87	  371.30
     53.0700	  802.00	  734.56	-1646.81	  371.33
     53.1700	  860.00	  831.78	-1686.03	  371.36
     53.2700	  972.00	  947.47	-1689.72	  371.39
     53.3700	 1148.00	 1066.11	-1632.36	  371.42
     53.4700	 1192.00	 1161.44	-1683.69	  371.45
     53.5700	 1208.00	 1202.51	-1708.76	  371.49
     53.6700	 1130.00	 1172.23	-1756.48	  371.53
     53.7700	  980.00	 1082.96	-1817.21	  371.56
     53.8700	  944.00	  965.61	-1735.86	  371.60
     53.9700	  830.00	  848.34	-1732.59	  371.64
     54.0700	  728.00	  748.28	-1734.53	  371.68
     54.1700	  634.00	  672.33	-1752.58	  371.72
     54.2700	  669.00	  620.13	-1665.38	  371.77
     54.3700	  590.00	  587.20	-1711.45	  371.81
     54.4700	  552.00	  567.80	-1730.05	  371.86
     54.5700	  563.00	  556.96	-1708.21	  371.90
     54.6700	  550.00	  551.17	-1715.42	  371.95
     54.7700	  568.00	  548.28	-1694.53	  372.00
     54.8700	  565.00	  547.16	-1696.41	  372.05
     54.9700	  569.00	  547.27	-1692.52	  372.10
     55.0700	  571.00	  548.38	-1691.63	  372.16
     55.1700	  591.00	  550.43	-1673.68	  372.21
     55.2700	  552.00	  553.44	-1715.69	  372.27
     55.3700	  538.00	  557.51	-1733.76	  372.32
     55.4700	  536.00	  562.84	-1741.09	  372.38
     55.5700	  531.00	  569.78	-1753.03	  372.44
     55.6700	  556.00	  579.11	-1737.36	  372.50
     55.7700	  588.00	  592.22	-1718.47	  372.56
     55.8700	  638.00	  611.82	-1688.07	  372.62
     55.9700	  626.00	  642.84	-1731.09	  372.68
     56.0700	  643.00	  693.32	-1764.57	  372.75
     56.1700	  705.00	  774.93	-1784.18	  372.81
     56.2700	  833.00	  901.93	-1783.18	  372.88
     56.3700	  976.00	 1087.91	-1826.16	  372.95
     56.4700	 1280.00	 1339.95	-1774.20	  373.01
     56.5700	 1707.00	 1651.52	-1658.77	  373.08
     56.6700	 2060.00	 1995.41	-1649.66	  373.15
     56.7700	 2221.00	 2318.75	-1812.00	  373.22
     56.8700	 2461.00	 2545.47	-1798.72	  373.30
     56.9700	 2494.00	 2601.75	-1822.00	  373.37
     57.0700	 2434.00	 2465.72	-1745.97	  373.44
     57.1700	 2085.00	 2187.49	-1816.74	  373.52
     57.2700	 1869.00	 1848.37	-1693.62	  373.59
     57.3700	 1450.00	 1516.19	-1780.44	  373.67
     57.4700	 1198.00	 1232.18	-1748.43	  373.75
     57.5700	  977.00	 1013.61	-1750.86	  373.83
     57.6700	  886.00	  860.29	-1688.54	  373.91
     57.7700	  809.00	  761.92	-1667.17	  373.99
     57.8700	  718.00	  704.92	-1701.17	  374.07
     57.9700	  744.00	  677.38	-1647.63	  374.15
     58.0700	  718.00	  671.23	-1667.48	  374.23
     58.1700	  703.00	  682.31	-1693.56	  374.32
     58.2700	  721.00	  709.22	-1702.47	  374.40
     58.3700	  787.00	  751.73	-1678.98	  374.49
     58.4700	  816.00	  809.26	-1707.51	  374.58
     58.5700	  903.00	  879.28	-1690.53	  374.66
     58.6700	 1052.00	  956.30	-1618.55	  374.75
     58.7700	 1094.00	 1032.25	-1652.50	  374.84
     58.8700	 1238.00	 1099.74	-1575.99	  374.93
     58.9700	 1233.00	 1154.71	-1635.96	  375.02
     59.0700	 1396.00	 1193.83	-1512.08	  375.11
     59.1700	 1346.00	 1212.27	-1580.52	  375.20
     59.2700	 1359.00	 1208.59	-1563.84	  375.30
     59.3700	 1312.00	 1189.84	-1592.09	  375.39
     59.4700	 1285.00	 1167.49	-1596.74	  375.48
     59.5700	 1290.00	 1150.74	-1574.99	  375.58
     59.6700	 1221.00	 1146.12	-1639.37	  375.67
     59.7700	 1157.00	 1161.09	-1718.34	  375.77
     59.8700	 1205.00	 1202.99	-1712.24	  375.87
     59.9700	 1295.00	 1273.17	-1692.42	  375.96
     60.0700	 1427.00	 1362.44	-1649.69	  376.06
     60.1700	 1464.00	 1449.89	-1700.14	  376.16
     60.2700	 1564.00	 1505.51	-1655.76	  376.26
     60.3700	 1596.00	 1501.31	-1619.56	  376.36
     60.4700	 1478.00	 1429.08	-1665.33	  376.46
     60.5700	 1324.00	 1306.07	-1696.32	  376.56
     60.6700	 1219.00	 1160.79	-1656.04	  376.67
     60.7700	  999.00	 1018.03	-1733.28	  376.77
     60.8700	  876.00	  893.98	-1732.23	  376.87
     60.9700	  776.00	  796.70	-1734.95	  376.98
     61.0700	  739.00	  728.15	-1703.40	  377.08
     61.1700	  673.00	  686.62	-1727.87	  377.19
     61.2700	  690.00	  669.37	-1693.62	  377.29
     61.3700	  657.00	  674.64	-1731.89	  377.40
     61.4700	  706.00	  702.60	-1710.85	  377.50
     61.5700	  734.00	  754.97	-1735.22	  377.61
     61.6700	  821.00	  833.50	-1726.75	  377.72
     61.7700	  910.00	  937.69	-1741.94	  377.83
     61.8700	 1036.00	 1062.41	-1740.66	  377.93
     61.9700	 1131.00	 1196.08	-1779.33	  378.04
     62.0700	 1210.00	 1319.23	-1823.48	  378.15
     62.1700	 1267.00	 1405.88	-1853.13	  378.26
     62.2700	 1336.00	 1431.28	-1809.53	  378.37
     62.3700	 1316.00	 1386.45	-1784.70	  378.48
     62.4700	 1239.00	 1285.23	-1760.48	  378.59
     62.5700	 1110.00	 1153.95	-1758.20	  378.71
     62.6700	  977.00	 1017.32	-1754.57	  378.82
     62.7700	  852.00	  892.67	-1754.92	  378.93
     62.8700	  780.00	  789.45	-1723.70	  379.04
     62.9700	  645.00	  710.70	-1779.95	  379.15
     63.0700	  653.00	  654.83	-1716.08	  379.27
     63.1700	  627.00	  617.68	-1704.93	  379.38
     63.2700	  590.00	  594.46	-1718.71	  379.49
     63.3700	  585.00	  580.92	-1710.17	  379.61
     63.4700	  570.00	  574.09	-1718.34	  379.72
     63.5700	  624.00	  572.35	-1662.60	  379.84
     63.6700	  568.00	  575.37	-1721.62	  379.95
     63.7700	  600.00	  583.77	-1698.02	  380.07
     63.8700	  583.00	  598.96	-1730.21	  380.18
     63.9700	  624.00	  622.67	-1712.92	  380.30
     64.0700	  695.00	  656.36	-1675.61	  380.42
     64.1700	  764.00	  700.61	-1650.86	  380.53
     64.2700	  767.00	  754.19	-1701.44	  380.65
     64.3700	  842.00	  813.59	-1685.84	  380.76
     64.4700	  914.00	  872.43	-1672.68	  380.88
     64.5700	  955.00	  921.64	-1680.89	  381.00
     64.6700	 1003.00	  951.88	-1663.13	  381.12
     64.7700	 1011.00	  956.88	-1660.13	  381.23
     64.8700	 1004.00	  937.95	-1648.20	  381.35
     64.9700	  908.00	  900.06	-1706.31	  381.47
     65.0700	  906.00	  851.28	-1659.53	  381.59
     65.1700	  788.00	  799.73	-1725.98	  381.70
     65.2700	  716.00	  751.36	-1749.61	  381.82
     65.3700	  688.00	  709.14	-1735.39	  381.94
     65.4700	  672.00	  673.68	-1715.93	  382.06
     65.5700	  681.00	  644.48	-1677.73	  382.17
     65.6700	  598.00	  620.92	-1737.17	  382.29
     65.7700	  607.00	  602.55	-1709.80	  382.41
     65.8700	  644.00	  588.54	-1658.79	  382.53
     65.9700	  572.00	  578.35	-1720.60	  382.65
     66.0700	  562.00	  571.41	-1723.66	  382.77
     66.1700	  532.00	  567.20	-1749.45	  382.88
     66.2700	  565.00	  565.31	-1714.56	  383.00
     66.3700	  544.00	  565.39	-1735.64	  383.12
     66.4700	  527.00	  567.23	-1754.48	  383.24
     66.5700	  522.00	  570.79	-1763.04	  383.36
     66.6700	  553.00	  576.33	-1737.58	  383.47
     66.7700	  548.00	  584.54	-1750.79	  383.59
     66.8700	  612.00	  596.90	-1699.15	  383.71
     66.9700	  567.00	  615.59	-1762.84	  383.83
     67.0700	  612.00	  644.50	-1746.75	  383.94
     67.1700	  706.00	  689.07	-1697.32	  384.06
     67.2700	  740.00	  756.42	-1730.67	  384.18
     67.3700	  847.00	  854.18	-1721.43	  384.30
     67.4700	  998.00	  989.69	-1705.94	  384.41
     67.5700	 1161.00	 1167.24	-1720.49	  384.53
     67.6700	 1408.00	 1385.42	-1691.67	  384.65
     67.7700	 1624.00	 1634.51	-1724.76	  384.76
     67.8700	 1911.00	 1894.77	-1698.02	  384.88
     67.9700	 2096.00	 2134.97	-1753.22	  385.00
     68.0700	 2382.00	 2314.95	-1647.20	  385.11
     68.1700	 2426.00	 2394.53	-1682.78	  385.23
     68.2700	 2400.00	 2352.54	-1666.79	  385.34
     68.3700	 2165.00	 2200.44	-1749.69	  385.46
     68.4700	 1939.00	 1974.74	-1749.99	  385.57
     68.5700	 1718.00	 1717.24	-1713.49	  385.69
     68.6700	 1480.00	 1462.36	-1696.61	  385.80
     68.7700	 1251.00	 1233.30	-1696.55	  385.92
     68.8700	  992.00	 1043.00	-1765.25	  386.03
     68.9700	  865.00	  895.08	-1744.33	  386.14
     69.0700	  802.00	  786.69	-1698.94	  386.26
     69.1700	  726.00	  711.27	-1699.52	  386.37
     69.2700	  676.00	  660.94	-1699.19	  386.48
     69.3700	  642.00	  628.30	-1700.55	  386.59
     69.4700	  571.00	  607.36	-1750.61	  386.71
     69.5700	  554.00	  593.84	-1754.09	  386.82
     69.6700	  582.00	  584.90	-1717.15	  386.93
     69.7700	  575.00	  578.82	-1718.07	  387.04
     69.8700	  566.00	  574.62	-1722.87	  387.15
     69.9700	  551.00	  571.78	-1735.03	  387.26
     70.0700	  561.00	  570.01	-1723.26	  387.37
     70.1700	  606.00	  569.12	-1677.37	  387.48
     70.2700	  569.00	  569.13	-1714.38	  387.59
     70.3700	  598.00	  570.11	-1686.36	  387.69
     70.4700	  592.00	  572.25	-1694.50	  387.80
     70.5700	  557.00	  575.94	-1733.19	  387.91
     70.6700	  546.00	  581.91	-1750.16	  388.02
     70.7700	  622.00	  591.35	-1683.60	  388.12
     70.8700	  575.00	  606.19	-1745.44	  388.23
     70.9700	  573.00	  629.25	-1770.50	  388.33
     71.0700	  616.00	  664.32	-1762.57	  388.44
     71.1700	  710.00	  716.87	-1721.12	  388.54
     71.2700	  791.00	  790.12	-1713.37	  388.64
     71.3700	  842.00	  889.15	-1761.40	  388.75
     71.4700	 1003.00	 1016.15	-1727.40	  388.85
     71.5700	 1179.00	 1169.77	-1705.02	  388.95
     71.6700	 1357.00	 1343.71	-1700.96	  389.05
     71.7700	 1549.00	 1525.84	-1691.09	  389.15
     71.8700	 1630.00	 1697.66	-1781.91	  389.25
     71.9700	 1822.00	 1835.06	-1727.31	  389.35
     72.0700	 1823.00	 1912.57	-1803.82	  389.45
     72.1700	 1865.00	 1912.70	-1761.95	  389.55
     72.2700	 1861.00	 1835.47	-1688.72	  389.65
     72.3700	 1702.00	 1698.34	-1710.59	  389.74
     72.4700	 1518.00	 1526.80	-1723.05	  389.84
     72.5700	 1383.00	 1344.89	-1676.14	  389.93
     72.6700	 1210.00	 1171.06	-1675.31	  390.03
     72.7700	 1053.00	 1017.31	-1678.56	  390.12
     72.8700	  905.00	  889.79	-1699.04	  390.22
     72.9700	  871.00	  789.81	-1633.06	  390.31
     73.0700	  734.00	  715.20	-1695.45	  390.40
     73.1700	  736.00	  661.37	-1639.62	  390.49
     73.2700	  667.00	  624.44	-1671.69	  390.58
     73.3700	  616.00	  599.41	-1697.66	  390.67
     73.4700	  644.00	  582.56	-1652.81	  390.76
     73.5700	  626.00	  571.12	-1659.37	  390.85
     73.6700	  592.00	  563.20	-1685.45	  390.93
     73.7700	  575.00	  557.58	-1696.83	  391.02
     73.8700	  609.00	  553.51	-1658.76	  391.11
     73.9700	  560.00	  550.56	-1704.81	  391.19
     74.0700	  502.00	  548.45	-1760.70	  391.27
     74.1700	  625.00	  547.00	-1636.25	  391.36
     74.2700	  595.00	  546.04	-1665.29	  391.44
     74.3700	  561.00	  545.43	-1698.68	  391.52
     74.4700	  657.00	  545.00	-1602.25	  391.60
     74.5700	  636.00	  544.56	-1622.81	  391.68
     74.6700	  602.00	  543.96	-1656.21	  391.76
     74.7700	  573.00	  543.10	-1684.35	  391.84
     74.8700	  611.00	  541.98	-1645.23	  391.91
     74.9700	  620.00	  540.75	-1635.00	  391.99
     75.0700	  591.00	  539.60	-1662.85	  392.07
     75.1700	  596.00	  538.78	-1657.03	  392.14
     75.2700	  577.00	  538.57	-1675.82	  392.21
     75.3700	  604.00	  539.28	-1649.53	  392.29
     75.4700	  560.00	  541.23	-1695.48	  392.36
     75.5700	  583.00	  544.98	-1676.23	  392.43
     75.6700	  583.00	  550.96	-1682.21	  392.50
     75.7700	  559.00	  559.64	-1714.89	  392.56
     75.8700	  602.00	  571.36	-1683.61	  392.63
     75.9700	  597.00	  586.18	-1703.43	  392.70
     76.0700	  621.00	  604.05	-1697.30	  392.76
     76.1700	  636.00	  624.18	-1702.43	  392.83
     76.2700	  672.00	  645.34	-1687.59	  392.89
     76.3700	  652.00	  665.67	-1727.92	  392.95
     76.4700	  699.00	  682.78	-1698.03	  393.02
     76.5700	  680.00	  694.15	-1728.40	  393.08
     76.6700	  682.00	  697.60	-1729.85	  393.14
     76.7700	  717.00	  692.37	-1689.62	  393.19
     76.8700	  655.00	  679.49	-1738.74	  393.25
     76.9700	  664.00	  661.25	-1711.50	  393.31
     77.0700	  619.00	  640.23	-1735.48	  393.36
     77.1700	  653.00	  618.71	-1679.96	  393.42
     77.2700	  605.00	  598.42	-1707.67	  393.47
     77.3700	  596.00	  580.49	-1698.74	  393.52
     77.4700	  535.00	  565.31	-1744.56	  393.57
     77.5700	  551.00	  553.41	-1716.66	  393.62
     77.6700	  541.00	  544.37	-1717.62	  393.67
     77.7700	  509.00	  537.78	-1743.03	  393.72
     77.8700	  508.00	  533.14	-1739.39	  393.76
     77.9700	  536.00	  529.96	-1708.21	  393.81
     78.0700	  480.00	  527.82	-1762.07	  393.85
     78.1700	  479.00	  526.39	-1761.64	  393.89
     78.2700	  511.00	  525.43	-1728.68	  393.93
     78.3700	  477.00	  524.79	-1762.04	  393.97
     78.4700	  504.00	  524.36	-1734.61	  394.01
     78.5700	  470.00	  524.10	-1768.35	  394.05
     78.6700	  523.00	  523.97	-1715.22	  394.09
     78.7700	  546.00	  523.96	-1692.21	  394.12
     78.8700	  513.00	  524.09	-1725.34	  394.16
     78.9700	  494.00	  524.37	-1744.62	  394.19
     79.0700	  517.00	  524.83	-1722.08	  394.22
     79.1700	  545.00	  525.50	-1694.75	  394.25
     79.2700	  498.00	  526.44	-1742.69	  394.28
     79.3700	  486.00	  527.67	-1755.92	  394.31
     79.4700	  517.00	  529.26	-1726.51	  394.34
     79.5700	  524.00	  531.24	-1721.49	  394.36
     79.6700	  526.00	  533.68	-1721.93	  394.39
     79.7700	  564.00	  536.66	-1686.91	  394.41
     79.8700	  501.00	  540.27	-1753.52	  394.43
     79.9700	  525.00	  544.43	-1733.68	  394.45
     80.0700	  558.00	  549.69	-1705.94	  394.47
     80.1700	  523.00	  556.06	-1747.31	  394.49
     80.2700	  554.00	  563.81	-1724.06	  394.51
     80.3700	  541.00	  573.23	-1746.48	  394.52
     80.4700	  576.00	  584.54	-1722.79	  394.54
     80.5700	  565.00	  597.84	-1747.09	  394.55
     80.6700	  593.00	  612.95	-1734.20	  394.56
     80.7700	  605.00	  629.42	-1738.67	  394.57
     80.8700	  607.00	  646.46	-1753.71	  394.58
     80.9700	  679.00	  663.00	-1698.25	  394.59
     81.0700	  645.00	  677.88	-1747.13	  394.59
     81.1700	  692.00	  690.05	-1712.30	  394.60
     81.2700	  769.00	  698.78	-1644.03	  394.60
     81.3700	  713.00	  703.60	-1704.85	  394.60
     81.4700	  745.00	  704.31	-1673.56	  394.60
     81.5700	  735.00	  700.96	-1680.21	  394.60
     81.6700	  743.00	  693.82	-1665.07	  394.60
     81.7700	  726.00	  683.30	-1671.55	  394.60
     81.8700	  705.00	  669.99	-1679.24	  394.59
     81.9700	  730.00	  654.72	-1638.97	  394.58
     82.0700	  694.00	  638.52	-1658.77	  394.58
     82.1700	  648.00	  622.37	-1688.62	  394.57
     82.2700	  650.00	  607.03	-1671.28	  394.56
     82.3700	  608.00	  593.00	-1699.25	  394.54
     82.4700	  589.00	  580.57	-1705.82	  394.53
     82.5700	  555.00	  569.87	-1729.12	  394.52
     82.6700	  576.00	  560.98	-1699.23	  394.50
     82.7700	  572.00	  553.91	-1696.16	  394.48
     82.8700	  530.00	  548.63	-1732.88	  394.46
     82.9700	  537.00	  545.00	-1722.25	  394.44
     83.0700	  532.00	  543.07	-1725.32	  394.42
     83.1700	  536.00	  542.68	-1720.93	  394.40
     83.2700	  509.00	  543.72	-1748.97	  394.37
     83.3700	  532.00	  546.00	-1728.25	  394.35
     83.4700	  526.00	  549.39	-1737.64	  394.32
     83.5700	  521.00	  553.59	-1746.84	  394.29
     83.6700	  567.00	  558.27	-1705.52	  394.26
     83.7700	  544.00	  562.99	-1733.24	  394.23
     83.8700	  532.00	  567.25	-1749.50	  394.19
     83.9700	  566.00	  570.49	-1718.74	  394.16
     84.0700	  538.00	  572.21	-1748.46	  394.12
     84.1700	  554.00	  572.07	-1732.32	  394.08
     84.2700	  564.00	  570.05	-1720.30	  394.05
     84.3700	  602.00	  566.41	-1678.66	  394.00
     84.4700	  515.00	  561.62	-1760.87	  393.96
     84.5700	  549.00	  556.20	-1721.45	  393.92
     84.6700	  531.00	  550.59	-1733.84	  393.87
     84.7700	  585.00	  545.17	-1674.42	  393.83
     84.8700	  512.00	  540.23	-1742.48	  393.78
     84.9700	  514.00	  535.91	-1736.16	  393.73
     85.0700	  503.00	  532.32	-1743.57	  393.68
     85.1700	  481.00	  529.44	-1762.69	  393.62
     85.2700	  508.00	  527.25	-1733.50	  393.57
     85.3700	  490.00	  525.65	-1749.90	  393.52
     85.4700	  525.00	  524.57	-1713.82	  393.46
     85.5700	  537.00	  523.93	-1701.18	  393.40
     85.6700	  508.00	  523.66	-1729.91	  393.34
     85.7700	  521.00	  523.73	-1716.98	  393.28
     85.8700	  564.00	  524.16	-1674.41	  393.21
     85.9700	  517.00	  525.00	-1722.25	  393.15
     86.0700	  498.00	  526.33	-1742.58	  393.08
     86.1700	  513.00	  528.30	-1729.55	  393.02
     86.2700	  531.00	  531.05	-1714.30	  392.95
     86.3700	  496.00	  534.76	-1753.01	  392.88
     86.4700	  544.00	  539.63	-1709.88	  392.80
     86.5700	  519.00	  545.78	-1741.03	  392.73
     86.6700	  542.00	  553.30	-1725.55	  392.65
     86.7700	  578.00	  562.17	-1698.42	  392.58
     86.8700	  582.00	  572.24	-1704.49	  392.50
     86.9700	  570.00	  583.18	-1727.43	  392.42
     87.0700	  616.00	  594.51	-1692.76	  392.34
     87.1700	  598.00	  605.58	-1721.83	  392.26
     87.2700	  600.00	  615.57	-1729.82	  392.17
     87.3700	  646.00	  623.55	-1691.80	  392.09
     87.4700	  635.00	  628.64	-1707.89	  392.00
     87.5700	  599.00	  630.22	-1745.47	  391.91
     87.6700	  622.00	  627.75	-1720.00	  391.82
     87.7700	  648.00	  622.34	-1688.59	  391.73
     87.8700	  673.00	  614.39	-1655.64	  391.63
     87.9700	  628.00	  604.89	-1691.14	  391.54
     88.0700	  614.00	  594.79	-1695.04	  391.44
     88.1700	  629.00	  584.94	-1670.19	  391.35
     88.2700	  599.00	  576.06	-1691.31	  391.25
     88.3700	  570.00	  568.67	-1712.92	  391.15
     88.4700	  630.00	  563.11	-1647.36	  391.04
     88.5700	  552.00	  559.57	-1721.82	  390.94
     88.6700	  588.00	  558.03	-1684.28	  390.83
     88.7700	  584.00	  558.35	-1688.60	  390.73
     88.8700	  577.00	  560.27	-1697.52	  390.62
     88.9700	  593.00	  563.38	-1684.63	  390.51
     89.0700	  596.00	  567.25	-1685.50	  390.40
     89.1700	  598.00	  571.35	-1687.60	  390.29
     89.2700	  539.00	  575.12	-1750.37	  390.17
     89.3700	  600.00	  578.00	-1692.25	  390.06
     89.4700	  604.00	  579.51	-1689.76	  389.94
     89.5700	  585.00	  579.34	-1708.59	  389.82
     89.6700	  594.00	  577.45	-1697.70	  389.70
     89.7700	  544.00	  574.01	-1744.26	  389.58
     89.8700	  556.00	  569.41	-1727.66	  389.46
     89.9700	  552.00	  564.07	-1726.32	  389.33
     90.0700	  541.00	  558.41	-1731.66	  389.20
     90.1700	  538.00	  552.79	-1729.04	  389.08
     90.2700	  551.00	  547.49	-1710.74	  388.95
     90.3700	  498.00	  542.71	-1758.96	  388.82
     90.4700	  556.00	  538.59	-1696.84	  388.69
     90.5700	  501.00	  535.18	-1748.43	  388.55
     90.6700	  507.00	  532.48	-1739.73	  388.42
     90.7700	  516.00	  530.46	-1728.71	  388.28
     90.8700	  560.00	  529.06	-1683.31	  388.15
     90.9700	  501.00	  528.20	-1741.45	  388.01
     91.0700	  551.00	  527.84	-1691.09	  387.87
     91.1700	  525.00	  527.93	-1717.18	  387.72
     91.2700	  465.00	  528.46	-1777.71	  387.58
     91.3700	  483.00	  529.45	-1760.70	  387.44
     91.4700	  514.00	  530.98	-1731.23	  387.29
     91.5700	  525.00	  533.15	-1722.40	  387.14
     91.6700	  539.00	  536.11	-1711.36	  386.99
     91.7700	  535.00	  540.03	-1719.28	  386.84
     91.8700	  495.00	  545.14	-1764.39	  386.69
     91.9700	  521.00	  551.65	-1744.90	  386.54
     92.0700	  541.00	  559.78	-1733.03	  386.39
     92.1700	  586.00	  569.70	-1697.95	  386.23
     92.2700	  562.00	  581.55	-1733.80	  386.07
     92.3700	  621.00	  595.35	-1688.60	  385.91
     92.4700	  618.00	  611.04	-1707.29	  385.75
     92.5700	  591.00	  628.38	-1751.63	  385.59
     92.6700	  612.00	  647.04	-1749.29	  385.43
     92.7700	  667.00	  666.48	-1713.73	  385.27
     92.8700	  654.00	  685.77	-1746.02	  385.10
     92.9700	  680.00	  704.64	-1738.89	  384.94
     93.0700	  744.00	  722.02	-1692.27	  384.77
     93.1700	  734.00	  737.19	-1717.44	  384.60
     93.2700	  756.00	  749.77	-1708.02	  384.43
     93.3700	  778.00	  759.81	-1696.06	  384.26
     93.4700	  719.00	  767.72	-1762.97	  384.08
     93.5700	  789.00	  774.13	-1699.38	  383.91
     93.6700	  834.00	  779.68	-1659.93	  383.74
     93.7700	  793.00	  784.96	-1706.21	  383.56
     93.8700	  794.00	  790.45	-1710.70	  383.38
     93.9700	  852.00	  796.65	-1658.90	  383.20
     94.0700	  841.00	  804.06	-1677.31	  383.02
     94.1700	  835.00	  813.12	-1692.37	  382.84
     94.2700	  816.00	  824.09	-1722.34	  382.66
     94.3700	  838.00	  836.90	-1713.15	  382.47
     94.4700	  907.00	  851.04	-1658.29	  382.29
     94.5700	  873.00	  865.55	-1706.80	  382.10
     94.6700	  880.00	  879.08	-1713.33	  381.91
     94.7700	  891.00	  889.95	-1713.20	  381.73
     94.8700	  927.00	  896.43	-1683.68	  381.54
     94.9700	  920.00	  897.04	-1691.29	  381.34
     95.0700	  906.00	  890.90	-1699.15	  381.15
     95.1700	  909.00	  878.03	-1683.28	  380.96
     95.2700	  902.00	  859.34	-1671.59	  380.76
     95.3700	  836.00	  836.35	-1714.60	  380.57
     95.4700	  819.00	  810.91	-1706.16	  380.37
     95.5700	  805.00	  784.93	-1694.18	  380.17
     95.6700	  746.00	  760.25	-1728.50	  379.98
     95.7700	  732.00	  738.58	-1720.83	  379.78
     95.8700	  725.00	  721.45	-1710.70	  379.57
     95.9700	  703.00	  710.23	-1721.48	  379.37
     96.0700	  715.00	  706.14	-1705.39	  379.17
     96.1700	  699.00	  710.21	-1725.46	  378.97
     96.2700	  690.00	  723.27	-1747.52	  378.76
     96.3700	  723.00	  745.95	-1737.20	  378.55
     96.4700	  780.00	  778.59	-1712.84	  378.35
     96.5700	  752.00	  821.22	-1783.47	  378.14
     96.6700	  860.00	  873.47	-1727.72	  377.93
     96.7700	  927.00	  934.43	-1721.69	  377.72
     96.8700	 1008.00	 1002.69	-1708.94	  377.51
     96.9700	 1087.00	 1076.15	-1703.40	  377.30
     97.0700	 1114.00	 1152.14	-1752.39	  377.08
     97.1700	 1228.00	 1227.33	-1713.58	  376.87
     97.2700	 1235.00	 1297.81	-1777.06	  376.66
     97.3700	 1305.00	 1359.27	-1768.52	  376.44
     97.4700	 1399.00	 1407.36	-1722.61	  376.22
     97.5700	 1468.00	 1438.30	-1684.55	  376.01
     97.6700	 1430.00	 1449.57	-1733.82	  375.79
     97.7700	 1353.00	 1440.53	-1801.78	  375.57
     97.8700	 1402.00	 1412.54	-1724.79	  375.35
     97.9700	 1345.00	 1368.53	-1737.78	  375.13
     98.0700	 1300.00	 1312.39	-1726.64	  374.91
     98.1700	 1230.00	 1248.25	-1732.50	  374.69
     98.2700	 1204.00	 1180.20	-1690.45	  374.46
     98.3700	 1113.00	 1111.94	-1713.19	  374.24
     98.4700	 1037.00	 1046.76	-1724.01	  374.01
     98.5700	  986.00	  987.40	-1715.65	  373.79
     98.6700	  927.00	  936.14	-1723.39	  373.56
     98.7700	  874.00	  894.80	-1735.05	  373.34
     98.8700	  819.00	  864.81	-1760.06	  373.11
     98.9700	  860.00	  847.21	-1701.46	  372.88
     99.0700	  826.00	  842.70	-1730.95	  372.65
     99.1700	  876.00	  851.81	-1690.06	  372.42
     99.2700	  859.00	  874.75	-1730.00	  372.19
     99.3700	  940.00	  911.52	-1685.77	  371.96
     99.4700	 1005.00	  961.88	-1671.13	  371.73
     99.5700	 1013.00	 1025.28	-1726.53	  371.50
     99.6700	 1071.00	 1100.81	-1744.06	  371.27
     99.7700	 1179.00	 1187.14	-1722.39	  371.04
     99.8700	 1237.00	 1282.36	-1759.61	  370.80
     99.9700	 1447.00	 1383.98	-1651.23	  370.57
    100.0700	 1562.00	 1488.83	-1641.08	  370.34
    100.1700	 1568.00	 1593.19	-1739.44	  370.10
    100.2700	 1625.00	 1692.95	-1782.20	  369.87
    100.3700	 1775.00	 1783.87	-1723.12	  369.63
    100.4700	 1798.00	 1862.15	-1778.40	  369.40
    100.5700	 1989.00	 1924.76	-1650.01	  369.16
    100.6700	 2027.00	 1969.60	-1656.85	  368.92
    100.7700	 2027.00	 1995.30	-1682.55	  368.69
    100.8700	 2026.00	 2001.09	-1689.34	  368.45
    100.9700	 2015.00	 1986.73	-1685.98	  368.21
    101.0700	 1937.00	 1952.77	-1730.02	  367.97
    101.1700	 1902.00	 1900.89	-1713.14	  367.73
    101.2700	 1809.00	 1834.05	-1739.30	  367.50
    101.3700	 1780.00	 1756.36	-1690.61	  367.26
    101.4700	 1726.00	 1672.52	-1660.77	  367.02
    101.5700	 1575.00	 1587.21	-1726.46	  366.78
    101.6700	 1533.00	 1504.57	-1685.82	  366.54
    101.7700	 1457.00	 1427.94	-1685.19	  366.30
    101.8700	 1467.00	 1359.73	-1606.98	  366.06
    101.9700	 1269.00	 1301.34	-1746.59	  365.82
    102.0700	 1273.00	 1253.22	-1694.47	  365.58
    102.1700	 1216.00	 1214.92	-1713.17	  365.34
    102.2700	 1128.00	 1185.19	-1771.44	  365.10
    102.3700	 1182.00	 1162.16	-1694.41	  364.86
    102.4700	 1155.00	 1143.45	-1702.70	  364.62
    102.5700	 1100.00	 1126.47	-1740.72	  364.38
    102.6700	 1067.00	 1108.70	-1755.95	  364.14
    102.7700	 1092.00	 1088.03	-1710.28	  363.90
    102.8700	 1030.00	 1063.10	-1747.35	  363.66
    102.9700	 1051.00	 1033.38	-1696.63	  363.42
    103.0700	 1059.00	  999.14	-1654.39	  363.18
    103.1700	  940.00	  961.22	-1735.47	  362.94
    103.2700	  891.00	  920.76	-1744.01	  362.70
    103.3700	  872.00	  879.03	-1721.28	  362.46
    103.4700	  816.00	  837.28	-1735.53	  362.22
    103.5700	  791.00	  796.61	-1719.86	  361.98
    103.6700	  746.00	  758.00	-1726.25	  361.74
    103.7700	  678.00	  722.18	-1758.43	  361.50
    103.8700	  709.00	  689.69	-1694.94	  361.27
    103.9700	  609.00	  660.86	-1766.11	  361.03
    104.0700	  671.00	  635.82	-1679.07	  360.79
    104.1700	  623.00	  614.53	-1705.78	  360.55
    104.2700	  601.00	  596.80	-1710.05	  360.32
    104.3700	  572.00	  582.35	-1724.60	  360.08
    104.4700	  560.00	  570.84	-1725.09	  359.84
    104.5700	  547.00	  561.89	-1729.14	  359.61
    104.6700	  532.00	  555.13	-1737.38	  359.37
    104.7700	  567.00	  550.19	-1697.44	  359.14
    104.8700	  556.00	  546.75	-1705.00	  358.90
    104.9700	  570.00	  544.54	-1688.79	  358.67
    105.0700	  558.00	  543.33	-1699.58	  358.44
    105.1700	  565.00	  542.93	-1692.18	  358.20
    105.2700	  552.00	  543.19	-1705.44	  357.97
    105.3700	  527.00	  544.03	-1731.28	  357.74
    105.4700	  569.00	  545.40	-1690.65	  357.51
    105.5700	  545.00	  547.28	-1716.53	  357.28
    105.6700	  562.00	  549.66	-1701.91	  357.05
    105.7700	  529.00	  552.62	-1737.87	  356.82
    105.8700	  551.00	  556.23	-1719.48	  356.60
    105.9700	  581.00	  560.56	-1693.81	  356.37
    106.0700	  568.00	  565.69	-1711.94	  356.14
    106.1700	  560.00	  571.67	-1725.92	  355.92
    106.2700	  570.00	  578.54	-1722.79	  355.69
    106.3700	  557.00	  586.26	-1743.51	  355.47
    106.4700	  623.00	  594.75	-1686.00	  355.25
    106.5700	  603.00	  603.89	-1715.14	  355.03
    106.6700	  626.00	  613.48	-1701.73	  354.81
    106.7700	  625.00	  623.29	-1712.54	  354.59
    106.8700	  639.00	  633.03	-1708.28	  354.37
    106.9700	  657.00	  642.38	-1699.63	  354.15
    107.0700	  642.00	  650.99	-1723.24	  353.94
    107.1700	  614.00	  658.53	-1758.78	  353.72
    107.2700	  667.00	  664.74	-1711.99	  353.51
    107.3700	  703.00	  669.43	-1680.68	  353.30
    107.4700	  662.00	  672.57	-1724.82	  353.09
    107.5700	  639.00	  674.28	-1749.53	  352.88
    107.6700	  709.00	  674.82	-1680.07	  352.67
    107.7700	  713.00	  674.55	-1675.80	  352.46
    107.8700	  718.00	  673.85	-1670.10	  352.25
    107.9700	  688.00	  673.10	-1699.35	  352.05
    108.0700	  714.00	  672.60	-1672.85	  351.85
    108.1700	  644.00	  672.58	-1742.83	  351.65
    108.2700	  686.00	  673.16	-1701.41	  351.45
    108.3700	  616.00	  674.36	-1772.61	  351.25
    108.4700	  676.00	  676.09	-1714.34	  351.05
    108.5700	  728.00	  678.16	-1664.41	  350.85
    108.6700	  661.00	  680.27	-1733.52	  350.66
    108.7700	  672.00	  682.08	-1724.33	  350.47
    108.8700	  711.00	  683.17	-1686.42	  350.28
    108.9700	  713.00	  683.15	-1684.40	  350.09
    109.0700	  706.00	  681.68	-1689.93	  349.90
    109.1700	  660.00	  678.53	-1732.78	  349.72
    109.2700	  663.00	  673.61	-1724.86	  349.53
    109.3700	  680.00	  666.98	-1701.23	  349.35
    109.4700	  667.00	  658.86	-1706.11	  349.17
    109.5700	  664.00	  649.51	-1699.76	  349.00
    109.6700	  638.00	  639.31	-1715.56	  348.82
    109.7700	  670.00	  628.58	-1672.83	  348.65
    109.8700	  648.00	  617.66	-1683.91	  348.47
    109.9700	  630.00	  606.87	-1691.12	  348.30
    110.0700	  567.00	  596.47	-1743.72	  348.14
    110.1700	  569.00	  586.68	-1731.93	  347.97
    110.2700	  613.00	  577.68	-1678.93	  347.81
    110.3700	  561.00	  569.60	-1722.85	  347.65
    110.4700	  589.00	  562.52	-1687.77	  347.49
    110.5700	  557.00	  556.48	-1713.73	  347.33
    110.6700	  552.00	  551.46	-1713.71	  347.18
    110.7700	  562.00	  547.44	-1699.69	  347.03
    110.8700	  521.00	  544.36	-1737.61	  346.88
    110.9700	  558.00	  542.15	-1698.40	  346.73
    111.0700	  518.00	  540.71	-1736.96	  346.58
    111.1700	  545.00	  539.97	-1709.22	  346.44
    111.2700	  534.00	  539.82	-1720.07	  346.30
    111.3700	  549.00	  540.20	-1705.45	  346.17
    111.4700	  535.00	  541.01	-1720.26	  346.03
    111.5700	  516.00	  542.20	-1740.45	  345.90
    111.6700	  546.00	  543.71	-1711.96	  345.77
    111.7700	  588.00	  545.48	-1671.73	  345.64
    111.8700	  523.00	  547.49	-1738.74	  345.52
    111.9700	  541.00	  549.71	-1722.96	  345.40
    112.0700	  528.00	  552.13	-1738.38	  345.28
    112.1700	  575.00	  554.74	-1693.99	  345.17
    112.2700	  489.00	  557.55	-1782.80	  345.05
    112.3700	  577.00	  560.58	-1697.83	  344.94
    112.4700	  618.00	  563.86	-1660.11	  344.84
    112.5700	  571.00	  567.43	-1710.68	  344.74
    112.6700	  545.00	  571.34	-1740.59	  344.64
    112.7700	  559.00	  575.66	-1730.91	  344.54
    112.8700	  556.00	  580.47	-1738.72	  344.44
    112.9700	  569.00	  585.87	-1731.12	  344.35
    113.0700	  575.00	  592.00	-1731.25	  344.27
    113.1700	  667.00	  599.04	-1646.29	  344.18
    113.2700	  641.00	  607.21	-1680.46	  344.10
    113.3700	  667.00	  616.80	-1664.05	  344.02
    113.4700	  640.00	  628.16	-1702.41	  343.95
    113.5700	  680.00	  641.76	-1676.01	  343.88
    113.6700	  702.00	  658.19	-1670.44	  343.81
    113.7700	  662.00	  678.14	-1730.39	  343.75
    113.8700	  681.00	  702.51	-1735.76	  343.69
    113.9700	  748.00	  732.32	-1698.57	  343.63
    114.0700	  802.00	  768.84	-1681.09	  343.58
    114.1700	  843.00	  813.51	-1684.76	  343.53
    114.2700	  897.00	  867.98	-1685.23	  343.49
    114.3700	  991.00	  934.09	-1657.34	  343.45
    114.4700	 1036.00	 1013.89	-1692.14	  343.41
    114.5700	 1176.00	 1109.52	-1647.77	  343.37
    114.6700	 1294.00	 1223.25	-1643.50	  343.35
    114.7700	 1507.00	 1357.28	-1564.53	  343.32
    114.8700	 1565.00	 1513.73	-1662.98	  343.30
    114.9700	 1758.00	 1694.46	-1650.71	  343.28
    115.0700	 1927.00	 1901.02	-1688.27	  343.27
    115.1700	 2282.00	 2134.47	-1566.72	  343.26
    115.2700	 2416.00	 2395.12	-1693.37	  343.25
    115.3700	 2704.00	 2682.56	-1692.81	  343.25
    115.4700	 3083.00	 2995.37	-1626.62	  343.26
    115.5700	 3301.00	 3331.18	-1744.43	  343.26
    115.6700	 3746.00	 3686.56	-1654.81	  343.28
    115.7700	 4057.00	 4056.76	-1714.01	  343.29
    115.8700	 4375.00	 4435.95	-1775.20	  343.32
    115.9700	 4674.00	 4817.05	-1857.30	  343.34
    116.0700	 5079.00	 5192.01	-1827.26	  343.37
    116.1700	 5483.00	 5551.80	-1783.05	  343.41
    116.2700	 5803.00	 5886.48	-1797.73	  343.45
    116.3700	 6068.00	 6185.67	-1831.92	  343.49
    116.4700	 6351.00	 6438.97	-1802.22	  343.54
    116.5700	 6717.00	 6636.70	-1633.95	  343.59
    116.6700	 6746.00	 6770.65	-1738.90	  343.65
    116.7700	 6715.00	 6834.92	-1834.17	  343.72
    116.8700	 6857.00	 6826.72	-1683.97	  343.79
    116.9700	 6780.00	 6746.76	-1681.01	  343.86
    117.0700	 6585.00	 6599.09	-1728.34	  343.94
    117.1700	 6344.00	 6390.53	-1760.78	  344.03
    117.2700	 5979.00	 6129.96	-1865.21	  344.11
    117.3700	 5737.00	 5827.37	-1804.62	  344.21
    117.4700	 5439.00	 5493.17	-1768.42	  344.31
    117.5700	 5020.00	 5137.39	-1831.64	  344.42
    117.6700	 4635.00	 4769.44	-1848.69	  344.53
    117.7700	 4426.00	 4397.91	-1686.16	  344.64
    117.8700	 4097.00	 4030.32	-1647.57	  344.76
    117.9700	 3731.00	 3673.09	-1656.34	  344.89
    118.0700	 3462.00	 3331.35	-1583.60	  345.02
    118.1700	 3125.00	 3009.09	-1598.34	  345.16
    118.2700	 2821.00	 2709.31	-1602.56	  345.31
    118.3700	 2445.00	 2433.90	-1703.15	  345.46
    118.4700	 2227.00	 2183.88	-1671.13	  345.61
    118.5700	 2039.00	 1959.36	-1634.61	  345.78
    118.6700	 1777.00	 1759.81	-1697.06	  345.94
    118.7700	 1585.00	 1584.21	-1713.46	  346.12
    118.8700	 1478.00	 1431.08	-1667.33	  346.30
    118.9700	 1287.00	 1298.69	-1725.94	  346.48
    119.0700	 1162.00	 1185.05	-1737.30	  346.68
    119.1700	 1073.00	 1088.16	-1729.41	  346.87
    119.2700	  995.00	 1006.01	-1725.26	  347.08
    119.3700	  905.00	  936.68	-1745.93	  347.29
    119.4700	  861.00	  878.40	-1731.65	  347.51
    119.5700	  802.00	  829.50	-1741.75	  347.73
    119.6700	  724.00	  788.55	-1778.80	  347.96
    119.7700	  714.00	  754.26	-1754.51	  348.20
    119.8700	  729.00	  725.54	-1710.79	  348.44
    119.9700	  688.00	  701.48	-1727.73	  348.69
    120.0700	  662.00	  681.28	-1733.53	  348.95
    120.1700	  624.00	  664.31	-1754.56	  349.21
    120.2700	  622.00	  650.03	-1742.28	  349.48
    120.3700	  593.00	  638.02	-1759.27	  349.76
    120.4700	  594.00	  627.94	-1748.19	  350.05
    120.5700	  562.00	  619.49	-1771.74	  350.34
    120.6700	  549.00	  612.46	-1777.71	  350.64
    120.7700	  599.00	  606.66	-1721.91	  350.94
    120.8700	  553.00	  601.95	-1763.20	  351.25
    120.9700	  596.00	  598.23	-1716.48	  351.57
    121.0700	  581.00	  595.38	-1728.63	  351.90
    121.1700	  585.00	  593.35	-1722.60	  352.24
    121.2700	  587.00	  592.06	-1719.31	  352.58
    121.3700	  575.00	  591.45	-1730.70	  352.93
    121.4700	  532.00	  591.49	-1773.74	  353.29
    121.5700	  552.00	  592.10	-1754.35	  353.65
    121.6700	  566.00	  593.25	-1741.50	  354.02
    121.7700	  577.00	  594.88	-1732.13	  354.40
    121.8700	  595.00	  596.93	-1716.18	  354.79
    121.9700	  608.00	  599.33	-1705.58	  355.19
    122.0700	  613.00	  602.01	-1703.26	  355.59
    122.1700	  663.00	  604.91	-1656.16	  356.01
    122.2700	  687.00	  607.92	-1635.17	  356.43
    122.3700	  612.00	  610.96	-1713.21	  356.85
    122.4700	  636.00	  613.95	-1692.20	  357.29
    122.5700	  642.00	  616.77	-1689.02	  357.73
    122.6700	  625.00	  619.34	-1708.59	  358.19
    122.7700	  645.00	  621.56	-1690.81	  358.65
    122.8700	  614.00	  623.32	-1723.57	  359.12
    122.9700	  625.00	  624.62	-1713.87	  359.60
    123.0700	  643.00	  625.38	-1696.63	  360.09
    123.1700	  609.00	  625.58	-1730.83	  360.58
    123.2700	  593.00	  625.22	-1746.47	  361.09
    123.3700	  628.00	  624.32	-1710.57	  361.60
    123.4700	  677.00	  622.93	-1660.18	  362.12
    123.5700	  645.00	  621.09	-1690.34	  362.65
    123.6700	  642.00	  618.87	-1691.12	  363.19
    123.7700	  651.00	  616.33	-1679.58	  363.74
    123.8700	  656.00	  613.52	-1671.77	  364.30
    123.9700	  624.00	  610.55	-1700.80	  364.87
    124.0700	  608.00	  607.46	-1713.71	  365.44
    124.1700	  608.00	  604.32	-1710.57	  366.03
    124.2700	  640.00	  601.18	-1675.43	  366.63
    124.3700	  592.00	  598.09	-1720.34	  367.23
    124.4700	  601.00	  595.10	-1708.34	  367.84
    124.5700	  590.00	  592.24	-1716.49	  368.47
    124.6700	  596.00	  589.55	-1707.80	  369.10
    124.7700	  585.00	  587.05	-1716.30	  369.75
    124.8700	  543.00	  584.77	-1756.02	  370.40
    124.9700	  580.00	  485.48	-1619.73	  371.06
    125.0700	  596.00	  486.15	-1714.25	  371.74
    125.1700	  566.00	  486.84	-1714.25	  372.42
    125.2700	  593.00	  487.53	-1714.25	  373.11
    125.3700	  587.00	  488.23	-1714.25	  373.82
    125.4700	  606.00	  488.95	-1714.25	  374.53
    125.5700	  520.00	  489.67	-1714.25	  375.25
    125.6700	  567.00	  490.41	-1714.25	  375.99
    125.7700	  558.00	  491.15	-1714.25	  376.73
    125.8700	  542.00	  491.91	-1714.25	  377.49
    125.9700	  548.00	  492.67	-1714.25	  378.25
    126.0700	  523.00	  493.45	-1714.25	  379.03
    126.1700	  544.00	  494.24	-1714.25	  379.82
    126.2700	  558.00	  495.04	-1714.25	  380.62
    126.3700	  581.00	  495.84	-1714.25	  381.43
    126.4700	  565.00	  496.66	-1714.25	  382.25
    126.5700	  575.00	  497.50	-1714.25	  383.08
    126.6700	  635.00	  498.34	-1714.25	  383.92
    126.7700	  581.00	  499.19	-1714.25	  384.77
    126.8700	  577.00	  500.06	-1714.25	  385.64
    126.9700	  638.00	  500.93	-1714.25	  386.52
    127.0700	  624.00	  501.82	-1714.25	  387.40
    127.1700	  636.00	  502.72	-1714.25	  388.30
    127.2700	  608.00	  503.63	-1714.25	  389.21
    127.3700	  637.00	  504.56	-1714.25	  390.14
    127.4700	  634.00	  505.49	-1714.25	  391.07
    127.5700	  671.00	  506.44	-1714.25	  392.02
    127.6700	  648.00	  507.39	-1714.25	  392.98
    127.7700	  704.00	  508.36	-1714.25	  393.95
    127.8700	  733.00	  509.35	-1714.25	  394.93
    127.9700	  697.00	  510.34	-1714.25	  395.92
    128.0700	  762.00	  511.35	-1714.25	  396.93
    128.1700	  720.00	  512.37	-1714.25	  397.95
    128.2700	  789.00	  513.40	-1714.25	  398.98
    128.3700	  737.00	  514.44	-1714.25	  400.02
    128.4700	  755.00	  515.50	-1714.25	  401.08
    128.5700	    0.00	  516.57	-1714.25	  402.15
    128.6700	    0.00	  517.65	-1714.25	  403.23
     12.3140	        	        	        	        	       0	(  0  0  2)	  0  1
     24.9036	        	        	        	        	       0	(  0  0  4)	  0  1
     28.3557	        	        	        	        	       0	(  1  0  0)	  0  1
     29.0531	        	        	        	        	       0	(  1  0  1)	  0  1
     31.0599	        	        	        	        	       0	(  1  0  2)	  0  1
     34.1692	        	        	        	        	       0	(  1  0  3)	  0  1
     37.8097	        	        	        	        	       0	(  0  0  6)	  0  1
     38.1478	        	        	        	        	       0	(  1  0  4)	  0  1
     42.7999	        	        	        	        	       0	(  1  0  5)	  0  1
     47.9864	        	        	        	        	       0	(  1  0  6)	  0  1
     50.3122	        	        	        	        	       0	(  1  1  0)	  0  1
     51.2389	        	        	        	        	       0	(  0  0  8)	  0  1
     52.0359	        	        	        	        	       0	(  1  1  2)	  0  1
     53.6197	        	        	        	        	       0	(  1  0  7)	  0  1
     56.9859	        	        	        	        	       0	(  1  1  4)	  0  1
     58.8177	        	        	        	        	       0	(  2  0  0)	  0  1
     59.2094	        	        	        	        	       0	(  2  0  1)	  0  1
     59.6535	        	        	        	        	       0	(  1  0  8)	  0  1
     60.3754	        	        	        	        	       0	(  2  0  2)	  0  1
     62.2895	        	        	        	        	       0	(  2  0  3)	  0  1
     64.6846	        	        	        	        	       0	(  1  1  6)	  0  1
     64.9150	        	        	        	        	       0	(  2  0  4)	  0  1
     65.4768	        	        	        	        	       0	(  0  0 10)	  0  1
     66.0738	        	        	        	        	       0	(  1  0  9)	  0  1
     68.2111	        	        	        	        	       0	(  2  0  5)	  0  1
     72.1410	        	        	        	        	       0	(  2  0  6)	  0  1
     72.8944	        	        	        	        	       0	(  1  0 10)	  0  1
     74.7286	        	        	        	        	       0	(  1  1  8)	  0  1
     76.6781	        	        	        	        	       0	(  2  0  7)	  0  1
     80.1575	        	        	        	        	       0	(  1  0 11)	  0  1
     80.9684	        	        	        	        	       0	(  0  0 12)	  0  1
     81.0853	        	        	        	        	       0	(  2  1  0)	  0  1
     81.4254	        	        	        	        	       0	(  2  1  1)	  0  1
     81.8123	        	        	        	        	       0	(  2  0  8)	  0  1
     82.4441	        	        	        	        	       0	(  2  1  2)	  0  1
     84.1367	        	        	        	        	       0	(  2  1  3)	  0  1
     86.4984	        	        	        	        	       0	(  2  1  4)	  0  1
     87.0096	        	        	        	        	       0	(  1  1 10)	  0  1
     87.5552	        	        	        	        	       0	(  2  0  9)	  0  1
     87.9383	        	        	        	        	       0	(  1  0 12)	  0  1
     89.5270	        	        	        	        	       0	(  2  1  5)	  0  1
     93.2281	        	        	        	        	       0	(  2  1  6)	  0  1
     93.9487	        	        	        	        	       0	(  2  0 10)	  0  1
     94.9955	        	        	        	        	       0	(  3  0  0)	  0  1
     95.3332	        	        	        	        	       0	(  3  0  1)	  0  1
     96.3476	        	        	        	        	       0	(  3  0  2)	  0  1
     96.3598	        	        	        	        	       0	(  1  0 13)	  0  1
     97.6215	        	        	        	        	       0	(  2  1  7)	  0  1
     98.0429	        	        	        	        	       0	(  3  0  3)	  0  1
     98.5241	        	        	        	        	       0	(  0  0 14)	  0  1
    100.4289	        	        	        	        	       0	(  3  0  4)	  0  1
    101.0787	        	        	        	        	       0	(  2  0 11)	  0  1
    101.8956	        	        	        	        	       0	(  1  1 12)	  0  1
    102.7504	        	        	        	        	       0	(  2  1  8)	  0  1
    103.5247	        	        	        	        	       0	(  3  0  5)	  0  1
    105.6234	        	        	        	        	       0	(  1  0 14)	  0  1
    107.3656	        	        	        	        	       0	(  3  0  6)	  0  1
    108.6960	        	        	        	        	       0	(  2  1  9)	  0  1
    109.1009	        	        	        	        	       0	(  2  0 12)	  0  1
    112.0138	        	        	        	        	       0	(  3  0  7)	  0  1
    115.6050	        	        	        	        	       0	(  2  1 10)	  0  1
    116.0827	        	        	        	        	       0	(  1  0 15)	  0  1
    116.7690	        	        	        	        	       0	(  2  2  0)	  0  1
    117.5783	        	        	        	        	       0	(  3  0  8)	  0  1
    118.2877	        	        	        	        	       0	(  2  2  2)	  0  1
    118.3014	        	        	        	        	       0	(  2  0 13)	  0  1
    120.0437	        	        	        	        	       0	(  0  0 16)	  0  1
    120.7705	        	        	        	        	       0	(  1  1 14)	  0  1
    122.9852	        	        	        	        	       0	(  2  2  4)	  0  1
    123.7504	        	        	        	        	       0	(  2  1 11)	  0  1
    124.2546	        	        	        	        	       0	(  3  0  9)	  0  1
    124.8607	        	        	        	        	       0	(  3  1  0)	  0  1
    125.2722	        	        	        	        	       0	(  3  1  1)	  0  1
    126.5196	        	        	        	        	       0	(  3  1  2)	  0  1
    128.4529	        	        	        	        	       0	(  1  0 16)	  0  1
    128.6451	        	        	        	        	       0	(  3  1  3)	  0  1
    129.2582	        	        	        	        	       0	(  2  0 14)	  0  1
    131.4531	        	        	        	        	       0	(  2  2  6)	  0  1
    131.7327	        	        	        	        	       0	(  3  1  4)	  0  1
    132.4218	        	        	        	        	       0	(  3  0 10)	  0  1
    133.6943	        	        	        	        	       0	(  2  1 12)	  0  1
    135.9384	        	        	        	        	       0	(  3  1  5)	  0  1
    141.5654	        	        	        	        	       0	(  3  1  6)	  0  1
    142.9528	        	        	        	        	       0	(  3  0 11)	  0  1
    143.4582	        	        	        	        	       0	(  2  0 15)	  0  1
    144.6876	        	        	        	        	       0	(  1  0 17)	  0  1
    145.7675	        	        	        	        	       0	(  2  2  8)	  0  1
    146.9227	        	        	        	        	       0	(  2  1 13)	  0  1
    149.3013	        	        	        	        	       0	(  3  1  7)	  0  1
    149.8311	        	        	        	        	       0	(  1  1 16)	  0  1
    154.2538	        	        	        	        	       0	(  0  0 18)	  0  1
    159.0147	        	        	        	        	       0	(  3  0 12)	  0  1
    159.3416	        	        	        	        	       0	(  4  0  0)	  0  1
    160.3229	        	        	        	        	       0	(  4  0  1)	  0  1
    161.5011	        	        	        	        	       0	(  3  1  8)	  0  1
    163.6038	        	        	        	        	       0	(  4  0  2)	  0  1
    170.5119	        	        	        	        	       0	(  2  0 16)	  0  1
    171.4840	        	        	        	        	       0	(  4  0  3)	  0  1
    175.9082	        	        	        	        	       0	(  2  1 14)	  0  1
