MSG Master    CELL:    5.90961   5.90961  23.23443   90.0000   90.0000  120.0000   SPGR: P 63/m m c             TEMP:    909.85
  1   1280     2.52000     0.00000    -0.12467     0.00000     0.00000    0
    98     0     2
       0.00000      10.00000
     125.00000     130.00000
 2Theta	Yobs	Ycal	Yobs-Ycal	Backg	Posr	(hkl)	K
      0.7700	    0.00	  465.93	-1734.50	  353.74
      0.8700	    0.00	  467.53	-1734.50	  355.33
      0.9700	   42.00	  469.11	-1734.50	  356.91
      1.0700	   48.00	  470.67	-1734.50	  358.48
      1.1700	   34.00	  472.21	-1734.50	  360.02
      1.2700	   31.00	  473.74	-1734.50	  361.55
      1.3700	   59.00	  475.25	-1734.50	  363.06
      1.4700	   84.00	  476.75	-1734.50	  364.55
      1.5700	  282.00	  478.22	-1734.50	  366.03
      1.6700	  470.00	  479.68	-1734.50	  367.49
      1.7700	  601.00	  481.13	-1734.50	  368.93
      1.8700	  657.00	  482.55	-1734.50	  370.36
      1.9700	  720.00	  483.96	-1734.50	  371.77
      2.0700	  796.00	  485.36	-1734.50	  373.16
      2.1700	  821.00	  486.73	-1734.50	  374.54
      2.2700	  776.00	  488.09	-1734.50	  375.90
      2.3700	  737.00	  489.44	-1734.50	  377.25
      2.4700	  661.00	  490.77	-1734.50	  378.58
      2.5700	  650.00	  492.08	-1734.50	  379.89
      2.6700	  642.00	  493.38	-1734.50	  381.18
      2.7700	  663.00	  494.66	-1734.50	  382.47
      2.8700	  646.00	  495.92	-1734.50	  383.73
      2.9700	  622.00	  497.17	-1734.50	  384.98
      3.0700	  621.00	  498.41	-1734.50	  386.22
      3.1700	  589.00	  499.63	-1734.50	  387.44
      3.2700	  651.00	  500.83	-1734.50	  388.64
      3.3700	  759.00	  502.02	-1734.50	  389.83
      3.4700	  829.00	  503.19	-1734.50	  391.00
      3.5700	  957.00	  504.35	-1734.50	  392.16
      3.6700	 1019.00	  505.50	-1734.50	  393.30
      3.7700	 1047.00	  506.63	-1734.50	  394.43
      3.8700	 1184.00	  507.74	-1734.50	  395.55
      3.9700	 1228.00	  508.84	-1734.50	  396.65
      4.0700	 1204.00	  509.93	-1734.50	  397.73
      4.1700	 1264.00	  511.00	-1734.50	  398.80
      4.2700	 1270.00	  512.05	-1734.50	  399.86
      4.3700	 1212.00	  513.10	-1734.50	  400.90
      4.4700	 1109.00	  514.13	-1734.50	  401.93
      4.5700	 1184.00	  515.14	-1734.50	  402.95
      4.6700	 1115.00	  516.14	-1734.50	  403.95
      4.7700	 1138.00	  517.13	-1734.50	  404.93
      4.8700	 1044.00	  518.10	-1734.50	  405.91
      4.9700	 1044.00	  519.06	-1734.50	  406.87
      5.0700	  963.00	  520.00	-1734.50	  407.81
      5.1700	 1004.00	  520.94	-1734.50	  408.74
      5.2700	  947.00	  521.86	-1734.50	  409.66
      5.3700	  931.00	  522.76	-1734.50	  410.57
      5.4700	  934.00	  523.65	-1734.50	  411.46
      5.5700	  898.00	  524.53	-1734.50	  412.34
      5.6700	  894.00	  525.40	-1734.50	  413.21
      5.7700	  833.00	  526.25	-1734.50	  414.06
      5.8700	  867.00	  527.09	-1734.50	  414.90
      5.9700	  822.00	  527.92	-1734.50	  415.73
      6.0700	  815.00	  528.74	-1734.50	  416.54
      6.1700	  777.00	  529.54	-1734.50	  417.35
      6.2700	  792.00	  530.33	-1734.50	  418.14
      6.3700	  769.00	  531.11	-1734.50	  418.92
      6.4700	  798.00	  531.87	-1734.50	  419.68
      6.5700	  721.00	  532.63	-1734.50	  420.43
      6.6700	  774.00	  533.37	-1734.50	  421.17
      6.7700	  729.00	  534.10	-1734.50	  421.90
      6.8700	  722.00	  534.81	-1734.50	  422.62
      6.9700	  667.00	  535.52	-1734.50	  423.33
      7.0700	  720.00	  536.21	-1734.50	  424.02
      7.1700	  665.00	  536.89	-1734.50	  424.70
      7.2700	  683.00	  537.56	-1734.50	  425.37
      7.3700	  698.00	  538.22	-1734.50	  426.03
      7.4700	  638.00	  538.87	-1734.50	  426.68
      7.5700	  664.00	  539.51	-1734.50	  427.31
      7.6700	  657.00	  540.13	-1734.50	  427.94
      7.7700	  656.00	  540.74	-1734.50	  428.55
      7.8700	  708.00	  541.34	-1734.50	  429.15
      7.9700	  671.00	  541.94	-1734.50	  429.74
      8.0700	  648.00	  542.52	-1734.50	  430.32
      8.1700	  643.00	  543.09	-1734.50	  430.89
      8.2700	  611.00	  543.64	-1734.50	  431.45
      8.3700	  618.00	  544.19	-1734.50	  432.00
      8.4700	  646.00	  544.73	-1734.50	  432.54
      8.5700	  656.00	  545.25	-1734.50	  433.06
      8.6700	  626.00	  545.77	-1734.50	  433.58
      8.7700	  641.00	  546.28	-1734.50	  434.08
      8.8700	  618.00	  546.77	-1734.50	  434.58
      8.9700	  637.00	  547.26	-1734.50	  435.06
      9.0700	  624.00	  547.73	-1734.50	  435.54
      9.1700	  621.00	  548.20	-1734.50	  436.00
      9.2700	  621.00	  548.65	-1734.50	  436.46
      9.3700	  583.00	  549.10	-1734.50	  436.90
      9.4700	  600.00	  549.53	-1734.50	  437.34
      9.5700	  524.00	  549.96	-1734.50	  437.76
      9.6700	  607.00	  550.37	-1734.50	  438.18
      9.7700	  565.00	  550.78	-1734.50	  438.59
      9.8700	  561.00	  551.17	-1734.50	  438.98
      9.9700	  583.00	  551.56	-1734.50	  439.37
     10.0700	  602.00	  553.66	-1686.16	  439.75
     10.1700	  544.00	  554.21	-1744.71	  440.11
     10.2700	  563.00	  554.80	-1726.30	  440.47
     10.3700	  602.00	  555.44	-1687.94	  440.82
     10.4700	  628.00	  556.17	-1662.67	  441.16
     10.5700	  542.00	  557.06	-1749.56	  441.49
     10.6700	  574.00	  558.18	-1718.68	  441.82
     10.7700	  548.00	  559.65	-1746.15	  442.13
     10.8700	  588.00	  561.54	-1708.04	  442.44
     10.9700	  561.00	  563.89	-1737.39	  442.73
     11.0700	  584.00	  566.69	-1717.19	  443.02
     11.1700	  626.00	  569.94	-1678.44	  443.30
     11.2700	  589.00	  573.69	-1719.19	  443.57
     11.3700	  599.00	  578.03	-1713.53	  443.83
     11.4700	  561.00	  583.09	-1756.59	  444.09
     11.5700	  587.00	  589.11	-1736.61	  444.33
     11.6700	  614.00	  596.46	-1716.96	  444.57
     11.7700	  622.00	  605.61	-1718.11	  444.80
     11.8700	  633.00	  616.99	-1718.49	  445.02
     11.9700	  625.00	  630.40	-1739.90	  445.23
     12.0700	  646.00	  644.04	-1732.54	  445.44
     12.1700	  682.00	  653.59	-1706.09	  445.63
     12.2700	  657.00	  652.51	-1730.01	  445.82
     12.3700	  654.00	  637.42	-1717.92	  446.00
     12.4700	  637.00	  615.30	-1712.80	  446.18
     12.5700	  631.00	  595.66	-1699.16	  446.34
     12.6700	  600.00	  582.02	-1716.52	  446.50
     12.7700	  544.00	  573.83	-1764.33	  446.65
     12.8700	  551.00	  569.30	-1752.80	  446.80
     12.9700	  552.00	  566.80	-1749.30	  446.93
     13.0700	  539.00	  565.33	-1760.83	  447.06
     13.1700	  535.00	  564.36	-1763.86	  447.18
     13.2700	  603.00	  563.68	-1695.18	  447.30
     13.3700	  538.00	  563.18	-1759.68	  447.41
     13.4700	  544.00	  562.80	-1753.30	  447.51
     13.5700	  571.00	  562.51	-1726.01	  447.60
     13.6700	  570.00	  562.29	-1726.79	  447.69
     13.7700	  509.00	  562.12	-1787.62	  447.77
     13.8700	  577.00	  561.98	-1719.48	  447.84
     13.9700	  558.00	  561.87	-1738.37	  447.91
     14.0700	  559.00	  561.78	-1737.28	  447.97
     14.1700	  587.00	  561.70	-1709.20	  448.02
     14.2700	  547.00	  561.67	-1749.17	  448.07
     14.3700	  523.00	  561.61	-1773.11	  448.11
     14.4700	  532.00	  561.56	-1764.06	  448.14
     14.5700	  546.00	  561.51	-1750.01	  448.17
     14.6700	  545.00	  561.47	-1750.97	  448.19
     14.7700	  564.00	  561.43	-1731.93	  448.21
     14.8700	  562.00	  561.39	-1733.89	  448.22
     14.9700	  533.00	  561.34	-1762.84	  448.22
     15.0700	  600.00	  561.30	-1695.80	  448.22
     15.1700	  602.00	  561.25	-1693.75	  448.21
     15.2700	  528.00	  561.20	-1767.70	  448.19
     15.3700	  515.00	  561.15	-1780.65	  448.17
     15.4700	  550.00	  561.10	-1745.60	  448.15
     15.5700	  534.00	  561.04	-1761.54	  448.12
     15.6700	  566.00	  560.98	-1729.48	  448.08
     15.7700	  540.00	  560.92	-1755.42	  448.03
     15.8700	  545.00	  560.85	-1750.35	  447.99
     15.9700	  564.00	  560.78	-1731.28	  447.93
     16.0700	  608.00	  560.70	-1687.20	  447.87
     16.1700	  543.00	  560.62	-1752.12	  447.81
     16.2700	  575.00	  560.54	-1720.04	  447.74
     16.3700	  555.00	  560.45	-1739.95	  447.66
     16.4700	  514.00	  560.36	-1780.86	  447.58
     16.5700	  565.00	  560.26	-1729.76	  447.49
     16.6700	  533.00	  560.16	-1761.66	  447.40
     16.7700	  546.00	  560.05	-1748.55	  447.31
     16.8700	  533.00	  559.94	-1761.44	  447.21
     16.9700	  551.00	  559.83	-1743.33	  447.10
     17.0700	  567.00	  559.71	-1727.21	  446.99
     17.1700	  557.00	  559.59	-1737.09	  446.87
     17.2700	  540.00	  559.47	-1753.97	  446.75
     17.3700	  536.00	  559.34	-1757.83	  446.63
     17.4700	  551.00	  559.20	-1742.70	  446.50
     17.5700	  529.00	  559.06	-1764.56	  446.37
     17.6700	  550.00	  558.92	-1743.42	  446.23
     17.7700	  548.00	  558.89	-1745.39	  446.08
     17.8700	  559.00	  558.74	-1734.24	  445.94
     17.9700	  550.00	  558.59	-1743.09	  445.78
     18.0700	  530.00	  558.43	-1762.93	  445.63
     18.1700	  502.00	  558.27	-1790.77	  445.47
     18.2700	  528.00	  558.19	-1764.69	  445.30
     18.3700	  580.00	  558.03	-1712.53	  445.13
     18.4700	  537.00	  557.86	-1755.36	  444.96
     18.5700	  563.00	  557.68	-1729.18	  444.78
     18.6700	  602.00	  557.51	-1690.01	  444.60
     18.7700	  541.00	  557.33	-1750.83	  444.42
     18.8700	  565.00	  557.14	-1726.64	  444.23
     18.9700	  574.00	  556.96	-1717.46	  444.04
     19.0700	  525.00	  556.77	-1766.27	  443.84
     19.1700	  547.00	  556.57	-1744.07	  443.64
     19.2700	  505.00	  556.37	-1785.87	  443.44
     19.3700	  529.00	  556.17	-1761.67	  443.23
     19.4700	  568.00	  555.97	-1722.47	  443.02
     19.5700	  569.00	  555.77	-1721.27	  442.80
     19.6700	  548.00	  555.56	-1742.06	  442.58
     19.7700	  551.00	  555.34	-1738.84	  442.36
     19.8700	  560.00	  555.13	-1729.63	  442.14
     19.9700	  545.00	  554.95	-1744.45	  441.91
     20.0700	  525.00	  554.73	-1764.23	  441.68
     20.1700	  554.00	  554.51	-1735.01	  441.44
     20.2700	  549.00	  554.29	-1739.79	  441.20
     20.3700	  513.00	  554.06	-1775.56	  440.96
     20.4700	  546.00	  553.83	-1742.33	  440.72
     20.5700	  555.00	  553.60	-1733.10	  440.47
     20.6700	  513.00	  553.37	-1774.87	  440.22
     20.7700	  506.00	  553.13	-1781.63	  439.96
     20.8700	  546.00	  552.90	-1741.40	  439.71
     20.9700	  544.00	  552.66	-1743.16	  439.45
     21.0700	  529.00	  552.42	-1757.92	  439.18
     21.1700	  528.00	  552.18	-1758.68	  438.92
     21.2700	  526.00	  551.94	-1760.44	  438.65
     21.3700	  518.00	  551.70	-1768.20	  438.38
     21.4700	  565.00	  551.45	-1720.95	  438.11
     21.5700	  582.00	  551.21	-1703.71	  437.83
     21.6700	  550.00	  550.97	-1735.47	  437.55
     21.7700	  530.00	  550.72	-1755.22	  437.27
     21.8700	  564.00	  550.48	-1720.98	  436.99
     21.9700	  535.00	  550.24	-1749.74	  436.70
     22.0700	  520.00	  550.00	-1764.50	  436.41
     22.1700	  545.00	  549.76	-1739.26	  436.12
     22.2700	  581.00	  549.48	-1702.98	  435.83
     22.3700	  508.00	  549.25	-1775.75	  435.53
     22.4700	  609.00	  549.02	-1674.52	  435.23
     22.5700	  564.00	  548.96	-1719.46	  434.93
     22.6700	  551.00	  548.75	-1732.25	  434.63
     22.7700	  556.00	  548.55	-1727.05	  434.32
     22.8700	  544.00	  548.36	-1738.86	  434.02
     22.9700	  540.00	  548.19	-1742.69	  433.71
     23.0700	  577.00	  548.03	-1705.53	  433.40
     23.1700	  545.00	  547.90	-1737.40	  433.09
     23.2700	  559.00	  547.80	-1723.30	  432.77
     23.3700	  570.00	  547.73	-1712.23	  432.45
     23.4700	  518.00	  547.71	-1764.21	  432.14
     23.5700	  542.00	  547.76	-1740.26	  431.82
     23.6700	  545.00	  547.91	-1737.41	  431.49
     23.7700	  568.00	  548.22	-1714.72	  431.17
     23.8700	  573.00	  548.77	-1710.27	  430.84
     23.9700	  556.00	  549.76	-1728.26	  430.52
     24.0700	  576.00	  551.49	-1709.99	  430.19
     24.1700	  549.00	  554.44	-1739.94	  429.86
     24.2700	  571.00	  559.20	-1722.70	  429.53
     24.3700	  584.00	  566.40	-1716.90	  429.19
     24.4700	  584.00	  576.43	-1726.93	  428.86
     24.5700	  591.00	  589.03	-1732.53	  428.52
     24.6700	  639.00	  602.58	-1698.08	  428.18
     24.7700	  658.00	  613.39	-1689.89	  427.84
     24.8700	  599.00	  615.86	-1751.36	  427.50
     24.9700	  615.00	  606.49	-1725.99	  427.16
     25.0700	  629.00	  589.82	-1695.32	  426.82
     25.1700	  605.00	  573.60	-1703.10	  426.47
     25.2700	  543.00	  561.50	-1753.00	  426.13
     25.3700	  603.00	  553.75	-1685.25	  425.78
     25.4700	  585.00	  549.23	-1698.73	  425.43
     25.5700	  567.00	  546.64	-1714.14	  425.09
     25.6700	  596.00	  545.07	-1683.57	  424.74
     25.7700	  556.00	  544.02	-1722.52	  424.39
     25.8700	  541.00	  543.27	-1736.77	  424.03
     25.9700	  567.00	  542.70	-1710.20	  423.68
     26.0700	  560.00	  542.28	-1716.78	  423.33
     26.1700	  564.00	  541.98	-1712.48	  422.97
     26.2700	  555.00	  541.78	-1721.28	  422.62
     26.3700	  563.00	  541.69	-1713.19	  422.26
     26.4700	  601.00	  541.70	-1675.20	  421.90
     26.5700	  510.00	  541.82	-1766.32	  421.54
     26.6700	  540.00	  542.07	-1736.57	  421.19
     26.7700	  564.00	  542.47	-1712.97	  420.83
     26.8700	  547.00	  543.05	-1730.55	  420.47
     26.9700	  549.00	  543.86	-1729.36	  420.11
     27.0700	  589.00	  544.98	-1690.48	  419.74
     27.1700	  580.00	  546.53	-1701.03	  419.38
     27.2700	  542.00	  548.70	-1741.20	  419.02
     27.3700	  561.00	  551.92	-1725.42	  418.66
     27.4700	  567.00	  556.98	-1724.48	  418.29
     27.5700	  559.00	  565.31	-1740.81	  417.93
     27.6700	  580.00	  579.30	-1733.80	  417.56
     27.7700	  618.00	  602.25	-1718.75	  417.20
     27.8700	  599.00	  637.64	-1773.14	  416.83
     27.9700	  638.00	  687.01	-1783.51	  416.47
     28.0700	  715.00	  747.23	-1766.73	  416.10
     28.1700	  829.00	  807.48	-1712.98	  415.74
     28.2700	  978.00	  848.06	-1604.56	  415.37
     28.3700	  904.00	  847.90	-1678.40	  415.00
     28.4700	  821.00	  810.25	-1723.75	  414.64
     28.5700	  777.00	  768.07	-1725.57	  414.27
     28.6700	  722.00	  747.62	-1760.12	  413.90
     28.7700	  707.00	  753.51	-1781.01	  413.54
     28.8700	  775.00	  774.20	-1733.70	  413.17
     28.9700	  747.00	  787.85	-1775.35	  412.80
     29.0700	  791.00	  772.06	-1715.56	  412.43
     29.1700	  773.00	  724.72	-1686.22	  412.07
     29.2700	  667.00	  667.68	-1735.18	  411.70
     29.3700	  607.00	  619.68	-1747.18	  411.33
     29.4700	  576.00	  586.41	-1744.91	  410.97
     29.5700	  590.00	  566.15	-1710.65	  410.60
     29.6700	  599.00	  554.63	-1690.13	  410.23
     29.7700	  605.00	  548.11	-1677.61	  409.86
     29.8700	  588.00	  544.22	-1690.72	  409.50
     29.9700	  614.00	  541.81	-1662.31	  409.13
     30.0700	  586.00	  540.44	-1688.94	  408.76
     30.1700	  551.00	  540.12	-1723.62	  408.40
     30.2700	  585.00	  541.18	-1690.68	  408.03
     30.3700	  579.00	  544.35	-1699.85	  407.67
     30.4700	  573.00	  550.79	-1712.29	  407.30
     30.5700	  583.00	  561.79	-1713.29	  406.94
     30.6700	  574.00	  578.02	-1738.52	  406.57
     30.7700	  572.00	  598.31	-1760.81	  406.21
     30.8700	  630.00	  618.66	-1723.16	  405.85
     30.9700	  618.00	  631.85	-1748.35	  405.48
     31.0700	  620.00	  629.78	-1744.28	  405.12
     31.1700	  610.00	  611.57	-1736.07	  404.76
     31.2700	  575.00	  586.77	-1746.27	  404.40
     31.3700	  505.00	  564.60	-1794.10	  404.03
     31.4700	  550.00	  548.56	-1733.06	  403.67
     31.5700	  542.00	  538.44	-1730.94	  403.31
     31.6700	  543.00	  532.57	-1724.07	  402.95
     31.7700	  561.00	  529.24	-1702.74	  402.59
     31.8700	  574.00	  527.25	-1687.75	  402.24
     31.9700	  542.00	  525.97	-1718.47	  401.88
     32.0700	  538.00	  525.10	-1721.60	  401.52
     32.1700	  534.00	  524.51	-1725.01	  401.17
     32.2700	  512.00	  524.15	-1746.65	  400.81
     32.3700	  584.00	  524.01	-1674.51	  400.45
     32.4700	  548.00	  524.08	-1710.58	  400.10
     32.5700	  581.00	  524.37	-1677.87	  399.75
     32.6700	  564.00	  524.92	-1695.42	  399.39
     32.7700	  522.00	  525.78	-1738.28	  399.04
     32.8700	  489.00	  527.02	-1772.52	  398.69
     32.9700	  487.00	  528.78	-1776.28	  398.34
     33.0700	  565.00	  531.28	-1700.78	  397.99
     33.1700	  522.00	  534.97	-1747.47	  397.64
     33.2700	  602.00	  540.74	-1673.24	  397.30
     33.3700	  599.00	  550.37	-1685.87	  396.95
     33.4700	  568.00	  566.98	-1733.48	  396.61
     33.5700	  566.00	  595.37	-1763.87	  396.26
     33.6700	  624.00	  641.21	-1751.71	  395.92
     33.7700	  686.00	  708.11	-1756.61	  395.57
     33.8700	  813.00	  792.86	-1714.36	  395.23
     33.9700	  886.00	  880.74	-1729.24	  394.89
     34.0700	  979.00	  944.20	-1699.70	  394.55
     34.1700	 1043.00	  950.68	-1642.18	  394.21
     34.2700	  963.00	  890.74	-1662.24	  393.88
     34.3700	  858.00	  795.79	-1672.29	  393.54
     34.4700	  714.00	  703.87	-1724.37	  393.21
     34.5700	  629.00	  633.22	-1738.72	  392.87
     34.6700	  561.00	  586.31	-1759.81	  392.54
     34.7700	  535.00	  558.17	-1757.67	  392.21
     34.8700	  552.00	  542.09	-1724.59	  391.88
     34.9700	  556.00	  532.69	-1711.19	  391.55
     35.0700	  569.00	  526.70	-1692.20	  391.22
     35.1700	  552.00	  522.49	-1704.99	  390.89
     35.2700	  542.00	  519.25	-1711.75	  390.57
     35.3700	  485.00	  516.70	-1766.20	  390.24
     35.4700	  527.00	  514.61	-1722.11	  389.92
     35.5700	  530.00	  512.86	-1717.36	  389.60
     35.6700	  512.00	  511.37	-1733.87	  389.28
     35.7700	  499.00	  510.55	-1746.05	  388.96
     35.8700	  573.00	  509.44	-1670.94	  388.64
     35.9700	  500.00	  508.45	-1742.95	  388.32
     36.0700	  502.00	  507.59	-1740.09	  388.01
     36.1700	  474.00	  506.81	-1767.31	  387.69
     36.2700	  487.00	  506.11	-1753.61	  387.38
     36.3700	  507.00	  505.47	-1732.97	  387.07
     36.4700	  488.00	  504.90	-1751.40	  386.76
     36.5700	  482.00	  504.39	-1756.89	  386.45
     36.6700	  507.00	  503.94	-1731.44	  386.14
     36.7700	  474.00	  503.57	-1764.07	  385.84
     36.8700	  518.00	  503.29	-1719.79	  385.54
     36.9700	  518.00	  503.16	-1719.66	  385.23
     37.0700	  530.00	  503.28	-1707.78	  384.93
     37.1700	  528.00	  503.81	-1710.31	  384.63
     37.2700	  485.00	  504.97	-1754.47	  384.33
     37.3700	  510.00	  506.96	-1731.46	  384.04
     37.4700	  511.00	  509.82	-1733.32	  383.74
     37.5700	  523.00	  513.24	-1724.74	  383.45
     37.6700	  554.00	  516.42	-1696.92	  383.16
     37.7700	  493.00	  518.15	-1759.65	  382.87
     37.8700	  566.00	  517.42	-1685.92	  382.58
     37.9700	  550.00	  514.70	-1699.20	  382.29
     38.0700	  499.00	  510.90	-1746.40	  382.01
     38.1700	  491.00	  507.16	-1750.66	  381.72
     38.2700	  502.00	  503.92	-1736.42	  381.44
     38.3700	  513.00	  501.36	-1722.86	  381.16
     38.4700	  488.00	  499.50	-1746.00	  380.88
     38.5700	  491.00	  498.19	-1741.69	  380.60
     38.6700	  472.00	  497.25	-1759.75	  380.33
     38.7700	  498.00	  496.57	-1733.07	  380.05
     38.8700	  486.00	  496.03	-1744.53	  379.78
     38.9700	  493.00	  495.58	-1737.08	  379.51
     39.0700	  506.00	  495.19	-1723.69	  379.24
     39.1700	  480.00	  494.73	-1749.23	  378.97
     39.2700	  455.00	  494.40	-1773.90	  378.71
     39.3700	  479.00	  494.10	-1749.60	  378.44
     39.4700	  466.00	  493.81	-1762.31	  378.18
     39.5700	  532.00	  493.54	-1696.04	  377.92
     39.6700	  440.00	  493.28	-1787.78	  377.66
     39.7700	  474.00	  493.04	-1753.54	  377.40
     39.8700	  476.00	  492.80	-1751.30	  377.15
     39.9700	  497.00	  492.50	-1730.00	  376.89
     40.0700	  512.00	  492.30	-1714.80	  376.64
     40.1700	  457.00	  492.11	-1769.61	  376.39
     40.2700	  466.00	  491.93	-1760.43	  376.14
     40.3700	  478.00	  491.77	-1748.27	  375.90
     40.4700	  503.00	  491.63	-1723.13	  375.65
     40.5700	  508.00	  492.01	-1718.51	  375.41
     40.6700	  486.00	  491.91	-1740.41	  375.17
     40.7700	  492.00	  491.84	-1734.34	  374.93
     40.8700	  492.00	  491.79	-1734.29	  374.69
     40.9700	  460.00	  491.78	-1766.28	  374.46
     41.0700	  481.00	  491.81	-1745.31	  374.22
     41.1700	  490.00	  491.89	-1736.39	  373.99
     41.2700	  485.00	  492.02	-1741.52	  373.76
     41.3700	  502.00	  492.23	-1724.73	  373.53
     41.4700	  513.00	  492.54	-1714.04	  373.30
     41.5700	  494.00	  492.98	-1733.48	  373.08
     41.6700	  484.00	  493.62	-1744.12	  372.86
     41.7700	  507.00	  494.56	-1722.06	  372.64
     41.8700	  516.00	  496.04	-1714.54	  372.42
     41.9700	  430.00	  498.52	-1803.02	  372.20
     42.0700	  485.00	  502.84	-1752.34	  371.98
     42.1700	  516.00	  510.01	-1728.51	  371.77
     42.2700	  481.00	  521.64	-1775.14	  371.56
     42.3700	  571.00	  538.64	-1702.14	  371.35
     42.4700	  554.00	  560.81	-1741.31	  371.14
     42.5700	  572.00	  585.64	-1748.14	  370.94
     42.6700	  584.00	  607.43	-1757.93	  370.73
     42.7700	  629.00	  618.17	-1723.67	  370.53
     42.8700	  589.00	  612.17	-1757.67	  370.33
     42.9700	  569.00	  592.03	-1757.53	  370.13
     43.0700	  534.00	  566.63	-1767.13	  369.94
     43.1700	  509.00	  542.73	-1768.23	  369.74
     43.2700	  496.00	  523.96	-1762.46	  369.55
     43.3700	  486.00	  510.84	-1759.34	  369.36
     43.4700	  495.00	  502.49	-1741.99	  369.17
     43.5700	  530.00	  497.46	-1701.96	  368.98
     43.6700	  463.00	  494.46	-1765.96	  368.80
     43.7700	  477.00	  492.60	-1750.10	  368.62
     43.8700	  446.00	  491.33	-1779.83	  368.44
     43.9700	  493.00	  490.40	-1731.90	  368.26
     44.0700	  470.00	  489.69	-1754.19	  368.08
     44.1700	  482.00	  489.11	-1741.61	  367.91
     44.2700	  503.00	  488.64	-1720.14	  367.73
     44.3700	  511.00	  488.26	-1711.76	  367.56
     44.4700	  540.00	  488.15	-1682.65	  367.39
     44.5700	  526.00	  487.89	-1696.39	  367.23
     44.6700	  470.00	  487.68	-1752.18	  367.06
     44.7700	  469.00	  487.52	-1753.02	  366.90
     44.8700	  515.00	  487.39	-1706.89	  366.74
     44.9700	  500.00	  487.29	-1721.79	  366.58
     45.0700	  493.00	  487.23	-1728.73	  366.42
     45.1700	  495.00	  487.20	-1726.70	  366.26
     45.2700	  493.00	  487.20	-1728.70	  366.11
     45.3700	  463.00	  487.22	-1758.72	  365.96
     45.4700	  537.00	  487.28	-1684.78	  365.81
     45.5700	  497.00	  487.36	-1724.86	  365.66
     45.6700	  462.00	  487.48	-1759.98	  365.52
     45.7700	  479.00	  487.48	-1742.98	  365.37
     45.8700	  477.00	  487.66	-1745.16	  365.23
     45.9700	  470.00	  487.96	-1752.46	  365.09
     46.0700	  447.00	  488.23	-1775.73	  364.95
     46.1700	  467.00	  488.55	-1756.05	  364.82
     46.2700	  492.00	  488.97	-1731.47	  364.68
     46.3700	  491.00	  489.42	-1732.92	  364.55
     46.4700	  510.00	  489.94	-1714.44	  364.42
     46.5700	  510.00	  490.55	-1715.05	  364.29
     46.6700	  488.00	  491.27	-1737.77	  364.17
     46.7700	  511.00	  492.14	-1715.64	  364.04
     46.8700	  509.00	  493.22	-1718.72	  363.92
     46.9700	  498.00	  494.64	-1731.14	  363.80
     47.0700	  476.00	  496.63	-1755.13	  363.68
     47.1700	  511.00	  499.61	-1723.11	  363.57
     47.2700	  488.00	  504.21	-1750.71	  363.45
     47.3700	  505.00	  511.28	-1740.78	  363.34
     47.4700	  531.00	  521.68	-1725.18	  363.23
     47.5700	  503.00	  535.87	-1767.37	  363.12
     47.6700	  534.00	  553.43	-1753.93	  363.01
     47.7700	  574.00	  572.39	-1732.89	  362.91
     47.8700	  585.00	  588.87	-1738.37	  362.81
     47.9700	  573.00	  597.72	-1759.22	  362.70
     48.0700	  615.00	  595.55	-1715.05	  362.61
     48.1700	  584.00	  584.00	-1734.50	  362.51
     48.2700	  566.00	  568.33	-1736.83	  362.41
     48.3700	  543.00	  553.31	-1744.81	  362.32
     48.4700	  543.00	  542.00	-1733.50	  362.23
     48.5700	  516.00	  534.51	-1753.01	  362.14
     48.6700	  533.00	  531.09	-1732.59	  362.05
     48.7700	  532.00	  531.09	-1733.59	  361.97
     48.8700	  509.00	  533.83	-1759.33	  361.88
     48.9700	  525.00	  538.90	-1748.40	  361.80
     49.0700	  526.00	  546.35	-1754.85	  361.72
     49.1700	  516.00	  556.89	-1775.39	  361.64
     49.2700	  546.00	  572.34	-1760.84	  361.57
     49.3700	  529.00	  596.42	-1801.92	  361.49
     49.4700	  592.00	  635.91	-1778.41	  361.42
     49.5700	  618.00	  701.54	-1818.04	  361.35
     49.6700	  721.00	  807.77	-1821.27	  361.28
     49.7700	  901.00	  969.74	-1803.24	  361.22
     49.8700	 1144.00	 1196.91	-1787.41	  361.15
     49.9700	 1470.00	 1484.18	-1748.68	  361.09
     50.0700	 1830.00	 1801.87	-1706.37	  361.03
     50.1700	 2163.00	 2088.72	-1660.22	  360.97
     50.2700	 2271.00	 2258.09	-1721.59	  360.91
     50.3700	 2252.00	 2239.71	-1722.21	  360.85
     50.4700	 2111.00	 2040.54	-1664.04	  360.80
     50.5700	 1829.00	 1741.10	-1646.60	  360.75
     50.6700	 1351.00	 1428.48	-1811.98	  360.70
     50.7700	 1034.00	 1157.96	-1858.46	  360.65
     50.8700	  803.00	  952.83	-1884.33	  360.60
     50.9700	  697.00	  813.41	-1850.91	  360.56
     51.0700	  681.00	  727.10	-1780.60	  360.52
     51.1700	  705.00	  675.59	-1705.09	  360.47
     51.2700	  610.00	  643.06	-1767.56	  360.44
     51.3700	  608.00	  618.81	-1745.31	  360.40
     51.4700	  616.00	  598.23	-1716.73	  360.36
     51.5700	  542.00	  580.41	-1772.91	  360.33
     51.6700	  575.00	  565.59	-1725.09	  360.30
     51.7700	  565.00	  553.91	-1723.41	  360.27
     51.8700	  567.00	  545.26	-1712.76	  360.24
     51.9700	  535.00	  539.29	-1738.79	  360.21
     52.0700	  520.00	  535.53	-1750.03	  360.18
     52.1700	  543.00	  533.53	-1725.03	  360.16
     52.2700	  554.00	  533.02	-1713.52	  360.14
     52.3700	  556.00	  533.95	-1712.45	  360.12
     52.4700	  526.00	  536.59	-1745.09	  360.10
     52.5700	  536.00	  541.67	-1740.17	  360.08
     52.6700	  599.00	  550.66	-1686.16	  360.07
     52.7700	  572.00	  566.02	-1728.52	  360.06
     52.8700	  641.00	  591.44	-1684.94	  360.05
     52.9700	  695.00	  631.46	-1670.96	  360.04
     53.0700	  704.00	  690.54	-1721.04	  360.03
     53.1700	  773.00	  771.11	-1732.61	  360.02
     53.2700	  883.00	  871.27	-1722.77	  360.02
     53.3700	  965.00	  982.07	-1751.57	  360.01
     53.4700	 1101.00	 1085.48	-1718.98	  360.01
     53.5700	 1181.00	 1155.06	-1708.56	  360.01
     53.6700	 1159.00	 1165.98	-1741.48	  360.01
     53.7700	 1118.00	 1113.40	-1729.90	  360.02
     53.8700	  979.00	 1017.50	-1773.00	  360.02
     53.9700	  866.00	  906.64	-1775.14	  360.03
     54.0700	  786.00	  802.07	-1750.57	  360.04
     54.1700	  723.00	  715.38	-1726.88	  360.05
     54.2700	  615.00	  650.32	-1769.82	  360.06
     54.3700	  627.00	  605.49	-1712.99	  360.07
     54.4700	  614.00	  576.78	-1697.28	  360.08
     54.5700	  557.00	  559.47	-1736.97	  360.10
     54.6700	  612.00	  549.54	-1672.04	  360.12
     54.7700	  506.00	  544.11	-1772.61	  360.14
     54.8700	  522.00	  541.43	-1753.93	  360.16
     54.9700	  506.00	  540.53	-1769.03	  360.18
     55.0700	  498.00	  540.94	-1777.44	  360.20
     55.1700	  577.00	  542.46	-1699.96	  360.23
     55.2700	  561.00	  545.04	-1718.54	  360.26
     55.3700	  544.00	  548.75	-1739.25	  360.28
     55.4700	  568.00	  553.75	-1720.25	  360.31
     55.5700	  544.00	  560.34	-1750.84	  360.34
     55.6700	  527.00	  569.09	-1776.59	  360.38
     55.7700	  607.00	  581.12	-1708.62	  360.41
     55.8700	  608.00	  598.49	-1724.99	  360.45
     55.9700	  606.00	  625.08	-1753.58	  360.48
     56.0700	  650.00	  667.14	-1751.64	  360.52
     56.1700	  690.00	  734.05	-1778.55	  360.56
     56.2700	  736.00	  837.96	-1836.46	  360.60
     56.3700	  932.00	  991.71	-1794.21	  360.65
     56.4700	 1164.00	 1204.87	-1775.37	  360.69
     56.5700	 1430.00	 1477.78	-1782.28	  360.74
     56.6700	 1762.00	 1795.52	-1768.02	  360.78
     56.7700	 2083.00	 2122.00	-1773.50	  360.83
     56.8700	 2389.00	 2396.87	-1742.37	  360.88
     56.9700	 2520.00	 2545.42	-1759.92	  360.93
     57.0700	 2545.00	 2515.07	-1704.57	  360.98
     57.1700	 2376.00	 2317.15	-1675.65	  361.04
     57.2700	 2019.00	 2017.81	-1733.31	  361.09
     57.3700	 1639.00	 1690.72	-1786.22	  361.15
     57.4700	 1315.00	 1388.19	-1807.69	  361.20
     57.5700	 1064.00	 1138.56	-1809.06	  361.26
     57.6700	  938.00	  950.90	-1747.40	  361.32
     57.7700	  817.00	  821.33	-1738.83	  361.38
     57.8700	  830.00	  739.29	-1643.79	  361.45
     57.9700	  702.00	  692.89	-1725.39	  361.51
     58.0700	  696.00	  672.47	-1710.97	  361.57
     58.1700	  661.00	  671.82	-1745.32	  361.64
     58.2700	  695.00	  687.89	-1727.39	  361.71
     58.3700	  733.00	  719.61	-1721.11	  361.78
     58.4700	  821.00	  766.42	-1679.92	  361.85
     58.5700	  864.00	  826.78	-1697.28	  361.92
     58.6700	  961.00	  896.82	-1670.32	  361.99
     58.7700	 1030.00	  969.78	-1674.28	  362.06
     58.8700	 1152.00	 1037.73	-1620.23	  362.14
     58.9700	 1158.00	 1095.16	-1671.66	  362.21
     59.0700	 1291.00	 1139.26	-1582.76	  362.29
     59.1700	 1357.00	 1166.46	-1543.96	  362.37
     59.2700	 1273.00	 1173.32	-1634.82	  362.45
     59.3700	 1279.00	 1162.41	-1617.91	  362.53
     59.4700	 1258.00	 1143.56	-1620.06	  362.61
     59.5700	 1191.00	 1127.32	-1670.82	  362.69
     59.6700	 1182.00	 1120.75	-1673.25	  362.77
     59.7700	 1235.00	 1129.18	-1628.68	  362.86
     59.8700	 1242.00	 1158.84	-1651.34	  362.94
     59.9700	 1283.00	 1213.94	-1665.44	  363.03
     60.0700	 1371.00	 1291.47	-1654.97	  363.12
     60.1700	 1428.00	 1378.03	-1684.53	  363.20
     60.2700	 1575.00	 1449.83	-1609.33	  363.29
     60.3700	 1521.00	 1478.00	-1691.50	  363.38
     60.4700	 1521.00	 1443.05	-1656.55	  363.48
     60.5700	 1410.00	 1348.81	-1673.31	  363.57
     60.6700	 1222.00	 1218.41	-1730.91	  363.66
     60.7700	 1072.00	 1078.21	-1740.71	  363.75
     60.8700	  899.00	  947.95	-1783.45	  363.85
     60.9700	  823.00	  839.31	-1750.81	  363.95
     61.0700	  747.00	  757.30	-1744.80	  364.04
     61.1700	  724.00	  702.28	-1712.78	  364.14
     61.2700	  636.00	  672.33	-1770.83	  364.24
     61.3700	  677.00	  665.33	-1722.83	  364.34
     61.4700	  641.00	  680.48	-1773.98	  364.44
     61.5700	  673.00	  718.50	-1780.00	  364.54
     61.6700	  720.00	  780.93	-1795.43	  364.64
     61.7700	  828.00	  868.42	-1774.92	  364.75
     61.8700	  930.00	  978.57	-1783.07	  364.85
     61.9700	 1049.00	 1104.01	-1789.51	  364.95
     62.0700	 1202.00	 1230.73	-1763.23	  365.06
     62.1700	 1319.00	 1337.35	-1752.85	  365.17
     62.2700	 1358.00	 1398.47	-1774.97	  365.27
     62.3700	 1264.00	 1395.04	-1865.54	  365.38
     62.4700	 1264.00	 1327.59	-1798.09	  365.49
     62.5700	 1242.00	 1215.77	-1708.27	  365.60
     62.6700	 1014.00	 1085.12	-1805.62	  365.71
     62.7700	  892.00	  956.40	-1798.90	  365.82
     62.8700	  783.00	  842.93	-1794.43	  365.93
     62.9700	  702.00	  751.19	-1783.69	  366.04
     63.0700	  636.00	  682.36	-1780.86	  366.15
     63.1700	  656.00	  634.11	-1712.61	  366.27
     63.2700	  607.00	  602.34	-1729.84	  366.38
     63.3700	  577.00	  582.71	-1740.21	  366.49
     63.4700	  576.00	  571.72	-1730.22	  366.61
     63.5700	  590.00	  566.97	-1711.47	  366.73
     63.6700	  590.00	  567.40	-1711.90	  366.84
     63.7700	  616.00	  573.05	-1691.55	  366.96
     63.8700	  562.00	  584.83	-1757.33	  367.08
     63.9700	  631.00	  604.23	-1707.73	  367.19
     64.0700	  656.00	  632.83	-1711.33	  367.31
     64.1700	  711.00	  671.76	-1695.26	  367.43
     64.2700	  803.00	  720.99	-1652.49	  367.55
     64.3700	  837.00	  778.76	-1676.26	  367.67
     64.4700	  843.00	  840.61	-1732.11	  367.79
     64.5700	  980.00	  899.44	-1653.94	  367.91
     64.6700	 1029.00	  945.87	-1651.37	  368.04
     64.7700	  992.00	  971.12	-1713.62	  368.16
     64.8700	  985.00	  970.83	-1720.33	  368.28
     64.9700	  970.00	  946.52	-1711.02	  368.40
     65.0700	  921.00	  903.90	-1717.40	  368.53
     65.1700	  914.00	  852.29	-1672.79	  368.65
     65.2700	  775.00	  799.29	-1758.79	  368.77
     65.3700	  692.00	  749.99	-1792.49	  368.90
     65.4700	  673.00	  707.05	-1768.55	  369.02
     65.5700	  620.00	  670.85	-1785.35	  369.15
     65.6700	  643.00	  640.96	-1732.46	  369.28
     65.7700	  620.00	  616.88	-1731.38	  369.40
     65.8700	  634.00	  598.08	-1698.58	  369.53
     65.9700	  617.00	  583.91	-1701.41	  369.65
     66.0700	  582.00	  573.71	-1726.21	  369.78
     66.1700	  556.00	  566.85	-1745.35	  369.91
     66.2700	  568.00	  562.83	-1729.33	  370.04
     66.3700	  546.00	  561.25	-1749.75	  370.16
     66.4700	  579.00	  561.80	-1717.30	  370.29
     66.5700	  604.00	  564.61	-1695.11	  370.42
     66.6700	  579.00	  569.25	-1724.75	  370.55
     66.7700	  546.00	  576.41	-1764.91	  370.68
     66.8700	  568.00	  587.09	-1753.59	  370.81
     66.9700	  647.00	  603.09	-1690.59	  370.94
     67.0700	  608.00	  627.34	-1753.84	  371.07
     67.1700	  628.00	  664.21	-1770.71	  371.19
     67.2700	  706.00	  719.55	-1748.05	  371.32
     67.3700	  831.00	  800.51	-1704.01	  371.45
     67.4700	  906.00	  914.15	-1742.65	  371.58
     67.5700	 1032.00	 1066.29	-1768.79	  371.71
     67.6700	 1184.00	 1258.85	-1809.35	  371.84
     67.7700	 1592.00	 1487.66	-1630.16	  371.97
     67.8700	 1815.00	 1740.19	-1659.69	  372.10
     67.9700	 2020.00	 1993.87	-1708.37	  372.23
     68.0700	 2203.00	 2215.51	-1747.01	  372.37
     68.1700	 2351.00	 2364.70	-1748.20	  372.50
     68.2700	 2376.00	 2406.27	-1764.77	  372.63
     68.3700	 2275.00	 2328.99	-1788.49	  372.76
     68.4700	 2176.00	 2153.21	-1711.71	  372.89
     68.5700	 1909.00	 1917.78	-1743.28	  373.02
     68.6700	 1707.00	 1661.79	-1689.29	  373.15
     68.7700	 1395.00	 1415.15	-1754.65	  373.28
     68.8700	 1182.00	 1197.16	-1749.66	  373.41
     68.9700	 1013.00	 1017.55	-1739.05	  373.54
     69.0700	  855.00	  878.33	-1757.83	  373.67
     69.1700	  767.00	  775.98	-1743.48	  373.80
     69.2700	  696.00	  704.36	-1742.86	  373.93
     69.3700	  658.00	  655.97	-1732.47	  374.06
     69.4700	  667.00	  624.07	-1691.57	  374.19
     69.5700	  567.00	  603.24	-1770.74	  374.32
     69.6700	  593.00	  589.52	-1731.02	  374.45
     69.7700	  615.00	  580.30	-1699.80	  374.58
     69.8700	  575.00	  573.98	-1733.48	  374.71
     69.9700	  551.00	  569.62	-1753.12	  374.84
     70.0700	  575.00	  566.69	-1726.19	  374.96
     70.1700	  562.00	  564.92	-1737.42	  375.09
     70.2700	  538.00	  564.20	-1760.70	  375.22
     70.3700	  529.00	  564.52	-1770.02	  375.35
     70.4700	  576.00	  566.01	-1724.51	  375.48
     70.5700	  588.00	  568.93	-1715.43	  375.61
     70.6700	  541.00	  573.83	-1767.33	  375.73
     70.7700	  582.00	  581.58	-1734.08	  375.86
     70.8700	  569.00	  593.66	-1759.16	  375.99
     70.9700	  609.00	  613.12	-1738.62	  376.11
     71.0700	  639.00	  641.24	-1736.74	  376.24
     71.1700	  684.00	  682.76	-1733.26	  376.37
     71.2700	  712.00	  742.12	-1764.62	  376.49
     71.3700	  824.00	  823.65	-1734.15	  376.62
     71.4700	  930.00	  930.58	-1735.08	  376.74
     71.5700	 1014.00	 1063.82	-1784.32	  376.87
     71.6700	 1197.00	 1220.68	-1758.18	  376.99
     71.7700	 1384.00	 1393.73	-1744.23	  377.11
     71.8700	 1522.00	 1569.87	-1782.37	  377.24
     71.9700	 1734.00	 1730.09	-1730.59	  377.36
     72.0700	 1804.00	 1850.54	-1781.04	  377.48
     72.1700	 1910.00	 1907.89	-1732.39	  377.60
     72.2700	 1846.00	 1888.94	-1777.44	  377.73
     72.3700	 1789.00	 1798.24	-1743.74	  377.85
     72.4700	 1567.00	 1655.31	-1822.81	  377.97
     72.5700	 1481.00	 1484.77	-1738.27	  378.09
     72.6700	 1388.00	 1308.33	-1654.83	  378.21
     72.7700	 1174.00	 1141.97	-1702.47	  378.33
     72.8700	 1032.00	  995.80	-1698.30	  378.44
     72.9700	  908.00	  874.73	-1701.23	  378.56
     73.0700	  873.00	  779.49	-1640.99	  378.68
     73.1700	  796.00	  707.86	-1646.36	  378.80
     73.2700	  658.00	  656.02	-1732.52	  378.91
     73.3700	  692.00	  619.59	-1662.09	  379.03
     73.4700	  655.00	  593.98	-1673.48	  379.14
     73.5700	  605.00	  576.77	-1706.27	  379.26
     73.6700	  576.00	  564.88	-1723.38	  379.37
     73.7700	  567.00	  556.54	-1724.04	  379.48
     73.8700	  596.00	  550.56	-1689.06	  379.60
     73.9700	  582.00	  546.23	-1698.73	  379.71
     74.0700	  573.00	  543.10	-1704.60	  379.82
     74.1700	  536.00	  540.87	-1739.37	  379.93
     74.2700	  576.00	  539.35	-1697.85	  380.04
     74.3700	  569.00	  538.36	-1703.86	  380.15
     74.4700	  578.00	  537.72	-1694.22	  380.26
     74.5700	  609.00	  537.25	-1662.75	  380.37
     74.6700	  607.00	  536.75	-1664.25	  380.47
     74.7700	  594.00	  536.05	-1676.55	  380.58
     74.8700	  608.00	  535.05	-1661.55	  380.68
     74.9700	  611.00	  533.81	-1657.31	  380.79
     75.0700	  609.00	  532.47	-1657.97	  380.89
     75.1700	  574.00	  531.29	-1691.79	  381.00
     75.2700	  598.00	  530.53	-1667.03	  381.10
     75.3700	  618.00	  530.49	-1646.99	  381.20
     75.4700	  553.00	  531.52	-1713.02	  381.30
     75.5700	  600.00	  534.01	-1668.51	  381.40
     75.6700	  562.00	  538.40	-1710.90	  381.50
     75.7700	  550.00	  545.10	-1729.60	  381.60
     75.8700	  553.00	  554.61	-1736.11	  381.69
     75.9700	  572.00	  567.16	-1729.66	  381.79
     76.0700	  652.00	  582.76	-1665.26	  381.89
     76.1700	  651.00	  601.09	-1684.59	  381.98
     76.2700	  578.00	  621.27	-1777.77	  382.08
     76.3700	  638.00	  642.18	-1738.68	  382.17
     76.4700	  684.00	  661.86	-1712.35	  382.26
     76.5700	  698.00	  677.94	-1714.44	  382.35
     76.6700	  729.00	  687.91	-1693.41	  382.44
     76.7700	  701.00	  689.81	-1723.31	  382.53
     76.8700	  699.00	  683.29	-1718.79	  382.62
     76.9700	  671.00	  669.57	-1733.07	  382.71
     77.0700	  599.00	  650.97	-1786.47	  382.79
     77.1700	  639.00	  629.98	-1725.48	  382.88
     77.2700	  585.00	  608.72	-1758.22	  382.96
     77.3700	  578.00	  588.77	-1745.27	  383.04
     77.4700	  540.00	  571.15	-1765.65	  383.13
     77.5700	  560.00	  556.37	-1730.87	  383.21
     77.6700	  520.00	  544.54	-1759.04	  383.29
     77.7700	  538.00	  535.47	-1731.97	  383.37
     77.8700	  531.00	  528.56	-1732.06	  383.45
     77.9700	  512.00	  523.77	-1746.27	  383.52
     78.0700	  525.00	  520.43	-1729.93	  383.60
     78.1700	  494.00	  518.14	-1758.64	  383.67
     78.2700	  489.00	  516.59	-1762.09	  383.75
     78.3700	  462.00	  515.54	-1788.04	  383.82
     78.4700	  524.00	  514.84	-1725.34	  383.89
     78.5700	  476.00	  514.38	-1772.88	  383.96
     78.6700	  497.00	  514.10	-1751.60	  384.03
     78.7700	  517.00	  513.97	-1731.47	  384.10
     78.8700	  516.00	  513.99	-1732.49	  384.16
     78.9700	  496.00	  514.16	-1752.66	  384.23
     79.0700	  491.00	  514.50	-1758.00	  384.29
     79.1700	  475.00	  515.03	-1774.53	  384.36
     79.2700	  466.00	  515.80	-1784.30	  384.42
     79.3700	  494.00	  516.83	-1757.33	  384.48
     79.4700	  513.00	  518.17	-1739.67	  384.54
     79.5700	  501.00	  519.85	-1753.35	  384.60
     79.6700	  521.00	  521.94	-1735.44	  384.66
     79.7700	  518.00	  524.48	-1740.98	  384.71
     79.8700	  531.00	  527.54	-1731.04	  384.77
     79.9700	  525.00	  531.21	-1740.71	  384.82
     80.0700	  560.00	  535.59	-1710.09	  384.87
     80.1700	  540.00	  540.84	-1735.34	  384.93
     80.2700	  564.00	  546.95	-1717.45	  384.98
     80.3700	  585.00	  554.60	-1704.10	  385.02
     80.4700	  534.00	  563.87	-1764.37	  385.07
     80.5700	  563.00	  575.05	-1746.55	  385.12
     80.6700	  569.00	  588.26	-1753.76	  385.16
     80.7700	  590.00	  603.39	-1747.89	  385.21
     80.8700	  561.00	  620.08	-1793.58	  385.25
     80.9700	  626.00	  637.61	-1746.11	  385.29
     81.0700	  674.00	  655.03	-1715.53	  385.33
     81.1700	  677.00	  671.24	-1728.74	  385.37
     81.2700	  704.00	  685.20	-1715.70	  385.40
     81.3700	  685.00	  696.02	-1745.52	  385.44
     81.4700	  709.00	  703.03	-1728.53	  385.47
     81.5700	  706.00	  705.80	-1734.30	  385.50
     81.6700	  735.00	  704.21	-1703.71	  385.54
     81.7700	  761.00	  698.40	-1671.90	  385.57
     81.8700	  717.00	  688.69	-1706.19	  385.59
     81.9700	  672.00	  675.65	-1738.15	  385.62
     82.0700	  689.00	  660.17	-1705.67	  385.65
     82.1700	  625.00	  643.37	-1752.87	  385.67
     82.2700	  706.00	  626.33	-1654.83	  385.69
     82.3700	  628.00	  609.91	-1716.41	  385.72
     82.4700	  614.00	  594.68	-1715.18	  385.74
     82.5700	  641.00	  580.99	-1674.49	  385.76
     82.6700	  567.00	  569.04	-1736.54	  385.77
     82.7700	  537.00	  558.95	-1756.45	  385.79
     82.8700	  577.00	  550.80	-1708.30	  385.80
     82.9700	  554.00	  544.58	-1725.08	  385.82
     83.0700	  537.00	  540.23	-1737.73	  385.83
     83.1700	  570.00	  537.66	-1702.17	  385.84
     83.2700	  555.00	  536.77	-1716.27	  385.85
     83.3700	  544.00	  537.34	-1727.84	  385.85
     83.4700	  531.00	  539.32	-1742.82	  385.86
     83.5700	  481.00	  542.43	-1795.93	  385.86
     83.6700	  545.00	  546.32	-1735.82	  385.87
     83.7700	  549.00	  550.71	-1736.21	  385.87
     83.8700	  539.00	  555.13	-1750.63	  385.87
     83.9700	  541.00	  559.05	-1752.55	  385.86
     84.0700	  541.00	  561.94	-1755.44	  385.86
     84.1700	  521.00	  563.31	-1776.81	  385.86
     84.2700	  506.00	  562.87	-1791.37	  385.85
     84.3700	  557.00	  560.62	-1738.12	  385.84
     84.4700	  530.00	  556.89	-1761.39	  385.83
     84.5700	  539.00	  552.12	-1747.62	  385.82
     84.6700	  531.00	  546.79	-1750.29	  385.81
     84.7700	  559.00	  541.35	-1716.85	  385.79
     84.8700	  544.00	  536.14	-1726.64	  385.78
     84.9700	  511.00	  531.39	-1754.89	  385.76
     85.0700	  519.00	  527.27	-1742.77	  385.74
     85.1700	  497.00	  523.84	-1761.34	  385.72
     85.2700	  531.00	  521.12	-1724.62	  385.70
     85.3700	  490.00	  519.05	-1763.55	  385.68
     85.4700	  484.00	  517.57	-1768.07	  385.65
     85.5700	  502.00	  516.60	-1749.10	  385.63
     85.6700	  501.00	  516.07	-1749.57	  385.60
     85.7700	  530.00	  515.94	-1720.44	  385.57
     85.8700	  538.00	  516.17	-1712.67	  385.54
     85.9700	  465.00	  516.80	-1786.30	  385.50
     86.0700	  476.00	  517.88	-1776.38	  385.47
     86.1700	  515.00	  519.52	-1739.02	  385.43
     86.2700	  537.00	  521.84	-1719.34	  385.40
     86.3700	  509.00	  525.01	-1750.51	  385.36
     86.4700	  537.00	  529.20	-1726.70	  385.32
     86.5700	  550.00	  534.58	-1719.08	  385.27
     86.6700	  528.00	  541.29	-1747.79	  385.23
     86.7700	  522.00	  549.37	-1761.87	  385.18
     86.8700	  537.00	  558.80	-1756.30	  385.14
     86.9700	  548.00	  569.41	-1755.91	  385.09
     87.0700	  578.00	  580.87	-1737.37	  385.04
     87.1700	  619.00	  592.70	-1708.20	  384.99
     87.2700	  615.00	  604.23	-1723.73	  384.93
     87.3700	  592.00	  614.63	-1757.13	  384.88
     87.4700	  637.00	  622.98	-1720.48	  384.82
     87.5700	  606.00	  628.38	-1756.88	  384.76
     87.6700	  605.00	  630.15	-1759.65	  384.70
     87.7700	  642.00	  628.14	-1720.64	  384.64
     87.8700	  655.00	  622.69	-1702.19	  384.58
     87.9700	  638.00	  614.61	-1711.11	  384.51
     88.0700	  561.00	  604.48	-1777.98	  384.44
     88.1700	  595.00	  594.10	-1733.60	  384.38
     88.2700	  596.00	  583.93	-1722.43	  384.31
     88.3700	  584.00	  574.67	-1725.17	  384.23
     88.4700	  557.00	  566.88	-1744.38	  384.16
     88.5700	  538.00	  560.89	-1757.39	  384.09
     88.6700	  553.00	  556.91	-1738.41	  384.01
     88.7700	  561.00	  554.94	-1728.44	  383.93
     88.8700	  568.00	  554.85	-1721.35	  383.85
     88.9700	  560.00	  556.37	-1730.87	  383.77
     89.0700	  586.00	  559.15	-1707.65	  383.69
     89.1700	  584.00	  562.72	-1713.22	  383.60
     89.2700	  530.00	  566.57	-1771.07	  383.52
     89.3700	  596.00	  570.13	-1708.63	  383.43
     89.4700	  622.00	  572.86	-1685.36	  383.34
     89.5700	  597.00	  574.25	-1711.75	  383.25
     89.6700	  599.00	  574.00	-1709.50	  383.16
     89.7700	  558.00	  572.05	-1748.55	  383.06
     89.8700	  592.00	  568.59	-1711.09	  382.97
     89.9700	  626.00	  563.98	-1672.48	  382.87
     90.0700	  519.00	  558.64	-1774.14	  382.77
     90.1700	  514.00	  552.98	-1773.48	  382.67
     90.2700	  495.00	  547.35	-1786.85	  382.57
     90.3700	  506.00	  542.04	-1770.54	  382.47
     90.4700	  548.00	  537.23	-1723.73	  382.36
     90.5700	  488.00	  533.06	-1779.56	  382.25
     90.6700	  521.00	  529.60	-1743.10	  382.14
     90.7700	  544.00	  526.84	-1717.34	  382.03
     90.8700	  502.00	  524.76	-1757.26	  381.92
     90.9700	  506.00	  523.30	-1751.80	  381.81
     91.0700	  538.00	  522.41	-1718.91	  381.69
     91.1700	  542.00	  522.03	-1714.53	  381.58
     91.2700	  544.00	  522.12	-1712.62	  381.46
     91.3700	  546.00	  522.66	-1711.16	  381.34
     91.4700	  503.00	  523.68	-1755.18	  381.22
     91.5700	  528.00	  525.23	-1731.73	  381.09
     91.6700	  544.00	  527.41	-1717.91	  380.97
     91.7700	  502.00	  530.35	-1762.85	  380.84
     91.8700	  484.00	  534.22	-1784.72	  380.72
     91.9700	  533.00	  539.19	-1740.69	  380.59
     92.0700	  536.00	  545.46	-1743.96	  380.46
     92.1700	  501.00	  553.22	-1786.72	  380.32
     92.2700	  542.00	  562.63	-1755.13	  380.19
     92.3700	  503.00	  573.79	-1805.29	  380.06
     92.4700	  532.00	  586.75	-1789.25	  379.92
     92.5700	  569.00	  601.43	-1766.93	  379.78
     92.6700	  617.00	  617.67	-1735.17	  379.64
     92.7700	  618.00	  635.15	-1751.65	  379.50
     92.8700	  634.00	  653.42	-1753.92	  379.36
     92.9700	  620.00	  671.91	-1786.41	  379.21
     93.0700	  717.00	  689.92	-1707.43	  379.07
     93.1700	  729.00	  706.73	-1712.23	  378.92
     93.2700	  710.00	  721.40	-1745.90	  378.77
     93.3700	  740.00	  734.19	-1728.69	  378.62
     93.4700	  754.00	  744.83	-1725.33	  378.47
     93.5700	  758.00	  753.69	-1730.19	  378.31
     93.6700	  776.00	  761.31	-1719.81	  378.16
     93.7700	  820.00	  768.26	-1682.76	  378.00
     93.8700	  820.00	  775.00	-1689.50	  377.84
     93.9700	  834.00	  781.94	-1682.44	  377.68
     94.0700	  808.00	  789.42	-1715.92	  377.52
     94.1700	  796.00	  797.84	-1736.34	  377.36
     94.2700	  807.00	  807.58	-1735.08	  377.20
     94.3700	  875.00	  818.88	-1678.38	  377.03
     94.4700	  864.00	  831.69	-1702.19	  376.87
     94.5700	  869.00	  845.55	-1711.05	  376.70
     94.6700	  927.00	  859.62	-1667.12	  376.53
     94.7700	  853.00	  872.63	-1754.13	  376.36
     94.8700	  877.00	  883.03	-1740.53	  376.19
     94.9700	  886.00	  889.19	-1737.69	  376.01
     95.0700	  831.00	  889.69	-1793.19	  375.84
     95.1700	  919.00	  883.73	-1699.23	  375.66
     95.2700	  858.00	  871.31	-1747.81	  375.49
     95.3700	  864.00	  853.32	-1723.82	  375.31
     95.4700	  821.00	  831.22	-1744.72	  375.13
     95.5700	  803.00	  806.81	-1738.31	  374.95
     95.6700	  740.00	  781.94	-1776.44	  374.76
     95.7700	  764.00	  758.39	-1728.89	  374.58
     95.8700	  742.00	  737.81	-1730.31	  374.39
     95.9700	  678.00	  721.70	-1778.20	  374.21
     96.0700	  720.00	  711.39	-1725.89	  374.02
     96.1700	  673.00	  708.02	-1769.52	  373.83
     96.2700	  721.00	  712.60	-1726.10	  373.64
     96.3700	  703.00	  725.91	-1757.41	  373.45
     96.4700	  738.00	  748.54	-1745.04	  373.26
     96.5700	  719.00	  780.80	-1796.30	  373.06
     96.6700	  831.00	  822.69	-1726.19	  372.87
     96.7700	  845.00	  873.85	-1763.35	  372.67
     96.8700	  969.00	  933.47	-1698.97	  372.47
     96.9700	  990.00	 1000.18	-1744.68	  372.27
     97.0700	 1081.00	 1072.09	-1725.59	  372.07
     97.1700	 1115.00	 1146.66	-1766.16	  371.87
     97.2700	 1196.00	 1220.78	-1759.28	  371.67
     97.3700	 1255.00	 1290.80	-1770.30	  371.47
     97.4700	 1310.00	 1352.56	-1777.06	  371.26
     97.5700	 1386.00	 1401.83	-1750.33	  371.06
     97.6700	 1463.00	 1434.81	-1706.31	  370.85
     97.7700	 1466.00	 1448.83	-1717.33	  370.64
     97.8700	 1438.00	 1442.96	-1739.46	  370.43
     97.9700	 1356.00	 1418.27	-1796.77	  370.22
     98.0700	 1315.00	 1377.44	-1796.94	  370.01
     98.1700	 1350.00	 1324.18	-1708.68	  369.80
     98.2700	 1274.00	 1262.54	-1723.04	  369.59
     98.3700	 1189.00	 1196.52	-1742.02	  369.37
     98.4700	 1101.00	 1129.80	-1763.30	  369.16
     98.5700	 1062.00	 1065.61	-1738.11	  368.94
     98.6700	 1021.00	 1006.70	-1720.20	  368.73
     98.7700	  926.00	  955.37	-1763.87	  368.51
     98.8700	  903.00	  913.45	-1744.95	  368.29
     98.9700	  896.00	  882.39	-1720.89	  368.07
     99.0700	  852.00	  863.31	-1745.81	  367.85
     99.1700	  827.00	  856.98	-1764.48	  367.63
     99.2700	  831.00	  863.91	-1767.41	  367.41
     99.3700	  849.00	  884.35	-1769.85	  367.18
     99.4700	  955.00	  918.27	-1697.77	  366.96
     99.5700	  972.00	  965.51	-1728.01	  366.74
     99.6700	 1011.00	 1025.52	-1749.02	  366.51
     99.7700	 1120.00	 1097.41	-1711.91	  366.28
     99.8700	 1164.00	 1179.91	-1750.41	  366.06
     99.9700	 1340.00	 1271.23	-1665.73	  365.83
    100.0700	 1344.00	 1369.05	-1759.55	  365.60
    100.1700	 1427.00	 1470.47	-1777.97	  365.37
    100.2700	 1617.00	 1571.99	-1689.49	  365.14
    100.3700	 1715.00	 1669.74	-1689.24	  364.91
    100.4700	 1735.00	 1759.76	-1759.26	  364.68
    100.5700	 1890.00	 1838.43	-1682.93	  364.45
    100.6700	 1901.00	 1902.80	-1736.30	  364.21
    100.7700	 1923.00	 1950.84	-1762.34	  363.98
    100.8700	 2051.00	 1981.22	-1664.72	  363.75
    100.9700	 2048.00	 1993.10	-1679.60	  363.51
    101.0700	 2004.00	 1986.04	-1716.54	  363.28
    101.1700	 1942.00	 1960.20	-1752.70	  363.04
    101.2700	 1941.00	 1916.68	-1710.18	  362.81
    101.3700	 1860.00	 1857.78	-1732.28	  362.57
    101.4700	 1748.00	 1787.00	-1773.50	  362.33
    101.5700	 1656.00	 1708.60	-1787.10	  362.09
    101.6700	 1641.00	 1627.04	-1720.54	  361.86
    101.7700	 1552.00	 1546.45	-1728.95	  361.62
    101.8700	 1459.00	 1470.25	-1745.75	  361.38
    101.9700	 1311.00	 1401.02	-1824.52	  361.14
    102.0700	 1347.00	 1340.39	-1727.89	  360.90
    102.1700	 1328.00	 1289.09	-1695.59	  360.66
    102.2700	 1254.00	 1247.01	-1727.51	  360.42
    102.3700	 1174.00	 1213.28	-1773.78	  360.18
    102.4700	 1239.00	 1186.37	-1681.87	  359.94
    102.5700	 1171.00	 1164.26	-1727.76	  359.70
    102.6700	 1137.00	 1144.58	-1742.08	  359.46
    102.7700	 1113.00	 1124.95	-1746.45	  359.21
    102.8700	 1103.00	 1103.30	-1734.80	  358.97
    102.9700	 1050.00	 1078.12	-1762.62	  358.73
    103.0700	 1027.00	 1048.69	-1756.19	  358.49
    103.1700	  999.00	 1015.06	-1750.56	  358.25
    103.2700	  973.00	  977.86	-1739.36	  358.00
    103.3700	  902.00	  938.10	-1770.60	  357.76
    103.4700	  904.00	  896.93	-1727.43	  357.52
    103.5700	  841.00	  855.50	-1749.00	  357.28
    103.6700	  822.00	  814.86	-1727.36	  357.03
    103.7700	  792.00	  775.92	-1718.42	  356.79
    103.8700	  749.00	  739.42	-1724.92	  356.55
    103.9700	  763.00	  705.93	-1677.43	  356.31
    104.0700	  722.00	  675.82	-1688.32	  356.06
    104.1700	  615.00	  649.29	-1768.79	  355.82
    104.2700	  644.00	  626.35	-1716.85	  355.58
    104.3700	  651.00	  606.90	-1690.40	  355.34
    104.4700	  649.00	  590.74	-1676.24	  355.10
    104.5700	  657.00	  577.56	-1655.06	  354.85
    104.6700	  575.00	  567.04	-1726.54	  354.61
    104.7700	  593.00	  558.84	-1700.34	  354.37
    104.8700	  591.00	  552.61	-1696.11	  354.13
    104.9700	  570.00	  548.04	-1712.54	  353.89
    105.0700	  542.00	  544.85	-1737.35	  353.65
    105.1700	  557.00	  542.80	-1720.30	  353.41
    105.2700	  523.00	  541.71	-1753.21	  353.17
    105.3700	  551.00	  541.42	-1724.92	  352.93
    105.4700	  532.00	  541.81	-1744.31	  352.69
    105.5700	  536.00	  542.82	-1741.32	  352.45
    105.6700	  553.00	  544.41	-1725.91	  352.22
    105.7700	  513.00	  546.57	-1768.07	  351.98
    105.8700	  553.00	  549.33	-1730.83	  351.74
    105.9700	  568.00	  552.73	-1719.23	  351.51
    106.0700	  549.00	  556.83	-1742.33	  351.27
    106.1700	  582.00	  561.71	-1714.21	  351.04
    106.2700	  568.00	  567.41	-1733.91	  350.80
    106.3700	  575.00	  573.95	-1733.45	  350.57
    106.4700	  562.00	  581.31	-1753.81	  350.34
    106.5700	  576.00	  589.42	-1747.92	  350.10
    106.6700	  618.00	  598.19	-1714.69	  349.87
    106.7700	  614.00	  607.44	-1727.94	  349.64
    106.8700	  651.00	  616.96	-1700.46	  349.41
    106.9700	  661.00	  626.48	-1699.98	  349.18
    107.0700	  610.00	  635.71	-1760.21	  348.96
    107.1700	  676.00	  644.32	-1702.82	  348.73
    107.2700	  610.00	  651.97	-1776.47	  348.50
    107.3700	  642.00	  658.38	-1750.88	  348.28
    107.4700	  688.00	  663.33	-1709.83	  348.05
    107.5700	  644.00	  666.72	-1757.22	  347.83
    107.6700	  646.00	  668.62	-1757.12	  347.61
    107.7700	  694.00	  669.24	-1709.74	  347.39
    107.8700	  675.00	  668.87	-1728.37	  347.17
    107.9700	  669.00	  667.89	-1733.39	  346.95
    108.0700	  655.00	  666.67	-1746.17	  346.73
    108.1700	  626.00	  665.53	-1774.03	  346.52
    108.2700	  667.00	  664.73	-1732.23	  346.30
    108.3700	  616.00	  664.45	-1782.95	  346.09
    108.4700	  684.00	  664.75	-1715.25	  345.88
    108.5700	  629.00	  665.62	-1771.12	  345.67
    108.6700	  691.00	  666.93	-1710.43	  345.46
    108.7700	  695.00	  668.47	-1707.97	  345.25
    108.8700	  669.00	  669.97	-1735.47	  345.04
    108.9700	  684.00	  671.06	-1721.56	  344.84
    109.0700	  676.00	  671.38	-1729.88	  344.64
    109.1700	  662.00	  670.58	-1743.08	  344.43
    109.2700	  697.00	  668.38	-1705.88	  344.23
    109.3700	  671.00	  664.64	-1728.14	  344.04
    109.4700	  691.00	  659.32	-1702.82	  343.84
    109.5700	  634.00	  652.54	-1753.04	  343.64
    109.6700	  660.00	  644.53	-1719.03	  343.45
    109.7700	  618.00	  635.56	-1752.06	  343.26
    109.8700	  605.00	  625.95	-1755.45	  343.07
    109.9700	  567.00	  616.00	-1783.50	  342.88
    110.0700	  573.00	  606.02	-1767.52	  342.70
    110.1700	  601.00	  596.25	-1729.75	  342.51
    110.2700	  551.00	  586.92	-1770.42	  342.33
    110.3700	  572.00	  578.22	-1740.72	  342.15
    110.4700	  549.00	  570.27	-1755.77	  341.97
    110.5700	  599.00	  563.19	-1698.69	  341.80
    110.6700	  574.00	  557.03	-1717.53	  341.62
    110.7700	  557.00	  551.82	-1729.32	  341.45
    110.8700	  543.00	  547.54	-1739.04	  341.28
    110.9700	  582.00	  544.18	-1696.68	  341.12
    111.0700	  567.00	  541.67	-1709.17	  340.95
    111.1700	  550.00	  539.95	-1724.45	  340.79
    111.2700	  596.00	  538.94	-1677.44	  340.63
    111.3700	  556.00	  538.57	-1717.07	  340.47
    111.4700	  550.00	  538.75	-1723.25	  340.32
    111.5700	  519.00	  539.42	-1754.92	  340.16
    111.6700	  521.00	  540.49	-1753.99	  340.01
    111.7700	  578.00	  541.93	-1698.43	  339.87
    111.8700	  566.00	  543.66	-1712.16	  339.72
    111.9700	  550.00	  545.64	-1730.14	  339.58
    112.0700	  532.00	  547.86	-1750.36	  339.44
    112.1700	  566.00	  550.28	-1718.78	  339.30
    112.2700	  511.00	  552.89	-1776.39	  339.17
    112.3700	  548.00	  555.71	-1742.21	  339.04
    112.4700	  521.00	  558.74	-1772.24	  338.91
    112.5700	  581.00	  562.02	-1715.52	  338.79
    112.6700	  594.00	  565.57	-1706.07	  338.66
    112.7700	  541.00	  569.46	-1762.96	  338.54
    112.8700	  580.00	  573.75	-1728.25	  338.43
    112.9700	  586.00	  578.51	-1727.01	  338.31
    113.0700	  592.00	  583.85	-1726.35	  338.20
    113.1700	  578.00	  589.90	-1746.40	  338.10
    113.2700	  633.00	  596.83	-1698.33	  337.99
    113.3700	  597.00	  604.84	-1742.34	  337.89
    113.4700	  648.00	  614.20	-1700.70	  337.80
    113.5700	  614.00	  625.25	-1745.75	  337.70
    113.6700	  638.00	  638.43	-1734.93	  337.61
    113.7700	  685.00	  654.27	-1703.77	  337.52
    113.8700	  671.00	  673.44	-1736.94	  337.44
    113.9700	  742.00	  696.75	-1689.25	  337.36
    114.0700	  771.00	  725.19	-1688.69	  337.28
    114.1700	  844.00	  759.92	-1650.42	  337.21
    114.2700	  832.00	  802.31	-1704.81	  337.14
    114.3700	  894.00	  853.94	-1694.44	  337.08
    114.4700	  908.00	  916.56	-1743.06	  337.02
    114.5700	 1021.00	  992.11	-1705.61	  336.96
    114.6700	 1163.00	 1082.68	-1654.18	  336.90
    114.7700	 1182.00	 1190.49	-1742.99	  336.85
    114.8700	 1319.00	 1317.71	-1733.21	  336.81
    114.9700	 1438.00	 1466.52	-1763.02	  336.77
    115.0700	 1691.00	 1638.84	-1682.34	  336.73
    115.1700	 1901.00	 1836.36	-1669.86	  336.69
    115.2700	 2184.00	 2060.32	-1610.82	  336.67
    115.3700	 2424.00	 2311.35	-1621.85	  336.64
    115.4700	 2793.00	 2589.35	-1530.85	  336.62
    115.5700	 2932.00	 2893.34	-1695.84	  336.60
    115.6700	 3192.00	 3221.43	-1763.93	  336.59
    115.7700	 3617.00	 3570.70	-1688.20	  336.58
    115.8700	 3916.00	 3937.02	-1755.52	  336.58
    115.9700	 4282.00	 4315.13	-1767.63	  336.58
    116.0700	 4767.00	 4698.56	-1666.06	  336.58
    116.1700	 5077.00	 5079.84	-1737.34	  336.59
    116.2700	 5230.00	 5450.46	-1954.96	  336.61
    116.3700	 5770.00	 5800.91	-1765.41	  336.63
    116.4700	 5988.00	 6121.04	-1867.54	  336.65
    116.5700	 6262.00	 6400.41	-1872.91	  336.68
    116.6700	 6683.00	 6628.95	-1680.45	  336.72
    116.7700	 6713.00	 6797.58	-1819.08	  336.76
    116.8700	 6856.00	 6899.07	-1777.57	  336.80
    116.9700	 6651.00	 6928.96	-2012.46	  336.85
    117.0700	 6938.00	 6886.12	-1682.62	  336.90
    117.1700	 6784.00	 6772.86	-1723.36	  336.96
    117.2700	 6461.00	 6594.60	-1868.10	  337.03
    117.3700	 6274.00	 6359.28	-1819.78	  337.10
    117.4700	 6016.00	 6076.35	-1794.85	  337.17
    117.5700	 5825.00	 5756.11	-1665.61	  337.25
    117.6700	 5335.00	 5408.78	-1808.28	  337.34
    117.7700	 5021.00	 5044.09	-1757.59	  337.43
    117.8700	 4629.00	 4671.16	-1776.66	  337.53
    117.9700	 4270.00	 4298.04	-1762.54	  337.63
    118.0700	 4163.00	 3931.76	-1503.26	  337.74
    118.1700	 3676.00	 3578.09	-1636.59	  337.85
    118.2700	 3368.00	 3241.64	-1608.14	  337.97
    118.3700	 3109.00	 2926.02	-1551.52	  338.10
    118.4700	 2660.00	 2633.70	-1708.20	  338.23
    118.5700	 2392.00	 2366.23	-1708.73	  338.36
    118.6700	 2210.00	 2124.19	-1648.69	  338.51
    118.7700	 1876.00	 1907.45	-1765.95	  338.66
    118.8700	 1719.00	 1715.32	-1730.82	  338.81
    118.9700	 1486.00	 1546.59	-1795.09	  338.98
    119.0700	 1393.00	 1399.71	-1741.21	  339.14
    119.1700	 1267.00	 1272.83	-1740.33	  339.32
    119.2700	 1185.00	 1163.99	-1713.49	  339.50
    119.3700	 1077.00	 1071.20	-1728.70	  339.69
    119.4700	  959.00	  992.50	-1768.00	  339.88
    119.5700	  927.00	  926.03	-1733.53	  340.08
    119.6700	  873.00	  870.04	-1731.54	  340.29
    119.7700	  836.00	  822.97	-1721.47	  340.50
    119.8700	  777.00	  783.44	-1740.94	  340.72
    119.9700	  701.00	  750.23	-1783.73	  340.95
    120.0700	  705.00	  722.32	-1751.82	  341.18
    120.1700	  642.00	  698.83	-1791.33	  341.42
    120.2700	  667.00	  679.03	-1746.53	  341.67
    120.3700	  621.00	  662.31	-1775.81	  341.93
    120.4700	  670.00	  648.19	-1712.69	  342.19
    120.5700	  586.00	  636.25	-1784.75	  342.46
    120.6700	  602.00	  626.18	-1758.68	  342.73
    120.7700	  604.00	  617.72	-1748.22	  343.02
    120.8700	  618.00	  610.64	-1727.14	  343.31
    120.9700	  545.00	  604.79	-1794.29	  343.61
    121.0700	  561.00	  600.03	-1773.53	  343.91
    121.1700	  581.00	  596.24	-1749.74	  344.23
    121.2700	  561.00	  593.34	-1766.84	  344.55
    121.3700	  574.00	  591.25	-1751.75	  344.88
    121.4700	  615.00	  589.90	-1709.40	  345.21
    121.5700	  593.00	  589.24	-1730.74	  345.56
    121.6700	  580.00	  589.21	-1743.71	  345.91
    121.7700	  574.00	  589.76	-1750.26	  346.27
    121.8700	  574.00	  590.83	-1751.33	  346.64
    121.9700	  563.00	  592.36	-1763.86	  347.02
    122.0700	  588.00	  594.30	-1740.80	  347.40
    122.1700	  574.00	  596.57	-1757.07	  347.79
    122.2700	  607.00	  599.10	-1726.60	  348.20
    122.3700	  580.00	  601.82	-1756.32	  348.61
    122.4700	  572.00	  604.64	-1767.14	  349.02
    122.5700	  570.00	  607.46	-1771.96	  349.45
    122.6700	  670.00	  610.21	-1674.71	  349.89
    122.7700	  598.00	  612.77	-1749.27	  350.33
    122.8700	  682.00	  615.07	-1667.57	  350.78
    122.9700	  621.00	  617.00	-1730.50	  351.25
    123.0700	  622.00	  618.51	-1731.01	  351.72
    123.1700	  662.00	  619.52	-1692.02	  352.20
    123.2700	  612.00	  620.02	-1742.52	  352.68
    123.3700	  611.00	  619.95	-1743.45	  353.18
    123.4700	  581.00	  619.37	-1772.87	  353.69
    123.5700	  648.00	  618.30	-1704.80	  354.21
    123.6700	  655.00	  616.77	-1696.27	  354.73
    123.7700	  602.00	  614.85	-1747.35	  355.27
    123.8700	  660.00	  612.59	-1687.09	  355.81
    123.9700	  634.00	  610.06	-1710.56	  356.36
    124.0700	  625.00	  607.33	-1716.83	  356.93
    124.1700	  643.00	  604.45	-1695.95	  357.50
    124.2700	  650.00	  601.50	-1686.00	  358.08
    124.3700	  602.00	  598.50	-1731.00	  358.68
    124.4700	  595.00	  595.54	-1735.04	  359.28
    124.5700	  559.00	  592.66	-1768.16	  359.89
    124.6700	  575.00	  589.88	-1749.38	  360.51
    124.7700	  576.00	  587.24	-1745.74	  361.15
    124.8700	  577.00	  584.77	-1742.27	  361.79
    124.9700	  593.00	  474.64	-1616.14	  362.44
    125.0700	  541.00	  475.30	-1734.50	  363.11
    125.1700	  576.00	  475.97	-1734.50	  363.78
    125.2700	  566.00	  476.66	-1734.50	  364.47
    125.3700	  533.00	  477.35	-1734.50	  365.16
    125.4700	  522.00	  478.06	-1734.50	  365.87
    125.5700	  549.00	  478.78	-1734.50	  366.58
    125.6700	  565.00	  479.50	-1734.50	  367.31
    125.7700	  557.00	  480.24	-1734.50	  368.05
    125.8700	  556.00	  480.99	-1734.50	  368.80
    125.9700	  593.00	  481.75	-1734.50	  369.56
    126.0700	  556.00	  482.53	-1734.50	  370.33
    126.1700	  587.00	  483.31	-1734.50	  371.12
    126.2700	  541.00	  484.10	-1734.50	  371.91
    126.3700	  514.00	  484.91	-1734.50	  372.72
    126.4700	  571.00	  485.73	-1734.50	  373.53
    126.5700	  536.00	  486.56	-1734.50	  374.36
    126.6700	  549.00	  487.40	-1734.50	  375.20
    126.7700	  574.00	  488.25	-1734.50	  376.06
    126.8700	  636.00	  489.11	-1734.50	  376.92
    126.9700	  575.00	  489.99	-1734.50	  377.80
    127.0700	  636.00	  490.88	-1734.50	  378.68
    127.1700	  548.00	  491.78	-1734.50	  379.59
    127.2700	  599.00	  492.69	-1734.50	  380.50
    127.3700	  586.00	  493.61	-1734.50	  381.42
    127.4700	  643.00	  494.55	-1734.50	  382.36
    127.5700	  615.00	  495.50	-1734.50	  383.31
    127.6700	  593.00	  496.46	-1734.50	  384.27
    127.7700	  660.00	  497.44	-1734.50	  385.25
    127.8700	  664.00	  498.43	-1734.50	  386.23
    127.9700	  698.00	  499.43	-1734.50	  387.23
    128.0700	  711.00	  500.44	-1734.50	  388.25
    128.1700	  654.00	  501.46	-1734.50	  389.27
    128.2700	  705.00	  502.50	-1734.50	  390.31
    128.3700	  730.00	  503.55	-1734.50	  391.36
    128.4700	  746.00	  504.62	-1734.50	  392.43
    128.5700	    0.00	  505.70	-1734.50	  393.51
    128.6700	    0.00	  506.79	-1734.50	  394.60
     12.3285	        	        	        	        	       0	(  0  0  2)	  0  1
     24.9318	        	        	        	        	       0	(  0  0  4)	  0  1
     28.3805	        	        	        	        	       0	(  1  0  0)	  0  1
     29.0788	        	        	        	        	       0	(  1  0  1)	  0  1
     31.0883	        	        	        	        	       0	(  1  0  2)	  0  1
     34.2018	        	        	        	        	       0	(  1  0  3)	  0  1
     37.8526	        	        	        	        	       0	(  0  0  6)	  0  1
     38.1856	        	        	        	        	       0	(  1  0  4)	  0  1
     42.8438	        	        	        	        	       0	(  1  0  5)	  0  1
     48.0372	        	        	        	        	       0	(  1  0  6)	  0  1
     50.3571	        	        	        	        	       0	(  1  1  0)	  0  1
     51.2985	        	        	        	        	       0	(  0  0  8)	  0  1
     52.0834	        	        	        	        	       0	(  1  1  2)	  0  1
     53.6782	        	        	        	        	       0	(  1  0  7)	  0  1
     57.0408	        	        	        	        	       0	(  1  1  4)	  0  1
     58.8714	        	        	        	        	       0	(  2  0  0)	  0  1
     59.2637	        	        	        	        	       0	(  2  0  1)	  0  1
     59.7205	        	        	        	        	       0	(  1  0  8)	  0  1
     60.4315	        	        	        	        	       0	(  2  0  2)	  0  1
     62.3487	        	        	        	        	       0	(  2  0  3)	  0  1
     64.7514	        	        	        	        	       0	(  1  1  6)	  0  1
     64.9783	        	        	        	        	       0	(  2  0  4)	  0  1
     65.5562	        	        	        	        	       0	(  0  0 10)	  0  1
     66.1503	        	        	        	        	       0	(  1  0  9)	  0  1
     68.2798	        	        	        	        	       0	(  2  0  5)	  0  1
     72.2163	        	        	        	        	       0	(  2  0  6)	  0  1
     72.9819	        	        	        	        	       0	(  1  0 10)	  0  1
     74.8120	        	        	        	        	       0	(  1  1  8)	  0  1
     76.7614	        	        	        	        	       0	(  2  0  7)	  0  1
     80.2576	        	        	        	        	       0	(  1  0 11)	  0  1
     81.0734	        	        	        	        	       0	(  0  0 12)	  0  1
     81.1661	        	        	        	        	       0	(  2  1  0)	  0  1
     81.5069	        	        	        	        	       0	(  2  1  1)	  0  1
     81.9049	        	        	        	        	       0	(  2  0  8)	  0  1
     82.5275	        	        	        	        	       0	(  2  1  2)	  0  1
     84.2234	        	        	        	        	       0	(  2  1  3)	  0  1
     86.5898	        	        	        	        	       0	(  2  1  4)	  0  1
     87.1160	        	        	        	        	       0	(  1  1 10)	  0  1
     87.6591	        	        	        	        	       0	(  2  0  9)	  0  1
     88.0534	        	        	        	        	       0	(  1  0 12)	  0  1
     89.6247	        	        	        	        	       0	(  2  1  5)	  0  1
     93.3338	        	        	        	        	       0	(  2  1  6)	  0  1
     94.0665	        	        	        	        	       0	(  2  0 10)	  0  1
     95.0982	        	        	        	        	       0	(  3  0  0)	  0  1
     95.4367	        	        	        	        	       0	(  3  0  1)	  0  1
     96.4535	        	        	        	        	       0	(  3  0  2)	  0  1
     96.4935	        	        	        	        	       0	(  1  0 13)	  0  1
     97.7374	        	        	        	        	       0	(  2  1  7)	  0  1
     98.1528	        	        	        	        	       0	(  3  0  3)	  0  1
     98.6666	        	        	        	        	       0	(  0  0 14)	  0  1
    100.5446	        	        	        	        	       0	(  3  0  4)	  0  1
    101.2137	        	        	        	        	       0	(  2  0 11)	  0  1
    102.0363	        	        	        	        	       0	(  1  1 12)	  0  1
    102.8791	        	        	        	        	       0	(  2  1  8)	  0  1
    103.6483	        	        	        	        	       0	(  3  0  5)	  0  1
    105.7814	        	        	        	        	       0	(  1  0 14)	  0  1
    107.4997	        	        	        	        	       0	(  3  0  6)	  0  1
    108.8413	        	        	        	        	       0	(  2  1  9)	  0  1
    109.2585	        	        	        	        	       0	(  2  0 12)	  0  1
    112.1619	        	        	        	        	       0	(  3  0  7)	  0  1
    115.7727	        	        	        	        	       0	(  2  1 10)	  0  1
    116.2753	        	        	        	        	       0	(  1  0 15)	  0  1
    116.9215	        	        	        	        	       0	(  2  2  0)	  0  1
    117.7453	        	        	        	        	       0	(  3  0  8)	  0  1
    118.4455	        	        	        	        	       0	(  2  2  2)	  0  1
    118.4908	        	        	        	        	       0	(  2  0 13)	  0  1
    120.2561	        	        	        	        	       0	(  0  0 16)	  0  1
    120.9740	        	        	        	        	       0	(  1  1 14)	  0  1
    123.1612	        	        	        	        	       0	(  2  2  4)	  0  1
    123.9504	        	        	        	        	       0	(  2  1 11)	  0  1
    124.4485	        	        	        	        	       0	(  3  0  9)	  0  1
    125.0404	        	        	        	        	       0	(  3  1  0)	  0  1
    125.4536	        	        	        	        	       0	(  3  1  1)	  0  1
    126.7066	        	        	        	        	       0	(  3  1  2)	  0  1
    128.7023	        	        	        	        	       0	(  1  0 16)	  0  1
    128.8421	        	        	        	        	       0	(  3  1  3)	  0  1
    129.4987	        	        	        	        	       0	(  2  0 14)	  0  1
    131.6692	        	        	        	        	       0	(  2  2  6)	  0  1
    131.9456	        	        	        	        	       0	(  3  1  4)	  0  1
    132.6574	        	        	        	        	       0	(  3  0 10)	  0  1
    133.9473	        	        	        	        	       0	(  2  1 12)	  0  1
    136.1763	        	        	        	        	       0	(  3  1  5)	  0  1
    141.8444	        	        	        	        	       0	(  3  1  6)	  0  1
    143.2670	        	        	        	        	       0	(  3  0 11)	  0  1
    143.8066	        	        	        	        	       0	(  2  0 15)	  0  1
    145.0674	        	        	        	        	       0	(  1  0 17)	  0  1
    146.0917	        	        	        	        	       0	(  2  2  8)	  0  1
    147.2917	        	        	        	        	       0	(  2  1 13)	  0  1
    149.6602	        	        	        	        	       0	(  3  1  7)	  0  1
    150.2668	        	        	        	        	       0	(  1  1 16)	  0  1
    154.7942	        	        	        	        	       0	(  0  0 18)	  0  1
    159.5957	        	        	        	        	       0	(  3  0 12)	  0  1
    159.8615	        	        	        	        	       0	(  4  0  0)	  0  1
    160.8707	        	        	        	        	       0	(  4  0  1)	  0  1
    162.1204	        	        	        	        	       0	(  3  1  8)	  0  1
    164.2700	        	        	        	        	       0	(  4  0  2)	  0  1
    172.0331	        	        	        	        	       0	(  2  0 16)	  0  1
    172.8755	        	        	        	        	       0	(  4  0  3)	  0  1
