MSG Master    CELL:    5.90180   5.90180  23.17671   90.0000   90.0000  120.0000   SPGR: P 63/m m c             TEMP:    801.65
  1   1280     2.52000     0.00000    -0.12727     0.00000     0.00000    0
    98     0     2
       0.00000      10.00000
     125.00000     130.00000
 2Theta	Yobs	Ycal	Yobs-Ycal	Backg	Posr	(hkl)	K
      0.7700	    0.00	  505.70	-1759.76	  400.77
      0.8700	    0.00	  507.25	-1759.76	  402.32
      0.9700	   47.00	  508.79	-1759.76	  403.86
      1.0700	   57.00	  510.31	-1759.76	  405.38
      1.1700	   46.00	  511.81	-1759.76	  406.88
      1.2700	   50.00	  513.29	-1759.76	  408.37
      1.3700	   47.00	  514.76	-1759.76	  409.83
      1.4700	   99.00	  516.21	-1759.76	  411.28
      1.5700	  295.00	  517.65	-1759.76	  412.72
      1.6700	  450.00	  519.06	-1759.76	  414.14
      1.7700	  563.00	  520.46	-1759.76	  415.54
      1.8700	  650.00	  521.85	-1759.76	  416.92
      1.9700	  701.00	  523.21	-1759.76	  418.29
      2.0700	  760.00	  524.56	-1759.76	  419.64
      2.1700	  805.00	  525.90	-1759.76	  420.97
      2.2700	  801.00	  527.22	-1759.76	  422.29
      2.3700	  701.00	  528.52	-1759.76	  423.59
      2.4700	  687.00	  529.80	-1759.76	  424.88
      2.5700	  679.00	  531.07	-1759.76	  426.15
      2.6700	  695.00	  532.33	-1759.76	  427.40
      2.7700	  634.00	  533.57	-1759.76	  428.64
      2.8700	  667.00	  534.79	-1759.76	  429.86
      2.9700	  593.00	  536.00	-1759.76	  431.07
      3.0700	  624.00	  537.19	-1759.76	  432.26
      3.1700	  659.00	  538.36	-1759.76	  433.43
      3.2700	  684.00	  539.52	-1759.76	  434.60
      3.3700	  799.00	  540.67	-1759.76	  435.74
      3.4700	  969.00	  541.80	-1759.76	  436.87
      3.5700	 1014.00	  542.92	-1759.76	  437.99
      3.6700	 1119.00	  544.02	-1759.76	  439.09
      3.7700	 1212.00	  545.10	-1759.76	  440.18
      3.8700	 1282.00	  546.18	-1759.76	  441.25
      3.9700	 1414.00	  547.23	-1759.76	  442.30
      4.0700	 1461.00	  548.28	-1759.76	  443.35
      4.1700	 1460.00	  549.30	-1759.76	  444.37
      4.2700	 1494.00	  550.32	-1759.76	  445.39
      4.3700	 1462.00	  551.32	-1759.76	  446.39
      4.4700	 1423.00	  552.30	-1759.76	  447.37
      4.5700	 1320.00	  553.27	-1759.76	  448.35
      4.6700	 1321.00	  554.23	-1759.76	  449.30
      4.7700	 1231.00	  555.18	-1759.76	  450.25
      4.8700	 1220.00	  556.11	-1759.76	  451.18
      4.9700	 1238.00	  557.02	-1759.76	  452.09
      5.0700	 1100.00	  557.93	-1759.76	  453.00
      5.1700	 1129.00	  558.81	-1759.76	  453.89
      5.2700	 1085.00	  559.69	-1759.76	  454.76
      5.3700	 1053.00	  560.55	-1759.76	  455.62
      5.4700	 1048.00	  561.40	-1759.76	  456.47
      5.5700	  977.00	  562.24	-1759.76	  457.31
      5.6700	 1013.00	  563.06	-1759.76	  458.13
      5.7700	  990.00	  563.87	-1759.76	  458.95
      5.8700	  970.00	  564.67	-1759.76	  459.74
      5.9700	  924.00	  565.46	-1759.76	  460.53
      6.0700	  860.00	  566.23	-1759.76	  461.30
      6.1700	  908.00	  566.99	-1759.76	  462.06
      6.2700	  867.00	  567.74	-1759.76	  462.81
      6.3700	  837.00	  568.47	-1759.76	  463.54
      6.4700	  828.00	  569.20	-1759.76	  464.27
      6.5700	  818.00	  569.91	-1759.76	  464.98
      6.6700	  801.00	  570.60	-1759.76	  465.68
      6.7700	  827.00	  571.29	-1759.76	  466.36
      6.8700	  818.00	  571.97	-1759.76	  467.04
      6.9700	  772.00	  572.63	-1759.76	  467.70
      7.0700	  774.00	  573.28	-1759.76	  468.35
      7.1700	  738.00	  573.92	-1759.76	  468.99
      7.2700	  694.00	  574.55	-1759.76	  469.62
      7.3700	  713.00	  575.16	-1759.76	  470.23
      7.4700	  717.00	  575.77	-1759.76	  470.84
      7.5700	  719.00	  576.36	-1759.76	  471.43
      7.6700	  702.00	  576.94	-1759.76	  472.01
      7.7700	  667.00	  577.51	-1759.76	  472.59
      7.8700	  720.00	  578.07	-1759.76	  473.15
      7.9700	  747.00	  578.62	-1759.76	  473.69
      8.0700	  692.00	  579.16	-1759.76	  474.23
      8.1700	  691.00	  579.69	-1759.76	  474.76
      8.2700	  666.00	  580.20	-1759.76	  475.28
      8.3700	  701.00	  580.71	-1759.76	  475.78
      8.4700	  700.00	  581.20	-1759.76	  476.28
      8.5700	  699.00	  581.69	-1759.76	  476.76
      8.6700	  701.00	  582.16	-1759.76	  477.23
      8.7700	  651.00	  582.63	-1759.76	  477.70
      8.8700	  630.00	  583.08	-1759.76	  478.15
      8.9700	  642.00	  583.52	-1759.76	  478.59
      9.0700	  651.00	  583.96	-1759.76	  479.03
      9.1700	  608.00	  584.38	-1759.76	  479.45
      9.2700	  641.00	  584.79	-1759.76	  479.86
      9.3700	  635.00	  585.20	-1759.76	  480.27
      9.4700	  623.00	  585.59	-1759.76	  480.66
      9.5700	  626.00	  585.97	-1759.76	  481.04
      9.6700	  629.00	  586.35	-1759.76	  481.42
      9.7700	  681.00	  586.71	-1759.76	  481.78
      9.8700	  640.00	  587.07	-1759.76	  482.14
      9.9700	  592.00	  587.41	-1759.76	  482.48
     10.0700	  646.00	  590.91	-1704.67	  482.82
     10.1700	  651.00	  591.42	-1700.18	  483.14
     10.2700	  627.00	  591.97	-1724.73	  483.46
     10.3700	  602.00	  592.57	-1750.33	  483.77
     10.4700	  625.00	  593.24	-1728.01	  484.07
     10.5700	  665.00	  594.05	-1688.81	  484.36
     10.6700	  621.00	  595.05	-1733.82	  484.64
     10.7700	  633.00	  596.35	-1723.11	  484.91
     10.8700	  634.00	  598.01	-1723.77	  485.18
     10.9700	  617.00	  600.08	-1742.84	  485.43
     11.0700	  550.00	  602.58	-1812.34	  485.68
     11.1700	  616.00	  605.50	-1749.26	  485.92
     11.2700	  636.00	  608.88	-1732.64	  486.15
     11.3700	  625.00	  612.78	-1747.54	  486.37
     11.4700	  623.00	  617.33	-1754.09	  486.58
     11.5700	  668.00	  622.71	-1714.47	  486.78
     11.6700	  632.00	  629.19	-1756.95	  486.98
     11.7700	  683.00	  637.14	-1713.90	  487.17
     11.8700	  698.00	  646.85	-1708.61	  487.35
     11.9700	  671.00	  658.17	-1746.93	  487.52
     12.0700	  693.00	  669.90	-1736.66	  487.69
     12.1700	  694.00	  679.07	-1744.83	  487.84
     12.2700	  740.00	  680.80	-1700.57	  487.99
     12.3700	  693.00	  671.14	-1737.91	  488.13
     12.4700	  657.00	  653.33	-1756.09	  488.26
     12.5700	  642.00	  635.35	-1753.11	  488.39
     12.6700	  618.00	  621.61	-1763.37	  488.51
     12.7700	  576.00	  612.59	-1796.35	  488.62
     12.8700	  622.00	  607.18	-1744.94	  488.72
     12.9700	  601.00	  604.04	-1762.81	  488.82
     13.0700	  576.00	  602.17	-1785.93	  488.91
     13.1700	  599.00	  600.96	-1761.72	  488.99
     13.2700	  599.00	  600.11	-1760.87	  489.06
     13.3700	  564.00	  599.48	-1795.24	  489.13
     13.4700	  612.00	  599.00	-1746.76	  489.19
     13.5700	  549.00	  598.63	-1809.39	  489.24
     13.6700	  556.00	  598.36	-1802.12	  489.29
     13.7700	  610.00	  598.11	-1747.87	  489.33
     13.8700	  586.00	  597.91	-1771.67	  489.36
     13.9700	  606.00	  597.74	-1751.50	  489.39
     14.0700	  594.00	  597.59	-1763.36	  489.41
     14.1700	  593.00	  597.46	-1764.23	  489.43
     14.2700	  611.00	  597.35	-1746.11	  489.43
     14.3700	  551.00	  597.25	-1806.01	  489.43
     14.4700	  574.00	  597.15	-1782.91	  489.43
     14.5700	  580.00	  597.06	-1776.82	  489.42
     14.6700	  577.00	  596.97	-1779.73	  489.40
     14.7700	  579.00	  596.88	-1777.64	  489.37
     14.8700	  585.00	  596.79	-1771.56	  489.34
     14.9700	  637.00	  596.71	-1719.47	  489.31
     15.0700	  556.00	  596.62	-1800.39	  489.26
     15.1700	  547.00	  596.54	-1809.30	  489.22
     15.2700	  560.00	  596.45	-1796.21	  489.16
     15.3700	  585.00	  596.36	-1771.12	  489.10
     15.4700	  559.00	  596.26	-1797.02	  489.04
     15.5700	  571.00	  596.16	-1784.93	  488.97
     15.6700	  566.00	  596.07	-1789.83	  488.89
     15.7700	  588.00	  595.96	-1767.72	  488.81
     15.8700	  614.00	  595.85	-1741.62	  488.72
     15.9700	  567.00	  595.74	-1788.51	  488.62
     16.0700	  564.00	  595.63	-1791.39	  488.53
     16.1700	  589.00	  595.51	-1766.27	  488.42
     16.2700	  607.00	  595.39	-1748.15	  488.31
     16.3700	  563.00	  595.26	-1792.03	  488.20
     16.4700	  607.00	  595.13	-1747.90	  488.08
     16.5700	  605.00	  595.00	-1749.76	  487.95
     16.6700	  577.00	  594.86	-1777.62	  487.82
     16.7700	  574.00	  594.72	-1780.48	  487.69
     16.8700	  592.00	  594.57	-1762.33	  487.55
     16.9700	  557.00	  594.42	-1797.18	  487.41
     17.0700	  609.00	  594.27	-1745.03	  487.26
     17.1700	  584.00	  594.11	-1769.87	  487.10
     17.2700	  573.00	  593.94	-1780.71	  486.94
     17.3700	  566.00	  593.78	-1787.54	  486.78
     17.4700	  562.00	  593.71	-1791.47	  486.61
     17.5700	  581.00	  593.54	-1772.30	  486.44
     17.6700	  560.00	  593.36	-1793.12	  486.26
     17.7700	  585.00	  593.18	-1767.94	  486.08
     17.8700	  574.00	  593.00	-1778.76	  485.90
     17.9700	  556.00	  592.92	-1796.69	  485.71
     18.0700	  588.00	  592.73	-1764.49	  485.51
     18.1700	  562.00	  592.54	-1790.30	  485.31
     18.2700	  551.00	  592.34	-1801.10	  485.11
     18.3700	  543.00	  592.14	-1808.90	  484.90
     18.4700	  629.00	  591.93	-1722.70	  484.69
     18.5700	  585.00	  591.73	-1766.49	  484.48
     18.6700	  543.00	  591.51	-1808.28	  484.26
     18.7700	  591.00	  591.30	-1760.06	  484.03
     18.8700	  568.00	  591.08	-1782.84	  483.81
     18.9700	  569.00	  590.86	-1781.62	  483.58
     19.0700	  589.00	  590.63	-1761.39	  483.34
     19.1700	  547.00	  590.40	-1803.17	  483.11
     19.2700	  605.00	  590.17	-1744.94	  482.86
     19.3700	  600.00	  589.94	-1749.70	  482.62
     19.4700	  579.00	  589.70	-1770.46	  482.37
     19.5700	  588.00	  589.50	-1761.26	  482.12
     19.6700	  531.00	  589.26	-1818.02	  481.86
     19.7700	  560.00	  589.01	-1788.78	  481.60
     19.8700	  554.00	  588.77	-1794.53	  481.34
     19.9700	  562.00	  588.52	-1786.28	  481.07
     20.0700	  539.00	  588.26	-1809.03	  480.80
     20.1700	  598.00	  588.01	-1749.77	  480.53
     20.2700	  570.00	  587.75	-1777.51	  480.26
     20.3700	  560.00	  587.49	-1787.25	  479.98
     20.4700	  570.00	  587.23	-1776.99	  479.70
     20.5700	  585.00	  586.97	-1761.73	  479.41
     20.6700	  550.00	  586.70	-1796.46	  479.12
     20.7700	  589.00	  586.43	-1757.19	  478.83
     20.8700	  568.00	  586.16	-1777.93	  478.54
     20.9700	  560.00	  585.89	-1785.66	  478.24
     21.0700	  564.00	  585.62	-1781.38	  477.94
     21.1700	  513.00	  585.35	-1832.11	  477.64
     21.2700	  514.00	  585.08	-1830.84	  477.34
     21.3700	  580.00	  584.80	-1764.56	  477.03
     21.4700	  608.00	  584.53	-1736.29	  476.72
     21.5700	  598.00	  584.25	-1746.01	  476.40
     21.6700	  573.00	  583.98	-1770.74	  476.09
     21.7700	  523.00	  583.70	-1820.46	  475.77
     21.8700	  561.00	  583.43	-1782.19	  475.45
     21.9700	  593.00	  583.16	-1749.92	  475.13
     22.0700	  613.00	  582.89	-1729.65	  474.80
     22.1700	  586.00	  582.78	-1756.54	  474.48
     22.2700	  546.00	  582.52	-1796.28	  474.15
     22.3700	  589.00	  582.26	-1753.02	  473.81
     22.4700	  547.00	  582.01	-1794.77	  473.48
     22.5700	  594.00	  581.76	-1747.52	  473.14
     22.6700	  574.00	  581.52	-1767.28	  472.80
     22.7700	  607.00	  581.29	-1734.05	  472.46
     22.8700	  545.00	  581.07	-1795.83	  472.12
     22.9700	  564.00	  580.86	-1776.63	  471.77
     23.0700	  580.00	  580.68	-1760.44	  471.43
     23.1700	  554.00	  580.51	-1786.27	  471.08
     23.2700	  574.00	  580.33	-1766.09	  470.73
     23.3700	  592.00	  580.22	-1747.98	  470.38
     23.4700	  554.00	  580.17	-1785.93	  470.02
     23.5700	  543.00	  580.17	-1796.93	  469.67
     23.6700	  585.00	  580.26	-1755.02	  469.31
     23.7700	  547.00	  580.48	-1793.24	  468.95
     23.8700	  584.00	  580.90	-1756.66	  468.59
     23.9700	  615.00	  581.64	-1726.40	  468.22
     24.0700	  558.00	  582.92	-1784.68	  467.86
     24.1700	  617.00	  585.09	-1727.85	  467.49
     24.2700	  639.00	  588.61	-1709.37	  467.13
     24.3700	  678.00	  594.03	-1675.79	  466.76
     24.4700	  594.00	  601.76	-1767.52	  466.39
     24.5700	  625.00	  611.83	-1746.60	  466.01
     24.6700	  663.00	  623.49	-1720.25	  465.64
     24.7700	  647.00	  634.62	-1747.39	  465.27
     24.8700	  669.00	  641.43	-1732.20	  464.89
     24.9700	  679.00	  639.44	-1720.21	  464.51
     25.0700	  713.00	  628.20	-1674.96	  464.13
     25.1700	  678.00	  613.32	-1695.08	  463.75
     25.2700	  609.00	  600.15	-1750.92	  463.37
     25.3700	  590.00	  590.57	-1760.33	  462.99
     25.4700	  553.00	  584.35	-1791.11	  462.61
     25.5700	  614.00	  580.57	-1726.33	  462.22
     25.6700	  539.00	  578.28	-1799.04	  461.84
     25.7700	  607.00	  576.82	-1729.58	  461.45
     25.8700	  585.00	  575.82	-1750.58	  461.07
     25.9700	  622.00	  575.10	-1712.86	  460.68
     26.0700	  600.00	  574.56	-1734.32	  460.29
     26.1700	  610.00	  574.16	-1723.92	  459.90
     26.2700	  595.00	  573.89	-1738.65	  459.51
     26.3700	  651.00	  573.73	-1682.50	  459.12
     26.4700	  624.00	  573.69	-1709.45	  458.73
     26.5700	  675.00	  573.76	-1658.52	  458.33
     26.6700	  614.00	  573.96	-1719.72	  457.94
     26.7700	  621.00	  574.31	-1713.08	  457.54
     26.8700	  609.00	  574.85	-1725.61	  457.15
     26.9700	  612.00	  575.60	-1723.36	  456.75
     27.0700	  634.00	  576.64	-1702.40	  456.36
     27.1700	  638.00	  578.06	-1699.82	  455.96
     27.2700	  622.00	  580.04	-1717.80	  455.56
     27.3700	  659.00	  582.90	-1683.66	  455.17
     27.4700	  633.00	  587.23	-1713.99	  454.77
     27.5700	  722.00	  594.15	-1631.91	  454.37
     27.6700	  653.00	  605.51	-1712.27	  453.97
     27.7700	  662.00	  624.03	-1721.79	  453.57
     27.8700	  626.00	  652.84	-1786.60	  453.17
     27.9700	  682.00	  694.03	-1771.79	  452.77
     28.0700	  812.00	  746.42	-1694.18	  452.37
     28.1700	  832.00	  803.13	-1730.89	  451.97
     28.2700	  904.00	  849.87	-1705.63	  451.57
     28.3700	  979.00	  867.63	-1648.40	  451.17
     28.4700	  957.00	  849.81	-1652.57	  450.77
     28.5700	  853.00	  819.25	-1726.01	  450.37
     28.6700	  788.00	  804.51	-1776.28	  449.96
     28.7700	  768.00	  815.69	-1807.46	  449.56
     28.8700	  803.00	  845.22	-1801.98	  449.16
     28.9700	  841.00	  872.66	-1791.42	  448.76
     29.0700	  910.00	  871.47	-1721.23	  448.36
     29.1700	  878.00	  828.24	-1710.00	  447.96
     29.2700	  804.00	  761.11	-1716.88	  447.55
     29.3700	  699.00	  697.07	-1757.83	  447.15
     29.4700	  711.00	  648.77	-1697.54	  446.75
     29.5700	  634.00	  617.20	-1742.96	  446.35
     29.6700	  626.00	  598.39	-1732.15	  445.95
     29.7700	  662.00	  587.60	-1685.36	  445.55
     29.8700	  645.00	  581.26	-1696.02	  445.15
     29.9700	  643.00	  577.34	-1694.11	  444.75
     30.0700	  664.00	  574.93	-1670.69	  444.35
     30.1700	  619.00	  573.73	-1714.49	  443.95
     30.2700	  615.00	  573.89	-1718.65	  443.55
     30.3700	  647.00	  575.92	-1688.68	  443.15
     30.4700	  616.00	  580.73	-1724.49	  442.75
     30.5700	  609.00	  589.48	-1740.24	  442.35
     30.6700	  641.00	  603.05	-1721.81	  441.95
     30.7700	  625.00	  621.09	-1755.85	  441.55
     30.8700	  616.00	  641.00	-1784.77	  441.15
     30.9700	  694.00	  657.36	-1723.13	  440.76
     31.0700	  650.00	  662.49	-1772.25	  440.36
     31.1700	  680.00	  651.52	-1731.28	  439.96
     31.2700	  624.00	  629.50	-1765.26	  439.57
     31.3700	  613.00	  606.30	-1753.06	  439.17
     31.4700	  624.00	  587.64	-1723.40	  438.78
     31.5700	  613.00	  574.78	-1721.54	  438.38
     31.6700	  616.00	  566.77	-1710.53	  437.99
     31.7700	  591.00	  562.05	-1730.81	  437.60
     31.8700	  593.00	  559.25	-1726.01	  437.20
     31.9700	  614.00	  557.49	-1703.25	  436.81
     32.0700	  576.00	  556.32	-1740.08	  436.42
     32.1700	  558.00	  555.52	-1757.28	  436.03
     32.2700	  577.00	  555.00	-1737.76	  435.64
     32.3700	  555.00	  554.72	-1759.48	  435.25
     32.4700	  571.00	  554.68	-1743.44	  434.86
     32.5700	  590.00	  554.87	-1724.63	  434.48
     32.6700	  545.00	  555.32	-1770.08	  434.09
     32.7700	  565.00	  556.08	-1750.84	  433.70
     32.8700	  547.00	  557.21	-1769.97	  433.32
     32.9700	  576.00	  558.82	-1742.58	  432.94
     33.0700	  548.00	  561.10	-1772.86	  432.55
     33.1700	  575.00	  564.42	-1749.18	  432.17
     33.2700	  539.00	  569.39	-1790.15	  431.79
     33.3700	  592.00	  577.32	-1745.08	  431.41
     33.4700	  564.00	  590.52	-1786.29	  431.03
     33.5700	  621.00	  612.67	-1751.43	  430.65
     33.6700	  601.00	  648.53	-1807.29	  430.27
     33.7700	  670.00	  702.45	-1792.22	  429.90
     33.8700	  714.00	  774.89	-1820.65	  429.52
     33.9700	  916.00	  858.11	-1701.87	  429.15
     34.0700	  946.00	  933.32	-1747.08	  428.77
     34.1700	 1068.00	  971.90	-1663.66	  428.40
     34.2700	 1015.00	  949.96	-1694.73	  428.03
     34.3700	  946.00	  875.87	-1689.64	  427.66
     34.4700	  823.00	  785.10	-1721.86	  427.29
     34.5700	  701.00	  705.24	-1764.00	  426.92
     34.6700	  667.00	  646.27	-1739.03	  426.56
     34.7700	  612.00	  607.51	-1755.27	  426.19
     34.8700	  567.00	  583.93	-1776.69	  425.83
     34.9700	  588.00	  569.95	-1741.71	  425.46
     35.0700	  578.00	  561.36	-1743.13	  425.10
     35.1700	  541.00	  555.65	-1774.41	  424.74
     35.2700	  552.00	  551.49	-1759.26	  424.38
     35.3700	  511.00	  548.28	-1797.04	  424.02
     35.4700	  543.00	  545.68	-1762.44	  423.66
     35.5700	  575.00	  544.03	-1728.79	  423.31
     35.6700	  518.00	  542.23	-1783.99	  422.95
     35.7700	  530.00	  540.68	-1770.44	  422.60
     35.8700	  538.00	  539.34	-1761.10	  422.25
     35.9700	  518.00	  538.16	-1779.93	  421.90
     36.0700	  547.00	  537.12	-1749.88	  421.55
     36.1700	  536.00	  536.19	-1759.95	  421.20
     36.2700	  524.00	  535.35	-1771.11	  420.85
     36.3700	  520.00	  534.59	-1774.35	  420.51
     36.4700	  538.00	  533.88	-1755.64	  420.16
     36.5700	  498.00	  533.25	-1795.02	  419.82
     36.6700	  549.00	  532.70	-1743.46	  419.48
     36.7700	  489.00	  532.20	-1802.96	  419.14
     36.8700	  518.00	  531.78	-1773.54	  418.80
     36.9700	  518.00	  531.46	-1773.22	  418.47
     37.0700	  499.00	  531.28	-1792.04	  418.13
     37.1700	  548.00	  531.34	-1743.10	  417.80
     37.2700	  515.00	  531.76	-1776.52	  417.47
     37.3700	  504.00	  532.69	-1788.45	  417.13
     37.4700	  536.00	  534.45	-1758.21	  416.81
     37.5700	  575.00	  536.66	-1721.42	  416.48
     37.6700	  526.00	  539.23	-1772.99	  416.15
     37.7700	  540.00	  541.54	-1761.31	  415.83
     37.8700	  543.00	  542.68	-1759.44	  415.50
     37.9700	  509.00	  541.93	-1792.69	  415.18
     38.0700	  547.00	  539.53	-1752.29	  414.86
     38.1700	  518.00	  536.41	-1778.17	  414.54
     38.2700	  530.00	  533.29	-1763.05	  414.23
     38.3700	  541.00	  530.54	-1749.30	  413.91
     38.4700	  495.00	  528.35	-1793.11	  413.60
     38.5700	  490.00	  526.72	-1796.48	  413.29
     38.6700	  488.00	  525.53	-1797.29	  412.98
     38.7700	  484.00	  524.66	-1800.43	  412.67
     38.8700	  507.00	  524.00	-1776.76	  412.36
     38.9700	  500.00	  523.46	-1783.22	  412.05
     39.0700	  513.00	  523.00	-1769.76	  411.75
     39.1700	  471.00	  522.58	-1811.34	  411.45
     39.2700	  540.00	  522.20	-1741.96	  411.15
     39.3700	  507.00	  521.85	-1774.61	  410.85
     39.4700	  499.00	  521.41	-1782.17	  410.55
     39.5700	  497.00	  521.09	-1783.86	  410.26
     39.6700	  481.00	  520.79	-1799.56	  409.96
     39.7700	  539.00	  520.51	-1741.27	  409.67
     39.8700	  500.00	  520.23	-1780.00	  409.38
     39.9700	  513.00	  519.97	-1766.74	  409.09
     40.0700	  519.00	  519.73	-1760.49	  408.80
     40.1700	  493.00	  520.02	-1786.79	  408.52
     40.2700	  500.00	  519.86	-1779.62	  408.24
     40.3700	  456.00	  519.55	-1823.31	  407.95
     40.4700	  495.00	  519.37	-1784.13	  407.67
     40.5700	  539.00	  519.20	-1739.96	  407.40
     40.6700	  496.00	  519.05	-1782.81	  407.12
     40.7700	  494.00	  518.92	-1784.69	  406.85
     40.8700	  518.00	  518.82	-1760.58	  406.57
     40.9700	  507.00	  518.74	-1771.51	  406.30
     41.0700	  498.00	  518.70	-1780.46	  406.03
     41.1700	  476.00	  518.70	-1802.46	  405.77
     41.2700	  548.00	  518.74	-1730.50	  405.50
     41.3700	  533.00	  518.84	-1745.60	  405.24
     41.4700	  533.00	  519.02	-1745.78	  404.97
     41.5700	  494.00	  519.29	-1785.05	  404.71
     41.6700	  533.00	  519.70	-1746.46	  404.46
     41.7700	  489.00	  520.31	-1791.07	  404.20
     41.8700	  542.00	  521.34	-1739.10	  403.94
     41.9700	  495.00	  522.83	-1787.60	  403.69
     42.0700	  492.00	  525.41	-1793.17	  403.44
     42.1700	  547.00	  529.56	-1742.32	  403.19
     42.2700	  514.00	  536.29	-1782.05	  402.94
     42.3700	  553.00	  546.56	-1753.32	  402.70
     42.4700	  543.00	  560.95	-1777.71	  402.45
     42.5700	  545.00	  578.97	-1793.73	  402.21
     42.6700	  558.00	  598.28	-1800.04	  401.97
     42.7700	  613.00	  614.17	-1760.94	  401.74
     42.8700	  589.00	  620.90	-1791.67	  401.50
     42.9700	  561.00	  614.44	-1813.20	  401.26
     43.0700	  578.00	  597.87	-1779.63	  401.03
     43.1700	  594.00	  577.77	-1743.53	  400.80
     43.2700	  526.00	  559.22	-1792.98	  400.57
     43.3700	  561.00	  544.51	-1743.28	  400.35
     43.4700	  535.00	  534.03	-1758.79	  400.12
     43.5700	  492.00	  527.14	-1794.90	  399.90
     43.6700	  515.00	  522.82	-1767.58	  399.68
     43.7700	  540.00	  520.14	-1739.91	  399.46
     43.8700	  477.00	  518.42	-1801.18	  399.24
     43.9700	  506.00	  517.24	-1771.00	  399.03
     44.0700	  510.00	  516.56	-1766.32	  398.81
     44.1700	  526.00	  515.88	-1749.64	  398.60
     44.2700	  526.00	  515.33	-1749.09	  398.39
     44.3700	  511.00	  514.88	-1763.64	  398.18
     44.4700	  506.00	  514.50	-1768.27	  397.98
     44.5700	  524.00	  514.20	-1749.96	  397.77
     44.6700	  504.00	  513.94	-1769.70	  397.57
     44.7700	  534.00	  513.73	-1739.49	  397.37
     44.8700	  506.00	  513.56	-1767.32	  397.17
     44.9700	  539.00	  513.43	-1734.19	  396.97
     45.0700	  574.00	  513.33	-1699.09	  396.78
     45.1700	  510.00	  513.26	-1763.02	  396.59
     45.2700	  553.00	  513.22	-1719.98	  396.40
     45.3700	  501.00	  513.21	-1771.97	  396.21
     45.4700	  490.00	  513.23	-1782.99	  396.02
     45.5700	  501.00	  513.35	-1772.11	  395.83
     45.6700	  526.00	  513.43	-1747.19	  395.65
     45.7700	  506.00	  513.54	-1767.30	  395.47
     45.8700	  552.00	  513.74	-1721.50	  395.29
     45.9700	  509.00	  513.92	-1764.68	  395.11
     46.0700	  495.00	  514.14	-1778.91	  394.94
     46.1700	  476.00	  514.41	-1798.17	  394.76
     46.2700	  516.00	  514.73	-1758.49	  394.59
     46.3700	  558.00	  515.10	-1716.86	  394.42
     46.4700	  528.00	  515.38	-1747.14	  394.25
     46.5700	  521.00	  515.90	-1754.66	  394.09
     46.6700	  517.00	  516.51	-1759.27	  393.92
     46.7700	  501.00	  517.23	-1775.99	  393.76
     46.8700	  521.00	  518.10	-1756.86	  393.60
     46.9700	  500.00	  519.18	-1778.94	  393.44
     47.0700	  521.00	  520.59	-1759.36	  393.28
     47.1700	  476.00	  522.55	-1806.31	  393.13
     47.2700	  495.00	  525.39	-1790.15	  392.98
     47.3700	  522.00	  529.62	-1767.38	  392.82
     47.4700	  551.00	  535.86	-1744.63	  392.68
     47.5700	  540.00	  544.71	-1764.47	  392.53
     47.6700	  557.00	  556.44	-1759.20	  392.38
     47.7700	  560.00	  570.67	-1770.44	  392.24
     47.8700	  568.00	  585.91	-1777.67	  392.10
     47.9700	  584.00	  599.24	-1775.00	  391.96
     48.0700	  597.00	  607.20	-1769.96	  391.82
     48.1700	  605.00	  606.34	-1761.10	  391.68
     48.2700	  626.00	  598.19	-1731.95	  391.55
     48.3700	  563.00	  586.68	-1783.44	  391.41
     48.4700	  549.00	  575.50	-1786.26	  391.28
     48.5700	  567.00	  566.79	-1759.55	  391.15
     48.6700	  515.00	  561.39	-1806.16	  391.03
     48.7700	  594.00	  559.36	-1725.12	  390.90
     48.8700	  579.00	  560.35	-1741.11	  390.78
     48.9700	  534.00	  563.96	-1789.73	  390.66
     49.0700	  550.00	  570.04	-1779.81	  390.54
     49.1700	  596.00	  578.89	-1742.65	  390.42
     49.2700	  579.00	  591.58	-1772.35	  390.30
     49.3700	  563.00	  610.55	-1807.31	  390.19
     49.4700	  575.00	  640.48	-1825.24	  390.07
     49.5700	  628.00	  689.30	-1821.06	  389.96
     49.6700	  706.00	  768.69	-1822.45	  389.85
     49.7700	  830.00	  892.87	-1822.63	  389.75
     49.8700	  933.00	 1074.64	-1901.40	  389.64
     49.9700	 1296.00	 1318.73	-1782.49	  389.54
     50.0700	 1632.00	 1612.99	-1740.75	  389.44
     50.1700	 2004.00	 1919.76	-1675.52	  389.34
     50.2700	 2307.00	 2170.95	-1623.71	  389.24
     50.3700	 2344.00	 2282.48	-1698.24	  389.14
     50.4700	 2356.00	 2205.37	-1609.13	  389.04
     50.5700	 1961.00	 1972.71	-1771.47	  388.95
     50.6700	 1644.00	 1670.25	-1786.01	  388.86
     50.7700	 1265.00	 1372.81	-1867.57	  388.77
     50.8700	  984.00	 1123.73	-1899.49	  388.68
     50.9700	  826.00	  938.34	-1872.10	  388.60
     51.0700	  730.00	  813.58	-1843.34	  388.51
     51.1700	  667.00	  736.33	-1829.09	  388.43
     51.2700	  667.00	  690.56	-1783.32	  388.35
     51.3700	  655.00	  662.10	-1766.86	  388.27
     51.4700	  626.00	  641.17	-1774.93	  388.19
     51.5700	  607.00	  623.19	-1775.95	  388.11
     51.6700	  615.00	  607.13	-1751.90	  388.04
     51.7700	  568.00	  593.31	-1785.07	  387.96
     51.8700	  611.00	  582.05	-1730.81	  387.89
     51.9700	  638.00	  573.42	-1695.18	  387.82
     52.0700	  588.00	  567.26	-1739.03	  387.76
     52.1700	  578.00	  563.27	-1745.03	  387.69
     52.2700	  581.00	  561.10	-1739.87	  387.62
     52.3700	  593.00	  560.54	-1727.30	  387.56
     52.4700	  578.00	  561.53	-1743.29	  387.50
     52.5700	  580.00	  564.32	-1744.08	  387.44
     52.6700	  630.00	  569.57	-1699.33	  387.38
     52.7700	  590.00	  578.61	-1748.37	  387.33
     52.8700	  586.00	  593.59	-1767.35	  387.27
     52.9700	  624.00	  617.61	-1753.37	  387.22
     53.0700	  648.00	  654.45	-1766.21	  387.16
     53.1700	  770.00	  707.76	-1697.52	  387.11
     53.2700	  801.00	  779.68	-1738.45	  387.07
     53.3700	  917.00	  868.99	-1711.76	  387.02
     53.4700	  986.00	  969.08	-1742.84	  386.97
     53.5700	 1172.00	 1065.74	-1653.50	  386.93
     53.6700	 1130.00	 1136.97	-1766.73	  386.89
     53.7700	 1211.00	 1159.56	-1708.32	  386.84
     53.8700	 1195.00	 1124.39	-1689.15	  386.80
     53.9700	  986.00	 1044.94	-1818.70	  386.77
     54.0700	  970.00	  945.85	-1735.61	  386.73
     54.1700	  856.00	  847.84	-1751.60	  386.69
     54.2700	  741.00	  763.04	-1781.80	  386.66
     54.3700	  662.00	  696.50	-1794.26	  386.63
     54.4700	  640.00	  648.38	-1768.14	  386.60
     54.5700	  656.00	  615.98	-1719.74	  386.57
     54.6700	  636.00	  595.48	-1719.24	  386.54
     54.7700	  530.00	  583.20	-1812.96	  386.51
     54.8700	  576.00	  576.25	-1760.01	  386.49
     54.9700	  572.00	  572.69	-1760.45	  386.47
     55.0700	  596.00	  571.34	-1735.10	  386.44
     55.1700	  539.00	  571.59	-1792.36	  386.42
     55.2700	  616.00	  573.16	-1716.93	  386.40
     55.3700	  554.00	  575.97	-1781.73	  386.38
     55.4700	  585.00	  580.06	-1754.82	  386.37
     55.5700	  573.00	  585.62	-1772.38	  386.35
     55.6700	  617.00	  593.02	-1735.78	  386.34
     55.7700	  601.00	  602.95	-1761.71	  386.33
     55.8700	  661.00	  616.72	-1715.48	  386.31
     55.9700	  655.00	  636.71	-1741.48	  386.30
     56.0700	  646.00	  667.02	-1780.78	  386.30
     56.1700	  683.00	  714.13	-1790.89	  386.29
     56.2700	  731.00	  787.21	-1815.97	  386.28
     56.3700	  857.00	  897.51	-1800.27	  386.28
     56.4700	  952.00	 1056.26	-1864.02	  386.27
     56.5700	 1200.00	 1270.80	-1830.56	  386.27
     56.6700	 1513.00	 1539.73	-1786.49	  386.27
     56.7700	 1844.00	 1847.31	-1763.07	  386.27
     56.8700	 2176.00	 2158.29	-1742.05	  386.27
     56.9700	 2459.00	 2415.19	-1715.95	  386.28
     57.0700	 2438.00	 2548.18	-1869.95	  386.28
     57.1700	 2514.00	 2510.84	-1756.60	  386.28
     57.2700	 2256.00	 2316.88	-1820.64	  386.29
     57.3700	 2011.00	 2029.22	-1777.98	  386.30
     57.4700	 1741.00	 1716.03	-1734.80	  386.31
     57.5700	 1347.00	 1425.46	-1838.23	  386.32
     57.6700	 1162.00	 1183.40	-1781.16	  386.33
     57.7700	  961.00	  998.77	-1797.53	  386.34
     57.8700	  880.00	  868.85	-1748.62	  386.35
     57.9700	  801.00	  784.74	-1743.50	  386.37
     58.0700	  775.00	  736.01	-1720.77	  386.38
     58.1700	  677.00	  713.78	-1796.54	  386.40
     58.2700	  781.00	  712.11	-1690.87	  386.42
     58.3700	  720.00	  727.75	-1767.51	  386.43
     58.4700	  767.00	  759.25	-1752.01	  386.45
     58.5700	  784.00	  805.54	-1781.31	  386.48
     58.6700	  873.00	  864.59	-1751.36	  386.50
     58.7700	  952.00	  932.02	-1739.79	  386.52
     58.8700	 1024.00	 1000.81	-1736.57	  386.54
     58.9700	 1090.00	 1063.36	-1733.12	  386.57
     59.0700	 1133.00	 1114.62	-1741.38	  386.60
     59.1700	 1326.00	 1151.57	-1585.33	  386.62
     59.2700	 1257.00	 1170.39	-1673.15	  386.65
     59.3700	 1272.00	 1168.67	-1656.43	  386.68
     59.4700	 1271.00	 1151.31	-1640.08	  386.71
     59.5700	 1234.00	 1130.31	-1656.07	  386.74
     59.6700	 1194.00	 1117.76	-1683.52	  386.77
     59.7700	 1246.00	 1121.33	-1635.09	  386.80
     59.8700	 1193.00	 1144.77	-1711.53	  386.84
     59.9700	 1199.00	 1190.51	-1751.28	  386.87
     60.0700	 1283.00	 1259.19	-1735.95	  386.91
     60.1700	 1376.00	 1345.68	-1729.44	  386.94
     60.2700	 1428.00	 1435.75	-1767.51	  386.98
     60.3700	 1590.00	 1505.54	-1675.30	  387.02
     60.4700	 1574.00	 1527.58	-1713.35	  387.06
     60.5700	 1565.00	 1485.45	-1680.21	  387.10
     60.6700	 1455.00	 1385.92	-1690.68	  387.14
     60.7700	 1339.00	 1253.01	-1673.77	  387.18
     60.8700	 1116.00	 1112.40	-1756.16	  387.22
     60.9700	 1040.00	  982.68	-1702.44	  387.26
     61.0700	  833.00	  874.66	-1801.42	  387.31
     61.1700	  772.00	  792.91	-1780.67	  387.35
     61.2700	  735.00	  737.79	-1762.55	  387.40
     61.3700	  716.00	  707.57	-1751.33	  387.44
     61.4700	  732.00	  700.27	-1728.04	  387.49
     61.5700	  763.00	  714.95	-1711.71	  387.53
     61.6700	  720.00	  751.93	-1791.69	  387.58
     61.7700	  801.00	  812.07	-1770.84	  387.63
     61.8700	  885.00	  895.36	-1770.12	  387.68
     61.9700	  988.00	  999.03	-1770.79	  387.73
     62.0700	 1082.00	 1115.93	-1793.69	  387.78
     62.1700	 1234.00	 1232.97	-1758.73	  387.83
     62.2700	 1261.00	 1330.46	-1829.23	  387.88
     62.3700	 1330.00	 1385.12	-1814.88	  387.94
     62.4700	 1341.00	 1380.02	-1798.78	  387.99
     62.5700	 1205.00	 1316.13	-1870.89	  388.04
     62.6700	 1092.00	 1211.65	-1879.41	  388.10
     62.7700	 1025.00	 1089.83	-1824.60	  388.15
     62.8700	  874.00	  969.55	-1855.31	  388.21
     62.9700	  793.00	  862.82	-1829.58	  388.26
     63.0700	  743.00	  775.60	-1792.36	  388.32
     63.1700	  667.00	  709.22	-1801.98	  388.38
     63.2700	  636.00	  661.88	-1785.65	  388.43
     63.3700	  636.00	  630.11	-1753.88	  388.49
     63.4700	  625.00	  610.13	-1744.89	  388.55
     63.5700	  567.00	  598.72	-1791.49	  388.61
     63.6700	  581.00	  593.70	-1772.46	  388.67
     63.7700	  644.00	  594.01	-1709.77	  388.73
     63.8700	  618.00	  599.62	-1741.38	  388.79
     63.9700	  653.00	  611.33	-1718.09	  388.85
     64.0700	  661.00	  630.51	-1729.27	  388.91
     64.1700	  683.00	  658.48	-1735.25	  388.97
     64.2700	  684.00	  696.35	-1772.11	  389.03
     64.3700	  808.00	  744.15	-1695.92	  389.09
     64.4700	  880.00	  800.32	-1680.08	  389.16
     64.5700	  859.00	  861.02	-1761.78	  389.22
     64.6700	  994.00	  919.71	-1685.48	  389.28
     64.7700	 1021.00	  967.50	-1706.26	  389.35
     64.8700	 1040.00	  995.47	-1715.23	  389.41
     64.9700	 1046.00	  997.97	-1711.74	  389.47
     65.0700	 1015.00	  975.90	-1720.67	  389.54
     65.1700	 1000.00	  935.20	-1694.96	  389.60
     65.2700	  911.00	  884.32	-1733.08	  389.67
     65.3700	  785.00	  830.90	-1805.66	  389.73
     65.4700	  770.00	  781.70	-1771.46	  389.80
     65.5700	  693.00	  739.15	-1805.91	  389.86
     65.6700	  675.00	  703.78	-1788.54	  389.93
     65.7700	  664.00	  674.79	-1770.56	  389.99
     65.8700	  608.00	  651.18	-1802.95	  390.06
     65.9700	  627.00	  632.40	-1765.16	  390.13
     66.0700	  620.00	  617.57	-1757.34	  390.19
     66.1700	  590.00	  606.50	-1776.26	  390.26
     66.2700	  608.00	  598.48	-1750.24	  390.33
     66.3700	  576.00	  593.25	-1777.01	  390.39
     66.4700	  587.00	  590.51	-1763.27	  390.46
     66.5700	  571.00	  590.08	-1778.85	  390.53
     66.6700	  562.00	  591.89	-1789.65	  390.59
     66.7700	  629.00	  596.12	-1726.88	  390.66
     66.8700	  601.00	  603.04	-1761.80	  390.73
     66.9700	  573.00	  613.65	-1800.41	  390.80
     67.0700	  656.00	  629.62	-1733.38	  390.86
     67.1700	  620.00	  653.62	-1793.38	  390.93
     67.2700	  728.00	  689.58	-1721.34	  391.00
     67.3700	  726.00	  742.73	-1776.49	  391.06
     67.4700	  790.00	  819.32	-1789.08	  391.13
     67.5700	  933.00	  925.79	-1752.55	  391.20
     67.6700	 1038.00	 1067.19	-1788.95	  391.27
     67.7700	 1182.00	 1245.64	-1823.40	  391.33
     67.8700	 1373.00	 1458.09	-1844.86	  391.40
     67.9700	 1731.00	 1694.41	-1723.17	  391.47
     68.0700	 1959.00	 1935.73	-1736.49	  391.53
     68.1700	 2191.00	 2153.40	-1722.16	  391.60
     68.2700	 2245.00	 2310.93	-1825.70	  391.67
     68.3700	 2352.00	 2373.42	-1781.18	  391.73
     68.4700	 2320.00	 2324.58	-1764.34	  391.80
     68.5700	 2241.00	 2177.19	-1695.95	  391.86
     68.6700	 2015.00	 1965.02	-1709.78	  391.93
     68.7700	 1765.00	 1725.15	-1719.91	  392.00
     68.8700	 1432.00	 1487.36	-1815.12	  392.06
     68.9700	 1240.00	 1271.66	-1791.42	  392.13
     69.0700	 1020.00	 1089.15	-1828.91	  392.19
     69.1700	  976.00	  943.69	-1727.45	  392.26
     69.2700	  818.00	  833.67	-1775.43	  392.32
     69.3700	  699.00	  754.18	-1814.95	  392.39
     69.4700	  742.00	  698.90	-1716.67	  392.45
     69.5700	  714.00	  661.49	-1707.25	  392.51
     69.6700	  633.00	  636.53	-1763.29	  392.58
     69.7700	  654.00	  619.91	-1725.67	  392.64
     69.8700	  585.00	  608.67	-1783.44	  392.70
     69.9700	  608.00	  600.97	-1752.73	  392.76
     70.0700	  589.00	  595.64	-1766.40	  392.83
     70.1700	  600.00	  592.03	-1751.79	  392.89
     70.2700	  602.00	  589.58	-1747.34	  392.95
     70.3700	  582.00	  588.48	-1766.24	  393.01
     70.4700	  600.00	  588.53	-1748.29	  393.07
     70.5700	  569.00	  589.82	-1780.58	  393.13
     70.6700	  582.00	  593.53	-1771.30	  393.19
     70.7700	  601.00	  598.26	-1757.02	  393.25
     70.8700	  608.00	  605.76	-1757.53	  393.31
     70.9700	  672.00	  617.34	-1705.10	  393.37
     71.0700	  573.00	  634.92	-1821.68	  393.43
     71.1700	  681.00	  661.19	-1739.95	  393.48
     71.2700	  708.00	  699.54	-1751.31	  393.54
     71.3700	  726.00	  753.94	-1787.70	  393.60
     71.4700	  832.00	  828.33	-1756.09	  393.65
     71.5700	  859.00	  925.92	-1826.68	  393.71
     71.6700	  998.00	 1048.11	-1809.87	  393.76
     71.7700	 1206.00	 1193.35	-1747.11	  393.82
     71.8700	 1360.00	 1356.22	-1755.98	  393.87
     71.9700	 1432.00	 1526.37	-1854.13	  393.92
     72.0700	 1648.00	 1688.05	-1799.81	  393.97
     72.1700	 1709.00	 1820.19	-1870.95	  394.03
     72.2700	 1847.00	 1899.74	-1812.50	  394.08
     72.3700	 1865.00	 1909.54	-1804.30	  394.13
     72.4700	 1820.00	 1847.25	-1787.01	  394.18
     72.5700	 1769.00	 1726.76	-1717.52	  394.23
     72.6700	 1510.00	 1570.51	-1820.28	  394.28
     72.7700	 1420.00	 1400.60	-1740.36	  394.32
     72.8700	 1258.00	 1234.22	-1735.99	  394.37
     72.9700	 1187.00	 1083.08	-1655.85	  394.42
     73.0700	  970.00	  953.73	-1743.49	  394.46
     73.1700	  816.00	  848.57	-1792.33	  394.51
     73.2700	  855.00	  766.88	-1671.64	  394.55
     73.3700	  780.00	  705.83	-1685.59	  394.60
     73.4700	  699.00	  661.67	-1722.43	  394.64
     73.5700	  678.00	  630.45	-1712.21	  394.68
     73.6700	  637.00	  608.65	-1731.41	  394.72
     73.7700	  653.00	  593.44	-1700.20	  394.76
     73.8700	  649.00	  582.72	-1693.48	  394.80
     73.9700	  617.00	  575.05	-1717.81	  394.84
     74.0700	  646.00	  569.48	-1683.24	  394.88
     74.1700	  613.00	  564.90	-1711.66	  394.92
     74.2700	  584.00	  561.99	-1737.75	  394.96
     74.3700	  650.00	  559.95	-1669.71	  394.99
     74.4700	  651.00	  558.60	-1667.36	  395.03
     74.5700	  599.00	  557.74	-1718.50	  395.06
     74.6700	  602.00	  557.19	-1714.95	  395.09
     74.7700	  609.00	  556.72	-1707.48	  395.12
     74.8700	  656.00	  556.13	-1659.89	  395.16
     74.9700	  601.00	  555.23	-1714.00	  395.19
     75.0700	  648.00	  553.99	-1665.75	  395.22
     75.1700	  650.00	  552.50	-1662.26	  395.24
     75.2700	  615.00	  550.99	-1695.75	  395.27
     75.3700	  631.00	  549.74	-1678.51	  395.30
     75.4700	  581.00	  549.07	-1727.83	  395.32
     75.5700	  585.00	  549.31	-1724.07	  395.35
     75.6700	  546.00	  550.83	-1764.59	  395.37
     75.7700	  536.00	  554.03	-1777.79	  395.39
     75.8700	  561.00	  559.33	-1758.09	  395.41
     75.9700	  602.00	  567.12	-1724.88	  395.44
     76.0700	  582.00	  577.68	-1755.44	  395.45
     76.1700	  658.00	  591.09	-1692.85	  395.47
     76.2700	  603.00	  607.28	-1764.05	  395.49
     76.3700	  645.00	  625.70	-1740.46	  395.51
     76.4700	  666.00	  645.37	-1739.14	  395.52
     76.5700	  656.00	  664.86	-1768.62	  395.54
     76.6700	  707.00	  682.20	-1734.96	  395.55
     76.7700	  701.00	  694.97	-1753.73	  395.56
     76.8700	  709.00	  701.14	-1751.90	  395.57
     76.9700	  676.00	  699.36	-1783.12	  395.58
     77.0700	  680.00	  689.92	-1769.68	  395.59
     77.1700	  694.00	  674.53	-1740.29	  395.60
     77.2700	  644.00	  655.52	-1771.28	  395.60
     77.3700	  639.00	  635.09	-1755.85	  395.61
     77.4700	  609.00	  615.02	-1765.78	  395.61
     77.5700	  581.00	  596.54	-1775.30	  395.61
     77.6700	  555.00	  580.41	-1785.17	  395.62
     77.7700	  561.00	  566.97	-1765.73	  395.62
     77.8700	  500.00	  556.23	-1815.99	  395.62
     77.9700	  540.00	  547.91	-1767.67	  395.61
     78.0700	  515.00	  541.75	-1786.52	  395.61
     78.1700	  523.00	  537.29	-1774.05	  395.60
     78.2700	  530.00	  533.89	-1763.65	  395.60
     78.3700	  524.00	  531.66	-1767.42	  395.59
     78.4700	  500.00	  530.10	-1789.86	  395.58
     78.5700	  501.00	  529.00	-1787.76	  395.57
     78.6700	  559.00	  528.22	-1728.98	  395.56
     78.7700	  555.00	  527.67	-1732.44	  395.55
     78.8700	  526.00	  527.30	-1761.07	  395.54
     78.9700	  485.00	  527.08	-1801.84	  395.52
     79.0700	  481.00	  527.00	-1805.76	  395.51
     79.1700	  460.00	  527.05	-1826.81	  395.49
     79.2700	  503.00	  527.26	-1784.02	  395.47
     79.3700	  561.00	  527.64	-1726.40	  395.45
     79.4700	  516.00	  528.23	-1771.99	  395.43
     79.5700	  533.00	  529.06	-1755.82	  395.41
     79.6700	  502.00	  530.19	-1787.95	  395.38
     79.7700	  547.00	  531.67	-1744.43	  395.36
     79.8700	  550.00	  533.58	-1743.35	  395.33
     79.9700	  528.00	  536.02	-1767.78	  395.30
     80.0700	  522.00	  539.09	-1776.85	  395.27
     80.1700	  567.00	  542.91	-1735.68	  395.24
     80.2700	  548.00	  547.63	-1759.40	  395.21
     80.3700	  504.00	  553.39	-1809.15	  395.17
     80.4700	  637.00	  560.31	-1683.07	  395.14
     80.5700	  592.00	  568.54	-1736.30	  395.10
     80.6700	  629.00	  578.19	-1708.96	  395.06
     80.7700	  614.00	  589.31	-1735.08	  395.02
     80.8700	  604.00	  601.58	-1757.35	  394.98
     80.9700	  605.00	  615.09	-1769.86	  394.94
     81.0700	  650.00	  629.09	-1738.85	  394.89
     81.1700	  671.00	  642.83	-1731.59	  394.85
     81.2700	  680.00	  655.48	-1735.24	  394.80
     81.3700	  745.00	  666.34	-1681.11	  394.75
     81.4700	  691.00	  674.98	-1743.74	  394.70
     81.5700	  706.00	  681.18	-1734.94	  394.65
     81.6700	  740.00	  684.89	-1704.65	  394.60
     81.7700	  734.00	  686.15	-1711.91	  394.54
     81.8700	  737.00	  685.01	-1707.77	  394.49
     81.9700	  676.00	  681.48	-1765.24	  394.43
     82.0700	  751.00	  675.56	-1684.32	  394.37
     82.1700	  712.00	  667.40	-1715.16	  394.31
     82.2700	  653.00	  657.42	-1764.19	  394.25
     82.3700	  693.00	  646.24	-1713.00	  394.18
     82.4700	  670.00	  634.43	-1724.19	  394.12
     82.5700	  605.00	  622.40	-1777.17	  394.05
     82.6700	  644.00	  610.47	-1726.23	  393.98
     82.7700	  616.00	  598.90	-1742.66	  393.91
     82.8700	  560.00	  588.03	-1787.79	  393.84
     82.9700	  529.00	  578.20	-1808.96	  393.77
     83.0700	  541.00	  569.70	-1788.47	  393.69
     83.1700	  575.00	  562.76	-1747.53	  393.62
     83.2700	  523.00	  557.50	-1794.26	  393.54
     83.3700	  575.00	  553.95	-1738.71	  393.46
     83.4700	  545.00	  552.07	-1766.83	  393.38
     83.5700	  548.00	  551.74	-1763.50	  393.29
     83.6700	  556.00	  552.78	-1756.54	  393.21
     83.7700	  548.00	  554.92	-1766.68	  393.12
     83.8700	  564.00	  557.84	-1753.60	  393.04
     83.9700	  574.00	  561.13	-1746.89	  392.95
     84.0700	  553.00	  564.34	-1771.10	  392.86
     84.1700	  525.00	  566.94	-1801.71	  392.76
     84.2700	  543.00	  568.40	-1785.16	  392.67
     84.3700	  519.00	  568.44	-1809.21	  392.57
     84.4700	  582.00	  566.96	-1744.73	  392.48
     84.5700	  550.00	  564.07	-1773.83	  392.38
     84.6700	  532.00	  560.10	-1787.86	  392.28
     84.7700	  551.00	  555.48	-1764.24	  392.17
     84.8700	  593.00	  550.61	-1717.37	  392.07
     84.9700	  550.00	  545.81	-1755.57	  391.96
     85.0700	  524.00	  541.33	-1777.09	  391.86
     85.1700	  556.00	  537.35	-1741.11	  391.75
     85.2700	  501.00	  533.96	-1792.72	  391.64
     85.3700	  559.00	  531.18	-1731.94	  391.52
     85.4700	  470.00	  529.01	-1818.77	  391.41
     85.5700	  505.00	  527.40	-1782.17	  391.29
     85.6700	  562.00	  526.28	-1724.04	  391.17
     85.7700	  505.00	  525.60	-1780.36	  391.06
     85.8700	  525.00	  525.31	-1760.07	  390.93
     85.9700	  527.00	  525.37	-1758.13	  390.81
     86.0700	  514.00	  525.79	-1771.55	  390.69
     86.1700	  521.00	  526.58	-1765.34	  390.56
     86.2700	  492.00	  527.81	-1795.58	  390.43
     86.3700	  521.00	  529.58	-1768.34	  390.30
     86.4700	  561.00	  531.99	-1730.75	  390.17
     86.5700	  546.00	  535.19	-1748.95	  390.04
     86.6700	  482.00	  539.32	-1817.08	  389.90
     86.7700	  511.00	  544.52	-1793.28	  389.77
     86.8700	  547.00	  550.89	-1763.66	  389.63
     86.9700	  502.00	  558.49	-1816.25	  389.49
     87.0700	  557.00	  567.26	-1770.03	  389.35
     87.1700	  602.00	  577.08	-1734.84	  389.21
     87.2700	  599.00	  587.66	-1748.42	  389.06
     87.3700	  561.00	  598.58	-1797.34	  388.91
     87.4700	  636.00	  609.25	-1733.01	  388.77
     87.5700	  589.00	  618.95	-1789.71	  388.62
     87.6700	  638.00	  626.84	-1748.60	  388.46
     87.7700	  633.00	  632.10	-1758.87	  388.31
     87.8700	  623.00	  634.13	-1770.89	  388.16
     87.9700	  613.00	  632.73	-1779.49	  388.00
     88.0700	  653.00	  628.20	-1734.96	  387.84
     88.1700	  626.00	  621.24	-1755.00	  387.68
     88.2700	  600.00	  612.75	-1772.52	  387.52
     88.3700	  590.00	  603.63	-1773.40	  387.35
     88.4700	  629.00	  594.69	-1725.45	  387.19
     88.5700	  560.00	  586.58	-1786.35	  387.02
     88.6700	  558.00	  579.84	-1781.60	  386.85
     88.7700	  570.00	  574.79	-1764.56	  386.68
     88.8700	  549.00	  571.22	-1781.98	  386.51
     88.9700	  562.00	  569.98	-1767.74	  386.33
     89.0700	  574.00	  570.52	-1756.28	  386.16
     89.1700	  579.00	  572.57	-1753.34	  385.98
     89.2700	  569.00	  575.77	-1766.53	  385.80
     89.3700	  591.00	  579.63	-1748.39	  385.62
     89.4700	  556.00	  583.59	-1787.35	  385.44
     89.5700	  618.00	  587.06	-1728.82	  385.25
     89.6700	  603.00	  589.44	-1746.20	  385.07
     89.7700	  563.00	  590.26	-1787.02	  384.88
     89.8700	  600.00	  589.24	-1749.01	  384.69
     89.9700	  621.00	  586.42	-1725.19	  384.50
     90.0700	  565.00	  582.07	-1776.83	  384.30
     90.1700	  543.00	  576.60	-1793.36	  384.11
     90.2700	  571.00	  570.48	-1759.24	  383.91
     90.3700	  538.00	  564.13	-1785.89	  383.72
     90.4700	  544.00	  557.91	-1773.67	  383.52
     90.5700	  512.00	  552.08	-1799.84	  383.32
     90.6700	  531.00	  546.85	-1775.61	  383.11
     90.7700	  514.00	  542.33	-1788.09	  382.91
     90.8700	  503.00	  538.57	-1795.33	  382.70
     90.9700	  479.00	  535.58	-1816.34	  382.49
     91.0700	  490.00	  533.32	-1803.08	  382.28
     91.1700	  541.00	  531.74	-1750.50	  382.07
     91.2700	  520.00	  530.76	-1770.52	  381.86
     91.3700	  522.00	  530.34	-1768.10	  381.64
     91.4700	  490.00	  530.44	-1800.20	  381.43
     91.5700	  520.00	  531.05	-1770.81	  381.21
     91.6700	  502.00	  532.19	-1789.95	  380.99
     91.7700	  490.00	  533.92	-1803.68	  380.77
     91.8700	  538.00	  536.34	-1758.10	  380.55
     91.9700	  501.00	  539.56	-1798.33	  380.32
     92.0700	  485.00	  543.76	-1818.52	  380.10
     92.1700	  581.00	  549.09	-1727.85	  379.87
     92.2700	  546.00	  555.73	-1769.49	  379.64
     92.3700	  555.00	  563.84	-1768.60	  379.41
     92.4700	  623.00	  573.55	-1710.31	  379.18
     92.5700	  595.00	  584.92	-1749.68	  378.94
     92.6700	  553.00	  597.96	-1804.72	  378.71
     92.7700	  604.00	  612.58	-1768.35	  378.47
     92.8700	  615.00	  628.60	-1773.36	  378.23
     92.9700	  620.00	  645.70	-1785.46	  377.99
     93.0700	  651.00	  663.46	-1772.22	  377.75
     93.1700	  666.00	  681.33	-1775.09	  377.50
     93.2700	  679.00	  698.68	-1779.44	  377.26
     93.3700	  684.00	  714.89	-1790.65	  377.01
     93.4700	  750.00	  729.47	-1739.23	  376.76
     93.5700	  740.00	  742.24	-1762.00	  376.52
     93.6700	  768.00	  753.37	-1745.13	  376.26
     93.7700	  707.00	  763.37	-1816.14	  376.01
     93.8700	  814.00	  772.87	-1718.63	  375.76
     93.9700	  799.00	  782.43	-1743.19	  375.50
     94.0700	  816.00	  792.44	-1736.20	  375.24
     94.1700	  827.00	  802.80	-1735.57	  374.99
     94.2700	  837.00	  814.17	-1736.93	  374.73
     94.3700	  816.00	  826.21	-1769.97	  374.46
     94.4700	  868.00	  838.88	-1730.64	  374.20
     94.5700	  820.00	  852.09	-1791.86	  373.94
     94.6700	  890.00	  865.64	-1735.40	  373.67
     94.7700	  920.00	  879.03	-1718.79	  373.40
     94.8700	  864.00	  891.45	-1787.21	  373.14
     94.9700	  865.00	  901.75	-1796.51	  372.87
     95.0700	  902.00	  908.53	-1766.30	  372.59
     95.1700	  933.00	  910.43	-1737.19	  372.32
     95.2700	  925.00	  906.40	-1741.16	  372.05
     95.3700	  888.00	  896.04	-1767.80	  371.77
     95.4700	  892.00	  879.79	-1747.56	  371.50
     95.5700	  825.00	  858.81	-1793.58	  371.22
     95.6700	  806.00	  834.72	-1788.48	  370.94
     95.7700	  847.00	  809.29	-1722.05	  370.66
     95.8700	  771.00	  784.27	-1773.03	  370.38
     95.9700	  726.00	  761.31	-1795.08	  370.09
     96.0700	  739.00	  741.89	-1762.65	  369.81
     96.1700	  681.00	  727.33	-1806.09	  369.52
     96.2700	  742.00	  718.78	-1736.54	  369.23
     96.3700	  687.00	  717.24	-1790.00	  368.95
     96.4700	  705.00	  723.56	-1778.32	  368.66
     96.5700	  720.00	  738.42	-1778.18	  368.36
     96.6700	  775.00	  762.29	-1747.05	  368.07
     96.7700	  809.00	  795.41	-1746.17	  367.78
     96.8700	  798.00	  837.76	-1799.52	  367.48
     96.9700	  898.00	  888.95	-1750.71	  367.19
     97.0700	  924.00	  948.22	-1783.98	  366.89
     97.1700	 1045.00	 1014.32	-1729.08	  366.59
     97.2700	 1079.00	 1085.46	-1766.22	  366.30
     97.3700	 1210.00	 1159.34	-1709.10	  365.99
     97.4700	 1235.00	 1233.02	-1757.78	  365.69
     97.5700	 1217.00	 1303.05	-1845.82	  365.39
     97.6700	 1356.00	 1365.50	-1769.26	  365.09
     97.7700	 1403.00	 1416.25	-1773.01	  364.78
     97.8700	 1443.00	 1451.54	-1768.30	  364.48
     97.9700	 1406.00	 1468.60	-1822.36	  364.17
     98.0700	 1429.00	 1466.29	-1797.05	  363.86
     98.1700	 1459.00	 1445.32	-1746.08	  363.55
     98.2700	 1345.00	 1408.09	-1822.85	  363.24
     98.3700	 1329.00	 1358.04	-1788.80	  362.93
     98.4700	 1274.00	 1299.11	-1784.87	  362.62
     98.5700	 1193.00	 1235.23	-1801.99	  362.31
     98.6700	 1215.00	 1170.07	-1714.83	  362.00
     98.7700	 1092.00	 1106.90	-1774.67	  361.68
     98.8700	 1001.00	 1048.49	-1807.25	  361.37
     98.9700	  922.00	  997.13	-1834.89	  361.05
     99.0700	  929.00	  954.68	-1785.44	  360.73
     99.1700	  935.00	  922.59	-1747.36	  360.41
     99.2700	  905.00	  901.98	-1756.74	  360.10
     99.3700	  888.00	  893.60	-1765.36	  359.78
     99.4700	  955.00	  897.97	-1702.73	  359.46
     99.5700	  913.00	  915.29	-1762.05	  359.13
     99.6700	  904.00	  945.52	-1801.28	  358.81
     99.7700	 1036.00	  988.33	-1712.09	  358.49
     99.8700	 1016.00	 1043.12	-1786.88	  358.17
     99.9700	 1130.00	 1108.95	-1738.71	  357.84
    100.0700	 1191.00	 1184.54	-1753.30	  357.52
    100.1700	 1272.00	 1268.16	-1755.93	  357.19
    100.2700	 1379.00	 1357.62	-1738.38	  356.87
    100.3700	 1488.00	 1450.24	-1722.00	  356.54
    100.4700	 1582.00	 1542.81	-1720.57	  356.21
    100.5700	 1653.00	 1632.00	-1738.76	  355.88
    100.6700	 1812.00	 1714.32	-1662.09	  355.55
    100.7700	 1842.00	 1786.77	-1704.53	  355.23
    100.8700	 1828.00	 1847.09	-1778.85	  354.90
    100.9700	 1883.00	 1893.81	-1770.57	  354.57
    101.0700	 1943.00	 1926.13	-1742.89	  354.23
    101.1700	 1880.00	 1943.53	-1823.29	  353.90
    101.2700	 1993.00	 1945.58	-1712.35	  353.57
    101.3700	 1962.00	 1931.98	-1729.74	  353.24
    101.4700	 1932.00	 1902.86	-1730.62	  352.91
    101.5700	 1886.00	 1859.18	-1732.95	  352.57
    101.6700	 1815.00	 1803.03	-1747.80	  352.24
    101.7700	 1667.00	 1737.52	-1830.28	  351.91
    101.8700	 1657.00	 1666.32	-1769.08	  351.57
    101.9700	 1654.00	 1593.26	-1699.02	  351.24
    102.0700	 1515.00	 1521.73	-1766.49	  350.90
    102.1700	 1463.00	 1454.48	-1751.24	  350.57
    102.2700	 1376.00	 1393.51	-1777.27	  350.23
    102.3700	 1318.00	 1339.95	-1781.71	  349.90
    102.4700	 1287.00	 1294.18	-1766.94	  349.56
    102.5700	 1198.00	 1255.83	-1817.60	  349.23
    102.6700	 1187.00	 1223.94	-1796.70	  348.89
    102.7700	 1174.00	 1196.98	-1782.74	  348.56
    102.8700	 1191.00	 1173.03	-1741.79	  348.22
    102.9700	 1147.00	 1150.02	-1762.78	  347.88
    103.0700	 1072.00	 1125.98	-1813.74	  347.55
    103.1700	 1077.00	 1099.37	-1782.13	  347.21
    103.2700	 1090.00	 1069.29	-1739.05	  346.88
    103.3700	 1058.00	 1035.53	-1737.29	  346.54
    103.4700	  976.00	  998.50	-1782.26	  346.20
    103.5700	  983.00	  959.03	-1735.80	  345.87
    103.6700	  901.00	  918.14	-1776.90	  345.53
    103.7700	  888.00	  876.87	-1748.64	  345.19
    103.8700	  822.00	  836.21	-1773.97	  344.86
    103.9700	  836.00	  797.01	-1720.78	  344.52
    104.0700	  780.00	  760.01	-1739.77	  344.19
    104.1700	  788.00	  725.75	-1697.51	  343.85
    104.2700	  743.00	  694.62	-1711.38	  343.52
    104.3700	  727.00	  666.86	-1699.62	  343.18
    104.4700	  660.00	  642.54	-1742.31	  342.85
    104.5700	  658.00	  621.63	-1723.39	  342.51
    104.6700	  591.00	  603.97	-1772.73	  342.18
    104.7700	  578.00	  589.33	-1771.09	  341.85
    104.8700	  596.00	  577.42	-1741.18	  341.51
    104.9700	  572.00	  567.93	-1755.69	  341.18
    105.0700	  594.00	  560.56	-1726.32	  340.85
    105.1700	  534.00	  555.01	-1780.77	  340.52
    105.2700	  581.00	  551.01	-1729.78	  340.19
    105.3700	  554.00	  548.34	-1754.10	  339.86
    105.4700	  519.00	  546.80	-1787.56	  339.53
    105.5700	  550.00	  546.25	-1756.01	  339.20
    105.6700	  590.00	  546.57	-1716.33	  338.87
    105.7700	  555.00	  547.69	-1752.45	  338.54
    105.8700	  598.00	  549.56	-1711.33	  338.22
    105.9700	  534.00	  552.17	-1777.93	  337.89
    106.0700	  546.00	  555.51	-1769.27	  337.56
    106.1700	  575.00	  559.61	-1744.37	  337.24
    106.2700	  561.00	  564.50	-1763.26	  336.91
    106.3700	  576.00	  570.22	-1753.98	  336.59
    106.4700	  528.00	  576.79	-1808.55	  336.27
    106.5700	  566.00	  584.22	-1777.98	  335.95
    106.6700	  610.00	  592.51	-1742.27	  335.63
    106.7700	  624.00	  601.58	-1737.34	  335.31
    106.8700	  603.00	  611.32	-1768.08	  334.99
    106.9700	  623.00	  621.56	-1758.32	  334.67
    107.0700	  615.00	  632.07	-1776.84	  334.35
    107.1700	  648.00	  642.61	-1754.37	  334.04
    107.2700	  668.00	  652.83	-1744.59	  333.73
    107.3700	  685.00	  662.38	-1737.14	  333.41
    107.4700	  643.00	  670.90	-1787.66	  333.10
    107.5700	  686.00	  678.04	-1751.81	  332.79
    107.6700	  741.00	  683.52	-1702.28	  332.48
    107.7700	  655.00	  687.20	-1791.96	  332.17
    107.8700	  686.00	  689.08	-1762.84	  331.87
    107.9700	  676.00	  689.33	-1773.09	  331.56
    108.0700	  697.00	  688.26	-1751.02	  331.26
    108.1700	  677.00	  686.28	-1769.04	  330.96
    108.2700	  692.00	  683.82	-1751.58	  330.65
    108.3700	  672.00	  681.27	-1769.03	  330.36
    108.4700	  674.00	  679.00	-1764.76	  330.06
    108.5700	  679.00	  677.27	-1758.03	  329.76
    108.6700	  698.00	  676.25	-1738.01	  329.47
    108.7700	  678.00	  676.02	-1757.79	  329.17
    108.8700	  718.00	  676.56	-1718.32	  328.88
    108.9700	  650.00	  677.74	-1787.50	  328.59
    109.0700	  650.00	  679.34	-1789.11	  328.31
    109.1700	  681.00	  681.07	-1759.83	  328.02
    109.2700	  734.00	  682.55	-1708.32	  327.74
    109.3700	  706.00	  683.40	-1737.17	  327.45
    109.4700	  693.00	  683.24	-1750.00	  327.17
    109.5700	  678.00	  681.73	-1763.49	  326.90
    109.6700	  684.00	  678.68	-1754.44	  326.62
    109.7700	  716.00	  674.00	-1717.76	  326.35
    109.8700	  715.00	  667.77	-1712.53	  326.07
    109.9700	  691.00	  660.19	-1728.95	  325.80
    110.0700	  650.00	  651.52	-1761.28	  325.54
    110.1700	  684.00	  642.07	-1717.83	  325.27
    110.2700	  642.00	  632.17	-1749.93	  325.01
    110.3700	  613.00	  622.12	-1768.89	  324.75
    110.4700	  591.00	  612.20	-1780.96	  324.49
    110.5700	  624.00	  602.64	-1738.40	  324.23
    110.6700	  619.00	  593.66	-1734.42	  323.98
    110.7700	  639.00	  585.40	-1706.16	  323.73
    110.8700	  612.00	  577.99	-1725.75	  323.48
    110.9700	  592.00	  571.52	-1739.28	  323.23
    111.0700	  589.00	  566.02	-1736.78	  322.99
    111.1700	  575.00	  561.50	-1746.27	  322.74
    111.2700	  564.00	  557.96	-1753.72	  322.51
    111.3700	  605.00	  555.34	-1710.10	  322.27
    111.4700	  541.00	  553.58	-1772.34	  322.04
    111.5700	  556.00	  552.61	-1756.38	  321.81
    111.6700	  559.00	  552.36	-1753.12	  321.58
    111.7700	  556.00	  552.72	-1756.49	  321.35
    111.8700	  566.00	  553.63	-1747.39	  321.13
    111.9700	  597.00	  554.98	-1717.74	  320.91
    112.0700	  514.00	  556.72	-1802.48	  320.70
    112.1700	  531.00	  558.76	-1787.52	  320.48
    112.2700	  566.00	  561.06	-1754.82	  320.27
    112.3700	  537.00	  563.56	-1786.32	  320.07
    112.4700	  553.00	  566.24	-1773.01	  319.86
    112.5700	  570.00	  569.10	-1758.86	  319.66
    112.6700	  570.00	  572.13	-1761.89	  319.47
    112.7700	  555.00	  575.36	-1780.12	  319.27
    112.8700	  572.00	  578.84	-1766.61	  319.08
    112.9700	  594.00	  582.63	-1748.39	  318.90
    113.0700	  573.00	  586.79	-1773.55	  318.71
    113.1700	  585.00	  591.43	-1766.19	  318.53
    113.2700	  612.00	  596.64	-1744.40	  318.36
    113.3700	  582.00	  602.57	-1780.33	  318.18
    113.4700	  602.00	  609.38	-1767.14	  318.02
    113.5700	  617.00	  617.30	-1760.06	  317.85
    113.6700	  639.00	  626.59	-1747.35	  317.69
    113.7700	  617.00	  637.58	-1780.34	  317.53
    113.8700	  664.00	  650.70	-1746.46	  317.38
    113.9700	  651.00	  666.46	-1775.22	  317.23
    114.0700	  736.00	  685.51	-1709.27	  317.08
    114.1700	  696.00	  708.64	-1772.40	  316.94
    114.2700	  666.00	  736.78	-1830.54	  316.80
    114.3700	  785.00	  771.06	-1745.83	  316.67
    114.4700	  783.00	  812.78	-1789.54	  316.54
    114.5700	  845.00	  863.45	-1778.21	  316.41
    114.6700	  911.00	  924.75	-1773.51	  316.29
    114.7700	 1063.00	  998.55	-1695.31	  316.17
    114.8700	 1075.00	 1086.87	-1771.63	  316.06
    114.9700	 1199.00	 1191.81	-1752.58	  315.95
    115.0700	 1338.00	 1315.55	-1737.31	  315.85
    115.1700	 1495.00	 1460.18	-1724.94	  315.75
    115.2700	 1687.00	 1627.64	-1700.40	  315.65
    115.3700	 1931.00	 1819.66	-1648.42	  315.56
    115.4700	 2169.00	 2037.50	-1628.27	  315.48
    115.5700	 2401.00	 2282.02	-1640.78	  315.40
    115.6700	 2650.00	 2553.30	-1663.07	  315.32
    115.7700	 2997.00	 2850.64	-1613.40	  315.25
    115.8700	 3241.00	 3172.56	-1691.33	  315.18
    115.9700	 3545.00	 3516.41	-1731.17	  315.12
    116.0700	 3784.00	 3878.64	-1854.40	  315.06
    116.1700	 4189.00	 4254.50	-1825.27	  315.01
    116.2700	 4651.00	 4638.08	-1746.84	  314.97
    116.3700	 4996.00	 5022.50	-1786.27	  314.93
    116.4700	 5312.00	 5399.65	-1847.42	  314.89
    116.5700	 5635.00	 5760.66	-1885.43	  314.86
    116.6700	 6077.00	 6095.72	-1778.49	  314.83
    116.7700	 6297.00	 6394.57	-1857.33	  314.81
    116.8700	 6427.00	 6647.08	-1979.84	  314.80
    116.9700	 6851.00	 6843.62	-1752.38	  314.79
    117.0700	 7029.00	 6976.19	-1706.95	  314.79
    117.1700	 6945.00	 7039.05	-1853.81	  314.79
    117.2700	 7010.00	 7029.54	-1779.30	  314.80
    117.3700	 6969.00	 6948.41	-1739.17	  314.81
    117.4700	 6677.00	 6799.73	-1882.49	  314.83
    117.5700	 6599.00	 6590.30	-1751.06	  314.85
    117.6700	 6364.00	 6328.90	-1724.66	  314.89
    117.7700	 5911.00	 6025.46	-1874.22	  314.92
    117.8700	 5665.00	 5690.12	-1784.88	  314.97
    117.9700	 5185.00	 5332.93	-1907.69	  315.01
    118.0700	 4955.00	 4963.10	-1767.86	  315.07
    118.1700	 4641.00	 4589.12	-1707.89	  315.13
    118.2700	 4230.00	 4218.46	-1748.22	  315.20
    118.3700	 3939.00	 3857.29	-1678.05	  315.27
    118.4700	 3697.00	 3510.89	-1573.65	  315.35
    118.5700	 3279.00	 3183.21	-1663.97	  315.44
    118.6700	 2881.00	 2877.25	-1756.02	  315.53
    118.7700	 2663.00	 2595.05	-1691.81	  315.63
    118.8700	 2325.00	 2337.56	-1772.32	  315.74
    118.9700	 2092.00	 2105.12	-1772.88	  315.85
    119.0700	 1904.00	 1897.27	-1753.04	  315.97
    119.1700	 1672.00	 1713.13	-1800.89	  316.10
    119.2700	 1552.00	 1551.37	-1759.13	  316.24
    119.3700	 1432.00	 1410.32	-1738.08	  316.38
    119.4700	 1270.00	 1288.22	-1777.99	  316.52
    119.5700	 1233.00	 1183.13	-1709.90	  316.68
    119.6700	 1151.00	 1093.16	-1701.92	  316.84
    119.7700	 1070.00	 1016.46	-1706.22	  317.01
    119.8700	  975.00	  951.24	-1736.00	  317.19
    119.9700	  939.00	  895.92	-1716.68	  317.37
    120.0700	  873.00	  849.02	-1735.78	  317.56
    120.1700	  804.00	  809.27	-1765.04	  317.76
    120.2700	  800.00	  775.57	-1735.33	  317.97
    120.3700	  704.00	  746.95	-1802.71	  318.18
    120.4700	  678.00	  722.61	-1804.37	  318.40
    120.5700	  696.00	  701.89	-1765.65	  318.63
    120.6700	  674.00	  684.23	-1769.99	  318.87
    120.7700	  610.00	  669.19	-1818.95	  319.12
    120.8700	  645.00	  656.38	-1771.14	  319.37
    120.9700	  602.00	  645.52	-1803.29	  319.63
    121.0700	  584.00	  636.36	-1812.12	  319.90
    121.1700	  618.00	  628.70	-1770.46	  320.18
    121.2700	  609.00	  622.37	-1773.13	  320.46
    121.3700	  597.00	  617.24	-1780.00	  320.76
    121.4700	  585.00	  613.21	-1787.97	  321.06
    121.5700	  573.00	  610.17	-1796.93	  321.37
    121.6700	  599.00	  608.04	-1768.80	  321.69
    121.7700	  580.00	  606.75	-1786.51	  322.02
    121.8700	  634.00	  606.23	-1731.99	  322.35
    121.9700	  548.00	  606.42	-1818.18	  322.70
    122.0700	  578.00	  607.24	-1789.01	  323.05
    122.1700	  594.00	  608.65	-1774.41	  323.42
    122.2700	  632.00	  610.56	-1738.32	  323.79
    122.3700	  626.00	  612.91	-1746.67	  324.17
    122.4700	  622.00	  615.62	-1753.38	  324.56
    122.5700	  605.00	  618.60	-1773.36	  324.96
    122.6700	  628.00	  621.77	-1753.53	  325.37
    122.7700	  605.00	  625.04	-1779.80	  325.78
    122.8700	  600.00	  628.30	-1788.06	  326.21
    122.9700	  626.00	  631.45	-1765.21	  326.65
    123.0700	  672.00	  634.38	-1722.14	  327.09
    123.1700	  621.00	  637.00	-1775.76	  327.55
    123.2700	  651.00	  639.21	-1747.97	  328.02
    123.3700	  631.00	  640.94	-1769.70	  328.49
    123.4700	  625.00	  642.11	-1776.87	  328.98
    123.5700	  667.00	  642.69	-1735.45	  329.47
    123.6700	  678.00	  642.67	-1724.44	  329.98
    123.7700	  676.00	  642.07	-1725.83	  330.49
    123.8700	  676.00	  640.90	-1724.66	  331.02
    123.9700	  638.00	  639.23	-1760.99	  331.55
    124.0700	  642.00	  637.11	-1754.87	  332.10
    124.1700	  613.00	  634.61	-1781.37	  332.65
    124.2700	  652.00	  631.78	-1739.54	  333.22
    124.3700	  656.00	  628.73	-1732.49	  333.80
    124.4700	  651.00	  625.50	-1734.26	  334.39
    124.5700	  592.00	  622.17	-1789.93	  334.98
    124.6700	  599.00	  618.79	-1779.55	  335.59
    124.7700	  600.00	  615.41	-1775.17	  336.21
    124.8700	  643.00	  612.10	-1728.86	  336.85
    124.9700	  647.00	  442.42	-1555.18	  337.49
    125.0700	  590.00	  443.07	-1759.76	  338.14
    125.1700	  635.00	  443.73	-1759.76	  338.81
    125.2700	  639.00	  444.41	-1759.76	  339.48
    125.3700	  576.00	  445.10	-1759.76	  340.17
    125.4700	  601.00	  445.80	-1759.76	  340.87
    125.5700	  582.00	  446.51	-1759.76	  341.58
    125.6700	  584.00	  447.23	-1759.76	  342.30
    125.7700	  603.00	  447.96	-1759.76	  343.03
    125.8700	  606.00	  448.71	-1759.76	  343.78
    125.9700	  587.00	  449.47	-1759.76	  344.54
    126.0700	  549.00	  450.23	-1759.76	  345.31
    126.1700	  566.00	  451.02	-1759.76	  346.09
    126.2700	  574.00	  451.81	-1759.76	  346.88
    126.3700	  549.00	  452.61	-1759.76	  347.69
    126.4700	  558.00	  453.43	-1759.76	  348.50
    126.5700	  550.00	  454.26	-1759.76	  349.33
    126.6700	  533.00	  455.11	-1759.76	  350.18
    126.7700	  568.00	  455.96	-1759.76	  351.03
    126.8700	  566.00	  456.83	-1759.76	  351.90
    126.9700	  582.00	  457.71	-1759.76	  352.78
    127.0700	  570.00	  458.60	-1759.76	  353.67
    127.1700	  565.00	  459.51	-1759.76	  354.58
    127.2700	  590.00	  460.43	-1759.76	  355.50
    127.3700	  544.00	  461.36	-1759.76	  356.43
    127.4700	  568.00	  462.31	-1759.76	  357.38
    127.5700	  530.00	  463.27	-1759.76	  358.34
    127.6700	  564.00	  464.24	-1759.76	  359.31
    127.7700	  619.00	  465.22	-1759.76	  360.29
    127.8700	  634.00	  466.22	-1759.76	  361.29
    127.9700	  597.00	  467.24	-1759.76	  362.31
    128.0700	  629.00	  468.26	-1759.76	  363.33
    128.1700	  591.00	  469.30	-1759.76	  364.37
    128.2700	  648.00	  470.36	-1759.76	  365.43
    128.3700	  680.00	  471.43	-1759.76	  366.50
    128.4700	  709.00	  472.51	-1759.76	  367.58
    128.5700	    0.00	  473.60	-1759.76	  368.68
    128.6700	    0.00	  474.72	-1759.76	  369.79
     12.3570	        	        	        	        	       0	(  0  0  2)	  0  1
     24.9925	        	        	        	        	       0	(  0  0  4)	  0  1
     28.4163	        	        	        	        	       0	(  1  0  0)	  0  1
     29.1173	        	        	        	        	       0	(  1  0  1)	  0  1
     31.1341	        	        	        	        	       0	(  1  0  2)	  0  1
     34.2585	        	        	        	        	       0	(  1  0  3)	  0  1
     37.9481	        	        	        	        	       0	(  0  0  6)	  0  1
     38.2559	        	        	        	        	       0	(  1  0  4)	  0  1
     42.9296	        	        	        	        	       0	(  1  0  5)	  0  1
     48.1402	        	        	        	        	       0	(  1  0  6)	  0  1
     50.4259	        	        	        	        	       0	(  1  1  0)	  0  1
     51.4331	        	        	        	        	       0	(  0  0  8)	  0  1
     52.1590	        	        	        	        	       0	(  1  1  2)	  0  1
     53.8002	        	        	        	        	       0	(  1  0  7)	  0  1
     57.1357	        	        	        	        	       0	(  1  1  4)	  0  1
     58.9544	        	        	        	        	       0	(  2  0  0)	  0  1
     59.3484	        	        	        	        	       0	(  2  0  1)	  0  1
     59.8633	        	        	        	        	       0	(  1  0  8)	  0  1
     60.5209	        	        	        	        	       0	(  2  0  2)	  0  1
     62.4459	        	        	        	        	       0	(  2  0  3)	  0  1
     64.8763	        	        	        	        	       0	(  1  1  6)	  0  1
     65.0863	        	        	        	        	       0	(  2  0  4)	  0  1
     65.7376	        	        	        	        	       0	(  0  0 10)	  0  1
     66.3162	        	        	        	        	       0	(  1  0  9)	  0  1
     68.4013	        	        	        	        	       0	(  2  0  5)	  0  1
     72.3541	        	        	        	        	       0	(  2  0  6)	  0  1
     73.1738	        	        	        	        	       0	(  1  0 10)	  0  1
     74.9776	        	        	        	        	       0	(  1  1  8)	  0  1
     76.9186	        	        	        	        	       0	(  2  0  7)	  0  1
     80.4795	        	        	        	        	       0	(  1  0 11)	  0  1
     81.2935	        	        	        	        	       0	(  2  1  0)	  0  1
     81.3153	        	        	        	        	       0	(  0  0 12)	  0  1
     81.6359	        	        	        	        	       0	(  2  1  1)	  0  1
     82.0850	        	        	        	        	       0	(  2  0  8)	  0  1
     82.6612	        	        	        	        	       0	(  2  1  2)	  0  1
     84.3652	        	        	        	        	       0	(  2  1  3)	  0  1
     86.7429	        	        	        	        	       0	(  2  1  4)	  0  1
     87.3365	        	        	        	        	       0	(  1  1 10)	  0  1
     87.8661	        	        	        	        	       0	(  2  0  9)	  0  1
     88.3110	        	        	        	        	       0	(  1  0 12)	  0  1
     89.7926	        	        	        	        	       0	(  2  1  5)	  0  1
     93.5206	        	        	        	        	       0	(  2  1  6)	  0  1
     94.3059	        	        	        	        	       0	(  2  0 10)	  0  1
     95.2617	        	        	        	        	       0	(  3  0  0)	  0  1
     95.6020	        	        	        	        	       0	(  3  0  1)	  0  1
     96.6241	        	        	        	        	       0	(  3  0  2)	  0  1
     96.7950	        	        	        	        	       0	(  1  0 13)	  0  1
     97.9476	        	        	        	        	       0	(  2  1  7)	  0  1
     98.3326	        	        	        	        	       0	(  3  0  3)	  0  1
     98.9970	        	        	        	        	       0	(  0  0 14)	  0  1
    100.7376	        	        	        	        	       0	(  3  0  4)	  0  1
    101.4932	        	        	        	        	       0	(  2  0 11)	  0  1
    102.3374	        	        	        	        	       0	(  1  1 12)	  0  1
    103.1188	        	        	        	        	       0	(  2  1  8)	  0  1
    103.8593	        	        	        	        	       0	(  3  0  5)	  0  1
    106.1403	        	        	        	        	       0	(  1  0 14)	  0  1
    107.7342	        	        	        	        	       0	(  3  0  6)	  0  1
    109.1186	        	        	        	        	       0	(  2  1  9)	  0  1
    109.5903	        	        	        	        	       0	(  2  0 12)	  0  1
    112.4271	        	        	        	        	       0	(  3  0  7)	  0  1
    116.1001	        	        	        	        	       0	(  2  1 10)	  0  1
    116.7156	        	        	        	        	       0	(  1  0 15)	  0  1
    117.1666	        	        	        	        	       0	(  2  2  0)	  0  1
    118.0517	        	        	        	        	       0	(  3  0  8)	  0  1
    118.7019	        	        	        	        	       0	(  2  2  2)	  0  1
    118.8958	        	        	        	        	       0	(  2  0 13)	  0  1
    120.7528	        	        	        	        	       0	(  0  0 16)	  0  1
    121.4209	        	        	        	        	       0	(  1  1 14)	  0  1
    123.4549	        	        	        	        	       0	(  2  2  4)	  0  1
    124.3492	        	        	        	        	       0	(  2  1 11)	  0  1
    124.8125	        	        	        	        	       0	(  3  0  9)	  0  1
    125.3304	        	        	        	        	       0	(  3  1  0)	  0  1
    125.7473	        	        	        	        	       0	(  3  1  1)	  0  1
    127.0113	        	        	        	        	       0	(  3  1  2)	  0  1
    129.1668	        	        	        	        	       0	(  3  1  3)	  0  1
    129.2771	        	        	        	        	       0	(  1  0 16)	  0  1
    130.0205	        	        	        	        	       0	(  2  0 14)	  0  1
    132.0444	        	        	        	        	       0	(  2  2  6)	  0  1
    132.3019	        	        	        	        	       0	(  3  1  4)	  0  1
    133.1104	        	        	        	        	       0	(  3  0 10)	  0  1
    134.4622	        	        	        	        	       0	(  2  1 12)	  0  1
    136.5816	        	        	        	        	       0	(  3  1  5)	  0  1
    142.3301	        	        	        	        	       0	(  3  1  6)	  0  1
    143.8866	        	        	        	        	       0	(  3  0 11)	  0  1
    144.5773	        	        	        	        	       0	(  2  0 15)	  0  1
    145.9566	        	        	        	        	       0	(  1  0 17)	  0  1
    146.6833	        	        	        	        	       0	(  2  2  8)	  0  1
    148.0627	        	        	        	        	       0	(  2  1 13)	  0  1
    150.3018	        	        	        	        	       0	(  3  1  7)	  0  1
    151.2606	        	        	        	        	       0	(  1  1 16)	  0  1
    156.1066	        	        	        	        	       0	(  0  0 18)	  0  1
    160.7361	        	        	        	        	       0	(  4  0  0)	  0  1
    160.8019	        	        	        	        	       0	(  3  0 12)	  0  1
    161.7976	        	        	        	        	       0	(  4  0  1)	  0  1
    163.2906	        	        	        	        	       0	(  3  1  8)	  0  1
    165.4269	        	        	        	        	       0	(  4  0  2)	  0  1
    176.1940	        	        	        	        	       0	(  4  0  3)	  0  1
    177.9344	        	        	        	        	       0	(  2  0 16)	  0  1
