MSG Master    CELL:    5.91925   5.91925  23.27335   90.0000   90.0000  120.0000   SPGR: P 63/m m c             TEMP:   1074.85
  1   1280     2.52000     0.00000    -0.12335     0.00000     0.00000    0
    99     0     2
       0.00000      10.00000
     125.00000     130.00000
 2Theta	Yobs	Ycal	Yobs-Ycal	Backg	Posr	(hkl)	K
      0.7700	    0.00	  561.33	-1762.50	  443.19
      0.8700	    0.00	  561.86	-1762.50	  443.72
      0.9700	   47.00	  562.37	-1762.50	  444.24
      1.0700	   32.00	  562.88	-1762.50	  444.75
      1.1700	   35.00	  563.38	-1762.50	  445.25
      1.2700	   47.00	  563.88	-1762.50	  445.74
      1.3700	   47.00	  564.36	-1762.50	  446.22
      1.4700	   93.00	  564.83	-1762.50	  446.70
      1.5700	  307.00	  565.30	-1762.50	  447.16
      1.6700	  471.00	  565.75	-1762.50	  447.62
      1.7700	  606.00	  566.20	-1762.50	  448.06
      1.8700	  641.00	  566.64	-1762.50	  448.50
      1.9700	  744.00	  567.07	-1762.50	  448.93
      2.0700	  787.00	  567.49	-1762.50	  449.35
      2.1700	  735.00	  567.90	-1762.50	  449.77
      2.2700	  784.00	  568.31	-1762.50	  450.17
      2.3700	  705.00	  568.70	-1762.50	  450.57
      2.4700	  716.00	  569.09	-1762.50	  450.95
      2.5700	  705.00	  569.47	-1762.50	  451.33
      2.6700	  666.00	  569.84	-1762.50	  451.71
      2.7700	  657.00	  570.20	-1762.50	  452.07
      2.8700	  641.00	  570.56	-1762.50	  452.42
      2.9700	  670.00	  570.91	-1762.50	  452.77
      3.0700	  564.00	  571.25	-1762.50	  453.11
      3.1700	  581.00	  571.58	-1762.50	  453.44
      3.2700	  578.00	  571.90	-1762.50	  453.76
      3.3700	  690.00	  572.22	-1762.50	  454.08
      3.4700	  776.00	  572.52	-1762.50	  454.39
      3.5700	  830.00	  572.82	-1762.50	  454.69
      3.6700	  869.00	  573.12	-1762.50	  454.98
      3.7700	  915.00	  573.40	-1762.50	  455.27
      3.8700	  971.00	  573.68	-1762.50	  455.54
      3.9700	 1002.00	  573.95	-1762.50	  455.82
      4.0700	 1042.00	  574.21	-1762.50	  456.08
      4.1700	 1114.00	  574.47	-1762.50	  456.33
      4.2700	 1087.00	  574.72	-1762.50	  456.58
      4.3700	 1107.00	  574.96	-1762.50	  456.82
      4.4700	 1093.00	  575.19	-1762.50	  457.06
      4.5700	 1070.00	  575.42	-1762.50	  457.29
      4.6700	 1039.00	  575.64	-1762.50	  457.51
      4.7700	 1024.00	  575.85	-1762.50	  457.72
      4.8700	  992.00	  576.06	-1762.50	  457.93
      4.9700	  961.00	  576.26	-1762.50	  458.12
      5.0700	  910.00	  576.45	-1762.50	  458.32
      5.1700	  892.00	  576.64	-1762.50	  458.50
      5.2700	  974.00	  576.82	-1762.50	  458.68
      5.3700	  902.00	  576.99	-1762.50	  458.86
      5.4700	  851.00	  577.16	-1762.50	  459.02
      5.5700	  818.00	  577.32	-1762.50	  459.18
      5.6700	  860.00	  577.47	-1762.50	  459.33
      5.7700	  801.00	  577.62	-1762.50	  459.48
      5.8700	  848.00	  577.76	-1762.50	  459.62
      5.9700	  790.00	  577.89	-1762.50	  459.76
      6.0700	  770.00	  578.02	-1762.50	  459.88
      6.1700	  809.00	  578.14	-1762.50	  460.01
      6.2700	  742.00	  578.26	-1762.50	  460.12
      6.3700	  763.00	  578.37	-1762.50	  460.23
      6.4700	  802.00	  578.47	-1762.50	  460.33
      6.5700	  750.00	  578.57	-1762.50	  460.43
      6.6700	  778.00	  578.66	-1762.50	  460.52
      6.7700	  686.00	  578.74	-1762.50	  460.61
      6.8700	  730.00	  578.82	-1762.50	  460.69
      6.9700	  753.00	  578.90	-1762.50	  460.76
      7.0700	  728.00	  578.97	-1762.50	  460.83
      7.1700	  657.00	  579.03	-1762.50	  460.89
      7.2700	  716.00	  579.09	-1762.50	  460.95
      7.3700	  628.00	  579.14	-1762.50	  461.00
      7.4700	  678.00	  579.18	-1762.50	  461.05
      7.5700	  656.00	  579.22	-1762.50	  461.09
      7.6700	  629.00	  579.26	-1762.50	  461.12
      7.7700	  622.00	  579.29	-1762.50	  461.15
      7.8700	  700.00	  579.31	-1762.50	  461.18
      7.9700	  659.00	  579.33	-1762.50	  461.20
      8.0700	  660.00	  579.35	-1762.50	  461.21
      8.1700	  647.00	  579.35	-1762.50	  461.22
      8.2700	  664.00	  579.36	-1762.50	  461.22
      8.3700	  645.00	  579.36	-1762.50	  461.22
      8.4700	  641.00	  579.35	-1762.50	  461.21
      8.5700	  594.00	  579.34	-1762.50	  461.20
      8.6700	  615.00	  579.32	-1762.50	  461.19
      8.7700	  643.00	  579.30	-1762.50	  461.16
      8.8700	  636.00	  579.27	-1762.50	  461.14
      8.9700	  608.00	  579.24	-1762.50	  461.11
      9.0700	  622.00	  579.21	-1762.50	  461.07
      9.1700	  614.00	  579.17	-1762.50	  461.03
      9.2700	  603.00	  579.12	-1762.50	  460.99
      9.3700	  626.00	  579.07	-1762.50	  460.94
      9.4700	  653.00	  579.02	-1762.50	  460.88
      9.5700	  621.00	  578.96	-1762.50	  460.82
      9.6700	  569.00	  578.90	-1762.50	  460.76
      9.7700	  666.00	  578.83	-1762.50	  460.69
      9.8700	  610.00	  578.76	-1762.50	  460.62
      9.9700	  585.00	  578.68	-1762.50	  460.54
     10.0700	  587.00	  579.30	-1754.80	  460.46
     10.1700	  627.00	  579.29	-1714.79	  460.38
     10.2700	  558.00	  579.29	-1783.79	  460.29
     10.3700	  546.00	  579.31	-1795.81	  460.20
     10.4700	  586.00	  579.38	-1755.88	  460.10
     10.5700	  538.00	  579.54	-1804.04	  460.00
     10.6700	  608.00	  579.88	-1734.38	  459.89
     10.7700	  574.00	  580.51	-1769.01	  459.78
     10.8700	  578.00	  581.48	-1765.98	  459.67
     10.9700	  599.00	  582.79	-1746.29	  459.55
     11.0700	  616.00	  584.41	-1730.91	  459.43
     11.1700	  551.00	  586.33	-1797.83	  459.31
     11.2700	  534.00	  588.58	-1817.08	  459.18
     11.3700	  577.00	  591.24	-1776.74	  459.04
     11.4700	  633.00	  594.40	-1723.91	  458.91
     11.5700	  598.00	  598.27	-1762.77	  458.77
     11.6700	  628.00	  603.13	-1737.63	  458.62
     11.7700	  611.00	  609.53	-1761.03	  458.48
     11.8700	  658.00	  618.32	-1722.82	  458.33
     11.9700	  694.00	  630.18	-1698.68	  458.17
     12.0700	  742.00	  643.85	-1664.35	  458.02
     12.1700	  697.00	  653.81	-1719.31	  457.86
     12.2700	  672.00	  651.09	-1741.59	  457.69
     12.3700	  670.00	  632.66	-1725.16	  457.52
     12.4700	  658.00	  609.86	-1714.36	  457.35
     12.5700	  629.00	  593.19	-1726.69	  457.18
     12.6700	  616.00	  584.23	-1730.73	  457.00
     12.7700	  585.00	  580.20	-1757.70	  456.82
     12.8700	  547.00	  578.38	-1793.88	  456.64
     12.9700	  548.00	  577.35	-1791.85	  456.45
     13.0700	  583.00	  576.62	-1756.12	  456.26
     13.1700	  587.00	  576.05	-1751.55	  456.07
     13.2700	  571.00	  575.57	-1767.07	  455.87
     13.3700	  521.00	  575.15	-1816.65	  455.68
     13.4700	  574.00	  574.78	-1763.28	  455.48
     13.5700	  533.00	  574.44	-1803.94	  455.27
     13.6700	  612.00	  574.12	-1724.62	  455.06
     13.7700	  587.00	  573.82	-1749.32	  454.85
     13.8700	  574.00	  573.54	-1762.04	  454.64
     13.9700	  572.00	  573.26	-1763.76	  454.43
     14.0700	  591.00	  572.99	-1744.49	  454.21
     14.1700	  573.00	  572.72	-1762.22	  453.99
     14.2700	  583.00	  572.46	-1751.96	  453.77
     14.3700	  586.00	  572.20	-1748.70	  453.54
     14.4700	  559.00	  571.94	-1775.44	  453.31
     14.5700	  554.00	  571.68	-1780.18	  453.08
     14.6700	  572.00	  571.42	-1761.92	  452.85
     14.7700	  541.00	  571.17	-1792.67	  452.61
     14.8700	  558.00	  570.91	-1775.41	  452.38
     14.9700	  544.00	  570.66	-1789.16	  452.14
     15.0700	  547.00	  570.40	-1785.90	  451.89
     15.1700	  560.00	  570.14	-1772.64	  451.65
     15.2700	  566.00	  569.88	-1766.38	  451.40
     15.3700	  584.00	  569.62	-1748.12	  451.15
     15.4700	  553.00	  569.36	-1778.86	  450.90
     15.5700	  549.00	  569.10	-1782.60	  450.65
     15.6700	  489.00	  568.83	-1842.33	  450.39
     15.7700	  529.00	  568.57	-1802.07	  450.14
     15.8700	  573.00	  568.30	-1757.80	  449.88
     15.9700	  619.00	  568.03	-1711.53	  449.61
     16.0700	  538.00	  567.76	-1792.26	  449.35
     16.1700	  570.00	  567.49	-1759.99	  449.09
     16.2700	  540.00	  567.24	-1789.74	  448.82
     16.3700	  571.00	  566.97	-1758.47	  448.55
     16.4700	  554.00	  566.70	-1775.20	  448.28
     16.5700	  570.00	  566.42	-1758.92	  448.00
     16.6700	  587.00	  566.14	-1741.64	  447.73
     16.7700	  595.00	  565.86	-1733.36	  447.45
     16.8700	  572.00	  565.58	-1756.08	  447.18
     16.9700	  541.00	  565.30	-1786.80	  446.90
     17.0700	  546.00	  565.02	-1781.52	  446.62
     17.1700	  541.00	  564.73	-1786.23	  446.33
     17.2700	  559.00	  564.44	-1767.94	  446.05
     17.3700	  551.00	  564.16	-1775.66	  445.76
     17.4700	  536.00	  563.87	-1790.37	  445.47
     17.5700	  592.00	  563.58	-1734.08	  445.19
     17.6700	  530.00	  563.29	-1795.79	  444.90
     17.7700	  559.00	  562.99	-1766.49	  444.60
     17.8700	  549.00	  562.70	-1776.20	  444.31
     17.9700	  544.00	  562.50	-1781.00	  444.02
     18.0700	  565.00	  562.20	-1759.70	  443.72
     18.1700	  549.00	  561.91	-1775.41	  443.42
     18.2700	  587.00	  561.61	-1737.11	  443.12
     18.3700	  547.00	  561.31	-1776.81	  442.82
     18.4700	  505.00	  561.02	-1818.52	  442.52
     18.5700	  534.00	  560.72	-1789.22	  442.22
     18.6700	  602.00	  560.41	-1720.92	  441.92
     18.7700	  580.00	  560.11	-1742.61	  441.61
     18.8700	  558.00	  559.90	-1764.40	  441.31
     18.9700	  570.00	  559.59	-1752.09	  441.00
     19.0700	  532.00	  559.29	-1789.79	  440.69
     19.1700	  586.00	  558.99	-1735.49	  440.39
     19.2700	  562.00	  558.69	-1759.19	  440.08
     19.3700	  523.00	  558.38	-1797.88	  439.77
     19.4700	  591.00	  558.08	-1729.58	  439.45
     19.5700	  539.00	  557.77	-1781.27	  439.14
     19.6700	  546.00	  557.46	-1773.96	  438.83
     19.7700	  544.00	  557.16	-1775.66	  438.51
     19.8700	  519.00	  556.85	-1800.35	  438.20
     19.9700	  520.00	  556.54	-1799.04	  437.88
     20.0700	  528.00	  556.24	-1790.74	  437.57
     20.1700	  511.00	  555.93	-1807.43	  437.25
     20.2700	  558.00	  555.62	-1760.12	  436.93
     20.3700	  558.00	  555.31	-1759.81	  436.61
     20.4700	  509.00	  555.00	-1808.50	  436.29
     20.5700	  560.00	  554.67	-1757.17	  435.97
     20.6700	  557.00	  554.36	-1759.86	  435.65
     20.7700	  517.00	  554.05	-1799.55	  435.33
     20.8700	  533.00	  553.78	-1783.28	  435.01
     20.9700	  563.00	  553.47	-1752.97	  434.69
     21.0700	  531.00	  553.16	-1784.66	  434.37
     21.1700	  545.00	  552.86	-1770.36	  434.04
     21.2700	  608.00	  552.55	-1707.05	  433.72
     21.3700	  519.00	  552.25	-1795.75	  433.39
     21.4700	  550.00	  551.94	-1764.44	  433.07
     21.5700	  550.00	  551.64	-1764.14	  432.75
     21.6700	  551.00	  551.34	-1762.84	  432.42
     21.7700	  565.00	  551.04	-1748.54	  432.09
     21.8700	  546.00	  550.74	-1767.24	  431.77
     21.9700	  571.00	  550.44	-1741.94	  431.44
     22.0700	  552.00	  550.15	-1760.65	  431.12
     22.1700	  538.00	  549.85	-1774.35	  430.79
     22.2700	  552.00	  549.56	-1760.06	  430.46
     22.3700	  523.00	  549.28	-1788.78	  430.13
     22.4700	  588.00	  548.99	-1723.49	  429.81
     22.5700	  559.00	  548.72	-1752.22	  429.48
     22.6700	  535.00	  548.44	-1775.94	  429.15
     22.7700	  544.00	  548.18	-1766.68	  428.82
     22.8700	  550.00	  547.92	-1760.42	  428.50
     22.9700	  564.00	  547.67	-1746.17	  428.17
     23.0700	  580.00	  547.43	-1729.93	  427.84
     23.1700	  541.00	  547.21	-1768.71	  427.51
     23.2700	  529.00	  547.00	-1780.50	  427.18
     23.3700	  543.00	  546.82	-1766.32	  426.86
     23.4700	  523.00	  546.66	-1786.16	  426.53
     23.5700	  574.00	  546.55	-1735.05	  426.20
     23.6700	  518.00	  546.50	-1791.00	  425.87
     23.7700	  570.00	  546.68	-1739.18	  425.54
     23.8700	  544.00	  546.92	-1765.42	  425.22
     23.9700	  568.00	  547.55	-1742.05	  424.89
     24.0700	  513.00	  548.95	-1798.45	  424.56
     24.1700	  555.00	  551.76	-1759.26	  424.23
     24.2700	  595.00	  556.74	-1724.24	  423.91
     24.3700	  557.00	  564.79	-1770.29	  423.58
     24.4700	  559.00	  576.90	-1780.40	  423.25
     24.5700	  594.00	  593.41	-1761.91	  422.93
     24.6700	  618.00	  611.82	-1756.32	  422.60
     24.7700	  614.00	  624.79	-1773.29	  422.27
     24.8700	  651.00	  622.25	-1733.75	  421.95
     24.9700	  584.00	  602.69	-1781.19	  421.62
     25.0700	  641.00	  578.77	-1700.27	  421.30
     25.1700	  558.00	  560.91	-1765.41	  420.98
     25.2700	  589.00	  550.94	-1724.44	  420.65
     25.3700	  555.00	  546.32	-1753.82	  420.33
     25.4700	  553.00	  544.24	-1753.74	  420.00
     25.5700	  581.00	  543.14	-1724.64	  419.68
     25.6700	  579.00	  542.42	-1725.92	  419.36
     25.7700	  554.00	  541.89	-1750.39	  419.04
     25.8700	  543.00	  541.48	-1760.98	  418.72
     25.9700	  588.00	  541.17	-1715.67	  418.40
     26.0700	  544.00	  540.94	-1759.44	  418.07
     26.1700	  557.00	  540.78	-1746.28	  417.76
     26.2700	  532.00	  540.69	-1771.19	  417.44
     26.3700	  549.00	  540.68	-1754.18	  417.12
     26.4700	  564.00	  540.74	-1739.24	  416.80
     26.5700	  580.00	  540.89	-1723.39	  416.48
     26.6700	  559.00	  541.14	-1744.64	  416.17
     26.7700	  571.00	  541.53	-1733.03	  415.85
     26.8700	  567.00	  542.07	-1737.57	  415.53
     26.9700	  556.00	  542.82	-1749.32	  415.22
     27.0700	  572.00	  543.86	-1734.36	  414.90
     27.1700	  569.00	  545.29	-1738.79	  414.59
     27.2700	  532.00	  547.36	-1777.86	  414.28
     27.3700	  571.00	  550.51	-1742.01	  413.97
     27.4700	  557.00	  555.65	-1761.15	  413.66
     27.5700	  562.00	  564.34	-1764.84	  413.34
     27.6700	  537.00	  579.11	-1804.61	  413.04
     27.7700	  563.00	  603.19	-1802.69	  412.73
     27.8700	  592.00	  639.41	-1809.91	  412.42
     27.9700	  682.00	  687.94	-1768.44	  412.11
     28.0700	  801.00	  743.39	-1704.89	  411.80
     28.1700	  884.00	  792.26	-1670.76	  411.50
     28.2700	  961.00	  814.13	-1615.63	  411.19
     28.3700	  885.00	  796.66	-1674.16	  410.89
     28.4700	  783.00	  759.04	-1738.54	  410.59
     28.5700	  689.00	  733.92	-1807.42	  410.29
     28.6700	  699.00	  736.57	-1800.07	  409.98
     28.7700	  711.00	  762.54	-1814.04	  409.68
     28.8700	  832.00	  792.54	-1723.04	  409.39
     28.9700	  806.00	  798.87	-1755.37	  409.09
     29.0700	  746.00	  763.27	-1779.77	  408.79
     29.1700	  701.00	  700.82	-1762.32	  408.49
     29.2700	  650.00	  640.60	-1753.10	  408.20
     29.3700	  652.00	  596.90	-1707.40	  407.90
     29.4700	  608.00	  570.38	-1724.88	  407.61
     29.5700	  593.00	  556.03	-1725.53	  407.32
     29.6700	  655.00	  548.48	-1655.98	  407.03
     29.7700	  602.00	  544.22	-1704.72	  406.74
     29.8700	  569.00	  541.57	-1735.07	  406.45
     29.9700	  532.00	  539.88	-1770.38	  406.16
     30.0700	  559.00	  538.99	-1742.49	  405.87
     30.1700	  563.00	  539.02	-1738.52	  405.59
     30.2700	  576.00	  540.48	-1726.98	  405.30
     30.3700	  546.00	  544.35	-1760.85	  405.02
     30.4700	  578.00	  552.16	-1736.66	  404.74
     30.5700	  543.00	  565.53	-1785.03	  404.46
     30.6700	  588.00	  584.98	-1759.48	  404.18
     30.7700	  607.00	  608.16	-1763.66	  403.90
     30.8700	  601.00	  628.59	-1790.09	  403.62
     30.9700	  615.00	  636.21	-1783.71	  403.34
     31.0700	  601.00	  623.88	-1785.38	  403.07
     31.1700	  547.00	  598.00	-1813.50	  402.80
     31.2700	  553.00	  571.70	-1781.20	  402.52
     31.3700	  559.00	  552.19	-1755.69	  402.25
     31.4700	  538.00	  540.29	-1764.79	  401.98
     31.5700	  568.00	  533.93	-1728.43	  401.71
     31.6700	  544.00	  530.67	-1749.17	  401.44
     31.7700	  532.00	  528.88	-1759.38	  401.18
     31.8700	  564.00	  527.75	-1726.25	  400.91
     31.9700	  550.00	  526.98	-1739.48	  400.65
     32.0700	  584.00	  526.43	-1704.93	  400.39
     32.1700	  534.00	  526.07	-1754.56	  400.13
     32.2700	  535.00	  525.85	-1753.35	  399.87
     32.3700	  574.00	  525.79	-1714.29	  399.61
     32.4700	  511.00	  525.87	-1777.37	  399.35
     32.5700	  551.00	  526.13	-1737.63	  399.09
     32.6700	  547.00	  526.58	-1742.08	  398.84
     32.7700	  545.00	  527.27	-1744.77	  398.59
     32.8700	  491.00	  528.26	-1799.76	  398.34
     32.9700	  550.00	  529.68	-1742.18	  398.09
     33.0700	  587.00	  531.73	-1707.23	  397.84
     33.1700	  535.00	  534.86	-1762.36	  397.59
     33.2700	  557.00	  540.09	-1745.59	  397.34
     33.3700	  513.00	  549.70	-1799.20	  397.10
     33.4700	  543.00	  568.04	-1787.54	  396.85
     33.5700	  632.00	  602.12	-1732.62	  396.61
     33.6700	  676.00	  660.24	-1746.74	  396.37
     33.7700	  698.00	  746.38	-1810.88	  396.13
     33.8700	  878.00	  851.64	-1736.14	  395.90
     33.9700	 1048.00	  948.26	-1662.76	  395.66
     34.0700	 1092.00	  992.83	-1663.33	  395.43
     34.1700	 1047.00	  952.18	-1667.68	  395.19
     34.2700	  896.00	  846.95	-1713.45	  394.96
     34.3700	  711.00	  732.26	-1783.76	  394.73
     34.4700	  655.00	  642.98	-1750.48	  394.50
     34.5700	  600.00	  586.74	-1749.24	  394.28
     34.6700	  561.00	  556.33	-1757.83	  394.05
     34.7700	  536.00	  541.12	-1767.62	  393.83
     34.8700	  546.00	  533.25	-1749.75	  393.60
     34.9700	  531.00	  528.58	-1760.08	  393.38
     35.0700	  518.00	  525.38	-1769.88	  393.16
     35.1700	  540.00	  522.97	-1745.47	  392.94
     35.2700	  526.00	  521.08	-1757.58	  392.73
     35.3700	  523.00	  519.54	-1759.04	  392.51
     35.4700	  546.00	  518.26	-1734.76	  392.30
     35.5700	  512.00	  517.18	-1767.68	  392.09
     35.6700	  531.00	  516.26	-1747.76	  391.88
     35.7700	  533.00	  515.46	-1744.96	  391.67
     35.8700	  486.00	  514.76	-1791.26	  391.46
     35.9700	  492.00	  514.62	-1785.12	  391.26
     36.0700	  537.00	  514.07	-1739.57	  391.05
     36.1700	  489.00	  513.58	-1787.08	  390.85
     36.2700	  512.00	  513.13	-1763.63	  390.65
     36.3700	  479.00	  512.73	-1796.23	  390.45
     36.4700	  526.00	  512.36	-1748.86	  390.25
     36.5700	  522.00	  512.03	-1752.53	  390.06
     36.6700	  552.00	  511.74	-1722.24	  389.86
     36.7700	  494.00	  511.50	-1780.00	  389.67
     36.8700	  514.00	  511.31	-1759.81	  389.48
     36.9700	  509.00	  511.23	-1764.73	  389.29
     37.0700	  522.00	  511.36	-1751.86	  389.10
     37.1700	  508.00	  511.91	-1766.41	  388.92
     37.2700	  513.00	  513.20	-1762.70	  388.73
     37.3700	  508.00	  515.55	-1770.05	  388.55
     37.4700	  522.00	  519.03	-1759.53	  388.37
     37.5700	  513.00	  523.11	-1772.61	  388.19
     37.6700	  488.00	  526.58	-1801.08	  388.01
     37.7700	  541.00	  528.00	-1749.50	  387.83
     37.8700	  572.00	  526.90	-1717.40	  387.66
     37.9700	  498.00	  524.29	-1788.79	  387.49
     38.0700	  475.00	  521.08	-1808.58	  387.31
     38.1700	  529.00	  517.59	-1751.09	  387.15
     38.2700	  497.00	  514.28	-1779.78	  386.98
     38.3700	  515.00	  511.59	-1759.09	  386.81
     38.4700	  532.00	  509.69	-1740.19	  386.65
     38.5700	  514.00	  508.45	-1756.95	  386.48
     38.6700	  487.00	  507.70	-1783.20	  386.32
     38.7700	  516.00	  507.13	-1753.63	  386.16
     38.8700	  486.00	  506.80	-1783.30	  386.00
     38.9700	  520.00	  506.54	-1749.04	  385.85
     39.0700	  488.00	  506.32	-1780.82	  385.69
     39.1700	  487.00	  506.12	-1781.62	  385.54
     39.2700	  496.00	  505.86	-1772.36	  385.39
     39.3700	  552.00	  505.69	-1716.19	  385.24
     39.4700	  464.00	  505.54	-1804.04	  385.09
     39.5700	  543.00	  505.39	-1724.89	  384.95
     39.6700	  528.00	  505.38	-1739.88	  384.80
     39.7700	  525.00	  505.26	-1742.76	  384.66
     39.8700	  551.00	  505.15	-1716.65	  384.52
     39.9700	  488.00	  505.04	-1779.54	  384.38
     40.0700	  520.00	  504.95	-1747.45	  384.24
     40.1700	  509.00	  504.87	-1758.37	  384.10
     40.2700	  473.00	  504.79	-1794.29	  383.97
     40.3700	  494.00	  504.73	-1773.23	  383.84
     40.4700	  477.00	  504.68	-1790.18	  383.71
     40.5700	  540.00	  504.65	-1727.15	  383.58
     40.6700	  486.00	  504.63	-1781.13	  383.45
     40.7700	  472.00	  504.64	-1795.14	  383.32
     40.8700	  517.00	  504.66	-1750.16	  383.20
     40.9700	  515.00	  504.71	-1752.21	  383.08
     41.0700	  494.00	  504.79	-1773.29	  382.95
     41.1700	  465.00	  504.92	-1802.42	  382.84
     41.2700	  524.00	  505.06	-1743.56	  382.72
     41.3700	  517.00	  505.29	-1750.79	  382.60
     41.4700	  484.00	  505.61	-1784.11	  382.49
     41.5700	  489.00	  506.46	-1779.96	  382.38
     41.6700	  481.00	  507.07	-1788.57	  382.27
     41.7700	  505.00	  507.97	-1765.47	  382.16
     41.8700	  486.00	  509.48	-1785.98	  382.05
     41.9700	  508.00	  512.27	-1766.77	  381.94
     42.0700	  501.00	  517.70	-1779.20	  381.84
     42.1700	  524.00	  527.97	-1766.47	  381.74
     42.2700	  561.00	  545.75	-1747.25	  381.64
     42.3700	  582.00	  572.50	-1753.00	  381.54
     42.4700	  579.00	  606.47	-1789.97	  381.44
     42.5700	  623.00	  640.38	-1779.88	  381.35
     42.6700	  585.00	  662.08	-1839.58	  381.25
     42.7700	  619.00	  660.37	-1803.87	  381.16
     42.8700	  576.00	  635.23	-1821.73	  381.07
     42.9700	  531.00	  599.41	-1830.91	  380.98
     43.0700	  554.00	  565.64	-1774.14	  380.89
     43.1700	  498.00	  540.30	-1804.80	  380.81
     43.2700	  499.00	  524.26	-1787.76	  380.72
     43.3700	  543.00	  515.38	-1734.88	  380.64
     43.4700	  485.00	  510.83	-1788.33	  380.56
     43.5700	  484.00	  508.50	-1787.00	  380.48
     43.6700	  507.00	  507.19	-1762.69	  380.41
     43.7700	  524.00	  506.54	-1745.04	  380.33
     43.8700	  504.00	  505.94	-1764.44	  380.26
     43.9700	  532.00	  505.49	-1735.99	  380.18
     44.0700	  518.00	  505.14	-1749.64	  380.11
     44.1700	  522.00	  504.91	-1745.41	  380.04
     44.2700	  477.00	  504.71	-1790.21	  379.98
     44.3700	  456.00	  504.56	-1811.06	  379.91
     44.4700	  479.00	  504.45	-1787.95	  379.85
     44.5700	  493.00	  504.25	-1773.75	  379.79
     44.6700	  500.00	  504.21	-1766.71	  379.73
     44.7700	  513.00	  504.20	-1753.70	  379.67
     44.8700	  509.00	  504.21	-1757.71	  379.61
     44.9700	  518.00	  504.25	-1748.75	  379.55
     45.0700	  478.00	  504.31	-1788.81	  379.50
     45.1700	  474.00	  504.39	-1792.89	  379.45
     45.2700	  457.00	  504.67	-1810.17	  379.40
     45.3700	  501.00	  504.80	-1766.30	  379.35
     45.4700	  504.00	  504.95	-1763.45	  379.30
     45.5700	  546.00	  505.12	-1721.62	  379.25
     45.6700	  532.00	  505.32	-1735.82	  379.21
     45.7700	  513.00	  505.54	-1755.04	  379.17
     45.8700	  507.00	  505.79	-1761.29	  379.12
     45.9700	  561.00	  506.07	-1707.57	  379.09
     46.0700	  484.00	  506.38	-1784.88	  379.05
     46.1700	  511.00	  506.73	-1758.23	  379.01
     46.2700	  557.00	  507.12	-1712.62	  378.98
     46.3700	  496.00	  507.57	-1774.07	  378.94
     46.4700	  494.00	  508.06	-1776.56	  378.91
     46.5700	  512.00	  508.63	-1759.13	  378.88
     46.6700	  494.00	  509.27	-1777.77	  378.85
     46.7700	  519.00	  510.03	-1753.53	  378.83
     46.8700	  486.00	  510.93	-1787.43	  378.80
     46.9700	  500.00	  512.11	-1774.61	  378.78
     47.0700	  503.00	  513.79	-1773.29	  378.75
     47.1700	  512.00	  516.48	-1766.98	  378.73
     47.2700	  539.00	  520.98	-1744.48	  378.71
     47.3700	  532.00	  528.51	-1759.01	  378.70
     47.4700	  535.00	  540.03	-1767.53	  378.68
     47.5700	  525.00	  555.86	-1793.36	  378.66
     47.6700	  551.00	  574.46	-1785.96	  378.65
     47.7700	  559.00	  591.96	-1795.46	  378.64
     47.8700	  592.00	  602.77	-1773.27	  378.63
     47.9700	  537.00	  602.44	-1827.94	  378.62
     48.0700	  576.00	  591.84	-1778.34	  378.61
     48.1700	  566.00	  576.45	-1772.95	  378.61
     48.2700	  539.00	  561.83	-1785.33	  378.60
     48.3700	  519.00	  551.13	-1794.63	  378.60
     48.4700	  542.00	  545.26	-1765.76	  378.60
     48.5700	  543.00	  543.63	-1763.13	  378.60
     48.6700	  527.00	  545.19	-1780.69	  378.60
     48.7700	  517.00	  549.06	-1794.56	  378.60
     48.8700	  549.00	  554.81	-1768.31	  378.61
     48.9700	  548.00	  562.53	-1777.03	  378.62
     49.0700	  581.00	  572.93	-1754.43	  378.62
     49.1700	  577.00	  587.70	-1773.20	  378.63
     49.2700	  641.00	  610.38	-1731.88	  378.64
     49.3700	  701.00	  647.67	-1709.17	  378.65
     49.4700	  673.00	  710.79	-1800.29	  378.67
     49.5700	  799.00	  816.12	-1779.62	  378.68
     49.6700	  906.00	  981.33	-1837.83	  378.70
     49.7700	 1117.00	 1220.36	-1865.86	  378.71
     49.8700	 1531.00	 1531.66	-1763.16	  378.73
     49.9700	 1854.00	 1886.50	-1795.00	  378.75
     50.0700	 2154.00	 2219.93	-1828.43	  378.78
     50.1700	 2512.00	 2434.83	-1685.33	  378.80
     50.2700	 2469.00	 2443.44	-1736.94	  378.82
     50.3700	 2328.00	 2239.56	-1674.06	  378.85
     50.4700	 1897.00	 1908.64	-1774.14	  378.88
     50.5700	 1496.00	 1553.46	-1819.96	  378.90
     50.6700	 1067.00	 1242.57	-1938.07	  378.93
     50.7700	  835.00	 1006.29	-1933.79	  378.96
     50.8700	  702.00	  846.64	-1907.14	  379.00
     50.9700	  643.00	  748.85	-1868.35	  379.03
     51.0700	  611.00	  692.08	-1843.58	  379.06
     51.1700	  700.00	  657.33	-1719.83	  379.10
     51.2700	  593.00	  631.95	-1801.45	  379.14
     51.3700	  602.00	  610.50	-1771.00	  379.18
     51.4700	  607.00	  592.03	-1747.53	  379.22
     51.5700	  571.00	  576.93	-1768.43	  379.26
     51.6700	  548.00	  565.43	-1779.93	  379.30
     51.7700	  549.00	  557.24	-1770.74	  379.35
     51.8700	  580.00	  551.69	-1734.19	  379.39
     51.9700	  574.00	  548.02	-1736.52	  379.44
     52.0700	  563.00	  545.67	-1745.17	  379.48
     52.1700	  534.00	  544.30	-1772.80	  379.53
     52.2700	  504.00	  544.04	-1802.54	  379.58
     52.3700	  520.00	  544.55	-1787.05	  379.64
     52.4700	  605.00	  546.45	-1703.95	  379.69
     52.5700	  570.00	  550.72	-1743.22	  379.74
     52.6700	  588.00	  559.48	-1733.98	  379.80
     52.7700	  604.00	  576.66	-1735.16	  379.85
     52.8700	  655.00	  608.43	-1715.93	  379.91
     52.9700	  708.00	  662.53	-1717.03	  379.97
     53.0700	  821.00	  745.63	-1687.13	  380.03
     53.1700	  906.00	  858.74	-1715.24	  380.09
     53.2700	 1078.00	  992.18	-1676.68	  380.15
     53.3700	 1145.00	 1122.30	-1739.80	  380.21
     53.4700	 1151.00	 1213.45	-1824.95	  380.28
     53.5700	 1178.00	 1231.24	-1815.74	  380.34
     53.6700	 1063.00	 1167.33	-1866.83	  380.41
     53.7700	 1028.00	 1048.02	-1782.52	  380.48
     53.8700	  884.00	  911.86	-1790.36	  380.55
     53.9700	  746.00	  788.44	-1804.94	  380.62
     54.0700	  620.00	  692.93	-1835.43	  380.69
     54.1700	  634.00	  628.05	-1756.55	  380.76
     54.2700	  613.00	  588.69	-1738.19	  380.83
     54.3700	  602.00	  566.96	-1727.46	  380.91
     54.4700	  601.00	  555.78	-1717.28	  380.98
     54.5700	  562.00	  550.35	-1750.85	  381.06
     54.6700	  587.00	  547.86	-1723.36	  381.13
     54.7700	  606.00	  546.97	-1703.47	  381.21
     54.8700	  535.00	  547.09	-1774.59	  381.29
     54.9700	  544.00	  547.98	-1766.48	  381.37
     55.0700	  551.00	  549.58	-1761.08	  381.45
     55.1700	  532.00	  551.90	-1782.40	  381.53
     55.2700	  587.00	  555.02	-1730.52	  381.62
     55.3700	  519.00	  559.03	-1802.53	  381.70
     55.4700	  567.00	  564.14	-1759.64	  381.79
     55.5700	  595.00	  570.74	-1738.24	  381.87
     55.6700	  597.00	  579.60	-1745.10	  381.96
     55.7700	  541.00	  592.30	-1813.80	  382.05
     55.8700	  600.00	  612.07	-1774.57	  382.14
     55.9700	  599.00	  644.92	-1808.42	  382.23
     56.0700	  705.00	  701.06	-1758.56	  382.32
     56.1700	  688.00	  795.34	-1869.84	  382.41
     56.2700	  855.00	  945.75	-1853.25	  382.50
     56.3700	 1054.00	 1168.13	-1876.63	  382.60
     56.4700	 1468.00	 1467.70	-1762.20	  382.69
     56.5700	 1692.00	 1829.21	-1899.71	  382.78
     56.6700	 2147.00	 2208.75	-1824.25	  382.88
     56.7700	 2529.00	 2531.81	-1765.31	  382.98
     56.8700	 2536.00	 2706.21	-1932.71	  383.07
     56.9700	 2642.00	 2667.65	-1788.15	  383.17
     57.0700	 2436.00	 2430.98	-1757.48	  383.27
     57.1700	 2105.00	 2078.41	-1735.91	  383.37
     57.2700	 1627.00	 1700.24	-1835.74	  383.47
     57.3700	 1313.00	 1360.67	-1810.17	  383.58
     57.4700	 1024.00	 1092.42	-1830.92	  383.68
     57.5700	  863.00	  902.37	-1801.87	  383.78
     57.6700	  801.00	  780.67	-1742.17	  383.89
     57.7700	  732.00	  710.55	-1741.05	  383.99
     57.8700	  700.00	  676.11	-1738.61	  384.10
     57.9700	  670.00	  666.10	-1758.60	  384.20
     58.0700	  721.00	  674.57	-1716.07	  384.31
     58.1700	  706.00	  699.57	-1756.07	  384.42
     58.2700	  766.00	  741.26	-1737.76	  384.53
     58.3700	  876.00	  799.94	-1686.44	  384.63
     58.4700	  968.00	  874.43	-1668.93	  384.74
     58.5700	 1147.00	  960.35	-1575.85	  384.85
     58.6700	 1233.00	 1049.53	-1579.03	  384.97
     58.7700	 1427.00	 1132.20	-1467.70	  385.08
     58.8700	 1506.00	 1201.33	-1457.83	  385.19
     58.9700	 1594.00	 1252.84	-1421.34	  385.30
     59.0700	 1584.00	 1281.43	-1459.93	  385.42
     59.1700	 1523.00	 1282.15	-1521.65	  385.53
     59.2700	 1490.00	 1258.35	-1530.85	  385.65
     59.3700	 1345.00	 1222.58	-1640.08	  385.76
     59.4700	 1288.00	 1188.12	-1662.62	  385.88
     59.5700	 1194.00	 1164.06	-1732.56	  385.99
     59.6700	 1135.00	 1157.89	-1785.39	  386.11
     59.7700	 1142.00	 1178.29	-1798.79	  386.23
     59.8700	 1239.00	 1231.03	-1754.53	  386.35
     59.9700	 1348.00	 1312.62	-1727.12	  386.47
     60.0700	 1506.00	 1407.06	-1663.56	  386.59
     60.1700	 1631.00	 1486.19	-1617.69	  386.71
     60.2700	 1590.00	 1516.68	-1689.18	  386.83
     60.3700	 1559.00	 1476.93	-1680.43	  386.95
     60.4700	 1443.00	 1372.53	-1692.03	  387.07
     60.5700	 1298.00	 1230.17	-1694.67	  387.19
     60.6700	 1117.00	 1079.27	-1724.77	  387.31
     60.7700	  970.00	  941.55	-1734.05	  387.44
     60.8700	  754.00	  829.41	-1837.91	  387.56
     60.9700	  693.00	  747.26	-1816.76	  387.69
     61.0700	  647.00	  694.09	-1809.59	  387.81
     61.1700	  640.00	  666.59	-1789.09	  387.93
     61.2700	  630.00	  661.92	-1794.42	  388.06
     61.3700	  684.00	  679.44	-1757.94	  388.18
     61.4700	  699.00	  721.02	-1784.52	  388.31
     61.5700	  807.00	  789.79	-1745.29	  388.44
     61.6700	  849.00	  887.76	-1801.26	  388.56
     61.7700	  948.00	 1012.81	-1827.31	  388.69
     61.8700	 1061.00	 1156.06	-1857.56	  388.82
     61.9700	 1154.00	 1299.95	-1908.45	  388.95
     62.0700	 1413.00	 1418.27	-1767.77	  389.07
     62.1700	 1356.00	 1480.98	-1887.48	  389.20
     62.2700	 1354.00	 1467.73	-1876.23	  389.33
     62.3700	 1223.00	 1382.37	-1921.87	  389.46
     62.4700	 1232.00	 1250.07	-1780.57	  389.59
     62.5700	  999.00	 1100.79	-1864.29	  389.72
     62.6700	  934.00	  958.17	-1786.67	  389.85
     62.7700	  832.00	  836.72	-1767.22	  389.98
     62.8700	  708.00	  742.54	-1797.04	  390.11
     62.9700	  682.00	  675.24	-1755.74	  390.24
     63.0700	  593.00	  630.49	-1799.99	  390.37
     63.1700	  544.00	  602.55	-1821.05	  390.50
     63.2700	  582.00	  586.05	-1766.55	  390.63
     63.3700	  524.00	  577.00	-1815.50	  390.77
     63.4700	  589.00	  573.01	-1746.51	  390.90
     63.5700	  617.00	  573.14	-1718.64	  391.03
     63.6700	  583.00	  577.71	-1757.21	  391.16
     63.7700	  588.00	  588.03	-1762.53	  391.29
     63.8700	  646.00	  606.07	-1722.57	  391.43
     63.9700	  633.00	  633.96	-1763.46	  391.56
     64.0700	  740.00	  673.18	-1695.68	  391.69
     64.1700	  720.00	  723.59	-1766.09	  391.82
     64.2700	  863.00	  782.56	-1682.06	  391.96
     64.3700	  876.00	  844.28	-1730.78	  392.09
     64.4700	 1008.00	  899.76	-1654.26	  392.22
     64.5700	  964.00	  938.37	-1736.87	  392.36
     64.6700	  998.00	  951.10	-1715.60	  392.49
     64.7700	  944.00	  937.03	-1755.53	  392.62
     64.8700	  898.00	  900.55	-1765.05	  392.76
     64.9700	  888.00	  850.30	-1724.80	  392.89
     65.0700	  860.00	  795.69	-1698.19	  393.02
     65.1700	  764.00	  744.17	-1742.67	  393.16
     65.2700	  710.00	  699.99	-1752.49	  393.29
     65.3700	  676.00	  664.27	-1750.77	  393.42
     65.4700	  655.00	  636.17	-1743.67	  393.56
     65.5700	  648.00	  614.30	-1728.80	  393.69
     65.6700	  638.00	  597.48	-1721.98	  393.82
     65.7700	  595.00	  584.78	-1752.28	  393.96
     65.8700	  574.00	  575.53	-1764.03	  394.09
     65.9700	  532.00	  569.18	-1799.68	  394.22
     66.0700	  566.00	  565.27	-1761.77	  394.36
     66.1700	  556.00	  563.41	-1769.91	  394.49
     66.2700	  581.00	  563.23	-1744.73	  394.62
     66.3700	  540.00	  564.46	-1786.96	  394.75
     66.4700	  559.00	  566.93	-1770.43	  394.89
     66.5700	  542.00	  570.71	-1791.21	  395.02
     66.6700	  588.00	  576.27	-1750.77	  395.15
     66.7700	  553.00	  584.26	-1793.76	  395.28
     66.8700	  555.00	  596.43	-1803.93	  395.42
     66.9700	  583.00	  615.69	-1795.19	  395.55
     67.0700	  618.00	  646.65	-1791.15	  395.68
     67.1700	  673.00	  695.95	-1785.45	  395.81
     67.2700	  754.00	  772.10	-1780.60	  395.94
     67.3700	  856.00	  884.35	-1790.85	  396.07
     67.4700	 1039.00	 1040.55	-1764.05	  396.21
     67.5700	 1240.00	 1243.40	-1765.90	  396.34
     67.6700	 1511.00	 1488.12	-1739.62	  396.47
     67.7700	 1746.00	 1758.43	-1774.93	  396.60
     67.8700	 1995.00	 2025.60	-1793.10	  396.73
     67.9700	 2264.00	 2249.36	-1747.86	  396.86
     68.0700	 2430.00	 2384.13	-1716.63	  396.99
     68.1700	 2461.00	 2395.64	-1697.14	  397.12
     68.2700	 2293.00	 2280.62	-1750.12	  397.24
     68.3700	 2111.00	 2069.23	-1720.73	  397.37
     68.4700	 1823.00	 1806.66	-1746.16	  397.50
     68.5700	 1549.00	 1534.86	-1748.36	  397.63
     68.6700	 1277.00	 1284.74	-1770.24	  397.76
     68.7700	 1055.00	 1074.35	-1781.85	  397.88
     68.8700	  853.00	  910.69	-1820.19	  398.01
     68.9700	  786.00	  791.92	-1768.42	  398.14
     69.0700	  685.00	  710.73	-1788.23	  398.26
     69.1700	  726.00	  657.98	-1694.48	  398.39
     69.2700	  644.00	  624.91	-1743.41	  398.52
     69.3700	  636.00	  604.54	-1731.04	  398.64
     69.4700	  629.00	  591.91	-1725.41	  398.77
     69.5700	  602.00	  583.84	-1744.34	  398.89
     69.6700	  581.00	  578.48	-1759.98	  399.01
     69.7700	  608.00	  574.79	-1729.29	  399.14
     69.8700	  550.00	  572.24	-1784.74	  399.26
     69.9700	  598.00	  570.55	-1735.05	  399.38
     70.0700	  555.00	  569.60	-1777.10	  399.50
     70.1700	  558.00	  569.33	-1773.83	  399.63
     70.2700	  565.00	  569.77	-1767.27	  399.75
     70.3700	  578.00	  571.00	-1755.50	  399.87
     70.4700	  582.00	  573.24	-1753.74	  399.99
     70.5700	  575.00	  576.95	-1764.45	  400.11
     70.6700	  533.00	  582.98	-1812.48	  400.23
     70.7700	  556.00	  592.78	-1799.28	  400.34
     70.8700	  561.00	  608.72	-1810.22	  400.46
     70.9700	  640.00	  634.29	-1756.79	  400.58
     71.0700	  653.00	  674.26	-1783.76	  400.70
     71.1700	  737.00	  734.34	-1759.84	  400.81
     71.2700	  885.00	  820.38	-1697.88	  400.93
     71.3700	  966.00	  936.95	-1733.45	  401.04
     71.4700	 1049.00	 1086.17	-1799.67	  401.16
     71.5700	 1187.00	 1262.48	-1837.98	  401.27
     71.6700	 1433.00	 1456.02	-1785.52	  401.38
     71.7700	 1549.00	 1648.79	-1862.29	  401.50
     71.8700	 1828.00	 1815.97	-1750.47	  401.61
     71.9700	 1870.00	 1928.94	-1821.44	  401.72
     72.0700	 1936.00	 1963.54	-1790.04	  401.83
     72.1700	 1868.00	 1911.49	-1805.99	  401.94
     72.2700	 1788.00	 1785.45	-1759.95	  402.05
     72.3700	 1617.00	 1611.13	-1756.63	  402.16
     72.4700	 1497.00	 1417.54	-1683.04	  402.27
     72.5700	 1387.00	 1227.65	-1603.15	  402.37
     72.6700	 1156.00	 1057.67	-1664.17	  402.48
     72.7700	 1032.00	  916.42	-1646.92	  402.59
     72.8700	  953.00	  806.32	-1615.82	  402.69
     72.9700	  877.00	  725.21	-1610.71	  402.80
     73.0700	  785.00	  668.25	-1645.75	  402.90
     73.1700	  759.00	  629.72	-1633.22	  403.00
     73.2700	  706.00	  604.28	-1660.78	  403.10
     73.3700	  668.00	  587.65	-1682.15	  403.20
     73.4700	  644.00	  576.67	-1695.17	  403.31
     73.5700	  608.00	  569.31	-1723.81	  403.40
     73.6700	  608.00	  564.29	-1718.79	  403.50
     73.7700	  572.00	  560.87	-1751.37	  403.60
     73.8700	  573.00	  558.62	-1748.12	  403.70
     73.9700	  568.00	  557.29	-1751.79	  403.80
     74.0700	  599.00	  556.70	-1720.20	  403.89
     74.1700	  637.00	  556.70	-1682.20	  403.99
     74.2700	  644.00	  557.09	-1675.59	  404.08
     74.3700	  625.00	  557.65	-1695.15	  404.17
     74.4700	  642.00	  558.11	-1678.61	  404.27
     74.5700	  625.00	  558.22	-1695.72	  404.36
     74.6700	  642.00	  557.77	-1678.27	  404.45
     74.7700	  634.00	  556.70	-1685.20	  404.54
     74.8700	  611.00	  555.14	-1706.64	  404.63
     74.9700	  572.00	  553.34	-1743.84	  404.71
     75.0700	  595.00	  551.62	-1719.12	  404.80
     75.1700	  553.00	  550.25	-1759.75	  404.89
     75.2700	  594.00	  549.66	-1718.16	  404.97
     75.3700	  569.00	  550.11	-1743.61	  405.06
     75.4700	  600.00	  552.15	-1714.65	  405.14
     75.5700	  567.00	  556.20	-1751.70	  405.22
     75.6700	  562.00	  562.69	-1763.19	  405.30
     75.7700	  594.00	  572.31	-1740.81	  405.38
     75.8700	  561.00	  585.27	-1786.77	  405.46
     75.9700	  622.00	  601.56	-1742.06	  405.54
     76.0700	  608.00	  620.71	-1775.21	  405.62
     76.1700	  596.00	  641.66	-1808.16	  405.69
     76.2700	  690.00	  662.68	-1735.18	  405.77
     76.3700	  742.00	  681.46	-1701.96	  405.84
     76.4700	  661.00	  695.35	-1796.85	  405.92
     76.5700	  739.00	  701.88	-1725.38	  405.99
     76.6700	  728.00	  699.70	-1734.20	  406.06
     76.7700	  635.00	  689.23	-1816.73	  406.13
     76.8700	  643.00	  672.47	-1791.97	  406.20
     76.9700	  592.00	  652.08	-1822.58	  406.27
     77.0700	  627.00	  630.40	-1765.90	  406.33
     77.1700	  568.00	  609.83	-1804.33	  406.40
     77.2700	  568.00	  591.57	-1786.07	  406.46
     77.3700	  530.00	  576.38	-1808.88	  406.53
     77.4700	  488.00	  564.47	-1838.97	  406.59
     77.5700	  556.00	  555.60	-1762.10	  406.65
     77.6700	  533.00	  549.31	-1778.81	  406.71
     77.7700	  530.00	  545.03	-1777.53	  406.77
     77.8700	  513.00	  542.21	-1791.71	  406.83
     77.9700	  506.00	  540.41	-1796.91	  406.89
     78.0700	  534.00	  539.28	-1767.78	  406.94
     78.1700	  535.00	  538.56	-1766.06	  407.00
     78.2700	  531.00	  538.12	-1769.62	  407.05
     78.3700	  462.00	  537.85	-1838.35	  407.10
     78.4700	  546.00	  537.71	-1754.21	  407.16
     78.5700	  525.00	  537.67	-1775.17	  407.21
     78.6700	  530.00	  537.72	-1770.22	  407.25
     78.7700	  546.00	  537.89	-1754.39	  407.30
     78.8700	  503.00	  538.18	-1797.68	  407.35
     78.9700	  524.00	  538.64	-1777.14	  407.39
     79.0700	  541.00	  539.31	-1760.81	  407.44
     79.1700	  503.00	  540.25	-1799.75	  407.48
     79.2700	  519.00	  541.52	-1785.02	  407.52
     79.3700	  506.00	  543.01	-1799.51	  407.56
     79.4700	  502.00	  545.15	-1805.65	  407.60
     79.5700	  485.00	  547.82	-1825.32	  407.64
     79.6700	  544.00	  551.13	-1769.63	  407.68
     79.7700	  532.00	  555.17	-1785.67	  407.71
     79.8700	  535.00	  560.06	-1787.56	  407.75
     79.9700	  512.00	  565.99	-1816.49	  407.78
     80.0700	  566.00	  573.16	-1769.66	  407.81
     80.1700	  600.00	  581.85	-1744.35	  407.84
     80.2700	  564.00	  592.35	-1790.85	  407.87
     80.3700	  611.00	  604.92	-1756.42	  407.90
     80.4700	  562.00	  619.62	-1820.12	  407.93
     80.5700	  585.00	  636.24	-1813.74	  407.95
     80.6700	  624.00	  654.20	-1792.70	  407.98
     80.7700	  639.00	  672.54	-1796.04	  408.00
     80.8700	  649.00	  689.91	-1803.41	  408.02
     80.9700	  615.00	  704.85	-1852.35	  408.04
     81.0700	  772.00	  716.04	-1706.54	  408.06
     81.1700	  699.00	  722.57	-1786.07	  408.08
     81.2700	  763.00	  724.00	-1723.50	  408.10
     81.3700	  769.00	  720.32	-1713.82	  408.11
     81.4700	  757.00	  711.98	-1717.48	  408.13
     81.5700	  763.00	  699.77	-1699.27	  408.14
     81.6700	  789.00	  684.70	-1658.20	  408.15
     81.7700	  715.00	  667.81	-1715.31	  408.16
     81.8700	  703.00	  650.10	-1709.60	  408.17
     81.9700	  638.00	  632.58	-1757.08	  408.17
     82.0700	  590.00	  616.03	-1788.53	  408.18
     82.1700	  672.00	  601.17	-1691.67	  408.18
     82.2700	  645.00	  588.28	-1705.78	  408.19
     82.3700	  565.00	  577.51	-1775.01	  408.19
     82.4700	  614.00	  568.83	-1717.33	  408.19
     82.5700	  552.00	  562.11	-1772.61	  408.19
     82.6700	  569.00	  557.25	-1750.75	  408.19
     82.7700	  603.00	  554.07	-1713.57	  408.18
     82.8700	  584.00	  552.44	-1730.94	  408.18
     82.9700	  592.00	  552.25	-1722.75	  408.17
     83.0700	  543.00	  553.42	-1772.92	  408.16
     83.1700	  534.00	  555.88	-1784.38	  408.15
     83.2700	  525.00	  559.52	-1797.02	  408.14
     83.3700	  590.00	  564.21	-1736.71	  408.13
     83.4700	  565.00	  569.71	-1767.21	  408.12
     83.5700	  574.00	  575.68	-1764.18	  408.10
     83.6700	  559.00	  581.68	-1785.18	  408.08
     83.7700	  575.00	  587.16	-1774.66	  408.07
     83.8700	  542.00	  591.49	-1811.99	  408.05
     83.9700	  553.00	  594.06	-1803.56	  408.03
     84.0700	  576.00	  594.46	-1780.96	  408.00
     84.1700	  563.00	  592.59	-1792.09	  407.98
     84.2700	  560.00	  588.71	-1791.21	  407.96
     84.3700	  559.00	  583.36	-1786.86	  407.93
     84.4700	  557.00	  577.13	-1782.63	  407.90
     84.5700	  521.00	  570.62	-1812.12	  407.87
     84.6700	  547.00	  564.27	-1779.77	  407.84
     84.7700	  512.00	  558.45	-1808.95	  407.81
     84.8700	  531.00	  553.38	-1784.88	  407.77
     84.9700	  503.00	  549.17	-1808.67	  407.74
     85.0700	  567.00	  545.84	-1741.34	  407.70
     85.1700	  505.00	  543.34	-1800.84	  407.66
     85.2700	  553.00	  541.57	-1751.07	  407.63
     85.3700	  503.00	  540.42	-1799.92	  407.58
     85.4700	  521.00	  539.79	-1781.29	  407.54
     85.5700	  542.00	  539.59	-1760.09	  407.50
     85.6700	  545.00	  539.75	-1757.25	  407.45
     85.7700	  559.00	  540.24	-1743.74	  407.41
     85.8700	  547.00	  541.06	-1756.56	  407.36
     85.9700	  550.00	  542.23	-1754.73	  407.31
     86.0700	  504.00	  543.82	-1802.32	  407.26
     86.1700	  550.00	  545.90	-1758.40	  407.20
     86.2700	  545.00	  548.60	-1766.10	  407.15
     86.3700	  558.00	  552.03	-1756.53	  407.09
     86.4700	  516.00	  556.33	-1802.83	  407.04
     86.5700	  559.00	  561.61	-1765.11	  406.98
     86.6700	  616.00	  567.91	-1714.41	  406.92
     86.7700	  582.00	  575.19	-1755.69	  406.86
     86.8700	  617.00	  582.95	-1728.45	  406.79
     86.9700	  605.00	  591.45	-1748.95	  406.73
     87.0700	  640.00	  599.89	-1722.39	  406.66
     87.1700	  682.00	  607.64	-1688.14	  406.60
     87.2700	  642.00	  613.97	-1734.47	  406.53
     87.3700	  644.00	  618.17	-1736.67	  406.46
     87.4700	  657.00	  619.68	-1725.18	  406.38
     87.5700	  638.00	  618.29	-1742.79	  406.31
     87.6700	  674.00	  614.21	-1702.71	  406.24
     87.7700	  614.00	  608.03	-1756.53	  406.16
     87.8700	  650.00	  600.55	-1713.05	  406.08
     87.9700	  577.00	  592.59	-1778.09	  406.00
     88.0700	  610.00	  584.92	-1737.42	  405.92
     88.1700	  617.00	  578.18	-1723.68	  405.84
     88.2700	  588.00	  572.87	-1747.37	  405.75
     88.3700	  555.00	  569.32	-1776.82	  405.67
     88.4700	  590.00	  567.71	-1740.21	  405.58
     88.5700	  552.00	  568.04	-1778.54	  405.49
     88.6700	  592.00	  570.17	-1740.67	  405.40
     88.7700	  595.00	  573.82	-1741.32	  405.31
     88.8700	  603.00	  578.61	-1738.11	  405.22
     88.9700	  546.00	  584.06	-1800.56	  405.13
     89.0700	  561.00	  589.61	-1791.11	  405.03
     89.1700	  618.00	  594.66	-1739.16	  404.93
     89.2700	  623.00	  598.59	-1738.09	  404.84
     89.3700	  630.00	  600.87	-1733.37	  404.74
     89.4700	  601.00	  601.14	-1762.64	  404.63
     89.5700	  560.00	  599.31	-1801.81	  404.53
     89.6700	  579.00	  595.59	-1779.09	  404.43
     89.7700	  613.00	  590.42	-1739.92	  404.32
     89.8700	  516.00	  584.31	-1830.81	  404.21
     89.9700	  541.00	  577.76	-1799.26	  404.10
     90.0700	  539.00	  571.21	-1794.71	  403.99
     90.1700	  517.00	  565.02	-1810.52	  403.88
     90.2700	  550.00	  559.45	-1771.95	  403.77
     90.3700	  511.00	  554.64	-1806.14	  403.66
     90.4700	  522.00	  550.66	-1791.16	  403.54
     90.5700	  521.00	  547.51	-1789.01	  403.42
     90.6700	  511.00	  545.13	-1796.63	  403.30
     90.7700	  543.00	  543.43	-1762.93	  403.18
     90.8700	  535.00	  542.32	-1769.82	  403.06
     90.9700	  545.00	  541.71	-1759.21	  402.94
     91.0700	  523.00	  541.53	-1781.03	  402.81
     91.1700	  510.00	  541.73	-1794.23	  402.69
     91.2700	  538.00	  542.33	-1766.83	  402.56
     91.3700	  526.00	  543.36	-1779.86	  402.43
     91.4700	  511.00	  544.89	-1796.39	  402.30
     91.5700	  504.00	  547.04	-1805.54	  402.17
     91.6700	  521.00	  549.98	-1791.48	  402.04
     91.7700	  565.00	  553.88	-1751.38	  401.90
     91.8700	  516.00	  558.96	-1805.46	  401.76
     91.9700	  535.00	  565.19	-1792.69	  401.63
     92.0700	  555.00	  573.19	-1780.69	  401.49
     92.1700	  554.00	  582.87	-1791.37	  401.35
     92.2700	  563.00	  594.28	-1793.78	  401.21
     92.3700	  629.00	  607.34	-1740.84	  401.06
     92.4700	  630.00	  621.89	-1754.39	  400.92
     92.5700	  627.00	  637.60	-1773.10	  400.77
     92.6700	  706.00	  654.04	-1710.54	  400.63
     92.7700	  688.00	  670.60	-1745.10	  400.48
     92.8700	  732.00	  686.63	-1717.13	  400.33
     92.9700	  707.00	  701.44	-1756.94	  400.18
     93.0700	  781.00	  714.45	-1695.95	  400.03
     93.1700	  772.00	  725.37	-1715.87	  399.87
     93.2700	  824.00	  734.31	-1672.81	  399.72
     93.3700	  863.00	  741.72	-1641.22	  399.56
     93.4700	  762.00	  748.30	-1748.80	  399.40
     93.5700	  798.00	  754.77	-1719.27	  399.24
     93.6700	  836.00	  761.83	-1688.33	  399.08
     93.7700	  825.00	  770.06	-1707.56	  398.92
     93.8700	  834.00	  779.97	-1708.47	  398.76
     93.9700	  857.00	  791.97	-1697.47	  398.59
     94.0700	  868.00	  806.38	-1700.88	  398.43
     94.1700	  820.00	  823.22	-1765.72	  398.26
     94.2700	  939.00	  842.16	-1665.66	  398.09
     94.3700	  838.00	  862.44	-1786.94	  397.92
     94.4700	  880.00	  882.84	-1765.34	  397.75
     94.5700	  918.00	  901.72	-1746.22	  397.58
     94.6700	  913.00	  917.17	-1766.67	  397.41
     94.7700	  877.00	  927.18	-1812.68	  397.23
     94.8700	  920.00	  930.09	-1772.59	  397.06
     94.9700	  915.00	  924.93	-1772.43	  396.88
     95.0700	  873.00	  911.76	-1801.26	  396.70
     95.1700	  904.00	  891.59	-1750.09	  396.52
     95.2700	  850.00	  866.18	-1778.68	  396.34
     95.3700	  820.00	  837.59	-1780.09	  396.16
     95.4700	  889.00	  807.95	-1681.45	  395.98
     95.5700	  739.00	  779.28	-1802.78	  395.80
     95.6700	  744.00	  753.44	-1771.94	  395.61
     95.7700	  695.00	  732.08	-1799.58	  395.42
     95.8700	  744.00	  716.69	-1735.19	  395.24
     95.9700	  649.00	  708.54	-1822.04	  395.05
     96.0700	  647.00	  708.75	-1824.25	  394.86
     96.1700	  689.00	  718.24	-1791.74	  394.67
     96.2700	  685.00	  737.73	-1815.23	  394.48
     96.3700	  741.00	  767.67	-1789.17	  394.28
     96.4700	  768.00	  808.18	-1802.68	  394.09
     96.5700	  823.00	  858.94	-1798.44	  393.89
     96.6700	  936.00	  919.13	-1745.63	  393.70
     96.7700	  987.00	  987.27	-1762.77	  393.50
     96.8700	  999.00	 1061.22	-1824.72	  393.30
     96.9700	 1201.00	 1138.08	-1699.58	  393.10
     97.0700	 1181.00	 1214.35	-1795.85	  392.90
     97.1700	 1309.00	 1285.91	-1739.41	  392.70
     97.2700	 1382.00	 1348.25	-1728.75	  392.50
     97.3700	 1334.00	 1396.86	-1825.36	  392.29
     97.4700	 1412.00	 1427.82	-1778.32	  392.09
     97.5700	 1422.00	 1438.57	-1779.07	  391.88
     97.6700	 1445.00	 1428.43	-1745.93	  391.68
     97.7700	 1381.00	 1398.80	-1780.30	  391.47
     97.8700	 1311.00	 1352.74	-1804.24	  391.26
     97.9700	 1282.00	 1294.25	-1774.75	  391.05
     98.0700	 1198.00	 1227.77	-1792.27	  390.84
     98.1700	 1155.00	 1157.54	-1765.04	  390.63
     98.2700	 1037.00	 1087.52	-1813.02	  390.41
     98.3700	 1019.00	 1021.15	-1764.65	  390.20
     98.4700	  977.00	  961.34	-1746.83	  389.99
     98.5700	  840.00	  910.37	-1832.87	  389.77
     98.6700	  855.00	  870.04	-1777.54	  389.56
     98.7700	  824.00	  841.71	-1780.21	  389.34
     98.8700	  826.00	  826.34	-1762.84	  389.12
     98.9700	  751.00	  824.58	-1836.08	  388.90
     99.0700	  801.00	  836.86	-1798.36	  388.68
     99.1700	  845.00	  863.40	-1780.90	  388.46
     99.2700	  857.00	  904.23	-1809.73	  388.24
     99.3700	  910.00	  959.15	-1811.65	  388.02
     99.4700	 1003.00	 1027.67	-1787.17	  387.80
     99.5700	 1083.00	 1108.89	-1788.39	  387.58
     99.6700	 1153.00	 1201.46	-1810.96	  387.35
     99.7700	 1202.00	 1303.43	-1863.93	  387.13
     99.8700	 1331.00	 1412.20	-1843.70	  386.90
     99.9700	 1515.00	 1524.39	-1771.89	  386.68
    100.0700	 1602.00	 1635.99	-1796.49	  386.45
    100.1700	 1769.00	 1742.49	-1735.99	  386.22
    100.2700	 1883.00	 1839.32	-1718.82	  385.99
    100.3700	 2008.00	 1922.33	-1676.83	  385.76
    100.4700	 2050.00	 1988.20	-1700.70	  385.54
    100.5700	 2044.00	 2034.62	-1753.12	  385.31
    100.6700	 2140.00	 2060.11	-1682.61	  385.07
    100.7700	 2105.00	 2063.87	-1721.37	  384.84
    100.8700	 2199.00	 2045.70	-1609.20	  384.61
    100.9700	 2083.00	 2006.20	-1685.70	  384.38
    101.0700	 1991.00	 1947.22	-1718.72	  384.15
    101.1700	 1938.00	 1871.95	-1696.45	  383.91
    101.2700	 1794.00	 1784.81	-1753.31	  383.68
    101.3700	 1738.00	 1690.84	-1715.34	  383.44
    101.4700	 1592.00	 1595.18	-1765.68	  383.21
    101.5700	 1499.00	 1502.40	-1765.90	  382.97
    101.6700	 1473.00	 1416.31	-1705.81	  382.74
    101.7700	 1321.00	 1339.63	-1781.13	  382.50
    101.8700	 1298.00	 1274.01	-1738.51	  382.27
    101.9700	 1167.00	 1220.06	-1815.56	  382.03
    102.0700	 1154.00	 1177.33	-1785.83	  381.79
    102.1700	 1148.00	 1144.52	-1759.02	  381.55
    102.2700	 1146.00	 1119.56	-1736.06	  381.31
    102.3700	 1153.00	 1099.91	-1709.41	  381.08
    102.4700	 1079.00	 1082.79	-1766.29	  380.84
    102.5700	 1082.00	 1065.54	-1746.04	  380.60
    102.6700	 1011.00	 1045.94	-1797.44	  380.36
    102.7700	 1061.00	 1022.51	-1724.01	  380.12
    102.8700	  988.00	  994.63	-1769.13	  379.88
    102.9700	  977.00	  962.50	-1748.00	  379.64
    103.0700	  901.00	  926.86	-1788.36	  379.40
    103.1700	  860.00	  888.83	-1791.33	  379.16
    103.2700	  813.00	  849.63	-1799.13	  378.92
    103.3700	  808.00	  810.50	-1765.00	  378.67
    103.4700	  781.00	  772.56	-1754.06	  378.43
    103.5700	  708.00	  736.78	-1791.28	  378.19
    103.6700	  727.00	  703.90	-1739.40	  377.95
    103.7700	  657.00	  674.43	-1779.93	  377.71
    103.8700	  662.00	  648.67	-1749.17	  377.47
    103.9700	  628.00	  626.71	-1761.21	  377.23
    104.0700	  625.00	  608.44	-1745.94	  376.98
    104.1700	  561.00	  593.66	-1795.16	  376.74
    104.2700	  527.00	  582.02	-1817.52	  376.50
    104.3700	  598.00	  573.17	-1737.67	  376.26
    104.4700	  533.00	  566.71	-1796.21	  376.02
    104.5700	  548.00	  562.26	-1776.76	  375.78
    104.6700	  554.00	  559.46	-1767.96	  375.53
    104.7700	  569.00	  557.98	-1751.48	  375.29
    104.8700	  578.00	  557.55	-1742.05	  375.05
    104.9700	  544.00	  557.94	-1776.44	  374.81
    105.0700	  553.00	  558.94	-1768.44	  374.57
    105.1700	  538.00	  560.44	-1784.94	  374.33
    105.2700	  534.00	  562.33	-1790.83	  374.09
    105.3700	  545.00	  564.52	-1782.02	  373.85
    105.4700	  525.00	  567.03	-1804.53	  373.61
    105.5700	  560.00	  569.86	-1772.36	  373.37
    105.6700	  541.00	  573.09	-1794.59	  373.13
    105.7700	  603.00	  576.80	-1736.30	  372.89
    105.8700	  549.00	  581.14	-1794.64	  372.65
    105.9700	  547.00	  586.20	-1801.70	  372.41
    106.0700	  605.00	  592.09	-1749.59	  372.17
    106.1700	  569.00	  598.87	-1792.37	  371.94
    106.2700	  624.00	  606.52	-1745.02	  371.70
    106.3700	  569.00	  614.97	-1808.47	  371.46
    106.4700	  606.00	  624.10	-1780.60	  371.22
    106.5700	  609.00	  633.68	-1787.18	  370.99
    106.6700	  656.00	  643.45	-1749.95	  370.75
    106.7700	  662.00	  653.07	-1753.57	  370.52
    106.8700	  668.00	  662.17	-1756.67	  370.28
    106.9700	  682.00	  670.36	-1750.86	  370.05
    107.0700	  652.00	  677.29	-1787.79	  369.82
    107.1700	  711.00	  682.65	-1734.15	  369.59
    107.2700	  694.00	  686.28	-1754.78	  369.35
    107.3700	  691.00	  688.17	-1759.67	  369.12
    107.4700	  674.00	  688.49	-1776.99	  368.89
    107.5700	  656.00	  687.56	-1794.06	  368.66
    107.6700	  657.00	  685.78	-1791.28	  368.43
    107.7700	  693.00	  683.60	-1753.10	  368.21
    107.8700	  617.00	  681.43	-1826.93	  367.98
    107.9700	  662.00	  679.62	-1780.12	  367.75
    108.0700	  673.00	  678.43	-1767.93	  367.53
    108.1700	  630.00	  677.99	-1810.49	  367.30
    108.2700	  682.00	  678.34	-1758.84	  367.08
    108.3700	  656.00	  679.36	-1785.86	  366.86
    108.4700	  714.00	  680.86	-1729.36	  366.63
    108.5700	  672.00	  682.52	-1773.02	  366.41
    108.6700	  693.00	  683.98	-1753.48	  366.19
    108.7700	  709.00	  684.80	-1738.30	  365.97
    108.8700	  656.00	  684.59	-1791.09	  365.76
    108.9700	  751.00	  683.00	-1694.50	  365.54
    109.0700	  643.00	  679.79	-1799.29	  365.32
    109.1700	  665.00	  674.89	-1772.39	  365.11
    109.2700	  719.00	  668.35	-1711.85	  364.90
    109.3700	  699.00	  660.37	-1723.87	  364.69
    109.4700	  642.00	  651.22	-1771.72	  364.47
    109.5700	  627.00	  641.25	-1776.75	  364.27
    109.6700	  612.00	  630.79	-1781.29	  364.06
    109.7700	  623.00	  620.19	-1759.69	  363.85
    109.8700	  604.00	  609.77	-1768.27	  363.64
    109.9700	  638.00	  599.79	-1724.29	  363.44
    110.0700	  627.00	  590.49	-1725.99	  363.24
    110.1700	  609.00	  582.03	-1735.53	  363.04
    110.2700	  569.00	  574.53	-1768.03	  362.84
    110.3700	  554.00	  568.05	-1776.55	  362.64
    110.4700	  575.00	  562.61	-1750.11	  362.44
    110.5700	  538.00	  558.19	-1782.69	  362.25
    110.6700	  577.00	  554.74	-1740.24	  362.05
    110.7700	  542.00	  552.17	-1772.67	  361.86
    110.8700	  571.00	  550.41	-1741.91	  361.67
    110.9700	  527.00	  549.35	-1784.85	  361.48
    111.0700	  558.00	  548.92	-1753.42	  361.30
    111.1700	  564.00	  549.01	-1747.51	  361.11
    111.2700	  583.00	  549.55	-1729.05	  360.93
    111.3700	  553.00	  550.48	-1759.98	  360.74
    111.4700	  584.00	  551.74	-1730.24	  360.56
    111.5700	  539.00	  553.29	-1776.79	  360.39
    111.6700	  559.00	  555.09	-1758.59	  360.21
    111.7700	  536.00	  557.13	-1783.63	  360.04
    111.8700	  542.00	  559.38	-1779.88	  359.86
    111.9700	  573.00	  561.86	-1751.36	  359.69
    112.0700	  549.00	  564.55	-1778.05	  359.53
    112.1700	  554.00	  567.48	-1775.98	  359.36
    112.2700	  524.00	  570.65	-1809.15	  359.20
    112.3700	  605.00	  574.11	-1731.61	  359.03
    112.4700	  618.00	  577.88	-1722.38	  358.87
    112.5700	  621.00	  582.02	-1723.52	  358.72
    112.6700	  590.00	  586.59	-1759.09	  358.56
    112.7700	  620.00	  591.67	-1734.17	  358.41
    112.8700	  673.00	  597.38	-1686.88	  358.26
    112.9700	  677.00	  603.87	-1689.36	  358.11
    113.0700	  646.00	  611.31	-1727.81	  357.96
    113.1700	  666.00	  619.95	-1716.45	  357.82
    113.2700	  733.00	  630.12	-1659.62	  357.68
    113.3700	  732.00	  642.21	-1672.71	  357.54
    113.4700	  753.00	  656.75	-1666.25	  357.40
    113.5700	  786.00	  674.36	-1650.86	  357.27
    113.6700	  824.00	  695.84	-1634.34	  357.14
    113.7700	  872.00	  722.15	-1612.65	  357.01
    113.8700	  967.00	  754.45	-1549.95	  356.88
    113.9700	 1026.00	  794.08	-1530.58	  356.76
    114.0700	 1039.00	  842.64	-1566.14	  356.64
    114.1700	 1094.00	  901.92	-1570.42	  356.52
    114.2700	 1175.00	  973.90	-1561.40	  356.40
    114.3700	 1201.00	 1060.75	-1622.25	  356.29
    114.4700	 1378.00	 1164.73	-1549.23	  356.18
    114.5700	 1369.00	 1288.17	-1681.67	  356.07
    114.6700	 1581.00	 1433.38	-1614.88	  355.97
    114.7700	 1701.00	 1602.47	-1663.97	  355.87
    114.8700	 1838.00	 1797.27	-1721.77	  355.77
    114.9700	 2112.00	 2019.12	-1669.62	  355.68
    115.0700	 2386.00	 2268.86	-1645.36	  355.59
    115.1700	 2582.00	 2546.56	-1727.06	  355.50
    115.2700	 2886.00	 2851.34	-1727.84	  355.41
    115.3700	 3168.00	 3181.33	-1775.83	  355.33
    115.4700	 3473.00	 3533.45	-1822.95	  355.25
    115.5700	 3711.00	 3903.57	-1955.07	  355.17
    115.6700	 4063.00	 4286.34	-1985.84	  355.10
    115.7700	 4390.00	 4675.06	-2047.56	  355.03
    115.8700	 4778.00	 5061.92	-2046.42	  354.97
    115.9700	 5134.00	 5437.96	-2066.46	  354.90
    116.0700	 5547.00	 5793.44	-2008.94	  354.85
    116.1700	 5921.00	 6117.90	-1959.40	  354.79
    116.2700	 6352.00	 6400.54	-1811.04	  354.74
    116.3700	 6632.00	 6630.91	-1761.41	  354.69
    116.4700	 6775.00	 6799.65	-1787.15	  354.65
    116.5700	 6967.00	 6899.46	-1694.96	  354.61
    116.6700	 6936.00	 6925.85	-1752.35	  354.57
    116.7700	 7050.00	 6877.75	-1590.25	  354.53
    116.8700	 6832.00	 6757.67	-1688.17	  354.50
    116.9700	 6696.00	 6571.42	-1637.92	  354.48
    117.0700	 6505.00	 6327.24	-1584.74	  354.46
    117.1700	 5990.00	 6034.93	-1807.43	  354.44
    117.2700	 5595.00	 5705.14	-1872.64	  354.42
    117.3700	 5398.00	 5348.48	-1712.98	  354.41
    117.4700	 4952.00	 4975.17	-1785.67	  354.41
    117.5700	 4626.00	 4594.49	-1730.99	  354.41
    117.6700	 4320.00	 4214.70	-1657.20	  354.41
    117.7700	 3980.00	 3843.05	-1625.55	  354.41
    117.8700	 3519.00	 3485.50	-1729.00	  354.43
    117.9700	 3323.00	 3146.85	-1586.35	  354.44
    118.0700	 2845.00	 2830.59	-1748.09	  354.46
    118.1700	 2627.00	 2539.09	-1674.59	  354.48
    118.2700	 2306.00	 2273.78	-1730.28	  354.51
    118.3700	 2023.00	 2035.12	-1774.62	  354.54
    118.4700	 1703.00	 1822.82	-1882.32	  354.58
    118.5700	 1610.00	 1635.91	-1788.41	  354.62
    118.6700	 1366.00	 1472.91	-1869.41	  354.67
    118.7700	 1253.00	 1332.06	-1841.56	  354.72
    118.8700	 1051.00	 1211.36	-1922.86	  354.77
    118.9700	 1003.00	 1108.71	-1868.21	  354.83
    119.0700	  959.00	 1021.94	-1825.44	  354.90
    119.1700	  882.00	  948.99	-1829.49	  354.96
    119.2700	  849.00	  887.94	-1801.44	  355.04
    119.3700	  782.00	  837.01	-1817.51	  355.12
    119.4700	  703.00	  794.64	-1854.14	  355.20
    119.5700	  676.00	  759.42	-1845.92	  355.29
    119.6700	  716.00	  730.14	-1776.64	  355.38
    119.7700	  715.00	  705.80	-1753.30	  355.48
    119.8700	  663.00	  685.54	-1785.04	  355.59
    119.9700	  619.00	  668.64	-1812.14	  355.70
    120.0700	  656.00	  654.52	-1761.02	  355.81
    120.1700	  563.00	  642.71	-1842.21	  355.93
    120.2700	  607.00	  632.82	-1788.32	  356.06
    120.3700	  560.00	  624.54	-1827.04	  356.19
    120.4700	  579.00	  617.64	-1801.14	  356.32
    120.5700	  554.00	  611.92	-1820.42	  356.46
    120.6700	  562.00	  607.23	-1807.73	  356.61
    120.7700	  528.00	  603.44	-1837.94	  356.76
    120.8700	  569.00	  600.47	-1793.97	  356.92
    120.9700	  569.00	  598.26	-1791.76	  357.08
    121.0700	  534.00	  596.73	-1825.23	  357.25
    121.1700	  565.00	  595.85	-1793.35	  357.43
    121.2700	  519.00	  595.57	-1839.07	  357.61
    121.3700	  593.00	  595.87	-1765.37	  357.80
    121.4700	  564.00	  596.69	-1795.19	  357.99
    121.5700	  574.00	  597.99	-1786.49	  358.19
    121.6700	  600.00	  599.74	-1762.24	  358.39
    121.7700	  590.00	  601.86	-1774.36	  358.60
    121.8700	  612.00	  604.27	-1754.77	  358.82
    121.9700	  615.00	  606.95	-1754.45	  359.04
    122.0700	  642.00	  609.79	-1730.29	  359.27
    122.1700	  601.00	  612.71	-1774.21	  359.51
    122.2700	  634.00	  615.60	-1744.10	  359.75
    122.3700	  631.00	  618.37	-1749.87	  360.00
    122.4700	  636.00	  620.91	-1747.41	  360.25
    122.5700	  629.00	  623.14	-1756.64	  360.51
    122.6700	  652.00	  624.96	-1735.46	  360.78
    122.7700	  629.00	  626.29	-1759.79	  361.05
    122.8700	  615.00	  627.09	-1774.59	  361.33
    122.9700	  651.00	  627.31	-1738.81	  361.62
    123.0700	  663.00	  626.94	-1726.44	  361.92
    123.1700	  653.00	  626.01	-1735.51	  362.22
    123.2700	  680.00	  624.54	-1707.04	  362.52
    123.3700	  608.00	  622.59	-1777.09	  362.84
    123.4700	  718.00	  620.21	-1664.71	  363.16
    123.5700	  609.00	  617.46	-1770.96	  363.49
    123.6700	  639.00	  614.42	-1737.92	  363.83
    123.7700	  670.00	  611.16	-1703.66	  364.17
    123.8700	  602.00	  607.74	-1768.24	  364.52
    123.9700	  653.00	  604.23	-1713.73	  364.88
    124.0700	  650.00	  600.70	-1713.20	  365.24
    124.1700	  615.00	  597.18	-1744.68	  365.61
    124.2700	  617.00	  593.74	-1739.24	  365.99
    124.3700	  596.00	  590.42	-1756.92	  366.38
    124.4700	  608.00	  587.25	-1741.75	  366.77
    124.5700	  577.00	  584.24	-1769.74	  367.18
    124.6700	  545.00	  581.44	-1798.94	  367.58
    124.7700	  565.00	  578.84	-1776.34	  368.00
    124.8700	  566.00	  576.47	-1772.97	  368.43
    124.9700	  574.00	  487.00	-1675.50	  368.86
    125.0700	  567.00	  487.44	-1762.50	  369.30
    125.1700	  572.00	  487.89	-1762.50	  369.75
    125.2700	  571.00	  488.34	-1762.50	  370.21
    125.3700	  577.00	  488.81	-1762.50	  370.67
    125.4700	  602.00	  489.28	-1762.50	  371.14
    125.5700	  566.00	  489.76	-1762.50	  371.62
    125.6700	  576.00	  490.25	-1762.50	  372.11
    125.7700	  588.00	  490.75	-1762.50	  372.61
    125.8700	  619.00	  491.25	-1762.50	  373.12
    125.9700	  547.00	  491.77	-1762.50	  373.63
    126.0700	  574.00	  492.29	-1762.50	  374.15
    126.1700	  564.00	  492.82	-1762.50	  374.69
    126.2700	  546.00	  493.36	-1762.50	  375.23
    126.3700	  617.00	  493.91	-1762.50	  375.77
    126.4700	  558.00	  494.47	-1762.50	  376.33
    126.5700	  615.00	  495.03	-1762.50	  376.90
    126.6700	  603.00	  495.61	-1762.50	  377.47
    126.7700	  584.00	  496.19	-1762.50	  378.06
    126.8700	  589.00	  496.79	-1762.50	  378.65
    126.9700	  622.00	  497.39	-1762.50	  379.25
    127.0700	  649.00	  498.00	-1762.50	  379.86
    127.1700	  626.00	  498.62	-1762.50	  380.48
    127.2700	  634.00	  499.25	-1762.50	  381.11
    127.3700	  652.00	  499.89	-1762.50	  381.75
    127.4700	  657.00	  500.53	-1762.50	  382.40
    127.5700	  680.00	  501.19	-1762.50	  383.06
    127.6700	  654.00	  501.86	-1762.50	  383.72
    127.7700	  698.00	  502.53	-1762.50	  384.40
    127.8700	  707.00	  503.22	-1762.50	  385.09
    127.9700	  701.00	  503.92	-1762.50	  385.78
    128.0700	  720.00	  504.62	-1762.50	  386.49
    128.1700	  724.00	  505.34	-1762.50	  387.20
    128.2700	  735.00	  506.06	-1762.50	  387.93
    128.3700	  809.00	  506.80	-1762.50	  388.66
    128.4700	  785.00	  507.54	-1762.50	  389.41
    128.5700	    0.00	  508.30	-1762.50	  390.16
    128.6700	    0.00	  509.06	-1762.50	  390.93
     12.3088	        	        	        	        	       0	(  0  0  2)	  0  1
     24.8905	        	        	        	        	       0	(  0  0  4)	  0  1
     28.3343	        	        	        	        	       0	(  1  0  0)	  0  1
     29.0314	        	        	        	        	       0	(  1  0  1)	  0  1
     31.0372	        	        	        	        	       0	(  1  0  2)	  0  1
     34.1450	        	        	        	        	       0	(  1  0  3)	  0  1
     37.7879	        	        	        	        	       0	(  0  0  6)	  0  1
     38.1213	        	        	        	        	       0	(  1  0  4)	  0  1
     42.7705	        	        	        	        	       0	(  1  0  5)	  0  1
     47.9536	        	        	        	        	       0	(  1  0  6)	  0  1
     50.2705	        	        	        	        	       0	(  1  1  0)	  0  1
     51.2074	        	        	        	        	       0	(  0  0  8)	  0  1
     51.9931	        	        	        	        	       0	(  1  1  2)	  0  1
     53.5830	        	        	        	        	       0	(  1  0  7)	  0  1
     56.9399	        	        	        	        	       0	(  1  1  4)	  0  1
     58.7671	        	        	        	        	       0	(  2  0  0)	  0  1
     59.1586	        	        	        	        	       0	(  2  0  1)	  0  1
     59.6122	        	        	        	        	       0	(  1  0  8)	  0  1
     60.3237	        	        	        	        	       0	(  2  0  2)	  0  1
     62.2365	        	        	        	        	       0	(  2  0  3)	  0  1
     64.6329	        	        	        	        	       0	(  1  1  6)	  0  1
     64.8600	        	        	        	        	       0	(  2  0  4)	  0  1
     65.4337	        	        	        	        	       0	(  0  0 10)	  0  1
     66.0271	        	        	        	        	       0	(  1  0  9)	  0  1
     68.1535	        	        	        	        	       0	(  2  0  5)	  0  1
     72.0800	        	        	        	        	       0	(  2  0  6)	  0  1
     72.8417	        	        	        	        	       0	(  1  0 10)	  0  1
     74.6682	        	        	        	        	       0	(  1  1  8)	  0  1
     76.6130	        	        	        	        	       0	(  2  0  7)	  0  1
     80.0975	        	        	        	        	       0	(  1  0 11)	  0  1
     80.9104	        	        	        	        	       0	(  0  0 12)	  0  1
     81.0072	        	        	        	        	       0	(  2  1  0)	  0  1
     81.3470	        	        	        	        	       0	(  2  1  1)	  0  1
     81.7420	        	        	        	        	       0	(  2  0  8)	  0  1
     82.3646	        	        	        	        	       0	(  2  1  2)	  0  1
     84.0555	        	        	        	        	       0	(  2  1  3)	  0  1
     86.4145	        	        	        	        	       0	(  2  1  4)	  0  1
     86.9364	        	        	        	        	       0	(  1  1 10)	  0  1
     87.4785	        	        	        	        	       0	(  2  0  9)	  0  1
     87.8697	        	        	        	        	       0	(  1  0 12)	  0  1
     89.4395	        	        	        	        	       0	(  2  1  5)	  0  1
     93.1359	        	        	        	        	       0	(  2  1  6)	  0  1
     93.8641	        	        	        	        	       0	(  2  0 10)	  0  1
     94.8952	        	        	        	        	       0	(  3  0  0)	  0  1
     95.2325	        	        	        	        	       0	(  3  0  1)	  0  1
     96.2454	        	        	        	        	       0	(  3  0  2)	  0  1
     96.2803	        	        	        	        	       0	(  1  0 13)	  0  1
     97.5232	        	        	        	        	       0	(  2  1  7)	  0  1
     97.9382	        	        	        	        	       0	(  3  0  3)	  0  1
     98.4444	        	        	        	        	       0	(  0  0 14)	  0  1
    100.3205	        	        	        	        	       0	(  3  0  4)	  0  1
    100.9837	        	        	        	        	       0	(  2  0 11)	  0  1
    101.8022	        	        	        	        	       0	(  1  1 12)	  0  1
    102.6440	        	        	        	        	       0	(  2  1  8)	  0  1
    103.4112	        	        	        	        	       0	(  3  0  5)	  0  1
    105.5296	        	        	        	        	       0	(  1  0 14)	  0  1
    107.2451	        	        	        	        	       0	(  3  0  6)	  0  1
    108.5788	        	        	        	        	       0	(  2  1  9)	  0  1
    108.9920	        	        	        	        	       0	(  2  0 12)	  0  1
    111.8838	        	        	        	        	       0	(  3  0  7)	  0  1
    115.4731	        	        	        	        	       0	(  2  1 10)	  0  1
    115.9685	        	        	        	        	       0	(  1  0 15)	  0  1
    116.6185	        	        	        	        	       0	(  2  2  0)	  0  1
    117.4352	        	        	        	        	       0	(  3  0  8)	  0  1
    118.1331	        	        	        	        	       0	(  2  2  2)	  0  1
    118.1725	        	        	        	        	       0	(  2  0 13)	  0  1
    119.9234	        	        	        	        	       0	(  0  0 16)	  0  1
    120.6385	        	        	        	        	       0	(  1  1 14)	  0  1
    122.8170	        	        	        	        	       0	(  2  2  4)	  0  1
    123.5966	        	        	        	        	       0	(  2  1 11)	  0  1
    124.0924	        	        	        	        	       0	(  3  0  9)	  0  1
    124.6828	        	        	        	        	       0	(  3  1  0)	  0  1
    125.0929	        	        	        	        	       0	(  3  1  1)	  0  1
    126.3359	        	        	        	        	       0	(  3  1  2)	  0  1
    128.3052	        	        	        	        	       0	(  1  0 16)	  0  1
    128.4533	        	        	        	        	       0	(  3  1  3)	  0  1
    129.0968	        	        	        	        	       0	(  2  0 14)	  0  1
    131.2534	        	        	        	        	       0	(  2  2  6)	  0  1
    131.5280	        	        	        	        	       0	(  3  1  4)	  0  1
    132.2293	        	        	        	        	       0	(  3  0 10)	  0  1
    133.5039	        	        	        	        	       0	(  2  1 12)	  0  1
    135.7132	        	        	        	        	       0	(  3  1  5)	  0  1
    141.3059	        	        	        	        	       0	(  3  1  6)	  0  1
    142.7019	        	        	        	        	       0	(  3  0 11)	  0  1
    143.2274	        	        	        	        	       0	(  2  0 15)	  0  1
    144.4628	        	        	        	        	       0	(  1  0 17)	  0  1
    145.4801	        	        	        	        	       0	(  2  2  8)	  0  1
    146.6508	        	        	        	        	       0	(  2  1 13)	  0  1
    148.9746	        	        	        	        	       0	(  3  1  7)	  0  1
    149.5544	        	        	        	        	       0	(  1  1 16)	  0  1
    153.9471	        	        	        	        	       0	(  0  0 18)	  0  1
    158.5663	        	        	        	        	       0	(  3  0 12)	  0  1
    158.8310	        	        	        	        	       0	(  4  0  0)	  0  1
    159.7871	        	        	        	        	       0	(  4  0  1)	  0  1
    160.9578	        	        	        	        	       0	(  3  1  8)	  0  1
    162.9628	        	        	        	        	       0	(  4  0  2)	  0  1
    169.6234	        	        	        	        	       0	(  2  0 16)	  0  1
    170.2966	        	        	        	        	       0	(  4  0  3)	  0  1
    174.0284	        	        	        	        	       0	(  2  1 14)	  0  1
