MSG Master    CELL:    5.91907   5.91907  23.27379   90.0000   90.0000  120.0000   SPGR: P 63/m m c             TEMP:   1074.85
  1   1280     2.52000     0.00000    -0.12797     0.00000     0.00000    0
    99     0     2
       0.00000      10.00000
     125.00000     130.00000
 2Theta	Yobs	Ycal	Yobs-Ycal	Backg	Posr	(hkl)	K
      0.7700	    0.00	  587.51	-1745.75	  469.95
      0.8700	    0.00	  587.71	-1745.75	  470.15
      0.9700	   40.00	  587.91	-1745.75	  470.34
      1.0700	   44.00	  588.09	-1745.75	  470.53
      1.1700	   42.00	  588.27	-1745.75	  470.70
      1.2700	   44.00	  588.44	-1745.75	  470.88
      1.3700	   49.00	  588.61	-1745.75	  471.04
      1.4700	  115.00	  588.77	-1745.75	  471.20
      1.5700	  285.00	  588.92	-1745.75	  471.36
      1.6700	  473.00	  589.07	-1745.75	  471.50
      1.7700	  587.00	  589.21	-1745.75	  471.64
      1.8700	  625.00	  589.34	-1745.75	  471.78
      1.9700	  750.00	  589.47	-1745.75	  471.91
      2.0700	  803.00	  589.59	-1745.75	  472.03
      2.1700	  821.00	  589.71	-1745.75	  472.14
      2.2700	  751.00	  589.82	-1745.75	  472.25
      2.3700	  754.00	  589.92	-1745.75	  472.35
      2.4700	  748.00	  590.02	-1745.75	  472.45
      2.5700	  670.00	  590.11	-1745.75	  472.54
      2.6700	  660.00	  590.19	-1745.75	  472.63
      2.7700	  668.00	  590.27	-1745.75	  472.71
      2.8700	  633.00	  590.35	-1745.75	  472.78
      2.9700	  583.00	  590.41	-1745.75	  472.85
      3.0700	  624.00	  590.47	-1745.75	  472.91
      3.1700	  565.00	  590.53	-1745.75	  472.96
      3.2700	  599.00	  590.58	-1745.75	  473.01
      3.3700	  663.00	  590.62	-1745.75	  473.06
      3.4700	  731.00	  590.66	-1745.75	  473.10
      3.5700	  795.00	  590.70	-1745.75	  473.13
      3.6700	  827.00	  590.72	-1745.75	  473.16
      3.7700	  964.00	  590.75	-1745.75	  473.18
      3.8700	 1011.00	  590.76	-1745.75	  473.20
      3.9700	  937.00	  590.78	-1745.75	  473.21
      4.0700	 1074.00	  590.78	-1745.75	  473.22
      4.1700	 1062.00	  590.78	-1745.75	  473.22
      4.2700	 1155.00	  590.78	-1745.75	  473.21
      4.3700	 1062.00	  590.77	-1745.75	  473.20
      4.4700	 1045.00	  590.76	-1745.75	  473.19
      4.5700	 1068.00	  590.74	-1745.75	  473.17
      4.6700	 1000.00	  590.71	-1745.75	  473.15
      4.7700	  999.00	  590.68	-1745.75	  473.12
      4.8700	  994.00	  590.65	-1745.75	  473.08
      4.9700	  955.00	  590.61	-1745.75	  473.04
      5.0700	  877.00	  590.57	-1745.75	  473.00
      5.1700	  918.00	  590.52	-1745.75	  472.95
      5.2700	  898.00	  590.47	-1745.75	  472.90
      5.3700	  900.00	  590.41	-1745.75	  472.84
      5.4700	  844.00	  590.35	-1745.75	  472.78
      5.5700	  863.00	  590.28	-1745.75	  472.71
      5.6700	  902.00	  590.21	-1745.75	  472.64
      5.7700	  764.00	  590.13	-1745.75	  472.56
      5.8700	  814.00	  590.05	-1745.75	  472.48
      5.9700	  814.00	  589.96	-1745.75	  472.40
      6.0700	  717.00	  589.88	-1745.75	  472.31
      6.1700	  747.00	  589.78	-1745.75	  472.21
      6.2700	  779.00	  589.68	-1745.75	  472.12
      6.3700	  795.00	  589.58	-1745.75	  472.01
      6.4700	  791.00	  589.47	-1745.75	  471.91
      6.5700	  799.00	  589.36	-1745.75	  471.80
      6.6700	  750.00	  589.25	-1745.75	  471.68
      6.7700	  696.00	  589.13	-1745.75	  471.56
      6.8700	  728.00	  589.01	-1745.75	  471.44
      6.9700	  698.00	  588.88	-1745.75	  471.31
      7.0700	  694.00	  588.75	-1745.75	  471.18
      7.1700	  720.00	  588.61	-1745.75	  471.05
      7.2700	  643.00	  588.48	-1745.75	  470.91
      7.3700	  658.00	  588.33	-1745.75	  470.77
      7.4700	  687.00	  588.19	-1745.75	  470.62
      7.5700	  647.00	  588.04	-1745.75	  470.47
      7.6700	  694.00	  587.88	-1745.75	  470.32
      7.7700	  657.00	  587.73	-1745.75	  470.16
      7.8700	  629.00	  587.57	-1745.75	  470.00
      7.9700	  667.00	  587.40	-1745.75	  469.83
      8.0700	  643.00	  587.23	-1745.75	  469.67
      8.1700	  607.00	  587.06	-1745.75	  469.49
      8.2700	  638.00	  586.89	-1745.75	  469.32
      8.3700	  644.00	  586.71	-1745.75	  469.14
      8.4700	  653.00	  586.53	-1745.75	  468.96
      8.5700	  634.00	  586.34	-1745.75	  468.77
      8.6700	  623.00	  586.15	-1745.75	  468.58
      8.7700	  643.00	  585.96	-1745.75	  468.39
      8.8700	  603.00	  585.76	-1745.75	  468.20
      8.9700	  634.00	  585.57	-1745.75	  468.00
      9.0700	  636.00	  585.36	-1745.75	  467.80
      9.1700	  646.00	  585.16	-1745.75	  467.59
      9.2700	  631.00	  584.95	-1745.75	  467.39
      9.3700	  561.00	  584.74	-1745.75	  467.17
      9.4700	  623.00	  584.53	-1745.75	  466.96
      9.5700	  606.00	  584.31	-1745.75	  466.74
      9.6700	  580.00	  584.09	-1745.75	  466.53
      9.7700	  593.00	  583.87	-1745.75	  466.30
      9.8700	  583.00	  583.64	-1745.75	  466.08
      9.9700	  612.00	  583.42	-1745.75	  465.85
     10.0700	  583.00	  584.01	-1746.76	  465.62
     10.1700	  573.00	  583.86	-1756.61	  465.38
     10.2700	  606.00	  583.73	-1723.48	  465.15
     10.3700	  651.00	  583.64	-1678.39	  464.91
     10.4700	  623.00	  583.60	-1706.35	  464.67
     10.5700	  574.00	  583.68	-1755.43	  464.42
     10.6700	  579.00	  583.97	-1750.72	  464.18
     10.7700	  564.00	  584.58	-1766.33	  463.93
     10.8700	  547.00	  585.58	-1784.33	  463.67
     10.9700	  604.00	  586.96	-1728.71	  463.42
     11.0700	  515.00	  588.68	-1819.43	  463.16
     11.1700	  631.00	  590.76	-1705.51	  462.90
     11.2700	  567.00	  593.21	-1771.96	  462.64
     11.3700	  639.00	  596.12	-1702.87	  462.38
     11.4700	  606.00	  599.62	-1739.37	  462.11
     11.5700	  637.00	  603.92	-1712.67	  461.84
     11.6700	  630.00	  609.37	-1725.12	  461.57
     11.7700	  618.00	  616.59	-1744.34	  461.30
     11.8700	  640.00	  626.47	-1732.22	  461.02
     11.9700	  649.00	  639.59	-1736.34	  460.75
     12.0700	  694.00	  654.25	-1706.00	  460.47
     12.1700	  653.00	  664.27	-1757.02	  460.19
     12.2700	  713.00	  660.20	-1692.95	  459.90
     12.3700	  676.00	  639.58	-1709.33	  459.62
     12.4700	  630.00	  614.86	-1730.61	  459.33
     12.5700	  634.00	  596.81	-1708.56	  459.04
     12.6700	  586.00	  586.88	-1746.63	  458.75
     12.7700	  616.00	  582.23	-1711.98	  458.46
     12.8700	  534.00	  580.01	-1791.76	  458.16
     12.9700	  592.00	  578.71	-1732.46	  457.87
     13.0700	  513.00	  577.77	-1810.52	  457.57
     13.1700	  558.00	  577.02	-1764.77	  457.27
     13.2700	  574.00	  576.38	-1748.13	  456.96
     13.3700	  593.00	  575.81	-1728.56	  456.66
     13.4700	  553.00	  575.30	-1768.05	  456.36
     13.5700	  565.00	  574.83	-1755.58	  456.05
     13.6700	  569.00	  574.39	-1751.14	  455.74
     13.7700	  544.00	  573.97	-1775.72	  455.43
     13.8700	  548.00	  573.57	-1771.32	  455.12
     13.9700	  567.00	  573.18	-1751.93	  454.80
     14.0700	  554.00	  572.80	-1764.55	  454.49
     14.1700	  572.00	  572.42	-1746.17	  454.17
     14.2700	  584.00	  572.06	-1733.81	  453.86
     14.3700	  503.00	  571.70	-1814.45	  453.54
     14.4700	  598.00	  571.34	-1719.09	  453.22
     14.5700	  600.00	  570.99	-1716.74	  452.90
     14.6700	  578.00	  570.64	-1738.39	  452.57
     14.7700	  588.00	  570.29	-1728.04	  452.25
     14.8700	  562.00	  569.94	-1753.69	  451.92
     14.9700	  533.00	  569.59	-1782.34	  451.60
     15.0700	  563.00	  569.25	-1752.00	  451.27
     15.1700	  564.00	  568.90	-1750.65	  450.94
     15.2700	  564.00	  568.55	-1750.30	  450.61
     15.3700	  560.00	  568.21	-1753.96	  450.28
     15.4700	  613.00	  567.87	-1700.62	  449.95
     15.5700	  540.00	  567.52	-1773.27	  449.61
     15.6700	  633.00	  567.18	-1679.93	  449.28
     15.7700	  564.00	  566.83	-1748.58	  448.94
     15.8700	  555.00	  566.49	-1757.24	  448.61
     15.9700	  517.00	  566.14	-1794.89	  448.27
     16.0700	  551.00	  565.82	-1760.57	  447.93
     16.1700	  564.00	  565.48	-1747.23	  447.59
     16.2700	  555.00	  565.13	-1755.88	  447.25
     16.3700	  556.00	  564.79	-1754.54	  446.91
     16.4700	  563.00	  564.44	-1747.19	  446.57
     16.5700	  543.00	  564.09	-1766.84	  446.23
     16.6700	  584.00	  563.75	-1725.50	  445.88
     16.7700	  595.00	  563.40	-1714.15	  445.54
     16.8700	  566.00	  563.05	-1742.80	  445.20
     16.9700	  540.00	  562.70	-1768.45	  444.85
     17.0700	  554.00	  562.35	-1754.10	  444.50
     17.1700	  569.00	  562.00	-1738.75	  444.16
     17.2700	  565.00	  561.65	-1742.40	  443.81
     17.3700	  537.00	  561.30	-1770.05	  443.46
     17.4700	  545.00	  560.95	-1761.70	  443.11
     17.5700	  582.00	  560.60	-1724.35	  442.77
     17.6700	  562.00	  560.25	-1744.00	  442.42
     17.7700	  533.00	  559.90	-1772.65	  442.07
     17.8700	  540.00	  559.55	-1765.30	  441.72
     17.9700	  575.00	  559.30	-1730.05	  441.36
     18.0700	  588.00	  558.95	-1716.70	  441.01
     18.1700	  538.00	  558.60	-1766.35	  440.66
     18.2700	  540.00	  558.25	-1764.00	  440.31
     18.3700	  498.00	  557.90	-1805.65	  439.96
     18.4700	  555.00	  557.55	-1748.30	  439.60
     18.5700	  559.00	  557.20	-1743.95	  439.25
     18.6700	  525.00	  556.85	-1777.60	  438.90
     18.7700	  596.00	  556.50	-1706.25	  438.54
     18.8700	  560.00	  556.24	-1741.99	  438.19
     18.9700	  593.00	  555.90	-1708.65	  437.84
     19.0700	  553.00	  555.55	-1748.30	  437.48
     19.1700	  541.00	  555.20	-1759.95	  437.13
     19.2700	  521.00	  554.85	-1779.60	  436.77
     19.3700	  576.00	  554.50	-1724.25	  436.42
     19.4700	  554.00	  554.16	-1745.91	  436.06
     19.5700	  521.00	  553.81	-1778.56	  435.71
     19.6700	  579.00	  553.46	-1720.21	  435.35
     19.7700	  566.00	  553.11	-1732.86	  435.00
     19.8700	  555.00	  552.77	-1743.52	  434.64
     19.9700	  535.00	  552.42	-1763.17	  434.29
     20.0700	  544.00	  552.08	-1753.83	  433.93
     20.1700	  567.00	  551.73	-1730.48	  433.58
     20.2700	  564.00	  551.39	-1733.14	  433.22
     20.3700	  514.00	  551.05	-1782.80	  432.87
     20.4700	  521.00	  550.70	-1775.45	  432.51
     20.5700	  548.00	  550.36	-1748.11	  432.16
     20.6700	  550.00	  550.02	-1745.77	  431.80
     20.7700	  564.00	  549.65	-1731.40	  431.45
     20.8700	  540.00	  549.35	-1755.10	  431.10
     20.9700	  554.00	  549.01	-1740.76	  430.74
     21.0700	  543.00	  548.68	-1751.43	  430.39
     21.1700	  566.00	  548.34	-1728.09	  430.03
     21.2700	  562.00	  548.01	-1731.76	  429.68
     21.3700	  536.00	  547.68	-1757.43	  429.33
     21.4700	  527.00	  547.35	-1766.10	  428.98
     21.5700	  530.00	  547.03	-1762.78	  428.62
     21.6700	  549.00	  546.70	-1743.45	  428.27
     21.7700	  534.00	  546.38	-1758.13	  427.92
     21.8700	  511.00	  546.06	-1780.81	  427.57
     21.9700	  536.00	  545.74	-1755.49	  427.22
     22.0700	  546.00	  545.43	-1745.18	  426.87
     22.1700	  573.00	  545.12	-1717.87	  426.52
     22.2700	  544.00	  544.81	-1746.56	  426.17
     22.3700	  546.00	  544.51	-1744.26	  425.82
     22.4700	  521.00	  544.21	-1768.96	  425.47
     22.5700	  553.00	  543.92	-1736.67	  425.12
     22.6700	  556.00	  543.64	-1733.39	  424.77
     22.7700	  564.00	  543.37	-1725.12	  424.42
     22.8700	  556.00	  543.10	-1732.85	  424.08
     22.9700	  598.00	  542.85	-1690.60	  423.73
     23.0700	  538.00	  542.61	-1750.36	  423.38
     23.1700	  541.00	  542.39	-1747.14	  423.04
     23.2700	  513.00	  542.20	-1774.95	  422.69
     23.3700	  548.00	  542.03	-1739.78	  422.35
     23.4700	  569.00	  541.90	-1718.65	  422.01
     23.5700	  542.00	  541.82	-1745.57	  421.66
     23.6700	  579.00	  541.95	-1708.70	  421.32
     23.7700	  537.00	  542.08	-1750.83	  420.98
     23.8700	  556.00	  542.44	-1732.19	  420.64
     23.9700	  578.00	  543.28	-1711.03	  420.30
     24.0700	  562.00	  545.04	-1728.79	  419.96
     24.1700	  535.00	  548.43	-1759.18	  419.62
     24.2700	  570.00	  554.33	-1730.08	  419.28
     24.3700	  579.00	  563.73	-1730.48	  418.95
     24.4700	  566.00	  577.66	-1757.41	  418.61
     24.5700	  620.00	  596.25	-1722.00	  418.28
     24.6700	  655.00	  616.42	-1707.17	  417.94
     24.7700	  639.00	  629.94	-1736.69	  417.61
     24.8700	  618.00	  626.14	-1753.89	  417.27
     24.9700	  619.00	  604.19	-1730.94	  416.94
     25.0700	  595.00	  578.08	-1728.83	  416.61
     25.1700	  556.00	  558.62	-1748.37	  416.28
     25.2700	  524.00	  547.59	-1769.34	  415.95
     25.3700	  542.00	  542.35	-1746.10	  415.62
     25.4700	  549.00	  539.95	-1736.70	  415.29
     25.5700	  503.00	  538.67	-1781.42	  414.97
     25.6700	  535.00	  537.84	-1748.59	  414.64
     25.7700	  500.00	  537.24	-1782.99	  414.32
     25.8700	  561.00	  536.79	-1721.54	  413.99
     25.9700	  555.00	  536.46	-1727.21	  413.67
     26.0700	  520.00	  536.21	-1761.96	  413.35
     26.1700	  540.00	  536.06	-1741.81	  413.03
     26.2700	  555.00	  535.98	-1726.73	  412.71
     26.3700	  539.00	  535.98	-1742.73	  412.39
     26.4700	  541.00	  536.07	-1740.82	  412.07
     26.5700	  551.00	  536.27	-1731.02	  411.75
     26.6700	  565.00	  536.58	-1717.33	  411.44
     26.7700	  506.00	  537.04	-1776.79	  411.12
     26.8700	  564.00	  537.68	-1719.43	  410.81
     26.9700	  520.00	  538.55	-1764.30	  410.50
     27.0700	  533.00	  539.74	-1752.49	  410.19
     27.1700	  564.00	  541.38	-1723.13	  409.88
     27.2700	  552.00	  543.73	-1737.48	  409.57
     27.3700	  539.00	  547.32	-1754.07	  409.26
     27.4700	  528.00	  553.14	-1770.89	  408.95
     27.5700	  549.00	  562.99	-1759.74	  408.65
     27.6700	  556.00	  579.68	-1769.43	  408.34
     27.7700	  624.00	  606.80	-1728.55	  408.04
     27.8700	  608.00	  647.40	-1785.15	  407.74
     27.9700	  675.00	  701.49	-1772.24	  407.44
     28.0700	  753.00	  762.81	-1755.56	  407.14
     28.1700	  880.00	  816.07	-1681.82	  406.84
     28.2700	  974.00	  838.56	-1610.31	  406.54
     28.3700	  941.00	  817.50	-1622.25	  406.25
     28.4700	  795.00	  775.17	-1725.92	  405.95
     28.5700	  710.00	  747.15	-1782.90	  405.66
     28.6700	  733.00	  749.34	-1762.09	  405.37
     28.7700	  782.00	  776.35	-1740.10	  405.08
     28.8700	  767.00	  807.08	-1785.83	  404.79
     28.9700	  829.00	  811.90	-1728.65	  404.50
     29.0700	  774.00	  772.41	-1744.16	  404.21
     29.1700	  698.00	  705.65	-1753.41	  403.93
     29.2700	  641.00	  642.11	-1746.86	  403.64
     29.3700	  559.00	  596.20	-1782.95	  403.36
     29.4700	  618.00	  568.37	-1696.12	  403.08
     29.5700	  599.00	  553.26	-1700.01	  402.80
     29.6700	  539.00	  545.28	-1752.03	  402.52
     29.7700	  597.00	  540.77	-1689.52	  402.24
     29.8700	  591.00	  537.97	-1692.72	  401.97
     29.9700	  525.00	  536.22	-1756.97	  401.69
     30.0700	  550.00	  535.33	-1731.08	  401.42
     30.1700	  579.00	  535.48	-1702.23	  401.15
     30.2700	  564.00	  537.21	-1718.96	  400.88
     30.3700	  527.00	  541.63	-1760.38	  400.61
     30.4700	  553.00	  550.36	-1743.11	  400.34
     30.5700	  598.00	  565.10	-1712.85	  400.07
     30.6700	  592.00	  586.24	-1739.99	  399.81
     30.7700	  553.00	  611.10	-1803.85	  399.55
     30.8700	  620.00	  632.56	-1758.31	  399.29
     30.9700	  656.00	  639.95	-1729.70	  399.03
     31.0700	  584.00	  626.03	-1787.78	  398.77
     31.1700	  563.00	  598.15	-1780.90	  398.51
     31.2700	  573.00	  570.24	-1742.99	  398.25
     31.3700	  558.00	  549.59	-1737.34	  398.00
     31.4700	  512.00	  536.98	-1770.73	  397.75
     31.5700	  528.00	  530.20	-1747.95	  397.50
     31.6700	  560.00	  526.70	-1712.45	  397.25
     31.7700	  561.00	  524.76	-1709.51	  397.00
     31.8700	  528.00	  523.55	-1741.30	  396.75
     31.9700	  558.00	  522.71	-1710.46	  396.51
     32.0700	  535.00	  522.12	-1732.87	  396.26
     32.1700	  549.00	  521.72	-1718.47	  396.02
     32.2700	  544.00	  521.49	-1723.24	  395.78
     32.3700	  548.00	  521.40	-1719.15	  395.54
     32.4700	  555.00	  521.48	-1712.23	  395.30
     32.5700	  582.00	  521.72	-1685.47	  395.07
     32.6700	  548.00	  522.17	-1719.92	  394.83
     32.7700	  534.00	  522.85	-1734.60	  394.60
     32.8700	  526.00	  523.84	-1743.59	  394.37
     32.9700	  530.00	  525.26	-1741.01	  394.14
     33.0700	  551.00	  527.31	-1722.06	  393.91
     33.1700	  514.00	  530.45	-1762.20	  393.69
     33.2700	  497.00	  535.72	-1784.47	  393.46
     33.3700	  524.00	  545.33	-1767.08	  393.24
     33.4700	  559.00	  563.52	-1750.27	  393.02
     33.5700	  614.00	  596.91	-1728.66	  392.80
     33.6700	  622.00	  652.96	-1776.71	  392.58
     33.7700	  748.00	  734.73	-1732.48	  392.36
     33.8700	  795.00	  833.12	-1783.87	  392.15
     33.9700	 1000.00	  921.63	-1667.38	  391.94
     34.0700	 1087.00	  959.98	-1618.73	  391.72
     34.1700	 1008.00	  919.02	-1656.77	  391.51
     34.2700	  912.00	  820.00	-1653.75	  391.31
     34.3700	  702.00	  713.71	-1757.46	  391.10
     34.4700	  642.00	  631.25	-1735.00	  390.90
     34.5700	  595.00	  579.11	-1729.86	  390.69
     34.6700	  596.00	  550.66	-1700.41	  390.49
     34.7700	  550.00	  536.25	-1732.00	  390.29
     34.8700	  542.00	  528.71	-1732.46	  390.09
     34.9700	  573.00	  524.21	-1696.96	  389.89
     35.0700	  542.00	  521.12	-1724.87	  389.70
     35.1700	  499.00	  518.81	-1765.56	  389.51
     35.2700	  491.00	  516.98	-1771.73	  389.31
     35.3700	  511.00	  515.49	-1750.24	  389.12
     35.4700	  493.00	  514.27	-1767.02	  388.94
     35.5700	  524.00	  513.24	-1734.99	  388.75
     35.6700	  489.00	  512.36	-1769.11	  388.57
     35.7700	  515.00	  511.60	-1742.35	  388.38
     35.8700	  490.00	  510.94	-1766.69	  388.20
     35.9700	  519.00	  510.84	-1737.59	  388.02
     36.0700	  480.00	  510.33	-1776.08	  387.84
     36.1700	  481.00	  509.88	-1774.63	  387.67
     36.2700	  495.00	  509.47	-1760.22	  387.49
     36.3700	  533.00	  509.11	-1721.86	  387.32
     36.4700	  507.00	  508.79	-1747.54	  387.15
     36.5700	  560.00	  508.51	-1694.26	  386.98
     36.6700	  501.00	  508.27	-1753.02	  386.81
     36.7700	  534.00	  508.09	-1719.84	  386.64
     36.8700	  498.00	  507.98	-1755.73	  386.48
     36.9700	  491.00	  508.02	-1762.77	  386.32
     37.0700	  505.00	  508.35	-1749.10	  386.15
     37.1700	  509.00	  509.24	-1745.99	  386.00
     37.2700	  530.00	  511.09	-1726.84	  385.84
     37.3700	  542.00	  514.29	-1718.04	  385.68
     37.4700	  506.00	  518.83	-1758.58	  385.53
     37.5700	  504.00	  523.95	-1765.70	  385.38
     37.6700	  545.00	  528.06	-1728.81	  385.22
     37.7700	  496.00	  529.40	-1779.15	  385.08
     37.8700	  498.00	  527.55	-1775.30	  384.93
     37.9700	  514.00	  523.93	-1755.68	  384.78
     38.0700	  523.00	  519.78	-1742.53	  384.64
     38.1700	  507.00	  515.60	-1754.35	  384.50
     38.2700	  515.00	  511.86	-1742.61	  384.36
     38.3700	  471.00	  508.95	-1783.70	  384.22
     38.4700	  480.00	  506.92	-1772.67	  384.08
     38.5700	  538.00	  505.63	-1713.38	  383.95
     38.6700	  476.00	  504.85	-1774.60	  383.81
     38.7700	  473.00	  504.26	-1777.01	  383.68
     38.8700	  504.00	  503.93	-1745.68	  383.55
     38.9700	  483.00	  503.68	-1766.43	  383.42
     39.0700	  476.00	  503.47	-1773.22	  383.29
     39.1700	  507.00	  503.29	-1742.04	  383.17
     39.2700	  535.00	  503.04	-1713.79	  383.05
     39.3700	  505.00	  502.89	-1743.64	  382.92
     39.4700	  508.00	  502.88	-1740.63	  382.80
     39.5700	  517.00	  502.77	-1731.52	  382.69
     39.6700	  527.00	  502.66	-1721.41	  382.57
     39.7700	  501.00	  502.57	-1747.32	  382.46
     39.8700	  501.00	  502.48	-1747.23	  382.34
     39.9700	  518.00	  502.41	-1730.16	  382.23
     40.0700	  478.00	  502.34	-1770.09	  382.12
     40.1700	  509.00	  502.29	-1739.04	  382.01
     40.2700	  483.00	  502.25	-1765.00	  381.91
     40.3700	  555.00	  502.22	-1692.97	  381.80
     40.4700	  527.00	  502.20	-1720.95	  381.70
     40.5700	  497.00	  502.20	-1750.95	  381.60
     40.6700	  493.00	  502.22	-1754.97	  381.50
     40.7700	  524.00	  502.26	-1724.01	  381.40
     40.8700	  506.00	  502.32	-1742.07	  381.31
     40.9700	  478.00	  502.41	-1770.16	  381.21
     41.0700	  452.00	  502.54	-1796.29	  381.12
     41.1700	  472.00	  502.71	-1776.46	  381.03
     41.2700	  517.00	  502.93	-1731.68	  380.94
     41.3700	  484.00	  503.18	-1764.93	  380.85
     41.4700	  531.00	  504.00	-1718.75	  380.77
     41.5700	  524.00	  504.50	-1726.25	  380.68
     41.6700	  528.00	  505.20	-1722.95	  380.60
     41.7700	  530.00	  506.23	-1721.98	  380.52
     41.8700	  473.00	  507.92	-1780.67	  380.44
     41.9700	  475.00	  511.01	-1781.76	  380.37
     42.0700	  502.00	  516.91	-1760.66	  380.29
     42.1700	  532.00	  527.82	-1741.57	  380.22
     42.2700	  535.00	  546.33	-1757.08	  380.14
     42.3700	  549.00	  573.67	-1770.42	  380.07
     42.4700	  508.00	  607.77	-1845.52	  380.00
     42.5700	  649.00	  641.19	-1737.94	  379.94
     42.6700	  621.00	  661.94	-1786.69	  379.87
     42.7700	  629.00	  658.97	-1775.72	  379.81
     42.8700	  613.00	  633.26	-1766.01	  379.74
     42.9700	  556.00	  597.55	-1787.30	  379.68
     43.0700	  589.00	  564.15	-1720.90	  379.62
     43.1700	  536.00	  539.09	-1748.84	  379.57
     43.2700	  491.00	  523.15	-1777.90	  379.51
     43.3700	  526.00	  514.22	-1733.97	  379.46
     43.4700	  512.00	  509.59	-1743.34	  379.40
     43.5700	  516.00	  507.20	-1736.95	  379.35
     43.6700	  481.00	  506.03	-1770.78	  379.30
     43.7700	  513.00	  505.17	-1737.92	  379.26
     43.8700	  504.00	  504.56	-1746.31	  379.21
     43.9700	  485.00	  504.15	-1764.90	  379.17
     44.0700	  525.00	  503.80	-1724.55	  379.12
     44.1700	  533.00	  503.55	-1716.30	  379.08
     44.2700	  548.00	  503.36	-1701.11	  379.04
     44.3700	  502.00	  503.22	-1746.97	  379.01
     44.4700	  486.00	  503.13	-1762.88	  378.97
     44.5700	  472.00	  503.08	-1776.83	  378.93
     44.6700	  521.00	  502.93	-1727.68	  378.90
     44.7700	  538.00	  502.94	-1710.69	  378.87
     44.8700	  533.00	  502.98	-1715.73	  378.84
     44.9700	  518.00	  503.04	-1730.79	  378.81
     45.0700	  507.00	  503.13	-1741.88	  378.78
     45.1700	  491.00	  503.41	-1758.16	  378.76
     45.2700	  496.00	  503.55	-1753.30	  378.73
     45.3700	  486.00	  503.70	-1763.45	  378.71
     45.4700	  537.00	  503.88	-1712.63	  378.69
     45.5700	  531.00	  504.08	-1718.83	  378.67
     45.6700	  472.00	  504.30	-1778.05	  378.65
     45.7700	  448.00	  504.56	-1802.31	  378.64
     45.8700	  508.00	  504.84	-1742.59	  378.62
     45.9700	  512.00	  505.15	-1738.90	  378.61
     46.0700	  516.00	  505.50	-1735.25	  378.60
     46.1700	  490.00	  505.89	-1761.64	  378.59
     46.2700	  488.00	  506.32	-1764.07	  378.58
     46.3700	  530.00	  506.81	-1722.56	  378.57
     46.4700	  500.00	  507.35	-1753.10	  378.57
     46.5700	  502.00	  507.97	-1751.72	  378.56
     46.6700	  520.00	  508.67	-1734.42	  378.56
     46.7700	  533.00	  509.49	-1722.24	  378.56
     46.8700	  503.00	  510.49	-1753.24	  378.56
     46.9700	  478.00	  511.79	-1779.54	  378.56
     47.0700	  500.00	  513.70	-1759.45	  378.56
     47.1700	  520.00	  516.76	-1742.51	  378.57
     47.2700	  512.00	  521.80	-1755.55	  378.58
     47.3700	  551.00	  530.05	-1724.80	  378.58
     47.4700	  553.00	  542.59	-1735.34	  378.59
     47.5700	  557.00	  559.54	-1748.29	  378.60
     47.6700	  588.00	  579.17	-1736.92	  378.61
     47.7700	  571.00	  597.33	-1772.08	  378.63
     47.8700	  635.00	  608.12	-1718.87	  378.64
     47.9700	  597.00	  607.09	-1755.84	  378.66
     48.0700	  547.00	  595.46	-1794.21	  378.68
     48.1700	  558.00	  579.07	-1766.82	  378.70
     48.2700	  548.00	  563.63	-1761.38	  378.72
     48.3700	  512.00	  552.29	-1786.04	  378.74
     48.4700	  559.00	  545.93	-1732.68	  378.76
     48.5700	  581.00	  543.96	-1708.71	  378.78
     48.6700	  544.00	  545.30	-1747.05	  378.81
     48.7700	  539.00	  549.03	-1755.78	  378.84
     48.8700	  545.00	  554.68	-1755.43	  378.87
     48.9700	  515.00	  562.35	-1793.10	  378.90
     49.0700	  538.00	  572.73	-1780.48	  378.93
     49.1700	  569.00	  587.52	-1764.27	  378.96
     49.2700	  582.00	  610.29	-1774.04	  378.99
     49.3700	  660.00	  647.77	-1733.52	  379.03
     49.4700	  684.00	  711.51	-1773.26	  379.07
     49.5700	  804.00	  816.84	-1758.59	  379.10
     49.6700	  900.00	  982.03	-1827.78	  379.14
     49.7700	 1120.00	 1220.26	-1846.01	  379.18
     49.8700	 1514.00	 1529.25	-1761.00	  379.22
     49.9700	 1893.00	 1879.75	-1732.50	  379.27
     50.0700	 2280.00	 2206.62	-1672.37	  379.31
     50.1700	 2488.00	 2413.48	-1671.23	  379.36
     50.2700	 2502.00	 2415.30	-1659.05	  379.40
     50.3700	 2195.00	 2209.13	-1759.88	  379.45
     50.4700	 1957.00	 1880.96	-1669.71	  379.50
     50.5700	 1363.00	 1531.52	-1914.27	  379.55
     50.6700	 1010.00	 1227.29	-1963.04	  379.60
     50.7700	  860.00	  997.04	-1882.79	  379.66
     50.8700	  663.00	  842.13	-1924.88	  379.71
     50.9700	  691.00	  747.56	-1802.31	  379.77
     51.0700	  648.00	  692.63	-1790.38	  379.82
     51.1700	  625.00	  658.67	-1779.42	  379.88
     51.2700	  616.00	  633.40	-1763.15	  379.94
     51.3700	  643.00	  611.79	-1714.54	  380.00
     51.4700	  569.00	  593.10	-1769.85	  380.06
     51.5700	  579.00	  577.81	-1744.56	  380.12
     51.6700	  540.00	  566.17	-1771.92	  380.19
     51.7700	  521.00	  557.88	-1782.63	  380.25
     51.8700	  544.00	  552.28	-1754.03	  380.32
     51.9700	  565.00	  548.63	-1729.38	  380.38
     52.0700	  568.00	  546.36	-1724.11	  380.45
     52.1700	  582.00	  545.36	-1709.11	  380.52
     52.2700	  596.00	  545.06	-1694.81	  380.59
     52.3700	  510.00	  545.79	-1781.54	  380.66
     52.4700	  577.00	  547.99	-1716.74	  380.73
     52.5700	  551.00	  552.69	-1747.44	  380.81
     52.6700	  578.00	  562.08	-1729.83	  380.88
     52.7700	  589.00	  580.10	-1736.85	  380.96
     52.8700	  674.00	  612.72	-1684.47	  381.04
     52.9700	  688.00	  667.20	-1724.95	  381.11
     53.0700	  814.00	  749.42	-1681.17	  381.19
     53.1700	  904.00	  859.62	-1701.37	  381.27
     53.2700	 1037.00	  987.83	-1696.58	  381.35
     53.3700	 1148.00	 1110.97	-1708.72	  381.43
     53.4700	 1146.00	 1194.97	-1794.72	  381.52
     53.5700	 1115.00	 1207.85	-1838.60	  381.60
     53.6700	 1075.00	 1143.46	-1814.21	  381.69
     53.7700	  947.00	 1028.03	-1826.78	  381.77
     53.8700	  857.00	  898.02	-1786.77	  381.86
     53.9700	  741.00	  780.71	-1785.46	  381.95
     54.0700	  710.00	  689.90	-1725.65	  382.03
     54.1700	  623.00	  627.93	-1750.68	  382.12
     54.2700	  605.00	  590.03	-1730.78	  382.22
     54.3700	  570.00	  568.89	-1744.64	  382.31
     54.4700	  562.00	  557.90	-1741.65	  382.40
     54.5700	  567.00	  552.49	-1731.24	  382.49
     54.6700	  580.00	  549.96	-1715.71	  382.59
     54.7700	  562.00	  549.09	-1732.84	  382.68
     54.8700	  577.00	  549.24	-1717.99	  382.78
     54.9700	  550.00	  550.19	-1745.94	  382.87
     55.0700	  579.00	  551.87	-1718.62	  382.97
     55.1700	  552.00	  554.32	-1748.07	  383.07
     55.2700	  559.00	  557.55	-1744.30	  383.17
     55.3700	  552.00	  561.72	-1755.47	  383.27
     55.4700	  594.00	  567.05	-1718.80	  383.37
     55.5700	  587.00	  573.94	-1732.69	  383.47
     55.6700	  569.00	  583.20	-1759.95	  383.58
     55.7700	  594.00	  596.53	-1748.28	  383.68
     55.8700	  595.00	  617.27	-1768.02	  383.79
     55.9700	  613.00	  651.63	-1784.38	  383.89
     56.0700	  680.00	  709.95	-1775.70	  384.00
     56.1700	  721.00	  807.10	-1831.85	  384.10
     56.2700	  965.00	  960.65	-1741.40	  384.21
     56.3700	 1087.00	 1185.72	-1844.47	  384.32
     56.4700	 1407.00	 1486.47	-1825.22	  384.43
     56.5700	 1725.00	 1846.68	-1867.43	  384.54
     56.6700	 2082.00	 2222.05	-1885.80	  384.65
     56.7700	 2492.00	 2538.06	-1791.81	  384.76
     56.8700	 2570.00	 2703.91	-1879.66	  384.87
     56.9700	 2593.00	 2658.12	-1810.87	  384.98
     57.0700	 2330.00	 2418.42	-1834.17	  385.10
     57.1700	 2047.00	 2067.12	-1765.87	  385.21
     57.2700	 1698.00	 1692.80	-1740.55	  385.33
     57.3700	 1357.00	 1357.51	-1746.26	  385.44
     57.4700	 1040.00	 1092.70	-1798.45	  385.56
     57.5700	  934.00	  904.75	-1716.50	  385.67
     57.6700	  769.00	  783.90	-1760.65	  385.79
     57.7700	  758.00	  713.82	-1701.57	  385.91
     57.8700	  685.00	  678.93	-1739.68	  386.03
     57.9700	  713.00	  668.21	-1700.96	  386.15
     58.0700	  695.00	  675.72	-1726.47	  386.27
     58.1700	  737.00	  699.44	-1708.19	  386.39
     58.2700	  757.00	  739.38	-1728.13	  386.51
     58.3700	  786.00	  795.74	-1755.49	  386.63
     58.4700	  953.00	  867.27	-1660.02	  386.75
     58.5700	 1066.00	  949.67	-1629.42	  386.87
     58.6700	 1310.00	 1035.09	-1470.84	  386.99
     58.7700	 1371.00	 1114.23	-1488.98	  387.12
     58.8700	 1396.00	 1180.58	-1530.33	  387.24
     58.9700	 1481.00	 1230.30	-1495.05	  387.37
     59.0700	 1558.00	 1258.28	-1446.03	  387.49
     59.1700	 1526.00	 1259.86	-1479.61	  387.62
     59.2700	 1471.00	 1238.41	-1513.16	  387.74
     59.3700	 1334.00	 1205.91	-1617.66	  387.87
     59.4700	 1364.00	 1174.74	-1556.49	  388.00
     59.5700	 1169.00	 1153.34	-1730.09	  388.12
     59.6700	 1122.00	 1148.95	-1772.70	  388.25
     59.7700	 1157.00	 1170.11	-1758.86	  388.38
     59.8700	 1158.00	 1222.37	-1810.12	  388.51
     59.9700	 1312.00	 1302.04	-1735.79	  388.64
     60.0700	 1438.00	 1393.22	-1700.97	  388.77
     60.1700	 1529.00	 1468.39	-1685.14	  388.90
     60.2700	 1610.00	 1495.33	-1631.08	  389.03
     60.3700	 1585.00	 1453.92	-1614.67	  389.16
     60.4700	 1453.00	 1350.56	-1643.31	  389.29
     60.5700	 1281.00	 1211.49	-1676.24	  389.42
     60.6700	 1069.00	 1065.02	-1741.77	  389.55
     60.7700	  939.00	  931.87	-1738.62	  389.68
     60.8700	  810.00	  823.73	-1759.48	  389.82
     60.9700	  692.00	  744.76	-1798.51	  389.95
     61.0700	  658.00	  693.94	-1781.69	  390.08
     61.1700	  642.00	  668.15	-1771.90	  390.22
     61.2700	  650.00	  664.80	-1760.55	  390.35
     61.3700	  651.00	  683.45	-1778.20	  390.48
     61.4700	  702.00	  726.06	-1769.81	  390.62
     61.5700	  782.00	  795.66	-1759.41	  390.75
     61.6700	  793.00	  894.10	-1846.85	  390.89
     61.7700	  976.00	 1019.07	-1788.82	  391.02
     61.8700	 1124.00	 1161.45	-1783.20	  391.16
     61.9700	 1265.00	 1303.70	-1784.45	  391.29
     62.0700	 1332.00	 1419.69	-1833.44	  391.43
     62.1700	 1405.00	 1479.77	-1820.52	  391.56
     62.2700	 1330.00	 1464.36	-1880.11	  391.70
     62.3700	 1349.00	 1378.10	-1774.85	  391.83
     62.4700	 1153.00	 1246.17	-1838.92	  391.97
     62.5700	 1059.00	 1098.17	-1784.92	  392.11
     62.6700	  881.00	  957.18	-1821.93	  392.24
     62.7700	  754.00	  837.27	-1829.02	  392.38
     62.8700	  708.00	  744.31	-1782.06	  392.52
     62.9700	  643.00	  677.83	-1780.58	  392.65
     63.0700	  599.00	  633.58	-1780.33	  392.79
     63.1700	  626.00	  605.92	-1725.67	  392.93
     63.2700	  610.00	  589.60	-1725.35	  393.07
     63.3700	  583.00	  580.72	-1743.47	  393.20
     63.4700	  557.00	  576.95	-1765.70	  393.34
     63.5700	  574.00	  577.42	-1749.17	  393.48
     63.6700	  572.00	  582.49	-1756.24	  393.62
     63.7700	  630.00	  593.50	-1709.25	  393.75
     63.8700	  565.00	  612.46	-1793.21	  393.89
     63.9700	  668.00	  641.46	-1719.21	  394.03
     64.0700	  692.00	  681.97	-1735.72	  394.17
     64.1700	  801.00	  733.81	-1678.56	  394.30
     64.2700	  932.00	  794.30	-1608.05	  394.44
     64.3700	  926.00	  857.60	-1677.35	  394.58
     64.4700	 1035.00	  914.62	-1625.37	  394.72
     64.5700	 1040.00	  954.71	-1660.46	  394.85
     64.6700	 1003.00	  968.82	-1711.57	  394.99
     64.7700	  990.00	  955.91	-1711.66	  395.13
     64.8700	  970.00	  920.20	-1695.95	  395.27
     64.9700	  916.00	  870.23	-1699.98	  395.40
     65.0700	  816.00	  815.40	-1745.15	  395.54
     65.1700	  838.00	  763.28	-1671.03	  395.68
     65.2700	  790.00	  718.11	-1673.86	  395.81
     65.3700	  680.00	  680.98	-1746.73	  395.95
     65.4700	  661.00	  651.13	-1735.88	  396.09
     65.5700	  640.00	  627.31	-1733.06	  396.22
     65.6700	  625.00	  608.55	-1729.30	  396.36
     65.7700	  609.00	  594.12	-1730.87	  396.50
     65.8700	  586.00	  583.41	-1743.16	  396.63
     65.9700	  577.00	  575.92	-1744.67	  396.77
     66.0700	  517.00	  571.17	-1799.92	  396.90
     66.1700	  579.00	  568.73	-1735.48	  397.04
     66.2700	  524.00	  568.19	-1789.94	  397.18
     66.3700	  572.00	  569.22	-1742.97	  397.31
     66.4700	  545.00	  571.64	-1772.39	  397.45
     66.5700	  535.00	  575.60	-1786.35	  397.58
     66.6700	  544.00	  581.25	-1783.00	  397.72
     66.7700	  587.00	  589.59	-1748.34	  397.85
     66.8700	  606.00	  602.34	-1742.09	  397.98
     66.9700	  598.00	  622.47	-1770.22	  398.12
     67.0700	  668.00	  654.68	-1732.43	  398.25
     67.1700	  638.00	  705.67	-1813.42	  398.38
     67.2700	  758.00	  783.88	-1771.63	  398.52
     67.3700	  867.00	  898.36	-1777.11	  398.65
     67.4700	 1108.00	 1056.60	-1694.35	  398.78
     67.5700	 1231.00	 1261.01	-1775.76	  398.91
     67.6700	 1551.00	 1506.17	-1700.92	  399.04
     67.7700	 1765.00	 1775.43	-1756.18	  399.18
     67.8700	 2110.00	 2040.25	-1676.00	  399.31
     67.9700	 2329.00	 2260.27	-1677.02	  399.44
     68.0700	 2469.00	 2390.46	-1667.21	  399.57
     68.1700	 2503.00	 2397.49	-1640.24	  399.70
     68.2700	 2223.00	 2279.36	-1802.11	  399.83
     68.3700	 1972.00	 2066.86	-1840.61	  399.95
     68.4700	 1834.00	 1805.08	-1716.83	  400.08
     68.5700	 1514.00	 1534.98	-1766.73	  400.21
     68.6700	 1269.00	 1286.70	-1763.45	  400.34
     68.7700	 1093.00	 1078.05	-1730.80	  400.47
     68.8700	  894.00	  915.53	-1767.28	  400.59
     68.9700	  785.00	  797.28	-1758.03	  400.72
     69.0700	  694.00	  716.21	-1767.96	  400.85
     69.1700	  667.00	  663.30	-1742.05	  400.97
     69.2700	  623.00	  629.97	-1752.72	  401.10
     69.3700	  574.00	  609.31	-1781.06	  401.22
     69.4700	  615.00	  596.44	-1727.19	  401.34
     69.5700	  573.00	  588.18	-1760.93	  401.47
     69.6700	  603.00	  582.67	-1725.42	  401.59
     69.7700	  612.00	  578.88	-1712.63	  401.71
     69.8700	  563.00	  576.27	-1759.02	  401.83
     69.9700	  584.00	  574.54	-1736.29	  401.96
     70.0700	  559.00	  573.57	-1760.32	  402.08
     70.1700	  560.00	  573.34	-1759.09	  402.20
     70.2700	  554.00	  573.81	-1765.56	  402.32
     70.3700	  533.00	  575.11	-1787.86	  402.43
     70.4700	  616.00	  577.50	-1707.25	  402.55
     70.5700	  577.00	  581.44	-1750.19	  402.67
     70.6700	  576.00	  587.80	-1757.55	  402.79
     70.7700	  586.00	  598.11	-1757.86	  402.90
     70.8700	  615.00	  614.77	-1745.52	  403.02
     70.9700	  611.00	  641.32	-1776.07	  403.14
     71.0700	  599.00	  682.52	-1829.27	  403.25
     71.1700	  739.00	  744.00	-1750.75	  403.36
     71.2700	  834.00	  831.42	-1743.17	  403.48
     71.3700	  912.00	  949.11	-1782.86	  403.59
     71.4700	 1055.00	 1098.81	-1789.56	  403.70
     71.5700	 1209.00	 1274.78	-1811.53	  403.81
     71.6700	 1426.00	 1467.04	-1786.79	  403.92
     71.7700	 1570.00	 1657.56	-1833.31	  404.03
     71.8700	 1804.00	 1821.69	-1763.44	  404.14
     71.9700	 1899.00	 1931.16	-1777.91	  404.25
     72.0700	 1909.00	 1962.47	-1799.22	  404.36
     72.1700	 1881.00	 1908.15	-1772.90	  404.47
     72.2700	 1796.00	 1781.37	-1731.12	  404.57
     72.3700	 1770.00	 1608.20	-1583.95	  404.68
     72.4700	 1511.00	 1416.01	-1650.76	  404.78
     72.5700	 1325.00	 1228.32	-1649.07	  404.89
     72.6700	 1151.00	 1060.40	-1655.15	  404.99
     72.7700	 1050.00	  920.75	-1616.50	  405.09
     72.8700	  868.00	  811.63	-1689.38	  405.19
     72.9700	  868.00	  730.93	-1608.68	  405.29
     73.0700	  834.00	  673.93	-1585.68	  405.39
     73.1700	  794.00	  635.12	-1586.87	  405.49
     73.2700	  703.00	  609.29	-1652.04	  405.59
     73.3700	  657.00	  592.25	-1681.00	  405.69
     73.4700	  671.00	  580.93	-1655.68	  405.79
     73.5700	  598.00	  573.31	-1721.06	  405.88
     73.6700	  591.00	  568.12	-1722.87	  405.98
     73.7700	  570.00	  564.61	-1740.36	  406.07
     73.8700	  607.00	  562.36	-1701.11	  406.16
     73.9700	  594.00	  561.10	-1712.85	  406.26
     74.0700	  576.00	  560.64	-1730.39	  406.35
     74.1700	  606.00	  560.81	-1700.56	  406.44
     74.2700	  592.00	  561.39	-1715.14	  406.53
     74.3700	  629.00	  562.13	-1678.88	  406.62
     74.4700	  669.00	  562.74	-1639.49	  406.70
     74.5700	  629.00	  562.90	-1679.65	  406.79
     74.6700	  641.00	  562.40	-1667.15	  406.88
     74.7700	  666.00	  561.19	-1640.94	  406.96
     74.8700	  646.00	  559.40	-1659.15	  407.04
     74.9700	  594.00	  557.34	-1709.09	  407.13
     75.0700	  624.00	  555.34	-1677.09	  407.21
     75.1700	  565.00	  553.76	-1734.51	  407.29
     75.2700	  603.00	  552.89	-1695.64	  407.37
     75.3700	  526.00	  553.19	-1772.94	  407.45
     75.4700	  566.00	  555.10	-1734.85	  407.53
     75.5700	  569.00	  559.05	-1735.80	  407.60
     75.6700	  549.00	  565.43	-1762.18	  407.68
     75.7700	  601.00	  574.88	-1719.63	  407.76
     75.8700	  598.00	  587.59	-1735.34	  407.83
     75.9700	  610.00	  603.51	-1739.26	  407.90
     76.0700	  638.00	  622.16	-1729.91	  407.97
     76.1700	  608.00	  642.46	-1780.21	  408.05
     76.2700	  681.00	  662.73	-1727.48	  408.12
     76.3700	  720.00	  680.76	-1706.51	  408.18
     76.4700	  700.00	  693.94	-1739.69	  408.25
     76.5700	  677.00	  699.92	-1768.67	  408.32
     76.6700	  701.00	  697.45	-1742.20	  408.38
     76.7700	  682.00	  687.02	-1750.77	  408.45
     76.8700	  645.00	  670.59	-1771.34	  408.51
     76.9700	  584.00	  650.75	-1812.50	  408.57
     77.0700	  615.00	  629.72	-1760.47	  408.64
     77.1700	  574.00	  609.81	-1781.56	  408.70
     77.2700	  556.00	  592.15	-1781.90	  408.75
     77.3700	  536.00	  577.44	-1787.19	  408.81
     77.4700	  549.00	  565.89	-1762.64	  408.87
     77.5700	  514.00	  557.26	-1789.01	  408.92
     77.6700	  540.00	  551.11	-1756.86	  408.98
     77.7700	  536.00	  546.90	-1756.65	  409.03
     77.8700	  488.00	  544.12	-1801.87	  409.08
     77.9700	  552.00	  542.32	-1736.07	  409.13
     78.0700	  468.00	  541.17	-1818.92	  409.18
     78.1700	  555.00	  540.44	-1731.19	  409.23
     78.2700	  512.00	  539.98	-1773.73	  409.28
     78.3700	  516.00	  539.68	-1769.43	  409.33
     78.4700	  557.00	  539.52	-1728.27	  409.37
     78.5700	  516.00	  539.45	-1769.20	  409.41
     78.6700	  558.00	  539.47	-1727.22	  409.46
     78.7700	  528.00	  539.59	-1757.34	  409.50
     78.8700	  487.00	  539.82	-1798.57	  409.54
     78.9700	  538.00	  540.20	-1747.95	  409.58
     79.0700	  501.00	  540.75	-1785.50	  409.62
     79.1700	  506.00	  541.53	-1781.28	  409.65
     79.2700	  554.00	  542.57	-1734.32	  409.69
     79.3700	  491.00	  543.76	-1798.51	  409.72
     79.4700	  517.00	  545.52	-1774.27	  409.75
     79.5700	  492.00	  547.73	-1801.48	  409.79
     79.6700	  497.00	  550.49	-1799.24	  409.82
     79.7700	  542.00	  553.89	-1757.64	  409.84
     79.8700	  543.00	  558.08	-1760.83	  409.87
     79.9700	  553.00	  563.24	-1755.99	  409.90
     80.0700	  540.00	  569.60	-1775.35	  409.92
     80.1700	  582.00	  577.44	-1741.19	  409.95
     80.2700	  601.00	  587.08	-1731.83	  409.97
     80.3700	  584.00	  598.78	-1760.53	  409.99
     80.4700	  544.00	  612.66	-1814.41	  410.01
     80.5700	  572.00	  628.60	-1802.35	  410.03
     80.6700	  594.00	  646.18	-1797.93	  410.05
     80.7700	  654.00	  664.59	-1756.34	  410.06
     80.8700	  665.00	  682.73	-1763.48	  410.08
     80.9700	  701.00	  699.31	-1744.06	  410.09
     81.0700	  692.00	  713.10	-1766.85	  410.10
     81.1700	  744.00	  723.12	-1724.87	  410.11
     81.2700	  781.00	  728.70	-1693.45	  410.12
     81.3700	  721.00	  729.51	-1754.26	  410.13
     81.4700	  724.00	  725.60	-1747.35	  410.14
     81.5700	  759.00	  717.38	-1704.13	  410.14
     81.6700	  722.00	  705.47	-1729.22	  410.15
     81.7700	  778.00	  690.67	-1658.42	  410.15
     81.8700	  700.00	  673.92	-1719.67	  410.15
     81.9700	  709.00	  656.31	-1693.06	  410.15
     82.0700	  724.00	  638.91	-1660.66	  410.15
     82.1700	  655.00	  622.47	-1713.22	  410.15
     82.2700	  617.00	  607.66	-1736.41	  410.14
     82.3700	  576.00	  594.71	-1764.46	  410.14
     82.4700	  642.00	  583.72	-1687.47	  410.13
     82.5700	  544.00	  574.72	-1776.47	  410.12
     82.6700	  593.00	  567.61	-1720.36	  410.11
     82.7700	  552.00	  562.35	-1756.10	  410.10
     82.8700	  571.00	  558.79	-1733.54	  410.09
     82.9700	  576.00	  556.80	-1726.55	  410.07
     83.0700	  528.00	  556.28	-1774.03	  410.06
     83.1700	  582.00	  557.10	-1720.85	  410.04
     83.2700	  545.00	  559.13	-1759.88	  410.02
     83.3700	  544.00	  562.21	-1763.96	  410.00
     83.4700	  544.00	  566.09	-1767.84	  409.98
     83.5700	  543.00	  570.48	-1773.23	  409.96
     83.6700	  586.00	  574.98	-1734.73	  409.94
     83.7700	  574.00	  579.12	-1750.87	  409.91
     83.8700	  556.00	  582.39	-1772.14	  409.88
     83.9700	  544.00	  584.29	-1786.04	  409.86
     84.0700	  547.00	  584.47	-1783.22	  409.83
     84.1700	  570.00	  582.86	-1758.61	  409.80
     84.2700	  537.00	  579.66	-1788.41	  409.76
     84.3700	  564.00	  575.30	-1757.05	  409.73
     84.4700	  537.00	  570.27	-1779.02	  409.69
     84.5700	  583.00	  565.01	-1727.76	  409.66
     84.6700	  539.00	  559.90	-1766.65	  409.62
     84.7700	  579.00	  555.20	-1721.95	  409.58
     84.8700	  534.00	  551.10	-1762.85	  409.54
     84.9700	  525.00	  547.69	-1768.44	  409.50
     85.0700	  535.00	  544.96	-1755.71	  409.45
     85.1700	  542.00	  542.87	-1746.62	  409.41
     85.2700	  563.00	  541.34	-1724.09	  409.36
     85.3700	  547.00	  540.29	-1739.04	  409.31
     85.4700	  545.00	  539.62	-1740.37	  409.26
     85.5700	  544.00	  539.26	-1741.01	  409.21
     85.6700	  544.00	  539.18	-1740.93	  409.16
     85.7700	  511.00	  539.36	-1774.11	  409.10
     85.8700	  578.00	  539.82	-1707.57	  409.05
     85.9700	  516.00	  540.63	-1770.38	  408.99
     86.0700	  513.00	  541.88	-1774.63	  408.93
     86.1700	  514.00	  543.70	-1775.45	  408.87
     86.2700	  514.00	  546.25	-1778.00	  408.81
     86.3700	  540.00	  549.69	-1755.44	  408.75
     86.4700	  575.00	  554.17	-1724.92	  408.68
     86.5700	  512.00	  559.80	-1793.55	  408.62
     86.6700	  548.00	  566.62	-1764.37	  408.55
     86.7700	  664.00	  574.54	-1656.29	  408.48
     86.8700	  594.00	  583.01	-1734.76	  408.41
     86.9700	  613.00	  592.28	-1725.03	  408.34
     87.0700	  650.00	  601.50	-1697.25	  408.27
     87.1700	  584.00	  609.97	-1771.72	  408.19
     87.2700	  665.00	  616.92	-1697.67	  408.12
     87.3700	  637.00	  621.60	-1730.35	  408.04
     87.4700	  636.00	  623.42	-1733.17	  407.96
     87.5700	  659.00	  622.16	-1708.91	  407.88
     87.6700	  625.00	  618.07	-1738.82	  407.80
     87.7700	  604.00	  611.76	-1753.51	  407.71
     87.8700	  597.00	  604.04	-1752.79	  407.63
     87.9700	  602.00	  595.78	-1739.53	  407.54
     88.0700	  610.00	  587.73	-1723.48	  407.45
     88.1700	  639.00	  580.58	-1687.33	  407.36
     88.2700	  641.00	  574.80	-1679.55	  407.27
     88.3700	  580.00	  570.74	-1736.49	  407.18
     88.4700	  578.00	  568.57	-1736.32	  407.09
     88.5700	  609.00	  568.29	-1705.04	  406.99
     88.6700	  576.00	  569.76	-1739.51	  406.90
     88.7700	  581.00	  572.72	-1737.47	  406.80
     88.8700	  564.00	  576.80	-1758.55	  406.70
     88.9700	  619.00	  581.54	-1708.29	  406.60
     89.0700	  613.00	  586.42	-1719.17	  406.49
     89.1700	  606.00	  590.87	-1730.62	  406.39
     89.2700	  620.00	  594.34	-1720.09	  406.28
     89.3700	  616.00	  596.32	-1726.07	  406.18
     89.4700	  604.00	  596.48	-1738.23	  406.07
     89.5700	  606.00	  594.75	-1734.50	  405.96
     89.6700	  543.00	  591.33	-1794.08	  405.85
     89.7700	  533.00	  586.60	-1799.35	  405.74
     89.8700	  564.00	  581.03	-1762.78	  405.62
     89.9700	  568.00	  575.08	-1752.83	  405.51
     90.0700	  565.00	  569.14	-1749.89	  405.39
     90.1700	  544.00	  563.54	-1765.29	  405.27
     90.2700	  500.00	  558.49	-1804.24	  405.15
     90.3700	  540.00	  554.14	-1759.89	  405.03
     90.4700	  541.00	  550.54	-1755.29	  404.91
     90.5700	  495.00	  547.70	-1798.45	  404.78
     90.6700	  522.00	  545.57	-1769.32	  404.66
     90.7700	  523.00	  544.05	-1766.80	  404.53
     90.8700	  518.00	  543.08	-1770.83	  404.40
     90.9700	  496.00	  542.57	-1792.32	  404.27
     91.0700	  506.00	  542.47	-1782.22	  404.14
     91.1700	  519.00	  542.74	-1769.49	  404.01
     91.2700	  487.00	  543.39	-1802.14	  403.87
     91.3700	  534.00	  544.47	-1756.22	  403.74
     91.4700	  558.00	  546.05	-1733.80	  403.60
     91.5700	  559.00	  548.26	-1735.01	  403.46
     91.6700	  516.00	  551.25	-1781.00	  403.32
     91.7700	  543.00	  555.22	-1757.97	  403.18
     91.8700	  561.00	  560.36	-1745.11	  403.04
     91.9700	  538.00	  566.88	-1774.62	  402.89
     92.0700	  549.00	  574.72	-1771.47	  402.75
     92.1700	  594.00	  584.48	-1736.23	  402.60
     92.2700	  575.00	  595.96	-1766.71	  402.45
     92.3700	  584.00	  609.11	-1770.86	  402.31
     92.4700	  590.00	  623.77	-1779.52	  402.15
     92.5700	  637.00	  639.62	-1748.37	  402.00
     92.6700	  693.00	  656.23	-1708.98	  401.85
     92.7700	  717.00	  673.02	-1701.77	  401.69
     92.8700	  681.00	  689.33	-1754.08	  401.54
     92.9700	  719.00	  704.47	-1731.22	  401.38
     93.0700	  772.00	  717.86	-1691.61	  401.22
     93.1700	  775.00	  729.20	-1699.95	  401.06
     93.2700	  828.00	  738.56	-1656.31	  400.90
     93.3700	  810.00	  746.37	-1682.12	  400.74
     93.4700	  828.00	  753.26	-1671.01	  400.57
     93.5700	  855.00	  759.90	-1650.65	  400.41
     93.6700	  841.00	  766.93	-1671.68	  400.24
     93.7700	  802.00	  774.86	-1718.61	  400.08
     93.8700	  836.00	  784.18	-1693.93	  399.91
     93.9700	  862.00	  795.31	-1679.06	  399.74
     94.0700	  872.00	  808.61	-1682.36	  399.56
     94.1700	  880.00	  824.17	-1689.92	  399.39
     94.2700	  918.00	  841.74	-1669.49	  399.22
     94.3700	  830.00	  860.63	-1776.38	  399.04
     94.4700	  941.00	  879.71	-1684.46	  398.86
     94.5700	  930.00	  897.43	-1713.18	  398.69
     94.6700	  909.00	  911.97	-1748.72	  398.51
     94.7700	  913.00	  921.39	-1754.14	  398.33
     94.8700	  929.00	  924.08	-1740.83	  398.15
     94.9700	  919.00	  919.09	-1745.84	  397.96
     95.0700	  921.00	  906.43	-1731.18	  397.78
     95.1700	  880.00	  887.06	-1752.81	  397.59
     95.2700	  905.00	  862.63	-1703.38	  397.41
     95.3700	  785.00	  835.12	-1795.87	  397.22
     95.4700	  803.00	  806.60	-1749.35	  397.03
     95.5700	  789.00	  779.04	-1735.79	  396.84
     95.6700	  717.00	  754.27	-1783.02	  396.65
     95.7700	  715.00	  733.96	-1764.71	  396.46
     95.8700	  718.00	  719.60	-1747.35	  396.26
     95.9700	  669.00	  712.50	-1789.25	  396.07
     96.0700	  666.00	  713.78	-1793.53	  395.87
     96.1700	  688.00	  724.39	-1782.14	  395.68
     96.2700	  756.00	  745.08	-1734.83	  395.48
     96.3700	  757.00	  776.31	-1765.06	  395.28
     96.4700	  782.00	  818.19	-1781.94	  395.08
     96.5700	  833.00	  870.39	-1783.14	  394.88
     96.6700	  905.00	  932.07	-1772.82	  394.68
     96.7700	 1008.00	 1001.69	-1739.44	  394.47
     96.8700	 1050.00	 1077.07	-1772.82	  394.27
     96.9700	 1143.00	 1155.27	-1758.02	  394.06
     97.0700	 1206.00	 1232.70	-1772.45	  393.86
     97.1700	 1316.00	 1305.18	-1734.93	  393.65
     97.2700	 1351.00	 1368.13	-1762.88	  393.44
     97.3700	 1392.00	 1416.95	-1770.70	  393.23
     97.4700	 1462.00	 1447.70	-1731.45	  393.02
     97.5700	 1437.00	 1457.80	-1766.55	  392.81
     97.6700	 1444.00	 1446.65	-1748.40	  392.60
     97.7700	 1389.00	 1415.73	-1772.48	  392.39
     97.8700	 1283.00	 1368.19	-1830.94	  392.17
     97.9700	 1342.00	 1308.18	-1711.93	  391.96
     98.0700	 1212.00	 1240.14	-1773.89	  391.74
     98.1700	 1147.00	 1168.39	-1767.14	  391.52
     98.2700	 1130.00	 1096.95	-1712.70	  391.30
     98.3700	  974.00	 1029.27	-1801.02	  391.09
     98.4700	  983.00	  968.24	-1730.99	  390.87
     98.5700	  884.00	  916.16	-1777.91	  390.64
     98.6700	  801.00	  874.80	-1819.55	  390.42
     98.7700	  806.00	  845.49	-1785.24	  390.20
     98.8700	  826.00	  829.17	-1748.92	  389.98
     98.9700	  797.00	  826.44	-1775.19	  389.75
     99.0700	  799.00	  837.70	-1784.45	  389.53
     99.1700	  834.00	  863.12	-1774.87	  389.30
     99.2700	  912.00	  902.68	-1736.43	  389.08
     99.3700	  963.00	  956.16	-1738.91	  388.85
     99.4700	 1007.00	 1023.03	-1761.78	  388.62
     99.5700	 1040.00	 1102.40	-1808.15	  388.39
     99.6700	 1162.00	 1192.91	-1776.66	  388.16
     99.7700	 1263.00	 1292.62	-1775.37	  387.93
     99.8700	 1341.00	 1398.98	-1803.73	  387.70
     99.9700	 1527.00	 1508.67	-1727.42	  387.47
    100.0700	 1656.00	 1617.76	-1707.51	  387.24
    100.1700	 1745.00	 1721.85	-1722.60	  387.00
    100.2700	 1826.00	 1816.49	-1736.24	  386.77
    100.3700	 1903.00	 1897.62	-1740.37	  386.53
    100.4700	 1972.00	 1962.02	-1735.77	  386.30
    100.5700	 2070.00	 2007.42	-1683.17	  386.06
    100.6700	 2067.00	 2032.40	-1711.15	  385.83
    100.7700	 2105.00	 2036.17	-1676.92	  385.59
    100.8700	 2069.00	 2018.49	-1695.24	  385.35
    100.9700	 1991.00	 1979.99	-1734.74	  385.11
    101.0700	 1946.00	 1922.50	-1722.25	  384.87
    101.1700	 1903.00	 1849.24	-1691.99	  384.63
    101.2700	 1827.00	 1764.58	-1683.33	  384.39
    101.3700	 1692.00	 1673.49	-1727.24	  384.15
    101.4700	 1537.00	 1580.98	-1789.73	  383.91
    101.5700	 1511.00	 1491.53	-1726.28	  383.67
    101.6700	 1412.00	 1408.75	-1742.50	  383.43
    101.7700	 1381.00	 1335.28	-1700.03	  383.19
    101.8700	 1329.00	 1272.66	-1689.41	  382.94
    101.9700	 1231.00	 1221.40	-1736.15	  382.70
    102.0700	 1103.00	 1181.01	-1823.76	  382.46
    102.1700	 1109.00	 1150.14	-1786.89	  382.21
    102.2700	 1121.00	 1126.74	-1751.49	  381.97
    102.3700	 1180.00	 1108.25	-1674.00	  381.72
    102.4700	 1110.00	 1091.91	-1727.66	  381.48
    102.5700	 1058.00	 1075.10	-1762.85	  381.23
    102.6700	 1047.00	 1055.64	-1754.39	  380.99
    102.7700	 1030.00	 1032.11	-1747.86	  380.74
    102.8700	 1018.00	 1003.96	-1731.71	  380.49
    102.9700	  948.00	  971.43	-1769.18	  380.25
    103.0700	  914.00	  935.32	-1767.07	  380.00
    103.1700	  907.00	  896.77	-1735.52	  379.75
    103.2700	  904.00	  857.04	-1698.79	  379.51
    103.3700	  836.00	  817.38	-1727.13	  379.26
    103.4700	  814.00	  778.92	-1710.67	  379.01
    103.5700	  780.00	  742.61	-1708.36	  378.76
    103.6700	  709.00	  709.22	-1745.97	  378.51
    103.7700	  681.00	  679.25	-1744.00	  378.27
    103.8700	  577.00	  653.00	-1821.75	  378.02
    103.9700	  664.00	  630.56	-1712.31	  377.77
    104.0700	  560.00	  611.84	-1797.59	  377.52
    104.1700	  603.00	  596.62	-1739.37	  377.27
    104.2700	  598.00	  584.58	-1732.33	  377.02
    104.3700	  584.00	  575.35	-1737.10	  376.77
    104.4700	  549.00	  568.52	-1765.27	  376.52
    104.5700	  555.00	  563.73	-1754.48	  376.28
    104.6700	  556.00	  560.61	-1750.36	  376.03
    104.7700	  543.00	  558.84	-1761.59	  375.78
    104.8700	  554.00	  558.13	-1749.88	  375.53
    104.9700	  486.00	  558.25	-1818.00	  375.28
    105.0700	  537.00	  559.04	-1767.79	  375.03
    105.1700	  559.00	  560.33	-1747.08	  374.78
    105.2700	  549.00	  562.03	-1758.78	  374.54
    105.3700	  513.00	  564.07	-1796.82	  374.29
    105.4700	  587.00	  566.44	-1725.19	  374.04
    105.5700	  541.00	  569.18	-1773.93	  373.79
    105.6700	  547.00	  572.33	-1771.08	  373.54
    105.7700	  570.00	  576.00	-1751.75	  373.30
    105.8700	  573.00	  580.31	-1753.06	  373.05
    105.9700	  537.00	  585.36	-1794.11	  372.80
    106.0700	  544.00	  591.25	-1793.00	  372.56
    106.1700	  591.00	  598.02	-1752.77	  372.31
    106.2700	  572.00	  605.66	-1779.41	  372.07
    106.3700	  613.00	  614.10	-1746.85	  371.82
    106.4700	  575.00	  623.18	-1793.93	  371.58
    106.5700	  590.00	  632.71	-1788.46	  371.33
    106.6700	  638.00	  642.41	-1750.16	  371.09
    106.7700	  650.00	  651.94	-1747.69	  370.84
    106.8700	  626.00	  660.95	-1780.70	  370.60
    106.9700	  631.00	  669.04	-1783.79	  370.36
    107.0700	  684.00	  675.85	-1737.60	  370.12
    107.1700	  713.00	  681.10	-1713.85	  369.87
    107.2700	  676.00	  684.61	-1754.36	  369.63
    107.3700	  689.00	  686.38	-1743.13	  369.39
    107.4700	  715.00	  686.57	-1717.32	  369.15
    107.5700	  647.00	  685.49	-1784.24	  368.91
    107.6700	  694.00	  683.54	-1735.29	  368.68
    107.7700	  738.00	  681.15	-1688.90	  368.44
    107.8700	  636.00	  678.74	-1788.49	  368.20
    107.9700	  607.00	  676.64	-1815.39	  367.96
    108.0700	  659.00	  675.10	-1761.85	  367.73
    108.1700	  689.00	  674.28	-1731.03	  367.49
    108.2700	  716.00	  674.18	-1703.93	  367.26
    108.3700	  703.00	  674.74	-1717.49	  367.03
    108.4700	  666.00	  675.75	-1755.50	  366.79
    108.5700	  664.00	  676.93	-1758.68	  366.56
    108.6700	  677.00	  677.93	-1746.68	  366.33
    108.7700	  732.00	  678.35	-1692.10	  366.10
    108.8700	  694.00	  677.81	-1729.56	  365.87
    108.9700	  722.00	  675.98	-1699.73	  365.65
    109.0700	  643.00	  672.66	-1775.41	  365.42
    109.1700	  697.00	  667.76	-1716.51	  365.19
    109.2700	  657.00	  661.35	-1750.10	  364.97
    109.3700	  650.00	  653.62	-1749.37	  364.74
    109.4700	  641.00	  644.84	-1749.59	  364.52
    109.5700	  574.00	  635.31	-1807.06	  364.30
    109.6700	  642.00	  625.37	-1729.12	  364.08
    109.7700	  600.00	  615.34	-1761.09	  363.86
    109.8700	  625.00	  605.51	-1726.26	  363.64
    109.9700	  588.00	  596.12	-1753.87	  363.43
    110.0700	  600.00	  587.40	-1733.15	  363.21
    110.1700	  604.00	  579.48	-1721.23	  363.00
    110.2700	  552.00	  572.49	-1766.24	  362.78
    110.3700	  568.00	  566.49	-1744.24	  362.57
    110.4700	  582.00	  561.48	-1725.23	  362.36
    110.5700	  524.00	  557.45	-1779.20	  362.15
    110.6700	  545.00	  554.35	-1755.10	  361.95
    110.7700	  602.00	  552.10	-1695.85	  361.74
    110.8700	  570.00	  550.62	-1726.37	  361.54
    110.9700	  550.00	  549.82	-1745.57	  361.33
    111.0700	  545.00	  549.62	-1750.37	  361.13
    111.1700	  519.00	  549.92	-1776.67	  360.93
    111.2700	  539.00	  550.66	-1757.41	  360.73
    111.3700	  535.00	  551.76	-1762.51	  360.54
    111.4700	  537.00	  553.16	-1761.91	  360.34
    111.5700	  536.00	  554.82	-1764.57	  360.15
    111.6700	  524.00	  556.71	-1778.46	  359.96
    111.7700	  562.00	  558.79	-1742.54	  359.77
    111.8700	  559.00	  561.05	-1747.80	  359.58
    111.9700	  575.00	  563.49	-1734.24	  359.39
    112.0700	  561.00	  566.12	-1750.87	  359.21
    112.1700	  581.00	  568.93	-1733.68	  359.03
    112.2700	  592.00	  571.97	-1725.72	  358.85
    112.3700	  578.00	  575.26	-1743.01	  358.67
    112.4700	  598.00	  578.84	-1726.59	  358.49
    112.5700	  603.00	  582.78	-1725.53	  358.32
    112.6700	  587.00	  587.13	-1745.88	  358.14
    112.7700	  625.00	  591.99	-1712.74	  357.97
    112.8700	  619.00	  597.48	-1724.23	  357.80
    112.9700	  670.00	  603.74	-1679.49	  357.64
    113.0700	  664.00	  610.96	-1692.71	  357.47
    113.1700	  698.00	  619.38	-1667.13	  357.31
    113.2700	  722.00	  629.32	-1653.07	  357.15
    113.3700	  729.00	  641.19	-1657.94	  356.99
    113.4700	  737.00	  655.49	-1664.24	  356.84
    113.5700	  791.00	  672.85	-1627.60	  356.68
    113.6700	  838.00	  694.05	-1601.80	  356.53
    113.7700	  833.00	  720.06	-1632.81	  356.38
    113.8700	  955.00	  752.00	-1542.75	  356.24
    113.9700	  972.00	  791.23	-1564.98	  356.09
    114.0700	  995.00	  839.31	-1590.06	  355.95
    114.1700	 1084.00	  898.01	-1559.76	  355.81
    114.2700	 1156.00	  969.32	-1559.07	  355.68
    114.3700	 1251.00	 1055.37	-1550.12	  355.54
    114.4700	 1283.00	 1158.43	-1621.18	  355.41
    114.5700	 1423.00	 1280.80	-1603.55	  355.28
    114.6700	 1534.00	 1424.74	-1636.49	  355.16
    114.7700	 1708.00	 1592.41	-1630.16	  355.04
    114.8700	 1919.00	 1785.61	-1612.36	  354.92
    114.9700	 2114.00	 2005.71	-1637.46	  354.80
    115.0700	 2335.00	 2253.49	-1664.24	  354.68
    115.1700	 2583.00	 2529.03	-1691.78	  354.57
    115.2700	 2939.00	 2831.54	-1638.29	  354.46
    115.3700	 3105.00	 3159.12	-1799.87	  354.36
    115.4700	 3438.00	 3508.82	-1816.57	  354.25
    115.5700	 3672.00	 3876.43	-1950.18	  354.15
    115.6700	 3975.00	 4256.63	-2027.38	  354.05
    115.7700	 4472.00	 4642.91	-1916.66	  353.96
    115.8700	 4690.00	 5027.45	-2083.20	  353.87
    115.9700	 5195.00	 5401.44	-1952.19	  353.78
    116.0700	 5465.00	 5755.07	-2035.82	  353.70
    116.1700	 5938.00	 6077.97	-1885.72	  353.61
    116.2700	 6302.00	 6359.49	-1803.24	  353.54
    116.3700	 6369.00	 6589.18	-1965.93	  353.46
    116.4700	 6745.00	 6757.76	-1758.51	  353.39
    116.5700	 6759.00	 6857.86	-1844.61	  353.32
    116.6700	 6779.00	 6885.06	-1851.81	  353.25
    116.7700	 6983.00	 6838.24	-1600.99	  353.19
    116.8700	 6792.00	 6719.89	-1673.64	  353.13
    116.9700	 6754.00	 6535.71	-1527.46	  353.08
    117.0700	 6329.00	 6293.93	-1710.68	  353.03
    117.1700	 5984.00	 6004.31	-1766.06	  352.98
    117.2700	 5731.00	 5677.32	-1692.07	  352.94
    117.3700	 5299.00	 5323.56	-1770.31	  352.90
    117.4700	 4998.00	 4953.11	-1700.86	  352.86
    117.5700	 4636.00	 4575.30	-1685.05	  352.83
    117.6700	 4340.00	 4198.34	-1604.09	  352.80
    117.7700	 3933.00	 3829.29	-1642.04	  352.77
    117.8700	 3644.00	 3474.16	-1575.91	  352.75
    117.9700	 3283.00	 3137.64	-1600.39	  352.73
    118.0700	 2981.00	 2823.30	-1588.05	  352.72
    118.1700	 2592.00	 2533.50	-1687.25	  352.71
    118.2700	 2328.00	 2269.57	-1687.32	  352.70
    118.3700	 1980.00	 2032.02	-1797.77	  352.70
    118.4700	 1716.00	 1820.56	-1850.31	  352.70
    118.5700	 1571.00	 1634.29	-1809.04	  352.71
    118.6700	 1363.00	 1471.74	-1854.49	  352.72
    118.7700	 1249.00	 1331.14	-1827.89	  352.74
    118.8700	 1138.00	 1210.54	-1818.29	  352.75
    118.9700	  977.00	 1107.82	-1876.57	  352.78
    119.0700	  898.00	 1020.91	-1868.66	  352.81
    119.1700	  922.00	  947.73	-1771.48	  352.84
    119.2700	  809.00	  886.38	-1823.13	  352.87
    119.3700	  758.00	  835.11	-1822.86	  352.92
    119.4700	  698.00	  792.34	-1840.09	  352.96
    119.5700	  713.00	  756.72	-1789.47	  353.01
    119.6700	  736.00	  727.04	-1736.79	  353.07
    119.7700	  646.00	  702.30	-1802.05	  353.13
    119.8700	  670.00	  681.65	-1757.40	  353.19
    119.9700	  588.00	  664.39	-1822.14	  353.26
    120.0700	  623.00	  649.95	-1772.70	  353.33
    120.1700	  568.00	  637.86	-1815.61	  353.41
    120.2700	  598.00	  627.75	-1775.50	  353.49
    120.3700	  547.00	  619.32	-1818.07	  353.58
    120.4700	  566.00	  612.33	-1792.08	  353.67
    120.5700	  588.00	  606.59	-1764.34	  353.77
    120.6700	  567.00	  601.95	-1780.70	  353.88
    120.7700	  559.00	  598.29	-1785.04	  353.98
    120.8700	  555.00	  595.53	-1786.28	  354.10
    120.9700	  598.00	  593.59	-1741.34	  354.22
    121.0700	  539.00	  592.42	-1799.17	  354.34
    121.1700	  552.00	  591.94	-1785.69	  354.47
    121.2700	  613.00	  592.12	-1724.87	  354.60
    121.3700	  582.00	  592.92	-1756.67	  354.74
    121.4700	  587.00	  594.27	-1753.02	  354.89
    121.5700	  623.00	  596.12	-1718.87	  355.04
    121.6700	  594.00	  598.42	-1750.17	  355.19
    121.7700	  623.00	  601.09	-1723.84	  355.36
    121.8700	  572.00	  604.05	-1777.80	  355.52
    121.9700	  634.00	  607.21	-1718.96	  355.70
    122.0700	  566.00	  610.51	-1790.26	  355.87
    122.1700	  623.00	  613.83	-1736.58	  356.06
    122.2700	  635.00	  617.05	-1727.80	  356.25
    122.3700	  652.00	  620.08	-1713.83	  356.44
    122.4700	  617.00	  622.81	-1751.56	  356.65
    122.5700	  634.00	  625.12	-1736.87	  356.85
    122.6700	  648.00	  626.92	-1724.67	  357.07
    122.7700	  660.00	  628.14	-1713.89	  357.29
    122.8700	  629.00	  628.73	-1745.48	  357.51
    122.9700	  646.00	  628.66	-1728.41	  357.74
    123.0700	  655.00	  627.92	-1718.67	  357.98
    123.1700	  667.00	  626.55	-1705.30	  358.23
    123.2700	  661.00	  624.60	-1709.35	  358.48
    123.3700	  658.00	  622.13	-1709.88	  358.73
    123.4700	  613.00	  619.22	-1751.97	  359.00
    123.5700	  632.00	  615.94	-1729.69	  359.27
    123.6700	  679.00	  612.39	-1679.14	  359.54
    123.7700	  607.00	  608.65	-1747.40	  359.83
    123.8700	  655.00	  604.78	-1695.53	  360.12
    123.9700	  586.00	  600.87	-1760.62	  360.41
    124.0700	  622.00	  596.97	-1720.72	  360.71
    124.1700	  592.00	  593.15	-1746.90	  361.02
    124.2700	  617.00	  589.45	-1718.20	  361.34
    124.3700	  562.00	  585.90	-1769.65	  361.66
    124.4700	  592.00	  582.54	-1736.29	  361.99
    124.5700	  570.00	  579.39	-1755.14	  362.33
    124.6700	  547.00	  576.48	-1775.23	  362.67
    124.7700	  541.00	  573.80	-1778.55	  363.02
    124.8700	  587.00	  571.38	-1730.13	  363.38
    124.9700	  561.00	  481.31	-1666.06	  363.75
    125.0700	  607.00	  481.69	-1745.75	  364.12
    125.1700	  559.00	  482.07	-1745.75	  364.50
    125.2700	  567.00	  482.45	-1745.75	  364.89
    125.3700	  594.00	  482.85	-1745.75	  365.28
    125.4700	  608.00	  483.25	-1745.75	  365.68
    125.5700	  566.00	  483.66	-1745.75	  366.09
    125.6700	  529.00	  484.08	-1745.75	  366.51
    125.7700	  572.00	  484.50	-1745.75	  366.93
    125.8700	  602.00	  484.93	-1745.75	  367.36
    125.9700	  579.00	  485.37	-1745.75	  367.80
    126.0700	  557.00	  485.82	-1745.75	  368.25
    126.1700	  542.00	  486.27	-1745.75	  368.71
    126.2700	  561.00	  486.74	-1745.75	  369.17
    126.3700	  604.00	  487.21	-1745.75	  369.64
    126.4700	  575.00	  487.69	-1745.75	  370.12
    126.5700	  574.00	  488.17	-1745.75	  370.61
    126.6700	  580.00	  488.67	-1745.75	  371.10
    126.7700	  629.00	  489.17	-1745.75	  371.61
    126.8700	  652.00	  489.69	-1745.75	  372.12
    126.9700	  640.00	  490.21	-1745.75	  372.64
    127.0700	  626.00	  490.73	-1745.75	  373.17
    127.1700	  655.00	  491.27	-1745.75	  373.70
    127.2700	  643.00	  491.81	-1745.75	  374.25
    127.3700	  663.00	  492.37	-1745.75	  374.80
    127.4700	  657.00	  492.93	-1745.75	  375.36
    127.5700	  690.00	  493.50	-1745.75	  375.93
    127.6700	  721.00	  494.08	-1745.75	  376.51
    127.7700	  692.00	  494.67	-1745.75	  377.10
    127.8700	  685.00	  495.27	-1745.75	  377.70
    127.9700	  723.00	  495.87	-1745.75	  378.30
    128.0700	  761.00	  496.49	-1745.75	  378.92
    128.1700	  805.00	  497.11	-1745.75	  379.54
    128.2700	  817.00	  497.74	-1745.75	  380.18
    128.3700	  801.00	  498.39	-1745.75	  380.82
    128.4700	  790.00	  499.04	-1745.75	  381.47
    128.5700	    0.00	  499.70	-1745.75	  382.13
    128.6700	    0.00	  500.37	-1745.75	  382.80
     12.3039	        	        	        	        	       0	(  0  0  2)	  0  1
     24.8851	        	        	        	        	       0	(  0  0  4)	  0  1
     28.3305	        	        	        	        	       0	(  1  0  0)	  0  1
     29.0275	        	        	        	        	       0	(  1  0  1)	  0  1
     31.0332	        	        	        	        	       0	(  1  0  2)	  0  1
     34.1407	        	        	        	        	       0	(  1  0  3)	  0  1
     37.7822	        	        	        	        	       0	(  0  0  6)	  0  1
     38.1168	        	        	        	        	       0	(  1  0  4)	  0  1
     42.7658	        	        	        	        	       0	(  1  0  5)	  0  1
     47.9486	        	        	        	        	       0	(  1  0  6)	  0  1
     50.2673	        	        	        	        	       0	(  1  1  0)	  0  1
     51.2013	        	        	        	        	       0	(  0  0  8)	  0  1
     51.9898	        	        	        	        	       0	(  1  1  2)	  0  1
     53.5777	        	        	        	        	       0	(  1  0  7)	  0  1
     56.9362	        	        	        	        	       0	(  1  1  4)	  0  1
     58.7642	        	        	        	        	       0	(  2  0  0)	  0  1
     59.1557	        	        	        	        	       0	(  2  0  1)	  0  1
     59.6066	        	        	        	        	       0	(  1  0  8)	  0  1
     60.3207	        	        	        	        	       0	(  2  0  2)	  0  1
     62.2334	        	        	        	        	       0	(  2  0  3)	  0  1
     64.6288	        	        	        	        	       0	(  1  1  6)	  0  1
     64.8567	        	        	        	        	       0	(  2  0  4)	  0  1
     65.4270	        	        	        	        	       0	(  0  0 10)	  0  1
     66.0212	        	        	        	        	       0	(  1  0  9)	  0  1
     68.1499	        	        	        	        	       0	(  2  0  5)	  0  1
     72.0763	        	        	        	        	       0	(  2  0  6)	  0  1
     72.8355	        	        	        	        	       0	(  1  0 10)	  0  1
     74.6636	        	        	        	        	       0	(  1  1  8)	  0  1
     76.6090	        	        	        	        	       0	(  2  0  7)	  0  1
     80.0910	        	        	        	        	       0	(  1  0 11)	  0  1
     80.9031	        	        	        	        	       0	(  0  0 12)	  0  1
     81.0052	        	        	        	        	       0	(  2  1  0)	  0  1
     81.3450	        	        	        	        	       0	(  2  1  1)	  0  1
     81.7377	        	        	        	        	       0	(  2  0  8)	  0  1
     82.3625	        	        	        	        	       0	(  2  1  2)	  0  1
     84.0533	        	        	        	        	       0	(  2  1  3)	  0  1
     86.4122	        	        	        	        	       0	(  2  1  4)	  0  1
     86.9311	        	        	        	        	       0	(  1  1 10)	  0  1
     87.4739	        	        	        	        	       0	(  2  0  9)	  0  1
     87.8627	        	        	        	        	       0	(  1  0 12)	  0  1
     89.4370	        	        	        	        	       0	(  2  1  5)	  0  1
     93.1332	        	        	        	        	       0	(  2  1  6)	  0  1
     93.8590	        	        	        	        	       0	(  2  0 10)	  0  1
     94.8940	        	        	        	        	       0	(  3  0  0)	  0  1
     95.2312	        	        	        	        	       0	(  3  0  1)	  0  1
     96.2441	        	        	        	        	       0	(  3  0  2)	  0  1
     96.2728	        	        	        	        	       0	(  1  0 13)	  0  1
     97.5203	        	        	        	        	       0	(  2  1  7)	  0  1
     97.9368	        	        	        	        	       0	(  3  0  3)	  0  1
     98.4361	        	        	        	        	       0	(  0  0 14)	  0  1
    100.3190	        	        	        	        	       0	(  3  0  4)	  0  1
    100.9782	        	        	        	        	       0	(  2  0 11)	  0  1
    101.7959	        	        	        	        	       0	(  1  1 12)	  0  1
    102.6408	        	        	        	        	       0	(  2  1  8)	  0  1
    103.4095	        	        	        	        	       0	(  3  0  5)	  0  1
    105.5215	        	        	        	        	       0	(  1  0 14)	  0  1
    107.2433	        	        	        	        	       0	(  3  0  6)	  0  1
    108.5754	        	        	        	        	       0	(  2  1  9)	  0  1
    108.9861	        	        	        	        	       0	(  2  0 12)	  0  1
    111.8819	        	        	        	        	       0	(  3  0  7)	  0  1
    115.4693	        	        	        	        	       0	(  2  1 10)	  0  1
    115.9596	        	        	        	        	       0	(  1  0 15)	  0  1
    116.6189	        	        	        	        	       0	(  2  2  0)	  0  1
    117.4330	        	        	        	        	       0	(  3  0  8)	  0  1
    118.1335	        	        	        	        	       0	(  2  2  2)	  0  1
    118.1660	        	        	        	        	       0	(  2  0 13)	  0  1
    119.9133	        	        	        	        	       0	(  0  0 16)	  0  1
    120.6310	        	        	        	        	       0	(  1  1 14)	  0  1
    122.8173	        	        	        	        	       0	(  2  2  4)	  0  1
    123.5925	        	        	        	        	       0	(  2  1 11)	  0  1
    124.0900	        	        	        	        	       0	(  3  0  9)	  0  1
    124.6841	        	        	        	        	       0	(  3  1  0)	  0  1
    125.0942	        	        	        	        	       0	(  3  1  1)	  0  1
    126.3372	        	        	        	        	       0	(  3  1  2)	  0  1
    128.2949	        	        	        	        	       0	(  1  0 16)	  0  1
    128.4547	        	        	        	        	       0	(  3  1  3)	  0  1
    129.0894	        	        	        	        	       0	(  2  0 14)	  0  1
    131.2539	        	        	        	        	       0	(  2  2  6)	  0  1
    131.5295	        	        	        	        	       0	(  3  1  4)	  0  1
    132.2267	        	        	        	        	       0	(  3  0 10)	  0  1
    133.4992	        	        	        	        	       0	(  2  1 12)	  0  1
    135.7149	        	        	        	        	       0	(  3  1  5)	  0  1
    141.3080	        	        	        	        	       0	(  3  1  6)	  0  1
    142.6991	        	        	        	        	       0	(  3  0 11)	  0  1
    143.2182	        	        	        	        	       0	(  2  0 15)	  0  1
    144.4495	        	        	        	        	       0	(  1  0 17)	  0  1
    145.4813	        	        	        	        	       0	(  2  2  8)	  0  1
    146.6452	        	        	        	        	       0	(  2  1 13)	  0  1
    148.9777	        	        	        	        	       0	(  3  1  7)	  0  1
    149.5425	        	        	        	        	       0	(  1  1 16)	  0  1
    153.9286	        	        	        	        	       0	(  0  0 18)	  0  1
    158.5636	        	        	        	        	       0	(  3  0 12)	  0  1
    158.8431	        	        	        	        	       0	(  4  0  0)	  0  1
    159.7999	        	        	        	        	       0	(  4  0  1)	  0  1
    160.9645	        	        	        	        	       0	(  3  1  8)	  0  1
    162.9785	        	        	        	        	       0	(  4  0  2)	  0  1
    169.6003	        	        	        	        	       0	(  2  0 16)	  0  1
    170.3269	        	        	        	        	       0	(  4  0  3)	  0  1
    174.0134	        	        	        	        	       0	(  2  1 14)	  0  1
