MSG Master    CELL:    5.91904   5.91904  23.26667   90.0000   90.0000  120.0000   SPGR: P 63/m m c             TEMP:   1074.95
  1   1280     2.52000     0.00000    -0.13172     0.00000     0.00000    0
    99     0     2
       0.00000      10.00000
     125.00000     130.00000
 2Theta	Yobs	Ycal	Yobs-Ycal	Backg	Posr	(hkl)	K
      0.7700	    0.00	  563.52	-1760.75	  445.94
      0.8700	    0.00	  564.08	-1760.75	  446.49
      0.9700	   44.00	  564.63	-1760.75	  447.04
      1.0700	   37.00	  565.17	-1760.75	  447.58
      1.1700	   50.00	  565.70	-1760.75	  448.11
      1.2700	   37.00	  566.22	-1760.75	  448.63
      1.3700	   49.00	  566.73	-1760.75	  449.15
      1.4700	   92.00	  567.23	-1760.75	  449.65
      1.5700	  279.00	  567.72	-1760.75	  450.14
      1.6700	  440.00	  568.21	-1760.75	  450.62
      1.7700	  571.00	  568.68	-1760.75	  451.09
      1.8700	  663.00	  569.14	-1760.75	  451.56
      1.9700	  714.00	  569.60	-1760.75	  452.01
      2.0700	  759.00	  570.04	-1760.75	  452.46
      2.1700	  778.00	  570.48	-1760.75	  452.89
      2.2700	  812.00	  570.91	-1760.75	  453.32
      2.3700	  681.00	  571.33	-1760.75	  453.74
      2.4700	  690.00	  571.74	-1760.75	  454.15
      2.5700	  701.00	  572.14	-1760.75	  454.55
      2.6700	  689.00	  572.53	-1760.75	  454.94
      2.7700	  635.00	  572.91	-1760.75	  455.33
      2.8700	  571.00	  573.29	-1760.75	  455.70
      2.9700	  642.00	  573.65	-1760.75	  456.07
      3.0700	  628.00	  574.01	-1760.75	  456.43
      3.1700	  603.00	  574.36	-1760.75	  456.78
      3.2700	  609.00	  574.70	-1760.75	  457.12
      3.3700	  671.00	  575.04	-1760.75	  457.45
      3.4700	  726.00	  575.36	-1760.75	  457.77
      3.5700	  780.00	  575.68	-1760.75	  458.09
      3.6700	  852.00	  575.99	-1760.75	  458.40
      3.7700	  935.00	  576.29	-1760.75	  458.70
      3.8700	  916.00	  576.58	-1760.75	  458.99
      3.9700	  971.00	  576.86	-1760.75	  459.28
      4.0700	 1038.00	  577.14	-1760.75	  459.55
      4.1700	 1088.00	  577.41	-1760.75	  459.82
      4.2700	 1115.00	  577.67	-1760.75	  460.09
      4.3700	 1065.00	  577.92	-1760.75	  460.34
      4.4700	 1044.00	  578.17	-1760.75	  460.58
      4.5700	  974.00	  578.41	-1760.75	  460.82
      4.6700	 1061.00	  578.64	-1760.75	  461.05
      4.7700	 1010.00	  578.86	-1760.75	  461.28
      4.8700	  983.00	  579.08	-1760.75	  461.49
      4.9700	  977.00	  579.29	-1760.75	  461.70
      5.0700	  987.00	  579.49	-1760.75	  461.91
      5.1700	  930.00	  579.69	-1760.75	  462.10
      5.2700	  903.00	  579.87	-1760.75	  462.29
      5.3700	  917.00	  580.05	-1760.75	  462.47
      5.4700	  858.00	  580.23	-1760.75	  462.64
      5.5700	  865.00	  580.39	-1760.75	  462.81
      5.6700	  864.00	  580.55	-1760.75	  462.97
      5.7700	  832.00	  580.71	-1760.75	  463.12
      5.8700	  840.00	  580.85	-1760.75	  463.27
      5.9700	  802.00	  580.99	-1760.75	  463.41
      6.0700	  769.00	  581.13	-1760.75	  463.54
      6.1700	  801.00	  581.25	-1760.75	  463.67
      6.2700	  776.00	  581.37	-1760.75	  463.78
      6.3700	  811.00	  581.48	-1760.75	  463.90
      6.4700	  752.00	  581.59	-1760.75	  464.00
      6.5700	  772.00	  581.69	-1760.75	  464.11
      6.6700	  746.00	  581.78	-1760.75	  464.20
      6.7700	  712.00	  581.87	-1760.75	  464.29
      6.8700	  694.00	  581.95	-1760.75	  464.37
      6.9700	  762.00	  582.03	-1760.75	  464.44
      7.0700	  675.00	  582.10	-1760.75	  464.51
      7.1700	  742.00	  582.16	-1760.75	  464.58
      7.2700	  700.00	  582.22	-1760.75	  464.63
      7.3700	  653.00	  582.27	-1760.75	  464.68
      7.4700	  712.00	  582.32	-1760.75	  464.73
      7.5700	  666.00	  582.36	-1760.75	  464.77
      7.6700	  653.00	  582.39	-1760.75	  464.80
      7.7700	  624.00	  582.42	-1760.75	  464.83
      7.8700	  658.00	  582.44	-1760.75	  464.85
      7.9700	  627.00	  582.46	-1760.75	  464.87
      8.0700	  604.00	  582.47	-1760.75	  464.88
      8.1700	  630.00	  582.47	-1760.75	  464.89
      8.2700	  649.00	  582.47	-1760.75	  464.89
      8.3700	  628.00	  582.47	-1760.75	  464.88
      8.4700	  687.00	  582.46	-1760.75	  464.87
      8.5700	  592.00	  582.44	-1760.75	  464.86
      8.6700	  631.00	  582.42	-1760.75	  464.84
      8.7700	  602.00	  582.40	-1760.75	  464.81
      8.8700	  652.00	  582.36	-1760.75	  464.78
      8.9700	  601.00	  582.33	-1760.75	  464.74
      9.0700	  576.00	  582.29	-1760.75	  464.70
      9.1700	  623.00	  582.24	-1760.75	  464.65
      9.2700	  564.00	  582.19	-1760.75	  464.60
      9.3700	  597.00	  582.13	-1760.75	  464.55
      9.4700	  579.00	  582.07	-1760.75	  464.49
      9.5700	  608.00	  582.00	-1760.75	  464.42
      9.6700	  609.00	  581.93	-1760.75	  464.35
      9.7700	  571.00	  581.86	-1760.75	  464.27
      9.8700	  582.00	  581.78	-1760.75	  464.19
      9.9700	  615.00	  581.69	-1760.75	  464.11
     10.0700	  598.00	  582.28	-1745.03	  464.02
     10.1700	  649.00	  582.25	-1694.00	  463.92
     10.2700	  607.00	  582.24	-1735.99	  463.83
     10.3700	  580.00	  582.25	-1763.00	  463.72
     10.4700	  587.00	  582.30	-1756.05	  463.62
     10.5700	  589.00	  582.45	-1754.20	  463.51
     10.6700	  595.00	  582.79	-1748.54	  463.39
     10.7700	  600.00	  583.42	-1744.17	  463.27
     10.8700	  597.00	  584.40	-1748.15	  463.15
     10.9700	  576.00	  585.73	-1770.48	  463.02
     11.0700	  585.00	  587.38	-1763.13	  462.88
     11.1700	  583.00	  589.32	-1767.07	  462.75
     11.2700	  603.00	  591.59	-1749.34	  462.61
     11.3700	  573.00	  594.28	-1782.03	  462.46
     11.4700	  573.00	  597.49	-1785.24	  462.32
     11.5700	  601.00	  601.41	-1761.16	  462.16
     11.6700	  596.00	  606.37	-1771.11	  462.01
     11.7700	  656.00	  612.91	-1717.66	  461.85
     11.8700	  618.00	  621.98	-1764.73	  461.68
     11.9700	  656.00	  634.34	-1739.09	  461.52
     12.0700	  689.00	  648.65	-1720.40	  461.35
     12.1700	  695.00	  658.86	-1724.61	  461.17
     12.2700	  697.00	  655.33	-1719.08	  460.99
     12.3700	  619.00	  635.43	-1777.18	  460.81
     12.4700	  630.00	  611.72	-1742.47	  460.63
     12.5700	  617.00	  594.94	-1738.69	  460.44
     12.6700	  585.00	  586.25	-1762.00	  460.25
     12.7700	  585.00	  582.49	-1758.24	  460.05
     12.8700	  554.00	  580.79	-1787.54	  459.85
     12.9700	  563.00	  579.82	-1777.57	  459.65
     13.0700	  559.00	  579.12	-1780.87	  459.45
     13.1700	  604.00	  578.56	-1735.31	  459.24
     13.2700	  531.00	  578.08	-1807.83	  459.03
     13.3700	  543.00	  577.67	-1795.42	  458.81
     13.4700	  570.00	  577.29	-1768.04	  458.60
     13.5700	  553.00	  576.94	-1784.69	  458.37
     13.6700	  562.00	  576.62	-1775.37	  458.15
     13.7700	  528.00	  576.30	-1809.05	  457.92
     13.8700	  568.00	  576.00	-1768.75	  457.70
     13.9700	  585.00	  575.71	-1751.46	  457.46
     14.0700	  562.00	  575.43	-1774.18	  457.23
     14.1700	  594.00	  575.15	-1741.90	  456.99
     14.2700	  590.00	  574.87	-1745.62	  456.75
     14.3700	  559.00	  574.59	-1776.34	  456.51
     14.4700	  597.00	  574.32	-1738.07	  456.26
     14.5700	  546.00	  574.05	-1788.80	  456.01
     14.6700	  588.00	  573.77	-1746.52	  455.76
     14.7700	  573.00	  573.50	-1761.25	  455.51
     14.8700	  556.00	  573.23	-1777.98	  455.25
     14.9700	  539.00	  572.95	-1794.70	  454.99
     15.0700	  561.00	  572.68	-1772.43	  454.73
     15.1700	  586.00	  572.40	-1747.15	  454.47
     15.2700	  613.00	  572.12	-1719.87	  454.20
     15.3700	  563.00	  571.85	-1769.60	  453.94
     15.4700	  564.00	  571.57	-1768.32	  453.67
     15.5700	  558.00	  571.28	-1774.03	  453.39
     15.6700	  542.00	  571.00	-1789.75	  453.12
     15.7700	  590.00	  570.72	-1741.47	  452.84
     15.8700	  568.00	  570.43	-1763.18	  452.56
     15.9700	  588.00	  570.14	-1742.89	  452.28
     16.0700	  590.00	  569.86	-1740.61	  452.00
     16.1700	  582.00	  569.56	-1748.31	  451.71
     16.2700	  611.00	  569.27	-1719.02	  451.42
     16.3700	  514.00	  569.00	-1815.75	  451.14
     16.4700	  577.00	  568.71	-1752.46	  450.84
     16.5700	  553.00	  568.41	-1776.16	  450.55
     16.6700	  577.00	  568.12	-1751.87	  450.26
     16.7700	  579.00	  567.82	-1749.57	  449.96
     16.8700	  541.00	  567.52	-1787.27	  449.66
     16.9700	  494.00	  567.21	-1833.96	  449.36
     17.0700	  523.00	  566.91	-1804.66	  449.06
     17.1700	  588.00	  566.60	-1739.35	  448.75
     17.2700	  581.00	  566.30	-1746.05	  448.45
     17.3700	  585.00	  565.99	-1741.74	  448.14
     17.4700	  541.00	  565.68	-1785.43	  447.83
     17.5700	  554.00	  565.37	-1772.12	  447.52
     17.6700	  548.00	  565.05	-1777.80	  447.21
     17.7700	  556.00	  564.74	-1769.49	  446.90
     17.8700	  606.00	  564.53	-1719.28	  446.58
     17.9700	  557.00	  564.21	-1767.96	  446.27
     18.0700	  559.00	  563.89	-1765.64	  445.95
     18.1700	  540.00	  563.58	-1784.33	  445.63
     18.2700	  522.00	  563.26	-1802.01	  445.31
     18.3700	  560.00	  562.94	-1763.69	  444.99
     18.4700	  550.00	  562.62	-1773.37	  444.67
     18.5700	  557.00	  562.30	-1766.05	  444.34
     18.6700	  599.00	  561.98	-1723.73	  444.02
     18.7700	  545.00	  561.65	-1777.40	  443.69
     18.8700	  571.00	  561.42	-1751.17	  443.36
     18.9700	  552.00	  561.10	-1769.85	  443.04
     19.0700	  562.00	  560.78	-1759.53	  442.71
     19.1700	  560.00	  560.45	-1761.20	  442.38
     19.2700	  531.00	  560.13	-1789.88	  442.04
     19.3700	  546.00	  559.80	-1774.55	  441.71
     19.4700	  527.00	  559.47	-1793.22	  441.38
     19.5700	  618.00	  559.15	-1701.90	  441.04
     19.6700	  583.00	  558.82	-1736.57	  440.71
     19.7700	  526.00	  558.49	-1793.24	  440.37
     19.8700	  556.00	  558.16	-1762.91	  440.03
     19.9700	  543.00	  557.83	-1775.58	  439.69
     20.0700	  559.00	  557.50	-1759.25	  439.36
     20.1700	  523.00	  557.17	-1794.92	  439.02
     20.2700	  513.00	  556.84	-1804.59	  438.68
     20.3700	  515.00	  556.49	-1802.24	  438.33
     20.4700	  562.00	  556.16	-1754.91	  437.99
     20.5700	  512.00	  555.83	-1804.58	  437.65
     20.6700	  524.00	  555.50	-1792.25	  437.31
     20.7700	  521.00	  555.17	-1794.92	  436.96
     20.8700	  561.00	  554.84	-1754.59	  436.62
     20.9700	  578.00	  554.55	-1737.30	  436.27
     21.0700	  566.00	  554.22	-1748.97	  435.93
     21.1700	  528.00	  553.89	-1786.64	  435.58
     21.2700	  530.00	  553.56	-1784.31	  435.24
     21.3700	  579.00	  553.24	-1734.99	  434.89
     21.4700	  582.00	  552.91	-1731.66	  434.54
     21.5700	  537.00	  552.59	-1776.34	  434.20
     21.6700	  511.00	  552.27	-1802.02	  433.85
     21.7700	  568.00	  551.94	-1744.69	  433.50
     21.8700	  612.00	  551.63	-1700.38	  433.15
     21.9700	  539.00	  551.31	-1773.06	  432.80
     22.0700	  546.00	  550.99	-1765.74	  432.45
     22.1700	  539.00	  550.68	-1772.43	  432.10
     22.2700	  586.00	  550.37	-1725.12	  431.75
     22.3700	  525.00	  550.06	-1785.81	  431.40
     22.4700	  564.00	  549.76	-1746.51	  431.05
     22.5700	  572.00	  549.46	-1738.21	  430.70
     22.6700	  589.00	  549.17	-1720.92	  430.35
     22.7700	  549.00	  548.89	-1760.64	  430.00
     22.8700	  551.00	  548.61	-1758.36	  429.65
     22.9700	  536.00	  548.35	-1773.10	  429.30
     23.0700	  591.00	  548.09	-1717.84	  428.95
     23.1700	  545.00	  547.85	-1763.60	  428.60
     23.2700	  558.00	  547.63	-1750.38	  428.25
     23.3700	  556.00	  547.44	-1752.19	  427.90
     23.4700	  569.00	  547.28	-1739.03	  427.55
     23.5700	  549.00	  547.16	-1758.91	  427.20
     23.6700	  566.00	  547.11	-1741.86	  426.85
     23.7700	  584.00	  547.16	-1723.91	  426.50
     23.8700	  504.00	  547.55	-1804.30	  426.15
     23.9700	  559.00	  548.24	-1749.99	  425.80
     24.0700	  534.00	  549.83	-1776.58	  425.45
     24.1700	  554.00	  553.03	-1759.78	  425.10
     24.2700	  581.00	  558.75	-1738.50	  424.75
     24.3700	  570.00	  568.04	-1758.79	  424.40
     24.4700	  566.00	  582.14	-1776.89	  424.05
     24.5700	  596.00	  601.58	-1766.33	  423.71
     24.6700	  636.00	  623.53	-1748.28	  423.36
     24.7700	  610.00	  639.12	-1789.87	  423.01
     24.8700	  625.00	  636.07	-1771.82	  422.66
     24.9700	  616.00	  612.61	-1757.36	  422.32
     25.0700	  551.00	  584.19	-1793.94	  421.97
     25.1700	  573.00	  563.33	-1751.08	  421.62
     25.2700	  564.00	  551.98	-1748.73	  421.28
     25.3700	  576.00	  546.91	-1731.66	  420.93
     25.4700	  575.00	  544.69	-1730.44	  420.59
     25.5700	  556.00	  543.52	-1748.27	  420.25
     25.6700	  536.00	  542.76	-1767.51	  419.90
     25.7700	  537.00	  542.19	-1765.94	  419.56
     25.8700	  555.00	  541.76	-1747.51	  419.22
     25.9700	  574.00	  541.43	-1728.18	  418.87
     26.0700	  557.00	  541.19	-1744.94	  418.53
     26.1700	  576.00	  541.03	-1725.78	  418.19
     26.2700	  530.00	  540.94	-1771.69	  417.85
     26.3700	  520.00	  540.93	-1781.68	  417.51
     26.4700	  531.00	  541.00	-1770.75	  417.17
     26.5700	  585.00	  541.17	-1716.92	  416.84
     26.6700	  564.00	  541.46	-1738.21	  416.50
     26.7700	  504.00	  541.89	-1798.64	  416.16
     26.8700	  560.00	  542.49	-1743.24	  415.83
     26.9700	  537.00	  543.33	-1767.08	  415.49
     27.0700	  587.00	  544.47	-1718.22	  415.16
     27.1700	  536.00	  546.06	-1770.81	  414.82
     27.2700	  567.00	  548.35	-1742.10	  414.49
     27.3700	  632.00	  551.87	-1680.62	  414.16
     27.4700	  600.00	  557.60	-1718.35	  413.83
     27.5700	  594.00	  567.28	-1734.03	  413.50
     27.6700	  598.00	  583.64	-1746.39	  413.17
     27.7700	  654.00	  610.09	-1716.84	  412.84
     27.8700	  584.00	  649.45	-1826.20	  412.51
     27.9700	  666.00	  701.51	-1796.26	  412.18
     28.0700	  771.00	  760.00	-1749.75	  411.86
     28.1700	  941.00	  810.15	-1629.90	  411.53
     28.2700	  922.00	  830.45	-1669.20	  411.21
     28.3700	  871.00	  809.91	-1699.66	  410.89
     28.4700	  802.00	  771.00	-1729.75	  410.56
     28.5700	  676.00	  747.38	-1832.13	  410.24
     28.6700	  747.00	  753.45	-1767.20	  409.92
     28.7700	  751.00	  783.17	-1792.92	  409.60
     28.8700	  797.00	  815.02	-1778.77	  409.29
     28.9700	  885.00	  819.11	-1694.86	  408.97
     29.0700	  796.00	  777.70	-1742.45	  408.65
     29.1700	  665.00	  709.46	-1805.21	  408.34
     29.2700	  638.00	  645.30	-1768.05	  408.03
     29.3700	  556.00	  599.38	-1804.13	  407.71
     29.4700	  665.00	  571.77	-1667.52	  407.40
     29.5700	  627.00	  556.89	-1690.64	  407.09
     29.6700	  613.00	  549.02	-1696.77	  406.78
     29.7700	  610.00	  544.55	-1695.30	  406.48
     29.8700	  582.00	  541.75	-1720.50	  406.17
     29.9700	  597.00	  539.95	-1703.70	  405.86
     30.0700	  595.00	  539.00	-1704.75	  405.56
     30.1700	  539.00	  539.04	-1760.79	  405.26
     30.2700	  540.00	  540.63	-1761.38	  404.95
     30.3700	  537.00	  544.84	-1768.59	  404.65
     30.4700	  527.00	  553.30	-1787.05	  404.36
     30.5700	  536.00	  567.73	-1792.48	  404.06
     30.6700	  583.00	  588.55	-1766.30	  403.76
     30.7700	  602.00	  613.10	-1771.85	  403.47
     30.8700	  642.00	  634.22	-1752.97	  403.17
     30.9700	  628.00	  641.15	-1773.90	  402.88
     31.0700	  571.00	  626.89	-1816.64	  402.59
     31.1700	  575.00	  599.06	-1784.81	  402.30
     31.2700	  518.00	  571.59	-1814.34	  402.01
     31.3700	  566.00	  551.49	-1746.24	  401.72
     31.4700	  558.00	  539.39	-1742.14	  401.43
     31.5700	  562.00	  532.97	-1731.72	  401.15
     31.6700	  537.00	  529.68	-1753.43	  400.87
     31.7700	  548.00	  527.84	-1740.59	  400.58
     31.8700	  518.00	  526.66	-1769.41	  400.30
     31.9700	  536.00	  525.83	-1750.58	  400.02
     32.0700	  533.00	  525.23	-1752.98	  399.75
     32.1700	  550.00	  524.81	-1735.56	  399.47
     32.2700	  516.00	  524.54	-1769.29	  399.20
     32.3700	  550.00	  524.42	-1735.17	  398.92
     32.4700	  564.00	  524.44	-1721.19	  398.65
     32.5700	  559.00	  524.63	-1726.38	  398.38
     32.6700	  538.00	  525.01	-1747.76	  398.11
     32.7700	  531.00	  525.61	-1755.36	  397.84
     32.8700	  504.00	  526.51	-1783.26	  397.58
     32.9700	  571.00	  527.80	-1717.55	  397.31
     33.0700	  523.00	  529.70	-1767.45	  397.05
     33.1700	  560.00	  532.64	-1733.39	  396.79
     33.2700	  513.00	  537.61	-1785.36	  396.53
     33.3700	  565.00	  546.82	-1742.57	  396.27
     33.4700	  548.00	  564.54	-1777.29	  396.02
     33.5700	  633.00	  597.70	-1725.45	  395.76
     33.6700	  627.00	  654.33	-1788.08	  395.51
     33.7700	  718.00	  738.17	-1780.92	  395.26
     33.8700	  856.00	  840.16	-1744.91	  395.01
     33.9700	 1037.00	  932.65	-1656.40	  394.76
     34.0700	 1061.00	  973.05	-1672.80	  394.51
     34.1700	  981.00	  930.37	-1710.12	  394.26
     34.2700	  912.00	  827.01	-1675.76	  394.02
     34.3700	  746.00	  716.66	-1731.41	  393.78
     34.4700	  602.00	  631.98	-1790.73	  393.54
     34.5700	  544.00	  579.37	-1796.12	  393.30
     34.6700	  575.00	  551.30	-1737.05	  393.06
     34.7700	  557.00	  537.39	-1741.14	  392.83
     34.8700	  514.00	  530.19	-1776.94	  392.59
     34.9700	  521.00	  525.88	-1765.63	  392.36
     35.0700	  507.00	  522.90	-1776.65	  392.13
     35.1700	  493.00	  520.64	-1788.39	  391.90
     35.2700	  504.00	  518.85	-1775.60	  391.67
     35.3700	  509.00	  517.41	-1769.16	  391.45
     35.4700	  515.00	  516.20	-1761.95	  391.22
     35.5700	  512.00	  515.17	-1763.92	  391.00
     35.6700	  576.00	  514.29	-1699.04	  390.78
     35.7700	  539.00	  513.53	-1735.28	  390.56
     35.8700	  528.00	  513.34	-1746.09	  390.34
     35.9700	  527.00	  512.74	-1746.49	  390.13
     36.0700	  512.00	  512.21	-1760.96	  389.91
     36.1700	  491.00	  511.73	-1781.48	  389.70
     36.2700	  512.00	  511.30	-1760.05	  389.49
     36.3700	  506.00	  510.91	-1765.66	  389.28
     36.4700	  535.00	  510.55	-1736.30	  389.08
     36.5700	  500.00	  510.23	-1770.98	  388.87
     36.6700	  502.00	  509.95	-1768.70	  388.67
     36.7700	  523.00	  509.72	-1747.47	  388.47
     36.8700	  571.00	  509.54	-1699.29	  388.27
     36.9700	  476.00	  509.49	-1794.24	  388.07
     37.0700	  510.00	  509.66	-1760.41	  387.87
     37.1700	  530.00	  510.33	-1741.08	  387.68
     37.2700	  521.00	  511.86	-1751.61	  387.49
     37.3700	  514.00	  514.70	-1761.45	  387.30
     37.4700	  492.00	  518.96	-1787.71	  387.11
     37.5700	  541.00	  524.04	-1743.79	  386.92
     37.6700	  563.00	  528.45	-1726.20	  386.74
     37.7700	  489.00	  530.41	-1802.16	  386.55
     37.8700	  507.00	  529.27	-1783.02	  386.37
     37.9700	  534.00	  526.18	-1752.93	  386.19
     38.0700	  498.00	  522.27	-1785.02	  386.01
     38.1700	  536.00	  517.98	-1742.73	  385.84
     38.2700	  458.00	  513.90	-1816.65	  385.66
     38.3700	  526.00	  510.62	-1745.37	  385.49
     38.4700	  481.00	  508.31	-1788.06	  385.32
     38.5700	  494.00	  506.85	-1773.60	  385.15
     38.6700	  518.00	  505.97	-1748.72	  384.98
     38.7700	  477.00	  505.34	-1789.09	  384.81
     38.8700	  468.00	  504.97	-1797.72	  384.65
     38.9700	  557.00	  504.69	-1708.44	  384.49
     39.0700	  481.00	  504.45	-1784.20	  384.33
     39.1700	  557.00	  504.24	-1707.99	  384.17
     39.2700	  492.00	  503.96	-1772.71	  384.01
     39.3700	  507.00	  503.78	-1757.53	  383.86
     39.4700	  542.00	  503.62	-1722.37	  383.71
     39.5700	  489.00	  503.47	-1775.22	  383.56
     39.6700	  499.00	  503.33	-1765.08	  383.41
     39.7700	  483.00	  503.31	-1781.06	  383.26
     39.8700	  470.00	  503.19	-1793.94	  383.12
     39.9700	  524.00	  503.08	-1739.83	  382.97
     40.0700	  519.00	  502.99	-1744.74	  382.83
     40.1700	  539.00	  502.90	-1724.65	  382.69
     40.2700	  499.00	  502.82	-1764.57	  382.55
     40.3700	  485.00	  502.75	-1778.50	  382.42
     40.4700	  498.00	  502.70	-1765.45	  382.28
     40.5700	  489.00	  502.66	-1774.41	  382.15
     40.6700	  485.00	  502.64	-1778.39	  382.02
     40.7700	  529.00	  502.64	-1734.39	  381.89
     40.8700	  490.00	  502.66	-1773.41	  381.76
     40.9700	  480.00	  502.71	-1783.46	  381.64
     41.0700	  524.00	  502.78	-1739.53	  381.52
     41.1700	  514.00	  502.87	-1749.62	  381.39
     41.2700	  505.00	  503.04	-1758.79	  381.27
     41.3700	  468.00	  503.27	-1796.02	  381.16
     41.4700	  501.00	  503.58	-1763.33	  381.04
     41.5700	  512.00	  504.00	-1752.75	  380.93
     41.6700	  526.00	  505.01	-1739.76	  380.81
     41.7700	  525.00	  505.91	-1741.66	  380.70
     41.8700	  551.00	  507.39	-1717.14	  380.60
     41.9700	  491.00	  510.17	-1779.92	  380.49
     42.0700	  520.00	  515.64	-1756.39	  380.38
     42.1700	  519.00	  526.11	-1767.86	  380.28
     42.2700	  496.00	  544.44	-1809.19	  380.18
     42.3700	  559.00	  572.24	-1773.99	  380.08
     42.4700	  524.00	  607.70	-1844.45	  379.98
     42.5700	  590.00	  643.17	-1813.92	  379.89
     42.6700	  570.00	  665.90	-1856.65	  379.79
     42.7700	  599.00	  663.83	-1825.58	  379.70
     42.8700	  552.00	  637.36	-1846.11	  379.61
     42.9700	  548.00	  599.85	-1812.60	  379.52
     43.0700	  590.00	  564.69	-1735.44	  379.44
     43.1700	  513.00	  538.53	-1786.28	  379.35
     43.2700	  555.00	  522.16	-1727.91	  379.27
     43.3700	  498.00	  513.21	-1775.96	  379.19
     43.4700	  522.00	  508.70	-1747.45	  379.11
     43.5700	  496.00	  506.41	-1771.16	  379.03
     43.6700	  508.00	  505.31	-1758.06	  378.96
     43.7700	  501.00	  504.49	-1764.24	  378.88
     43.8700	  528.00	  503.90	-1736.65	  378.81
     43.9700	  500.00	  503.46	-1764.21	  378.74
     44.0700	  555.00	  503.12	-1708.87	  378.67
     44.1700	  528.00	  502.86	-1735.61	  378.61
     44.2700	  511.00	  502.70	-1752.45	  378.54
     44.3700	  535.00	  502.56	-1728.31	  378.48
     44.4700	  455.00	  502.45	-1808.20	  378.42
     44.5700	  515.00	  502.27	-1748.02	  378.36
     44.6700	  503.00	  502.24	-1759.99	  378.30
     44.7700	  474.00	  502.23	-1788.98	  378.25
     44.8700	  552.00	  502.25	-1711.00	  378.19
     44.9700	  486.00	  502.29	-1777.04	  378.14
     45.0700	  516.00	  502.36	-1747.11	  378.09
     45.1700	  483.00	  502.44	-1780.19	  378.04
     45.2700	  505.00	  502.73	-1758.48	  377.99
     45.3700	  493.00	  502.86	-1770.61	  377.95
     45.4700	  506.00	  503.02	-1757.77	  377.90
     45.5700	  505.00	  503.20	-1758.95	  377.86
     45.6700	  506.00	  503.40	-1758.15	  377.82
     45.7700	  434.00	  503.63	-1830.38	  377.78
     45.8700	  513.00	  503.88	-1751.63	  377.75
     45.9700	  498.00	  504.17	-1766.92	  377.71
     46.0700	  530.00	  504.49	-1735.24	  377.68
     46.1700	  525.00	  504.84	-1740.59	  377.65
     46.2700	  519.00	  505.24	-1746.99	  377.62
     46.3700	  512.00	  505.68	-1754.43	  377.59
     46.4700	  494.00	  506.18	-1772.93	  377.57
     46.5700	  497.00	  506.75	-1770.50	  377.54
     46.6700	  485.00	  507.39	-1783.14	  377.52
     46.7700	  562.00	  508.14	-1706.89	  377.50
     46.8700	  537.00	  509.04	-1732.79	  377.48
     46.9700	  510.00	  510.18	-1760.93	  377.46
     47.0700	  522.00	  511.80	-1750.55	  377.45
     47.1700	  497.00	  514.37	-1778.12	  377.43
     47.2700	  531.00	  518.73	-1748.48	  377.42
     47.3700	  503.00	  526.04	-1783.79	  377.41
     47.4700	  573.00	  537.34	-1725.09	  377.40
     47.5700	  497.00	  553.00	-1816.75	  377.39
     47.6700	  546.00	  571.53	-1786.28	  377.38
     47.7700	  558.00	  589.11	-1791.86	  377.38
     47.8700	  627.00	  600.10	-1733.85	  377.38
     47.9700	  563.00	  599.99	-1797.74	  377.38
     48.0700	  545.00	  589.53	-1805.28	  377.38
     48.1700	  583.00	  574.28	-1752.03	  377.38
     48.2700	  534.00	  559.82	-1786.57	  377.38
     48.3700	  554.00	  549.31	-1756.06	  377.39
     48.4700	  516.00	  543.66	-1788.41	  377.40
     48.5700	  536.00	  542.28	-1767.03	  377.41
     48.6700	  524.00	  544.08	-1780.83	  377.42
     48.7700	  519.00	  548.19	-1789.94	  377.43
     48.8700	  513.00	  554.20	-1801.95	  377.44
     48.9700	  515.00	  562.24	-1807.99	  377.46
     49.0700	  547.00	  573.08	-1786.83	  377.47
     49.1700	  585.00	  588.54	-1764.29	  377.49
     49.2700	  663.00	  612.37	-1710.12	  377.51
     49.3700	  671.00	  651.54	-1741.29	  377.53
     49.4700	  745.00	  717.61	-1733.36	  377.55
     49.5700	  827.00	  826.79	-1760.54	  377.58
     49.6700	  936.00	  997.31	-1822.06	  377.60
     49.7700	 1143.00	 1241.29	-1859.04	  377.63
     49.8700	 1444.00	 1555.79	-1872.54	  377.66
     49.9700	 1853.00	 1910.12	-1817.87	  377.69
     50.0700	 2236.00	 2237.38	-1762.13	  377.72
     50.1700	 2503.00	 2439.97	-1697.72	  377.76
     50.2700	 2506.00	 2433.97	-1688.72	  377.79
     50.3700	 2285.00	 2219.94	-1695.69	  377.83
     50.4700	 1927.00	 1886.25	-1720.00	  377.87
     50.5700	 1436.00	 1533.59	-1858.34	  377.91
     50.6700	 1049.00	 1227.58	-1939.33	  377.95
     50.7700	  790.00	  996.33	-1967.08	  377.99
     50.8700	  686.00	  840.87	-1915.62	  378.03
     50.9700	  657.00	  746.12	-1849.87	  378.08
     51.0700	  644.00	  691.37	-1808.12	  378.12
     51.1700	  624.00	  657.81	-1794.56	  378.17
     51.2700	  579.00	  632.85	-1814.60	  378.22
     51.3700	  611.00	  611.21	-1760.96	  378.27
     51.4700	  607.00	  592.20	-1745.95	  378.33
     51.5700	  602.00	  576.50	-1735.25	  378.38
     51.6700	  548.00	  564.53	-1777.28	  378.43
     51.7700	  551.00	  556.02	-1765.77	  378.49
     51.8700	  551.00	  550.26	-1760.01	  378.55
     51.9700	  569.00	  546.45	-1738.20	  378.61
     52.0700	  545.00	  543.96	-1759.71	  378.67
     52.1700	  541.00	  542.44	-1762.19	  378.73
     52.2700	  557.00	  541.78	-1745.53	  378.79
     52.3700	  557.00	  542.28	-1746.03	  378.86
     52.4700	  559.00	  543.87	-1745.62	  378.92
     52.5700	  583.00	  547.66	-1725.41	  378.99
     52.6700	  650.00	  555.65	-1666.40	  379.06
     52.7700	  545.00	  571.64	-1787.39	  379.13
     52.8700	  632.00	  601.74	-1730.49	  379.20
     52.9700	  726.00	  653.83	-1688.58	  379.27
     53.0700	  780.00	  735.00	-1715.75	  379.35
     53.1700	  881.00	  846.89	-1726.64	  379.42
     53.2700	 1038.00	  980.37	-1703.12	  379.50
     53.3700	 1155.00	 1112.00	-1717.75	  379.57
     53.4700	 1162.00	 1205.99	-1804.74	  379.65
     53.5700	 1144.00	 1227.09	-1843.84	  379.73
     53.6700	 1091.00	 1165.49	-1835.24	  379.81
     53.7700	  968.00	 1046.75	-1839.50	  379.90
     53.8700	  837.00	  909.94	-1833.69	  379.98
     53.9700	  754.00	  785.55	-1792.30	  380.07
     54.0700	  688.00	  689.40	-1762.15	  380.15
     54.1700	  624.00	  624.41	-1761.16	  380.24
     54.2700	  574.00	  585.28	-1772.03	  380.33
     54.3700	  594.00	  563.91	-1730.66	  380.42
     54.4700	  565.00	  553.13	-1748.88	  380.51
     54.5700	  537.00	  547.98	-1771.73	  380.60
     54.6700	  540.00	  545.70	-1766.45	  380.69
     54.7700	  542.00	  544.96	-1763.71	  380.79
     54.8700	  560.00	  545.19	-1745.94	  380.88
     54.9700	  570.00	  546.17	-1736.92	  380.98
     55.0700	  561.00	  547.85	-1747.60	  381.07
     55.1700	  533.00	  550.22	-1777.97	  381.17
     55.2700	  541.00	  553.37	-1773.12	  381.27
     55.3700	  533.00	  557.43	-1785.18	  381.37
     55.4700	  563.00	  562.57	-1760.32	  381.47
     55.5700	  569.00	  569.19	-1760.94	  381.58
     55.6700	  624.00	  578.07	-1714.82	  381.68
     55.7700	  620.00	  590.82	-1731.57	  381.78
     55.8700	  573.00	  610.68	-1798.43	  381.89
     55.9700	  628.00	  643.80	-1776.55	  382.00
     56.0700	  678.00	  700.59	-1783.34	  382.10
     56.1700	  756.00	  796.19	-1800.94	  382.21
     56.2700	  873.00	  948.90	-1836.65	  382.32
     56.3700	 1149.00	 1174.76	-1786.51	  382.43
     56.4700	 1401.00	 1478.82	-1838.57	  382.55
     56.5700	 1695.00	 1845.01	-1910.76	  382.66
     56.6700	 2108.00	 2227.98	-1880.73	  382.77
     56.7700	 2535.00	 2551.41	-1777.16	  382.89
     56.8700	 2645.00	 2721.96	-1837.71	  383.00
     56.9700	 2539.00	 2676.34	-1898.09	  383.12
     57.0700	 2400.00	 2432.23	-1792.98	  383.23
     57.1700	 2040.00	 2073.94	-1794.69	  383.35
     57.2700	 1685.00	 1692.45	-1768.20	  383.47
     57.3700	 1347.00	 1351.81	-1765.56	  383.59
     57.4700	 1014.00	 1084.19	-1830.94	  383.71
     57.5700	  837.00	  895.71	-1819.46	  383.83
     57.6700	  804.00	  775.85	-1732.60	  383.96
     57.7700	  680.00	  707.42	-1788.17	  384.08
     57.8700	  698.00	  674.40	-1737.15	  384.20
     57.9700	  710.00	  665.61	-1716.36	  384.33
     58.0700	  744.00	  675.22	-1691.97	  384.45
     58.1700	  716.00	  701.40	-1746.15	  384.58
     58.2700	  764.00	  744.29	-1741.04	  384.71
     58.3700	  831.00	  804.19	-1733.94	  384.84
     58.4700	  947.00	  879.77	-1693.52	  384.96
     58.5700	 1145.00	  966.44	-1582.19	  385.09
     58.6700	 1272.00	 1055.82	-1544.57	  385.22
     58.7700	 1452.00	 1138.10	-1446.85	  385.36
     58.8700	 1481.00	 1206.35	-1486.10	  385.49
     58.9700	 1653.00	 1256.38	-1364.13	  385.62
     59.0700	 1702.00	 1282.59	-1341.34	  385.75
     59.1700	 1562.00	 1280.35	-1479.10	  385.89
     59.2700	 1492.00	 1253.89	-1522.64	  386.02
     59.3700	 1351.00	 1216.43	-1626.18	  386.16
     59.4700	 1286.00	 1181.27	-1656.02	  386.29
     59.5700	 1174.00	 1157.00	-1743.75	  386.43
     59.6700	 1154.00	 1150.15	-1756.90	  386.57
     59.7700	 1132.00	 1168.39	-1797.14	  386.70
     59.8700	 1223.00	 1217.00	-1754.75	  386.84
     59.9700	 1357.00	 1292.51	-1696.26	  386.98
     60.0700	 1372.00	 1379.50	-1768.25	  387.12
     60.1700	 1498.00	 1450.93	-1713.68	  387.26
     60.2700	 1598.00	 1475.13	-1637.88	  387.40
     60.3700	 1512.00	 1432.52	-1681.27	  387.54
     60.4700	 1478.00	 1329.67	-1612.42	  387.68
     60.5700	 1279.00	 1192.44	-1674.19	  387.83
     60.6700	 1068.00	 1048.53	-1741.28	  387.97
     60.7700	  892.00	  918.13	-1786.88	  388.11
     60.8700	  797.00	  812.57	-1776.32	  388.26
     60.9700	  684.00	  735.76	-1812.51	  388.40
     61.0700	  625.00	  686.58	-1822.33	  388.55
     61.1700	  657.00	  661.92	-1765.67	  388.69
     61.2700	  616.00	  659.29	-1804.04	  388.84
     61.3700	  649.00	  678.44	-1790.19	  388.98
     61.4700	  678.00	  721.52	-1804.27	  389.13
     61.5700	  757.00	  791.84	-1795.59	  389.28
     61.6700	  863.00	  891.35	-1789.10	  389.42
     61.7700	  939.00	 1017.80	-1839.55	  389.57
     61.8700	 1084.00	 1161.91	-1838.66	  389.72
     61.9700	 1226.00	 1305.74	-1840.49	  389.87
     62.0700	 1389.00	 1422.73	-1794.48	  390.02
     62.1700	 1361.00	 1482.74	-1882.49	  390.17
     62.2700	 1404.00	 1466.20	-1822.95	  390.32
     62.3700	 1286.00	 1378.11	-1852.86	  390.47
     62.4700	 1167.00	 1244.23	-1837.98	  390.62
     62.5700	  973.00	 1094.51	-1882.26	  390.77
     62.6700	  879.00	  952.32	-1834.07	  390.92
     62.7700	  779.00	  831.79	-1813.54	  391.07
     62.8700	  663.00	  738.74	-1836.49	  391.22
     62.9700	  618.00	  672.51	-1815.26	  391.38
     63.0700	  578.00	  628.63	-1811.38	  391.53
     63.1700	  572.00	  601.32	-1790.07	  391.68
     63.2700	  546.00	  585.23	-1799.98	  391.83
     63.3700	  582.00	  576.41	-1755.16	  391.99
     63.4700	  580.00	  572.51	-1753.26	  392.14
     63.5700	  569.00	  572.63	-1764.38	  392.29
     63.6700	  547.00	  577.12	-1790.87	  392.45
     63.7700	  572.00	  587.30	-1776.05	  392.60
     63.8700	  614.00	  605.20	-1751.95	  392.75
     63.9700	  660.00	  633.00	-1733.75	  392.91
     64.0700	  656.00	  672.25	-1777.00	  393.06
     64.1700	  785.00	  722.88	-1698.63	  393.22
     64.2700	  813.00	  782.26	-1730.01	  393.37
     64.3700	  974.00	  844.55	-1631.30	  393.53
     64.4700	  953.00	  900.66	-1708.41	  393.68
     64.5700	  993.00	  939.89	-1707.64	  393.84
     64.6700	  959.00	  952.98	-1754.73	  393.99
     64.7700	  984.00	  938.94	-1715.69	  394.15
     64.8700	  982.00	  902.15	-1680.90	  394.30
     64.9700	  879.00	  851.48	-1733.23	  394.46
     65.0700	  887.00	  796.50	-1670.25	  394.61
     65.1700	  767.00	  744.85	-1738.60	  394.77
     65.2700	  729.00	  700.81	-1732.56	  394.92
     65.3700	  673.00	  665.41	-1753.16	  395.08
     65.4700	  709.00	  637.69	-1689.44	  395.23
     65.5700	  641.00	  616.05	-1735.80	  395.39
     65.6700	  604.00	  599.26	-1756.01	  395.54
     65.7700	  599.00	  586.43	-1748.18	  395.70
     65.8700	  572.00	  576.93	-1765.68	  395.85
     65.9700	  590.00	  570.31	-1741.06	  396.01
     66.0700	  572.00	  566.15	-1754.90	  396.16
     66.1700	  587.00	  564.09	-1737.84	  396.32
     66.2700	  568.00	  563.75	-1756.50	  396.47
     66.3700	  569.00	  564.86	-1756.61	  396.63
     66.4700	  553.00	  567.23	-1774.98	  396.78
     66.5700	  560.00	  570.91	-1771.66	  396.94
     66.6700	  589.00	  576.26	-1748.01	  397.09
     66.7700	  595.00	  584.19	-1749.94	  397.25
     66.8700	  606.00	  596.17	-1750.92	  397.40
     66.9700	  593.00	  615.15	-1782.90	  397.55
     67.0700	  610.00	  645.75	-1796.50	  397.71
     67.1700	  668.00	  694.64	-1787.39	  397.86
     67.2700	  714.00	  770.35	-1817.10	  398.02
     67.3700	  852.00	  882.19	-1790.94	  398.17
     67.4700	 1071.00	 1037.97	-1727.72	  398.32
     67.5700	 1260.00	 1240.81	-1741.56	  398.47
     67.6700	 1515.00	 1485.56	-1731.31	  398.63
     67.7700	 1741.00	 1755.85	-1775.60	  398.78
     67.8700	 2065.00	 2022.77	-1718.52	  398.93
     67.9700	 2269.00	 2245.78	-1737.53	  399.08
     68.0700	 2424.00	 2379.34	-1716.09	  399.23
     68.1700	 2434.00	 2389.33	-1716.08	  399.39
     68.2700	 2264.00	 2272.92	-1769.67	  399.54
     68.3700	 2105.00	 2060.60	-1716.35	  399.69
     68.4700	 1849.00	 1797.74	-1709.49	  399.84
     68.5700	 1529.00	 1526.22	-1757.97	  399.99
     68.6700	 1249.00	 1276.77	-1788.52	  400.14
     68.7700	 1074.00	 1067.67	-1754.42	  400.29
     68.8700	  875.00	  905.42	-1791.17	  400.43
     68.9700	  776.00	  788.03	-1772.78	  400.58
     69.0700	  721.00	  708.14	-1747.89	  400.73
     69.1700	  642.00	  656.39	-1775.14	  400.88
     69.2700	  583.00	  624.09	-1801.84	  401.03
     69.3700	  643.00	  604.26	-1722.01	  401.17
     69.4700	  595.00	  592.00	-1757.75	  401.32
     69.5700	  559.00	  584.19	-1785.94	  401.46
     69.6700	  570.00	  579.00	-1769.75	  401.61
     69.7700	  540.00	  575.43	-1796.18	  401.75
     69.8700	  611.00	  572.97	-1722.72	  401.90
     69.9700	  561.00	  571.35	-1771.10	  402.04
     70.0700	  567.00	  570.43	-1764.18	  402.19
     70.1700	  564.00	  570.18	-1766.93	  402.33
     70.2700	  564.00	  570.63	-1767.38	  402.47
     70.3700	  543.00	  571.83	-1789.58	  402.61
     70.4700	  550.00	  574.02	-1784.77	  402.76
     70.5700	  535.00	  577.63	-1803.38	  402.90
     70.6700	  547.00	  583.49	-1797.24	  403.04
     70.7700	  526.00	  593.03	-1827.78	  403.18
     70.8700	  576.00	  608.59	-1793.34	  403.32
     70.9700	  613.00	  633.64	-1781.39	  403.45
     71.0700	  611.00	  672.94	-1822.69	  403.59
     71.1700	  700.00	  732.25	-1793.00	  403.73
     71.2700	  810.00	  817.51	-1768.26	  403.87
     71.3700	  881.00	  934.24	-1813.99	  404.00
     71.4700	 1012.00	 1082.19	-1830.94	  404.14
     71.5700	 1244.00	 1258.39	-1775.14	  404.27
     71.6700	 1489.00	 1452.21	-1723.96	  404.41
     71.7700	 1586.00	 1645.63	-1820.38	  404.54
     71.8700	 1816.00	 1813.70	-1758.45	  404.67
     71.9700	 1921.00	 1927.73	-1767.48	  404.80
     72.0700	 1918.00	 1963.37	-1806.12	  404.94
     72.1700	 1874.00	 1912.19	-1798.94	  405.07
     72.2700	 1818.00	 1786.74	-1729.49	  405.20
     72.3700	 1624.00	 1612.74	-1749.49	  405.33
     72.4700	 1492.00	 1419.37	-1688.12	  405.45
     72.5700	 1448.00	 1229.70	-1542.45	  405.58
     72.6700	 1238.00	 1060.06	-1582.81	  405.71
     72.7700	 1048.00	  919.22	-1631.97	  405.83
     72.8700	  984.00	  809.52	-1586.27	  405.96
     72.9700	  847.00	  728.69	-1642.44	  406.08
     73.0700	  817.00	  671.84	-1615.59	  406.21
     73.1700	  780.00	  633.27	-1614.02	  406.33
     73.2700	  744.00	  607.68	-1624.43	  406.45
     73.3700	  668.00	  590.82	-1683.57	  406.57
     73.4700	  666.00	  579.65	-1674.40	  406.69
     73.5700	  635.00	  572.16	-1697.91	  406.81
     73.6700	  592.00	  567.09	-1735.84	  406.93
     73.7700	  591.00	  563.75	-1733.50	  407.05
     73.8700	  607.00	  561.70	-1715.45	  407.17
     73.9700	  569.00	  560.69	-1752.44	  407.28
     74.0700	  626.00	  560.55	-1695.30	  407.40
     74.1700	  633.00	  561.07	-1688.82	  407.51
     74.2700	  617.00	  562.05	-1705.80	  407.63
     74.3700	  607.00	  563.20	-1716.95	  407.74
     74.4700	  609.00	  564.19	-1715.94	  407.85
     74.5700	  636.00	  564.66	-1689.41	  407.96
     74.6700	  614.00	  564.36	-1711.11	  408.07
     74.7700	  591.00	  563.19	-1732.94	  408.18
     74.8700	  637.00	  561.31	-1685.06	  408.29
     74.9700	  640.00	  559.02	-1679.77	  408.39
     75.0700	  556.00	  556.69	-1761.44	  408.50
     75.1700	  602.00	  554.75	-1713.50	  408.60
     75.2700	  561.00	  553.55	-1753.30	  408.71
     75.3700	  545.00	  553.41	-1769.16	  408.81
     75.4700	  542.00	  554.88	-1773.63	  408.91
     75.5700	  578.00	  558.34	-1741.09	  409.01
     75.6700	  547.00	  564.20	-1777.95	  409.11
     75.7700	  599.00	  573.10	-1734.85	  409.21
     75.8700	  613.00	  585.24	-1732.99	  409.31
     75.9700	  639.00	  600.65	-1722.40	  409.41
     76.0700	  674.00	  618.85	-1705.60	  409.50
     76.1700	  628.00	  638.84	-1771.59	  409.60
     76.2700	  658.00	  658.99	-1761.74	  409.69
     76.3700	  661.00	  677.09	-1776.84	  409.78
     76.4700	  670.00	  690.59	-1781.34	  409.87
     76.5700	  719.00	  697.11	-1738.86	  409.96
     76.6700	  689.00	  695.29	-1767.04	  410.05
     76.7700	  649.00	  685.50	-1797.25	  410.14
     76.8700	  671.00	  669.62	-1759.37	  410.22
     76.9700	  654.00	  650.00	-1756.75	  410.31
     77.0700	  637.00	  629.45	-1753.20	  410.39
     77.1700	  604.00	  609.75	-1766.50	  410.48
     77.2700	  555.00	  592.26	-1798.01	  410.56
     77.3700	  545.00	  577.72	-1793.47	  410.64
     77.4700	  542.00	  566.32	-1785.07	  410.72
     77.5700	  564.00	  557.86	-1754.61	  410.80
     77.6700	  559.00	  551.88	-1753.62	  410.88
     77.7700	  515.00	  547.82	-1793.57	  410.95
     77.8700	  497.00	  545.18	-1808.93	  411.03
     77.9700	  548.00	  543.50	-1756.25	  411.10
     78.0700	  559.00	  542.45	-1744.20	  411.17
     78.1700	  560.00	  541.80	-1742.55	  411.24
     78.2700	  513.00	  541.41	-1789.16	  411.31
     78.3700	  554.00	  541.18	-1747.93	  411.38
     78.4700	  558.00	  541.07	-1743.82	  411.45
     78.5700	  526.00	  541.04	-1775.79	  411.51
     78.6700	  561.00	  541.11	-1740.86	  411.58
     78.7700	  523.00	  541.27	-1779.02	  411.64
     78.8700	  534.00	  541.54	-1768.29	  411.70
     78.9700	  478.00	  541.96	-1824.71	  411.76
     79.0700	  490.00	  542.56	-1813.31	  411.82
     79.1700	  510.00	  543.40	-1794.15	  411.88
     79.2700	  522.00	  544.53	-1783.28	  411.94
     79.3700	  549.00	  545.86	-1757.61	  411.99
     79.4700	  543.00	  547.79	-1765.54	  412.05
     79.5700	  535.00	  550.25	-1776.00	  412.10
     79.6700	  507.00	  553.32	-1807.07	  412.15
     79.7700	  568.00	  557.13	-1749.88	  412.20
     79.8700	  522.00	  561.81	-1800.56	  412.25
     79.9700	  516.00	  567.54	-1812.29	  412.30
     80.0700	  503.00	  574.54	-1832.29	  412.35
     80.1700	  531.00	  583.06	-1812.81	  412.39
     80.2700	  583.00	  593.39	-1771.14	  412.43
     80.3700	  559.00	  605.73	-1807.48	  412.48
     80.4700	  573.00	  620.16	-1807.91	  412.52
     80.5700	  637.00	  636.46	-1760.21	  412.55
     80.6700	  600.00	  654.09	-1814.84	  412.59
     80.7700	  630.00	  672.15	-1802.90	  412.63
     80.8700	  681.00	  689.39	-1769.14	  412.66
     80.9700	  693.00	  704.43	-1772.18	  412.70
     81.0700	  690.00	  716.04	-1786.79	  412.73
     81.1700	  707.00	  723.36	-1777.11	  412.76
     81.2700	  796.00	  725.93	-1690.68	  412.79
     81.3700	  772.00	  723.68	-1712.43	  412.82
     81.4700	  801.00	  716.93	-1676.68	  412.84
     81.5700	  742.00	  706.34	-1725.09	  412.87
     81.6700	  755.00	  692.72	-1698.47	  412.89
     81.7700	  700.00	  676.95	-1737.70	  412.91
     81.8700	  734.00	  659.97	-1686.72	  412.93
     81.9700	  696.00	  642.69	-1707.44	  412.95
     82.0700	  664.00	  626.11	-1722.86	  412.97
     82.1700	  641.00	  610.87	-1730.62	  412.98
     82.2700	  658.00	  597.42	-1700.17	  413.00
     82.3700	  627.00	  585.95	-1719.70	  413.01
     82.4700	  616.00	  576.54	-1721.29	  413.02
     82.5700	  572.00	  569.10	-1757.85	  413.03
     82.6700	  567.00	  563.58	-1757.33	  413.04
     82.7700	  586.00	  559.80	-1734.55	  413.05
     82.8700	  572.00	  557.64	-1746.39	  413.05
     82.9700	  553.00	  556.97	-1764.72	  413.06
     83.0700	  550.00	  557.70	-1768.45	  413.06
     83.1700	  537.00	  559.72	-1783.47	  413.06
     83.2700	  565.00	  562.93	-1758.68	  413.06
     83.3700	  555.00	  567.17	-1772.92	  413.06
     83.4700	  521.00	  572.20	-1811.95	  413.05
     83.5700	  550.00	  577.69	-1788.44	  413.05
     83.6700	  560.00	  583.22	-1783.97	  413.04
     83.7700	  561.00	  588.25	-1788.00	  413.03
     83.8700	  535.00	  592.21	-1817.96	  413.02
     83.9700	  578.00	  594.53	-1777.28	  413.01
     84.0700	  591.00	  594.82	-1764.57	  413.00
     84.1700	  588.00	  592.99	-1765.74	  412.98
     84.2700	  575.00	  589.31	-1775.06	  412.97
     84.3700	  571.00	  584.27	-1774.02	  412.95
     84.4700	  581.00	  578.44	-1758.19	  412.93
     84.5700	  521.00	  572.36	-1812.11	  412.91
     84.6700	  530.00	  566.45	-1797.20	  412.88
     84.7700	  558.00	  561.03	-1763.78	  412.86
     84.8700	  558.00	  556.32	-1759.07	  412.83
     84.9700	  539.00	  552.41	-1774.16	  412.81
     85.0700	  550.00	  549.31	-1760.06	  412.78
     85.1700	  532.00	  546.97	-1775.72	  412.75
     85.2700	  507.00	  545.31	-1799.06	  412.71
     85.3700	  519.00	  544.21	-1785.96	  412.68
     85.4700	  546.00	  543.58	-1758.33	  412.64
     85.5700	  553.00	  543.33	-1751.08	  412.61
     85.6700	  557.00	  543.40	-1747.15	  412.57
     85.7700	  516.00	  543.76	-1788.51	  412.53
     85.8700	  508.00	  544.41	-1797.16	  412.49
     85.9700	  506.00	  545.36	-1800.11	  412.44
     86.0700	  523.00	  546.67	-1784.42	  412.40
     86.1700	  519.00	  548.43	-1790.18	  412.35
     86.2700	  522.00	  550.74	-1789.49	  412.30
     86.3700	  534.00	  553.71	-1780.46	  412.25
     86.4700	  587.00	  557.47	-1731.22	  412.20
     86.5700	  594.00	  562.13	-1728.88	  412.15
     86.6700	  585.00	  567.74	-1743.49	  412.09
     86.7700	  570.00	  573.94	-1764.69	  412.03
     86.8700	  592.00	  581.19	-1749.94	  411.98
     86.9700	  578.00	  588.88	-1771.63	  411.92
     87.0700	  577.00	  596.56	-1780.31	  411.85
     87.1700	  588.00	  603.67	-1776.42	  411.79
     87.2700	  585.00	  609.57	-1785.32	  411.73
     87.3700	  639.00	  613.60	-1735.35	  411.66
     87.4700	  669.00	  615.24	-1706.99	  411.59
     87.5700	  675.00	  614.29	-1700.04	  411.52
     87.6700	  608.00	  610.91	-1763.66	  411.45
     87.7700	  621.00	  605.62	-1745.37	  411.38
     87.8700	  653.00	  599.14	-1706.89	  411.30
     87.9700	  606.00	  592.23	-1746.98	  411.22
     88.0700	  642.00	  585.61	-1704.36	  411.15
     88.1700	  600.00	  579.90	-1740.65	  411.07
     88.2700	  582.00	  575.59	-1754.34	  410.99
     88.3700	  627.00	  573.00	-1706.75	  410.90
     88.4700	  618.00	  572.32	-1715.07	  410.82
     88.5700	  591.00	  573.57	-1743.32	  410.73
     88.6700	  615.00	  576.60	-1722.35	  410.64
     88.7700	  610.00	  581.15	-1731.90	  410.55
     88.8700	  620.00	  586.82	-1727.57	  410.46
     88.9700	  585.00	  593.12	-1768.87	  410.37
     89.0700	  621.00	  599.45	-1739.20	  410.27
     89.1700	  600.00	  605.18	-1765.93	  410.18
     89.2700	  591.00	  609.62	-1779.37	  410.08
     89.3700	  557.00	  612.20	-1815.95	  409.98
     89.4700	  628.00	  612.52	-1745.27	  409.88
     89.5700	  597.00	  610.51	-1774.26	  409.78
     89.6700	  581.00	  606.40	-1786.15	  409.67
     89.7700	  619.00	  600.67	-1742.42	  409.57
     89.8700	  565.00	  593.88	-1789.63	  409.46
     89.9700	  535.00	  586.61	-1812.36	  409.35
     90.0700	  610.00	  579.35	-1730.10	  409.24
     90.1700	  534.00	  572.47	-1799.22	  409.13
     90.2700	  549.00	  566.28	-1778.03	  409.01
     90.3700	  585.00	  560.93	-1736.68	  408.90
     90.4700	  515.00	  556.50	-1802.25	  408.78
     90.5700	  494.00	  552.98	-1819.73	  408.66
     90.6700	  518.00	  550.32	-1793.07	  408.54
     90.7700	  518.00	  548.39	-1791.14	  408.42
     90.8700	  512.00	  547.11	-1795.86	  408.29
     90.9700	  565.00	  546.36	-1742.11	  408.17
     91.0700	  523.00	  546.06	-1783.81	  408.04
     91.1700	  517.00	  546.17	-1789.92	  407.91
     91.2700	  504.00	  546.66	-1803.41	  407.78
     91.3700	  522.00	  547.57	-1786.32	  407.65
     91.4700	  533.00	  548.96	-1776.71	  407.52
     91.5700	  526.00	  550.94	-1785.69	  407.38
     91.6700	  515.00	  553.65	-1799.40	  407.24
     91.7700	  511.00	  557.26	-1807.01	  407.11
     91.8700	  533.00	  561.76	-1789.51	  406.97
     91.9700	  563.00	  567.76	-1765.51	  406.82
     92.0700	  541.00	  575.21	-1794.96	  406.68
     92.1700	  583.00	  584.23	-1761.98	  406.54
     92.2700	  568.00	  594.87	-1787.62	  406.39
     92.3700	  600.00	  607.09	-1767.84	  406.24
     92.4700	  588.00	  620.70	-1793.45	  406.09
     92.5700	  644.00	  635.44	-1752.19	  405.94
     92.6700	  625.00	  650.89	-1786.64	  405.79
     92.7700	  676.00	  666.52	-1751.27	  405.64
     92.8700	  737.00	  681.72	-1705.47	  405.48
     92.9700	  748.00	  695.86	-1708.61	  405.32
     93.0700	  760.00	  708.44	-1709.19	  405.17
     93.1700	  788.00	  719.19	-1691.94	  405.01
     93.2700	  794.00	  728.23	-1694.98	  404.84
     93.3700	  787.00	  736.02	-1709.77	  404.68
     93.4700	  803.00	  743.21	-1700.96	  404.52
     93.5700	  852.00	  750.51	-1659.26	  404.35
     93.6700	  859.00	  758.58	-1660.33	  404.18
     93.7700	  857.00	  767.94	-1671.69	  404.01
     93.8700	  866.00	  779.06	-1673.81	  403.84
     93.9700	  892.00	  792.28	-1661.03	  403.67
     94.0700	  934.00	  807.84	-1634.59	  403.50
     94.1700	  823.00	  825.72	-1763.47	  403.32
     94.2700	  921.00	  845.55	-1685.30	  403.15
     94.3700	  880.00	  866.54	-1747.29	  402.97
     94.4700	  879.00	  887.46	-1769.21	  402.79
     94.5700	  879.00	  906.68	-1788.43	  402.61
     94.6700	  965.00	  922.28	-1718.03	  402.43
     94.7700	  900.00	  932.28	-1793.03	  402.24
     94.8700	  912.00	  935.05	-1783.80	  402.06
     94.9700	  921.00	  929.66	-1769.41	  401.87
     95.0700	  901.00	  916.22	-1775.97	  401.68
     95.1700	  851.00	  895.80	-1805.55	  401.49
     95.2700	  843.00	  870.15	-1787.90	  401.30
     95.3700	  864.00	  841.35	-1738.10	  401.11
     95.4700	  813.00	  811.52	-1759.27	  400.92
     95.5700	  788.00	  782.67	-1755.42	  400.72
     95.6700	  744.00	  756.65	-1773.40	  400.53
     95.7700	  714.00	  735.09	-1781.84	  400.33
     95.8700	  699.00	  719.46	-1781.21	  400.13
     95.9700	  644.00	  711.05	-1827.80	  399.93
     96.0700	  657.00	  710.95	-1814.70	  399.73
     96.1700	  672.00	  720.12	-1808.87	  399.53
     96.2700	  711.00	  739.27	-1789.02	  399.32
     96.3700	  780.00	  768.89	-1749.64	  399.12
     96.4700	  794.00	  809.12	-1775.87	  398.91
     96.5700	  878.00	  859.68	-1742.43	  398.70
     96.6700	  902.00	  919.77	-1778.52	  398.49
     96.7700	  942.00	  987.93	-1806.68	  398.28
     96.8700	 1064.00	 1062.03	-1758.78	  398.07
     96.9700	 1191.00	 1139.20	-1708.95	  397.86
     97.0700	 1165.00	 1215.89	-1811.64	  397.64
     97.1700	 1308.00	 1287.99	-1740.74	  397.43
     97.2700	 1318.00	 1350.95	-1793.70	  397.21
     97.3700	 1397.00	 1400.23	-1763.98	  396.99
     97.4700	 1342.00	 1431.84	-1850.59	  396.77
     97.5700	 1443.00	 1443.13	-1760.88	  396.55
     97.6700	 1459.00	 1433.35	-1735.10	  396.33
     97.7700	 1387.00	 1403.85	-1777.60	  396.11
     97.8700	 1388.00	 1357.66	-1730.41	  395.89
     97.9700	 1342.00	 1298.83	-1717.58	  395.66
     98.0700	 1227.00	 1231.84	-1765.59	  395.43
     98.1700	 1128.00	 1161.02	-1793.77	  395.21
     98.2700	 1072.00	 1090.40	-1779.15	  394.98
     98.3700	  999.00	 1023.48	-1785.23	  394.75
     98.4700	  943.00	  963.20	-1780.95	  394.52
     98.5700	  867.00	  911.88	-1805.63	  394.29
     98.6700	  833.00	  871.31	-1799.06	  394.06
     98.7700	  854.00	  842.81	-1749.56	  393.82
     98.8700	  788.00	  827.32	-1800.07	  393.59
     98.9700	  791.00	  825.46	-1795.21	  393.35
     99.0700	  761.00	  837.63	-1837.38	  393.11
     99.1700	  866.00	  864.01	-1758.76	  392.88
     99.2700	  874.00	  904.59	-1791.34	  392.64
     99.3700	  917.00	  959.19	-1802.94	  392.40
     99.4700	  999.00	 1027.27	-1789.02	  392.16
     99.5700	 1070.00	 1108.00	-1798.75	  391.92
     99.6700	 1133.00	 1200.03	-1827.78	  391.67
     99.7700	 1254.00	 1301.47	-1808.22	  391.43
     99.8700	 1400.00	 1409.79	-1770.54	  391.19
     99.9700	 1559.00	 1521.70	-1723.45	  390.94
    100.0700	 1705.00	 1633.28	-1689.03	  390.70
    100.1700	 1785.00	 1740.11	-1715.86	  390.45
    100.2700	 1818.00	 1837.69	-1780.44	  390.20
    100.3700	 1951.00	 1921.92	-1731.67	  389.95
    100.4700	 2023.00	 1989.51	-1727.26	  389.70
    100.5700	 2193.00	 2038.16	-1605.91	  389.45
    100.6700	 2117.00	 2066.42	-1710.17	  389.20
    100.7700	 2105.00	 2073.34	-1729.09	  388.95
    100.8700	 2095.00	 2058.56	-1724.31	  388.70
    100.9700	 2058.00	 2022.44	-1725.19	  388.44
    101.0700	 2076.00	 1966.52	-1651.27	  388.19
    101.1700	 1959.00	 1893.70	-1695.45	  387.94
    101.2700	 1851.00	 1808.15	-1717.90	  387.68
    101.3700	 1686.00	 1714.83	-1789.58	  387.42
    101.4700	 1604.00	 1618.89	-1775.64	  387.17
    101.5700	 1466.00	 1525.04	-1819.79	  386.91
    101.6700	 1476.00	 1437.19	-1721.94	  386.65
    101.7700	 1382.00	 1358.31	-1737.06	  386.39
    101.8700	 1304.00	 1290.23	-1746.98	  386.13
    101.9700	 1244.00	 1233.76	-1750.51	  385.87
    102.0700	 1172.00	 1188.60	-1777.35	  385.61
    102.1700	 1131.00	 1153.56	-1783.31	  385.35
    102.2700	 1106.00	 1126.71	-1781.46	  385.09
    102.3700	 1078.00	 1105.55	-1788.30	  384.83
    102.4700	 1146.00	 1087.33	-1702.08	  384.57
    102.5700	 1076.00	 1069.34	-1754.09	  384.30
    102.6700	 1035.00	 1049.33	-1775.08	  384.04
    102.7700	 1076.00	 1025.73	-1710.48	  383.78
    102.8700	  989.00	  997.84	-1769.59	  383.51
    102.9700	  969.00	  965.78	-1757.53	  383.25
    103.0700	  885.00	  930.22	-1805.97	  382.98
    103.1700	  861.00	  892.24	-1791.99	  382.72
    103.2700	  863.00	  853.06	-1750.81	  382.45
    103.3700	  797.00	  813.90	-1777.65	  382.18
    103.4700	  797.00	  775.90	-1739.65	  381.92
    103.5700	  738.00	  740.00	-1762.75	  381.65
    103.6700	  732.00	  706.98	-1735.73	  381.38
    103.7700	  660.00	  677.36	-1778.11	  381.12
    103.8700	  655.00	  651.45	-1757.20	  380.85
    103.9700	  624.00	  629.35	-1766.10	  380.58
    104.0700	  592.00	  610.96	-1779.71	  380.31
    104.1700	  593.00	  596.08	-1763.83	  380.04
    104.2700	  593.00	  584.37	-1752.12	  379.77
    104.3700	  525.00	  575.49	-1811.24	  379.51
    104.4700	  542.00	  569.02	-1787.77	  379.24
    104.5700	  556.00	  564.60	-1769.35	  378.97
    104.6700	  527.00	  561.86	-1795.61	  378.70
    104.7700	  559.00	  560.48	-1762.23	  378.43
    104.8700	  524.00	  560.17	-1796.92	  378.16
    104.9700	  530.00	  560.71	-1791.46	  377.89
    105.0700	  565.00	  561.88	-1757.63	  377.62
    105.1700	  531.00	  563.56	-1793.31	  377.35
    105.2700	  583.00	  565.63	-1743.38	  377.09
    105.3700	  575.00	  567.99	-1753.74	  376.82
    105.4700	  585.00	  570.64	-1746.39	  376.55
    105.5700	  573.00	  573.59	-1761.34	  376.28
    105.6700	  517.00	  576.88	-1820.63	  376.01
    105.7700	  559.00	  580.61	-1782.36	  375.74
    105.8700	  583.00	  584.89	-1762.64	  375.47
    105.9700	  585.00	  589.85	-1765.60	  375.21
    106.0700	  589.00	  595.59	-1767.34	  374.94
    106.1700	  586.00	  602.16	-1776.91	  374.67
    106.2700	  586.00	  609.58	-1784.33	  374.40
    106.3700	  585.00	  617.78	-1793.53	  374.14
    106.4700	  589.00	  626.64	-1798.39	  373.87
    106.5700	  577.00	  635.94	-1819.69	  373.60
    106.6700	  610.00	  645.43	-1796.18	  373.34
    106.7700	  686.00	  654.76	-1729.51	  373.07
    106.8700	  612.00	  663.56	-1812.31	  372.81
    106.9700	  638.00	  671.45	-1794.20	  372.54
    107.0700	  683.00	  678.04	-1755.79	  372.28
    107.1700	  667.00	  683.03	-1776.78	  372.01
    107.2700	  642.00	  686.25	-1805.00	  371.75
    107.3700	  697.00	  687.66	-1751.41	  371.49
    107.4700	  677.00	  687.42	-1771.17	  371.23
    107.5700	  690.00	  685.86	-1756.61	  370.96
    107.6700	  679.00	  683.37	-1765.12	  370.70
    107.7700	  639.00	  680.40	-1802.15	  370.44
    107.8700	  732.00	  677.38	-1706.13	  370.18
    107.9700	  605.00	  674.68	-1830.43	  369.92
    108.0700	  656.00	  672.58	-1777.33	  369.67
    108.1700	  618.00	  671.24	-1813.99	  369.41
    108.2700	  697.00	  670.71	-1734.46	  369.15
    108.3700	  642.00	  670.94	-1789.69	  368.90
    108.4700	  632.00	  671.76	-1800.51	  368.64
    108.5700	  671.00	  672.88	-1762.63	  368.39
    108.6700	  663.00	  673.96	-1771.71	  368.13
    108.7700	  664.00	  674.61	-1771.36	  367.88
    108.8700	  686.00	  674.45	-1749.20	  367.63
    108.9700	  658.00	  673.12	-1775.87	  367.38
    109.0700	  707.00	  670.38	-1724.13	  367.13
    109.1700	  644.00	  666.10	-1782.85	  366.88
    109.2700	  658.00	  660.31	-1763.06	  366.63
    109.3700	  635.00	  653.16	-1778.91	  366.39
    109.4700	  624.00	  644.88	-1781.63	  366.14
    109.5700	  668.00	  635.78	-1728.53	  365.90
    109.6700	  603.00	  626.19	-1783.94	  365.66
    109.7700	  614.00	  616.41	-1763.16	  365.41
    109.8700	  597.00	  606.74	-1770.49	  365.17
    109.9700	  654.00	  597.46	-1704.21	  364.93
    110.0700	  613.00	  588.77	-1736.52	  364.70
    110.1700	  581.00	  580.86	-1760.61	  364.46
    110.2700	  595.00	  573.83	-1739.58	  364.22
    110.3700	  585.00	  567.76	-1743.51	  363.99
    110.4700	  565.00	  562.67	-1758.42	  363.76
    110.5700	  587.00	  558.55	-1732.30	  363.53
    110.6700	  576.00	  555.35	-1740.10	  363.30
    110.7700	  538.00	  553.01	-1775.76	  363.07
    110.8700	  575.00	  551.43	-1737.18	  362.84
    110.9700	  552.00	  550.54	-1759.29	  362.62
    111.0700	  560.00	  550.24	-1750.99	  362.39
    111.1700	  561.00	  550.46	-1750.21	  362.17
    111.2700	  547.00	  551.11	-1764.86	  361.95
    111.3700	  554.00	  552.14	-1758.89	  361.73
    111.4700	  525.00	  553.49	-1789.24	  361.52
    111.5700	  521.00	  555.12	-1794.87	  361.30
    111.6700	  524.00	  556.99	-1793.74	  361.09
    111.7700	  529.00	  559.08	-1790.83	  360.88
    111.8700	  584.00	  561.38	-1738.13	  360.67
    111.9700	  548.00	  563.89	-1776.64	  360.46
    112.0700	  586.00	  566.61	-1741.36	  360.25
    112.1700	  555.00	  569.55	-1775.30	  360.05
    112.2700	  572.00	  572.73	-1761.48	  359.85
    112.3700	  580.00	  576.19	-1756.94	  359.65
    112.4700	  616.00	  579.97	-1724.72	  359.45
    112.5700	  618.00	  584.12	-1726.87	  359.25
    112.6700	  619.00	  588.70	-1730.45	  359.06
    112.7700	  626.00	  593.81	-1728.56	  358.87
    112.8700	  660.00	  599.56	-1700.31	  358.68
    112.9700	  675.00	  606.10	-1691.85	  358.49
    113.0700	  649.00	  613.62	-1725.37	  358.31
    113.1700	  746.00	  622.38	-1637.13	  358.13
    113.2700	  783.00	  632.70	-1610.45	  357.94
    113.3700	  827.00	  644.99	-1578.74	  357.77
    113.4700	  817.00	  659.77	-1603.52	  357.59
    113.5700	  839.00	  677.69	-1599.44	  357.42
    113.6700	  869.00	  699.55	-1591.30	  357.25
    113.7700	  873.00	  726.30	-1614.05	  357.08
    113.8700	  950.00	  759.13	-1569.88	  356.92
    113.9700	  990.00	  799.38	-1570.13	  356.75
    114.0700	 1045.00	  848.66	-1564.41	  356.59
    114.1700	 1126.00	  908.74	-1543.49	  356.44
    114.2700	 1199.00	  981.60	-1543.35	  356.28
    114.3700	 1242.00	 1069.42	-1588.17	  356.13
    114.4700	 1383.00	 1174.44	-1552.19	  355.98
    114.5700	 1472.00	 1298.99	-1587.74	  355.83
    114.6700	 1635.00	 1445.32	-1571.07	  355.69
    114.7700	 1707.00	 1615.49	-1669.24	  355.55
    114.8700	 1939.00	 1811.34	-1633.09	  355.41
    114.9700	 2252.00	 2034.18	-1542.93	  355.28
    115.0700	 2291.00	 2284.81	-1754.56	  355.15
    115.1700	 2613.00	 2563.20	-1710.95	  355.02
    115.2700	 2900.00	 2868.42	-1729.17	  354.89
    115.3700	 2943.00	 3198.65	-2016.40	  354.77
    115.4700	 3222.00	 3550.74	-2089.49	  354.65
    115.5700	 3723.00	 3920.62	-1958.37	  354.53
    115.6700	 4088.00	 4302.80	-1975.55	  354.42
    115.7700	 4477.00	 4690.59	-1974.34	  354.31
    115.8700	 4755.00	 5076.32	-2082.07	  354.21
    115.9700	 5192.00	 5450.99	-2019.74	  354.10
    116.0700	 5581.00	 5804.92	-1984.67	  354.00
    116.1700	 6115.00	 6127.60	-1773.35	  353.91
    116.2700	 6352.00	 6408.27	-1817.02	  353.82
    116.3700	 6566.00	 6636.61	-1831.36	  353.73
    116.4700	 6881.00	 6803.27	-1683.02	  353.64
    116.5700	 6821.00	 6901.04	-1840.79	  353.56
    116.6700	 7043.00	 6925.45	-1643.20	  353.48
    116.7700	 7041.00	 6875.56	-1595.31	  353.41
    116.8700	 6837.00	 6753.94	-1677.69	  353.34
    116.9700	 6609.00	 6566.44	-1718.19	  353.27
    117.0700	 6557.00	 6321.29	-1525.04	  353.21
    117.1700	 6042.00	 6028.40	-1747.15	  353.15
    117.2700	 5660.00	 5698.39	-1799.14	  353.09
    117.3700	 5279.00	 5341.77	-1823.52	  353.04
    117.4700	 4821.00	 4968.73	-1908.48	  353.00
    117.5700	 4715.00	 4588.47	-1634.22	  352.95
    117.6700	 4259.00	 4209.31	-1711.06	  352.91
    117.7700	 3938.00	 3838.43	-1661.18	  352.88
    117.8700	 3741.00	 3481.64	-1501.39	  352.85
    117.9700	 3207.00	 3143.77	-1697.52	  352.82
    118.0700	 3030.00	 2828.21	-1558.96	  352.80
    118.1700	 2564.00	 2537.41	-1734.16	  352.78
    118.2700	 2178.00	 2272.75	-1855.50	  352.77
    118.3700	 1984.00	 2034.62	-1811.37	  352.76
    118.4700	 1821.00	 1822.76	-1762.51	  352.76
    118.5700	 1564.00	 1636.14	-1832.89	  352.76
    118.6700	 1374.00	 1473.37	-1860.12	  352.76
    118.7700	 1235.00	 1332.68	-1858.43	  352.77
    118.8700	 1080.00	 1212.04	-1892.79	  352.79
    118.9700	 1008.00	 1109.36	-1862.11	  352.81
    119.0700	  965.00	 1022.49	-1818.24	  352.83
    119.1700	  869.00	  949.42	-1841.17	  352.86
    119.2700	  818.00	  888.22	-1830.97	  352.89
    119.3700	  788.00	  837.11	-1809.86	  352.93
    119.4700	  745.00	  794.54	-1810.29	  352.97
    119.5700	  727.00	  759.11	-1792.86	  353.02
    119.6700	  631.00	  729.64	-1859.39	  353.07
    119.7700	  670.00	  705.10	-1795.85	  353.13
    119.8700	  640.00	  684.66	-1805.41	  353.19
    119.9700	  629.00	  667.59	-1799.34	  353.26
    120.0700	  645.00	  653.34	-1769.09	  353.34
    120.1700	  594.00	  641.41	-1808.16	  353.42
    120.2700	  575.00	  631.45	-1817.20	  353.50
    120.3700	  541.00	  623.14	-1842.89	  353.59
    120.4700	  583.00	  616.24	-1793.99	  353.69
    120.5700	  529.00	  610.57	-1842.32	  353.79
    120.6700	  596.00	  605.97	-1770.72	  353.89
    120.7700	  597.00	  602.33	-1766.08	  354.01
    120.8700	  564.00	  599.56	-1796.31	  354.12
    120.9700	  598.00	  597.60	-1760.35	  354.25
    121.0700	  552.00	  596.37	-1805.12	  354.38
    121.1700	  553.00	  595.84	-1803.59	  354.51
    121.2700	  593.00	  595.96	-1763.71	  354.65
    121.3700	  595.00	  596.69	-1762.44	  354.80
    121.4700	  581.00	  597.98	-1777.73	  354.95
    121.5700	  595.00	  599.78	-1765.53	  355.11
    121.6700	  613.00	  602.04	-1749.79	  355.27
    121.7700	  572.00	  604.69	-1793.44	  355.45
    121.8700	  580.00	  607.64	-1788.39	  355.62
    121.9700	  598.00	  610.84	-1773.59	  355.81
    122.0700	  619.00	  614.18	-1755.93	  356.00
    122.1700	  588.00	  617.56	-1790.31	  356.19
    122.2700	  598.00	  620.88	-1783.63	  356.39
    122.3700	  639.00	  624.01	-1745.76	  356.60
    122.4700	  664.00	  626.85	-1723.60	  356.82
    122.5700	  610.00	  629.30	-1780.05	  357.04
    122.6700	  643.00	  631.25	-1749.00	  357.27
    122.7700	  636.00	  632.61	-1757.36	  357.50
    122.8700	  632.00	  633.34	-1762.09	  357.75
    122.9700	  647.00	  633.41	-1747.16	  357.99
    123.0700	  676.00	  632.79	-1717.54	  358.25
    123.1700	  639.00	  631.53	-1753.28	  358.51
    123.2700	  684.00	  629.66	-1706.41	  358.78
    123.3700	  633.00	  627.24	-1754.99	  359.06
    123.4700	  650.00	  624.36	-1735.11	  359.34
    123.5700	  637.00	  621.09	-1744.84	  359.63
    123.6700	  621.00	  617.51	-1757.26	  359.93
    123.7700	  613.00	  613.70	-1761.45	  360.24
    123.8700	  593.00	  609.75	-1777.50	  360.55
    123.9700	  630.00	  605.72	-1736.47	  360.87
    124.0700	  604.00	  601.68	-1758.43	  361.20
    124.1700	  595.00	  597.70	-1763.45	  361.53
    124.2700	  631.00	  593.82	-1723.57	  361.87
    124.3700	  619.00	  590.09	-1731.84	  362.22
    124.4700	  625.00	  586.54	-1722.29	  362.58
    124.5700	  607.00	  583.19	-1736.94	  362.95
    124.6700	  592.00	  580.07	-1748.82	  363.32
    124.7700	  579.00	  577.18	-1758.94	  363.70
    124.8700	  589.00	  574.55	-1746.30	  364.09
    124.9700	  597.00	  482.07	-1645.82	  364.49
    125.0700	  578.00	  482.48	-1760.75	  364.89
    125.1700	  598.00	  482.89	-1760.75	  365.30
    125.2700	  595.00	  483.31	-1760.75	  365.72
    125.3700	  567.00	  483.74	-1760.75	  366.15
    125.4700	  553.00	  484.18	-1760.75	  366.59
    125.5700	  590.00	  484.62	-1760.75	  367.04
    125.6700	  524.00	  485.08	-1760.75	  367.49
    125.7700	  603.00	  485.54	-1760.75	  367.96
    125.8700	  601.00	  486.01	-1760.75	  368.43
    125.9700	  573.00	  486.49	-1760.75	  368.91
    126.0700	  587.00	  486.98	-1760.75	  369.39
    126.1700	  552.00	  487.48	-1760.75	  369.89
    126.2700	  562.00	  487.98	-1760.75	  370.40
    126.3700	  525.00	  488.50	-1760.75	  370.91
    126.4700	  556.00	  489.02	-1760.75	  371.44
    126.5700	  605.00	  489.56	-1760.75	  371.97
    126.6700	  568.00	  490.10	-1760.75	  372.51
    126.7700	  603.00	  490.65	-1760.75	  373.06
    126.8700	  590.00	  491.21	-1760.75	  373.62
    126.9700	  641.00	  491.78	-1760.75	  374.19
    127.0700	  671.00	  492.36	-1760.75	  374.77
    127.1700	  626.00	  492.95	-1760.75	  375.36
    127.2700	  649.00	  493.54	-1760.75	  375.96
    127.3700	  670.00	  494.15	-1760.75	  376.56
    127.4700	  671.00	  494.77	-1760.75	  377.18
    127.5700	  666.00	  495.39	-1760.75	  377.81
    127.6700	  662.00	  496.03	-1760.75	  378.44
    127.7700	  664.00	  496.68	-1760.75	  379.09
    127.8700	  691.00	  497.33	-1760.75	  379.74
    127.9700	  723.00	  498.00	-1760.75	  380.41
    128.0700	  754.00	  498.67	-1760.75	  381.09
    128.1700	  722.00	  499.36	-1760.75	  381.77
    128.2700	  765.00	  500.05	-1760.75	  382.47
    128.3700	  763.00	  500.76	-1760.75	  383.17
    128.4700	  801.00	  501.48	-1760.75	  383.89
    128.5700	    0.00	  502.20	-1760.75	  384.62
    128.6700	    0.00	  502.94	-1760.75	  385.35
     12.3039	        	        	        	        	       0	(  0  0  2)	  0  1
     24.8892	        	        	        	        	       0	(  0  0  4)	  0  1
     28.3270	        	        	        	        	       0	(  1  0  0)	  0  1
     29.0244	        	        	        	        	       0	(  1  0  1)	  0  1
     31.0312	        	        	        	        	       0	(  1  0  2)	  0  1
     34.1404	        	        	        	        	       0	(  1  0  3)	  0  1
     37.7905	        	        	        	        	       0	(  0  0  6)	  0  1
     38.1185	        	        	        	        	       0	(  1  0  4)	  0  1
     42.7697	        	        	        	        	       0	(  1  0  5)	  0  1
     47.9549	        	        	        	        	       0	(  1  0  6)	  0  1
     50.2639	        	        	        	        	       0	(  1  1  0)	  0  1
     51.2144	        	        	        	        	       0	(  0  0  8)	  0  1
     51.9874	        	        	        	        	       0	(  1  1  2)	  0  1
     53.5865	        	        	        	        	       0	(  1  0  7)	  0  1
     56.9367	        	        	        	        	       0	(  1  1  4)	  0  1
     58.7609	        	        	        	        	       0	(  2  0  0)	  0  1
     59.1526	        	        	        	        	       0	(  2  0  1)	  0  1
     59.6182	        	        	        	        	       0	(  1  0  8)	  0  1
     60.3183	        	        	        	        	       0	(  2  0  2)	  0  1
     62.2321	        	        	        	        	       0	(  2  0  3)	  0  1
     64.6335	        	        	        	        	       0	(  1  1  6)	  0  1
     64.8569	        	        	        	        	       0	(  2  0  4)	  0  1
     65.4459	        	        	        	        	       0	(  0  0 10)	  0  1
     66.0358	        	        	        	        	       0	(  1  0  9)	  0  1
     68.1521	        	        	        	        	       0	(  2  0  5)	  0  1
     72.0807	        	        	        	        	       0	(  2  0  6)	  0  1
     72.8534	        	        	        	        	       0	(  1  0 10)	  0  1
     74.6737	        	        	        	        	       0	(  1  1  8)	  0  1
     76.6160	        	        	        	        	       0	(  2  0  7)	  0  1
     80.1126	        	        	        	        	       0	(  1  0 11)	  0  1
     80.9293	        	        	        	        	       0	(  0  0 12)	  0  1
     81.0021	        	        	        	        	       0	(  2  1  0)	  0  1
     81.3421	        	        	        	        	       0	(  2  1  1)	  0  1
     81.7476	        	        	        	        	       0	(  2  0  8)	  0  1
     82.3602	        	        	        	        	       0	(  2  1  2)	  0  1
     84.0520	        	        	        	        	       0	(  2  1  3)	  0  1
     86.4124	        	        	        	        	       0	(  2  1  4)	  0  1
     86.9482	        	        	        	        	       0	(  1  1 10)	  0  1
     87.4872	        	        	        	        	       0	(  2  0  9)	  0  1
     87.8887	        	        	        	        	       0	(  1  0 12)	  0  1
     89.4390	        	        	        	        	       0	(  2  1  5)	  0  1
     93.1375	        	        	        	        	       0	(  2  1  6)	  0  1
     93.8763	        	        	        	        	       0	(  2  0 10)	  0  1
     94.8910	        	        	        	        	       0	(  3  0  0)	  0  1
     95.2285	        	        	        	        	       0	(  3  0  1)	  0  1
     96.2420	        	        	        	        	       0	(  3  0  2)	  0  1
     96.3042	        	        	        	        	       0	(  1  0 13)	  0  1
     97.5273	        	        	        	        	       0	(  2  1  7)	  0  1
     97.9358	        	        	        	        	       0	(  3  0  3)	  0  1
     98.4731	        	        	        	        	       0	(  0  0 14)	  0  1
    100.3195	        	        	        	        	       0	(  3  0  4)	  0  1
    101.0003	        	        	        	        	       0	(  2  0 11)	  0  1
    101.8228	        	        	        	        	       0	(  1  1 12)	  0  1
    102.6513	        	        	        	        	       0	(  2  1  8)	  0  1
    103.4119	        	        	        	        	       0	(  3  0  5)	  0  1
    105.5598	        	        	        	        	       0	(  1  0 14)	  0  1
    107.2482	        	        	        	        	       0	(  3  0  6)	  0  1
    108.5899	        	        	        	        	       0	(  2  1  9)	  0  1
    109.0141	        	        	        	        	       0	(  2  0 12)	  0  1
    111.8899	        	        	        	        	       0	(  3  0  7)	  0  1
    115.4891	        	        	        	        	       0	(  2  1 10)	  0  1
    116.0076	        	        	        	        	       0	(  1  0 15)	  0  1
    116.6163	        	        	        	        	       0	(  2  2  0)	  0  1
    117.4451	        	        	        	        	       0	(  3  0  8)	  0  1
    118.1319	        	        	        	        	       0	(  2  2  2)	  0  1
    118.2022	        	        	        	        	       0	(  2  0 13)	  0  1
    119.9704	        	        	        	        	       0	(  0  0 16)	  0  1
    120.6745	        	        	        	        	       0	(  1  1 14)	  0  1
    122.8188	        	        	        	        	       0	(  2  2  4)	  0  1
    123.6194	        	        	        	        	       0	(  2  1 11)	  0  1
    124.1075	        	        	        	        	       0	(  3  0  9)	  0  1
    124.6818	        	        	        	        	       0	(  3  1  0)	  0  1
    125.0922	        	        	        	        	       0	(  3  1  1)	  0  1
    126.3359	        	        	        	        	       0	(  3  1  2)	  0  1
    128.3586	        	        	        	        	       0	(  1  0 16)	  0  1
    128.4548	        	        	        	        	       0	(  3  1  3)	  0  1
    129.1382	        	        	        	        	       0	(  2  0 14)	  0  1
    131.2615	        	        	        	        	       0	(  2  2  6)	  0  1
    131.5317	        	        	        	        	       0	(  3  1  4)	  0  1
    132.2519	        	        	        	        	       0	(  3  0 10)	  0  1
    133.5373	        	        	        	        	       0	(  2  1 12)	  0  1
    135.7202	        	        	        	        	       0	(  3  1  5)	  0  1
    141.3180	        	        	        	        	       0	(  3  1  6)	  0  1
    142.7380	        	        	        	        	       0	(  3  0 11)	  0  1
    143.2927	        	        	        	        	       0	(  2  0 15)	  0  1
    144.5487	        	        	        	        	       0	(  1  0 17)	  0  1
    145.5028	        	        	        	        	       0	(  2  2  8)	  0  1
    146.7062	        	        	        	        	       0	(  2  1 13)	  0  1
    148.9958	        	        	        	        	       0	(  3  1  7)	  0  1
    149.6438	        	        	        	        	       0	(  1  1 16)	  0  1
    154.0777	        	        	        	        	       0	(  0  0 18)	  0  1
    158.6438	        	        	        	        	       0	(  3  0 12)	  0  1
    158.8433	        	        	        	        	       0	(  4  0  0)	  0  1
    159.8009	        	        	        	        	       0	(  4  0  1)	  0  1
    161.0051	        	        	        	        	       0	(  3  1  8)	  0  1
    162.9825	        	        	        	        	       0	(  4  0  2)	  0  1
    169.8985	        	        	        	        	       0	(  2  0 16)	  0  1
    170.3431	        	        	        	        	       0	(  4  0  3)	  0  1
    174.4260	        	        	        	        	       0	(  2  1 14)	  0  1
