MSG Master    CELL:    5.91308   5.91308  23.25230   90.0000   90.0000  120.0000   SPGR: P 63/m m c             TEMP:    968.15
  1   1280     2.52000     0.00000    -0.12777     0.00000     0.00000    0
    99     0     2
       0.00000      10.00000
     125.00000     130.00000
 2Theta	Yobs	Ycal	Yobs-Ycal	Backg	Posr	(hkl)	K
      0.7700	    0.00	  469.45	-1747.00	  356.19
      0.8700	    0.00	  471.00	-1747.00	  357.74
      0.9700	   41.00	  472.53	-1747.00	  359.28
      1.0700	   44.00	  474.05	-1747.00	  360.80
      1.1700	   36.00	  475.55	-1747.00	  362.30
      1.2700	   38.00	  477.04	-1747.00	  363.78
      1.3700	   51.00	  478.51	-1747.00	  365.25
      1.4700	  103.00	  479.96	-1747.00	  366.70
      1.5700	  297.00	  481.39	-1747.00	  368.14
      1.6700	  470.00	  482.81	-1747.00	  369.55
      1.7700	  623.00	  484.21	-1747.00	  370.95
      1.8700	  671.00	  485.59	-1747.00	  372.34
      1.9700	  712.00	  486.96	-1747.00	  373.71
      2.0700	  756.00	  488.32	-1747.00	  375.06
      2.1700	  807.00	  489.65	-1747.00	  376.40
      2.2700	  795.00	  490.97	-1747.00	  377.72
      2.3700	  770.00	  492.28	-1747.00	  379.02
      2.4700	  710.00	  493.57	-1747.00	  380.31
      2.5700	  715.00	  494.84	-1747.00	  381.59
      2.6700	  687.00	  496.10	-1747.00	  382.84
      2.7700	  665.00	  497.34	-1747.00	  384.09
      2.8700	  670.00	  498.57	-1747.00	  385.31
      2.9700	  615.00	  499.78	-1747.00	  386.53
      3.0700	  611.00	  500.98	-1747.00	  387.72
      3.1700	  579.00	  502.16	-1747.00	  388.91
      3.2700	  645.00	  503.33	-1747.00	  390.07
      3.3700	  740.00	  504.48	-1747.00	  391.23
      3.4700	  799.00	  505.62	-1747.00	  392.36
      3.5700	  862.00	  506.74	-1747.00	  393.49
      3.6700	  966.00	  507.85	-1747.00	  394.59
      3.7700	  979.00	  508.94	-1747.00	  395.69
      3.8700	 1075.00	  510.02	-1747.00	  396.77
      3.9700	 1119.00	  511.09	-1747.00	  397.83
      4.0700	 1163.00	  512.14	-1747.00	  398.89
      4.1700	 1202.00	  513.18	-1747.00	  399.92
      4.2700	 1205.00	  514.20	-1747.00	  400.95
      4.3700	 1156.00	  515.21	-1747.00	  401.96
      4.4700	 1110.00	  516.21	-1747.00	  402.95
      4.5700	 1182.00	  517.19	-1747.00	  403.93
      4.6700	 1118.00	  518.16	-1747.00	  404.90
      4.7700	 1057.00	  519.11	-1747.00	  405.86
      4.8700	 1042.00	  520.05	-1747.00	  406.80
      4.9700	  983.00	  520.98	-1747.00	  407.73
      5.0700	  956.00	  521.90	-1747.00	  408.64
      5.1700	  943.00	  522.80	-1747.00	  409.54
      5.2700	  868.00	  523.69	-1747.00	  410.43
      5.3700	  904.00	  524.56	-1747.00	  411.31
      5.4700	  953.00	  525.43	-1747.00	  412.17
      5.5700	  865.00	  526.28	-1747.00	  413.02
      5.6700	  903.00	  527.11	-1747.00	  413.86
      5.7700	  873.00	  527.94	-1747.00	  414.68
      5.8700	  819.00	  528.75	-1747.00	  415.50
      5.9700	  839.00	  529.55	-1747.00	  416.30
      6.0700	  788.00	  530.34	-1747.00	  417.08
      6.1700	  807.00	  531.11	-1747.00	  417.86
      6.2700	  752.00	  531.88	-1747.00	  418.62
      6.3700	  812.00	  532.63	-1747.00	  419.37
      6.4700	  810.00	  533.37	-1747.00	  420.11
      6.5700	  739.00	  534.09	-1747.00	  420.84
      6.6700	  752.00	  534.81	-1747.00	  421.55
      6.7700	  715.00	  535.51	-1747.00	  422.26
      6.8700	  724.00	  536.21	-1747.00	  422.95
      6.9700	  745.00	  536.89	-1747.00	  423.63
      7.0700	  686.00	  537.55	-1747.00	  424.30
      7.1700	  689.00	  538.21	-1747.00	  424.96
      7.2700	  726.00	  538.86	-1747.00	  425.60
      7.3700	  668.00	  539.49	-1747.00	  426.24
      7.4700	  713.00	  540.12	-1747.00	  426.86
      7.5700	  672.00	  540.73	-1747.00	  427.48
      7.6700	  622.00	  541.33	-1747.00	  428.08
      7.7700	  624.00	  541.92	-1747.00	  428.67
      7.8700	  660.00	  542.50	-1747.00	  429.25
      7.9700	  683.00	  543.07	-1747.00	  429.82
      8.0700	  678.00	  543.63	-1747.00	  430.38
      8.1700	  679.00	  544.18	-1747.00	  430.92
      8.2700	  635.00	  544.72	-1747.00	  431.46
      8.3700	  638.00	  545.24	-1747.00	  431.99
      8.4700	  628.00	  545.76	-1747.00	  432.51
      8.5700	  608.00	  546.27	-1747.00	  433.01
      8.6700	  621.00	  546.76	-1747.00	  433.51
      8.7700	  566.00	  547.25	-1747.00	  433.99
      8.8700	  611.00	  547.73	-1747.00	  434.47
      8.9700	  623.00	  548.19	-1747.00	  434.94
      9.0700	  618.00	  548.65	-1747.00	  435.39
      9.1700	  630.00	  549.09	-1747.00	  435.84
      9.2700	  590.00	  549.53	-1747.00	  436.28
      9.3700	  581.00	  549.96	-1747.00	  436.70
      9.4700	  618.00	  550.38	-1747.00	  437.12
      9.5700	  596.00	  550.78	-1747.00	  437.53
      9.6700	  655.00	  551.18	-1747.00	  437.93
      9.7700	  562.00	  551.57	-1747.00	  438.32
      9.8700	  621.00	  551.95	-1747.00	  438.70
      9.9700	  595.00	  552.32	-1747.00	  439.07
     10.0700	  587.00	  554.33	-1714.33	  439.43
     10.1700	  566.00	  554.87	-1735.87	  439.78
     10.2700	  584.00	  555.44	-1718.44	  440.13
     10.3700	  601.00	  556.06	-1702.06	  440.46
     10.4700	  539.00	  556.77	-1764.77	  440.79
     10.5700	  624.00	  557.64	-1680.64	  441.11
     10.6700	  586.00	  558.75	-1719.75	  441.41
     10.7700	  608.00	  560.19	-1699.19	  441.71
     10.8700	  564.00	  562.04	-1745.04	  442.01
     10.9700	  560.00	  564.31	-1751.31	  442.29
     11.0700	  544.00	  567.01	-1770.01	  442.56
     11.1700	  543.00	  570.13	-1774.13	  442.83
     11.2700	  552.00	  573.73	-1768.73	  443.09
     11.3700	  583.00	  577.89	-1741.89	  443.34
     11.4700	  600.00	  582.76	-1729.76	  443.58
     11.5700	  589.00	  588.57	-1746.57	  443.81
     11.6700	  585.00	  595.67	-1757.67	  444.04
     11.7700	  635.00	  604.52	-1716.52	  444.26
     11.8700	  658.00	  615.47	-1704.47	  444.47
     11.9700	  599.00	  628.18	-1776.18	  444.67
     12.0700	  680.00	  640.71	-1707.71	  444.87
     12.1700	  706.00	  648.71	-1689.71	  445.05
     12.2700	  701.00	  646.07	-1692.07	  445.23
     12.3700	  649.00	  630.63	-1728.63	  445.40
     12.4700	  645.00	  609.87	-1711.87	  445.57
     12.5700	  530.00	  592.11	-1809.11	  445.73
     12.6700	  612.00	  580.00	-1715.00	  445.88
     12.7700	  534.00	  572.80	-1785.80	  446.02
     12.8700	  559.00	  568.82	-1756.82	  446.15
     12.9700	  557.00	  566.60	-1756.60	  446.28
     13.0700	  573.00	  565.27	-1739.27	  446.40
     13.1700	  551.00	  564.39	-1760.40	  446.52
     13.2700	  579.00	  563.77	-1731.77	  446.63
     13.3700	  554.00	  563.31	-1756.31	  446.73
     13.4700	  527.00	  562.97	-1782.97	  446.82
     13.5700	  535.00	  562.70	-1774.70	  446.91
     13.6700	  554.00	  562.50	-1755.50	  446.99
     13.7700	  497.00	  562.33	-1812.33	  447.06
     13.8700	  540.00	  562.20	-1769.20	  447.13
     13.9700	  556.00	  562.10	-1753.10	  447.19
     14.0700	  514.00	  562.01	-1795.01	  447.25
     14.1700	  490.00	  561.97	-1818.97	  447.30
     14.2700	  563.00	  561.91	-1745.91	  447.34
     14.3700	  536.00	  561.85	-1772.85	  447.37
     14.4700	  571.00	  561.81	-1737.81	  447.40
     14.5700	  536.00	  561.76	-1772.76	  447.43
     14.6700	  574.00	  561.72	-1734.72	  447.45
     14.7700	  590.00	  561.67	-1718.67	  447.46
     14.8700	  568.00	  561.63	-1740.63	  447.46
     14.9700	  524.00	  561.59	-1784.59	  447.46
     15.0700	  550.00	  561.54	-1758.54	  447.46
     15.1700	  564.00	  561.50	-1744.50	  447.45
     15.2700	  511.00	  561.45	-1797.45	  447.43
     15.3700	  564.00	  561.40	-1744.40	  447.41
     15.4700	  553.00	  561.34	-1755.34	  447.38
     15.5700	  549.00	  561.29	-1759.29	  447.34
     15.6700	  550.00	  561.22	-1758.22	  447.31
     15.7700	  561.00	  561.16	-1747.16	  447.26
     15.8700	  562.00	  561.09	-1746.09	  447.21
     15.9700	  558.00	  561.02	-1750.02	  447.16
     16.0700	  560.00	  560.95	-1747.95	  447.10
     16.1700	  552.00	  560.87	-1755.87	  447.03
     16.2700	  573.00	  560.78	-1734.78	  446.96
     16.3700	  577.00	  560.70	-1730.70	  446.88
     16.4700	  556.00	  560.60	-1751.60	  446.80
     16.5700	  590.00	  560.51	-1717.51	  446.72
     16.6700	  560.00	  560.41	-1747.41	  446.63
     16.7700	  564.00	  560.31	-1743.31	  446.53
     16.8700	  528.00	  560.20	-1779.20	  446.43
     16.9700	  536.00	  560.09	-1771.09	  446.33
     17.0700	  583.00	  559.97	-1723.97	  446.22
     17.1700	  548.00	  559.85	-1758.85	  446.11
     17.2700	  556.00	  559.73	-1750.73	  445.99
     17.3700	  538.00	  559.60	-1768.60	  445.87
     17.4700	  555.00	  559.47	-1751.47	  445.74
     17.5700	  540.00	  559.33	-1766.33	  445.61
     17.6700	  577.00	  559.19	-1729.19	  445.47
     17.7700	  572.00	  559.05	-1734.05	  445.33
     17.8700	  547.00	  559.00	-1759.00	  445.19
     17.9700	  532.00	  558.85	-1773.85	  445.04
     18.0700	  519.00	  558.70	-1786.70	  444.89
     18.1700	  557.00	  558.54	-1748.54	  444.73
     18.2700	  553.00	  558.38	-1752.38	  444.57
     18.3700	  588.00	  558.31	-1717.31	  444.41
     18.4700	  541.00	  558.14	-1764.14	  444.24
     18.5700	  561.00	  557.97	-1743.97	  444.06
     18.6700	  574.00	  557.80	-1730.80	  443.89
     18.7700	  549.00	  557.63	-1755.63	  443.71
     18.8700	  569.00	  557.45	-1735.45	  443.53
     18.9700	  526.00	  557.26	-1778.26	  443.34
     19.0700	  523.00	  557.08	-1781.08	  443.15
     19.1700	  545.00	  556.89	-1758.89	  442.95
     19.2700	  556.00	  556.70	-1747.70	  442.75
     19.3700	  559.00	  556.50	-1744.50	  442.55
     19.4700	  532.00	  556.31	-1771.31	  442.35
     19.5700	  580.00	  556.11	-1723.11	  442.14
     19.6700	  557.00	  555.90	-1745.90	  441.93
     19.7700	  503.00	  555.70	-1799.70	  441.71
     19.8700	  536.00	  555.49	-1766.49	  441.50
     19.9700	  552.00	  555.31	-1750.31	  441.27
     20.0700	  524.00	  555.10	-1778.10	  441.05
     20.1700	  546.00	  554.88	-1755.88	  440.82
     20.2700	  553.00	  554.67	-1748.67	  440.59
     20.3700	  566.00	  554.45	-1735.45	  440.36
     20.4700	  532.00	  554.23	-1769.23	  440.12
     20.5700	  546.00	  554.00	-1755.00	  439.88
     20.6700	  558.00	  553.78	-1742.78	  439.64
     20.7700	  529.00	  553.55	-1771.55	  439.40
     20.8700	  569.00	  553.32	-1731.32	  439.15
     20.9700	  558.00	  553.09	-1742.09	  438.90
     21.0700	  537.00	  552.86	-1762.86	  438.64
     21.1700	  534.00	  552.63	-1765.63	  438.39
     21.2700	  519.00	  552.40	-1780.40	  438.13
     21.3700	  579.00	  552.16	-1720.16	  437.87
     21.4700	  520.00	  551.93	-1778.93	  437.61
     21.5700	  547.00	  551.69	-1751.69	  437.34
     21.6700	  547.00	  551.46	-1751.46	  437.07
     21.7700	  541.00	  551.22	-1757.22	  436.80
     21.8700	  551.00	  550.99	-1746.99	  436.53
     21.9700	  547.00	  550.76	-1750.76	  436.25
     22.0700	  506.00	  550.53	-1791.53	  435.97
     22.1700	  553.00	  550.30	-1744.30	  435.69
     22.2700	  561.00	  550.07	-1736.07	  435.41
     22.3700	  534.00	  549.85	-1762.85	  435.13
     22.4700	  527.00	  549.63	-1769.63	  434.84
     22.5700	  568.00	  549.58	-1728.58	  434.55
     22.6700	  603.00	  549.34	-1693.34	  434.26
     22.7700	  566.00	  549.15	-1730.15	  433.97
     22.8700	  550.00	  548.97	-1745.97	  433.68
     22.9700	  568.00	  548.80	-1727.80	  433.38
     23.0700	  535.00	  548.65	-1760.65	  433.08
     23.1700	  538.00	  548.53	-1757.53	  432.78
     23.2700	  512.00	  548.44	-1783.44	  432.48
     23.3700	  563.00	  548.38	-1732.38	  432.18
     23.4700	  574.00	  548.38	-1721.38	  431.87
     23.5700	  598.00	  548.44	-1697.44	  431.56
     23.6700	  582.00	  548.61	-1713.61	  431.26
     23.7700	  575.00	  548.94	-1720.94	  430.94
     23.8700	  609.00	  549.55	-1687.55	  430.63
     23.9700	  554.00	  550.62	-1743.62	  430.32
     24.0700	  577.00	  552.48	-1722.48	  430.01
     24.1700	  599.00	  555.62	-1703.62	  429.69
     24.2700	  559.00	  560.61	-1748.61	  429.37
     24.3700	  614.00	  568.01	-1701.01	  429.05
     24.4700	  614.00	  578.09	-1711.09	  428.73
     24.5700	  586.00	  590.38	-1751.38	  428.41
     24.6700	  646.00	  602.97	-1703.97	  428.09
     24.7700	  608.00	  611.91	-1750.91	  427.76
     24.8700	  633.00	  611.85	-1725.85	  427.44
     24.9700	  645.00	  600.85	-1702.85	  427.11
     25.0700	  614.00	  584.67	-1717.67	  426.78
     25.1700	  549.00	  570.03	-1768.03	  426.46
     25.2700	  596.00	  559.51	-1710.51	  426.13
     25.3700	  603.00	  552.91	-1696.91	  425.79
     25.4700	  605.00	  549.07	-1691.07	  425.46
     25.5700	  569.00	  546.85	-1724.85	  425.13
     25.6700	  582.00	  545.47	-1710.47	  424.80
     25.7700	  535.00	  544.53	-1756.53	  424.46
     25.8700	  540.00	  543.83	-1750.83	  424.13
     25.9700	  584.00	  543.30	-1706.30	  423.79
     26.0700	  548.00	  542.91	-1741.91	  423.45
     26.1700	  542.00	  542.61	-1747.61	  423.12
     26.2700	  522.00	  542.42	-1767.42	  422.78
     26.3700	  585.00	  542.31	-1704.31	  422.44
     26.4700	  543.00	  542.31	-1746.31	  422.10
     26.5700	  572.00	  542.40	-1717.40	  421.76
     26.6700	  540.00	  542.61	-1749.61	  421.42
     26.7700	  587.00	  542.96	-1702.96	  421.07
     26.8700	  560.00	  543.47	-1730.47	  420.73
     26.9700	  545.00	  544.21	-1746.21	  420.39
     27.0700	  537.00	  545.22	-1755.22	  420.04
     27.1700	  531.00	  546.63	-1762.63	  419.70
     27.2700	  529.00	  548.65	-1766.65	  419.36
     27.3700	  590.00	  551.68	-1708.68	  419.01
     27.4700	  586.00	  556.50	-1717.50	  418.67
     27.5700	  553.00	  564.56	-1758.56	  418.32
     27.6700	  617.00	  578.14	-1708.14	  417.97
     27.7700	  563.00	  600.39	-1784.39	  417.63
     27.8700	  653.00	  634.35	-1728.35	  417.28
     27.9700	  644.00	  680.95	-1783.95	  416.94
     28.0700	  682.00	  736.34	-1801.34	  416.59
     28.1700	  840.00	  789.22	-1696.22	  416.24
     28.2700	  942.00	  820.45	-1625.45	  415.89
     28.3700	  885.00	  813.06	-1675.06	  415.55
     28.4700	  813.00	  776.90	-1710.90	  415.20
     28.5700	  751.00	  743.93	-1739.93	  414.85
     28.6700	  735.00	  734.22	-1746.22	  414.50
     28.7700	  738.00	  748.11	-1757.11	  414.16
     28.8700	  789.00	  771.70	-1729.70	  413.81
     28.9700	  761.00	  782.32	-1768.32	  413.46
     29.0700	  801.00	  760.15	-1706.15	  413.11
     29.1700	  688.00	  709.46	-1768.46	  412.77
     29.2700	  655.00	  653.94	-1745.94	  412.42
     29.3700	  578.00	  609.60	-1778.60	  412.07
     29.4700	  566.00	  579.99	-1760.99	  411.73
     29.5700	  535.00	  562.49	-1774.49	  411.38
     29.6700	  580.00	  552.68	-1719.68	  411.03
     29.7700	  572.00	  547.09	-1722.09	  410.69
     29.8700	  556.00	  543.70	-1734.70	  410.34
     29.9700	  557.00	  541.54	-1731.54	  409.99
     30.0700	  538.00	  540.31	-1749.31	  409.65
     30.1700	  587.00	  540.00	-1700.00	  409.30
     30.2700	  597.00	  540.97	-1690.97	  408.96
     30.3700	  560.00	  543.86	-1730.86	  408.61
     30.4700	  535.00	  549.67	-1761.67	  408.27
     30.5700	  555.00	  559.44	-1751.44	  407.93
     30.6700	  581.00	  573.47	-1739.47	  407.58
     30.7700	  603.00	  590.36	-1734.36	  407.24
     30.8700	  642.00	  606.24	-1711.24	  406.90
     30.9700	  624.00	  614.69	-1737.69	  406.56
     31.0700	  592.00	  609.67	-1764.67	  406.22
     31.1700	  597.00	  592.64	-1742.64	  405.87
     31.2700	  582.00	  572.31	-1737.31	  405.53
     31.3700	  574.00	  555.20	-1728.20	  405.19
     31.4700	  568.00	  543.31	-1722.31	  404.86
     31.5700	  540.00	  536.01	-1743.01	  404.52
     31.6700	  559.00	  531.85	-1719.85	  404.18
     31.7700	  515.00	  529.49	-1761.49	  403.84
     31.8700	  518.00	  528.08	-1757.08	  403.51
     31.9700	  502.00	  527.16	-1772.16	  403.17
     32.0700	  556.00	  526.56	-1717.56	  402.84
     32.1700	  518.00	  526.20	-1755.20	  402.50
     32.2700	  558.00	  526.03	-1715.03	  402.17
     32.3700	  555.00	  526.06	-1718.06	  401.84
     32.4700	  546.00	  526.29	-1727.29	  401.50
     32.5700	  544.00	  526.75	-1729.75	  401.17
     32.6700	  555.00	  527.47	-1719.47	  400.84
     32.7700	  486.00	  528.51	-1789.51	  400.51
     32.8700	  527.00	  529.97	-1749.97	  400.19
     32.9700	  491.00	  532.00	-1788.00	  399.86
     33.0700	  503.00	  534.88	-1778.88	  399.53
     33.1700	  555.00	  539.14	-1731.14	  399.21
     33.2700	  605.00	  545.90	-1687.90	  398.88
     33.3700	  505.00	  557.27	-1799.27	  398.56
     33.4700	  595.00	  576.94	-1728.94	  398.24
     33.5700	  594.00	  610.23	-1763.23	  397.91
     33.6700	  637.00	  662.93	-1772.93	  397.59
     33.7700	  731.00	  737.53	-1753.53	  397.27
     33.8700	  814.00	  828.08	-1761.08	  396.96
     33.9700	  952.00	  915.89	-1710.89	  396.64
     34.0700	 1004.00	  969.59	-1712.59	  396.32
     34.1700	 1085.00	  957.91	-1619.91	  396.01
     34.2700	  933.00	  882.29	-1696.29	  395.69
     34.3700	  779.00	  781.74	-1749.74	  395.38
     34.4700	  678.00	  691.34	-1760.34	  395.07
     34.5700	  673.00	  624.90	-1698.90	  394.76
     34.6700	  587.00	  582.22	-1742.22	  394.45
     34.7700	  546.00	  557.18	-1758.18	  394.14
     34.8700	  529.00	  542.93	-1760.93	  393.83
     34.9700	  533.00	  534.49	-1748.49	  393.53
     35.0700	  526.00	  528.98	-1749.98	  393.22
     35.1700	  504.00	  525.02	-1768.02	  392.92
     35.2700	  508.00	  521.97	-1760.97	  392.62
     35.3700	  535.00	  519.52	-1731.52	  392.32
     35.4700	  497.00	  517.51	-1767.51	  392.02
     35.5700	  533.00	  515.83	-1729.83	  391.72
     35.6700	  512.00	  514.39	-1749.39	  391.42
     35.7700	  519.00	  513.13	-1741.13	  391.13
     35.8700	  522.00	  512.52	-1737.52	  390.83
     35.9700	  472.00	  511.58	-1786.58	  390.54
     36.0700	  490.00	  510.74	-1767.74	  390.25
     36.1700	  520.00	  509.99	-1736.99	  389.96
     36.2700	  492.00	  509.32	-1764.32	  389.67
     36.3700	  517.00	  508.72	-1738.72	  389.38
     36.4700	  523.00	  508.18	-1732.18	  389.10
     36.5700	  485.00	  507.69	-1769.69	  388.81
     36.6700	  478.00	  507.28	-1776.28	  388.53
     36.7700	  524.00	  506.94	-1729.94	  388.25
     36.8700	  508.00	  506.71	-1745.71	  387.97
     36.9700	  514.00	  506.65	-1739.65	  387.69
     37.0700	  481.00	  506.87	-1772.87	  387.41
     37.1700	  507.00	  507.56	-1747.56	  387.14
     37.2700	  508.00	  508.92	-1747.92	  386.86
     37.3700	  527.00	  511.10	-1731.10	  386.59
     37.4700	  520.00	  514.02	-1741.02	  386.32
     37.5700	  540.00	  517.22	-1724.22	  386.05
     37.6700	  524.00	  519.74	-1742.74	  385.78
     37.7700	  524.00	  520.36	-1743.36	  385.52
     37.8700	  520.00	  518.66	-1745.66	  385.25
     37.9700	  507.00	  515.08	-1755.08	  384.99
     38.0700	  507.00	  511.17	-1751.17	  384.73
     38.1700	  524.00	  507.78	-1730.78	  384.47
     38.2700	  496.00	  505.17	-1756.17	  384.21
     38.3700	  510.00	  503.34	-1740.34	  383.95
     38.4700	  534.00	  502.09	-1715.09	  383.70
     38.5700	  477.00	  501.23	-1771.23	  383.44
     38.6700	  514.00	  500.61	-1733.61	  383.19
     38.7700	  523.00	  500.12	-1724.12	  382.94
     38.8700	  484.00	  499.71	-1762.71	  382.69
     38.9700	  454.00	  499.25	-1792.25	  382.45
     39.0700	  503.00	  498.92	-1742.92	  382.20
     39.1700	  480.00	  498.61	-1765.61	  381.96
     39.2700	  468.00	  498.33	-1777.33	  381.72
     39.3700	  534.00	  498.06	-1711.06	  381.48
     39.4700	  487.00	  497.81	-1757.81	  381.24
     39.5700	  482.00	  497.57	-1762.57	  381.00
     39.6700	  511.00	  497.35	-1733.35	  380.77
     39.7700	  527.00	  497.13	-1717.13	  380.53
     39.8700	  494.00	  496.85	-1749.85	  380.30
     39.9700	  460.00	  496.66	-1783.66	  380.07
     40.0700	  493.00	  496.49	-1750.49	  379.84
     40.1700	  491.00	  496.33	-1752.33	  379.62
     40.2700	  494.00	  496.18	-1749.18	  379.39
     40.3700	  493.00	  496.05	-1750.05	  379.17
     40.4700	  513.00	  495.93	-1729.93	  378.95
     40.5700	  509.00	  496.34	-1734.34	  378.73
     40.6700	  475.00	  496.27	-1768.27	  378.51
     40.7700	  490.00	  496.23	-1753.23	  378.30
     40.8700	  485.00	  496.22	-1758.22	  378.09
     40.9700	  521.00	  496.24	-1722.24	  377.87
     41.0700	  514.00	  496.30	-1729.30	  377.66
     41.1700	  469.00	  496.42	-1774.42	  377.45
     41.2700	  471.00	  496.59	-1772.59	  377.25
     41.3700	  477.00	  496.85	-1766.85	  377.04
     41.4700	  506.00	  497.22	-1738.22	  376.84
     41.5700	  487.00	  497.73	-1757.73	  376.64
     41.6700	  466.00	  498.46	-1779.46	  376.44
     41.7700	  443.00	  499.55	-1803.55	  376.24
     41.8700	  507.00	  501.30	-1741.30	  376.05
     41.9700	  480.00	  504.25	-1771.25	  375.85
     42.0700	  518.00	  509.30	-1738.30	  375.66
     42.1700	  511.00	  517.77	-1753.77	  375.47
     42.2700	  486.00	  530.91	-1791.91	  375.29
     42.3700	  484.00	  549.56	-1812.56	  375.10
     42.4700	  546.00	  572.74	-1773.74	  374.91
     42.5700	  609.00	  597.01	-1735.01	  374.73
     42.6700	  575.00	  615.73	-1787.73	  374.55
     42.7700	  596.00	  621.05	-1772.05	  374.37
     42.8700	  552.00	  609.69	-1804.69	  374.20
     42.9700	  608.00	  587.02	-1726.02	  374.02
     43.0700	  548.00	  561.77	-1760.77	  373.85
     43.1700	  504.00	  539.93	-1782.93	  373.68
     43.2700	  506.00	  523.36	-1764.36	  373.51
     43.3700	  491.00	  512.19	-1768.19	  373.34
     43.4700	  569.00	  505.25	-1683.25	  373.18
     43.5700	  465.00	  501.12	-1783.12	  373.01
     43.6700	  513.00	  498.64	-1732.64	  372.85
     43.7700	  500.00	  497.06	-1744.06	  372.69
     43.8700	  497.00	  495.97	-1745.97	  372.53
     43.9700	  520.00	  495.15	-1722.15	  372.38
     44.0700	  477.00	  494.52	-1764.52	  372.22
     44.1700	  499.00	  494.00	-1742.00	  372.07
     44.2700	  507.00	  493.64	-1733.64	  371.92
     44.3700	  470.00	  493.30	-1770.30	  371.77
     44.4700	  492.00	  493.23	-1748.23	  371.62
     44.5700	  511.00	  493.01	-1729.01	  371.48
     44.6700	  475.00	  492.84	-1764.84	  371.34
     44.7700	  502.00	  492.70	-1737.70	  371.20
     44.8700	  496.00	  492.60	-1743.60	  371.06
     44.9700	  496.00	  492.53	-1743.53	  370.92
     45.0700	  544.00	  492.50	-1695.50	  370.79
     45.1700	  468.00	  492.49	-1771.49	  370.65
     45.2700	  510.00	  492.51	-1729.51	  370.52
     45.3700	  518.00	  492.56	-1721.56	  370.39
     45.4700	  504.00	  492.63	-1735.63	  370.26
     45.5700	  496.00	  492.74	-1743.74	  370.14
     45.6700	  452.00	  492.88	-1787.88	  370.01
     45.7700	  509.00	  493.04	-1731.04	  369.89
     45.8700	  475.00	  493.09	-1765.09	  369.77
     45.9700	  519.00	  493.41	-1721.41	  369.65
     46.0700	  448.00	  493.69	-1792.69	  369.54
     46.1700	  495.00	  494.03	-1746.03	  369.42
     46.2700	  503.00	  494.47	-1738.47	  369.31
     46.3700	  460.00	  494.92	-1781.92	  369.20
     46.4700	  505.00	  495.45	-1737.45	  369.09
     46.5700	  515.00	  496.07	-1728.07	  368.99
     46.6700	  463.00	  496.80	-1780.80	  368.88
     46.7700	  468.00	  497.69	-1776.69	  368.78
     46.8700	  461.00	  498.80	-1784.80	  368.68
     46.9700	  482.00	  500.28	-1765.28	  368.58
     47.0700	  504.00	  502.40	-1745.40	  368.48
     47.1700	  477.00	  505.58	-1775.58	  368.39
     47.2700	  533.00	  510.48	-1724.48	  368.29
     47.3700	  564.00	  517.88	-1700.88	  368.20
     47.4700	  533.00	  528.44	-1742.44	  368.11
     47.5700	  558.00	  542.35	-1731.35	  368.02
     47.6700	  519.00	  558.75	-1786.75	  367.94
     47.7700	  603.00	  575.27	-1719.27	  367.85
     47.8700	  594.00	  587.88	-1740.88	  367.77
     47.9700	  576.00	  592.21	-1763.21	  367.69
     48.0700	  583.00	  586.80	-1750.80	  367.61
     48.1700	  574.00	  574.77	-1747.77	  367.53
     48.2700	  545.00	  560.97	-1762.97	  367.46
     48.3700	  556.00	  548.90	-1739.90	  367.39
     48.4700	  525.00	  540.64	-1762.64	  367.31
     48.5700	  572.00	  535.80	-1710.80	  367.25
     48.6700	  528.00	  534.41	-1753.41	  367.18
     48.7700	  535.00	  535.86	-1747.86	  367.11
     48.8700	  538.00	  539.64	-1748.64	  367.05
     48.9700	  505.00	  545.54	-1787.54	  366.99
     49.0700	  586.00	  553.84	-1714.84	  366.92
     49.1700	  559.00	  565.57	-1753.57	  366.87
     49.2700	  562.00	  583.06	-1768.06	  366.81
     49.3700	  625.00	  610.90	-1732.90	  366.75
     49.4700	  590.00	  657.26	-1814.26	  366.70
     49.5700	  682.00	  734.59	-1799.59	  366.65
     49.6700	  834.00	  858.69	-1771.69	  366.60
     49.7700	 1024.00	 1044.51	-1767.51	  366.55
     49.8700	 1203.00	 1298.28	-1842.28	  366.51
     49.9700	 1671.00	 1607.57	-1683.57	  366.46
     50.0700	 1947.00	 1931.20	-1731.20	  366.42
     50.1700	 2315.00	 2194.79	-1626.79	  366.38
     50.2700	 2254.00	 2307.55	-1800.55	  366.34
     50.3700	 2293.00	 2218.66	-1672.66	  366.30
     50.4700	 2036.00	 1967.22	-1678.22	  366.27
     50.5700	 1620.00	 1646.70	-1773.70	  366.23
     50.6700	 1212.00	 1337.33	-1872.33	  366.20
     50.7700	  989.00	 1083.61	-1841.61	  366.17
     50.8700	  768.00	  899.84	-1878.84	  366.14
     50.9700	  734.00	  779.94	-1792.94	  366.12
     51.0700	  696.00	  707.88	-1758.88	  366.09
     51.1700	  643.00	  664.74	-1768.74	  366.07
     51.2700	  646.00	  636.14	-1737.14	  366.04
     51.3700	  598.00	  613.78	-1762.78	  366.02
     51.4700	  566.00	  594.73	-1775.73	  366.01
     51.5700	  541.00	  578.61	-1784.61	  365.99
     51.6700	  547.00	  565.56	-1765.56	  365.97
     51.7700	  569.00	  555.58	-1733.58	  365.96
     51.8700	  527.00	  548.44	-1768.44	  365.95
     51.9700	  534.00	  543.71	-1756.71	  365.94
     52.0700	  558.00	  540.96	-1729.96	  365.93
     52.1700	  503.00	  539.83	-1783.83	  365.92
     52.2700	  574.00	  540.14	-1713.14	  365.92
     52.3700	  592.00	  541.99	-1696.99	  365.91
     52.4700	  574.00	  545.84	-1718.84	  365.91
     52.5700	  559.00	  552.73	-1740.73	  365.91
     52.6700	  573.00	  564.61	-1738.61	  365.91
     52.7700	  602.00	  584.56	-1729.56	  365.92
     52.8700	  655.00	  616.83	-1708.83	  365.92
     52.9700	  679.00	  666.22	-1734.22	  365.93
     53.0700	  798.00	  736.65	-1685.65	  365.93
     53.1700	  817.00	  828.98	-1758.98	  365.94
     53.2700	 1012.00	  938.33	-1673.33	  365.95
     53.3700	 1085.00	 1051.61	-1713.61	  365.96
     53.4700	 1165.00	 1145.96	-1727.96	  365.98
     53.5700	 1157.00	 1192.93	-1782.93	  365.99
     53.6700	 1211.00	 1173.98	-1709.98	  366.01
     53.7700	 1084.00	 1096.62	-1759.62	  366.03
     53.8700	  987.00	  987.98	-1747.98	  366.05
     53.9700	  844.00	  874.96	-1777.96	  366.07
     54.0700	  773.00	  774.87	-1748.87	  366.09
     54.1700	  685.00	  695.65	-1757.65	  366.12
     54.2700	  605.00	  638.47	-1780.47	  366.14
     54.3700	  587.00	  600.36	-1760.36	  366.17
     54.4700	  598.00	  576.61	-1725.61	  366.20
     54.5700	  572.00	  562.58	-1737.58	  366.23
     54.6700	  556.00	  554.65	-1745.65	  366.26
     54.7700	  592.00	  550.42	-1705.42	  366.29
     54.8700	  562.00	  548.48	-1733.48	  366.33
     54.9700	  562.00	  548.10	-1733.10	  366.36
     55.0700	  570.00	  548.93	-1725.93	  366.40
     55.1700	  576.00	  550.85	-1721.85	  366.44
     55.2700	  596.00	  553.86	-1704.86	  366.48
     55.3700	  537.00	  558.05	-1768.05	  366.52
     55.4700	  584.00	  563.63	-1726.63	  366.56
     55.5700	  546.00	  571.00	-1772.00	  366.60
     55.6700	  607.00	  580.91	-1720.91	  366.65
     55.7700	  659.00	  594.81	-1682.81	  366.70
     55.8700	  615.00	  615.42	-1747.42	  366.74
     55.9700	  603.00	  647.50	-1791.50	  366.79
     56.0700	  676.00	  698.70	-1769.70	  366.84
     56.1700	  757.00	  779.83	-1769.83	  366.90
     56.2700	  810.00	  904.09	-1841.09	  366.95
     56.3700	 1056.00	 1083.90	-1774.90	  367.00
     56.4700	 1311.00	 1326.02	-1762.02	  367.06
     56.5700	 1574.00	 1625.30	-1798.30	  367.12
     56.6700	 1914.00	 1958.11	-1791.11	  367.17
     56.7700	 2223.00	 2277.41	-1801.41	  367.23
     56.8700	 2563.00	 2512.76	-1696.76	  367.29
     56.9700	 2515.00	 2591.21	-1823.21	  367.36
     57.0700	 2391.00	 2483.11	-1839.11	  367.42
     57.1700	 2261.00	 2228.38	-1714.38	  367.48
     57.2700	 1979.00	 1903.50	-1671.50	  367.55
     57.3700	 1517.00	 1576.21	-1806.21	  367.62
     57.4700	 1274.00	 1289.20	-1762.20	  367.68
     57.5700	  999.00	 1062.24	-1810.24	  367.75
     57.6700	  886.00	  898.15	-1759.15	  367.82
     57.7700	  808.00	  789.07	-1728.07	  367.89
     57.8700	  758.00	  723.01	-1712.01	  367.97
     57.9700	  703.00	  688.46	-1732.46	  368.04
     58.0700	  743.00	  677.06	-1681.06	  368.11
     58.1700	  688.00	  684.06	-1743.06	  368.19
     58.2700	  725.00	  707.53	-1729.53	  368.27
     58.3700	  730.00	  746.91	-1763.91	  368.34
     58.4700	  785.00	  801.44	-1763.44	  368.42
     58.5700	  882.00	  868.75	-1733.75	  368.50
     58.6700	  925.00	  943.51	-1765.51	  368.58
     58.7700	 1149.00	 1017.71	-1615.71	  368.67
     58.8700	 1164.00	 1083.58	-1666.58	  368.75
     58.9700	 1287.00	 1136.74	-1596.74	  368.83
     59.0700	 1363.00	 1174.20	-1558.20	  368.92
     59.1700	 1420.00	 1191.65	-1518.65	  369.00
     59.2700	 1270.00	 1187.30	-1664.30	  369.09
     59.3700	 1327.00	 1167.48	-1587.48	  369.18
     59.4700	 1230.00	 1143.88	-1660.88	  369.27
     59.5700	 1234.00	 1126.55	-1639.55	  369.36
     59.6700	 1130.00	 1122.44	-1739.44	  369.45
     59.7700	 1193.00	 1138.12	-1692.12	  369.54
     59.8700	 1176.00	 1179.89	-1750.89	  369.63
     59.9700	 1294.00	 1249.05	-1702.05	  369.73
     60.0700	 1347.00	 1337.45	-1737.45	  369.82
     60.1700	 1496.00	 1426.02	-1677.02	  369.91
     60.2700	 1508.00	 1486.48	-1725.48	  370.01
     60.3700	 1594.00	 1490.87	-1643.87	  370.11
     60.4700	 1489.00	 1428.41	-1686.41	  370.21
     60.5700	 1363.00	 1313.35	-1697.35	  370.30
     60.6700	 1181.00	 1172.95	-1738.95	  370.40
     60.7700	 1082.00	 1032.17	-1697.17	  370.50
     60.8700	  867.00	  907.76	-1787.76	  370.60
     60.9700	  760.00	  808.52	-1795.52	  370.71
     61.0700	  704.00	  737.21	-1780.21	  370.81
     61.1700	  706.00	  692.77	-1733.77	  370.91
     61.2700	  630.00	  672.77	-1789.77	  371.02
     61.3700	  668.00	  675.45	-1754.45	  371.12
     61.4700	  714.00	  700.66	-1733.66	  371.23
     61.5700	  742.00	  749.70	-1754.70	  371.33
     61.6700	  763.00	  824.06	-1808.06	  371.44
     61.7700	  921.00	  923.38	-1749.38	  371.55
     61.8700	 1015.00	 1043.28	-1775.28	  371.65
     61.9700	 1083.00	 1173.38	-1837.38	  371.76
     62.0700	 1214.00	 1296.05	-1829.05	  371.87
     62.1700	 1367.00	 1386.86	-1766.86	  371.98
     62.2700	 1322.00	 1420.98	-1845.98	  372.09
     62.3700	 1322.00	 1386.80	-1811.80	  372.21
     62.4700	 1199.00	 1294.77	-1842.77	  372.32
     62.5700	 1076.00	 1169.54	-1840.54	  372.43
     62.6700	 1011.00	 1035.71	-1771.71	  372.54
     62.7700	  854.00	  911.05	-1804.05	  372.66
     62.8700	  740.00	  805.79	-1812.79	  372.77
     62.9700	  711.00	  723.84	-1759.84	  372.89
     63.0700	  626.00	  664.46	-1785.46	  373.00
     63.1700	  637.00	  624.16	-1734.16	  373.12
     63.2700	  564.00	  598.48	-1781.48	  373.23
     63.3700	  548.00	  583.24	-1782.24	  373.35
     63.4700	  567.00	  575.40	-1755.40	  373.47
     63.5700	  631.00	  573.15	-1689.15	  373.59
     63.6700	  588.00	  575.96	-1734.96	  373.70
     63.7700	  578.00	  584.31	-1753.31	  373.82
     63.8700	  576.00	  599.42	-1770.42	  373.94
     63.9700	  649.00	  622.83	-1720.83	  374.06
     64.0700	  695.00	  655.94	-1707.94	  374.18
     64.1700	  732.00	  699.32	-1714.32	  374.30
     64.2700	  809.00	  752.08	-1690.08	  374.42
     64.3700	  859.00	  811.16	-1699.16	  374.54
     64.4700	  930.00	  870.84	-1687.84	  374.66
     64.5700	  979.00	  922.60	-1690.60	  374.79
     64.6700	  950.00	  957.11	-1754.11	  374.91
     64.7700	 1028.00	  967.73	-1686.73	  375.03
     64.8700	  934.00	  953.09	-1766.09	  375.15
     64.9700	  966.00	  918.53	-1699.53	  375.28
     65.0700	  883.00	  871.15	-1735.15	  375.40
     65.1700	  840.00	  819.14	-1726.14	  375.52
     65.2700	  768.00	  769.11	-1748.11	  375.65
     65.3700	  751.00	  724.41	-1720.41	  375.77
     65.4700	  665.00	  686.34	-1768.34	  375.90
     65.5700	  629.00	  654.74	-1772.74	  376.02
     65.6700	  594.00	  629.10	-1782.10	  376.15
     65.7700	  607.00	  608.90	-1748.90	  376.27
     65.8700	  549.00	  593.52	-1791.52	  376.40
     65.9700	  580.00	  582.25	-1749.25	  376.52
     66.0700	  575.00	  574.45	-1746.45	  376.65
     66.1700	  590.00	  569.53	-1726.53	  376.77
     66.2700	  512.00	  567.07	-1802.07	  376.90
     66.3700	  545.00	  566.74	-1768.74	  377.02
     66.4700	  573.00	  568.34	-1742.34	  377.15
     66.5700	  589.00	  571.99	-1729.99	  377.27
     66.6700	  562.00	  577.78	-1762.78	  377.40
     66.7700	  580.00	  586.30	-1753.30	  377.53
     66.8700	  597.00	  598.99	-1748.99	  377.65
     66.9700	  620.00	  618.15	-1745.15	  377.78
     67.0700	  643.00	  647.35	-1751.35	  377.91
     67.1700	  660.00	  691.64	-1778.64	  378.03
     67.2700	  744.00	  757.48	-1760.48	  378.16
     67.3700	  848.00	  852.20	-1751.20	  378.29
     67.4700	  959.00	  982.29	-1770.29	  378.41
     67.5700	 1123.00	 1151.99	-1775.99	  378.54
     67.6700	 1369.00	 1360.44	-1738.44	  378.66
     67.7700	 1586.00	 1599.49	-1760.49	  378.79
     67.8700	 1890.00	 1851.90	-1708.90	  378.92
     67.9700	 2143.00	 2089.87	-1693.87	  379.04
     68.0700	 2291.00	 2276.15	-1732.15	  379.17
     68.1700	 2332.00	 2371.27	-1786.27	  379.29
     68.2700	 2207.00	 2350.67	-1890.67	  379.42
     68.3700	 2253.00	 2219.96	-1713.96	  379.55
     68.4700	 2060.00	 2011.23	-1698.23	  379.67
     68.5700	 1827.00	 1764.68	-1684.68	  379.80
     68.6700	 1464.00	 1514.73	-1797.73	  379.92
     68.7700	 1342.00	 1285.41	-1690.41	  380.05
     68.8700	 1118.00	 1090.52	-1719.52	  380.17
     68.9700	  904.00	  935.51	-1778.51	  380.30
     69.0700	  772.00	  819.01	-1794.01	  380.42
     69.1700	  732.00	  735.85	-1750.85	  380.54
     69.2700	  688.00	  678.90	-1737.90	  380.67
     69.3700	  687.00	  641.08	-1701.08	  380.79
     69.4700	  648.00	  616.21	-1715.21	  380.92
     69.5700	  610.00	  600.07	-1737.07	  381.04
     69.6700	  577.00	  589.37	-1759.37	  381.16
     69.7700	  570.00	  582.13	-1759.13	  381.28
     69.8700	  572.00	  577.14	-1752.14	  381.41
     69.9700	  570.00	  573.74	-1750.74	  381.53
     70.0700	  587.00	  571.57	-1731.57	  381.65
     70.1700	  564.00	  570.47	-1753.47	  381.77
     70.2700	  542.00	  570.38	-1775.38	  381.89
     70.3700	  573.00	  571.36	-1745.36	  382.01
     70.4700	  601.00	  573.62	-1719.62	  382.13
     70.5700	  572.00	  577.54	-1752.54	  382.25
     70.6700	  560.00	  583.85	-1770.85	  382.37
     70.7700	  619.00	  593.72	-1721.72	  382.49
     70.8700	  610.00	  608.98	-1745.98	  382.61
     70.9700	  629.00	  632.31	-1750.31	  382.73
     71.0700	  652.00	  667.21	-1762.21	  382.84
     71.1700	  721.00	  718.80	-1744.80	  382.96
     71.2700	  746.00	  789.87	-1790.87	  383.08
     71.3700	  921.00	  885.21	-1711.21	  383.19
     71.4700	 1000.00	 1006.95	-1753.95	  383.31
     71.5700	 1121.00	 1154.14	-1780.14	  383.42
     71.6700	 1285.00	 1321.49	-1783.49	  383.54
     71.7700	 1462.00	 1498.46	-1783.46	  383.65
     71.8700	 1656.00	 1668.55	-1759.55	  383.77
     71.9700	 1749.00	 1809.54	-1807.54	  383.88
     72.0700	 1837.00	 1896.75	-1806.75	  383.99
     72.1700	 1932.00	 1911.19	-1726.19	  384.10
     72.2700	 1772.00	 1849.38	-1824.38	  384.21
     72.3700	 1693.00	 1725.47	-1779.47	  384.32
     72.4700	 1577.00	 1563.25	-1733.25	  384.43
     72.5700	 1499.00	 1386.42	-1634.42	  384.54
     72.6700	 1204.00	 1213.72	-1756.72	  384.65
     72.7700	 1100.00	 1057.77	-1704.77	  384.76
     72.8700	  966.00	  925.62	-1706.62	  384.87
     72.9700	  817.00	  819.65	-1749.65	  384.97
     73.0700	  775.00	  738.71	-1710.71	  385.08
     73.1700	  753.00	  679.46	-1673.46	  385.19
     73.2700	  710.00	  637.55	-1674.55	  385.29
     73.3700	  701.00	  608.62	-1654.62	  385.39
     73.4700	  632.00	  588.39	-1703.39	  385.50
     73.5700	  591.00	  574.92	-1730.92	  385.60
     73.6700	  626.00	  565.60	-1686.60	  385.70
     73.7700	  556.00	  559.03	-1750.03	  385.80
     73.8700	  561.00	  554.32	-1740.32	  385.90
     73.9700	  555.00	  550.94	-1742.94	  386.00
     74.0700	  547.00	  548.56	-1748.56	  386.10
     74.1700	  629.00	  546.95	-1664.95	  386.20
     74.2700	  630.00	  545.93	-1662.93	  386.29
     74.3700	  618.00	  545.33	-1674.33	  386.39
     74.4700	  638.00	  544.94	-1653.94	  386.49
     74.5700	  596.00	  544.58	-1695.58	  386.58
     74.6700	  670.00	  544.02	-1621.02	  386.67
     74.7700	  622.00	  543.13	-1668.13	  386.77
     74.8700	  615.00	  541.90	-1673.90	  386.86
     74.9700	  667.00	  540.46	-1620.46	  386.95
     75.0700	  586.00	  539.04	-1700.04	  387.04
     75.1700	  604.00	  537.92	-1680.92	  387.13
     75.2700	  619.00	  537.39	-1665.39	  387.22
     75.3700	  577.00	  537.78	-1707.78	  387.30
     75.4700	  574.00	  539.47	-1712.47	  387.39
     75.5700	  556.00	  542.82	-1733.82	  387.48
     75.6700	  541.00	  548.39	-1754.39	  387.56
     75.7700	  595.00	  556.55	-1708.55	  387.64
     75.8700	  581.00	  567.63	-1733.63	  387.73
     75.9700	  651.00	  581.75	-1677.75	  387.81
     76.0700	  596.00	  598.74	-1749.74	  387.89
     76.1700	  627.00	  617.91	-1737.91	  387.97
     76.2700	  643.00	  638.36	-1742.36	  388.04
     76.3700	  698.00	  658.36	-1707.36	  388.12
     76.4700	  658.00	  675.75	-1764.75	  388.20
     76.5700	  701.00	  688.05	-1734.05	  388.27
     76.6700	  705.00	  693.05	-1735.05	  388.35
     76.7700	  683.00	  689.68	-1753.68	  388.42
     76.8700	  628.00	  678.60	-1797.59	  388.49
     76.9700	  667.00	  661.80	-1741.80	  388.56
     77.0700	  633.00	  641.77	-1755.77	  388.63
     77.1700	  637.00	  620.73	-1730.73	  388.70
     77.2700	  597.00	  600.53	-1750.53	  388.77
     77.3700	  595.00	  582.30	-1734.30	  388.84
     77.4700	  512.00	  566.75	-1801.75	  388.90
     77.5700	  529.00	  554.10	-1772.10	  388.97
     77.6700	  496.00	  544.05	-1795.05	  389.03
     77.7700	  497.00	  536.69	-1786.69	  389.09
     77.8700	  527.00	  531.36	-1751.36	  389.15
     77.9700	  531.00	  527.63	-1743.63	  389.21
     78.0700	  532.00	  525.05	-1740.05	  389.27
     78.1700	  517.00	  523.30	-1753.30	  389.33
     78.2700	  499.00	  522.12	-1770.12	  389.38
     78.3700	  509.00	  521.32	-1759.32	  389.44
     78.4700	  506.00	  520.80	-1761.80	  389.49
     78.5700	  492.00	  520.47	-1775.47	  389.54
     78.6700	  481.00	  520.30	-1786.30	  389.59
     78.7700	  490.00	  520.28	-1777.28	  389.64
     78.8700	  509.00	  520.42	-1758.42	  389.69
     78.9700	  471.00	  520.73	-1796.73	  389.74
     79.0700	  467.00	  521.23	-1801.23	  389.79
     79.1700	  506.00	  521.97	-1762.97	  389.83
     79.2700	  575.00	  522.99	-1694.99	  389.88
     79.3700	  520.00	  524.31	-1751.31	  389.92
     79.4700	  545.00	  526.00	-1728.00	  389.96
     79.5700	  535.00	  528.09	-1740.09	  390.00
     79.6700	  534.00	  530.65	-1743.65	  390.04
     79.7700	  491.00	  533.73	-1789.73	  390.07
     79.8700	  506.00	  537.44	-1778.44	  390.11
     79.9700	  531.00	  541.87	-1757.87	  390.14
     80.0700	  563.00	  547.18	-1731.18	  390.18
     80.1700	  509.00	  553.36	-1791.36	  390.21
     80.2700	  545.00	  561.08	-1763.08	  390.24
     80.3700	  565.00	  570.44	-1752.44	  390.27
     80.4700	  597.00	  581.74	-1731.74	  390.29
     80.5700	  635.00	  595.13	-1707.13	  390.32
     80.6700	  593.00	  610.53	-1764.53	  390.35
     80.7700	  597.00	  627.56	-1777.56	  390.37
     80.8700	  639.00	  645.49	-1753.49	  390.39
     80.9700	  739.00	  663.26	-1671.26	  390.41
     81.0700	  691.00	  679.68	-1735.68	  390.43
     81.1700	  681.00	  693.57	-1759.57	  390.45
     81.2700	  671.00	  704.02	-1780.02	  390.46
     81.3700	  784.00	  710.40	-1673.40	  390.48
     81.4700	  755.00	  712.37	-1704.37	  390.49
     81.5700	  762.00	  709.90	-1694.90	  390.50
     81.6700	  694.00	  703.23	-1756.23	  390.52
     81.7700	  697.00	  692.79	-1742.79	  390.52
     81.8700	  698.00	  679.19	-1728.19	  390.53
     81.9700	  705.00	  663.28	-1705.28	  390.54
     82.0700	  652.00	  646.13	-1741.13	  390.54
     82.1700	  682.00	  628.82	-1693.82	  390.55
     82.2700	  688.00	  612.24	-1671.24	  390.55
     82.3700	  579.00	  596.97	-1764.97	  390.55
     82.4700	  582.00	  583.37	-1748.37	  390.55
     82.5700	  539.00	  571.60	-1779.60	  390.54
     82.6700	  577.00	  561.76	-1731.76	  390.54
     82.7700	  533.00	  553.85	-1767.85	  390.53
     82.8700	  527.00	  547.86	-1767.86	  390.53
     82.9700	  520.00	  543.70	-1770.70	  390.52
     83.0700	  540.00	  541.29	-1748.29	  390.51
     83.1700	  580.00	  540.52	-1707.52	  390.50
     83.2700	  522.00	  541.26	-1766.26	  390.48
     83.3700	  519.00	  543.37	-1771.37	  390.47
     83.4700	  539.00	  546.57	-1754.57	  390.45
     83.5700	  501.00	  550.75	-1796.75	  390.43
     83.6700	  553.00	  555.46	-1749.46	  390.41
     83.7700	  547.00	  560.35	-1760.35	  390.39
     83.8700	  533.00	  564.88	-1778.88	  390.37
     83.9700	  561.00	  568.49	-1754.49	  390.35
     84.0700	  603.00	  570.63	-1714.63	  390.32
     84.1700	  565.00	  570.92	-1752.92	  390.29
     84.2700	  573.00	  569.25	-1743.25	  390.26
     84.3700	  533.00	  565.83	-1779.83	  390.23
     84.4700	  543.00	  561.12	-1765.12	  390.20
     84.5700	  527.00	  555.64	-1775.64	  390.17
     84.6700	  547.00	  549.87	-1749.87	  390.13
     84.7700	  555.00	  544.21	-1736.21	  390.09
     84.8700	  501.00	  538.98	-1784.98	  390.06
     84.9700	  513.00	  534.37	-1768.37	  390.02
     85.0700	  503.00	  530.48	-1774.48	  389.97
     85.1700	  503.00	  527.34	-1771.34	  389.93
     85.2700	  524.00	  524.92	-1747.92	  389.89
     85.3700	  543.00	  523.15	-1727.15	  389.84
     85.4700	  492.00	  521.94	-1776.94	  389.79
     85.5700	  524.00	  521.22	-1744.22	  389.74
     85.6700	  569.00	  520.92	-1698.92	  389.69
     85.7700	  551.00	  521.01	-1717.01	  389.64
     85.8700	  525.00	  521.49	-1743.49	  389.58
     85.9700	  529.00	  522.41	-1740.41	  389.53
     86.0700	  521.00	  523.84	-1749.84	  389.47
     86.1700	  487.00	  525.91	-1785.91	  389.41
     86.2700	  459.00	  528.77	-1816.77	  389.35
     86.3700	  518.00	  532.57	-1761.57	  389.29
     86.4700	  524.00	  537.50	-1760.50	  389.22
     86.5700	  517.00	  543.69	-1773.69	  389.16
     86.6700	  551.00	  551.22	-1747.22	  389.09
     86.7700	  538.00	  560.09	-1769.09	  389.02
     86.8700	  607.00	  570.17	-1710.18	  388.95
     86.9700	  566.00	  581.20	-1762.20	  388.88
     87.0700	  572.00	  592.73	-1767.73	  388.80
     87.1700	  576.00	  604.17	-1775.17	  388.73
     87.2700	  610.00	  614.74	-1751.74	  388.65
     87.3700	  655.00	  623.55	-1715.55	  388.57
     87.4700	  639.00	  629.68	-1737.68	  388.49
     87.5700	  674.00	  632.40	-1705.40	  388.41
     87.6700	  615.00	  631.42	-1763.42	  388.32
     87.7700	  608.00	  626.94	-1765.94	  388.24
     87.8700	  644.00	  619.65	-1722.65	  388.15
     87.9700	  624.00	  610.49	-1733.49	  388.06
     88.0700	  636.00	  600.03	-1711.03	  387.97
     88.1700	  660.00	  589.94	-1676.94	  387.88
     88.2700	  575.00	  580.58	-1752.58	  387.79
     88.3700	  577.00	  572.52	-1742.52	  387.69
     88.4700	  528.00	  566.17	-1785.17	  387.60
     88.5700	  580.00	  561.76	-1728.76	  387.50
     88.6700	  522.00	  559.36	-1784.36	  387.40
     88.7700	  552.00	  558.87	-1753.87	  387.30
     88.8700	  590.00	  560.07	-1717.07	  387.19
     88.9700	  582.00	  562.62	-1727.62	  387.09
     89.0700	  579.00	  566.09	-1734.09	  386.98
     89.1700	  561.00	  569.96	-1755.96	  386.87
     89.2700	  580.00	  573.70	-1740.70	  386.76
     89.3700	  574.00	  576.71	-1749.71	  386.65
     89.4700	  629.00	  578.49	-1696.49	  386.54
     89.5700	  578.00	  578.66	-1747.66	  386.42
     89.6700	  526.00	  577.09	-1798.09	  386.31
     89.7700	  556.00	  573.92	-1764.92	  386.19
     89.8700	  558.00	  569.48	-1758.48	  386.07
     89.9700	  572.00	  564.19	-1739.19	  385.95
     90.0700	  572.00	  558.47	-1733.47	  385.83
     90.1700	  520.00	  552.71	-1779.71	  385.70
     90.2700	  568.00	  547.21	-1726.21	  385.58
     90.3700	  489.00	  542.17	-1800.17	  385.45
     90.4700	  480.00	  537.77	-1804.77	  385.32
     90.5700	  543.00	  534.06	-1738.06	  385.19
     90.6700	  527.00	  531.08	-1751.08	  385.06
     90.7700	  505.00	  528.79	-1770.79	  384.92
     90.8700	  488.00	  527.15	-1786.15	  384.79
     90.9700	  530.00	  526.10	-1743.10	  384.65
     91.0700	  501.00	  525.56	-1771.56	  384.51
     91.1700	  535.00	  525.50	-1737.50	  384.37
     91.2700	  516.00	  525.90	-1756.90	  384.23
     91.3700	  490.00	  526.76	-1783.76	  384.09
     91.4700	  512.00	  528.13	-1763.13	  383.94
     91.5700	  524.00	  530.10	-1753.10	  383.80
     91.6700	  502.00	  532.79	-1777.79	  383.65
     91.7700	  530.00	  536.35	-1753.35	  383.50
     91.8700	  487.00	  540.97	-1800.97	  383.35
     91.9700	  574.00	  546.85	-1719.85	  383.20
     92.0700	  547.00	  554.18	-1754.18	  383.05
     92.1700	  593.00	  563.14	-1717.14	  382.89
     92.2700	  517.00	  573.85	-1803.85	  382.73
     92.3700	  528.00	  586.38	-1805.38	  382.58
     92.4700	  603.00	  600.70	-1744.70	  382.42
     92.5700	  623.00	  616.67	-1740.67	  382.26
     92.6700	  622.00	  634.02	-1759.02	  382.09
     92.7700	  651.00	  652.36	-1748.36	  381.93
     92.8700	  657.00	  671.13	-1761.13	  381.76
     92.9700	  684.00	  689.66	-1752.66	  381.60
     93.0700	  690.00	  707.21	-1764.21	  381.43
     93.1700	  724.00	  723.12	-1746.12	  381.26
     93.2700	  756.00	  736.95	-1727.95	  381.09
     93.3700	  755.00	  748.33	-1740.33	  380.92
     93.4700	  791.00	  758.09	-1714.09	  380.74
     93.5700	  786.00	  766.45	-1727.45	  380.57
     93.6700	  762.00	  773.94	-1758.94	  380.39
     93.7700	  797.00	  781.02	-1731.02	  380.21
     93.8700	  825.00	  788.07	-1710.07	  380.03
     93.9700	  832.00	  795.47	-1710.47	  379.85
     94.0700	  831.00	  803.63	-1719.63	  379.67
     94.1700	  879.00	  813.00	-1681.00	  379.49
     94.2700	  840.00	  823.89	-1730.89	  379.30
     94.3700	  912.00	  836.36	-1671.36	  379.11
     94.4700	  856.00	  850.05	-1741.05	  378.93
     94.5700	  893.00	  864.19	-1718.19	  378.74
     94.6700	  880.00	  877.56	-1744.56	  378.55
     94.7700	  890.00	  888.63	-1745.63	  378.36
     94.8700	  890.00	  895.71	-1752.71	  378.16
     94.9700	  859.00	  897.26	-1785.26	  377.97
     95.0700	  885.00	  892.30	-1754.30	  377.77
     95.1700	  859.00	  880.63	-1768.63	  377.58
     95.2700	  859.00	  862.99	-1750.99	  377.38
     95.3700	  900.00	  840.79	-1687.79	  377.18
     95.4700	  758.00	  815.84	-1804.84	  376.98
     95.5700	  796.00	  790.05	-1741.05	  376.78
     95.6700	  747.00	  765.26	-1765.26	  376.58
     95.7700	  707.00	  743.17	-1783.17	  376.37
     95.8700	  749.00	  725.34	-1723.34	  376.17
     95.9700	  698.00	  713.12	-1762.12	  375.96
     96.0700	  684.00	  707.70	-1770.70	  375.76
     96.1700	  722.00	  710.09	-1735.09	  375.55
     96.2700	  723.00	  721.10	-1745.10	  375.34
     96.3700	  669.00	  741.33	-1819.33	  375.13
     96.4700	  778.00	  771.13	-1740.13	  374.92
     96.5700	  820.00	  810.54	-1737.54	  374.70
     96.6700	  888.00	  859.24	-1718.24	  374.49
     96.7700	  876.00	  916.49	-1787.49	  374.27
     96.8700	  952.00	  981.05	-1776.05	  374.06
     96.9700	 1064.00	 1051.10	-1734.10	  373.84
     97.0700	 1105.00	 1124.26	-1766.26	  373.62
     97.1700	 1151.00	 1197.53	-1793.53	  373.40
     97.2700	 1230.00	 1267.35	-1784.35	  373.18
     97.3700	 1265.00	 1329.72	-1811.72	  372.96
     97.4700	 1401.00	 1380.42	-1726.42	  372.74
     97.5700	 1476.00	 1415.61	-1686.61	  372.52
     97.6700	 1484.00	 1432.43	-1695.43	  372.29
     97.7700	 1438.00	 1429.72	-1738.72	  372.07
     97.8700	 1366.00	 1408.22	-1789.22	  371.84
     97.9700	 1315.00	 1370.38	-1802.38	  371.62
     98.0700	 1323.00	 1319.72	-1743.72	  371.39
     98.1700	 1269.00	 1260.24	-1738.24	  371.16
     98.2700	 1180.00	 1195.87	-1762.87	  370.93
     98.3700	 1159.00	 1130.30	-1718.30	  370.70
     98.4700	  995.00	 1066.78	-1818.78	  370.47
     98.5700	  959.00	 1008.14	-1796.14	  370.24
     98.6700	  962.00	  956.75	-1741.75	  370.01
     98.7700	  880.00	  914.51	-1781.51	  369.78
     98.8700	  883.00	  882.97	-1746.97	  369.54
     98.9700	  813.00	  863.31	-1797.31	  369.31
     99.0700	  857.00	  856.39	-1746.39	  369.07
     99.1700	  860.00	  862.79	-1749.79	  368.84
     99.2700	  879.00	  882.84	-1750.84	  368.60
     99.3700	  948.00	  916.60	-1715.60	  368.36
     99.4700	  995.00	  963.90	-1715.90	  368.12
     99.5700	  976.00	 1024.21	-1795.21	  367.89
     99.6700	 1072.00	 1096.76	-1771.76	  367.65
     99.7700	 1165.00	 1180.25	-1762.25	  367.41
     99.8700	 1249.00	 1272.91	-1770.91	  367.17
     99.9700	 1366.00	 1372.37	-1753.37	  366.93
    100.0700	 1564.00	 1475.68	-1658.68	  366.69
    100.1700	 1545.00	 1579.28	-1781.28	  366.44
    100.2700	 1697.00	 1679.16	-1729.16	  366.20
    100.3700	 1798.00	 1771.23	-1720.23	  365.96
    100.4700	 1864.00	 1851.61	-1734.61	  365.71
    100.5700	 1918.00	 1917.22	-1746.22	  365.47
    100.6700	 2025.00	 1965.83	-1687.83	  365.23
    100.7700	 2047.00	 1996.01	-1696.01	  364.98
    100.8700	 2031.00	 2006.99	-1722.99	  364.74
    100.9700	 1964.00	 1998.38	-1781.38	  364.49
    101.0700	 1946.00	 1970.48	-1771.48	  364.25
    101.1700	 1913.00	 1924.49	-1758.49	  364.00
    101.2700	 1871.00	 1862.86	-1738.86	  363.75
    101.3700	 1826.00	 1789.19	-1710.19	  363.51
    101.4700	 1700.00	 1707.88	-1754.88	  363.26
    101.5700	 1533.00	 1623.46	-1837.46	  363.01
    101.6700	 1558.00	 1540.14	-1729.14	  362.77
    101.7700	 1560.00	 1461.40	-1648.40	  362.52
    101.8700	 1418.00	 1389.82	-1718.82	  362.27
    101.9700	 1340.00	 1327.07	-1734.07	  362.03
    102.0700	 1241.00	 1273.89	-1779.89	  361.78
    102.1700	 1247.00	 1230.20	-1730.20	  361.53
    102.2700	 1125.00	 1195.14	-1817.14	  361.28
    102.3700	 1136.00	 1167.17	-1778.17	  361.03
    102.4700	 1170.00	 1144.30	-1721.30	  360.79
    102.5700	 1160.00	 1124.19	-1711.19	  360.54
    102.6700	 1097.00	 1104.47	-1754.47	  360.29
    102.7700	 1077.00	 1083.05	-1753.05	  360.04
    102.8700	 1030.00	 1058.40	-1775.40	  359.80
    102.9700	  979.00	 1029.77	-1797.77	  359.55
    103.0700	  982.00	  997.15	-1762.15	  359.30
    103.1700	  997.00	  961.11	-1711.11	  359.05
    103.2700	  903.00	  922.61	-1766.61	  358.81
    103.3700	  886.00	  882.77	-1743.77	  358.56
    103.4700	  797.00	  842.69	-1792.69	  358.31
    103.5700	  849.00	  803.39	-1701.39	  358.07
    103.6700	  781.00	  765.76	-1731.76	  357.82
    103.7700	  728.00	  730.51	-1749.51	  357.57
    103.8700	  689.00	  698.20	-1756.20	  357.33
    103.9700	  681.00	  669.18	-1735.18	  357.08
    104.0700	  692.00	  643.62	-1698.62	  356.84
    104.1700	  633.00	  621.55	-1735.55	  356.59
    104.2700	  658.00	  602.86	-1691.86	  356.35
    104.3700	  585.00	  587.33	-1749.33	  356.11
    104.4700	  609.00	  574.68	-1712.68	  355.86
    104.5700	  585.00	  564.58	-1726.58	  355.62
    104.6700	  573.00	  556.69	-1730.69	  355.38
    104.7700	  561.00	  550.69	-1736.69	  355.14
    104.8700	  557.00	  546.27	-1736.27	  354.90
    104.9700	  515.00	  543.16	-1775.16	  354.66
    105.0700	  538.00	  541.15	-1750.15	  354.42
    105.1700	  526.00	  540.05	-1761.05	  354.18
    105.2700	  546.00	  539.73	-1740.73	  353.94
    105.3700	  529.00	  540.06	-1758.06	  353.70
    105.4700	  532.00	  541.03	-1756.03	  353.47
    105.5700	  569.00	  542.58	-1720.58	  353.23
    105.6700	  541.00	  544.73	-1750.73	  353.00
    105.7700	  545.00	  547.52	-1749.52	  352.76
    105.8700	  533.00	  550.97	-1764.97	  352.53
    105.9700	  567.00	  555.20	-1735.20	  352.30
    106.0700	  522.00	  560.24	-1785.24	  352.07
    106.1700	  558.00	  566.14	-1755.14	  351.84
    106.2700	  566.00	  572.93	-1753.93	  351.61
    106.3700	  587.00	  580.58	-1740.58	  351.38
    106.4700	  571.00	  589.01	-1765.01	  351.15
    106.5700	  613.00	  598.12	-1732.12	  350.93
    106.6700	  643.00	  607.73	-1711.73	  350.70
    106.7700	  613.00	  617.62	-1751.62	  350.48
    106.8700	  639.00	  627.53	-1735.53	  350.26
    106.9700	  645.00	  637.15	-1739.15	  350.03
    107.0700	  628.00	  646.16	-1765.16	  349.81
    107.1700	  638.00	  654.21	-1763.21	  349.60
    107.2700	  671.00	  661.01	-1737.01	  349.38
    107.3700	  693.00	  666.34	-1720.34	  349.16
    107.4700	  619.00	  670.12	-1798.12	  348.95
    107.5700	  706.00	  672.40	-1713.40	  348.74
    107.6700	  686.00	  673.40	-1734.40	  348.53
    107.7700	  691.00	  673.43	-1729.43	  348.32
    107.8700	  676.00	  672.86	-1743.86	  348.11
    107.9700	  667.00	  672.07	-1752.07	  347.90
    108.0700	  697.00	  671.37	-1721.37	  347.70
    108.1700	  706.00	  671.02	-1712.02	  347.49
    108.2700	  659.00	  671.19	-1759.19	  347.29
    108.3700	  700.00	  671.93	-1718.93	  347.09
    108.4700	  664.00	  673.21	-1756.21	  346.89
    108.5700	  671.00	  674.88	-1750.88	  346.70
    108.6700	  652.00	  676.71	-1771.71	  346.50
    108.7700	  700.00	  678.39	-1725.39	  346.31
    108.8700	  663.00	  679.54	-1763.54	  346.12
    108.9700	  711.00	  679.78	-1715.78	  345.93
    109.0700	  649.00	  678.76	-1776.76	  345.74
    109.1700	  718.00	  676.20	-1705.20	  345.56
    109.2700	  680.00	  671.97	-1738.97	  345.38
    109.3700	  684.00	  666.07	-1729.07	  345.20
    109.4700	  619.00	  658.66	-1786.66	  345.02
    109.5700	  692.00	  649.97	-1704.97	  344.84
    109.6700	  637.00	  640.32	-1750.32	  344.67
    109.7700	  631.00	  630.02	-1746.02	  344.50
    109.8700	  653.00	  619.43	-1713.43	  344.33
    109.9700	  591.00	  608.83	-1764.83	  344.16
    110.0700	  624.00	  598.50	-1721.50	  344.00
    110.1700	  617.00	  588.65	-1718.65	  343.83
    110.2700	  551.00	  579.46	-1775.46	  343.67
    110.3700	  604.00	  571.08	-1714.08	  343.52
    110.4700	  542.00	  563.61	-1768.61	  343.36
    110.5700	  569.00	  557.09	-1735.09	  343.21
    110.6700	  599.00	  551.55	-1699.55	  343.06
    110.7700	  533.00	  546.97	-1760.97	  342.92
    110.8700	  585.00	  543.31	-1705.31	  342.77
    110.9700	  565.00	  540.52	-1722.52	  342.63
    111.0700	  563.00	  538.53	-1722.53	  342.49
    111.1700	  558.00	  537.25	-1726.25	  342.36
    111.2700	  502.00	  536.61	-1781.61	  342.22
    111.3700	  532.00	  536.53	-1751.53	  342.09
    111.4700	  551.00	  536.93	-1732.93	  341.97
    111.5700	  538.00	  537.76	-1746.76	  341.84
    111.6700	  542.00	  538.96	-1743.96	  341.72
    111.7700	  552.00	  540.47	-1735.47	  341.61
    111.8700	  544.00	  542.26	-1745.26	  341.49
    111.9700	  504.00	  544.31	-1787.31	  341.38
    112.0700	  555.00	  546.60	-1738.60	  341.27
    112.1700	  544.00	  549.11	-1752.11	  341.17
    112.2700	  561.00	  551.86	-1737.86	  341.07
    112.3700	  586.00	  554.85	-1715.85	  340.97
    112.4700	  557.00	  558.10	-1748.10	  340.88
    112.5700	  516.00	  561.66	-1792.66	  340.79
    112.6700	  534.00	  565.55	-1778.55	  340.70
    112.7700	  537.00	  569.83	-1779.83	  340.61
    112.8700	  612.00	  574.58	-1709.58	  340.53
    112.9700	  585.00	  579.90	-1741.90	  340.46
    113.0700	  612.00	  585.89	-1720.89	  340.38
    113.1700	  598.00	  592.72	-1741.72	  340.32
    113.2700	  639.00	  600.59	-1708.59	  340.25
    113.3700	  625.00	  609.76	-1731.76	  340.19
    113.4700	  670.00	  620.56	-1697.56	  340.13
    113.5700	  664.00	  633.42	-1716.42	  340.08
    113.6700	  687.00	  648.86	-1708.86	  340.03
    113.7700	  698.00	  667.55	-1716.55	  339.98
    113.8700	  751.00	  690.30	-1686.30	  339.94
    113.9700	  727.00	  718.09	-1738.09	  339.91
    114.0700	  757.00	  752.08	-1742.08	  339.87
    114.1700	  843.00	  793.64	-1697.64	  339.84
    114.2700	  931.00	  844.36	-1660.36	  339.82
    114.3700	  903.00	  906.00	-1750.00	  339.80
    114.4700	 1031.00	  980.54	-1696.54	  339.78
    114.5700	 1063.00	 1070.08	-1754.08	  339.77
    114.6700	 1225.00	 1176.80	-1698.80	  339.77
    114.7700	 1376.00	 1302.97	-1673.97	  339.76
    114.8700	 1544.00	 1450.75	-1653.75	  339.77
    114.9700	 1708.00	 1622.11	-1661.11	  339.77
    115.0700	 1913.00	 1818.76	-1652.76	  339.79
    115.1700	 2059.00	 2041.86	-1729.86	  339.80
    115.2700	 2437.00	 2292.07	-1602.07	  339.82
    115.3700	 2544.00	 2569.33	-1772.33	  339.85
    115.4700	 2899.00	 2872.59	-1720.59	  339.88
    115.5700	 3326.00	 3199.89	-1620.89	  339.92
    115.6700	 3518.00	 3548.08	-1777.08	  339.96
    115.7700	 3857.00	 3913.02	-1803.02	  340.01
    115.8700	 4203.00	 4289.39	-1833.39	  340.06
    115.9700	 4612.00	 4670.57	-1805.57	  340.12
    116.0700	 5000.00	 5048.90	-1795.90	  340.18
    116.1700	 5295.00	 5415.62	-1867.62	  340.25
    116.2700	 5545.00	 5761.19	-1963.19	  340.32
    116.3700	 5943.00	 6075.48	-1879.48	  340.40
    116.4700	 6274.00	 6347.98	-1820.98	  340.48
    116.5700	 6619.00	 6568.66	-1696.66	  340.57
    116.6700	 6772.00	 6728.57	-1703.57	  340.67
    116.7700	 6988.00	 6820.87	-1579.87	  340.77
    116.8700	 6671.00	 6841.47	-1917.47	  340.87
    116.9700	 6752.00	 6789.67	-1784.67	  340.98
    117.0700	 6597.00	 6668.20	-1818.20	  341.10
    117.1700	 6516.00	 6482.92	-1713.92	  341.23
    117.2700	 6304.00	 6241.98	-1684.98	  341.36
    117.3700	 5999.00	 5954.95	-1702.95	  341.49
    117.4700	 5725.00	 5632.14	-1654.14	  341.63
    117.5700	 5098.00	 5283.78	-1932.78	  341.78
    117.6700	 4862.00	 4919.66	-1804.66	  341.94
    117.7700	 4538.00	 4548.68	-1757.68	  342.10
    117.8700	 4223.00	 4178.69	-1702.69	  342.26
    117.9700	 3858.00	 3816.58	-1705.58	  342.44
    118.0700	 3585.00	 3468.02	-1630.02	  342.62
    118.1700	 3181.00	 3137.55	-1703.55	  342.80
    118.2700	 2953.00	 2828.50	-1622.50	  343.00
    118.3700	 2582.00	 2543.12	-1708.12	  343.20
    118.4700	 2359.00	 2282.80	-1670.80	  343.40
    118.5700	 2070.00	 2048.01	-1725.01	  343.61
    118.6700	 1843.00	 1838.55	-1742.55	  343.83
    118.7700	 1650.00	 1653.51	-1750.51	  344.06
    118.8700	 1444.00	 1491.57	-1794.57	  344.29
    118.9700	 1365.00	 1351.08	-1733.08	  344.53
    119.0700	 1224.00	 1230.17	-1753.17	  344.78
    119.1700	 1122.00	 1126.84	-1751.84	  345.04
    119.2700	 1036.00	 1039.06	-1750.06	  345.30
    119.3700	  894.00	  964.85	-1817.85	  345.57
    119.4700	  883.00	  902.38	-1766.38	  345.84
    119.5700	  817.00	  849.93	-1779.93	  346.13
    119.6700	  810.00	  805.98	-1742.98	  346.42
    119.7700	  739.00	  769.17	-1777.17	  346.72
    119.8700	  726.00	  738.33	-1759.33	  347.03
    119.9700	  662.00	  712.47	-1797.47	  347.34
    120.0700	  673.00	  690.77	-1764.77	  347.66
    120.1700	  633.00	  672.51	-1786.51	  347.99
    120.2700	  626.00	  657.14	-1778.14	  348.33
    120.3700	  588.00	  644.19	-1803.19	  348.67
    120.4700	  603.00	  633.27	-1777.27	  349.03
    120.5700	  618.00	  624.10	-1753.10	  349.39
    120.6700	  598.00	  616.41	-1765.41	  349.76
    120.7700	  595.00	  610.02	-1762.02	  350.14
    120.8700	  569.00	  604.78	-1782.78	  350.52
    120.9700	  579.00	  600.54	-1768.54	  350.92
    121.0700	  554.00	  597.23	-1790.23	  351.32
    121.1700	  569.00	  594.74	-1772.74	  351.73
    121.2700	  594.00	  593.01	-1746.01	  352.15
    121.3700	  560.00	  591.99	-1778.99	  352.58
    121.4700	  585.00	  591.62	-1753.62	  353.02
    121.5700	  592.00	  591.85	-1746.85	  353.46
    121.6700	  573.00	  592.62	-1766.62	  353.92
    121.7700	  551.00	  593.89	-1789.89	  354.38
    121.8700	  574.00	  595.61	-1768.61	  354.85
    121.9700	  596.00	  597.71	-1748.71	  355.34
    122.0700	  596.00	  600.13	-1751.13	  355.83
    122.1700	  615.00	  602.79	-1734.79	  356.33
    122.2700	  605.00	  605.63	-1747.63	  356.84
    122.3700	  636.00	  608.56	-1719.56	  357.35
    122.4700	  620.00	  611.50	-1738.50	  357.88
    122.5700	  600.00	  614.34	-1761.34	  358.42
    122.6700	  637.00	  617.01	-1727.01	  358.97
    122.7700	  622.00	  619.41	-1744.41	  359.52
    122.8700	  598.00	  621.46	-1770.46	  360.09
    122.9700	  626.00	  623.09	-1744.09	  360.67
    123.0700	  661.00	  624.24	-1710.24	  361.25
    123.1700	  691.00	  624.89	-1680.89	  361.85
    123.2700	  649.00	  625.00	-1723.00	  362.46
    123.3700	  617.00	  624.62	-1754.62	  363.07
    123.4700	  667.00	  623.76	-1703.76	  363.70
    123.5700	  609.00	  622.45	-1760.45	  364.34
    123.6700	  653.00	  620.76	-1714.76	  364.98
    123.7700	  626.00	  618.72	-1739.72	  365.64
    123.8700	  611.00	  616.42	-1752.42	  366.31
    123.9700	  621.00	  613.89	-1739.89	  366.99
    124.0700	  618.00	  611.22	-1740.22	  367.68
    124.1700	  615.00	  608.45	-1740.45	  368.38
    124.2700	  556.00	  605.63	-1796.64	  369.09
    124.3700	  575.00	  602.84	-1774.84	  369.81
    124.4700	  632.00	  600.09	-1715.09	  370.54
    124.5700	  616.00	  597.43	-1728.43	  371.29
    124.6700	  590.00	  594.91	-1751.91	  372.04
    124.7700	  636.00	  592.56	-1703.56	  372.81
    124.8700	  576.00	  590.39	-1761.39	  373.59
    124.9700	  573.00	  487.63	-1661.63	  374.37
    125.0700	  570.00	  488.43	-1747.00	  375.17
    125.1700	  546.00	  489.24	-1747.00	  375.99
    125.2700	  532.00	  490.07	-1747.00	  376.81
    125.3700	  581.00	  490.90	-1747.00	  377.65
    125.4700	  572.00	  491.75	-1747.00	  378.49
    125.5700	  596.00	  492.61	-1747.00	  379.35
    125.6700	  588.00	  493.48	-1747.00	  380.22
    125.7700	  587.00	  494.36	-1747.00	  381.11
    125.8700	  547.00	  495.26	-1747.00	  382.00
    125.9700	  564.00	  496.16	-1747.00	  382.91
    126.0700	  572.00	  497.08	-1747.00	  383.83
    126.1700	  539.00	  498.01	-1747.00	  384.76
    126.2700	  604.00	  498.96	-1747.00	  385.70
    126.3700	  599.00	  499.92	-1747.00	  386.66
    126.4700	  576.00	  500.89	-1747.00	  387.63
    126.5700	  605.00	  501.87	-1747.00	  388.61
    126.6700	  617.00	  502.86	-1747.00	  389.61
    126.7700	  624.00	  503.87	-1747.00	  390.62
    126.8700	  586.00	  504.89	-1747.00	  391.64
    126.9700	  582.00	  505.93	-1747.00	  392.67
    127.0700	  609.00	  506.98	-1747.00	  393.72
    127.1700	  636.00	  508.04	-1747.00	  394.78
    127.2700	  573.00	  509.11	-1747.00	  395.86
    127.3700	  613.00	  510.20	-1747.00	  396.94
    127.4700	  637.00	  511.30	-1747.00	  398.04
    127.5700	  636.00	  512.41	-1747.00	  399.16
    127.6700	  697.00	  513.54	-1747.00	  400.29
    127.7700	  638.00	  514.69	-1747.00	  401.43
    127.8700	  707.00	  515.84	-1747.00	  402.59
    127.9700	  671.00	  517.01	-1747.00	  403.76
    128.0700	  733.00	  518.20	-1747.00	  404.94
    128.1700	  742.00	  519.40	-1747.00	  406.14
    128.2700	  768.00	  520.61	-1747.00	  407.35
    128.3700	  750.00	  521.84	-1747.00	  408.58
    128.4700	  779.00	  523.08	-1747.00	  409.82
    128.5700	    0.00	  524.33	-1747.00	  411.08
    128.6700	    1.00	  525.60	-1747.00	  412.35
     12.3157	        	        	        	        	       0	(  0  0  2)	  0  1
     24.9090	        	        	        	        	       0	(  0  0  4)	  0  1
     28.3602	        	        	        	        	       0	(  1  0  0)	  0  1
     29.0579	        	        	        	        	       0	(  1  0  1)	  0  1
     31.0654	        	        	        	        	       0	(  1  0  2)	  0  1
     34.1758	        	        	        	        	       0	(  1  0  3)	  0  1
     37.8190	        	        	        	        	       0	(  0  0  6)	  0  1
     38.1558	        	        	        	        	       0	(  1  0  4)	  0  1
     42.8096	        	        	        	        	       0	(  1  0  5)	  0  1
     47.9979	        	        	        	        	       0	(  1  0  6)	  0  1
     50.3222	        	        	        	        	       0	(  1  1  0)	  0  1
     51.2527	        	        	        	        	       0	(  0  0  8)	  0  1
     52.0466	        	        	        	        	       0	(  1  1  2)	  0  1
     53.6333	        	        	        	        	       0	(  1  0  7)	  0  1
     56.9986	        	        	        	        	       0	(  1  1  4)	  0  1
     58.8301	        	        	        	        	       0	(  2  0  0)	  0  1
     59.2220	        	        	        	        	       0	(  2  0  1)	  0  1
     59.6693	        	        	        	        	       0	(  1  0  8)	  0  1
     60.3884	        	        	        	        	       0	(  2  0  2)	  0  1
     62.3034	        	        	        	        	       0	(  2  0  3)	  0  1
     64.7004	        	        	        	        	       0	(  1  1  6)	  0  1
     64.9299	        	        	        	        	       0	(  2  0  4)	  0  1
     65.4959	        	        	        	        	       0	(  0  0 10)	  0  1
     66.0921	        	        	        	        	       0	(  1  0  9)	  0  1
     68.2275	        	        	        	        	       0	(  2  0  5)	  0  1
     72.1591	        	        	        	        	       0	(  2  0  6)	  0  1
     72.9157	        	        	        	        	       0	(  1  0 10)	  0  1
     74.7489	        	        	        	        	       0	(  1  1  8)	  0  1
     76.6984	        	        	        	        	       0	(  2  0  7)	  0  1
     80.1821	        	        	        	        	       0	(  1  0 11)	  0  1
     80.9943	        	        	        	        	       0	(  0  0 12)	  0  1
     81.1050	        	        	        	        	       0	(  2  1  0)	  0  1
     81.4453	        	        	        	        	       0	(  2  1  1)	  0  1
     81.8351	        	        	        	        	       0	(  2  0  8)	  0  1
     82.4645	        	        	        	        	       0	(  2  1  2)	  0  1
     84.1581	        	        	        	        	       0	(  2  1  3)	  0  1
     86.5210	        	        	        	        	       0	(  2  1  4)	  0  1
     87.0361	        	        	        	        	       0	(  1  1 10)	  0  1
     87.5810	        	        	        	        	       0	(  2  0  9)	  0  1
     87.9670	        	        	        	        	       0	(  1  0 12)	  0  1
     89.5512	        	        	        	        	       0	(  2  1  5)	  0  1
     93.2545	        	        	        	        	       0	(  2  1  6)	  0  1
     93.9783	        	        	        	        	       0	(  2  0 10)	  0  1
     95.0212	        	        	        	        	       0	(  3  0  0)	  0  1
     95.3591	        	        	        	        	       0	(  3  0  1)	  0  1
     96.3741	        	        	        	        	       0	(  3  0  2)	  0  1
     96.3934	        	        	        	        	       0	(  1  0 13)	  0  1
     97.6507	        	        	        	        	       0	(  2  1  7)	  0  1
     98.0705	        	        	        	        	       0	(  3  0  3)	  0  1
     98.5601	        	        	        	        	       0	(  0  0 14)	  0  1
    100.4581	        	        	        	        	       0	(  3  0  4)	  0  1
    101.1128	        	        	        	        	       0	(  2  0 11)	  0  1
    101.9312	        	        	        	        	       0	(  1  1 12)	  0  1
    102.7830	        	        	        	        	       0	(  2  1  8)	  0  1
    103.5560	        	        	        	        	       0	(  3  0  5)	  0  1
    105.6636	        	        	        	        	       0	(  1  0 14)	  0  1
    107.3997	        	        	        	        	       0	(  3  0  6)	  0  1
    108.7330	        	        	        	        	       0	(  2  1  9)	  0  1
    109.1411	        	        	        	        	       0	(  2  0 12)	  0  1
    112.0517	        	        	        	        	       0	(  3  0  7)	  0  1
    115.6480	        	        	        	        	       0	(  2  1 10)	  0  1
    116.1321	        	        	        	        	       0	(  1  0 15)	  0  1
    116.8082	        	        	        	        	       0	(  2  2  0)	  0  1
    117.6212	        	        	        	        	       0	(  3  0  8)	  0  1
    118.3283	        	        	        	        	       0	(  2  2  2)	  0  1
    118.3501	        	        	        	        	       0	(  2  0 13)	  0  1
    120.0984	        	        	        	        	       0	(  0  0 16)	  0  1
    120.8229	        	        	        	        	       0	(  1  1 14)	  0  1
    123.0308	        	        	        	        	       0	(  2  2  4)	  0  1
    123.8021	        	        	        	        	       0	(  2  1 11)	  0  1
    124.3047	        	        	        	        	       0	(  3  0  9)	  0  1
    124.9072	        	        	        	        	       0	(  3  1  0)	  0  1
    125.3192	        	        	        	        	       0	(  3  1  1)	  0  1
    126.5681	        	        	        	        	       0	(  3  1  2)	  0  1
    128.5175	        	        	        	        	       0	(  1  0 16)	  0  1
    128.6963	        	        	        	        	       0	(  3  1  3)	  0  1
    129.3206	        	        	        	        	       0	(  2  0 14)	  0  1
    131.5094	        	        	        	        	       0	(  2  2  6)	  0  1
    131.7882	        	        	        	        	       0	(  3  1  4)	  0  1
    132.4832	        	        	        	        	       0	(  3  0 10)	  0  1
    133.7602	        	        	        	        	       0	(  2  1 12)	  0  1
    136.0006	        	        	        	        	       0	(  3  1  5)	  0  1
    141.6387	        	        	        	        	       0	(  3  1  6)	  0  1
    143.0352	        	        	        	        	       0	(  3  0 11)	  0  1
    143.5493	        	        	        	        	       0	(  2  0 15)	  0  1
    144.7869	        	        	        	        	       0	(  1  0 17)	  0  1
    145.8528	        	        	        	        	       0	(  2  2  8)	  0  1
    147.0196	        	        	        	        	       0	(  2  1 13)	  0  1
    149.3960	        	        	        	        	       0	(  3  1  7)	  0  1
    149.9454	        	        	        	        	       0	(  1  1 16)	  0  1
    154.3954	        	        	        	        	       0	(  0  0 18)	  0  1
    159.1677	        	        	        	        	       0	(  3  0 12)	  0  1
    159.4794	        	        	        	        	       0	(  4  0  0)	  0  1
    160.4680	        	        	        	        	       0	(  4  0  1)	  0  1
    161.6646	        	        	        	        	       0	(  3  1  8)	  0  1
    163.7799	        	        	        	        	       0	(  4  0  2)	  0  1
    170.8933	        	        	        	        	       0	(  2  0 16)	  0  1
    171.8360	        	        	        	        	       0	(  4  0  3)	  0  1
    176.8742	        	        	        	        	       0	(  2  1 14)	  0  1
