MSG Master    CELL:    5.91926   5.91926  23.27258   90.0000   90.0000  120.0000   SPGR: P 63/m m c             TEMP:   1074.95
  1   1280     2.52000     0.00000    -0.12399     0.00000     0.00000    0
    99     0     2
       0.00000      10.00000
     125.00000     130.00000
 2Theta	Yobs	Ycal	Yobs-Ycal	Backg	Posr	(hkl)	K
      0.7700	    0.00	  543.55	-1751.00	  426.29
      0.8700	    0.00	  544.28	-1751.00	  427.03
      0.9700	   40.00	  545.01	-1751.00	  427.75
      1.0700	   42.00	  545.72	-1751.00	  428.47
      1.1700	   43.00	  546.43	-1751.00	  429.17
      1.2700	   31.00	  547.12	-1751.00	  429.87
      1.3700	   47.00	  547.81	-1751.00	  430.55
      1.4700	  107.00	  548.48	-1751.00	  431.22
      1.5700	  289.00	  549.14	-1751.00	  431.89
      1.6700	  473.00	  549.80	-1751.00	  432.54
      1.7700	  554.00	  550.44	-1751.00	  433.18
      1.8700	  621.00	  551.07	-1751.00	  433.82
      1.9700	  716.00	  551.70	-1751.00	  434.44
      2.0700	  752.00	  552.31	-1751.00	  435.05
      2.1700	  810.00	  552.91	-1751.00	  435.66
      2.2700	  808.00	  553.51	-1751.00	  436.25
      2.3700	  743.00	  554.09	-1751.00	  436.83
      2.4700	  734.00	  554.66	-1751.00	  437.41
      2.5700	  689.00	  555.23	-1751.00	  437.97
      2.6700	  664.00	  555.78	-1751.00	  438.52
      2.7700	  636.00	  556.33	-1751.00	  439.07
      2.8700	  666.00	  556.86	-1751.00	  439.61
      2.9700	  593.00	  557.39	-1751.00	  440.13
      3.0700	  652.00	  557.91	-1751.00	  440.65
      3.1700	  574.00	  558.41	-1751.00	  441.16
      3.2700	  572.00	  558.91	-1751.00	  441.66
      3.3700	  641.00	  559.40	-1751.00	  442.15
      3.4700	  741.00	  559.88	-1751.00	  442.63
      3.5700	  794.00	  560.35	-1751.00	  443.10
      3.6700	  877.00	  560.82	-1751.00	  443.56
      3.7700	  858.00	  561.27	-1751.00	  444.01
      3.8700	  948.00	  561.72	-1751.00	  444.46
      3.9700	 1007.00	  562.15	-1751.00	  444.90
      4.0700	 1092.00	  562.58	-1751.00	  445.32
      4.1700	 1083.00	  563.00	-1751.00	  445.74
      4.2700	 1129.00	  563.41	-1751.00	  446.15
      4.3700	 1081.00	  563.81	-1751.00	  446.56
      4.4700	 1067.00	  564.21	-1751.00	  446.95
      4.5700	 1095.00	  564.59	-1751.00	  447.34
      4.6700	 1005.00	  564.97	-1751.00	  447.71
      4.7700	 1016.00	  565.34	-1751.00	  448.08
      4.8700	  962.00	  565.70	-1751.00	  448.44
      4.9700	  919.00	  566.05	-1751.00	  448.80
      5.0700	  951.00	  566.40	-1751.00	  449.14
      5.1700	  894.00	  566.74	-1751.00	  449.48
      5.2700	  873.00	  567.06	-1751.00	  449.81
      5.3700	  937.00	  567.39	-1751.00	  450.13
      5.4700	  930.00	  567.70	-1751.00	  450.44
      5.5700	  836.00	  568.01	-1751.00	  450.75
      5.6700	  849.00	  568.30	-1751.00	  451.05
      5.7700	  806.00	  568.59	-1751.00	  451.34
      5.8700	  804.00	  568.88	-1751.00	  451.62
      5.9700	  765.00	  569.15	-1751.00	  451.90
      6.0700	  813.00	  569.42	-1751.00	  452.16
      6.1700	  766.00	  569.68	-1751.00	  452.43
      6.2700	  773.00	  569.94	-1751.00	  452.68
      6.3700	  767.00	  570.18	-1751.00	  452.93
      6.4700	  726.00	  570.42	-1751.00	  453.16
      6.5700	  834.00	  570.65	-1751.00	  453.40
      6.6700	  782.00	  570.88	-1751.00	  453.62
      6.7700	  732.00	  571.10	-1751.00	  453.84
      6.8700	  699.00	  571.31	-1751.00	  454.05
      6.9700	  696.00	  571.51	-1751.00	  454.25
      7.0700	  677.00	  571.71	-1751.00	  454.45
      7.1700	  746.00	  571.90	-1751.00	  454.64
      7.2700	  682.00	  572.08	-1751.00	  454.83
      7.3700	  659.00	  572.26	-1751.00	  455.00
      7.4700	  651.00	  572.43	-1751.00	  455.17
      7.5700	  674.00	  572.59	-1751.00	  455.34
      7.6700	  589.00	  572.75	-1751.00	  455.49
      7.7700	  685.00	  572.90	-1751.00	  455.65
      7.8700	  634.00	  573.05	-1751.00	  455.79
      7.9700	  618.00	  573.18	-1751.00	  455.93
      8.0700	  652.00	  573.32	-1751.00	  456.06
      8.1700	  609.00	  573.44	-1751.00	  456.19
      8.2700	  610.00	  573.56	-1751.00	  456.31
      8.3700	  615.00	  573.67	-1751.00	  456.42
      8.4700	  639.00	  573.78	-1751.00	  456.53
      8.5700	  611.00	  573.88	-1751.00	  456.63
      8.6700	  645.00	  573.98	-1751.00	  456.72
      8.7700	  592.00	  574.07	-1751.00	  456.81
      8.8700	  615.00	  574.15	-1751.00	  456.90
      8.9700	  650.00	  574.23	-1751.00	  456.97
      9.0700	  612.00	  574.30	-1751.00	  457.05
      9.1700	  593.00	  574.37	-1751.00	  457.11
      9.2700	  638.00	  574.43	-1751.00	  457.17
      9.3700	  604.00	  574.48	-1751.00	  457.23
      9.4700	  618.00	  574.53	-1751.00	  457.28
      9.5700	  629.00	  574.58	-1751.00	  457.32
      9.6700	  592.00	  574.62	-1751.00	  457.36
      9.7700	  602.00	  574.65	-1751.00	  457.39
      9.8700	  590.00	  574.68	-1751.00	  457.42
      9.9700	  626.00	  574.70	-1751.00	  457.44
     10.0700	  574.00	  575.44	-1752.44	  457.46
     10.1700	  605.00	  575.52	-1721.52	  457.47
     10.2700	  586.00	  575.62	-1740.62	  457.48
     10.3700	  646.00	  575.74	-1680.74	  457.48
     10.4700	  588.00	  575.91	-1738.91	  457.48
     10.5700	  594.00	  576.17	-1733.17	  457.47
     10.6700	  607.00	  576.62	-1720.62	  457.46
     10.7700	  556.00	  577.37	-1772.37	  457.44
     10.8700	  581.00	  578.48	-1748.48	  457.41
     10.9700	  614.00	  579.94	-1716.94	  457.39
     11.0700	  585.00	  581.73	-1747.73	  457.35
     11.1700	  567.00	  583.82	-1767.82	  457.32
     11.2700	  592.00	  586.27	-1745.27	  457.28
     11.3700	  579.00	  589.13	-1761.13	  457.23
     11.4700	  553.00	  592.52	-1790.52	  457.18
     11.5700	  580.00	  596.64	-1767.64	  457.12
     11.6700	  643.00	  601.80	-1709.80	  457.06
     11.7700	  616.00	  608.58	-1743.58	  457.00
     11.8700	  616.00	  617.86	-1752.86	  456.93
     11.9700	  652.00	  630.40	-1729.40	  456.86
     12.0700	  689.00	  644.89	-1706.89	  456.78
     12.1700	  672.00	  655.51	-1734.51	  456.70
     12.2700	  680.00	  652.75	-1723.75	  456.61
     12.3700	  611.00	  633.39	-1773.39	  456.52
     12.4700	  615.00	  609.46	-1745.46	  456.43
     12.5700	  619.00	  592.07	-1724.07	  456.33
     12.6700	  582.00	  582.81	-1751.81	  456.22
     12.7700	  605.00	  578.75	-1724.75	  456.12
     12.8700	  557.00	  576.96	-1770.96	  456.01
     12.9700	  543.00	  575.98	-1783.98	  455.89
     13.0700	  537.00	  575.31	-1789.31	  455.78
     13.1700	  624.00	  574.80	-1701.80	  455.65
     13.2700	  600.00	  574.38	-1725.38	  455.53
     13.3700	  543.00	  574.03	-1782.03	  455.40
     13.4700	  586.00	  573.72	-1738.72	  455.27
     13.5700	  543.00	  573.45	-1781.45	  455.13
     13.6700	  568.00	  573.19	-1756.19	  454.99
     13.7700	  557.00	  572.96	-1766.96	  454.85
     13.8700	  583.00	  572.73	-1740.73	  454.70
     13.9700	  553.00	  572.52	-1770.52	  454.55
     14.0700	  594.00	  572.31	-1729.31	  454.39
     14.1700	  565.00	  572.10	-1758.10	  454.24
     14.2700	  561.00	  571.90	-1761.90	  454.07
     14.3700	  582.00	  571.70	-1740.70	  453.91
     14.4700	  572.00	  571.50	-1750.50	  453.74
     14.5700	  539.00	  571.31	-1783.31	  453.57
     14.6700	  579.00	  571.11	-1743.11	  453.40
     14.7700	  533.00	  570.91	-1788.91	  453.22
     14.8700	  578.00	  570.71	-1743.71	  453.04
     14.9700	  552.00	  570.51	-1769.51	  452.86
     15.0700	  570.00	  570.31	-1751.31	  452.67
     15.1700	  549.00	  570.10	-1772.10	  452.48
     15.2700	  562.00	  569.90	-1758.90	  452.29
     15.3700	  536.00	  569.69	-1784.69	  452.09
     15.4700	  569.00	  569.49	-1751.49	  451.90
     15.5700	  557.00	  569.28	-1763.28	  451.70
     15.6700	  547.00	  569.06	-1773.06	  451.49
     15.7700	  575.00	  568.85	-1744.85	  451.29
     15.8700	  529.00	  568.63	-1790.63	  451.08
     15.9700	  561.00	  568.41	-1758.41	  450.87
     16.0700	  577.00	  568.19	-1742.19	  450.65
     16.1700	  607.00	  567.97	-1711.97	  450.43
     16.2700	  602.00	  567.77	-1716.77	  450.21
     16.3700	  581.00	  567.55	-1737.55	  449.99
     16.4700	  560.00	  567.32	-1758.32	  449.77
     16.5700	  519.00	  567.09	-1799.09	  449.54
     16.6700	  535.00	  566.85	-1782.85	  449.31
     16.7700	  516.00	  566.62	-1801.62	  449.08
     16.8700	  562.00	  566.38	-1755.38	  448.85
     16.9700	  548.00	  566.14	-1769.14	  448.61
     17.0700	  566.00	  565.90	-1750.90	  448.37
     17.1700	  611.00	  565.66	-1705.66	  448.13
     17.2700	  552.00	  565.41	-1764.41	  447.89
     17.3700	  594.00	  565.17	-1722.17	  447.64
     17.4700	  579.00	  564.92	-1736.92	  447.39
     17.5700	  523.00	  564.67	-1792.67	  447.14
     17.6700	  523.00	  564.41	-1792.41	  446.89
     17.7700	  577.00	  564.16	-1738.16	  446.64
     17.8700	  520.00	  563.90	-1794.90	  446.38
     17.9700	  600.00	  563.74	-1714.74	  446.13
     18.0700	  535.00	  563.49	-1779.49	  445.87
     18.1700	  552.00	  563.23	-1762.23	  445.60
     18.2700	  589.00	  562.96	-1724.96	  445.34
     18.3700	  600.00	  562.70	-1713.70	  445.08
     18.4700	  531.00	  562.44	-1782.44	  444.81
     18.5700	  587.00	  562.17	-1726.17	  444.54
     18.6700	  531.00	  561.90	-1781.90	  444.27
     18.7700	  564.00	  561.63	-1748.63	  444.00
     18.8700	  551.00	  561.45	-1761.45	  443.72
     18.9700	  573.00	  561.18	-1739.18	  443.45
     19.0700	  562.00	  560.91	-1749.91	  443.17
     19.1700	  534.00	  560.63	-1777.63	  442.89
     19.2700	  545.00	  560.36	-1766.36	  442.61
     19.3700	  595.00	  560.08	-1716.08	  442.33
     19.4700	  555.00	  559.81	-1755.81	  442.05
     19.5700	  570.00	  559.53	-1740.53	  441.76
     19.6700	  563.00	  559.25	-1747.25	  441.48
     19.7700	  539.00	  558.97	-1770.97	  441.19
     19.8700	  512.00	  558.69	-1797.69	  440.90
     19.9700	  554.00	  558.41	-1755.41	  440.61
     20.0700	  553.00	  558.13	-1756.13	  440.32
     20.1700	  603.00	  557.84	-1705.84	  440.03
     20.2700	  546.00	  557.56	-1762.56	  439.73
     20.3700	  525.00	  557.25	-1783.25	  439.44
     20.4700	  527.00	  556.96	-1780.96	  439.14
     20.5700	  552.00	  556.68	-1755.68	  438.85
     20.6700	  543.00	  556.39	-1764.39	  438.55
     20.7700	  528.00	  556.11	-1779.11	  438.25
     20.8700	  502.00	  555.82	-1804.82	  437.95
     20.9700	  558.00	  555.57	-1748.57	  437.65
     21.0700	  567.00	  555.29	-1739.29	  437.34
     21.1700	  533.00	  555.00	-1773.00	  437.04
     21.2700	  497.00	  554.72	-1808.72	  436.73
     21.3700	  535.00	  554.43	-1770.43	  436.43
     21.4700	  564.00	  554.15	-1741.15	  436.12
     21.5700	  554.00	  553.86	-1750.86	  435.82
     21.6700	  547.00	  553.58	-1757.58	  435.51
     21.7700	  558.00	  553.30	-1746.30	  435.20
     21.8700	  542.00	  553.02	-1762.02	  434.89
     21.9700	  567.00	  552.74	-1736.74	  434.58
     22.0700	  560.00	  552.46	-1743.46	  434.27
     22.1700	  578.00	  552.18	-1725.18	  433.96
     22.2700	  552.00	  551.91	-1750.91	  433.64
     22.3700	  541.00	  551.64	-1761.64	  433.33
     22.4700	  536.00	  551.37	-1766.37	  433.02
     22.5700	  578.00	  551.11	-1724.11	  432.70
     22.6700	  564.00	  550.86	-1737.86	  432.39
     22.7700	  507.00	  550.61	-1794.61	  432.07
     22.8700	  501.00	  550.36	-1800.36	  431.76
     22.9700	  526.00	  550.13	-1775.13	  431.44
     23.0700	  536.00	  549.91	-1764.91	  431.12
     23.1700	  544.00	  549.71	-1756.71	  430.81
     23.2700	  587.00	  549.52	-1713.52	  430.49
     23.3700	  510.00	  549.36	-1790.36	  430.17
     23.4700	  600.00	  549.23	-1700.23	  429.85
     23.5700	  569.00	  549.15	-1731.15	  429.53
     23.6700	  572.00	  549.13	-1728.13	  429.21
     23.7700	  547.00	  549.34	-1753.34	  428.89
     23.8700	  571.00	  549.64	-1729.64	  428.57
     23.9700	  528.00	  550.36	-1773.36	  428.25
     24.0700	  580.00	  551.95	-1722.95	  427.93
     24.1700	  557.00	  555.09	-1749.09	  427.61
     24.2700	  591.00	  560.66	-1720.66	  427.29
     24.3700	  571.00	  569.67	-1749.67	  426.97
     24.4700	  568.00	  583.24	-1766.24	  426.65
     24.5700	  606.00	  601.82	-1746.82	  426.33
     24.6700	  647.00	  622.69	-1726.69	  426.01
     24.7700	  635.00	  637.55	-1753.55	  425.69
     24.8700	  667.00	  634.95	-1718.95	  425.37
     24.9700	  588.00	  612.97	-1775.97	  425.04
     25.0700	  593.00	  585.95	-1743.95	  424.72
     25.1700	  547.00	  565.79	-1769.79	  424.40
     25.2700	  561.00	  554.60	-1744.60	  424.08
     25.3700	  604.00	  549.47	-1696.47	  423.76
     25.4700	  559.00	  547.20	-1739.20	  423.44
     25.5700	  567.00	  546.01	-1730.01	  423.12
     25.6700	  589.00	  545.23	-1707.23	  422.80
     25.7700	  576.00	  544.67	-1719.67	  422.47
     25.8700	  555.00	  544.24	-1740.24	  422.15
     25.9700	  538.00	  543.91	-1756.91	  421.83
     26.0700	  562.00	  543.67	-1732.67	  421.51
     26.1700	  529.00	  543.50	-1765.50	  421.19
     26.2700	  588.00	  543.40	-1706.40	  420.87
     26.3700	  598.00	  543.39	-1696.39	  420.55
     26.4700	  573.00	  543.45	-1721.45	  420.24
     26.5700	  547.00	  543.60	-1747.60	  419.92
     26.6700	  573.00	  543.87	-1721.87	  419.60
     26.7700	  534.00	  544.26	-1761.26	  419.28
     26.8700	  541.00	  544.82	-1754.82	  418.96
     26.9700	  526.00	  545.60	-1770.60	  418.64
     27.0700	  550.00	  546.67	-1747.67	  418.33
     27.1700	  538.00	  548.15	-1761.15	  418.01
     27.2700	  603.00	  550.28	-1698.28	  417.69
     27.3700	  564.00	  553.54	-1740.54	  417.38
     27.4700	  542.00	  558.85	-1767.85	  417.06
     27.5700	  536.00	  567.85	-1782.85	  416.75
     27.6700	  560.00	  583.13	-1774.13	  416.43
     27.7700	  574.00	  608.06	-1785.06	  416.12
     27.8700	  642.00	  645.54	-1754.54	  415.81
     27.9700	  669.00	  695.70	-1777.70	  415.49
     28.0700	  739.00	  752.91	-1764.91	  415.18
     28.1700	  935.00	  803.11	-1619.11	  414.87
     28.2700	  995.00	  825.15	-1581.15	  414.56
     28.3700	  877.00	  806.36	-1680.36	  414.25
     28.4700	  773.00	  766.74	-1744.74	  413.94
     28.5700	  717.00	  739.88	-1773.88	  413.63
     28.6700	  690.00	  741.39	-1802.39	  413.32
     28.7700	  710.00	  766.73	-1807.73	  413.02
     28.8700	  763.00	  796.33	-1784.33	  412.71
     28.9700	  851.00	  802.19	-1702.19	  412.40
     29.0700	  824.00	  766.07	-1693.07	  412.10
     29.1700	  730.00	  703.27	-1724.27	  411.79
     29.2700	  615.00	  642.93	-1778.93	  411.49
     29.3700	  633.00	  599.24	-1717.24	  411.18
     29.4700	  596.00	  572.78	-1727.78	  410.88
     29.5700	  626.00	  558.47	-1683.47	  410.58
     29.6700	  627.00	  550.94	-1674.94	  410.28
     29.7700	  601.00	  546.68	-1696.68	  409.98
     29.8700	  619.00	  544.04	-1676.04	  409.68
     29.9700	  587.00	  542.35	-1706.35	  409.38
     30.0700	  599.00	  541.46	-1693.46	  409.09
     30.1700	  565.00	  541.52	-1727.52	  408.79
     30.2700	  551.00	  543.04	-1743.04	  408.49
     30.3700	  536.00	  547.06	-1762.06	  408.20
     30.4700	  588.00	  555.14	-1718.14	  407.91
     30.5700	  614.00	  568.98	-1705.98	  407.61
     30.6700	  585.00	  589.11	-1755.11	  407.32
     30.7700	  606.00	  613.11	-1758.11	  407.03
     30.8700	  603.00	  634.23	-1782.23	  406.74
     30.9700	  600.00	  642.02	-1793.02	  406.45
     31.0700	  618.00	  629.13	-1762.13	  406.17
     31.1700	  565.00	  602.29	-1788.29	  405.88
     31.2700	  544.00	  575.10	-1782.10	  405.59
     31.3700	  576.00	  554.96	-1729.96	  405.31
     31.4700	  569.00	  542.72	-1724.72	  405.03
     31.5700	  545.00	  536.18	-1742.18	  404.74
     31.6700	  554.00	  532.82	-1729.82	  404.46
     31.7700	  553.00	  530.97	-1728.97	  404.18
     31.8700	  544.00	  529.79	-1736.79	  403.90
     31.9700	  505.00	  528.96	-1774.96	  403.63
     32.0700	  511.00	  528.36	-1768.36	  403.35
     32.1700	  556.00	  527.95	-1722.95	  403.07
     32.2700	  556.00	  527.68	-1722.68	  402.80
     32.3700	  594.00	  527.56	-1684.56	  402.53
     32.4700	  543.00	  527.58	-1735.58	  402.26
     32.5700	  564.00	  527.76	-1714.76	  401.98
     32.6700	  537.00	  528.13	-1742.13	  401.71
     32.7700	  520.00	  528.72	-1759.72	  401.45
     32.8700	  529.00	  529.60	-1751.60	  401.18
     32.9700	  522.00	  530.87	-1759.87	  400.91
     33.0700	  580.00	  532.73	-1703.73	  400.65
     33.1700	  571.00	  535.60	-1715.60	  400.39
     33.2700	  598.00	  540.40	-1693.40	  400.12
     33.3700	  591.00	  549.31	-1709.31	  399.86
     33.4700	  513.00	  566.41	-1804.41	  399.60
     33.5700	  590.00	  598.32	-1759.32	  399.35
     33.6700	  621.00	  652.82	-1782.82	  399.09
     33.7700	  777.00	  733.74	-1707.74	  398.83
     33.8700	  892.00	  832.74	-1691.74	  398.58
     33.9700	 1018.00	  923.59	-1656.59	  398.33
     34.0700	 1028.00	  965.34	-1688.34	  398.07
     34.1700	 1034.00	  926.80	-1643.80	  397.82
     34.2700	  868.00	  827.59	-1710.59	  397.58
     34.3700	  726.00	  719.70	-1744.70	  397.33
     34.4700	  647.00	  635.92	-1739.92	  397.08
     34.5700	  584.00	  583.28	-1750.28	  396.84
     34.6700	  550.00	  554.91	-1755.91	  396.59
     34.7700	  529.00	  540.76	-1762.76	  396.35
     34.8700	  538.00	  533.43	-1746.43	  396.11
     34.9700	  564.00	  529.07	-1716.07	  395.87
     35.0700	  548.00	  526.06	-1729.06	  395.64
     35.1700	  528.00	  523.79	-1746.79	  395.40
     35.2700	  543.00	  521.99	-1729.99	  395.17
     35.3700	  479.00	  520.54	-1792.54	  394.93
     35.4700	  530.00	  519.32	-1740.32	  394.70
     35.5700	  490.00	  518.29	-1779.29	  394.47
     35.6700	  537.00	  517.40	-1731.40	  394.24
     35.7700	  507.00	  516.62	-1760.62	  394.01
     35.8700	  529.00	  515.94	-1737.94	  393.79
     35.9700	  487.00	  515.81	-1779.81	  393.56
     36.0700	  489.00	  515.27	-1777.27	  393.34
     36.1700	  495.00	  514.78	-1770.78	  393.12
     36.2700	  527.00	  514.33	-1738.33	  392.90
     36.3700	  488.00	  513.93	-1776.93	  392.68
     36.4700	  507.00	  513.56	-1757.56	  392.47
     36.5700	  525.00	  513.23	-1739.23	  392.25
     36.6700	  515.00	  512.94	-1748.94	  392.04
     36.7700	  550.00	  512.69	-1713.69	  391.83
     36.8700	  528.00	  512.49	-1735.49	  391.62
     36.9700	  511.00	  512.41	-1752.41	  391.41
     37.0700	  503.00	  512.53	-1760.53	  391.20
     37.1700	  526.00	  513.08	-1738.08	  390.99
     37.2700	  506.00	  514.38	-1759.38	  390.79
     37.3700	  508.00	  516.78	-1759.78	  390.59
     37.4700	  504.00	  520.38	-1767.38	  390.39
     37.5700	  511.00	  524.69	-1764.69	  390.19
     37.6700	  503.00	  528.54	-1776.54	  389.99
     37.7700	  530.00	  530.46	-1751.46	  389.79
     37.8700	  530.00	  529.90	-1750.90	  389.60
     37.9700	  501.00	  527.70	-1777.70	  389.40
     38.0700	  511.00	  524.59	-1764.59	  389.21
     38.1700	  521.00	  520.78	-1750.78	  389.02
     38.2700	  470.00	  516.88	-1797.88	  388.84
     38.3700	  516.00	  513.60	-1748.60	  388.65
     38.4700	  502.00	  511.23	-1760.23	  388.46
     38.5700	  500.00	  509.70	-1760.70	  388.28
     38.6700	  497.00	  508.77	-1762.77	  388.10
     38.7700	  489.00	  508.11	-1770.11	  387.92
     38.8700	  504.00	  507.73	-1754.73	  387.74
     38.9700	  499.00	  507.43	-1759.43	  387.57
     39.0700	  489.00	  507.18	-1769.18	  387.39
     39.1700	  534.00	  506.95	-1723.95	  387.22
     39.2700	  532.00	  506.66	-1725.66	  387.05
     39.3700	  520.00	  506.47	-1737.47	  386.88
     39.4700	  506.00	  506.29	-1751.29	  386.71
     39.5700	  499.00	  506.13	-1758.13	  386.54
     39.6700	  477.00	  506.10	-1780.10	  386.38
     39.7700	  521.00	  505.95	-1735.95	  386.21
     39.8700	  515.00	  505.82	-1741.82	  386.05
     39.9700	  504.00	  505.70	-1752.70	  385.89
     40.0700	  491.00	  505.59	-1765.59	  385.73
     40.1700	  523.00	  505.49	-1733.49	  385.58
     40.2700	  539.00	  505.40	-1717.40	  385.42
     40.3700	  521.00	  505.32	-1735.32	  385.27
     40.4700	  518.00	  505.25	-1738.25	  385.12
     40.5700	  522.00	  505.21	-1734.21	  384.97
     40.6700	  522.00	  505.17	-1734.17	  384.82
     40.7700	  501.00	  505.16	-1755.16	  384.67
     40.8700	  485.00	  505.18	-1771.18	  384.53
     40.9700	  486.00	  505.22	-1770.22	  384.38
     41.0700	  507.00	  505.29	-1749.29	  384.24
     41.1700	  451.00	  505.37	-1805.37	  384.10
     41.2700	  497.00	  505.54	-1759.54	  383.97
     41.3700	  451.00	  505.78	-1805.78	  383.83
     41.4700	  498.00	  506.11	-1759.11	  383.69
     41.5700	  518.00	  506.55	-1739.55	  383.56
     41.6700	  497.00	  507.60	-1761.60	  383.43
     41.7700	  454.00	  508.55	-1805.55	  383.30
     41.8700	  492.00	  510.14	-1769.14	  383.17
     41.9700	  521.00	  513.10	-1743.10	  383.05
     42.0700	  517.00	  518.91	-1752.91	  382.92
     42.1700	  504.00	  529.94	-1776.94	  382.80
     42.2700	  533.00	  549.12	-1767.12	  382.68
     42.3700	  570.00	  578.11	-1759.11	  382.56
     42.4700	  593.00	  615.00	-1773.00	  382.44
     42.5700	  645.00	  651.91	-1757.91	  382.33
     42.6700	  588.00	  675.58	-1838.58	  382.21
     42.7700	  590.00	  673.79	-1834.79	  382.10
     42.8700	  600.00	  646.47	-1797.47	  381.99
     42.9700	  553.00	  607.49	-1805.49	  381.88
     43.0700	  533.00	  570.73	-1788.73	  381.78
     43.1700	  529.00	  543.20	-1765.20	  381.67
     43.2700	  465.00	  525.81	-1811.81	  381.57
     43.3700	  514.00	  516.20	-1753.20	  381.46
     43.4700	  476.00	  511.29	-1786.29	  381.36
     43.5700	  489.00	  508.77	-1770.77	  381.27
     43.6700	  478.00	  507.35	-1780.35	  381.17
     43.7700	  483.00	  506.61	-1774.61	  381.07
     43.8700	  516.00	  505.95	-1740.95	  380.98
     43.9700	  501.00	  505.44	-1755.44	  380.89
     44.0700	  517.00	  505.05	-1739.05	  380.80
     44.1700	  558.00	  504.77	-1697.77	  380.71
     44.2700	  458.00	  504.53	-1797.53	  380.62
     44.3700	  526.00	  504.34	-1729.34	  380.54
     44.4700	  487.00	  504.08	-1768.08	  380.46
     44.5700	  493.00	  503.97	-1761.97	  380.37
     44.6700	  518.00	  503.90	-1736.90	  380.29
     44.7700	  490.00	  503.86	-1764.86	  380.22
     44.8700	  506.00	  503.85	-1748.85	  380.14
     44.9700	  499.00	  503.86	-1755.86	  380.06
     45.0700	  529.00	  503.89	-1725.89	  379.99
     45.1700	  525.00	  503.94	-1729.94	  379.92
     45.2700	  506.00	  504.20	-1749.20	  379.85
     45.3700	  513.00	  504.30	-1742.30	  379.78
     45.4700	  505.00	  504.42	-1750.42	  379.72
     45.5700	  489.00	  504.57	-1766.57	  379.65
     45.6700	  491.00	  504.74	-1764.74	  379.59
     45.7700	  506.00	  504.93	-1749.93	  379.53
     45.8700	  506.00	  505.15	-1750.15	  379.47
     45.9700	  536.00	  505.40	-1720.40	  379.41
     46.0700	  535.00	  505.69	-1721.69	  379.35
     46.1700	  506.00	  506.01	-1751.01	  379.30
     46.2700	  518.00	  506.37	-1739.37	  379.24
     46.3700	  507.00	  506.78	-1750.78	  379.19
     46.4700	  512.00	  507.25	-1746.25	  379.14
     46.5700	  517.00	  507.78	-1741.78	  379.09
     46.6700	  495.00	  508.38	-1764.38	  379.05
     46.7700	  550.00	  509.09	-1710.09	  379.00
     46.8700	  521.00	  509.95	-1739.95	  378.96
     46.9700	  452.00	  511.05	-1810.05	  378.92
     47.0700	  491.00	  512.64	-1772.64	  378.88
     47.1700	  488.00	  515.18	-1778.18	  378.84
     47.2700	  565.00	  519.44	-1705.44	  378.80
     47.3700	  482.00	  526.59	-1795.59	  378.77
     47.4700	  643.00	  537.57	-1645.57	  378.73
     47.5700	  542.00	  552.68	-1761.68	  378.70
     47.6700	  579.00	  570.50	-1742.50	  378.67
     47.7700	  609.00	  587.32	-1729.32	  378.64
     47.8700	  616.00	  597.77	-1732.77	  378.62
     47.9700	  544.00	  597.56	-1804.56	  378.59
     48.0700	  565.00	  587.46	-1773.46	  378.57
     48.1700	  559.00	  572.82	-1764.82	  378.54
     48.2700	  594.00	  558.87	-1715.87	  378.52
     48.3700	  561.00	  548.70	-1738.70	  378.50
     48.4700	  534.00	  543.18	-1760.18	  378.49
     48.5700	  533.00	  541.74	-1759.74	  378.47
     48.6700	  567.00	  543.39	-1727.39	  378.46
     48.7700	  549.00	  547.26	-1749.26	  378.44
     48.8700	  537.00	  552.96	-1766.96	  378.43
     48.9700	  553.00	  560.61	-1758.61	  378.42
     49.0700	  546.00	  570.91	-1775.91	  378.41
     49.1700	  587.00	  585.55	-1749.55	  378.41
     49.2700	  612.00	  608.03	-1747.03	  378.40
     49.3700	  679.00	  645.01	-1717.01	  378.40
     49.4700	  751.00	  707.63	-1707.63	  378.39
     49.5700	  811.00	  812.12	-1752.12	  378.39
     49.6700	  950.00	  975.96	-1776.96	  378.39
     49.7700	 1079.00	 1212.85	-1884.85	  378.40
     49.8700	 1418.00	 1521.06	-1854.06	  378.40
     49.9700	 1877.00	 1872.01	-1746.01	  378.40
     50.0700	 2277.00	 2201.06	-1675.06	  378.41
     50.1700	 2508.00	 2412.09	-1655.09	  378.42
     50.2700	 2497.00	 2418.67	-1672.67	  378.43
     50.3700	 2220.00	 2215.58	-1746.58	  378.44
     50.4700	 1888.00	 1887.74	-1750.74	  378.45
     50.5700	 1395.00	 1536.71	-1892.71	  378.47
     50.6700	 1052.00	 1229.84	-1928.84	  378.48
     50.7700	  806.00	  996.93	-1941.93	  378.50
     50.8700	  734.00	  839.75	-1856.75	  378.52
     50.9700	  646.00	  743.61	-1848.61	  378.54
     51.0700	  633.00	  687.90	-1805.90	  378.56
     51.1700	  600.00	  653.85	-1804.85	  378.58
     51.2700	  612.00	  628.94	-1767.94	  378.60
     51.3700	  583.00	  607.81	-1775.81	  378.63
     51.4700	  576.00	  589.57	-1764.57	  378.66
     51.5700	  559.00	  574.65	-1766.65	  378.68
     51.6700	  596.00	  563.31	-1718.31	  378.71
     51.7700	  585.00	  555.26	-1721.26	  378.74
     51.8700	  600.00	  549.80	-1700.80	  378.78
     51.9700	  561.00	  546.16	-1736.16	  378.81
     52.0700	  546.00	  543.76	-1748.76	  378.84
     52.1700	  605.00	  542.28	-1688.28	  378.88
     52.2700	  548.00	  541.66	-1744.66	  378.92
     52.3700	  578.00	  542.22	-1715.22	  378.96
     52.4700	  571.00	  543.92	-1723.92	  379.00
     52.5700	  529.00	  547.93	-1769.93	  379.04
     52.6700	  547.00	  556.29	-1760.29	  379.08
     52.7700	  590.00	  572.82	-1733.82	  379.13
     52.8700	  667.00	  603.59	-1687.59	  379.17
     52.9700	  691.00	  656.24	-1716.24	  379.22
     53.0700	  818.00	  737.46	-1670.46	  379.27
     53.1700	  912.00	  848.41	-1687.41	  379.32
     53.2700	 1021.00	  979.69	-1709.69	  379.37
     53.3700	 1105.00	 1108.14	-1754.14	  379.42
     53.4700	 1104.00	 1198.60	-1845.60	  379.47
     53.5700	 1228.00	 1217.03	-1740.03	  379.53
     53.6700	 1110.00	 1154.80	-1795.80	  379.58
     53.7700	  974.00	 1037.57	-1814.57	  379.64
     53.8700	  888.00	  903.41	-1766.41	  379.70
     53.9700	  741.00	  781.69	-1791.69	  379.76
     54.0700	  643.00	  687.52	-1795.52	  379.82
     54.1700	  587.00	  623.63	-1787.63	  379.88
     54.2700	  603.00	  584.92	-1732.92	  379.94
     54.3700	  565.00	  563.64	-1749.64	  380.00
     54.4700	  583.00	  552.77	-1720.77	  380.07
     54.5700	  565.00	  547.50	-1733.50	  380.14
     54.6700	  542.00	  545.11	-1754.11	  380.20
     54.7700	  591.00	  544.27	-1704.27	  380.27
     54.8700	  523.00	  544.42	-1772.42	  380.34
     54.9700	  547.00	  545.32	-1749.32	  380.41
     55.0700	  579.00	  546.92	-1718.92	  380.49
     55.1700	  555.00	  549.23	-1745.23	  380.56
     55.2700	  512.00	  552.30	-1791.30	  380.63
     55.3700	  541.00	  556.29	-1766.29	  380.71
     55.4700	  582.00	  561.35	-1730.35	  380.79
     55.5700	  582.00	  567.87	-1736.87	  380.86
     55.6700	  574.00	  576.63	-1753.63	  380.94
     55.7700	  585.00	  589.18	-1755.18	  381.02
     55.8700	  610.00	  608.72	-1749.72	  381.10
     55.9700	  581.00	  641.26	-1811.26	  381.18
     56.0700	  636.00	  696.92	-1811.92	  381.27
     56.1700	  755.00	  790.60	-1786.60	  381.35
     56.2700	  875.00	  940.24	-1816.24	  381.44
     56.3700	 1069.00	 1161.73	-1843.73	  381.52
     56.4700	 1283.00	 1460.41	-1928.41	  381.61
     56.5700	 1694.00	 1820.95	-1877.95	  381.70
     56.6700	 2160.00	 2199.56	-1790.56	  381.79
     56.7700	 2455.00	 2521.64	-1817.64	  381.88
     56.8700	 2565.00	 2695.17	-1881.17	  381.97
     56.9700	 2609.00	 2656.10	-1798.10	  382.06
     57.0700	 2356.00	 2419.51	-1814.51	  382.15
     57.1700	 2070.00	 2067.49	-1748.49	  382.25
     57.2700	 1715.00	 1690.28	-1726.28	  382.34
     57.3700	 1319.00	 1351.89	-1783.89	  382.44
     57.4700	 1054.00	 1084.86	-1781.86	  382.53
     57.5700	  951.00	  895.95	-1695.95	  382.63
     57.6700	  747.00	  775.16	-1779.16	  382.73
     57.7700	  703.00	  705.68	-1753.68	  382.83
     57.8700	  704.00	  671.58	-1718.58	  382.93
     57.9700	  701.00	  661.65	-1711.65	  383.03
     58.0700	  748.00	  669.96	-1672.96	  383.13
     58.1700	  738.00	  694.56	-1707.56	  383.23
     58.2700	  729.00	  735.61	-1757.61	  383.34
     58.3700	  871.00	  793.43	-1673.43	  383.44
     58.4700	 1009.00	  866.87	-1608.87	  383.55
     58.5700	 1076.00	  951.64	-1626.64	  383.65
     58.6700	 1232.00	 1039.68	-1558.68	  383.76
     58.7700	 1384.00	 1121.36	-1488.36	  383.87
     58.8700	 1478.00	 1189.68	-1462.68	  383.98
     58.9700	 1592.00	 1240.47	-1399.47	  384.08
     59.0700	 1647.00	 1268.26	-1372.26	  384.19
     59.1700	 1498.00	 1268.09	-1521.09	  384.31
     59.2700	 1422.00	 1243.40	-1572.40	  384.42
     59.3700	 1387.00	 1206.81	-1570.81	  384.53
     59.4700	 1272.00	 1171.64	-1650.64	  384.64
     59.5700	 1125.00	 1146.95	-1772.95	  384.76
     59.6700	 1127.00	 1140.08	-1764.08	  384.87
     59.7700	 1153.00	 1159.34	-1757.34	  384.99
     59.8700	 1217.00	 1210.26	-1744.26	  385.10
     59.9700	 1347.00	 1289.30	-1693.30	  385.22
     60.0700	 1428.00	 1380.80	-1703.80	  385.33
     60.1700	 1577.00	 1457.34	-1631.34	  385.45
     60.2700	 1576.00	 1486.44	-1661.44	  385.57
     60.3700	 1516.00	 1447.26	-1682.26	  385.69
     60.4700	 1413.00	 1345.39	-1683.39	  385.81
     60.5700	 1201.00	 1206.90	-1756.90	  385.93
     60.6700	 1070.00	 1060.32	-1741.32	  386.05
     60.7700	  915.00	  926.73	-1762.73	  386.17
     60.8700	  860.00	  818.10	-1709.10	  386.29
     60.9700	  712.00	  738.71	-1777.71	  386.42
     61.0700	  641.00	  687.57	-1797.57	  386.54
     61.1700	  645.00	  661.48	-1767.48	  386.66
     61.2700	  651.00	  657.81	-1757.81	  386.79
     61.3700	  590.00	  676.12	-1837.12	  386.91
     61.4700	  679.00	  718.46	-1790.46	  387.04
     61.5700	  742.00	  788.10	-1797.10	  387.16
     61.6700	  803.00	  887.13	-1835.13	  387.29
     61.7700	  944.00	 1013.46	-1820.46	  387.42
     61.8700	 1106.00	 1158.07	-1803.07	  387.55
     61.9700	 1231.00	 1303.22	-1823.22	  387.67
     62.0700	 1313.00	 1422.44	-1860.44	  387.80
     62.1700	 1382.00	 1485.39	-1854.39	  387.93
     62.2700	 1381.00	 1471.66	-1841.66	  388.06
     62.3700	 1295.00	 1385.30	-1841.30	  388.19
     62.4700	 1187.00	 1251.76	-1815.76	  388.32
     62.5700	 1032.00	 1101.26	-1820.26	  388.45
     62.6700	  885.00	  957.63	-1823.63	  388.58
     62.7700	  762.00	  835.46	-1824.46	  388.71
     62.8700	  667.00	  740.83	-1824.83	  388.84
     62.9700	  640.00	  673.32	-1784.32	  388.98
     63.0700	  562.00	  628.52	-1817.52	  389.11
     63.1700	  569.00	  600.60	-1782.60	  389.24
     63.2700	  550.00	  584.18	-1785.18	  389.37
     63.3700	  537.00	  575.25	-1789.25	  389.51
     63.4700	  573.00	  571.41	-1749.41	  389.64
     63.5700	  601.00	  571.76	-1721.76	  389.78
     63.6700	  583.00	  576.70	-1744.70	  389.91
     63.7700	  620.00	  587.61	-1718.61	  390.04
     63.8700	  608.00	  606.61	-1749.61	  390.18
     63.9700	  667.00	  635.96	-1719.96	  390.32
     64.0700	  722.00	  677.31	-1706.31	  390.45
     64.1700	  792.00	  730.56	-1689.56	  390.59
     64.2700	  871.00	  793.00	-1673.00	  390.72
     64.3700	  922.00	  858.55	-1687.55	  390.86
     64.4700	  948.00	  917.78	-1720.78	  391.00
     64.5700	 1022.00	  959.50	-1688.50	  391.13
     64.6700	 1026.00	  974.05	-1699.05	  391.27
     64.7700	  996.00	  960.22	-1715.22	  391.41
     64.8700	  955.00	  922.43	-1718.43	  391.54
     64.9700	  939.00	  869.74	-1681.74	  391.68
     65.0700	  838.00	  812.09	-1725.09	  391.82
     65.1700	  801.00	  757.52	-1707.52	  391.96
     65.2700	  722.00	  710.60	-1739.60	  392.09
     65.3700	  673.00	  672.56	-1750.56	  392.23
     65.4700	  640.00	  642.51	-1753.51	  392.37
     65.5700	  606.00	  618.99	-1763.99	  392.51
     65.6700	  567.00	  600.77	-1784.77	  392.65
     65.7700	  589.00	  586.92	-1748.92	  392.78
     65.8700	  533.00	  576.73	-1794.73	  392.92
     65.9700	  576.00	  569.64	-1744.64	  393.06
     66.0700	  544.00	  565.17	-1772.17	  393.20
     66.1700	  553.00	  562.89	-1760.89	  393.34
     66.2700	  527.00	  562.40	-1786.40	  393.48
     66.3700	  548.00	  563.41	-1766.41	  393.62
     66.4700	  565.00	  565.74	-1751.74	  393.75
     66.5700	  549.00	  569.42	-1771.42	  393.89
     66.6700	  569.00	  574.92	-1756.92	  394.03
     66.7700	  549.00	  582.89	-1784.89	  394.17
     66.8700	  615.00	  595.09	-1731.09	  394.31
     66.9700	  583.00	  614.44	-1782.44	  394.45
     67.0700	  626.00	  645.62	-1770.62	  394.58
     67.1700	  668.00	  695.37	-1778.37	  394.72
     67.2700	  739.00	  772.32	-1784.32	  394.86
     67.3700	  870.00	  885.79	-1766.79	  395.00
     67.4700	 1083.00	 1043.89	-1711.89	  395.14
     67.5700	 1211.00	 1249.77	-1789.77	  395.28
     67.6700	 1503.00	 1498.08	-1746.08	  395.41
     67.7700	 1827.00	 1772.43	-1696.43	  395.55
     67.8700	 2099.00	 2043.65	-1695.65	  395.69
     67.9700	 2373.00	 2270.77	-1648.77	  395.83
     68.0700	 2433.00	 2407.58	-1725.58	  395.96
     68.1700	 2447.00	 2419.21	-1723.21	  396.10
     68.2700	 2384.00	 2302.37	-1669.37	  396.24
     68.3700	 2039.00	 2087.70	-1799.70	  396.37
     68.4700	 1794.00	 1821.16	-1778.16	  396.51
     68.5700	 1588.00	 1545.30	-1708.30	  396.65
     68.6700	 1248.00	 1291.51	-1794.51	  396.78
     68.7700	 1038.00	 1078.22	-1791.22	  396.92
     68.8700	  877.00	  912.46	-1786.46	  397.06
     68.9700	  753.00	  792.31	-1790.31	  397.19
     69.0700	  704.00	  710.27	-1757.27	  397.33
     69.1700	  663.00	  657.04	-1745.04	  397.46
     69.2700	  629.00	  623.73	-1745.73	  397.59
     69.3700	  605.00	  603.25	-1749.25	  397.73
     69.4700	  595.00	  590.57	-1746.57	  397.86
     69.5700	  566.00	  582.48	-1767.48	  398.00
     69.6700	  585.00	  577.11	-1743.11	  398.13
     69.7700	  542.00	  573.42	-1782.42	  398.26
     69.8700	  583.00	  570.88	-1738.88	  398.40
     69.9700	  558.00	  569.20	-1762.20	  398.53
     70.0700	  576.00	  568.26	-1743.26	  398.66
     70.1700	  599.00	  568.01	-1720.01	  398.79
     70.2700	  564.00	  568.48	-1755.48	  398.92
     70.3700	  510.00	  569.73	-1810.73	  399.05
     70.4700	  603.00	  572.01	-1720.01	  399.18
     70.5700	  638.00	  575.78	-1688.78	  399.31
     70.6700	  525.00	  581.88	-1807.88	  399.44
     70.7700	  572.00	  591.80	-1770.80	  399.57
     70.8700	  612.00	  607.94	-1746.94	  399.70
     70.9700	  593.00	  633.87	-1791.87	  399.83
     71.0700	  656.00	  674.43	-1769.43	  399.96
     71.1700	  726.00	  735.49	-1760.49	  400.08
     71.2700	  809.00	  823.07	-1765.07	  400.21
     71.3700	  975.00	  941.85	-1717.85	  400.34
     71.4700	 1032.00	 1094.04	-1813.04	  400.46
     71.5700	 1262.00	 1274.01	-1763.01	  400.59
     71.6700	 1383.00	 1471.75	-1839.75	  400.71
     71.7700	 1653.00	 1668.89	-1766.89	  400.84
     71.8700	 1787.00	 1840.02	-1804.02	  400.96
     71.9700	 1887.00	 1955.92	-1819.92	  401.08
     72.0700	 1991.00	 1991.90	-1751.90	  401.21
     72.1700	 1909.00	 1939.48	-1781.48	  401.33
     72.2700	 1758.00	 1811.09	-1804.09	  401.45
     72.3700	 1672.00	 1634.26	-1713.26	  401.57
     72.4700	 1573.00	 1437.31	-1615.31	  401.69
     72.5700	 1388.00	 1244.14	-1607.14	  401.81
     72.6700	 1208.00	 1071.19	-1614.19	  401.93
     72.7700	 1134.00	  927.38	-1544.38	  402.05
     72.8700	  984.00	  815.15	-1582.15	  402.16
     72.9700	  944.00	  732.21	-1539.21	  402.28
     73.0700	  824.00	  673.68	-1600.68	  402.40
     73.1700	  771.00	  633.80	-1613.80	  402.51
     73.2700	  688.00	  607.22	-1670.22	  402.63
     73.3700	  652.00	  589.65	-1688.65	  402.74
     73.4700	  650.00	  577.98	-1678.98	  402.86
     73.5700	  593.00	  570.14	-1728.14	  402.97
     73.6700	  605.00	  564.88	-1710.88	  403.08
     73.7700	  596.00	  561.44	-1716.44	  403.19
     73.8700	  624.00	  559.40	-1686.40	  403.30
     73.9700	  584.00	  558.49	-1725.49	  403.41
     74.0700	  604.00	  558.50	-1705.50	  403.52
     74.1700	  655.00	  559.25	-1655.25	  403.63
     74.2700	  612.00	  560.46	-1699.46	  403.74
     74.3700	  596.00	  561.83	-1716.83	  403.85
     74.4700	  615.00	  562.99	-1698.99	  403.95
     74.5700	  590.00	  563.55	-1724.55	  404.06
     74.6700	  640.00	  563.22	-1674.22	  404.16
     74.7700	  627.00	  561.90	-1685.90	  404.27
     74.8700	  632.00	  559.77	-1678.77	  404.37
     74.9700	  580.00	  557.20	-1728.20	  404.47
     75.0700	  575.00	  554.62	-1730.62	  404.57
     75.1700	  605.00	  552.39	-1698.39	  404.67
     75.2700	  537.00	  551.01	-1765.01	  404.77
     75.3700	  555.00	  550.79	-1746.79	  404.87
     75.4700	  584.00	  552.29	-1719.29	  404.97
     75.5700	  507.00	  555.93	-1799.93	  405.06
     75.6700	  556.00	  562.10	-1757.10	  405.16
     75.7700	  626.00	  571.47	-1696.47	  405.25
     75.8700	  581.00	  584.25	-1754.25	  405.35
     75.9700	  610.00	  600.41	-1741.41	  405.44
     76.0700	  647.00	  619.47	-1723.47	  405.53
     76.1700	  636.00	  640.35	-1755.35	  405.63
     76.2700	  667.00	  661.32	-1745.32	  405.72
     76.3700	  649.00	  680.10	-1782.10	  405.81
     76.4700	  737.00	  694.02	-1708.02	  405.89
     76.5700	  663.00	  700.60	-1788.60	  405.98
     76.6700	  674.00	  698.48	-1775.48	  406.07
     76.7700	  689.00	  688.09	-1750.09	  406.15
     76.8700	  628.00	  671.40	-1794.40	  406.24
     76.9700	  697.00	  650.88	-1704.88	  406.32
     77.0700	  640.00	  629.43	-1740.43	  406.40
     77.1700	  568.00	  608.90	-1791.90	  406.49
     77.2700	  572.00	  590.68	-1769.68	  406.57
     77.3700	  550.00	  575.53	-1776.53	  406.64
     77.4700	  510.00	  563.65	-1804.65	  406.72
     77.5700	  507.00	  554.82	-1798.82	  406.80
     77.6700	  536.00	  548.56	-1763.56	  406.88
     77.7700	  532.00	  544.32	-1763.32	  406.95
     77.8700	  556.00	  541.54	-1736.54	  407.03
     77.9700	  554.00	  539.77	-1736.77	  407.10
     78.0700	  480.00	  538.65	-1809.65	  407.17
     78.1700	  497.00	  537.96	-1791.96	  407.24
     78.2700	  500.00	  537.54	-1788.54	  407.31
     78.3700	  510.00	  537.29	-1778.29	  407.38
     78.4700	  525.00	  537.16	-1763.16	  407.45
     78.5700	  491.00	  537.12	-1797.12	  407.51
     78.6700	  512.00	  537.18	-1776.18	  407.58
     78.7700	  539.00	  537.33	-1749.33	  407.64
     78.8700	  540.00	  537.59	-1748.59	  407.71
     78.9700	  541.00	  537.99	-1747.99	  407.77
     79.0700	  537.00	  538.57	-1752.57	  407.83
     79.1700	  541.00	  539.37	-1749.37	  407.89
     79.2700	  500.00	  540.27	-1791.27	  407.95
     79.3700	  490.00	  541.69	-1802.69	  408.00
     79.4700	  480.00	  543.52	-1814.52	  408.06
     79.5700	  548.00	  545.86	-1748.86	  408.11
     79.6700	  489.00	  548.81	-1810.81	  408.17
     79.7700	  503.00	  552.52	-1800.52	  408.22
     79.8700	  565.00	  557.16	-1743.16	  408.27
     79.9700	  552.00	  562.96	-1761.96	  408.32
     80.0700	  518.00	  570.18	-1803.18	  408.37
     80.1700	  573.00	  579.13	-1757.13	  408.42
     80.2700	  565.00	  590.15	-1776.15	  408.46
     80.3700	  561.00	  603.47	-1793.47	  408.51
     80.4700	  575.00	  619.15	-1795.15	  408.55
     80.5700	  594.00	  636.96	-1793.96	  408.59
     80.6700	  627.00	  656.31	-1780.31	  408.63
     80.7700	  675.00	  676.22	-1752.22	  408.67
     80.8700	  691.00	  695.31	-1755.31	  408.71
     80.9700	  726.00	  712.06	-1737.06	  408.75
     81.0700	  730.00	  725.09	-1746.09	  408.78
     81.1700	  728.00	  733.35	-1756.35	  408.82
     81.2700	  757.00	  736.24	-1730.24	  408.85
     81.3700	  759.00	  733.60	-1725.60	  408.88
     81.4700	  811.00	  725.79	-1665.79	  408.92
     81.5700	  713.00	  713.61	-1751.61	  408.94
     81.6700	  767.00	  698.12	-1682.12	  408.97
     81.7700	  765.00	  680.42	-1666.42	  409.00
     81.8700	  714.00	  661.58	-1698.58	  409.02
     81.9700	  739.00	  642.81	-1654.81	  409.05
     82.0700	  696.00	  624.99	-1679.99	  409.07
     82.1700	  652.00	  608.82	-1707.82	  409.09
     82.2700	  626.00	  594.70	-1719.70	  409.11
     82.3700	  614.00	  582.78	-1719.78	  409.13
     82.4700	  628.00	  573.06	-1696.06	  409.15
     82.5700	  631.00	  565.39	-1685.39	  409.16
     82.6700	  569.00	  559.66	-1741.66	  409.18
     82.7700	  590.00	  555.67	-1716.67	  409.19
     82.8700	  571.00	  553.26	-1733.26	  409.20
     82.9700	  539.00	  552.26	-1764.26	  409.21
     83.0700	  548.00	  552.58	-1755.58	  409.22
     83.1700	  522.00	  554.11	-1783.11	  409.23
     83.2700	  502.00	  556.74	-1805.74	  409.23
     83.3700	  546.00	  560.31	-1765.31	  409.24
     83.4700	  507.00	  564.62	-1808.62	  409.24
     83.5700	  516.00	  569.37	-1804.37	  409.24
     83.6700	  552.00	  574.18	-1773.18	  409.24
     83.7700	  520.00	  578.58	-1809.58	  409.24
     83.8700	  576.00	  582.06	-1757.06	  409.24
     83.9700	  577.00	  584.12	-1758.12	  409.24
     84.0700	  582.00	  584.40	-1753.40	  409.23
     84.1700	  567.00	  582.82	-1766.82	  409.22
     84.2700	  603.00	  579.61	-1727.61	  409.22
     84.3700	  545.00	  575.19	-1781.19	  409.21
     84.4700	  515.00	  570.07	-1806.07	  409.20
     84.5700	  542.00	  564.71	-1773.71	  409.18
     84.6700	  564.00	  559.51	-1746.51	  409.17
     84.7700	  541.00	  554.74	-1764.74	  409.15
     84.8700	  506.00	  550.60	-1795.60	  409.14
     84.9700	  519.00	  547.16	-1779.17	  409.12
     85.0700	  551.00	  544.46	-1744.46	  409.10
     85.1700	  534.00	  542.45	-1759.45	  409.07
     85.2700	  511.00	  541.04	-1781.04	  409.05
     85.3700	  554.00	  540.16	-1737.16	  409.03
     85.4700	  517.00	  539.71	-1773.71	  409.00
     85.5700	  547.00	  539.64	-1743.64	  408.97
     85.6700	  496.00	  539.88	-1794.88	  408.94
     85.7700	  522.00	  540.42	-1769.42	  408.91
     85.8700	  482.00	  541.27	-1810.27	  408.88
     85.9700	  568.00	  542.45	-1725.45	  408.85
     86.0700	  518.00	  544.03	-1777.03	  408.81
     86.1700	  510.00	  546.11	-1787.11	  408.78
     86.2700	  563.00	  548.80	-1736.80	  408.74
     86.3700	  579.00	  552.23	-1724.23	  408.70
     86.4700	  576.00	  556.54	-1731.54	  408.66
     86.5700	  585.00	  561.83	-1727.83	  408.61
     86.6700	  552.00	  567.86	-1766.86	  408.57
     86.7700	  560.00	  575.18	-1766.18	  408.52
     86.8700	  575.00	  583.31	-1759.31	  408.48
     86.9700	  637.00	  591.89	-1705.89	  408.43
     87.0700	  625.00	  600.43	-1726.43	  408.38
     87.1700	  624.00	  608.28	-1735.28	  408.33
     87.2700	  683.00	  614.72	-1682.72	  408.27
     87.3700	  600.00	  619.02	-1770.02	  408.22
     87.4700	  694.00	  620.62	-1677.62	  408.16
     87.5700	  635.00	  619.29	-1735.29	  408.10
     87.6700	  680.00	  615.25	-1686.25	  408.04
     87.7700	  645.00	  609.09	-1715.09	  407.98
     87.8700	  576.00	  601.59	-1776.59	  407.92
     87.9700	  643.00	  593.60	-1701.60	  407.86
     88.0700	  610.00	  585.87	-1726.87	  407.79
     88.1700	  639.00	  579.07	-1691.07	  407.72
     88.2700	  588.00	  573.69	-1736.69	  407.65
     88.3700	  628.00	  570.08	-1693.08	  407.58
     88.4700	  595.00	  568.39	-1724.39	  407.51
     88.5700	  560.00	  568.64	-1759.64	  407.44
     88.6700	  573.00	  570.69	-1748.69	  407.36
     88.7700	  564.00	  574.25	-1761.25	  407.29
     88.8700	  578.00	  578.96	-1751.96	  407.21
     88.9700	  599.00	  584.32	-1736.32	  407.13
     89.0700	  625.00	  589.79	-1715.79	  407.05
     89.1700	  637.00	  594.77	-1708.77	  406.96
     89.2700	  606.00	  598.66	-1743.66	  406.88
     89.3700	  614.00	  600.91	-1737.91	  406.79
     89.4700	  602.00	  601.17	-1750.17	  406.71
     89.5700	  625.00	  599.37	-1725.37	  406.62
     89.6700	  564.00	  595.71	-1782.71	  406.53
     89.7700	  547.00	  590.62	-1794.62	  406.43
     89.8700	  542.00	  584.60	-1793.59	  406.34
     89.9700	  599.00	  578.14	-1730.14	  406.25
     90.0700	  555.00	  571.69	-1767.69	  406.15
     90.1700	  546.00	  565.60	-1770.60	  406.05
     90.2700	  521.00	  560.11	-1790.11	  405.95
     90.3700	  530.00	  555.37	-1776.37	  405.85
     90.4700	  518.00	  551.46	-1784.46	  405.75
     90.5700	  481.00	  548.36	-1818.36	  405.64
     90.6700	  541.00	  546.02	-1756.02	  405.54
     90.7700	  519.00	  544.35	-1776.35	  405.43
     90.8700	  510.00	  543.25	-1784.25	  405.32
     90.9700	  520.00	  542.64	-1773.64	  405.21
     91.0700	  523.00	  542.45	-1770.45	  405.10
     91.1700	  477.00	  542.63	-1816.63	  404.98
     91.2700	  523.00	  543.18	-1771.18	  404.87
     91.3700	  482.00	  544.13	-1813.13	  404.75
     91.4700	  533.00	  545.55	-1763.55	  404.63
     91.5700	  535.00	  547.56	-1763.56	  404.51
     91.6700	  508.00	  550.29	-1793.29	  404.39
     91.7700	  512.00	  553.70	-1792.70	  404.27
     91.8700	  559.00	  558.42	-1750.42	  404.15
     91.9700	  545.00	  564.42	-1770.42	  404.02
     92.0700	  511.00	  571.86	-1811.86	  403.89
     92.1700	  634.00	  580.85	-1697.85	  403.76
     92.2700	  580.00	  591.44	-1762.44	  403.63
     92.3700	  589.00	  603.56	-1765.56	  403.50
     92.4700	  578.00	  617.06	-1790.06	  403.37
     92.5700	  684.00	  631.63	-1698.63	  403.23
     92.6700	  663.00	  646.85	-1734.85	  403.10
     92.7700	  659.00	  662.20	-1754.20	  402.96
     92.8700	  701.00	  677.05	-1727.05	  402.82
     92.9700	  726.00	  690.76	-1715.76	  402.68
     93.0700	  736.00	  702.83	-1717.83	  402.54
     93.1700	  796.00	  713.01	-1668.01	  402.39
     93.2700	  816.00	  721.41	-1656.41	  402.25
     93.3700	  828.00	  728.51	-1651.51	  402.10
     93.4700	  821.00	  734.96	-1664.96	  401.95
     93.5700	  807.00	  741.52	-1685.52	  401.81
     93.6700	  819.00	  748.84	-1680.84	  401.65
     93.7700	  825.00	  757.51	-1683.51	  401.50
     93.8700	  885.00	  768.02	-1634.02	  401.35
     93.9700	  819.00	  780.75	-1712.75	  401.19
     94.0700	  880.00	  795.96	-1666.96	  401.04
     94.1700	  841.00	  813.64	-1723.64	  400.88
     94.2700	  794.00	  833.41	-1790.41	  400.72
     94.3700	  907.00	  854.49	-1698.49	  400.56
     94.4700	  885.00	  875.62	-1741.62	  400.40
     94.5700	  933.00	  895.17	-1713.17	  400.23
     94.6700	  965.00	  911.25	-1697.25	  400.07
     94.7700	  891.00	  921.88	-1781.88	  399.90
     94.8700	  891.00	  925.39	-1785.39	  399.73
     94.9700	  915.00	  920.86	-1756.86	  399.56
     95.0700	  892.00	  908.32	-1767.32	  399.39
     95.1700	  872.00	  888.81	-1767.81	  399.22
     95.2700	  876.00	  864.02	-1739.02	  399.05
     95.3700	  797.00	  836.03	-1790.03	  398.87
     95.4700	  819.00	  806.93	-1738.93	  398.70
     95.5700	  743.00	  778.74	-1786.74	  398.52
     95.6700	  702.00	  753.31	-1802.31	  398.34
     95.7700	  740.00	  732.30	-1743.30	  398.16
     95.8700	  711.00	  717.21	-1757.21	  397.98
     95.9700	  686.00	  709.34	-1774.34	  397.80
     96.0700	  671.00	  709.81	-1789.81	  397.61
     96.1700	  676.00	  719.55	-1794.55	  397.43
     96.2700	  715.00	  739.32	-1775.32	  397.24
     96.3700	  744.00	  769.59	-1776.59	  397.05
     96.4700	  798.00	  810.50	-1763.50	  396.86
     96.5700	  855.00	  861.75	-1757.75	  396.67
     96.6700	  948.00	  922.49	-1725.49	  396.48
     96.7700	  977.00	  991.26	-1765.26	  396.29
     96.8700	 1102.00	 1065.89	-1714.89	  396.09
     96.9700	 1069.00	 1143.49	-1825.49	  395.90
     97.0700	 1223.00	 1220.49	-1748.49	  395.70
     97.1700	 1299.00	 1292.71	-1744.71	  395.50
     97.2700	 1387.00	 1355.62	-1719.62	  395.31
     97.3700	 1426.00	 1404.67	-1729.67	  395.11
     97.4700	 1459.00	 1435.89	-1727.89	  394.90
     97.5700	 1452.00	 1446.68	-1745.68	  394.70
     97.6700	 1427.00	 1436.35	-1760.35	  394.50
     97.7700	 1343.00	 1406.33	-1814.33	  394.29
     97.8700	 1310.00	 1359.66	-1800.66	  394.09
     97.9700	 1301.00	 1300.47	-1750.47	  393.88
     98.0700	 1196.00	 1233.15	-1788.15	  393.67
     98.1700	 1150.00	 1162.08	-1763.08	  393.46
     98.2700	 1118.00	 1091.23	-1724.23	  393.25
     98.3700	  975.00	 1024.07	-1800.07	  393.04
     98.4700	  972.00	  963.50	-1742.50	  392.83
     98.5700	  915.00	  911.86	-1747.86	  392.61
     98.6700	  828.00	  870.94	-1793.94	  392.40
     98.7700	  767.00	  842.06	-1826.06	  392.18
     98.8700	  749.00	  826.15	-1828.15	  391.97
     98.9700	  767.00	  823.86	-1807.86	  391.75
     99.0700	  851.00	  835.57	-1735.57	  391.53
     99.1700	  866.00	  861.50	-1746.50	  391.31
     99.2700	  867.00	  901.65	-1785.65	  391.09
     99.3700	  942.00	  955.81	-1764.81	  390.86
     99.4700	  936.00	 1023.49	-1838.49	  390.64
     99.5700	 1053.00	 1103.83	-1801.83	  390.42
     99.6700	 1168.00	 1195.46	-1778.46	  390.19
     99.7700	 1301.00	 1296.49	-1746.49	  389.97
     99.8700	 1432.00	 1404.36	-1723.36	  389.74
     99.9700	 1514.00	 1515.76	-1752.76	  389.51
    100.0700	 1624.00	 1626.73	-1753.73	  389.28
    100.1700	 1759.00	 1732.82	-1724.82	  389.05
    100.2700	 1893.00	 1829.51	-1687.51	  388.82
    100.3700	 1913.00	 1912.70	-1750.70	  388.59
    100.4700	 2069.00	 1979.06	-1661.06	  388.36
    100.5700	 2050.00	 2026.31	-1727.31	  388.13
    100.6700	 2158.00	 2052.93	-1645.93	  387.89
    100.7700	 2050.00	 2058.06	-1759.06	  387.66
    100.8700	 2098.00	 2041.43	-1694.43	  387.42
    100.9700	 1990.00	 2003.55	-1764.55	  387.18
    101.0700	 1975.00	 1946.18	-1722.18	  386.95
    101.1700	 1886.00	 1872.41	-1737.41	  386.71
    101.2700	 1863.00	 1786.59	-1674.59	  386.47
    101.3700	 1718.00	 1693.71	-1726.71	  386.23
    101.4700	 1574.00	 1598.86	-1775.86	  385.99
    101.5700	 1494.00	 1506.61	-1763.61	  385.75
    101.6700	 1458.00	 1420.76	-1713.76	  385.51
    101.7700	 1369.00	 1344.10	-1726.10	  385.27
    101.8700	 1289.00	 1278.29	-1740.29	  385.02
    101.9700	 1207.00	 1223.98	-1767.98	  384.78
    102.0700	 1186.00	 1180.78	-1745.78	  384.54
    102.1700	 1198.00	 1147.42	-1700.42	  384.29
    102.2700	 1077.00	 1121.92	-1795.92	  384.05
    102.3700	 1120.00	 1101.75	-1732.75	  383.80
    102.4700	 1055.00	 1084.18	-1780.18	  383.55
    102.5700	 1040.00	 1066.56	-1777.56	  383.31
    102.6700	 1045.00	 1046.70	-1752.70	  383.06
    102.7700	 1015.00	 1023.12	-1759.12	  382.81
    102.8700	 1017.00	  995.19	-1729.19	  382.56
    102.9700	  953.00	  963.08	-1761.08	  382.31
    103.0700	  928.00	  927.53	-1750.53	  382.06
    103.1700	  851.00	  889.63	-1789.63	  381.81
    103.2700	  825.00	  850.60	-1776.60	  381.56
    103.3700	  754.00	  811.64	-1808.64	  381.31
    103.4700	  808.00	  773.89	-1716.89	  381.06
    103.5700	  754.00	  738.29	-1735.29	  380.81
    103.6700	  694.00	  705.58	-1762.58	  380.55
    103.7700	  650.00	  676.30	-1777.30	  380.30
    103.8700	  648.00	  650.72	-1753.72	  380.05
    103.9700	  599.00	  628.94	-1780.94	  379.79
    104.0700	  608.00	  610.89	-1753.89	  379.54
    104.1700	  588.00	  596.34	-1759.34	  379.29
    104.2700	  566.00	  584.97	-1769.97	  379.03
    104.3700	  547.00	  576.42	-1780.42	  378.78
    104.4700	  547.00	  570.31	-1774.31	  378.52
    104.5700	  524.00	  566.24	-1793.24	  378.27
    104.6700	  558.00	  563.86	-1756.86	  378.01
    104.7700	  528.00	  562.83	-1785.83	  377.76
    104.8700	  557.00	  562.88	-1756.88	  377.50
    104.9700	  575.00	  563.74	-1739.74	  377.25
    105.0700	  544.00	  565.22	-1772.22	  376.99
    105.1700	  568.00	  567.17	-1750.17	  376.74
    105.2700	  538.00	  569.45	-1782.45	  376.48
    105.3700	  594.00	  571.97	-1728.97	  376.22
    105.4700	  579.00	  574.73	-1746.73	  375.97
    105.5700	  561.00	  577.72	-1767.72	  375.71
    105.6700	  566.00	  581.02	-1766.02	  375.46
    105.7700	  579.00	  584.73	-1756.73	  375.20
    105.8700	  551.00	  588.98	-1788.98	  374.94
    105.9700	  554.00	  593.92	-1790.92	  374.69
    106.0700	  560.00	  599.65	-1790.65	  374.43
    106.1700	  606.00	  606.26	-1751.26	  374.18
    106.2700	  585.00	  613.75	-1779.75	  373.92
    106.3700	  590.00	  622.07	-1783.07	  373.66
    106.4700	  609.00	  631.09	-1773.09	  373.41
    106.5700	  616.00	  640.59	-1775.59	  373.15
    106.6700	  642.00	  650.30	-1759.30	  372.90
    106.7700	  613.00	  659.87	-1797.87	  372.64
    106.8700	  660.00	  668.93	-1759.93	  372.39
    106.9700	  688.00	  677.05	-1740.05	  372.14
    107.0700	  693.00	  683.87	-1741.87	  371.88
    107.1700	  673.00	  689.07	-1767.07	  371.63
    107.2700	  688.00	  692.45	-1755.45	  371.37
    107.3700	  689.00	  694.01	-1756.01	  371.12
    107.4700	  658.00	  693.90	-1786.90	  370.87
    107.5700	  690.00	  692.44	-1753.44	  370.62
    107.6700	  700.00	  690.06	-1741.06	  370.37
    107.7700	  629.00	  687.20	-1809.20	  370.11
    107.8700	  667.00	  684.31	-1768.31	  369.86
    107.9700	  673.00	  681.73	-1759.73	  369.61
    108.0700	  713.00	  679.75	-1717.75	  369.36
    108.1700	  685.00	  678.53	-1744.53	  369.12
    108.2700	  684.00	  678.11	-1745.11	  368.87
    108.3700	  692.00	  678.41	-1737.41	  368.62
    108.4700	  662.00	  679.23	-1768.23	  368.37
    108.5700	  738.00	  680.30	-1693.30	  368.12
    108.6700	  712.00	  681.24	-1720.24	  367.88
    108.7700	  692.00	  681.65	-1740.65	  367.63
    108.8700	  680.00	  681.14	-1752.14	  367.39
    108.9700	  701.00	  679.37	-1729.37	  367.15
    109.0700	  661.00	  676.09	-1766.09	  366.90
    109.1700	  687.00	  671.23	-1735.23	  366.66
    109.2700	  713.00	  664.81	-1702.81	  366.42
    109.3700	  640.00	  657.03	-1768.03	  366.18
    109.4700	  681.00	  648.14	-1718.14	  365.94
    109.5700	  628.00	  638.46	-1761.46	  365.70
    109.6700	  655.00	  628.32	-1724.32	  365.46
    109.7700	  619.00	  618.06	-1750.06	  365.23
    109.8700	  638.00	  607.96	-1720.96	  364.99
    109.9700	  577.00	  598.30	-1772.30	  364.76
    110.0700	  605.00	  589.29	-1735.29	  364.52
    110.1700	  561.00	  581.10	-1771.10	  364.29
    110.2700	  560.00	  573.85	-1764.85	  364.06
    110.3700	  540.00	  567.58	-1778.58	  363.83
    110.4700	  523.00	  562.33	-1790.33	  363.60
    110.5700	  550.00	  558.07	-1759.07	  363.37
    110.6700	  568.00	  554.75	-1737.75	  363.14
    110.7700	  564.00	  552.30	-1739.30	  362.92
    110.8700	  560.00	  550.63	-1741.63	  362.69
    110.9700	  529.00	  549.65	-1771.65	  362.47
    111.0700	  504.00	  549.27	-1796.27	  362.25
    111.1700	  509.00	  549.41	-1791.41	  362.03
    111.2700	  550.00	  550.00	-1751.00	  361.81
    111.3700	  556.00	  550.96	-1745.96	  361.59
    111.4700	  570.00	  552.24	-1733.24	  361.38
    111.5700	  570.00	  553.80	-1734.80	  361.16
    111.6700	  569.00	  555.61	-1737.61	  360.95
    111.7700	  555.00	  557.65	-1753.65	  360.74
    111.8700	  522.00	  559.90	-1788.90	  360.53
    111.9700	  544.00	  562.37	-1769.37	  360.32
    112.0700	  560.00	  565.05	-1756.05	  360.11
    112.1700	  597.00	  567.96	-1721.96	  359.91
    112.2700	  564.00	  571.11	-1758.11	  359.71
    112.3700	  577.00	  574.55	-1748.55	  359.50
    112.4700	  595.00	  578.30	-1734.30	  359.30
    112.5700	  612.00	  582.42	-1721.42	  359.11
    112.6700	  639.00	  586.98	-1698.98	  358.91
    112.7700	  582.00	  592.06	-1761.06	  358.72
    112.8700	  683.00	  597.77	-1665.77	  358.52
    112.9700	  677.00	  604.28	-1678.28	  358.33
    113.0700	  699.00	  611.76	-1663.76	  358.14
    113.1700	  719.00	  620.48	-1652.48	  357.96
    113.2700	  717.00	  630.74	-1664.74	  357.77
    113.3700	  716.00	  642.97	-1677.97	  357.59
    113.4700	  835.00	  657.67	-1573.67	  357.41
    113.5700	  833.00	  675.50	-1593.50	  357.23
    113.6700	  886.00	  697.26	-1562.26	  357.06
    113.7700	  940.00	  723.92	-1534.92	  356.88
    113.8700	  910.00	  756.64	-1597.64	  356.71
    113.9700	 1051.00	  796.78	-1496.78	  356.54
    114.0700	 1073.00	  845.95	-1523.95	  356.37
    114.1700	 1163.00	  905.95	-1493.95	  356.21
    114.2700	 1198.00	  978.77	-1531.77	  356.05
    114.3700	 1240.00	 1066.58	-1577.58	  355.89
    114.4700	 1338.00	 1171.66	-1584.66	  355.73
    114.5700	 1419.00	 1296.35	-1628.35	  355.57
    114.6700	 1594.00	 1442.96	-1599.96	  355.42
    114.7700	 1733.00	 1613.59	-1631.59	  355.27
    114.8700	 1933.00	 1810.06	-1628.06	  355.12
    114.9700	 2118.00	 2033.73	-1666.73	  354.98
    115.0700	 2410.00	 2285.40	-1626.40	  354.84
    115.1700	 2574.00	 2565.14	-1742.14	  354.70
    115.2700	 2776.00	 2872.03	-1847.03	  354.56
    115.3700	 3024.00	 3204.15	-1931.15	  354.43
    115.4700	 3458.00	 3558.43	-1851.43	  354.30
    115.5700	 3771.00	 3930.68	-1910.68	  354.17
    115.6700	 4100.00	 4315.50	-1966.50	  354.04
    115.7700	 4384.00	 4706.15	-2073.15	  353.92
    115.8700	 4912.00	 5094.78	-1933.78	  353.80
    115.9700	 5165.00	 5472.39	-2058.39	  353.68
    116.0700	 5506.00	 5829.16	-2074.16	  353.57
    116.1700	 5972.00	 6154.60	-1933.60	  353.46
    116.2700	 6418.00	 6437.84	-1770.84	  353.35
    116.3700	 6653.00	 6668.40	-1766.40	  353.25
    116.4700	 6841.00	 6836.89	-1746.89	  353.15
    116.5700	 7004.00	 6936.00	-1683.00	  353.05
    116.6700	 6951.00	 6961.25	-1761.25	  352.95
    116.7700	 6949.00	 6911.59	-1713.59	  352.86
    116.8700	 6882.00	 6789.61	-1658.61	  352.77
    116.9700	 6704.00	 6601.17	-1648.17	  352.69
    117.0700	 6555.00	 6354.59	-1550.59	  352.61
    117.1700	 6147.00	 6059.73	-1663.73	  352.53
    117.2700	 5693.00	 5727.30	-1785.30	  352.46
    117.3700	 5353.00	 5367.98	-1765.98	  352.39
    117.4700	 4932.00	 4992.03	-1811.03	  352.32
    117.5700	 4766.00	 4608.78	-1593.78	  352.26
    117.6700	 4433.00	 4226.54	-1544.54	  352.20
    117.7700	 3984.00	 3852.57	-1619.57	  352.14
    117.8700	 3716.00	 3492.88	-1527.88	  352.09
    117.9700	 3247.00	 3152.27	-1656.27	  352.04
    118.0700	 2954.00	 2834.26	-1631.26	  351.99
    118.1700	 2530.00	 2541.21	-1762.21	  351.95
    118.2700	 2222.00	 2274.56	-1803.56	  351.92
    118.3700	 1917.00	 2034.75	-1868.75	  351.88
    118.4700	 1763.00	 1821.48	-1809.48	  351.86
    118.5700	 1575.00	 1633.76	-1809.76	  351.83
    118.6700	 1365.00	 1470.11	-1856.11	  351.81
    118.7700	 1203.00	 1328.73	-1876.73	  351.79
    118.8700	 1096.00	 1207.61	-1862.61	  351.78
    118.9700	 1011.00	 1104.61	-1844.61	  351.77
    119.0700	  929.00	 1017.56	-1839.56	  351.77
    119.1700	  871.00	  944.40	-1824.40	  351.77
    119.2700	  867.00	  883.17	-1767.17	  351.77
    119.3700	  752.00	  832.10	-1831.10	  351.78
    119.4700	  735.00	  789.60	-1805.60	  351.80
    119.5700	  694.00	  754.26	-1811.26	  351.82
    119.6700	  659.00	  724.89	-1816.89	  351.84
    119.7700	  611.00	  700.45	-1840.45	  351.87
    119.8700	  603.00	  680.10	-1828.10	  351.90
    119.9700	  593.00	  663.13	-1821.13	  351.93
    120.0700	  571.00	  648.95	-1828.95	  351.98
    120.1700	  559.00	  637.09	-1829.09	  352.02
    120.2700	  565.00	  627.17	-1813.17	  352.07
    120.3700	  534.00	  618.89	-1835.89	  352.13
    120.4700	  573.00	  612.02	-1790.02	  352.19
    120.5700	  548.00	  606.35	-1809.35	  352.26
    120.6700	  558.00	  601.75	-1794.75	  352.33
    120.7700	  538.00	  598.09	-1811.09	  352.40
    120.8700	  578.00	  595.28	-1768.28	  352.48
    120.9700	  578.00	  593.26	-1766.26	  352.57
    121.0700	  572.00	  591.97	-1770.97	  352.66
    121.1700	  562.00	  591.36	-1780.36	  352.76
    121.2700	  550.00	  591.38	-1792.38	  352.86
    121.3700	  617.00	  591.99	-1725.99	  352.97
    121.4700	  635.00	  593.14	-1709.14	  353.08
    121.5700	  563.00	  594.78	-1782.78	  353.20
    121.6700	  605.00	  596.86	-1742.86	  353.32
    121.7700	  591.00	  599.30	-1759.30	  353.45
    121.8700	  575.00	  602.05	-1778.05	  353.58
    121.9700	  549.00	  605.01	-1807.01	  353.72
    122.0700	  627.00	  608.10	-1732.10	  353.87
    122.1700	  632.00	  611.22	-1730.22	  354.02
    122.2700	  648.00	  614.25	-1717.25	  354.18
    122.3700	  664.00	  617.11	-1704.11	  354.34
    122.4700	  596.00	  619.67	-1774.67	  354.51
    122.5700	  648.00	  621.85	-1724.85	  354.69
    122.6700	  606.00	  623.53	-1768.53	  354.87
    122.7700	  671.00	  624.65	-1704.65	  355.06
    122.8700	  619.00	  625.16	-1757.16	  355.25
    122.9700	  620.00	  625.02	-1756.02	  355.45
    123.0700	  592.00	  624.24	-1783.24	  355.66
    123.1700	  652.00	  622.84	-1721.84	  355.87
    123.2700	  633.00	  620.87	-1738.87	  356.09
    123.3700	  655.00	  618.40	-1714.40	  356.31
    123.4700	  653.00	  615.50	-1713.50	  356.55
    123.5700	  648.00	  612.25	-1715.25	  356.78
    123.6700	  637.00	  608.73	-1722.73	  357.03
    123.7700	  642.00	  605.01	-1714.01	  357.28
    123.8700	  643.00	  601.19	-1709.19	  357.54
    123.9700	  577.00	  597.31	-1771.31	  357.80
    124.0700	  591.00	  593.46	-1753.46	  358.07
    124.1700	  630.00	  589.68	-1710.68	  358.35
    124.2700	  624.00	  586.01	-1713.01	  358.64
    124.3700	  625.00	  582.50	-1708.50	  358.93
    124.4700	  536.00	  579.17	-1794.17	  359.23
    124.5700	  608.00	  576.05	-1719.05	  359.54
    124.6700	  601.00	  573.15	-1723.15	  359.85
    124.7700	  592.00	  570.48	-1729.48	  360.17
    124.8700	  605.00	  568.06	-1714.06	  360.50
    124.9700	  623.00	  478.09	-1606.09	  360.83
    125.0700	  597.00	  478.43	-1751.00	  361.17
    125.1700	  592.00	  478.78	-1751.00	  361.52
    125.2700	  540.00	  479.14	-1751.00	  361.88
    125.3700	  585.00	  479.50	-1751.00	  362.25
    125.4700	  592.00	  479.87	-1751.00	  362.62
    125.5700	  554.00	  480.25	-1751.00	  363.00
    125.6700	  594.00	  480.64	-1751.00	  363.38
    125.7700	  542.00	  481.04	-1751.00	  363.78
    125.8700	  576.00	  481.44	-1751.00	  364.18
    125.9700	  567.00	  481.85	-1751.00	  364.59
    126.0700	  602.00	  482.27	-1751.00	  365.01
    126.1700	  588.00	  482.70	-1751.00	  365.44
    126.2700	  608.00	  483.13	-1751.00	  365.87
    126.3700	  573.00	  483.57	-1751.00	  366.32
    126.4700	  590.00	  484.03	-1751.00	  366.77
    126.5700	  603.00	  484.48	-1751.00	  367.23
    126.6700	  658.00	  484.95	-1751.00	  367.70
    126.7700	  632.00	  485.43	-1751.00	  368.17
    126.8700	  597.00	  485.91	-1751.00	  368.66
    126.9700	  624.00	  486.41	-1751.00	  369.15
    127.0700	  631.00	  486.91	-1751.00	  369.65
    127.1700	  615.00	  487.42	-1751.00	  370.16
    127.2700	  665.00	  487.94	-1751.00	  370.68
    127.3700	  680.00	  488.46	-1751.00	  371.21
    127.4700	  666.00	  489.00	-1751.00	  371.74
    127.5700	  683.00	  489.55	-1751.00	  372.29
    127.6700	  677.00	  490.10	-1751.00	  372.84
    127.7700	  712.00	  490.66	-1751.00	  373.41
    127.8700	  734.00	  491.24	-1751.00	  373.98
    127.9700	  739.00	  491.82	-1751.00	  374.56
    128.0700	  770.00	  492.41	-1751.00	  375.15
    128.1700	  754.00	  493.01	-1751.00	  375.75
    128.2700	  762.00	  493.62	-1751.00	  376.36
    128.3700	  818.00	  494.23	-1751.00	  376.98
    128.4700	  815.00	  494.86	-1751.00	  377.61
    128.5700	    0.00	  495.50	-1751.00	  378.24
    128.6700	    0.00	  496.15	-1751.00	  378.89
     12.3088	        	        	        	        	       0	(  0  0  2)	  0  1
     24.8910	        	        	        	        	       0	(  0  0  4)	  0  1
     28.3337	        	        	        	        	       0	(  1  0  0)	  0  1
     29.0308	        	        	        	        	       0	(  1  0  1)	  0  1
     31.0368	        	        	        	        	       0	(  1  0  2)	  0  1
     34.1447	        	        	        	        	       0	(  1  0  3)	  0  1
     37.7891	        	        	        	        	       0	(  0  0  6)	  0  1
     38.1214	        	        	        	        	       0	(  1  0  4)	  0  1
     42.7710	        	        	        	        	       0	(  1  0  5)	  0  1
     47.9544	        	        	        	        	       0	(  1  0  6)	  0  1
     50.2697	        	        	        	        	       0	(  1  1  0)	  0  1
     51.2093	        	        	        	        	       0	(  0  0  8)	  0  1
     51.9925	        	        	        	        	       0	(  1  1  2)	  0  1
     53.5841	        	        	        	        	       0	(  1  0  7)	  0  1
     56.9397	        	        	        	        	       0	(  1  1  4)	  0  1
     58.7663	        	        	        	        	       0	(  2  0  0)	  0  1
     59.1578	        	        	        	        	       0	(  2  0  1)	  0  1
     59.6137	        	        	        	        	       0	(  1  0  8)	  0  1
     60.3230	        	        	        	        	       0	(  2  0  2)	  0  1
     62.2360	        	        	        	        	       0	(  2  0  3)	  0  1
     64.6333	        	        	        	        	       0	(  1  1  6)	  0  1
     64.8597	        	        	        	        	       0	(  2  0  4)	  0  1
     65.4364	        	        	        	        	       0	(  0  0 10)	  0  1
     66.0291	        	        	        	        	       0	(  1  0  9)	  0  1
     68.1535	        	        	        	        	       0	(  2  0  5)	  0  1
     72.0804	        	        	        	        	       0	(  2  0  6)	  0  1
     72.8442	        	        	        	        	       0	(  1  0 10)	  0  1
     74.6695	        	        	        	        	       0	(  1  1  8)	  0  1
     76.6138	        	        	        	        	       0	(  2  0  7)	  0  1
     80.1006	        	        	        	        	       0	(  1  0 11)	  0  1
     80.9142	        	        	        	        	       0	(  0  0 12)	  0  1
     81.0063	        	        	        	        	       0	(  2  1  0)	  0  1
     81.3462	        	        	        	        	       0	(  2  1  1)	  0  1
     81.7432	        	        	        	        	       0	(  2  0  8)	  0  1
     82.3638	        	        	        	        	       0	(  2  1  2)	  0  1
     84.0549	        	        	        	        	       0	(  2  1  3)	  0  1
     86.4141	        	        	        	        	       0	(  2  1  4)	  0  1
     86.9388	        	        	        	        	       0	(  1  1 10)	  0  1
     87.4802	        	        	        	        	       0	(  2  0  9)	  0  1
     87.8734	        	        	        	        	       0	(  1  0 12)	  0  1
     89.4394	        	        	        	        	       0	(  2  1  5)	  0  1
     93.1361	        	        	        	        	       0	(  2  1  6)	  0  1
     93.8663	        	        	        	        	       0	(  2  0 10)	  0  1
     94.8943	        	        	        	        	       0	(  3  0  0)	  0  1
     95.2316	        	        	        	        	       0	(  3  0  1)	  0  1
     96.2446	        	        	        	        	       0	(  3  0  2)	  0  1
     96.2848	        	        	        	        	       0	(  1  0 13)	  0  1
     97.5238	        	        	        	        	       0	(  2  1  7)	  0  1
     97.9376	        	        	        	        	       0	(  3  0  3)	  0  1
     98.4498	        	        	        	        	       0	(  0  0 14)	  0  1
    100.3201	        	        	        	        	       0	(  3  0  4)	  0  1
    100.9866	        	        	        	        	       0	(  2  0 11)	  0  1
    101.8059	        	        	        	        	       0	(  1  1 12)	  0  1
    102.6451	        	        	        	        	       0	(  2  1  8)	  0  1
    103.4111	        	        	        	        	       0	(  3  0  5)	  0  1
    105.5351	        	        	        	        	       0	(  1  0 14)	  0  1
    107.2453	        	        	        	        	       0	(  3  0  6)	  0  1
    108.5806	        	        	        	        	       0	(  2  1  9)	  0  1
    108.9959	        	        	        	        	       0	(  2  0 12)	  0  1
    111.8845	        	        	        	        	       0	(  3  0  7)	  0  1
    115.4756	        	        	        	        	       0	(  2  1 10)	  0  1
    115.9754	        	        	        	        	       0	(  1  0 15)	  0  1
    116.6174	        	        	        	        	       0	(  2  2  0)	  0  1
    117.4364	        	        	        	        	       0	(  3  0  8)	  0  1
    118.1322	        	        	        	        	       0	(  2  2  2)	  0  1
    118.1776	        	        	        	        	       0	(  2  0 13)	  0  1
    119.9318	        	        	        	        	       0	(  0  0 16)	  0  1
    120.6447	        	        	        	        	       0	(  1  1 14)	  0  1
    122.8165	        	        	        	        	       0	(  2  2  4)	  0  1
    123.6002	        	        	        	        	       0	(  2  1 11)	  0  1
    124.0944	        	        	        	        	       0	(  3  0  9)	  0  1
    124.6817	        	        	        	        	       0	(  3  1  0)	  0  1
    125.0918	        	        	        	        	       0	(  3  1  1)	  0  1
    126.3349	        	        	        	        	       0	(  3  1  2)	  0  1
    128.3144	        	        	        	        	       0	(  1  0 16)	  0  1
    128.4525	        	        	        	        	       0	(  3  1  3)	  0  1
    129.1037	        	        	        	        	       0	(  2  0 14)	  0  1
    131.2538	        	        	        	        	       0	(  2  2  6)	  0  1
    131.5275	        	        	        	        	       0	(  3  1  4)	  0  1
    132.2324	        	        	        	        	       0	(  3  0 10)	  0  1
    133.5090	        	        	        	        	       0	(  2  1 12)	  0  1
    135.7131	        	        	        	        	       0	(  3  1  5)	  0  1
    141.3064	        	        	        	        	       0	(  3  1  6)	  0  1
    142.7069	        	        	        	        	       0	(  3  0 11)	  0  1
    143.2380	        	        	        	        	       0	(  2  0 15)	  0  1
    144.4773	        	        	        	        	       0	(  1  0 17)	  0  1
    145.4823	        	        	        	        	       0	(  2  2  8)	  0  1
    146.6591	        	        	        	        	       0	(  2  1 13)	  0  1
    148.9761	        	        	        	        	       0	(  3  1  7)	  0  1
    149.5690	        	        	        	        	       0	(  1  1 16)	  0  1
    153.9689	        	        	        	        	       0	(  0  0 18)	  0  1
    158.5770	        	        	        	        	       0	(  3  0 12)	  0  1
    158.8290	        	        	        	        	       0	(  4  0  0)	  0  1
    159.7851	        	        	        	        	       0	(  4  0  1)	  0  1
    160.9619	        	        	        	        	       0	(  3  1  8)	  0  1
    162.9609	        	        	        	        	       0	(  4  0  2)	  0  1
    169.6658	        	        	        	        	       0	(  2  0 16)	  0  1
    170.2946	        	        	        	        	       0	(  4  0  3)	  0  1
    174.0843	        	        	        	        	       0	(  2  1 14)	  0  1
