MSG Master    CELL:    5.87893   5.87893  23.09125   90.0000   90.0000  120.0000   SPGR: P 63/m m c             TEMP:    501.75
  2   1280     2.52000     0.00000    -0.08732     0.00000     0.00000    0
    95    95     0     0     2
       0.00000      10.00000
     125.00000     130.00000
 2Theta	Yobs	Ycal	Yobs-Ycal	Backg	Posr	(hkl)	K
      0.7700	    0.00	  947.58	-2115.50	  811.11
      0.8700	    0.00	  944.51	-2115.50	  808.03
      0.9700	   45.00	  941.45	-2115.50	  804.98
      1.0700	   42.00	  938.41	-2115.50	  801.94
      1.1700	   48.00	  935.39	-2115.50	  798.92
      1.2700	   41.00	  932.39	-2115.50	  795.92
      1.3700	   50.00	  929.41	-2115.50	  792.94
      1.4700	  111.00	  926.45	-2115.50	  789.98
      1.5700	  323.00	  923.50	-2115.50	  787.03
      1.6700	  457.00	  920.58	-2115.50	  784.11
      1.7700	  545.00	  917.67	-2115.50	  781.20
      1.8700	  641.00	  914.79	-2115.50	  778.31
      1.9700	  710.00	  911.92	-2115.50	  775.44
      2.0700	  809.00	  909.07	-2115.50	  772.59
      2.1700	  811.00	  906.23	-2115.50	  769.76
      2.2700	  745.00	  903.42	-2115.50	  766.94
      2.3700	  785.00	  900.62	-2115.50	  764.15
      2.4700	  713.00	  897.84	-2115.50	  761.37
      2.5700	  665.00	  895.08	-2115.50	  758.61
      2.6700	  663.00	  892.34	-2115.50	  755.87
      2.7700	  692.00	  889.61	-2115.50	  753.14
      2.8700	  632.00	  886.91	-2115.50	  750.43
      2.9700	  669.00	  884.22	-2115.50	  747.74
      3.0700	  622.00	  881.54	-2115.50	  745.07
      3.1700	  575.00	  878.89	-2115.50	  742.42
      3.2700	  714.00	  876.25	-2115.50	  739.78
      3.3700	  923.00	  873.63	-2115.50	  737.16
      3.4700	 1074.00	  871.03	-2115.50	  734.56
      3.5700	 1147.00	  868.44	-2115.50	  731.97
      3.6700	 1328.00	  865.88	-2115.50	  729.40
      3.7700	 1407.00	  863.32	-2115.50	  726.85
      3.8700	 1475.00	  860.79	-2115.50	  724.32
      3.9700	 1507.00	  858.27	-2115.50	  721.80
      4.0700	 1654.00	  855.77	-2115.50	  719.30
      4.1700	 1711.00	  853.29	-2115.50	  716.82
      4.2700	 1687.00	  850.82	-2115.50	  714.35
      4.3700	 1644.00	  848.37	-2115.50	  711.90
      4.4700	 1578.00	  845.94	-2115.50	  709.46
      4.5700	 1546.00	  843.52	-2115.50	  707.05
      4.6700	 1472.00	  841.12	-2115.50	  704.64
      4.7700	 1435.00	  838.73	-2115.50	  702.26
      4.8700	 1436.00	  836.36	-2115.50	  699.89
      4.9700	 1419.00	  834.01	-2115.50	  697.54
      5.0700	 1346.00	  831.67	-2115.50	  695.20
      5.1700	 1353.00	  829.35	-2115.50	  692.88
      5.2700	 1247.00	  827.05	-2115.50	  690.57
      5.3700	 1276.00	  824.76	-2115.50	  688.29
      5.4700	 1268.00	  822.48	-2115.50	  686.01
      5.5700	 1206.00	  820.23	-2115.50	  683.75
      5.6700	 1170.00	  817.99	-2115.50	  681.51
      5.7700	 1145.00	  815.76	-2115.50	  679.29
      5.8700	 1106.00	  813.55	-2115.50	  677.08
      5.9700	 1109.00	  811.35	-2115.50	  674.88
      6.0700	 1102.00	  809.17	-2115.50	  672.70
      6.1700	 1034.00	  807.01	-2115.50	  670.54
      6.2700	 1069.00	  804.86	-2115.50	  668.39
      6.3700	 1040.00	  802.73	-2115.50	  666.25
      6.4700	  989.00	  800.61	-2115.50	  664.13
      6.5700	 1012.00	  798.50	-2115.50	  662.03
      6.6700	 1032.00	  796.41	-2115.50	  659.94
      6.7700	  948.00	  794.34	-2115.50	  657.87
      6.8700	  924.00	  792.28	-2115.50	  655.81
      6.9700	  927.00	  790.23	-2115.50	  653.76
      7.0700	  907.00	  788.20	-2115.50	  651.73
      7.1700	  908.00	  786.19	-2115.50	  649.72
      7.2700	  889.00	  784.19	-2115.50	  647.71
      7.3700	  909.00	  782.20	-2115.50	  645.73
      7.4700	  839.00	  780.23	-2115.50	  643.76
      7.5700	  853.00	  778.27	-2115.50	  641.80
      7.6700	  838.00	  776.33	-2115.50	  639.85
      7.7700	  831.00	  774.40	-2115.50	  637.92
      7.8700	  835.00	  772.48	-2115.50	  636.01
      7.9700	  832.00	  770.58	-2115.50	  634.11
      8.0700	  836.00	  768.69	-2115.50	  632.22
      8.1700	  772.00	  766.82	-2115.50	  630.35
      8.2700	  832.00	  764.96	-2115.50	  628.49
      8.3700	  848.00	  763.11	-2115.50	  626.64
      8.4700	  792.00	  761.28	-2115.50	  624.81
      8.5700	  793.00	  759.46	-2115.50	  622.99
      8.6700	  783.00	  757.66	-2115.50	  621.19
      8.7700	  761.00	  755.87	-2115.50	  619.40
      8.8700	  778.00	  754.09	-2115.50	  617.62
      8.9700	  767.00	  752.33	-2115.50	  615.85
      9.0700	  780.00	  750.57	-2115.50	  614.10
      9.1700	  787.00	  748.84	-2115.50	  612.36
      9.2700	  781.00	  747.11	-2115.50	  610.64
      9.3700	  756.00	  745.40	-2115.50	  608.93
      9.4700	  727.00	  743.70	-2115.50	  607.23
      9.5700	  728.00	  742.02	-2115.50	  605.54
      9.6700	  720.00	  740.34	-2115.50	  603.87
      9.7700	  754.00	  738.68	-2115.50	  602.21
      9.8700	  801.00	  737.04	-2115.50	  600.57
      9.9700	  788.00	  735.40	-2115.50	  598.93
     10.0700	  716.00	  735.83	-2135.33	  597.31
     10.1700	  751.00	  734.45	-2098.95	  595.70
     10.2700	  749.00	  733.12	-2099.62	  594.11
     10.3700	  758.00	  731.86	-2089.36	  592.52
     10.4700	  723.00	  730.70	-2123.20	  590.95
     10.5700	  733.00	  729.68	-2112.18	  589.39
     10.6700	  714.00	  728.84	-2130.34	  587.85
     10.7700	  709.00	  728.28	-2134.78	  586.31
     10.8700	  739.00	  728.08	-2104.58	  584.79
     10.9700	  697.00	  728.34	-2146.84	  583.28
     11.0700	  717.00	  729.10	-2127.60	  581.78
     11.1700	  760.00	  730.40	-2085.90	  580.29
     11.2700	  757.00	  732.24	-2090.74	  578.82
     11.3700	  736.00	  734.66	-2114.17	  577.36
     11.4700	  737.00	  737.77	-2116.27	  575.91
     11.5700	  736.00	  741.70	-2121.20	  574.47
     11.6700	  766.00	  746.67	-2096.17	  573.04
     11.7700	  762.00	  752.97	-2106.47	  571.63
     11.8700	  763.00	  760.88	-2113.38	  570.22
     11.9700	  795.00	  770.48	-2090.98	  568.83
     12.0700	  793.00	  781.28	-2103.78	  567.45
     12.1700	  851.00	  791.65	-2056.15	  566.08
     12.2700	  881.00	  798.31	-2032.81	  564.73
     12.3700	  843.00	  796.55	-2069.05	  563.38
     12.4700	  816.00	  783.52	-2083.02	  562.04
     12.5700	  754.00	  763.32	-2124.82	  560.72
     12.6700	  754.00	  743.27	-2104.77	  559.41
     12.7700	  752.00	  727.30	-2090.80	  558.10
     12.8700	  685.00	  715.82	-2146.32	  556.81
     12.9700	  716.00	  707.97	-2107.47	  555.53
     13.0700	  703.00	  702.58	-2115.08	  554.26
     13.1700	  645.00	  698.70	-2169.20	  553.01
     13.2700	  672.00	  695.70	-2139.20	  551.76
     13.3700	  733.00	  693.21	-2075.71	  550.52
     13.4700	  691.00	  691.03	-2115.53	  549.29
     13.5700	  637.00	  689.08	-2167.58	  548.08
     13.6700	  716.00	  687.28	-2086.78	  546.87
     13.7700	  652.00	  685.61	-2149.11	  545.68
     13.8700	  694.00	  684.03	-2105.53	  544.49
     13.9700	  687.00	  682.53	-2111.03	  543.32
     14.0700	  691.00	  681.09	-2105.59	  542.16
     14.1700	  665.00	  679.70	-2130.20	  541.00
     14.2700	  686.00	  678.36	-2107.86	  539.86
     14.3700	  663.00	  677.05	-2129.55	  538.73
     14.4700	  690.00	  675.78	-2101.28	  537.60
     14.5700	  640.00	  674.53	-2150.03	  536.49
     14.6700	  682.00	  673.31	-2106.81	  535.39
     14.7700	  619.00	  672.12	-2168.62	  534.30
     14.8700	  628.00	  670.94	-2158.44	  533.21
     14.9700	  646.00	  669.79	-2139.29	  532.14
     15.0700	  655.00	  668.65	-2129.15	  531.08
     15.1700	  652.00	  667.54	-2131.04	  530.02
     15.2700	  615.00	  666.43	-2166.93	  528.98
     15.3700	  691.00	  665.34	-2089.84	  527.94
     15.4700	  638.00	  664.27	-2141.77	  526.92
     15.5700	  636.00	  663.21	-2142.71	  525.90
     15.6700	  657.00	  662.17	-2120.67	  524.90
     15.7700	  664.00	  661.13	-2112.63	  523.90
     15.8700	  625.00	  660.11	-2150.61	  522.91
     15.9700	  686.00	  659.10	-2088.60	  521.93
     16.0700	  643.00	  658.11	-2130.61	  520.96
     16.1700	  718.00	  657.12	-2054.62	  520.00
     16.2700	  661.00	  656.15	-2110.65	  519.05
     16.3700	  650.00	  655.18	-2120.68	  518.11
     16.4700	  704.00	  654.23	-2065.73	  517.18
     16.5700	  648.00	  653.29	-2120.79	  516.25
     16.6700	  672.00	  652.35	-2095.85	  515.34
     16.7700	  626.00	  651.43	-2140.93	  514.43
     16.8700	  639.00	  650.52	-2127.02	  513.54
     16.9700	  606.00	  649.62	-2159.12	  512.65
     17.0700	  676.00	  648.72	-2088.22	  511.77
     17.1700	  677.00	  647.84	-2086.34	  510.90
     17.2700	  646.00	  646.97	-2116.47	  510.03
     17.3700	  656.00	  646.10	-2105.60	  509.18
     17.4700	  606.00	  645.25	-2154.75	  508.34
     17.5700	  680.00	  644.40	-2079.90	  507.50
     17.6700	  650.00	  643.57	-2109.07	  506.67
     17.7700	  641.00	  642.74	-2117.24	  505.85
     17.8700	  616.00	  641.92	-2141.42	  505.04
     17.9700	  661.00	  641.11	-2095.61	  504.23
     18.0700	  637.00	  640.31	-2118.81	  503.44
     18.1700	  603.00	  639.52	-2152.02	  502.65
     18.2700	  603.00	  638.73	-2151.23	  501.87
     18.3700	  677.00	  637.96	-2076.46	  501.10
     18.4700	  638.00	  637.19	-2114.69	  500.34
     18.5700	  632.00	  636.43	-2119.93	  499.58
     18.6700	  645.00	  635.68	-2106.18	  498.83
     18.7700	  665.00	  634.94	-2085.44	  498.09
     18.8700	  663.00	  634.21	-2086.71	  497.36
     18.9700	  643.00	  633.48	-2105.98	  496.64
     19.0700	  624.00	  635.92	-2127.42	  495.92
     19.1700	  632.00	  635.28	-2118.78	  495.21
     19.2700	  663.00	  634.65	-2087.15	  494.51
     19.3700	  637.00	  634.03	-2112.53	  493.82
     19.4700	  643.00	  633.41	-2105.91	  493.13
     19.5700	  621.00	  632.81	-2127.31	  492.45
     19.6700	  610.00	  632.22	-2137.72	  491.78
     19.7700	  626.00	  631.64	-2121.14	  491.12
     19.8700	  609.00	  631.07	-2137.57	  490.46
     19.9700	  627.00	  630.51	-2119.01	  489.81
     20.0700	  619.00	  629.96	-2126.46	  489.17
     20.1700	  639.00	  629.42	-2105.92	  488.54
     20.2700	  589.00	  628.94	-2155.44	  487.91
     20.3700	  663.00	  628.43	-2080.93	  487.29
     20.4700	  609.00	  627.93	-2134.43	  486.68
     20.5700	  613.00	  627.43	-2129.93	  486.07
     20.6700	  595.00	  626.95	-2147.45	  485.47
     20.7700	  615.00	  626.49	-2126.99	  484.88
     20.8700	  613.00	  626.03	-2128.53	  484.29
     20.9700	  597.00	  625.59	-2144.09	  483.71
     21.0700	  616.00	  625.16	-2124.66	  483.14
     21.1700	  580.00	  624.74	-2160.24	  482.58
     21.2700	  614.00	  624.34	-2125.84	  482.02
     21.3700	  606.00	  623.95	-2133.45	  481.47
     21.4700	  573.00	  623.57	-2166.07	  480.92
     21.5700	  633.00	  623.21	-2105.71	  480.38
     21.6700	  676.00	  622.86	-2062.36	  479.85
     21.7700	  672.00	  622.53	-2066.03	  479.32
     21.8700	  617.00	  622.22	-2120.72	  478.80
     21.9700	  620.00	  621.92	-2117.42	  478.29
     22.0700	  640.00	  621.65	-2097.15	  477.78
     22.1700	  666.00	  621.39	-2070.89	  477.28
     22.2700	  599.00	  621.15	-2137.65	  476.79
     22.3700	  653.00	  620.93	-2083.43	  476.30
     22.4700	  665.00	  620.95	-2071.45	  475.82
     22.5700	  593.00	  620.78	-2143.28	  475.34
     22.6700	  632.00	  620.64	-2104.14	  474.88
     22.7700	  670.00	  620.52	-2066.02	  474.41
     22.8700	  637.00	  620.44	-2098.94	  473.95
     22.9700	  629.00	  620.39	-2106.89	  473.50
     23.0700	  617.00	  620.38	-2118.88	  473.06
     23.1700	  657.00	  620.41	-2078.91	  472.62
     23.2700	  629.00	  620.49	-2106.99	  472.18
     23.3700	  652.00	  620.62	-2084.12	  471.76
     23.4700	  608.00	  620.82	-2128.32	  471.33
     23.5700	  638.00	  621.09	-2098.59	  470.92
     23.6700	  648.00	  621.45	-2088.95	  470.51
     23.7700	  636.00	  621.93	-2101.43	  470.10
     23.8700	  614.00	  622.57	-2124.07	  469.70
     23.9700	  649.00	  623.43	-2089.93	  469.31
     24.0700	  633.00	  624.61	-2107.11	  468.92
     24.1700	  644.00	  626.30	-2097.80	  468.53
     24.2700	  596.00	  628.74	-2148.24	  468.16
     24.3700	  658.00	  632.27	-2089.77	  467.78
     24.4700	  692.00	  637.40	-2060.90	  467.42
     24.5700	  696.00	  644.40	-2063.90	  467.06
     24.6700	  664.00	  653.32	-2104.82	  466.70
     24.7700	  724.00	  663.66	-2055.16	  466.35
     24.8700	  736.00	  674.05	-2053.55	  466.00
     24.9700	  736.00	  681.99	-2061.49	  465.66
     25.0700	  690.00	  684.06	-2109.56	  465.33
     25.1700	  720.00	  678.57	-2074.07	  464.99
     25.2700	  742.00	  668.40	-2041.90	  464.67
     25.3700	  683.00	  658.14	-2090.64	  464.35
     25.4700	  616.00	  650.34	-2149.84	  464.03
     25.5700	  694.00	  645.34	-2066.84	  463.72
     25.6700	  663.00	  642.80	-2095.30	  463.42
     25.7700	  622.00	  642.08	-2135.58	  463.11
     25.8700	  641.00	  642.61	-2117.11	  462.82
     25.9700	  643.00	  644.03	-2116.53	  462.53
     26.0700	  624.00	  646.13	-2137.63	  462.24
     26.1700	  682.00	  648.83	-2082.33	  461.96
     26.2700	  641.00	  652.14	-2126.64	  461.68
     26.3700	  621.00	  656.10	-2150.60	  461.41
     26.4700	  700.00	  660.80	-2076.30	  461.14
     26.5700	  616.00	  666.35	-2165.85	  460.88
     26.6700	  677.00	  672.92	-2111.42	  460.62
     26.7700	  643.00	  680.71	-2153.21	  460.36
     26.8700	  707.00	  690.03	-2098.53	  460.11
     26.9700	  665.00	  701.24	-2151.74	  459.87
     27.0700	  661.00	  714.88	-2169.38	  459.63
     27.1700	  703.00	  731.69	-2144.19	  459.39
     27.2700	  698.00	  752.71	-2170.21	  459.16
     27.3700	  728.00	  779.66	-2167.16	  458.93
     27.4700	  782.00	  815.65	-2149.15	  458.70
     27.5700	  807.00	  867.26	-2175.76	  458.48
     27.6700	  820.00	  949.04	-2244.54	  458.27
     27.7700	  900.00	 1090.83	-2306.33	  458.05
     27.8700	 1052.00	 1346.61	-2410.11	  457.85
     27.9700	 1327.00	 1799.41	-2587.91	  457.64
     28.0700	 1951.00	 2549.33	-2713.83	  457.44
     28.1700	 3256.00	 3667.74	-2527.24	  457.25
     28.2700	 5245.00	 5105.91	-1976.41	  457.06
     28.3700	 7413.00	 6571.79	-1274.29	  456.87
     28.4700	 8462.00	 7482.83	-1136.33	  456.68
     28.5700	 7876.00	 7231.74	-1471.24	  456.50
     28.6700	 6155.00	 5974.02	-1934.52	  456.33
     28.7700	 4465.00	 4653.43	-2303.93	  456.16
     28.8700	 3553.00	 3918.84	-2481.34	  455.99
     28.9700	 3757.00	 3846.12	-2204.62	  455.82
     29.0700	 4519.00	 4146.51	-1743.01	  455.66
     29.1700	 4714.00	 4370.97	-1772.47	  455.50
     29.2700	 4302.00	 4117.56	-1931.06	  455.35
     29.3700	 3272.00	 3368.55	-2212.05	  455.20
     29.4700	 2333.00	 2497.30	-2279.80	  455.05
     29.5700	 1659.00	 1794.99	-2251.49	  454.91
     29.6700	 1220.00	 1335.31	-2230.81	  454.77
     29.7700	 1012.00	 1073.43	-2176.93	  454.63
     29.8700	  922.00	  933.44	-2126.94	  454.50
     29.9700	  882.00	  855.75	-2089.25	  454.37
     30.0700	  884.00	  807.43	-2038.93	  454.24
     30.1700	  782.00	  773.80	-2107.30	  454.12
     30.2700	  762.00	  748.91	-2102.41	  454.00
     30.3700	  724.00	  730.21	-2121.71	  453.88
     30.4700	  730.00	  716.68	-2102.18	  453.77
     30.5700	  682.00	  708.21	-2141.71	  453.66
     30.6700	  713.00	  705.49	-2107.99	  453.55
     30.7700	  698.00	  709.65	-2127.15	  453.45
     30.8700	  715.00	  721.34	-2121.84	  453.35
     30.9700	  739.00	  739.25	-2115.75	  453.25
     31.0700	  765.00	  758.81	-2109.31	  453.16
     31.1700	  809.00	  771.61	-2078.11	  453.06
     31.2700	  748.00	  767.63	-2135.13	  452.98
     31.3700	  737.00	  744.43	-2122.93	  452.89
     31.4700	  707.00	  712.53	-2121.03	  452.81
     31.5700	  693.00	  683.42	-2105.92	  452.73
     31.6700	  675.00	  661.77	-2102.27	  452.65
     31.7700	  701.00	  647.54	-2062.04	  452.58
     31.8700	  700.00	  638.78	-2054.28	  452.51
     31.9700	  678.00	  633.35	-2070.85	  452.44
     32.0700	  664.00	  629.76	-2081.26	  452.37
     32.1700	  682.00	  627.18	-2060.69	  452.31
     32.2700	  693.00	  625.24	-2047.74	  452.25
     32.3700	  673.00	  623.76	-2066.26	  452.19
     32.4700	  646.00	  622.68	-2092.18	  452.14
     32.5700	  653.00	  621.94	-2084.44	  452.08
     32.6700	  612.00	  621.56	-2125.06	  452.03
     32.7700	  662.00	  621.54	-2075.04	  451.99
     32.8700	  675.00	  621.94	-2062.44	  451.94
     32.9700	  641.00	  622.76	-2097.26	  451.90
     33.0700	  697.00	  624.12	-2042.62	  451.86
     33.1700	  615.00	  626.17	-2126.68	  451.82
     33.2700	  664.00	  629.19	-2080.69	  451.79
     33.3700	  662.00	  633.66	-2087.16	  451.75
     33.4700	  632.00	  640.58	-2124.08	  451.72
     33.5700	  649.00	  651.85	-2118.35	  451.70
     33.6700	  698.00	  670.90	-2088.40	  451.67
     33.7700	  736.00	  703.02	-2082.52	  451.65
     33.8700	  852.00	  754.84	-2018.34	  451.63
     33.9700	  835.00	  831.68	-2112.18	  451.61
     34.0700	  958.00	  932.36	-2089.86	  451.59
     34.1700	 1135.00	 1043.42	-2023.92	  451.58
     34.2700	 1310.00	 1136.07	-1941.57	  451.56
     34.3700	 1292.00	 1170.55	-1994.05	  451.55
     34.4700	 1238.00	 1121.96	-1999.46	  451.55
     34.5700	  983.00	 1013.75	-2146.25	  451.54
     34.6700	  869.00	  894.73	-2141.23	  451.53
     34.7700	  777.00	  795.72	-2134.22	  451.53
     34.8700	  708.00	  725.55	-2133.05	  451.53
     34.9700	  701.00	  681.03	-2095.53	  451.53
     35.0700	  671.00	  654.69	-2099.19	  451.54
     35.1700	  678.00	  639.33	-2076.83	  451.54
     35.2700	  680.00	  629.92	-2065.42	  451.55
     35.3700	  665.00	  623.65	-2074.15	  451.56
     35.4700	  667.00	  619.11	-2067.61	  451.57
     35.5700	  652.00	  615.64	-2079.14	  451.59
     35.6700	  636.00	  612.92	-2092.42	  451.60
     35.7700	  607.00	  610.73	-2119.23	  451.62
     35.8700	  645.00	  608.97	-2079.47	  451.64
     35.9700	  633.00	  607.54	-2090.04	  451.66
     36.0700	  587.00	  606.37	-2134.87	  451.68
     36.1700	  568.00	  605.43	-2152.93	  451.70
     36.2700	  641.00	  604.69	-2079.19	  451.73
     36.3700	  663.00	  604.11	-2056.61	  451.75
     36.4700	  655.00	  603.68	-2064.18	  451.78
     36.5700	  610.00	  603.45	-2108.95	  451.81
     36.6700	  634.00	  603.32	-2084.82	  451.84
     36.7700	  640.00	  603.34	-2078.84	  451.88
     36.8700	  628.00	  603.53	-2091.03	  451.91
     36.9700	  615.00	  603.91	-2104.41	  451.95
     37.0700	  623.00	  604.74	-2097.24	  451.98
     37.1700	  618.00	  606.20	-2103.70	  452.02
     37.2700	  608.00	  607.64	-2115.14	  452.06
     37.3700	  625.00	  609.79	-2100.29	  452.10
     37.4700	  595.00	  613.10	-2133.60	  452.15
     37.5700	  618.00	  618.24	-2115.74	  452.19
     37.6700	  638.00	  626.37	-2103.87	  452.24
     37.7700	  619.00	  638.93	-2135.43	  452.28
     37.8700	  647.00	  657.45	-2125.95	  452.33
     37.9700	  655.00	  682.79	-2143.29	  452.38
     38.0700	  714.00	  712.10	-2113.60	  452.43
     38.1700	  740.00	  745.28	-2120.78	  452.48
     38.2700	  734.00	  772.96	-2154.46	  452.54
     38.3700	  744.00	  784.83	-2156.33	  452.59
     38.4700	  750.00	  773.37	-2138.87	  452.65
     38.5700	  758.00	  742.78	-2100.28	  452.70
     38.6700	  692.00	  705.84	-2129.34	  452.76
     38.7700	  626.00	  672.57	-2162.07	  452.82
     38.8700	  607.00	  647.05	-2155.54	  452.88
     38.9700	  615.00	  629.50	-2130.00	  452.94
     39.0700	  605.00	  618.37	-2128.87	  453.00
     39.1700	  635.00	  611.61	-2092.11	  453.07
     39.2700	  574.00	  607.50	-2149.00	  453.13
     39.3700	  642.00	  604.86	-2078.36	  453.19
     39.4700	  556.00	  603.06	-2162.56	  453.26
     39.5700	  603.00	  600.62	-2113.12	  453.33
     39.6700	  582.00	  599.63	-2133.13	  453.39
     39.7700	  606.00	  598.86	-2108.36	  453.46
     39.8700	  602.00	  598.25	-2111.75	  453.53
     39.9700	  620.00	  597.78	-2093.28	  453.60
     40.0700	  586.00	  597.40	-2126.90	  453.67
     40.1700	  610.00	  597.12	-2102.62	  453.74
     40.2700	  618.00	  596.90	-2094.40	  453.82
     40.3700	  605.00	  596.74	-2107.24	  453.89
     40.4700	  561.00	  596.63	-2151.13	  453.96
     40.5700	  615.00	  596.58	-2097.08	  454.04
     40.6700	  586.00	  596.56	-2126.06	  454.11
     40.7700	  616.00	  597.11	-2096.61	  454.19
     40.8700	  605.00	  597.18	-2107.68	  454.27
     40.9700	  602.00	  597.29	-2110.79	  454.35
     41.0700	  578.00	  597.44	-2134.94	  454.42
     41.1700	  557.00	  597.63	-2156.13	  454.50
     41.2700	  581.00	  597.87	-2132.37	  454.58
     41.3700	  623.00	  598.22	-2090.72	  454.66
     41.4700	  588.00	  598.57	-2126.07	  454.74
     41.5700	  591.00	  599.00	-2123.50	  454.82
     41.6700	  614.00	  599.52	-2101.02	  454.90
     41.7700	  615.00	  600.16	-2100.66	  454.99
     41.8700	  583.00	  600.95	-2133.45	  455.07
     41.9700	  628.00	  601.98	-2089.48	  455.15
     42.0700	  613.00	  603.39	-2105.89	  455.24
     42.1700	  651.00	  605.44	-2069.94	  455.32
     42.2700	  573.00	  608.58	-2151.08	  455.40
     42.3700	  629.00	  613.53	-2100.03	  455.49
     42.4700	  608.00	  621.19	-2128.69	  455.57
     42.5700	  592.00	  632.62	-2156.12	  455.66
     42.6700	  610.00	  648.38	-2153.88	  455.75
     42.7700	  629.00	  668.04	-2154.54	  455.83
     42.8700	  626.00	  689.31	-2178.81	  455.92
     42.9700	  651.00	  707.49	-2171.99	  456.01
     43.0700	  702.00	  716.20	-2129.70	  456.09
     43.1700	  669.00	  711.16	-2157.66	  456.18
     43.2700	  673.00	  694.60	-2137.10	  456.27
     43.3700	  645.00	  673.30	-2143.80	  456.36
     43.4700	  633.00	  652.98	-2135.48	  456.44
     43.5700	  632.00	  636.58	-2120.08	  456.53
     43.6700	  652.00	  624.52	-2088.02	  456.62
     43.7700	  594.00	  616.44	-2137.94	  456.71
     43.8700	  626.00	  611.35	-2100.85	  456.80
     43.9700	  645.00	  608.24	-2078.74	  456.89
     44.0700	  624.00	  606.52	-2098.02	  456.98
     44.1700	  584.00	  605.31	-2136.81	  457.07
     44.2700	  620.00	  604.50	-2100.00	  457.16
     44.3700	  611.00	  603.94	-2108.44	  457.25
     44.4700	  620.00	  603.55	-2099.05	  457.34
     44.5700	  619.00	  603.27	-2099.77	  457.43
     44.6700	  591.00	  603.09	-2127.59	  457.51
     44.7700	  639.00	  602.98	-2079.48	  457.60
     44.8700	  600.00	  602.93	-2118.43	  457.69
     44.9700	  573.00	  602.94	-2145.44	  457.78
     45.0700	  582.00	  603.26	-2136.76	  457.87
     45.1700	  601.00	  603.36	-2117.86	  457.96
     45.2700	  618.00	  603.48	-2100.98	  458.05
     45.3700	  631.00	  603.65	-2088.15	  458.14
     45.4700	  597.00	  603.84	-2122.34	  458.23
     45.5700	  581.00	  604.06	-2138.56	  458.32
     45.6700	  593.00	  604.32	-2126.82	  458.41
     45.7700	  593.00	  604.60	-2127.10	  458.50
     45.8700	  657.00	  605.00	-2063.50	  458.59
     45.9700	  629.00	  605.34	-2091.84	  458.68
     46.0700	  552.00	  605.72	-2169.22	  458.77
     46.1700	  621.00	  606.13	-2100.63	  458.86
     46.2700	  575.00	  606.59	-2147.09	  458.95
     46.3700	  647.00	  607.08	-2075.58	  459.03
     46.4700	  644.00	  607.63	-2079.13	  459.12
     46.5700	  567.00	  608.03	-2156.53	  459.21
     46.6700	  569.00	  608.85	-2155.35	  459.30
     46.7700	  618.00	  609.60	-2107.10	  459.39
     46.8700	  599.00	  610.44	-2126.94	  459.47
     46.9700	  621.00	  611.42	-2105.92	  459.56
     47.0700	  656.00	  612.54	-2072.04	  459.65
     47.1700	  587.00	  613.88	-2142.38	  459.73
     47.2700	  566.00	  615.56	-2165.06	  459.82
     47.3700	  651.00	  617.79	-2082.29	  459.91
     47.4700	  610.00	  620.92	-2126.42	  459.99
     47.5700	  602.00	  625.42	-2138.92	  460.08
     47.6700	  622.00	  631.90	-2125.40	  460.16
     47.7700	  660.00	  640.99	-2096.49	  460.25
     47.8700	  642.00	  653.04	-2126.54	  460.33
     47.9700	  646.00	  667.87	-2137.37	  460.42
     48.0700	  689.00	  684.27	-2110.77	  460.50
     48.1700	  714.00	  699.67	-2101.17	  460.58
     48.2700	  671.00	  710.17	-2154.67	  460.66
     48.3700	  727.00	  712.26	-2100.76	  460.75
     48.4700	  686.00	  705.65	-2135.15	  460.83
     48.5700	  726.00	  693.77	-2083.27	  460.91
     48.6700	  665.00	  681.28	-2131.78	  460.99
     48.7700	  594.00	  670.13	-2191.63	  461.07
     48.8700	  633.00	  662.10	-2144.60	  461.15
     48.9700	  622.00	  657.53	-2151.03	  461.23
     49.0700	  686.00	  656.19	-2085.69	  461.31
     49.1700	  627.00	  657.66	-2146.16	  461.39
     49.2700	  639.00	  661.58	-2138.08	  461.47
     49.3700	  641.00	  667.84	-2142.34	  461.55
     49.4700	  684.00	  676.84	-2108.34	  461.62
     49.5700	  648.00	  689.95	-2157.45	  461.70
     49.6700	  764.00	  710.54	-2062.04	  461.77
     49.7700	  758.00	  745.99	-2103.49	  461.85
     49.8700	  830.00	  810.37	-2095.87	  461.92
     49.9700	  940.00	  926.56	-2102.06	  462.00
     50.0700	 1163.00	 1124.22	-2076.72	  462.07
     50.1700	 1558.00	 1430.41	-1987.91	  462.15
     50.2700	 1977.00	 1851.27	-1989.77	  462.22
     50.3700	 2592.00	 2350.88	-1874.38	  462.29
     50.4700	 2954.00	 2836.16	-1997.66	  462.36
     50.5700	 3204.00	 3163.73	-2075.23	  462.43
     50.6700	 3084.00	 3198.89	-2230.39	  462.50
     50.7700	 2788.00	 2922.13	-2249.63	  462.57
     50.8700	 2347.00	 2454.24	-2222.74	  462.64
     50.9700	 1838.00	 1949.54	-2227.04	  462.71
     51.0700	 1415.00	 1514.40	-2214.90	  462.78
     51.1700	 1140.00	 1193.77	-2169.27	  462.84
     51.2700	  935.00	  987.45	-2167.95	  462.91
     51.3700	  843.00	  869.45	-2141.95	  462.97
     51.4700	  855.00	  807.71	-2068.21	  463.04
     51.5700	  775.00	  775.70	-2116.20	  463.10
     51.6700	  752.00	  756.36	-2119.86	  463.17
     51.7700	  773.00	  741.28	-2083.78	  463.23
     51.8700	  737.00	  728.22	-2106.72	  463.29
     51.9700	  683.00	  717.51	-2150.01	  463.35
     52.0700	  682.00	  709.65	-2143.15	  463.41
     52.1700	  720.00	  704.42	-2099.92	  463.47
     52.2700	  709.00	  700.77	-2107.27	  463.53
     52.3700	  767.00	  697.27	-2045.77	  463.59
     52.4700	  673.00	  692.98	-2135.48	  463.64
     52.5700	  690.00	  688.23	-2113.73	  463.70
     52.6700	  671.00	  684.19	-2128.69	  463.76
     52.7700	  675.00	  682.12	-2122.62	  463.81
     52.8700	  628.00	  683.17	-2170.67	  463.86
     52.9700	  728.00	  688.59	-2076.09	  463.92
     53.0700	  705.00	  700.03	-2110.53	  463.97
     53.1700	  710.00	  719.81	-2125.31	  464.02
     53.2700	  712.00	  750.92	-2154.42	  464.07
     53.3700	  784.00	  796.56	-2128.06	  464.12
     53.4700	  892.00	  859.20	-2082.70	  464.17
     53.5700	  938.00	  939.20	-2116.70	  464.22
     53.6700	 1082.00	 1033.06	-2066.56	  464.26
     53.7700	 1159.00	 1131.62	-2088.12	  464.31
     53.8700	 1260.00	 1217.90	-2073.40	  464.36
     53.9700	 1297.00	 1269.46	-2087.96	  464.40
     54.0700	 1354.00	 1268.24	-2029.74	  464.45
     54.1700	 1262.00	 1214.51	-2068.01	  464.49
     54.2700	 1135.00	 1127.04	-2107.54	  464.53
     54.3700	 1001.00	 1028.70	-2143.20	  464.57
     54.4700	  988.00	  935.97	-2063.47	  464.61
     54.5700	  923.00	  857.61	-2050.11	  464.65
     54.6700	  786.00	  796.70	-2126.20	  464.69
     54.7700	  762.00	  752.60	-2106.10	  464.73
     54.8700	  734.00	  722.56	-2104.06	  464.76
     54.9700	  681.00	  703.17	-2137.67	  464.80
     55.0700	  705.00	  691.21	-2101.71	  464.83
     55.1700	  625.00	  684.17	-2174.67	  464.87
     55.2700	  671.00	  680.35	-2124.85	  464.90
     55.3700	  683.00	  678.71	-2111.21	  464.93
     55.4700	  696.00	  678.66	-2098.16	  464.96
     55.5700	  693.00	  679.95	-2102.45	  464.99
     55.6700	  707.00	  682.50	-2091.00	  465.02
     55.7700	  713.00	  686.34	-2088.84	  465.05
     55.8700	  723.00	  691.67	-2084.17	  465.07
     55.9700	  663.00	  698.86	-2151.36	  465.10
     56.0700	  721.00	  708.64	-2103.14	  465.13
     56.1700	  697.00	  722.42	-2140.92	  465.15
     56.2700	  691.00	  742.81	-2167.31	  465.17
     56.3700	  781.00	  774.42	-2108.92	  465.19
     56.4700	  818.00	  824.63	-2122.13	  465.22
     56.5700	  869.00	  903.98	-2150.48	  465.24
     56.6700	  991.00	 1025.40	-2149.90	  465.25
     56.7700	 1161.00	 1201.51	-2156.01	  465.27
     56.8700	 1444.00	 1440.05	-2111.55	  465.29
     56.9700	 1763.00	 1737.72	-2090.22	  465.30
     57.0700	 2098.00	 2074.03	-2091.53	  465.32
     57.1700	 2454.00	 2405.77	-2067.27	  465.33
     57.2700	 2706.00	 2665.63	-2075.13	  465.35
     57.3700	 2711.00	 2778.05	-2182.55	  465.36
     57.4700	 2637.00	 2702.03	-2180.53	  465.37
     57.5700	 2355.00	 2465.65	-2226.15	  465.38
     57.6700	 2085.00	 2142.65	-2173.15	  465.39
     57.7700	 1722.00	 1804.81	-2198.31	  465.39
     57.8700	 1453.00	 1500.17	-2162.67	  465.40
     57.9700	 1169.00	 1253.10	-2199.60	  465.41
     58.0700	 1043.00	 1069.79	-2142.29	  465.41
     58.1700	  871.00	  944.58	-2189.08	  465.42
     58.2700	  869.00	  866.32	-2112.82	  465.42
     58.3700	  764.00	  823.63	-2175.13	  465.42
     58.4700	  734.00	  808.14	-2189.64	  465.42
     58.5700	  803.00	  815.29	-2127.79	  465.42
     58.6700	  845.00	  843.56	-2114.06	  465.42
     58.7700	  913.00	  892.78	-2095.28	  465.41
     58.8700	  913.00	  961.70	-2164.20	  465.41
     58.9700	 1049.00	 1046.09	-2112.59	  465.40
     59.0700	 1101.00	 1137.30	-2151.80	  465.40
     59.1700	 1131.00	 1222.63	-2207.13	  465.39
     59.2700	 1226.00	 1289.78	-2179.28	  465.38
     59.3700	 1381.00	 1333.05	-2067.55	  465.37
     59.4700	 1319.00	 1352.38	-2148.88	  465.36
     59.5700	 1298.00	 1347.48	-2164.98	  465.35
     59.6700	 1333.00	 1318.95	-2101.45	  465.34
     59.7700	 1299.00	 1274.81	-2091.31	  465.32
     59.8700	 1270.00	 1229.66	-2075.16	  465.31
     59.9700	 1212.00	 1197.45	-2100.95	  465.29
     60.0700	 1270.00	 1187.28	-2032.78	  465.28
     60.1700	 1232.00	 1204.43	-2087.93	  465.26
     60.2700	 1329.00	 1252.11	-2038.61	  465.24
     60.3700	 1430.00	 1330.15	-2015.65	  465.22
     60.4700	 1580.00	 1431.06	-1966.56	  465.20
     60.5700	 1614.00	 1537.12	-2038.62	  465.18
     60.6700	 1641.00	 1620.61	-2095.11	  465.15
     60.7700	 1686.00	 1650.40	-2079.90	  465.13
     60.8700	 1547.00	 1607.99	-2176.49	  465.10
     60.9700	 1404.00	 1501.23	-2212.73	  465.07
     61.0700	 1254.00	 1357.54	-2219.04	  465.05
     61.1700	 1169.00	 1206.19	-2152.69	  465.02
     61.2700	 1072.00	 1068.56	-2112.06	  464.99
     61.3700	  944.00	  956.88	-2128.38	  464.96
     61.4700	  829.00	  875.73	-2162.23	  464.92
     61.5700	  824.00	  824.54	-2116.04	  464.89
     61.6700	  820.00	  800.64	-2096.14	  464.86
     61.7700	  834.00	  801.92	-2083.42	  464.82
     61.8700	  875.00	  828.52	-2069.02	  464.78
     61.9700	  969.00	  882.93	-2029.43	  464.75
     62.0700	  976.00	  968.76	-2108.26	  464.71
     62.1700	 1126.00	 1088.29	-2077.79	  464.67
     62.2700	 1302.00	 1239.43	-2052.93	  464.63
     62.3700	 1448.00	 1412.88	-2080.38	  464.58
     62.4700	 1633.00	 1589.96	-2072.46	  464.54
     62.5700	 1716.00	 1741.82	-2141.32	  464.49
     62.6700	 1844.00	 1833.30	-2104.80	  464.45
     62.7700	 1759.00	 1836.88	-2193.38	  464.40
     62.8700	 1684.00	 1750.95	-2182.45	  464.35
     62.9700	 1560.00	 1601.19	-2156.69	  464.31
     63.0700	 1444.00	 1422.96	-2094.46	  464.26
     63.1700	 1212.00	 1245.96	-2149.46	  464.20
     63.2700	 1070.00	 1089.61	-2135.11	  464.15
     63.3700	  924.00	  963.58	-2155.08	  464.10
     63.4700	  843.00	  869.82	-2142.32	  464.04
     63.5700	  804.00	  805.06	-2116.56	  463.99
     63.6700	  738.00	  763.36	-2140.86	  463.93
     63.7700	  790.00	  738.59	-2064.09	  463.87
     63.8700	  762.00	  725.72	-2079.22	  463.82
     63.9700	  738.00	  721.41	-2098.91	  463.76
     64.0700	  735.00	  724.31	-2104.81	  463.69
     64.1700	  749.00	  734.15	-2100.65	  463.63
     64.2700	  750.00	  753.64	-2119.14	  463.57
     64.3700	  837.00	  785.15	-2063.65	  463.51
     64.4700	  863.00	  832.25	-2084.75	  463.44
     64.5700	  901.00	  898.55	-2113.05	  463.37
     64.6700	 1023.00	  986.56	-2079.06	  463.31
     64.7700	 1124.00	 1096.37	-2087.87	  463.24
     64.8700	 1219.00	 1224.10	-2120.60	  463.17
     64.9700	 1384.00	 1360.42	-2091.92	  463.10
     65.0700	 1519.00	 1490.09	-2086.59	  463.03
     65.1700	 1545.00	 1593.53	-2164.03	  462.95
     65.2700	 1641.00	 1651.61	-2126.11	  462.88
     65.3700	 1566.00	 1652.04	-2201.54	  462.80
     65.4700	 1541.00	 1594.19	-2168.69	  462.73
     65.5700	 1456.00	 1491.63	-2151.13	  462.65
     65.6700	 1249.00	 1365.55	-2232.05	  462.57
     65.7700	 1207.00	 1235.29	-2143.79	  462.49
     65.8700	 1103.00	 1114.69	-2127.19	  462.41
     65.9700	  997.00	 1011.09	-2129.59	  462.33
     66.0700	  862.00	  926.86	-2180.36	  462.25
     66.1700	  789.00	  861.19	-2187.69	  462.16
     66.2700	  766.00	  811.77	-2161.27	  462.08
     66.3700	  743.00	  775.71	-2148.21	  461.99
     66.4700	  729.00	  750.00	-2136.50	  461.91
     66.5700	  692.00	  731.98	-2155.48	  461.82
     66.6700	  686.00	  719.64	-2149.14	  461.73
     66.7700	  685.00	  711.56	-2142.06	  461.64
     66.8700	  664.00	  706.85	-2158.35	  461.55
     66.9700	  638.00	  705.00	-2182.50	  461.46
     67.0700	  684.00	  705.84	-2137.34	  461.37
     67.1700	  744.00	  709.52	-2081.02	  461.27
     67.2700	  687.00	  716.77	-2145.27	  461.18
     67.3700	  691.00	  728.74	-2153.24	  461.08
     67.4700	  729.00	  747.90	-2134.40	  460.98
     67.5700	  823.00	  777.62	-2070.12	  460.89
     67.6700	  790.00	  823.07	-2148.57	  460.79
     67.7700	  886.00	  890.69	-2120.19	  460.69
     67.8700	 1038.00	  987.68	-2065.18	  460.59
     67.9700	 1171.00	 1120.67	-2065.17	  460.48
     68.0700	 1371.00	 1293.90	-2038.40	  460.38
     68.1700	 1452.00	 1506.80	-2170.30	  460.28
     68.2700	 1763.00	 1751.79	-2104.29	  460.17
     68.3700	 2021.00	 2012.37	-2106.87	  460.07
     68.4700	 2319.00	 2261.66	-2058.16	  459.96
     68.5700	 2431.00	 2462.90	-2147.40	  459.85
     68.6700	 2465.00	 2575.69	-2226.19	  459.74
     68.7700	 2534.00	 2571.85	-2153.35	  459.63
     68.8700	 2375.00	 2452.31	-2192.81	  459.52
     68.9700	 2244.00	 2246.51	-2118.01	  459.41
     69.0700	 2055.00	 1995.02	-2055.52	  459.30
     69.1700	 1823.00	 1734.15	-2026.65	  459.18
     69.2700	 1481.00	 1490.14	-2124.64	  459.07
     69.3700	 1280.00	 1278.94	-2114.44	  458.95
     69.4700	 1120.00	 1107.59	-2103.09	  458.84
     69.5700	 1011.00	  976.29	-2080.79	  458.72
     69.6700	  928.00	  880.57	-2068.07	  458.60
     69.7700	  865.00	  813.71	-2064.21	  458.48
     69.8700	  845.00	  768.46	-2038.96	  458.36
     69.9700	  759.00	  738.44	-2094.94	  458.24
     70.0700	  811.00	  718.57	-2023.07	  458.12
     70.1700	  750.00	  705.28	-2070.78	  457.99
     70.2700	  698.00	  696.19	-2113.69	  457.87
     70.3700	  711.00	  689.85	-2094.35	  457.75
     70.4700	  740.00	  685.42	-2060.92	  457.62
     70.5700	  728.00	  682.43	-2069.93	  457.49
     70.6700	  725.00	  680.63	-2071.13	  457.37
     70.7700	  711.00	  679.94	-2084.44	  457.24
     70.8700	  707.00	  680.39	-2088.89	  457.11
     70.9700	  675.00	  682.14	-2122.64	  456.98
     71.0700	  754.00	  685.52	-2047.02	  456.85
     71.1700	  769.00	  690.95	-2037.45	  456.71
     71.2700	  686.00	  699.84	-2129.34	  456.58
     71.3700	  781.00	  713.57	-2048.07	  456.45
     71.4700	  760.00	  734.43	-2089.93	  456.31
     71.5700	  759.00	  765.54	-2122.04	  456.18
     71.6700	  814.00	  810.73	-2112.23	  456.04
     71.7700	  897.00	  874.17	-2092.67	  455.90
     71.8700	  953.00	  959.89	-2122.39	  455.77
     71.9700	 1175.00	 1070.65	-2011.15	  455.63
     72.0700	 1203.00	 1206.94	-2119.44	  455.49
     72.1700	 1387.00	 1365.71	-2094.21	  455.35
     72.2700	 1523.00	 1539.39	-2131.89	  455.21
     72.3700	 1723.00	 1715.14	-2107.64	  455.07
     72.4700	 1881.00	 1874.30	-2108.80	  454.92
     72.5700	 1975.00	 1993.67	-2134.17	  454.78
     72.6700	 2016.00	 2050.51	-2150.01	  454.63
     72.7700	 2000.00	 2031.97	-2147.47	  454.49
     72.8700	 1897.00	 1942.32	-2160.82	  454.34
     72.9700	 1763.00	 1801.16	-2153.66	  454.20
     73.0700	 1646.00	 1630.94	-2100.44	  454.05
     73.1700	 1372.00	 1453.73	-2197.23	  453.90
     73.2700	 1250.00	 1285.37	-2150.87	  453.75
     73.3700	 1099.00	 1135.99	-2152.50	  453.60
     73.4700	 1004.00	 1010.83	-2122.33	  453.45
     73.5700	  908.00	  911.01	-2118.51	  453.30
     73.6700	  839.00	  834.85	-2111.35	  453.15
     73.7700	  776.00	  778.91	-2118.41	  453.00
     73.8700	  735.00	  739.08	-2119.58	  452.84
     73.9700	  721.00	  711.36	-2105.86	  452.69
     74.0700	  656.00	  692.34	-2151.84	  452.53
     74.1700	  710.00	  678.89	-2084.39	  452.38
     74.2700	  675.00	  670.18	-2110.68	  452.22
     74.3700	  618.00	  664.47	-2161.97	  452.07
     74.4700	  658.00	  660.99	-2118.49	  451.91
     74.5700	  662.00	  659.27	-2112.77	  451.75
     74.6700	  666.00	  658.99	-2108.49	  451.59
     74.7700	  672.00	  659.88	-2103.38	  451.43
     74.8700	  611.00	  661.66	-2166.16	  451.27
     74.9700	  649.00	  663.92	-2130.42	  451.11
     75.0700	  725.00	  666.36	-2056.86	  450.95
     75.1700	  711.00	  668.39	-2072.89	  450.79
     75.2700	  707.00	  669.49	-2077.99	  450.62
     75.3700	  724.00	  669.31	-2060.81	  450.46
     75.4700	  737.00	  667.84	-2046.34	  450.30
     75.5700	  730.00	  665.50	-2051.00	  450.13
     75.6700	  736.00	  662.97	-2042.47	  449.97
     75.7700	  727.00	  661.07	-2049.57	  449.80
     75.8700	  715.00	  660.56	-2061.06	  449.63
     75.9700	  694.00	  662.52	-2084.02	  449.47
     76.0700	  695.00	  667.85	-2088.35	  449.30
     76.1700	  726.00	  677.60	-2067.10	  449.13
     76.2700	  732.00	  692.84	-2076.34	  448.96
     76.3700	  737.00	  714.54	-2093.04	  448.79
     76.4700	  782.00	  743.40	-2076.90	  448.62
     76.5700	  763.00	  779.60	-2132.10	  448.45
     76.6700	  804.00	  822.64	-2134.14	  448.28
     76.7700	  830.00	  871.04	-2156.54	  448.11
     76.8700	  948.00	  922.21	-2089.71	  447.94
     76.9700	  963.00	  972.28	-2124.78	  447.76
     77.0700	 1009.00	 1016.13	-2122.63	  447.59
     77.1700	  984.00	 1047.79	-2179.29	  447.42
     77.2700	 1072.00	 1061.82	-2105.32	  447.24
     77.3700	  995.00	 1055.40	-2175.90	  447.07
     77.4700	  951.00	 1029.69	-2194.19	  446.89
     77.5700	  972.00	  989.31	-2132.81	  446.72
     77.6700	  945.00	  940.00	-2110.50	  446.54
     77.7700	  878.00	  887.67	-2125.17	  446.37
     77.8700	  796.00	  836.51	-2156.01	  446.19
     77.9700	  864.00	  789.59	-2041.09	  446.01
     78.0700	  729.00	  748.75	-2135.25	  445.83
     78.1700	  705.00	  714.80	-2125.30	  445.65
     78.2700	  701.00	  687.72	-2102.22	  445.48
     78.3700	  631.00	  666.91	-2151.41	  445.30
     78.4700	  651.00	  651.44	-2115.94	  445.12
     78.5700	  681.00	  640.25	-2074.75	  444.94
     78.6700	  652.00	  632.33	-2095.83	  444.76
     78.7700	  643.00	  626.79	-2099.29	  444.58
     78.8700	  625.00	  622.95	-2113.45	  444.39
     78.9700	  640.00	  620.29	-2095.79	  444.21
     79.0700	  623.00	  618.41	-2110.91	  444.03
     79.1700	  605.00	  617.18	-2127.68	  443.85
     79.2700	  602.00	  616.42	-2129.92	  443.67
     79.3700	  614.00	  616.04	-2117.54	  443.48
     79.4700	  612.00	  616.02	-2119.52	  443.30
     79.5700	  597.00	  616.37	-2134.87	  443.12
     79.6700	  648.00	  617.13	-2084.63	  442.93
     79.7700	  633.00	  618.35	-2100.85	  442.75
     79.8700	  615.00	  620.14	-2120.64	  442.56
     79.9700	  657.00	  622.67	-2081.17	  442.38
     80.0700	  638.00	  626.19	-2103.69	  442.19
     80.1700	  639.00	  631.10	-2107.60	  442.01
     80.2700	  641.00	  637.99	-2112.49	  441.82
     80.3700	  652.00	  647.71	-2111.21	  441.64
     80.4700	  715.00	  661.18	-2061.68	  441.45
     80.5700	  705.00	  680.40	-2090.90	  441.26
     80.6700	  764.00	  706.91	-2058.41	  441.08
     80.7700	  804.00	  742.61	-2054.11	  440.89
     80.8700	  822.00	  789.33	-2082.83	  440.70
     80.9700	  874.00	  848.49	-2089.99	  440.52
     81.0700	  985.00	  920.62	-2051.12	  440.33
     81.1700	 1041.00	 1004.96	-2079.46	  440.14
     81.2700	 1068.00	 1098.98	-2146.48	  439.95
     81.3700	 1178.00	 1198.12	-2135.62	  439.77
     81.4700	 1289.00	 1295.79	-2122.29	  439.58
     81.5700	 1370.00	 1383.83	-2129.33	  439.39
     81.6700	 1479.00	 1453.72	-2090.22	  439.20
     81.7700	 1550.00	 1498.51	-2064.01	  439.01
     81.8700	 1552.00	 1514.56	-2078.06	  438.82
     81.9700	 1509.00	 1501.80	-2108.30	  438.63
     82.0700	 1465.00	 1462.98	-2113.48	  438.44
     82.1700	 1410.00	 1403.10	-2108.60	  438.25
     82.2700	 1347.00	 1328.68	-2097.18	  438.06
     82.3700	 1204.00	 1246.57	-2158.07	  437.88
     82.4700	 1096.00	 1162.78	-2182.28	  437.69
     82.5700	 1063.00	 1081.96	-2134.46	  437.50
     82.6700	  934.00	 1007.38	-2188.88	  437.31
     82.7700	  917.00	  941.11	-2139.61	  437.12
     82.8700	  877.00	  883.93	-2122.43	  436.93
     82.9700	  795.00	  835.56	-2156.06	  436.74
     83.0700	  746.00	  795.02	-2164.52	  436.55
     83.1700	  741.00	  761.07	-2135.57	  436.36
     83.2700	  699.00	  732.67	-2149.17	  436.17
     83.3700	  708.00	  709.03	-2116.53	  435.98
     83.4700	  629.00	  689.66	-2176.16	  435.79
     83.5700	  657.00	  674.25	-2132.75	  435.60
     83.6700	  656.00	  662.58	-2122.08	  435.41
     83.7700	  630.00	  654.47	-2139.97	  435.22
     83.8700	  621.00	  649.76	-2144.26	  435.02
     83.9700	  638.00	  648.22	-2125.72	  434.83
     84.0700	  660.00	  649.51	-2105.01	  434.64
     84.1700	  654.00	  653.18	-2114.68	  434.45
     84.2700	  592.00	  658.50	-2182.00	  434.26
     84.3700	  669.00	  665.02	-2111.52	  434.08
     84.4700	  659.00	  671.71	-2128.21	  433.89
     84.5700	  690.00	  677.61	-2103.11	  433.70
     84.6700	  624.00	  681.62	-2173.12	  433.51
     84.7700	  695.00	  683.09	-2103.59	  433.32
     84.8700	  663.00	  681.46	-2133.96	  433.13
     84.9700	  674.00	  676.80	-2118.30	  432.94
     85.0700	  679.00	  669.68	-2106.18	  432.75
     85.1700	  650.00	  660.90	-2126.40	  432.56
     85.2700	  646.00	  651.35	-2120.84	  432.37
     85.3700	  630.00	  641.78	-2127.28	  432.18
     85.4700	  651.00	  632.83	-2097.33	  431.99
     85.5700	  591.00	  624.98	-2149.48	  431.80
     85.6700	  618.00	  618.56	-2116.06	  431.62
     85.7700	  584.00	  613.78	-2145.28	  431.43
     85.8700	  638.00	  610.74	-2088.24	  431.24
     85.9700	  610.00	  609.48	-2114.98	  431.05
     86.0700	  620.00	  610.01	-2105.51	  430.87
     86.1700	  643.00	  612.30	-2084.80	  430.68
     86.2700	  613.00	  616.31	-2118.81	  430.49
     86.3700	  608.00	  621.96	-2129.46	  430.30
     86.4700	  672.00	  629.16	-2072.66	  430.12
     86.5700	  635.00	  637.72	-2118.22	  429.93
     86.6700	  643.00	  647.41	-2119.91	  429.75
     86.7700	  604.00	  657.88	-2169.38	  429.56
     86.8700	  671.00	  668.73	-2113.23	  429.38
     86.9700	  640.00	  679.43	-2154.93	  429.19
     87.0700	  713.00	  689.48	-2091.98	  429.01
     87.1700	  686.00	  698.42	-2127.92	  428.82
     87.2700	  652.00	  706.07	-2169.57	  428.64
     87.3700	  639.00	  712.54	-2189.04	  428.45
     87.4700	  684.00	  718.26	-2149.76	  428.27
     87.5700	  689.00	  723.73	-2150.23	  428.09
     87.6700	  697.00	  729.34	-2147.84	  427.90
     87.7700	  752.00	  735.27	-2098.77	  427.72
     87.8700	  724.00	  741.39	-2132.89	  427.54
     87.9700	  699.00	  747.26	-2163.76	  427.36
     88.0700	  760.00	  752.18	-2107.68	  427.18
     88.1700	  696.00	  755.21	-2174.71	  427.00
     88.2700	  776.00	  755.43	-2094.93	  426.81
     88.3700	  704.00	  752.20	-2163.70	  426.63
     88.4700	  767.00	  745.39	-2093.89	  426.45
     88.5700	  727.00	  735.43	-2123.93	  426.28
     88.6700	  739.00	  723.14	-2099.64	  426.10
     88.7700	  701.00	  709.49	-2123.99	  425.92
     88.8700	  742.00	  695.42	-2068.92	  425.74
     88.9700	  694.00	  681.36	-2102.86	  425.56
     89.0700	  655.00	  668.87	-2129.37	  425.39
     89.1700	  680.00	  658.06	-2093.56	  425.21
     89.2700	  638.00	  649.30	-2126.80	  425.03
     89.3700	  633.00	  642.77	-2125.27	  424.86
     89.4700	  611.00	  638.47	-2142.97	  424.68
     89.5700	  652.00	  636.25	-2099.75	  424.51
     89.6700	  669.00	  635.82	-2082.32	  424.34
     89.7700	  645.00	  636.76	-2107.26	  424.16
     89.8700	  671.00	  638.60	-2083.09	  423.99
     89.9700	  654.00	  640.75	-2102.25	  423.82
     90.0700	  701.00	  642.64	-2057.14	  423.65
     90.1700	  691.00	  643.71	-2068.21	  423.48
     90.2700	  693.00	  643.53	-2066.03	  423.31
     90.3700	  685.00	  641.86	-2072.36	  423.14
     90.4700	  629.00	  638.75	-2125.25	  422.97
     90.5700	  674.00	  634.44	-2075.94	  422.80
     90.6700	  619.00	  629.28	-2125.78	  422.63
     90.7700	  596.00	  623.66	-2143.16	  422.46
     90.8700	  681.00	  617.94	-2052.44	  422.30
     90.9700	  659.00	  612.42	-2068.92	  422.13
     91.0700	  600.00	  607.33	-2122.83	  421.96
     91.1700	  590.00	  602.82	-2128.32	  421.80
     91.2700	  617.00	  598.98	-2097.48	  421.64
     91.3700	  571.00	  595.85	-2140.35	  421.47
     91.4700	  616.00	  593.43	-2092.93	  421.31
     91.5700	  684.00	  591.66	-2023.16	  421.15
     91.6700	  661.00	  590.51	-2045.01	  420.99
     91.7700	  599.00	  589.90	-2106.40	  420.83
     91.8700	  572.00	  589.80	-2133.30	  420.67
     91.9700	  611.00	  590.19	-2094.69	  420.51
     92.0700	  552.00	  591.09	-2154.59	  420.35
     92.1700	  563.00	  592.54	-2145.04	  420.19
     92.2700	  592.00	  594.64	-2118.14	  420.04
     92.3700	  614.00	  597.51	-2099.01	  419.88
     92.4700	  647.00	  601.34	-2069.84	  419.73
     92.5700	  589.00	  606.31	-2132.81	  419.57
     92.6700	  629.00	  612.66	-2099.16	  419.42
     92.7700	  608.00	  620.61	-2128.11	  419.26
     92.8700	  604.00	  630.37	-2141.87	  419.11
     92.9700	  628.00	  642.12	-2129.62	  418.96
     93.0700	  652.00	  655.96	-2119.46	  418.81
     93.1700	  650.00	  671.89	-2137.39	  418.66
     93.2700	  664.00	  689.82	-2141.32	  418.51
     93.3700	  664.00	  709.49	-2160.99	  418.37
     93.4700	  701.00	  730.52	-2145.02	  418.22
     93.5700	  754.00	  752.37	-2113.87	  418.07
     93.6700	  725.00	  774.34	-2164.84	  417.93
     93.7700	  842.00	  795.64	-2069.14	  417.78
     93.8700	  741.00	  815.46	-2189.96	  417.64
     93.9700	  797.00	  833.18	-2151.68	  417.50
     94.0700	  804.00	  848.51	-2160.01	  417.36
     94.1700	  791.00	  861.65	-2186.15	  417.22
     94.2700	  887.00	  873.22	-2101.72	  417.08
     94.3700	  811.00	  884.03	-2188.53	  416.94
     94.4700	  909.00	  894.57	-2101.07	  416.80
     94.5700	  944.00	  906.09	-2077.59	  416.67
     94.6700	  908.00	  918.68	-2126.18	  416.53
     94.7700	  995.00	  932.57	-2053.07	  416.40
     94.8700	  964.00	  947.87	-2099.37	  416.26
     94.9700	  986.00	  964.63	-2094.13	  416.13
     95.0700	 1025.00	  982.80	-2073.30	  416.00
     95.1700	 1000.00	 1002.09	-2117.59	  415.87
     95.2700	  973.00	 1021.84	-2164.34	  415.74
     95.3700	 1008.00	 1040.91	-2148.41	  415.61
     95.4700	 1102.00	 1057.71	-2071.21	  415.48
     95.5700	 1084.00	 1070.33	-2101.83	  415.36
     95.6700	 1072.00	 1076.79	-2120.29	  415.23
     95.7700	 1024.00	 1075.46	-2166.96	  415.11
     95.8700	 1015.00	 1065.42	-2165.92	  414.99
     95.9700	 1027.00	 1046.83	-2135.33	  414.86
     96.0700	 1028.00	 1020.88	-2108.38	  414.74
     96.1700	  966.00	  989.50	-2139.00	  414.62
     96.2700	  963.00	  955.02	-2107.52	  414.51
     96.3700	  903.00	  919.84	-2132.34	  414.39
     96.4700	  877.00	  886.29	-2124.79	  414.27
     96.5700	  888.00	  856.49	-2083.99	  414.16
     96.6700	  879.00	  832.28	-2068.78	  414.04
     96.7700	  859.00	  815.22	-2071.72	  413.93
     96.8700	  790.00	  806.59	-2132.09	  413.82
     96.9700	  845.00	  807.37	-2077.87	  413.71
     97.0700	  852.00	  818.30	-2081.80	  413.60
     97.1700	  825.00	  839.87	-2130.37	  413.49
     97.2700	  945.00	  872.30	-2042.80	  413.38
     97.3700	  940.00	  915.59	-2091.09	  413.28
     97.4700	 1010.00	  969.34	-2074.84	  413.17
     97.5700	 1110.00	 1032.81	-2038.31	  413.07
     97.6700	 1173.00	 1104.75	-2047.25	  412.97
     97.7700	 1170.00	 1183.38	-2128.88	  412.87
     97.8700	 1229.00	 1266.34	-2152.84	  412.77
     97.9700	 1329.00	 1350.58	-2137.08	  412.67
     98.0700	 1403.00	 1432.44	-2144.94	  412.58
     98.1700	 1470.00	 1507.67	-2153.17	  412.48
     98.2700	 1516.00	 1571.69	-2171.19	  412.39
     98.3700	 1627.00	 1620.00	-2108.50	  412.29
     98.4700	 1589.00	 1648.84	-2175.34	  412.20
     98.5700	 1650.00	 1656.00	-2121.50	  412.11
     98.6700	 1675.00	 1641.31	-2081.81	  412.02
     98.7700	 1620.00	 1606.66	-2102.16	  411.94
     98.8700	 1498.00	 1555.43	-2172.93	  411.85
     98.9700	 1415.00	 1491.91	-2192.41	  411.76
     99.0700	 1396.00	 1420.57	-2140.07	  411.68
     99.1700	 1339.00	 1345.73	-2122.23	  411.60
     99.2700	 1258.00	 1271.27	-2128.77	  411.52
     99.3700	 1222.00	 1200.55	-2094.05	  411.44
     99.4700	 1113.00	 1136.43	-2138.93	  411.36
     99.5700	 1117.00	 1081.24	-2079.74	  411.28
     99.6700	 1001.00	 1036.86	-2151.36	  411.21
     99.7700	 1064.00	 1004.72	-2056.22	  411.14
     99.8700	 1037.00	  985.90	-2064.40	  411.06
     99.9700	 1036.00	  981.16	-2060.66	  410.99
    100.0700	  938.00	  990.93	-2168.43	  410.92
    100.1700	 1048.00	 1015.34	-2082.84	  410.85
    100.2700	 1126.00	 1054.21	-2043.71	  410.79
    100.3700	 1154.00	 1107.05	-2068.55	  410.72
    100.4700	 1177.00	 1172.98	-2111.48	  410.66
    100.5700	 1264.00	 1250.77	-2102.27	  410.60
    100.6700	 1369.00	 1338.71	-2085.21	  410.54
    100.7700	 1434.00	 1434.60	-2116.10	  410.48
    100.8700	 1535.00	 1535.71	-2116.21	  410.42
    100.9700	 1631.00	 1638.69	-2123.19	  410.36
    101.0700	 1746.00	 1740.10	-2109.60	  410.31
    101.1700	 1832.00	 1835.96	-2119.46	  410.26
    101.2700	 1937.00	 1922.57	-2101.07	  410.21
    101.3700	 1985.00	 1996.85	-2127.35	  410.16
    101.4700	 2034.00	 2056.58	-2138.08	  410.11
    101.5700	 2037.00	 2100.55	-2179.05	  410.06
    101.6700	 2112.00	 2128.13	-2131.63	  410.02
    101.7700	 2194.00	 2139.08	-2060.58	  409.97
    101.8700	 2161.00	 2133.30	-2087.80	  409.93
    101.9700	 2054.00	 2110.89	-2172.39	  409.89
    102.0700	 2090.00	 2072.54	-2098.04	  409.85
    102.1700	 2139.00	 2019.81	-1996.31	  409.81
    102.2700	 1965.00	 1955.38	-2105.88	  409.78
    102.3700	 1921.00	 1882.78	-2077.28	  409.74
    102.4700	 1917.00	 1805.99	-2004.49	  409.71
    102.5700	 1824.00	 1728.80	-2020.30	  409.68
    102.6700	 1647.00	 1654.53	-2123.03	  409.65
    102.7700	 1642.00	 1585.74	-2059.24	  409.63
    102.8700	 1569.00	 1524.11	-2070.61	  409.60
    102.9700	 1544.00	 1470.53	-2042.03	  409.58
    103.0700	 1405.00	 1425.07	-2135.57	  409.55
    103.1700	 1446.00	 1387.16	-2056.66	  409.53
    103.2700	 1397.00	 1355.61	-2074.11	  409.51
    103.3700	 1306.00	 1328.72	-2138.22	  409.50
    103.4700	 1305.00	 1304.46	-2114.96	  409.48
    103.5700	 1256.00	 1280.65	-2140.15	  409.47
    103.6700	 1262.00	 1255.31	-2108.81	  409.45
    103.7700	 1226.00	 1226.91	-2116.41	  409.44
    103.8700	 1187.00	 1194.56	-2123.06	  409.44
    103.9700	 1092.00	 1158.15	-2181.65	  409.43
    104.0700	 1091.00	 1118.16	-2142.66	  409.42
    104.1700	 1071.00	 1075.51	-2120.01	  409.42
    104.2700	 1036.00	 1031.32	-2110.81	  409.42
    104.3700	 1004.00	  986.69	-2098.19	  409.42
    104.4700	  979.00	  942.70	-2079.20	  409.42
    104.5700	  902.00	  900.27	-2113.77	  409.42
    104.6700	  864.00	  860.19	-2111.69	  409.43
    104.7700	  883.00	  823.03	-2055.53	  409.44
    104.8700	  817.00	  789.22	-2087.72	  409.44
    104.9700	  767.00	  758.95	-2107.45	  409.46
    105.0700	  772.00	  732.44	-2075.94	  409.47
    105.1700	  698.00	  709.58	-2127.08	  409.48
    105.2700	  707.00	  690.19	-2098.69	  409.50
    105.3700	  679.00	  674.04	-2110.54	  409.52
    105.4700	  635.00	  660.81	-2141.31	  409.54
    105.5700	  688.00	  650.18	-2077.68	  409.56
    105.6700	  689.00	  641.81	-2068.31	  409.58
    105.7700	  642.00	  635.35	-2108.85	  409.61
    105.8700	  659.00	  630.61	-2087.11	  409.64
    105.9700	  669.00	  627.31	-2073.81	  409.66
    106.0700	  620.00	  625.26	-2120.76	  409.70
    106.1700	  601.00	  624.31	-2138.81	  409.73
    106.2700	  611.00	  624.38	-2128.88	  409.76
    106.3700	  641.00	  625.42	-2099.92	  409.80
    106.4700	  609.00	  627.41	-2133.91	  409.84
    106.5700	  621.00	  630.36	-2124.86	  409.88
    106.6700	  593.00	  634.33	-2156.83	  409.92
    106.7700	  646.00	  639.36	-2108.86	  409.97
    106.8700	  667.00	  645.52	-2094.02	  410.01
    106.9700	  659.00	  652.87	-2109.37	  410.06
    107.0700	  689.00	  661.45	-2087.95	  410.11
    107.1700	  669.00	  671.27	-2117.77	  410.16
    107.2700	  694.00	  682.31	-2103.81	  410.22
    107.3700	  681.00	  694.48	-2128.98	  410.27
    107.4700	  686.00	  707.63	-2137.13	  410.33
    107.5700	  714.00	  721.56	-2123.06	  410.39
    107.6700	  719.00	  735.98	-2132.48	  410.45
    107.7700	  728.00	  750.55	-2138.05	  410.52
    107.8700	  709.00	  764.88	-2171.38	  410.58
    107.9700	  741.00	  778.51	-2153.01	  410.65
    108.0700	  754.00	  790.97	-2152.47	  410.72
    108.1700	  781.00	  801.79	-2136.29	  410.79
    108.2700	  795.00	  810.56	-2131.06	  410.87
    108.3700	  791.00	  817.00	-2141.50	  410.95
    108.4700	  770.00	  820.98	-2166.48	  411.02
    108.5700	  827.00	  822.66	-2111.16	  411.10
    108.6700	  727.00	  822.30	-2210.80	  411.19
    108.7700	  801.00	  820.36	-2134.86	  411.27
    108.8700	  714.00	  817.34	-2218.84	  411.36
    108.9700	  807.00	  813.79	-2122.29	  411.44
    109.0700	  776.00	  810.19	-2149.69	  411.53
    109.1700	  750.00	  806.95	-2172.45	  411.63
    109.2700	  803.00	  804.37	-2116.87	  411.72
    109.3700	  766.00	  802.64	-2152.14	  411.82
    109.4700	  740.00	  801.82	-2177.32	  411.92
    109.5700	  762.00	  801.87	-2155.37	  412.02
    109.6700	  766.00	  802.63	-2152.13	  412.12
    109.7700	  782.00	  803.80	-2137.30	  412.22
    109.8700	  727.00	  805.01	-2193.51	  412.33
    109.9700	  754.00	  805.83	-2167.33	  412.44
    110.0700	  718.00	  805.81	-2203.31	  412.55
    110.1700	  794.00	  804.51	-2126.01	  412.67
    110.2700	  710.00	  801.63	-2207.13	  412.78
    110.3700	  791.00	  796.98	-2121.48	  412.90
    110.4700	  715.00	  790.52	-2191.02	  413.02
    110.5700	  773.00	  782.39	-2124.89	  413.14
    110.6700	  729.00	  772.82	-2159.32	  413.26
    110.7700	  798.00	  762.14	-2079.64	  413.39
    110.8700	  709.00	  750.70	-2157.20	  413.52
    110.9700	  738.00	  738.84	-2116.34	  413.65
    111.0700	  702.00	  726.90	-2140.40	  413.78
    111.1700	  718.00	  715.15	-2112.65	  413.92
    111.2700	  676.00	  703.86	-2143.36	  414.05
    111.3700	  738.00	  693.23	-2070.73	  414.19
    111.4700	  653.00	  683.43	-2145.93	  414.33
    111.5700	  662.00	  674.58	-2128.08	  414.48
    111.6700	  623.00	  666.76	-2159.26	  414.62
    111.7700	  687.00	  660.01	-2088.51	  414.77
    111.8700	  633.00	  654.34	-2136.84	  414.92
    111.9700	  662.00	  649.72	-2103.22	  415.07
    112.0700	  688.00	  646.10	-2073.60	  415.22
    112.1700	  635.00	  643.42	-2123.92	  415.38
    112.2700	  638.00	  641.58	-2119.08	  415.54
    112.3700	  635.00	  640.50	-2121.00	  415.70
    112.4700	  598.00	  640.08	-2157.58	  415.86
    112.5700	  589.00	  640.22	-2166.72	  416.03
    112.6700	  611.00	  640.82	-2145.32	  416.20
    112.7700	  606.00	  641.79	-2151.29	  416.37
    112.8700	  636.00	  643.06	-2122.56	  416.54
    112.9700	  582.00	  644.54	-2178.04	  416.71
    113.0700	  593.00	  646.19	-2168.69	  416.89
    113.1700	  629.00	  647.95	-2134.45	  417.07
    113.2700	  595.00	  649.82	-2170.32	  417.25
    113.3700	  647.00	  651.77	-2120.27	  417.43
    113.4700	  633.00	  653.83	-2136.33	  417.62
    113.5700	  644.00	  656.03	-2127.53	  417.80
    113.6700	  648.00	  658.40	-2125.90	  417.99
    113.7700	  641.00	  661.01	-2135.51	  418.19
    113.8700	  658.00	  663.89	-2121.39	  418.38
    113.9700	  651.00	  667.16	-2131.67	  418.58
    114.0700	  673.00	  670.91	-2113.41	  418.77
    114.1700	  610.00	  675.26	-2180.76	  418.98
    114.2700	  657.00	  680.36	-2138.86	  419.18
    114.3700	  690.00	  686.41	-2111.91	  419.38
    114.4700	  675.00	  693.66	-2134.16	  419.59
    114.5700	  687.00	  702.45	-2130.95	  419.80
    114.6700	  676.00	  713.20	-2152.70	  420.02
    114.7700	  766.00	  726.45	-2075.95	  420.23
    114.8700	  773.00	  742.87	-2085.37	  420.45
    114.9700	  815.00	  763.32	-2063.82	  420.67
    115.0700	  870.00	  788.84	-2034.34	  420.89
    115.1700	  911.00	  820.69	-2025.19	  421.11
    115.2700	  957.00	  860.39	-2018.89	  421.34
    115.3700	  989.00	  909.72	-2036.22	  421.57
    115.4700	 1059.00	  970.71	-2027.21	  421.80
    115.5700	 1156.00	 1045.66	-2005.16	  422.03
    115.6700	 1291.00	 1137.07	-1961.57	  422.27
    115.7700	 1381.00	 1247.63	-1982.13	  422.50
    115.8700	 1589.00	 1380.16	-1906.66	  422.74
    115.9700	 1692.00	 1537.41	-1960.91	  422.98
    116.0700	 1911.00	 1722.00	-1926.50	  423.23
    116.1700	 2222.00	 1936.23	-1829.73	  423.48
    116.2700	 2380.00	 2181.98	-1917.48	  423.73
    116.3700	 2852.00	 2460.46	-1723.96	  423.98
    116.4700	 3006.00	 2771.96	-1881.46	  424.23
    116.5700	 3359.00	 3115.74	-1872.24	  424.49
    116.6700	 3591.00	 3489.80	-2014.30	  424.75
    116.7700	 4141.00	 3890.92	-1865.42	  425.01
    116.8700	 4409.00	 4314.46	-2020.96	  425.27
    116.9700	 4771.00	 4754.18	-2098.68	  425.53
    117.0700	 5141.00	 5202.56	-2177.06	  425.80
    117.1700	 5549.00	 5650.58	-2217.08	  426.07
    117.2700	 5874.00	 6088.19	-2329.69	  426.34
    117.3700	 6349.00	 6504.34	-2270.84	  426.62
    117.4700	 6756.00	 6887.20	-2246.70	  426.90
    117.5700	 6936.00	 7224.75	-2404.25	  427.17
    117.6700	 7147.00	 7505.31	-2473.81	  427.46
    117.7700	 7368.00	 7718.41	-2465.91	  427.74
    117.8700	 7651.00	 7855.57	-2320.07	  428.03
    117.9700	 7548.00	 7911.11	-2478.61	  428.32
    118.0700	 7584.00	 7882.94	-2414.44	  428.61
    118.1700	 7552.00	 7772.77	-2336.27	  428.90
    118.2700	 7312.00	 7585.85	-2389.35	  429.20
    118.3700	 7037.00	 7330.33	-2408.83	  429.49
    118.4700	 6785.00	 7016.50	-2347.00	  429.79
    118.5700	 6359.00	 6655.81	-2412.31	  430.10
    118.6700	 5989.00	 6260.20	-2386.70	  430.40
    118.7700	 5637.00	 5841.30	-2319.80	  430.71
    118.8700	 5489.00	 5410.01	-2036.51	  431.02
    118.9700	 5107.00	 4976.45	-1984.95	  431.33
    119.0700	 4792.00	 4549.44	-1872.94	  431.64
    119.1700	 4375.00	 4136.54	-1877.04	  431.96
    119.2700	 4094.00	 3743.73	-1765.23	  432.28
    119.3700	 3670.00	 3375.57	-1821.07	  432.60
    119.4700	 3332.00	 3035.34	-1818.84	  432.92
    119.5700	 3089.00	 2724.96	-1751.46	  433.25
    119.6700	 2749.00	 2445.22	-1811.72	  433.58
    119.7700	 2447.00	 2195.86	-1864.36	  433.91
    119.8700	 2213.00	 1975.85	-1878.35	  434.24
    119.9700	 2075.00	 1783.60	-1824.10	  434.58
    120.0700	 1852.00	 1617.07	-1880.57	  434.91
    120.1700	 1751.00	 1473.94	-1838.44	  435.25
    120.2700	 1551.00	 1351.75	-1916.25	  435.60
    120.3700	 1403.00	 1248.00	-1960.50	  435.94
    120.4700	 1292.00	 1160.32	-1983.82	  436.29
    120.5700	 1241.00	 1086.46	-1960.96	  436.64
    120.6700	 1147.00	 1024.36	-1992.86	  436.99
    120.7700	 1055.00	  972.18	-2032.68	  437.34
    120.8700	 1024.00	  928.32	-2019.82	  437.70
    120.9700	  960.00	  891.41	-2046.91	  438.06
    121.0700	  921.00	  860.29	-2054.79	  438.42
    121.1700	  853.00	  834.02	-2096.52	  438.78
    121.2700	  808.00	  811.80	-2119.30	  439.15
    121.3700	  817.00	  793.00	-2091.50	  439.51
    121.4700	  779.00	  777.12	-2113.62	  439.88
    121.5700	  776.00	  763.74	-2103.24	  440.26
    121.6700	  734.00	  752.55	-2134.05	  440.63
    121.7700	  747.00	  743.29	-2111.79	  441.01
    121.8700	  721.00	  735.75	-2130.25	  441.39
    121.9700	  727.00	  729.78	-2118.28	  441.77
    122.0700	  709.00	  725.23	-2131.73	  442.15
    122.1700	  702.00	  722.01	-2135.51	  442.54
    122.2700	  716.00	  720.02	-2119.52	  442.93
    122.3700	  724.00	  719.19	-2110.69	  443.32
    122.4700	  614.00	  719.46	-2220.96	  443.71
    122.5700	  711.00	  720.77	-2125.27	  444.11
    122.6700	  652.00	  723.06	-2186.56	  444.50
    122.7700	  690.00	  726.28	-2151.78	  444.90
    122.8700	  662.00	  730.36	-2183.86	  445.31
    122.9700	  687.00	  735.26	-2163.76	  445.71
    123.0700	  703.00	  740.89	-2153.39	  446.12
    123.1700	  720.00	  747.20	-2142.70	  446.53
    123.2700	  757.00	  754.08	-2112.58	  446.94
    123.3700	  743.00	  761.44	-2133.94	  447.35
    123.4700	  746.00	  769.19	-2138.69	  447.77
    123.5700	  736.00	  777.21	-2156.71	  448.19
    123.6700	  757.00	  785.39	-2143.89	  448.61
    123.7700	  772.00	  793.59	-2137.09	  449.03
    123.8700	  764.00	  801.68	-2153.18	  449.45
    123.9700	  757.00	  809.54	-2168.04	  449.88
    124.0700	  787.00	  817.04	-2145.54	  450.31
    124.1700	  804.00	  824.07	-2135.57	  450.74
    124.2700	  809.00	  830.53	-2137.03	  451.18
    124.3700	  766.00	  836.37	-2185.87	  451.61
    124.4700	  762.00	  841.53	-2195.03	  452.05
    124.5700	  813.00	  846.00	-2148.50	  452.49
    124.6700	  838.00	  849.85	-2127.35	  452.93
    124.7700	  824.00	  853.09	-2144.59	  453.38
    124.8700	  793.00	  855.79	-2178.29	  453.83
    124.9700	  837.00	  590.75	-1869.25	  454.28
    125.0700	  809.00	  591.20	-2115.50	  454.73
    125.1700	  803.00	  591.65	-2115.50	  455.18
    125.2700	  835.00	  592.11	-2115.50	  455.64
    125.3700	  822.00	  592.57	-2115.50	  456.10
    125.4700	  806.00	  593.03	-2115.50	  456.56
    125.5700	  789.00	  593.49	-2115.50	  457.02
    125.6700	  804.00	  593.96	-2115.50	  457.48
    125.7700	  829.00	  594.42	-2115.50	  457.95
    125.8700	  759.00	  594.89	-2115.50	  458.42
    125.9700	  815.00	  595.36	-2115.50	  458.89
    126.0700	  788.00	  595.84	-2115.50	  459.37
    126.1700	  810.00	  596.31	-2115.50	  459.84
    126.2700	  843.00	  596.79	-2115.50	  460.32
    126.3700	  803.00	  597.27	-2115.50	  460.80
    126.4700	  765.00	  597.75	-2115.50	  461.28
    126.5700	  745.00	  598.24	-2115.50	  461.77
    126.6700	  781.00	  598.72	-2115.50	  462.25
    126.7700	  765.00	  599.21	-2115.50	  462.74
    126.8700	  748.00	  599.70	-2115.50	  463.23
    126.9700	  714.00	  600.20	-2115.50	  463.72
    127.0700	  714.00	  600.69	-2115.50	  464.22
    127.1700	  739.00	  601.19	-2115.50	  464.72
    127.2700	  708.00	  601.69	-2115.50	  465.21
    127.3700	  644.00	  602.19	-2115.50	  465.72
    127.4700	  670.00	  602.69	-2115.50	  466.22
    127.5700	  687.00	  603.20	-2115.50	  466.72
    127.6700	  655.00	  603.70	-2115.50	  467.23
    127.7700	  663.00	  604.21	-2115.50	  467.74
    127.8700	  655.00	  604.73	-2115.50	  468.25
    127.9700	  612.00	  605.24	-2115.50	  468.77
    128.0700	  639.00	  605.75	-2115.50	  469.28
    128.1700	  647.00	  606.27	-2115.50	  469.80
    128.2700	  656.00	  606.79	-2115.50	  470.32
    128.3700	  651.00	  607.31	-2115.50	  470.84
    128.4700	  681.00	  607.84	-2115.50	  471.36
    128.5700	    0.00	  608.36	-2115.50	  471.89
    128.6700	    0.00	  608.89	-2115.50	  472.42
     12.4433	        	        	        	        	       0	(  0  0  2)	  0  1
     12.4433	        	        	        	        	    -528	(  0  0  2)	  0  1
     25.1270	        	        	        	        	       0	(  0  0  4)	  0  1
     25.1270	        	        	        	        	    -528	(  0  0  4)	  0  1
     28.5697	        	        	        	        	       0	(  1  0  0)	  0  1
     28.5697	        	        	        	        	    -528	(  1  0  0)	  0  1
     29.2733	        	        	        	        	       0	(  1  0  1)	  0  1
     29.2733	        	        	        	        	    -528	(  1  0  1)	  0  1
     31.2978	        	        	        	        	       0	(  1  0  2)	  0  1
     31.2978	        	        	        	        	    -528	(  1  0  2)	  0  1
     34.4344	        	        	        	        	       0	(  1  0  3)	  0  1
     34.4344	        	        	        	        	    -528	(  1  0  3)	  0  1
     38.1345	        	        	        	        	       0	(  0  0  6)	  0  1
     38.1345	        	        	        	        	    -528	(  0  0  6)	  0  1
     38.4478	        	        	        	        	       0	(  1  0  4)	  0  1
     38.4478	        	        	        	        	    -528	(  1  0  4)	  0  1
     43.1409	        	        	        	        	       0	(  1  0  5)	  0  1
     43.1409	        	        	        	        	    -528	(  1  0  5)	  0  1
     48.3739	        	        	        	        	       0	(  1  0  6)	  0  1
     48.3739	        	        	        	        	    -528	(  1  0  6)	  0  1
     50.6765	        	        	        	        	       0	(  1  1  0)	  0  1
     50.6765	        	        	        	        	    -528	(  1  1  0)	  0  1
     51.6782	        	        	        	        	       0	(  0  0  8)	  0  1
     51.6782	        	        	        	        	    -528	(  0  0  8)	  0  1
     52.4172	        	        	        	        	       0	(  1  1  2)	  0  1
     52.4172	        	        	        	        	    -528	(  1  1  2)	  0  1
     54.0593	        	        	        	        	       0	(  1  0  7)	  0  1
     54.0593	        	        	        	        	    -528	(  1  0  7)	  0  1
     57.4168	        	        	        	        	       0	(  1  1  4)	  0  1
     57.4168	        	        	        	        	    -528	(  1  1  4)	  0  1
     59.2472	        	        	        	        	       0	(  2  0  0)	  0  1
     59.2472	        	        	        	        	    -528	(  2  0  0)	  0  1
     59.6431	        	        	        	        	       0	(  2  0  1)	  0  1
     59.6431	        	        	        	        	    -528	(  2  0  1)	  0  1
     60.1514	        	        	        	        	       0	(  1  0  8)	  0  1
     60.1514	        	        	        	        	    -528	(  1  0  8)	  0  1
     60.8212	        	        	        	        	       0	(  2  0  2)	  0  1
     60.8212	        	        	        	        	    -528	(  2  0  2)	  0  1
     62.7557	        	        	        	        	       0	(  2  0  3)	  0  1
     62.7557	        	        	        	        	    -528	(  2  0  3)	  0  1
     65.1955	        	        	        	        	       0	(  1  1  6)	  0  1
     65.1955	        	        	        	        	    -528	(  1  1  6)	  0  1
     65.4094	        	        	        	        	       0	(  2  0  4)	  0  1
     65.4094	        	        	        	        	    -528	(  2  0  4)	  0  1
     66.0527	        	        	        	        	       0	(  0  0 10)	  0  1
     66.0527	        	        	        	        	    -528	(  0  0 10)	  0  1
     66.6371	        	        	        	        	       0	(  1  0  9)	  0  1
     66.6371	        	        	        	        	    -528	(  1  0  9)	  0  1
     68.7418	        	        	        	        	       0	(  2  0  5)	  0  1
     68.7418	        	        	        	        	    -528	(  2  0  5)	  0  1
     72.7164	        	        	        	        	       0	(  2  0  6)	  0  1
     72.7164	        	        	        	        	    -528	(  2  0  6)	  0  1
     73.5325	        	        	        	        	       0	(  1  0 10)	  0  1
     73.5325	        	        	        	        	    -528	(  1  0 10)	  0  1
     75.3523	        	        	        	        	       0	(  1  1  8)	  0  1
     75.3523	        	        	        	        	    -528	(  1  1  8)	  0  1
     77.3075	        	        	        	        	       0	(  2  0  7)	  0  1
     77.3075	        	        	        	        	    -528	(  2  0  7)	  0  1
     80.8825	        	        	        	        	       0	(  1  0 11)	  0  1
     80.8825	        	        	        	        	    -528	(  1  0 11)	  0  1
     81.7177	        	        	        	        	       0	(  2  1  0)	  0  1
     81.7177	        	        	        	        	    -528	(  2  1  0)	  0  1
     81.7211	        	        	        	        	       0	(  0  0 12)	  0  1
     81.7211	        	        	        	        	    -528	(  0  0 12)	  0  1
     82.0622	        	        	        	        	       0	(  2  1  1)	  0  1
     82.0622	        	        	        	        	    -528	(  2  1  1)	  0  1
     82.5063	        	        	        	        	       0	(  2  0  8)	  0  1
     82.5063	        	        	        	        	    -528	(  2  0  8)	  0  1
     83.0943	        	        	        	        	       0	(  2  1  2)	  0  1
     83.0943	        	        	        	        	    -528	(  2  1  2)	  0  1
     84.8096	        	        	        	        	       0	(  2  1  3)	  0  1
     84.8096	        	        	        	        	    -528	(  2  1  3)	  0  1
     87.2037	        	        	        	        	       0	(  2  1  4)	  0  1
     87.2037	        	        	        	        	    -528	(  2  1  4)	  0  1
     87.7910	        	        	        	        	       0	(  1  1 10)	  0  1
     87.7910	        	        	        	        	    -528	(  1  1 10)	  0  1
     88.3270	        	        	        	        	       0	(  2  0  9)	  0  1
     88.3270	        	        	        	        	    -528	(  2  0  9)	  0  1
     88.7672	        	        	        	        	       0	(  1  0 12)	  0  1
     88.7672	        	        	        	        	    -528	(  1  0 12)	  0  1
     90.2754	        	        	        	        	       0	(  2  1  5)	  0  1
     90.2754	        	        	        	        	    -528	(  2  1  5)	  0  1
     94.0321	        	        	        	        	       0	(  2  1  6)	  0  1
     94.0321	        	        	        	        	    -528	(  2  1  6)	  0  1
     94.8159	        	        	        	        	       0	(  2  0 10)	  0  1
     94.8159	        	        	        	        	    -528	(  2  0 10)	  0  1
     95.7926	        	        	        	        	       0	(  3  0  0)	  0  1
     95.7926	        	        	        	        	    -528	(  3  0  0)	  0  1
     96.1357	        	        	        	        	       0	(  3  0  1)	  0  1
     96.1357	        	        	        	        	    -528	(  3  0  1)	  0  1
     97.1665	        	        	        	        	       0	(  3  0  2)	  0  1
     97.1665	        	        	        	        	    -528	(  3  0  2)	  0  1
     97.3178	        	        	        	        	       0	(  1  0 13)	  0  1
     97.3178	        	        	        	        	    -528	(  1  0 13)	  0  1
     98.4962	        	        	        	        	       0	(  2  1  7)	  0  1
     98.4962	        	        	        	        	    -528	(  2  1  7)	  0  1
     98.8898	        	        	        	        	       0	(  3  0  3)	  0  1
     98.8898	        	        	        	        	    -528	(  3  0  3)	  0  1
     99.5363	        	        	        	        	       0	(  0  0 14)	  0  1
     99.5363	        	        	        	        	    -528	(  0  0 14)	  0  1
    101.3166	        	        	        	        	       0	(  3  0  4)	  0  1
    101.3166	        	        	        	        	    -528	(  3  0  4)	  0  1
    102.0659	        	        	        	        	       0	(  2  0 11)	  0  1
    102.0659	        	        	        	        	    -528	(  2  0 11)	  0  1
    102.9154	        	        	        	        	       0	(  1  1 12)	  0  1
    102.9154	        	        	        	        	    -528	(  1  1 12)	  0  1
    103.7151	        	        	        	        	       0	(  2  1  8)	  0  1
    103.7151	        	        	        	        	    -528	(  2  1  8)	  0  1
    104.4683	        	        	        	        	       0	(  3  0  5)	  0  1
    104.4683	        	        	        	        	    -528	(  3  0  5)	  0  1
    106.7508	        	        	        	        	       0	(  1  0 14)	  0  1
    106.7508	        	        	        	        	    -528	(  1  0 14)	  0  1
    108.3836	        	        	        	        	       0	(  3  0  6)	  0  1
    108.3836	        	        	        	        	    -528	(  3  0  6)	  0  1
    109.7780	        	        	        	        	       0	(  2  1  9)	  0  1
    109.7780	        	        	        	        	    -528	(  2  1  9)	  0  1
    110.2466	        	        	        	        	       0	(  2  0 12)	  0  1
    110.2466	        	        	        	        	    -528	(  2  0 12)	  0  1
    113.1311	        	        	        	        	       0	(  3  0  7)	  0  1
    113.1311	        	        	        	        	    -528	(  3  0  7)	  0  1
    116.8460	        	        	        	        	       0	(  2  1 10)	  0  1
    116.8460	        	        	        	        	    -528	(  2  1 10)	  0  1
    117.4523	        	        	        	        	       0	(  1  0 15)	  0  1
    117.4523	        	        	        	        	    -528	(  1  0 15)	  0  1
    117.9422	        	        	        	        	       0	(  2  2  0)	  0  1
    117.9422	        	        	        	        	    -528	(  2  2  0)	  0  1
    118.8310	        	        	        	        	       0	(  3  0  8)	  0  1
    118.8310	        	        	        	        	    -528	(  3  0  8)	  0  1
    119.4998	        	        	        	        	       0	(  2  2  2)	  0  1
    119.4998	        	        	        	        	    -528	(  2  2  2)	  0  1
    119.6725	        	        	        	        	       0	(  2  0 13)	  0  1
    119.6725	        	        	        	        	    -528	(  2  0 13)	  0  1
    121.5454	        	        	        	        	       0	(  0  0 16)	  0  1
    121.5454	        	        	        	        	    -528	(  0  0 16)	  0  1
    122.2333	        	        	        	        	       0	(  1  1 14)	  0  1
    122.2333	        	        	        	        	    -528	(  1  1 14)	  0  1
    124.3293	        	        	        	        	       0	(  2  2  4)	  0  1
    124.3293	        	        	        	        	    -528	(  2  2  4)	  0  1
    125.2233	        	        	        	        	       0	(  2  1 11)	  0  1
    125.2233	        	        	        	        	    -528	(  2  1 11)	  0  1
    125.7013	        	        	        	        	       0	(  3  0  9)	  0  1
    125.7013	        	        	        	        	    -528	(  3  0  9)	  0  1
    126.2416	        	        	        	        	       0	(  3  1  0)	  0  1
    126.2416	        	        	        	        	    -528	(  3  1  0)	  0  1
    126.6663	        	        	        	        	       0	(  3  1  1)	  0  1
    126.6663	        	        	        	        	    -528	(  3  1  1)	  0  1
    127.9548	        	        	        	        	       0	(  3  1  2)	  0  1
    127.9548	        	        	        	        	    -528	(  3  1  2)	  0  1
    130.1545	        	        	        	        	       0	(  3  1  3)	  0  1
    130.1545	        	        	        	        	    -528	(  3  1  3)	  0  1
    130.2260	        	        	        	        	       0	(  1  0 16)	  0  1
    130.2260	        	        	        	        	    -528	(  1  0 16)	  0  1
    130.9955	        	        	        	        	       0	(  2  0 14)	  0  1
    130.9955	        	        	        	        	    -528	(  2  0 14)	  0  1
    133.0937	        	        	        	        	       0	(  2  2  6)	  0  1
    133.0937	        	        	        	        	    -528	(  2  2  6)	  0  1
    133.3610	        	        	        	        	       0	(  3  1  4)	  0  1
    133.3610	        	        	        	        	    -528	(  3  1  4)	  0  1
    134.1748	        	        	        	        	       0	(  3  0 10)	  0  1
    134.1748	        	        	        	        	    -528	(  3  0 10)	  0  1
    135.5536	        	        	        	        	       0	(  2  1 12)	  0  1
    135.5536	        	        	        	        	    -528	(  2  1 12)	  0  1
    137.7545	        	        	        	        	       0	(  3  1  5)	  0  1
    137.7545	        	        	        	        	    -528	(  3  1  5)	  0  1
    143.6971	        	        	        	        	       0	(  3  1  6)	  0  1
    143.6971	        	        	        	        	    -528	(  3  1  6)	  0  1
    145.2985	        	        	        	        	       0	(  3  0 11)	  0  1
    145.2985	        	        	        	        	    -528	(  3  0 11)	  0  1
    145.9954	        	        	        	        	       0	(  2  0 15)	  0  1
    145.9954	        	        	        	        	    -528	(  2  0 15)	  0  1
    147.4222	        	        	        	        	       0	(  1  0 17)	  0  1
    147.4222	        	        	        	        	    -528	(  1  0 17)	  0  1
    148.2381	        	        	        	        	       0	(  2  2  8)	  0  1
    148.2381	        	        	        	        	    -528	(  2  2  8)	  0  1
    149.6640	        	        	        	        	       0	(  2  1 13)	  0  1
    149.6640	        	        	        	        	    -528	(  2  1 13)	  0  1
    152.0676	        	        	        	        	       0	(  3  1  7)	  0  1
    152.0676	        	        	        	        	    -528	(  3  1  7)	  0  1
    153.0325	        	        	        	        	       0	(  1  1 16)	  0  1
    153.0325	        	        	        	        	    -528	(  1  1 16)	  0  1
    158.2558	        	        	        	        	       0	(  0  0 18)	  0  1
    158.2558	        	        	        	        	    -528	(  0  0 18)	  0  1
    163.6324	        	        	        	        	       0	(  4  0  0)	  0  1
    163.6324	        	        	        	        	    -528	(  4  0  0)	  0  1
    163.6444	        	        	        	        	       0	(  3  0 12)	  0  1
    163.6444	        	        	        	        	    -528	(  3  0 12)	  0  1
    164.8974	        	        	        	        	       0	(  4  0  1)	  0  1
    164.8974	        	        	        	        	    -528	(  4  0  1)	  0  1
    166.7025	        	        	        	        	       0	(  3  1  8)	  0  1
    166.7025	        	        	        	        	    -528	(  3  1  8)	  0  1
