MSG Master    CELL:    5.89935   5.89935  23.16862   90.0000   90.0000  120.0000   SPGR: P 63/m m c             TEMP:    772.15
  1   1280     2.52000     0.00000    -0.12937     0.00000     0.00000    0
    97     0     2
       0.00000      10.00000
     125.00000     130.00000
 2Theta	Yobs	Ycal	Yobs-Ycal	Backg	Posr	(hkl)	K
      0.7700	    0.00	  449.83	-1766.64	  354.26
      0.8700	    0.00	  452.38	-1766.64	  356.81
      0.9700	   36.00	  454.90	-1766.64	  359.33
      1.0700	   32.00	  457.40	-1766.64	  361.83
      1.1700	   43.00	  459.87	-1766.64	  364.30
      1.2700	   45.00	  462.32	-1766.64	  366.75
      1.3700	   39.00	  464.74	-1766.64	  369.17
      1.4700	  101.00	  467.13	-1766.64	  371.56
      1.5700	  314.00	  469.50	-1766.64	  373.93
      1.6700	  450.00	  471.85	-1766.64	  376.28
      1.7700	  595.00	  474.17	-1766.64	  378.60
      1.8700	  643.00	  476.46	-1766.64	  380.89
      1.9700	  728.00	  478.73	-1766.64	  383.17
      2.0700	  756.00	  480.98	-1766.64	  385.41
      2.1700	  752.00	  483.20	-1766.64	  387.63
      2.2700	  754.00	  485.40	-1766.64	  389.83
      2.3700	  678.00	  487.57	-1766.64	  392.00
      2.4700	  729.00	  489.72	-1766.64	  394.15
      2.5700	  665.00	  491.85	-1766.64	  396.28
      2.6700	  645.00	  493.95	-1766.64	  398.38
      2.7700	  674.00	  496.03	-1766.64	  400.46
      2.8700	  590.00	  498.09	-1766.64	  402.52
      2.9700	  607.00	  500.12	-1766.64	  404.55
      3.0700	  629.00	  502.13	-1766.64	  406.56
      3.1700	  602.00	  504.12	-1766.64	  408.55
      3.2700	  652.00	  506.08	-1766.64	  410.51
      3.3700	  918.00	  508.02	-1766.64	  412.45
      3.4700	 1024.00	  509.94	-1766.64	  414.37
      3.5700	 1099.00	  511.84	-1766.64	  416.27
      3.6700	 1181.00	  513.71	-1766.64	  418.14
      3.7700	 1280.00	  515.57	-1766.64	  420.00
      3.8700	 1436.00	  517.40	-1766.64	  421.83
      3.9700	 1465.00	  519.21	-1766.64	  423.64
      4.0700	 1604.00	  520.99	-1766.64	  425.42
      4.1700	 1494.00	  522.76	-1766.64	  427.19
      4.2700	 1570.00	  524.50	-1766.64	  428.93
      4.3700	 1501.00	  526.23	-1766.64	  430.66
      4.4700	 1458.00	  527.93	-1766.64	  432.36
      4.5700	 1408.00	  529.61	-1766.64	  434.04
      4.6700	 1307.00	  531.27	-1766.64	  435.70
      4.7700	 1346.00	  532.91	-1766.64	  437.34
      4.8700	 1232.00	  534.53	-1766.64	  438.96
      4.9700	 1219.00	  536.13	-1766.64	  440.56
      5.0700	 1203.00	  537.71	-1766.64	  442.14
      5.1700	 1167.00	  539.27	-1766.64	  443.70
      5.2700	 1148.00	  540.81	-1766.64	  445.24
      5.3700	 1111.00	  542.32	-1766.64	  446.76
      5.4700	 1147.00	  543.82	-1766.64	  448.25
      5.5700	 1018.00	  545.30	-1766.64	  449.73
      5.6700	 1035.00	  546.76	-1766.64	  451.19
      5.7700	 1019.00	  548.20	-1766.64	  452.63
      5.8700	 1014.00	  549.62	-1766.64	  454.05
      5.9700	  968.00	  551.03	-1766.64	  455.46
      6.0700	  958.00	  552.41	-1766.64	  456.84
      6.1700	  878.00	  553.77	-1766.64	  458.20
      6.2700	  957.00	  555.12	-1766.64	  459.55
      6.3700	  916.00	  556.45	-1766.64	  460.88
      6.4700	  867.00	  557.76	-1766.64	  462.19
      6.5700	  899.00	  559.05	-1766.64	  463.48
      6.6700	  846.00	  560.32	-1766.64	  464.75
      6.7700	  807.00	  561.57	-1766.64	  466.00
      6.8700	  830.00	  562.81	-1766.64	  467.24
      6.9700	  788.00	  564.03	-1766.64	  468.46
      7.0700	  843.00	  565.23	-1766.64	  469.66
      7.1700	  770.00	  566.41	-1766.64	  470.84
      7.2700	  771.00	  567.57	-1766.64	  472.00
      7.3700	  775.00	  568.72	-1766.64	  473.15
      7.4700	  783.00	  569.85	-1766.64	  474.28
      7.5700	  783.00	  570.97	-1766.64	  475.40
      7.6700	  719.00	  572.06	-1766.64	  476.49
      7.7700	  757.00	  573.14	-1766.64	  477.57
      7.8700	  732.00	  574.21	-1766.64	  478.64
      7.9700	  759.00	  575.25	-1766.64	  479.68
      8.0700	  691.00	  576.28	-1766.64	  480.71
      8.1700	  695.00	  577.29	-1766.64	  481.72
      8.2700	  709.00	  578.29	-1766.64	  482.72
      8.3700	  658.00	  579.27	-1766.64	  483.70
      8.4700	  706.00	  580.24	-1766.64	  484.67
      8.5700	  734.00	  581.19	-1766.64	  485.62
      8.6700	  692.00	  582.12	-1766.64	  486.55
      8.7700	  703.00	  583.04	-1766.64	  487.47
      8.8700	  668.00	  583.94	-1766.64	  488.37
      8.9700	  710.00	  584.82	-1766.64	  489.25
      9.0700	  713.00	  585.70	-1766.64	  490.13
      9.1700	  688.00	  586.55	-1766.64	  490.98
      9.2700	  682.00	  587.39	-1766.64	  491.82
      9.3700	  687.00	  588.22	-1766.64	  492.65
      9.4700	  668.00	  589.03	-1766.64	  493.46
      9.5700	  685.00	  589.82	-1766.64	  494.25
      9.6700	  618.00	  590.60	-1766.64	  495.03
      9.7700	  629.00	  591.37	-1766.64	  495.80
      9.8700	  646.00	  592.12	-1766.64	  496.55
      9.9700	  690.00	  592.86	-1766.64	  497.29
     10.0700	  715.00	  599.17	-1650.82	  498.01
     10.1700	  662.00	  600.09	-1704.73	  498.72
     10.2700	  628.00	  601.03	-1739.68	  499.42
     10.3700	  617.00	  602.03	-1751.67	  500.10
     10.4700	  679.00	  603.10	-1690.74	  500.77
     10.5700	  660.00	  604.31	-1710.95	  501.42
     10.6700	  655.00	  605.72	-1717.37	  502.06
     10.7700	  713.00	  607.45	-1661.09	  502.69
     10.8700	  628.00	  609.57	-1748.21	  503.30
     10.9700	  645.00	  612.14	-1733.78	  503.90
     11.0700	  620.00	  615.17	-1761.81	  504.49
     11.1700	  652.00	  618.65	-1733.30	  505.06
     11.2700	  643.00	  622.63	-1746.28	  505.62
     11.3700	  635.00	  627.18	-1758.82	  506.17
     11.4700	  702.00	  632.41	-1697.05	  506.70
     11.5700	  661.00	  638.54	-1744.18	  507.22
     11.6700	  686.00	  645.87	-1726.51	  507.73
     11.7700	  637.00	  654.80	-1784.44	  508.23
     11.8700	  654.00	  665.69	-1778.34	  508.72
     11.9700	  679.00	  678.44	-1766.09	  509.19
     12.0700	  726.00	  691.77	-1732.42	  509.65
     12.1700	  736.00	  702.44	-1733.08	  510.10
     12.2700	  698.00	  704.99	-1773.64	  510.53
     12.3700	  761.00	  694.85	-1700.49	  510.96
     12.4700	  671.00	  675.42	-1771.06	  511.37
     12.5700	  714.00	  655.69	-1708.34	  511.77
     12.6700	  653.00	  640.73	-1754.37	  512.16
     12.7700	  619.00	  631.05	-1778.70	  512.54
     12.8700	  633.00	  625.41	-1759.05	  512.91
     12.9700	  605.00	  622.28	-1783.92	  513.26
     13.0700	  620.00	  620.52	-1767.16	  513.61
     13.1700	  561.00	  619.47	-1825.12	  513.94
     13.2700	  605.00	  618.81	-1780.46	  514.26
     13.3700	  605.00	  618.39	-1780.03	  514.57
     13.4700	  553.00	  618.12	-1831.76	  514.87
     13.5700	  562.00	  617.96	-1822.60	  515.16
     13.6700	  631.00	  617.87	-1753.52	  515.44
     13.7700	  619.00	  617.87	-1765.52	  515.71
     13.8700	  622.00	  617.89	-1762.53	  515.97
     13.9700	  594.00	  617.93	-1790.58	  516.21
     14.0700	  611.00	  618.00	-1773.64	  516.45
     14.1700	  594.00	  618.08	-1790.73	  516.68
     14.2700	  601.00	  618.18	-1783.82	  516.90
     14.3700	  578.00	  618.28	-1806.92	  517.10
     14.4700	  629.00	  618.39	-1756.03	  517.30
     14.5700	  648.00	  618.50	-1737.14	  517.49
     14.6700	  641.00	  618.61	-1744.25	  517.66
     14.7700	  609.00	  618.72	-1776.36	  517.83
     14.8700	  592.00	  618.82	-1793.47	  517.99
     14.9700	  608.00	  618.93	-1777.57	  518.14
     15.0700	  562.00	  619.03	-1823.68	  518.28
     15.1700	  572.00	  619.13	-1813.77	  518.41
     15.2700	  595.00	  619.22	-1790.86	  518.53
     15.3700	  617.00	  619.31	-1768.95	  518.64
     15.4700	  600.00	  619.39	-1786.03	  518.75
     15.5700	  584.00	  619.46	-1802.11	  518.84
     15.6700	  567.00	  619.53	-1819.18	  518.93
     15.7700	  620.00	  619.59	-1766.24	  519.00
     15.8700	  604.00	  619.65	-1782.30	  519.07
     15.9700	  563.00	  619.70	-1823.34	  519.13
     16.0700	  596.00	  619.74	-1790.39	  519.18
     16.1700	  581.00	  619.78	-1805.42	  519.22
     16.2700	  579.00	  619.81	-1807.45	  519.26
     16.3700	  634.00	  619.83	-1752.47	  519.28
     16.4700	  592.00	  619.84	-1794.49	  519.30
     16.5700	  570.00	  619.85	-1816.50	  519.31
     16.6700	  549.00	  619.85	-1837.50	  519.31
     16.7700	  563.00	  619.85	-1823.49	  519.31
     16.8700	  663.00	  619.83	-1723.48	  519.29
     16.9700	  640.00	  619.81	-1746.46	  519.27
     17.0700	  599.00	  619.79	-1787.43	  519.24
     17.1700	  590.00	  619.75	-1796.40	  519.20
     17.2700	  576.00	  619.71	-1810.36	  519.16
     17.3700	  606.00	  619.77	-1780.42	  519.11
     17.4700	  607.00	  619.72	-1779.37	  519.05
     17.5700	  582.00	  619.66	-1804.31	  518.98
     17.6700	  589.00	  619.60	-1797.24	  518.91
     17.7700	  558.00	  619.52	-1828.17	  518.83
     17.8700	  591.00	  619.58	-1795.22	  518.74
     17.9700	  563.00	  619.49	-1823.14	  518.64
     18.0700	  617.00	  619.40	-1769.05	  518.54
     18.1700	  612.00	  619.31	-1773.95	  518.43
     18.2700	  596.00	  619.21	-1789.85	  518.32
     18.3700	  603.00	  619.10	-1782.74	  518.19
     18.4700	  600.00	  618.99	-1785.63	  518.07
     18.5700	  609.00	  618.87	-1776.51	  517.93
     18.6700	  601.00	  618.74	-1784.39	  517.79
     18.7700	  602.00	  618.61	-1783.25	  517.64
     18.8700	  541.00	  618.47	-1844.12	  517.49
     18.9700	  586.00	  618.33	-1798.97	  517.32
     19.0700	  616.00	  618.18	-1768.83	  517.16
     19.1700	  563.00	  618.03	-1821.67	  516.98
     19.2700	  615.00	  617.87	-1769.51	  516.80
     19.3700	  562.00	  617.70	-1822.35	  516.62
     19.4700	  572.00	  617.54	-1812.18	  516.43
     19.5700	  638.00	  617.41	-1746.05	  516.23
     19.6700	  598.00	  617.23	-1785.87	  516.03
     19.7700	  603.00	  617.04	-1780.69	  515.82
     19.8700	  583.00	  616.86	-1800.50	  515.61
     19.9700	  606.00	  616.66	-1777.31	  515.39
     20.0700	  601.00	  616.46	-1782.11	  515.16
     20.1700	  597.00	  616.26	-1785.91	  514.93
     20.2700	  569.00	  616.06	-1813.70	  514.70
     20.3700	  631.00	  615.84	-1751.49	  514.46
     20.4700	  575.00	  615.63	-1807.27	  514.21
     20.5700	  633.00	  615.41	-1749.05	  513.96
     20.6700	  580.00	  615.19	-1801.83	  513.70
     20.7700	  584.00	  614.96	-1797.60	  513.44
     20.8700	  628.00	  614.73	-1753.37	  513.18
     20.9700	  575.00	  614.49	-1806.14	  512.91
     21.0700	  568.00	  614.26	-1812.90	  512.63
     21.1700	  600.00	  614.02	-1780.66	  512.35
     21.2700	  572.00	  613.78	-1808.42	  512.06
     21.3700	  527.00	  613.53	-1853.17	  511.77
     21.4700	  646.00	  613.28	-1733.93	  511.48
     21.5700	  591.00	  613.03	-1788.68	  511.18
     21.6700	  554.00	  612.78	-1825.43	  510.88
     21.7700	  576.00	  612.53	-1803.17	  510.57
     21.8700	  595.00	  612.27	-1783.92	  510.26
     21.9700	  611.00	  612.02	-1767.66	  509.94
     22.0700	  626.00	  611.77	-1752.41	  509.62
     22.1700	  552.00	  611.67	-1826.31	  509.30
     22.2700	  615.00	  611.42	-1763.06	  508.97
     22.3700	  606.00	  611.17	-1771.81	  508.64
     22.4700	  634.00	  610.92	-1743.57	  508.30
     22.5700	  595.00	  610.68	-1782.33	  507.96
     22.6700	  597.00	  610.45	-1780.09	  507.62
     22.7700	  604.00	  610.22	-1772.86	  507.27
     22.8700	  600.00	  610.00	-1776.65	  506.92
     22.9700	  604.00	  609.79	-1772.44	  506.56
     23.0700	  604.00	  609.60	-1772.25	  506.21
     23.1700	  560.00	  609.38	-1816.02	  505.84
     23.2700	  598.00	  609.23	-1777.88	  505.48
     23.3700	  612.00	  609.12	-1763.76	  505.11
     23.4700	  604.00	  609.05	-1771.69	  504.74
     23.5700	  615.00	  609.03	-1760.68	  504.36
     23.6700	  648.00	  609.10	-1727.74	  503.98
     23.7700	  625.00	  609.28	-1750.92	  503.60
     23.8700	  666.00	  609.64	-1710.29	  503.21
     23.9700	  572.00	  610.31	-1804.96	  502.83
     24.0700	  597.00	  611.49	-1781.14	  502.44
     24.1700	  665.00	  613.51	-1715.16	  502.04
     24.2700	  597.00	  616.84	-1786.49	  501.64
     24.3700	  635.00	  622.02	-1753.66	  501.24
     24.4700	  683.00	  629.50	-1713.15	  500.84
     24.5700	  640.00	  639.39	-1766.03	  500.44
     24.6700	  654.00	  651.01	-1763.66	  500.03
     24.7700	  667.00	  662.39	-1762.04	  499.62
     24.8700	  707.00	  669.78	-1729.42	  499.20
     24.9700	  724.00	  668.52	-1711.17	  498.79
     25.0700	  697.00	  657.66	-1727.31	  498.37
     25.1700	  709.00	  642.66	-1700.31	  497.95
     25.2700	  672.00	  629.20	-1723.85	  497.53
     25.3700	  650.00	  619.36	-1736.01	  497.10
     25.4700	  606.00	  612.99	-1773.64	  496.67
     25.5700	  645.00	  609.13	-1730.78	  496.24
     25.6700	  657.00	  606.81	-1716.46	  495.81
     25.7700	  646.00	  605.34	-1725.99	  495.38
     25.8700	  615.00	  604.33	-1755.97	  494.94
     25.9700	  652.00	  603.59	-1718.24	  494.50
     26.0700	  642.00	  603.04	-1727.68	  494.06
     26.1700	  675.00	  602.63	-1694.27	  493.62
     26.2700	  671.00	  602.35	-1697.99	  493.18
     26.3700	  624.00	  602.18	-1744.82	  492.73
     26.4700	  684.00	  602.12	-1684.76	  492.28
     26.5700	  625.00	  602.18	-1743.82	  491.83
     26.6700	  628.00	  602.37	-1741.02	  491.38
     26.7700	  671.00	  602.72	-1698.37	  490.93
     26.8700	  634.00	  603.25	-1735.90	  490.47
     26.9700	  638.00	  604.01	-1732.65	  490.02
     27.0700	  644.00	  605.06	-1727.70	  489.56
     27.1700	  674.00	  606.49	-1699.14	  489.10
     27.2700	  665.00	  608.49	-1710.13	  488.64
     27.3700	  651.00	  611.35	-1727.00	  488.18
     27.4700	  655.00	  615.67	-1727.32	  487.72
     27.5700	  661.00	  622.51	-1728.16	  487.25
     27.6700	  696.00	  633.66	-1704.31	  486.79
     27.7700	  680.00	  651.78	-1738.43	  486.32
     27.8700	  726.00	  680.00	-1720.65	  485.85
     27.9700	  725.00	  720.54	-1762.18	  485.38
     28.0700	  824.00	  772.58	-1715.22	  484.91
     28.1700	  906.00	  829.92	-1690.56	  484.44
     28.2700	  982.00	  879.20	-1663.84	  483.97
     28.3700	 1014.00	  901.78	-1654.43	  483.49
     28.4700	 1006.00	  889.10	-1649.75	  483.02
     28.5700	  876.00	  861.65	-1752.30	  482.54
     28.6700	  788.00	  849.01	-1827.65	  482.07
     28.7700	  842.00	  863.12	-1787.76	  481.59
     28.8700	  831.00	  897.24	-1832.89	  481.11
     28.9700	  947.00	  930.54	-1750.19	  480.64
     29.0700	  966.00	  934.25	-1734.89	  480.16
     29.1700	  935.00	  891.17	-1722.81	  479.68
     29.2700	  868.00	  818.22	-1716.86	  479.20
     29.3700	  741.00	  746.03	-1771.68	  478.72
     29.4700	  746.00	  690.43	-1711.07	  478.23
     29.5700	  711.00	  653.51	-1709.15	  477.75
     29.6700	  697.00	  631.27	-1700.92	  477.27
     29.7700	  716.00	  618.47	-1669.12	  476.79
     29.8700	  713.00	  610.98	-1664.63	  476.30
     29.9700	  692.00	  606.38	-1681.02	  475.82
     30.0700	  713.00	  603.52	-1657.17	  475.34
     30.1700	  699.00	  602.05	-1669.69	  474.85
     30.2700	  718.00	  602.07	-1650.71	  474.37
     30.3700	  707.00	  604.11	-1663.75	  473.88
     30.4700	  682.00	  609.16	-1693.81	  473.40
     30.5700	  642.00	  618.53	-1743.18	  472.91
     30.6700	  679.00	  633.30	-1720.94	  472.43
     30.7700	  715.00	  653.27	-1704.91	  471.95
     30.8700	  667.00	  675.83	-1775.47	  471.46
     30.9700	  748.00	  695.18	-1713.82	  470.98
     31.0700	  731.00	  702.74	-1738.39	  470.49
     31.1700	  734.00	  692.20	-1724.85	  470.01
     31.2700	  682.00	  668.01	-1752.66	  469.52
     31.3700	  681.00	  641.38	-1727.03	  469.04
     31.4700	  658.00	  619.48	-1728.13	  468.55
     31.5700	  644.00	  604.15	-1726.79	  468.07
     31.6700	  624.00	  594.49	-1737.13	  467.58
     31.7700	  655.00	  588.73	-1700.38	  467.10
     31.8700	  632.00	  585.29	-1719.94	  466.62
     31.9700	  641.00	  583.11	-1708.75	  466.13
     32.0700	  553.00	  581.62	-1795.26	  465.65
     32.1700	  597.00	  580.56	-1750.20	  465.17
     32.2700	  604.00	  579.81	-1742.45	  464.69
     32.3700	  605.00	  579.32	-1740.96	  464.20
     32.4700	  576.00	  579.07	-1769.71	  463.72
     32.5700	  585.00	  579.05	-1760.70	  463.24
     32.6700	  605.00	  579.30	-1740.94	  462.76
     32.7700	  642.00	  579.83	-1704.48	  462.28
     32.8700	  587.00	  580.72	-1760.37	  461.80
     32.9700	  588.00	  582.06	-1760.71	  461.33
     33.0700	  648.00	  584.02	-1702.66	  460.85
     33.1700	  590.00	  586.89	-1763.54	  460.37
     33.2700	  559.00	  591.29	-1798.94	  459.89
     33.3700	  592.00	  598.31	-1772.96	  459.42
     33.4700	  620.00	  610.05	-1756.69	  458.94
     33.5700	  633.00	  629.86	-1763.51	  458.47
     33.6700	  634.00	  662.30	-1794.94	  458.00
     33.7700	  687.00	  711.75	-1791.40	  457.52
     33.8700	  744.00	  779.36	-1802.00	  457.05
     33.9700	  865.00	  858.85	-1760.49	  456.58
     34.0700	 1008.00	  933.42	-1692.06	  456.11
     34.1700	 1044.00	  976.26	-1698.91	  455.64
     34.2700	 1042.00	  962.35	-1686.99	  455.17
     34.3700	  988.00	  895.25	-1673.89	  454.71
     34.4700	  805.00	  807.89	-1769.54	  454.24
     34.5700	  744.00	  728.93	-1751.58	  453.78
     34.6700	  630.00	  669.68	-1806.33	  453.31
     34.7700	  602.00	  630.32	-1794.97	  452.85
     34.8700	  610.00	  606.22	-1762.87	  452.39
     34.9700	  607.00	  591.92	-1751.57	  451.93
     35.0700	  555.00	  583.18	-1794.82	  451.47
     35.1700	  516.00	  577.39	-1828.03	  451.01
     35.2700	  595.00	  573.19	-1744.83	  450.55
     35.3700	  579.00	  569.93	-1757.58	  450.10
     35.4700	  576.00	  567.78	-1758.42	  449.64
     35.5700	  558.00	  565.59	-1774.24	  449.19
     35.6700	  582.00	  563.75	-1748.40	  448.74
     35.7700	  525.00	  562.16	-1803.80	  448.29
     35.8700	  576.00	  560.76	-1751.41	  447.84
     35.9700	  561.00	  559.53	-1765.17	  447.39
     36.0700	  582.00	  558.43	-1743.07	  446.94
     36.1700	  523.00	  557.43	-1801.08	  446.50
     36.2700	  531.00	  556.53	-1792.17	  446.05
     36.3700	  563.00	  555.68	-1759.32	  445.61
     36.4700	  535.00	  554.92	-1786.57	  445.17
     36.5700	  565.00	  554.23	-1755.88	  444.73
     36.6700	  544.00	  553.60	-1776.25	  444.29
     36.7700	  567.00	  553.04	-1752.68	  443.85
     36.8700	  522.00	  552.54	-1797.19	  443.42
     36.9700	  528.00	  552.14	-1790.78	  442.99
     37.0700	  572.00	  551.88	-1746.52	  442.55
     37.1700	  529.00	  551.83	-1789.47	  442.12
     37.2700	  610.00	  552.13	-1708.77	  441.69
     37.3700	  561.00	  552.93	-1758.57	  441.27
     37.4700	  547.00	  554.39	-1774.03	  440.84
     37.5700	  531.00	  556.73	-1792.37	  440.42
     37.6700	  528.00	  559.39	-1798.04	  439.99
     37.7700	  527.00	  562.02	-1801.66	  439.57
     37.8700	  564.00	  563.71	-1766.36	  439.15
     37.9700	  514.00	  563.67	-1816.31	  438.74
     38.0700	  561.00	  561.89	-1767.53	  438.32
     38.1700	  504.00	  559.08	-1821.73	  437.91
     38.2700	  524.00	  555.86	-1798.50	  437.49
     38.3700	  555.00	  552.62	-1764.27	  437.08
     38.4700	  530.00	  549.77	-1786.42	  436.67
     38.5700	  503.00	  547.51	-1811.15	  436.27
     38.6700	  543.00	  545.81	-1769.45	  435.86
     38.7700	  509.00	  544.56	-1802.21	  435.46
     38.8700	  544.00	  543.64	-1766.28	  435.06
     38.9700	  535.00	  542.91	-1774.55	  434.66
     39.0700	  546.00	  542.31	-1762.95	  434.26
     39.1700	  506.00	  541.78	-1802.43	  433.86
     39.2700	  562.00	  541.30	-1745.95	  433.47
     39.3700	  519.00	  540.86	-1788.50	  433.08
     39.4700	  505.00	  540.33	-1801.97	  432.69
     39.5700	  523.00	  539.93	-1783.58	  432.30
     39.6700	  546.00	  539.55	-1760.20	  431.91
     39.7700	  510.00	  539.24	-1795.89	  431.53
     39.8700	  535.00	  538.89	-1770.54	  431.15
     39.9700	  525.00	  538.56	-1780.20	  430.76
     40.0700	  503.00	  538.23	-1801.88	  430.39
     40.1700	  517.00	  537.93	-1787.57	  430.01
     40.2700	  539.00	  538.17	-1765.82	  429.64
     40.3700	  491.00	  537.90	-1813.55	  429.26
     40.4700	  471.00	  537.52	-1833.17	  428.89
     40.5700	  538.00	  537.29	-1765.93	  428.52
     40.6700	  503.00	  537.07	-1800.71	  428.16
     40.7700	  517.00	  536.87	-1786.52	  427.79
     40.8700	  519.00	  536.70	-1784.34	  427.43
     40.9700	  553.00	  536.56	-1750.20	  427.07
     41.0700	  509.00	  536.44	-1794.09	  426.71
     41.1700	  491.00	  536.37	-1812.02	  426.36
     41.2700	  515.00	  536.35	-1787.99	  426.00
     41.3700	  514.00	  536.39	-1789.03	  425.65
     41.4700	  523.00	  536.49	-1780.14	  425.30
     41.5700	  530.00	  536.70	-1773.34	  424.95
     41.6700	  519.00	  537.03	-1784.68	  424.61
     41.7700	  505.00	  537.61	-1799.26	  424.26
     41.8700	  500.00	  538.45	-1805.09	  423.92
     41.9700	  484.00	  539.87	-1822.51	  423.58
     42.0700	  531.00	  542.27	-1777.91	  423.25
     42.1700	  530.00	  546.18	-1782.82	  422.91
     42.2700	  538.00	  552.63	-1781.27	  422.58
     42.3700	  505.00	  562.65	-1824.30	  422.25
     42.4700	  540.00	  576.98	-1803.63	  421.92
     42.5700	  569.00	  595.34	-1792.98	  421.59
     42.6700	  592.00	  615.61	-1790.25	  421.27
     42.7700	  614.00	  633.41	-1786.06	  420.95
     42.8700	  600.00	  642.07	-1808.71	  420.63
     42.9700	  606.00	  637.24	-1797.89	  420.31
     43.0700	  568.00	  620.94	-1819.59	  420.00
     43.1700	  595.00	  599.93	-1771.57	  419.68
     43.2700	  560.00	  579.97	-1786.61	  419.37
     43.3700	  563.00	  563.88	-1767.52	  419.07
     43.4700	  534.00	  552.27	-1784.91	  418.76
     43.5700	  548.00	  544.57	-1763.22	  418.46
     43.6700	  529.00	  539.74	-1777.38	  418.15
     43.7700	  541.00	  536.73	-1762.37	  417.85
     43.8700	  552.00	  534.80	-1749.44	  417.56
     43.9700	  481.00	  533.47	-1819.11	  417.26
     44.0700	  544.00	  532.69	-1755.33	  416.97
     44.1700	  545.00	  531.91	-1753.56	  416.68
     44.2700	  548.00	  531.28	-1749.93	  416.39
     44.3700	  507.00	  530.75	-1790.40	  416.11
     44.4700	  521.00	  530.31	-1775.96	  415.82
     44.5700	  561.00	  529.93	-1735.58	  415.54
     44.6700	  480.00	  529.62	-1816.26	  415.26
     44.7700	  524.00	  529.34	-1771.99	  414.99
     44.8700	  542.00	  529.12	-1753.76	  414.71
     44.9700	  560.00	  528.93	-1735.57	  414.44
     45.0700	  527.00	  528.77	-1768.41	  414.17
     45.1700	  508.00	  528.65	-1787.29	  413.90
     45.2700	  519.00	  528.55	-1776.20	  413.64
     45.3700	  547.00	  528.49	-1748.14	  413.38
     45.4700	  550.00	  528.46	-1745.10	  413.12
     45.5700	  559.00	  528.46	-1736.10	  412.86
     45.6700	  529.00	  528.56	-1766.21	  412.60
     45.7700	  537.00	  528.63	-1758.27	  412.35
     45.8700	  533.00	  528.76	-1762.41	  412.10
     45.9700	  513.00	  528.91	-1782.56	  411.85
     46.0700	  500.00	  529.09	-1795.73	  411.60
     46.1700	  525.00	  529.31	-1770.95	  411.36
     46.2700	  532.00	  529.58	-1764.22	  411.11
     46.3700	  520.00	  529.91	-1776.55	  410.88
     46.4700	  571.00	  530.15	-1725.80	  410.64
     46.5700	  553.00	  530.62	-1744.27	  410.40
     46.6700	  514.00	  531.19	-1783.83	  410.17
     46.7700	  518.00	  531.86	-1780.50	  409.94
     46.8700	  567.00	  532.68	-1732.32	  409.71
     46.9700	  540.00	  533.71	-1760.35	  409.49
     47.0700	  535.00	  535.05	-1766.69	  409.26
     47.1700	  538.00	  536.90	-1765.55	  409.04
     47.2700	  564.00	  539.61	-1742.26	  408.82
     47.3700	  569.00	  543.68	-1741.32	  408.60
     47.4700	  542.00	  549.75	-1774.40	  408.39
     47.5700	  525.00	  558.50	-1800.15	  408.18
     47.6700	  553.00	  570.32	-1783.97	  407.97
     47.7700	  592.00	  584.97	-1759.61	  407.76
     47.8700	  609.00	  601.07	-1758.72	  407.55
     47.9700	  591.00	  615.79	-1791.43	  407.35
     48.0700	  596.00	  625.46	-1796.10	  407.15
     48.1700	  644.00	  625.96	-1748.61	  406.95
     48.2700	  611.00	  618.18	-1773.83	  406.76
     48.3700	  622.00	  606.05	-1750.69	  406.56
     48.4700	  597.00	  593.70	-1763.35	  406.37
     48.5700	  605.00	  583.71	-1745.36	  406.18
     48.6700	  528.00	  577.16	-1815.81	  405.99
     48.7700	  545.00	  574.19	-1795.84	  405.81
     48.8700	  536.00	  574.46	-1805.11	  405.63
     48.9700	  591.00	  577.51	-1753.16	  405.45
     49.0700	  567.00	  583.10	-1782.75	  405.27
     49.1700	  553.00	  591.38	-1805.02	  405.09
     49.2700	  581.00	  603.24	-1788.88	  404.92
     49.3700	  590.00	  620.80	-1797.45	  404.75
     49.4700	  615.00	  648.21	-1799.85	  404.58
     49.5700	  621.00	  692.55	-1838.20	  404.41
     49.6700	  724.00	  764.52	-1807.17	  404.24
     49.7700	  787.00	  877.56	-1857.21	  404.08
     49.8700	  915.00	 1044.61	-1896.25	  403.92
     49.9700	 1195.00	 1272.17	-1843.82	  403.76
     50.0700	 1519.00	 1552.21	-1799.86	  403.61
     50.1700	 1834.00	 1853.68	-1786.32	  403.45
     50.2700	 2187.00	 2116.26	-1695.90	  403.30
     50.3700	 2351.00	 2258.64	-1674.29	  403.15
     50.4700	 2364.00	 2221.33	-1623.97	  403.00
     50.5700	 2087.00	 2019.69	-1699.34	  402.86
     50.6700	 1699.00	 1731.96	-1799.60	  402.72
     50.7700	 1360.00	 1436.05	-1842.69	  402.57
     50.8700	 1035.00	 1180.66	-1912.31	  402.44
     50.9700	  866.00	  985.68	-1886.32	  402.30
     51.0700	  748.00	  851.39	-1870.04	  402.16
     51.1700	  773.00	  766.65	-1760.30	  402.03
     51.2700	  738.00	  716.01	-1744.65	  401.90
     51.3700	  611.00	  684.83	-1840.48	  401.77
     51.4700	  672.00	  662.41	-1757.05	  401.65
     51.5700	  594.00	  643.26	-1815.91	  401.52
     51.6700	  634.00	  626.02	-1758.67	  401.40
     51.7700	  580.00	  610.99	-1797.64	  401.28
     51.8700	  569.00	  598.61	-1796.25	  401.16
     51.9700	  581.00	  589.01	-1774.66	  401.05
     52.0700	  598.00	  582.07	-1750.72	  400.93
     52.1700	  577.00	  577.46	-1767.11	  400.82
     52.2700	  609.00	  574.83	-1732.47	  400.71
     52.3700	  626.00	  573.86	-1714.51	  400.60
     52.4700	  579.00	  574.45	-1762.10	  400.50
     52.5700	  614.00	  576.77	-1729.41	  400.39
     52.6700	  631.00	  581.37	-1717.02	  400.29
     52.7700	  584.00	  589.44	-1772.09	  400.19
     52.8700	  630.00	  602.98	-1739.63	  400.10
     52.9700	  601.00	  624.99	-1790.63	  400.00
     53.0700	  681.00	  659.25	-1744.89	  399.91
     53.1700	  702.00	  709.67	-1774.32	  399.81
     53.2700	  821.00	  778.95	-1724.60	  399.72
     53.3700	  878.00	  866.71	-1755.35	  399.64
     53.4700	  984.00	  967.42	-1750.06	  399.55
     53.5700	 1187.00	 1068.22	-1647.87	  399.47
     53.6700	 1153.00	 1147.83	-1761.47	  399.38
     53.7700	 1245.00	 1181.66	-1703.31	  399.30
     53.8700	 1211.00	 1156.44	-1712.08	  399.22
     53.9700	 1134.00	 1081.95	-1714.59	  399.15
     54.0700	  970.00	  982.72	-1779.37	  399.07
     54.1700	  906.00	  881.41	-1742.05	  399.00
     54.2700	  800.00	  792.03	-1758.67	  398.93
     54.3700	  677.00	  720.92	-1810.57	  398.86
     54.4700	  672.00	  668.94	-1763.59	  398.79
     54.5700	  664.00	  633.66	-1736.31	  398.73
     54.6700	  608.00	  611.21	-1769.85	  398.66
     54.7700	  633.00	  597.70	-1731.34	  398.60
     54.8700	  605.00	  590.01	-1751.65	  398.54
     54.9700	  586.00	  585.98	-1766.63	  398.48
     55.0700	  621.00	  584.33	-1729.98	  398.43
     55.1700	  603.00	  584.35	-1747.99	  398.37
     55.2700	  612.00	  585.71	-1740.35	  398.32
     55.3700	  595.00	  588.30	-1759.94	  398.27
     55.4700	  612.00	  592.15	-1746.79	  398.22
     55.5700	  601.00	  597.42	-1763.06	  398.17
     55.6700	  630.00	  604.42	-1741.07	  398.12
     55.7700	  601.00	  613.77	-1779.41	  398.08
     55.8700	  599.00	  626.59	-1794.23	  398.03
     55.9700	  656.00	  644.99	-1755.63	  397.99
     56.0700	  669.00	  672.63	-1770.27	  397.95
     56.1700	  676.00	  715.43	-1806.07	  397.91
     56.2700	  738.00	  782.01	-1810.66	  397.88
     56.3700	  880.00	  883.34	-1769.99	  397.84
     56.4700	  980.00	 1031.02	-1817.66	  397.81
     56.5700	 1121.00	 1233.76	-1879.40	  397.78
     56.6700	 1408.00	 1492.63	-1851.27	  397.75
     56.7700	 1797.00	 1795.60	-1765.24	  397.72
     56.8700	 2181.00	 2112.18	-1697.83	  397.69
     56.9700	 2423.00	 2389.54	-1733.19	  397.66
     57.0700	 2577.00	 2558.03	-1747.68	  397.64
     57.1700	 2528.00	 2561.39	-1800.03	  397.62
     57.2700	 2351.00	 2398.17	-1813.82	  397.60
     57.3700	 2197.00	 2124.00	-1693.65	  397.58
     57.4700	 1768.00	 1809.62	-1808.26	  397.56
     57.5700	 1391.00	 1508.88	-1884.52	  397.54
     57.6700	 1178.00	 1252.70	-1841.34	  397.53
     57.7700	 1052.00	 1053.49	-1768.13	  397.51
     57.8700	  883.00	  910.76	-1794.41	  397.50
     57.9700	  827.00	  816.51	-1756.15	  397.49
     58.0700	  799.00	  760.24	-1727.89	  397.48
     58.1700	  718.00	  732.49	-1781.13	  397.47
     58.2700	  715.00	  726.48	-1778.13	  397.46
     58.3700	  750.00	  738.43	-1755.08	  397.46
     58.4700	  805.00	  766.60	-1728.24	  397.45
     58.5700	  818.00	  810.06	-1758.71	  397.45
     58.6700	  915.00	  867.31	-1718.95	  397.45
     58.7700	  908.00	  934.81	-1793.45	  397.45
     58.8700	 1029.00	 1006.31	-1743.95	  397.45
     58.9700	 1092.00	 1074.13	-1748.78	  397.45
     59.0700	 1251.00	 1132.33	-1647.97	  397.45
     59.1700	 1253.00	 1177.28	-1690.92	  397.46
     59.2700	 1371.00	 1204.82	-1600.47	  397.46
     59.3700	 1342.00	 1211.03	-1635.67	  397.47
     59.4700	 1270.00	 1198.30	-1694.94	  397.48
     59.5700	 1257.00	 1177.36	-1687.01	  397.49
     59.6700	 1237.00	 1160.96	-1690.60	  397.50
     59.7700	 1201.00	 1157.81	-1723.46	  397.51
     59.8700	 1257.00	 1172.21	-1681.85	  397.52
     59.9700	 1166.00	 1206.82	-1807.46	  397.53
     60.0700	 1329.00	 1263.55	-1701.19	  397.55
     60.1700	 1393.00	 1339.82	-1713.47	  397.57
     60.2700	 1457.00	 1424.67	-1734.31	  397.58
     60.3700	 1542.00	 1497.14	-1721.78	  397.60
     60.4700	 1589.00	 1530.32	-1707.96	  397.62
     60.5700	 1534.00	 1503.76	-1736.40	  397.64
     60.6700	 1466.00	 1417.86	-1718.50	  397.66
     60.7700	 1277.00	 1293.02	-1782.66	  397.68
     60.8700	 1158.00	 1154.94	-1763.58	  397.70
     60.9700	 1067.00	 1023.72	-1723.37	  397.73
     61.0700	  884.00	  911.71	-1794.36	  397.75
     61.1700	  798.00	  824.78	-1793.43	  397.78
     61.2700	  793.00	  764.23	-1737.87	  397.81
     61.3700	  730.00	  728.82	-1765.47	  397.83
     61.4700	  724.00	  716.71	-1759.35	  397.86
     61.5700	  752.00	  726.82	-1741.46	  397.89
     61.6700	  718.00	  759.34	-1807.98	  397.92
     61.7700	  785.00	  815.26	-1796.91	  397.95
     61.8700	  926.00	  895.00	-1735.65	  397.98
     61.9700	  955.00	  996.68	-1808.32	  398.02
     62.0700	 1061.00	 1114.32	-1819.96	  398.05
     62.1700	 1230.00	 1236.21	-1772.86	  398.08
     62.2700	 1306.00	 1343.95	-1804.60	  398.12
     62.3700	 1378.00	 1413.93	-1802.58	  398.15
     62.4700	 1240.00	 1425.77	-1952.41	  398.19
     62.5700	 1295.00	 1374.98	-1846.62	  398.23
     62.6700	 1234.00	 1276.51	-1809.15	  398.27
     62.7700	 1098.00	 1154.06	-1822.70	  398.30
     62.8700	 1008.00	 1028.68	-1787.32	  398.34
     62.9700	  850.00	  914.48	-1831.12	  398.38
     63.0700	  810.00	  819.17	-1775.82	  398.42
     63.1700	  680.00	  745.21	-1831.86	  398.46
     63.2700	  646.00	  691.50	-1812.15	  398.51
     63.3700	  639.00	  654.80	-1782.45	  398.55
     63.4700	  603.00	  631.22	-1794.86	  398.59
     63.5700	  603.00	  617.24	-1780.88	  398.63
     63.6700	  686.00	  610.30	-1690.95	  398.68
     63.7700	  667.00	  608.99	-1708.64	  398.72
     63.8700	  634.00	  613.00	-1745.64	  398.77
     63.9700	  601.00	  622.96	-1788.61	  398.81
     64.0700	  644.00	  639.99	-1762.63	  398.86
     64.1700	  696.00	  665.59	-1736.23	  398.90
     64.2700	  710.00	  701.00	-1757.65	  398.95
     64.3700	  796.00	  746.62	-1717.26	  399.00
     64.4700	  835.00	  801.34	-1732.98	  399.04
     64.5700	  865.00	  861.98	-1763.62	  399.09
     64.6700	  988.00	  922.71	-1701.35	  399.14
     64.7700	 1001.00	  975.07	-1740.71	  399.19
     64.8700	 1038.00	 1009.77	-1738.41	  399.24
     64.9700	 1045.00	 1019.74	-1741.38	  399.29
     65.0700	 1051.00	 1004.13	-1719.77	  399.34
     65.1700	  969.00	  967.64	-1765.28	  399.39
     65.2700	  941.00	  918.35	-1744.00	  399.44
     65.3700	  890.00	  864.79	-1741.44	  399.49
     65.4700	  811.00	  813.14	-1768.78	  399.54
     65.5700	  750.00	  768.07	-1784.71	  399.59
     65.6700	  720.00	  730.20	-1776.84	  399.64
     65.7700	  651.00	  698.99	-1814.63	  399.69
     65.8700	  671.00	  673.42	-1769.07	  399.74
     65.9700	  660.00	  652.75	-1759.40	  399.79
     66.0700	  604.00	  636.59	-1799.24	  399.84
     66.1700	  615.00	  624.25	-1775.90	  399.90
     66.2700	  553.00	  615.17	-1828.82	  399.95
     66.3700	  665.00	  609.06	-1710.70	  400.00
     66.4700	  598.00	  605.58	-1774.23	  400.05
     66.5700	  609.00	  604.50	-1762.15	  400.10
     66.6700	  563.00	  605.68	-1809.33	  400.15
     66.7700	  634.00	  609.16	-1741.80	  400.21
     66.8700	  601.00	  615.31	-1780.96	  400.26
     66.9700	  623.00	  624.72	-1768.37	  400.31
     67.0700	  637.00	  638.89	-1768.53	  400.36
     67.1700	  673.00	  660.16	-1753.80	  400.41
     67.2700	  703.00	  692.07	-1755.71	  400.47
     67.3700	  691.00	  739.48	-1815.12	  400.52
     67.4700	  800.00	  808.38	-1775.03	  400.57
     67.5700	  841.00	  905.27	-1830.91	  400.62
     67.6700	 1062.00	 1035.86	-1740.50	  400.67
     67.7700	 1226.00	 1203.21	-1743.86	  400.72
     67.8700	 1413.00	 1406.06	-1759.71	  400.78
     67.9700	 1578.00	 1636.48	-1825.12	  400.83
     68.0700	 1903.00	 1878.39	-1742.04	  400.88
     68.1700	 2113.00	 2106.06	-1759.71	  400.93
     68.2700	 2265.00	 2284.78	-1786.42	  400.98
     68.3700	 2374.00	 2377.71	-1770.35	  401.03
     68.4700	 2364.00	 2361.42	-1764.07	  401.08
     68.5700	 2233.00	 2240.22	-1773.87	  401.13
     68.6700	 2022.00	 2043.45	-1788.09	  401.18
     68.7700	 1841.00	 1808.67	-1734.32	  401.23
     68.8700	 1526.00	 1568.25	-1808.90	  401.27
     68.9700	 1368.00	 1345.07	-1743.71	  401.32
     69.0700	 1101.00	 1152.57	-1818.22	  401.37
     69.1700	  947.00	  996.56	-1816.21	  401.42
     69.2700	  878.00	  876.87	-1765.51	  401.46
     69.3700	  815.00	  789.31	-1740.95	  401.51
     69.4700	  744.00	  727.82	-1750.47	  401.56
     69.5700	  679.00	  685.93	-1773.58	  401.60
     69.6700	  681.00	  657.93	-1743.57	  401.65
     69.7700	  643.00	  639.28	-1762.93	  401.69
     69.8700	  618.00	  626.79	-1775.43	  401.74
     69.9700	  651.00	  618.24	-1733.88	  401.78
     70.0700	  619.00	  612.33	-1759.98	  401.82
     70.1700	  585.00	  608.11	-1789.76	  401.87
     70.2700	  632.00	  605.48	-1740.13	  401.91
     70.3700	  614.00	  604.05	-1756.70	  401.95
     70.4700	  605.00	  604.72	-1766.37	  401.99
     70.5700	  633.00	  605.60	-1739.24	  402.03
     70.6700	  679.00	  607.85	-1695.49	  402.07
     70.7700	  636.00	  611.85	-1742.49	  402.11
     70.8700	  637.00	  618.30	-1747.94	  402.15
     70.9700	  610.00	  628.31	-1784.95	  402.19
     71.0700	  601.00	  643.59	-1809.24	  402.23
     71.1700	  672.00	  666.57	-1761.21	  402.26
     71.2700	  707.00	  700.40	-1760.04	  402.30
     71.3700	  708.00	  748.89	-1807.54	  402.33
     71.4700	  815.00	  816.04	-1767.69	  402.37
     71.5700	  871.00	  905.39	-1801.04	  402.40
     71.6700	 1009.00	 1019.01	-1776.66	  402.43
     71.7700	 1112.00	 1156.40	-1811.05	  402.47
     71.8700	 1296.00	 1313.51	-1784.16	  402.50
     71.9700	 1421.00	 1481.64	-1827.28	  402.53
     72.0700	 1540.00	 1646.88	-1873.52	  402.56
     72.1700	 1786.00	 1789.80	-1770.44	  402.59
     72.2700	 1818.00	 1887.51	-1836.15	  402.61
     72.3700	 1888.00	 1920.12	-1798.76	  402.64
     72.4700	 1870.00	 1880.07	-1776.71	  402.67
     72.5700	 1766.00	 1776.62	-1777.27	  402.69
     72.6700	 1664.00	 1630.48	-1733.12	  402.71
     72.7700	 1464.00	 1464.37	-1767.01	  402.74
     72.8700	 1291.00	 1297.04	-1772.68	  402.76
     72.9700	 1109.00	 1141.79	-1799.43	  402.78
     73.0700	 1100.00	 1006.54	-1673.19	  402.80
     73.1700	  893.00	  894.87	-1768.51	  402.82
     73.2700	  828.00	  806.84	-1745.49	  402.84
     73.3700	  749.00	  740.19	-1757.84	  402.86
     73.4700	  741.00	  691.42	-1717.06	  402.87
     73.5700	  735.00	  656.62	-1688.26	  402.89
     73.6700	  663.00	  632.16	-1735.81	  402.90
     73.7700	  634.00	  615.06	-1747.70	  402.91
     73.8700	  643.00	  603.01	-1726.65	  402.93
     73.9700	  653.00	  594.41	-1708.05	  402.94
     74.0700	  644.00	  588.19	-1710.84	  402.95
     74.1700	  639.00	  583.16	-1710.80	  402.95
     74.2700	  591.00	  579.93	-1755.57	  402.96
     74.3700	  586.00	  577.68	-1758.32	  402.97
     74.4700	  594.00	  576.20	-1748.84	  402.97
     74.5700	  652.00	  575.29	-1689.93	  402.98
     74.6700	  600.00	  574.75	-1741.40	  402.98
     74.7700	  627.00	  574.38	-1714.02	  402.98
     74.8700	  654.00	  573.94	-1686.58	  402.98
     74.9700	  609.00	  573.23	-1730.88	  402.98
     75.0700	  708.00	  572.16	-1630.80	  402.97
     75.1700	  660.00	  570.79	-1677.43	  402.97
     75.2700	  661.00	  569.31	-1674.95	  402.97
     75.3700	  649.00	  568.02	-1685.66	  402.96
     75.4700	  685.00	  567.22	-1648.87	  402.95
     75.5700	  648.00	  567.28	-1685.93	  402.94
     75.6700	  610.00	  568.58	-1725.22	  402.93
     75.7700	  663.00	  571.53	-1675.18	  402.92
     75.8700	  631.00	  576.60	-1712.24	  402.91
     75.9700	  583.00	  584.21	-1767.85	  402.89
     76.0700	  612.00	  594.74	-1749.39	  402.87
     76.1700	  608.00	  608.34	-1766.98	  402.86
     76.2700	  657.00	  625.06	-1734.70	  402.84
     76.3700	  658.00	  644.43	-1753.07	  402.82
     76.4700	  671.00	  665.57	-1761.21	  402.79
     76.5700	  694.00	  687.10	-1759.74	  402.77
     76.6700	  740.00	  707.06	-1733.70	  402.75
     76.7700	  813.00	  722.92	-1676.56	  402.72
     76.8700	  672.00	  732.35	-1826.99	  402.69
     76.9700	  793.00	  733.42	-1707.06	  402.66
     77.0700	  710.00	  725.84	-1782.49	  402.63
     77.1700	  659.00	  711.05	-1818.70	  402.60
     77.2700	  681.00	  691.45	-1777.10	  402.56
     77.3700	  641.00	  669.55	-1795.19	  402.53
     77.4700	  650.00	  647.45	-1764.09	  402.49
     77.5700	  655.00	  626.69	-1738.34	  402.45
     77.6700	  596.00	  608.27	-1778.92	  402.41
     77.7700	  565.00	  592.70	-1794.35	  402.37
     77.8700	  582.00	  580.05	-1764.69	  402.32
     77.9700	  572.00	  570.24	-1764.89	  402.28
     78.0700	  535.00	  562.87	-1794.52	  402.23
     78.1700	  547.00	  557.49	-1777.13	  402.18
     78.2700	  534.00	  553.65	-1786.29	  402.13
     78.3700	  544.00	  550.72	-1773.36	  402.08
     78.4700	  550.00	  548.82	-1765.47	  402.02
     78.5700	  519.00	  547.49	-1795.13	  401.97
     78.6700	  519.00	  546.55	-1794.19	  401.91
     78.7700	  566.00	  545.87	-1746.52	  401.85
     78.8700	  551.00	  545.40	-1761.04	  401.79
     78.9700	  526.00	  545.09	-1785.73	  401.73
     79.0700	  499.00	  544.91	-1812.55	  401.66
     79.1700	  523.00	  544.87	-1788.51	  401.60
     79.2700	  525.00	  544.97	-1786.61	  401.53
     79.3700	  529.00	  545.23	-1782.87	  401.46
     79.4700	  551.00	  545.67	-1761.32	  401.39
     79.5700	  548.00	  546.33	-1764.98	  401.31
     79.6700	  569.00	  547.25	-1744.90	  401.24
     79.7700	  568.00	  548.48	-1747.13	  401.16
     79.8700	  560.00	  550.09	-1756.74	  401.08
     79.9700	  548.00	  552.16	-1770.80	  401.00
     80.0700	  524.00	  554.79	-1797.43	  400.92
     80.1700	  545.00	  558.08	-1779.73	  400.83
     80.2700	  582.00	  562.18	-1746.82	  400.74
     80.3700	  584.00	  567.20	-1749.85	  400.65
     80.4700	  603.00	  573.28	-1736.93	  400.56
     80.5700	  567.00	  580.56	-1780.20	  400.47
     80.6700	  598.00	  589.15	-1757.80	  400.38
     80.7700	  632.00	  599.13	-1733.78	  400.28
     80.8700	  596.00	  610.47	-1781.11	  400.18
     80.9700	  654.00	  622.74	-1735.39	  400.08
     81.0700	  641.00	  635.96	-1761.61	  399.98
     81.1700	  650.00	  649.30	-1765.94	  399.88
     81.2700	  710.00	  662.02	-1718.66	  399.77
     81.3700	  724.00	  673.43	-1716.07	  399.66
     81.4700	  735.00	  683.04	-1714.69	  399.55
     81.5700	  782.00	  690.62	-1675.26	  399.44
     81.6700	  773.00	  696.05	-1689.69	  399.32
     81.7700	  699.00	  699.30	-1766.94	  399.21
     81.8700	  798.00	  700.31	-1668.96	  399.09
     81.9700	  761.00	  698.99	-1704.63	  398.97
     82.0700	  732.00	  695.16	-1729.81	  398.85
     82.1700	  744.00	  688.81	-1711.46	  398.72
     82.2700	  671.00	  680.22	-1775.86	  398.60
     82.3700	  669.00	  669.93	-1767.57	  398.47
     82.4700	  684.00	  658.58	-1741.23	  398.34
     82.5700	  665.00	  646.71	-1748.36	  398.20
     82.6700	  660.00	  634.69	-1741.34	  398.07
     82.7700	  623.00	  622.84	-1766.48	  397.93
     82.8700	  597.00	  611.50	-1781.15	  397.79
     82.9700	  553.00	  601.05	-1814.70	  397.65
     83.0700	  569.00	  591.85	-1789.49	  397.51
     83.1700	  569.00	  584.16	-1781.80	  397.36
     83.2700	  520.00	  578.15	-1824.79	  397.21
     83.3700	  570.00	  573.89	-1770.53	  397.06
     83.4700	  565.00	  571.37	-1773.01	  396.91
     83.5700	  561.00	  570.50	-1776.15	  396.76
     83.6700	  567.00	  571.12	-1770.77	  396.60
     83.7700	  578.00	  572.99	-1761.64	  396.44
     83.8700	  549.00	  575.80	-1793.45	  396.28
     83.9700	  573.00	  579.17	-1772.81	  396.12
     84.0700	  571.00	  582.63	-1778.28	  395.96
     84.1700	  582.00	  585.69	-1770.33	  395.79
     84.2700	  573.00	  587.73	-1781.38	  395.62
     84.3700	  534.00	  588.48	-1821.12	  395.45
     84.4700	  593.00	  587.57	-1761.21	  395.27
     84.5700	  575.00	  585.12	-1776.77	  395.10
     84.6700	  548.00	  581.40	-1800.04	  394.92
     84.7700	  535.00	  576.81	-1808.46	  394.74
     84.8700	  589.00	  571.80	-1749.44	  394.56
     84.9700	  586.00	  566.73	-1747.37	  394.37
     85.0700	  553.00	  561.90	-1775.55	  394.19
     85.1700	  524.00	  557.53	-1800.17	  394.00
     85.2700	  582.00	  553.73	-1738.37	  393.81
     85.3700	  536.00	  550.57	-1781.22	  393.61
     85.4700	  516.00	  548.07	-1798.71	  393.42
     85.5700	  532.00	  546.17	-1780.82	  393.22
     85.6700	  578.00	  544.82	-1733.47	  393.02
     85.7700	  554.00	  543.98	-1756.62	  392.82
     85.8700	  595.00	  543.57	-1715.21	  392.61
     85.9700	  524.00	  543.56	-1786.20	  392.40
     86.0700	  511.00	  543.93	-1799.58	  392.19
     86.1700	  549.00	  544.71	-1762.36	  391.98
     86.2700	  590.00	  545.95	-1722.59	  391.77
     86.3700	  550.00	  547.72	-1764.37	  391.55
     86.4700	  565.00	  550.16	-1751.80	  391.34
     86.5700	  523.00	  553.40	-1797.04	  391.11
     86.6700	  570.00	  557.59	-1754.23	  390.89
     86.7700	  542.00	  562.89	-1787.53	  390.67
     86.8700	  557.00	  569.43	-1779.08	  390.44
     86.9700	  565.00	  577.30	-1778.94	  390.21
     87.0700	  580.00	  586.50	-1773.14	  389.98
     87.1700	  617.00	  596.92	-1746.56	  389.74
     87.2700	  562.00	  608.32	-1812.96	  389.51
     87.3700	  604.00	  620.29	-1782.94	  389.27
     87.4700	  624.00	  632.27	-1774.92	  389.03
     87.5700	  601.00	  643.50	-1809.14	  388.79
     87.6700	  640.00	  653.08	-1779.72	  388.54
     87.7700	  658.00	  660.07	-1768.71	  388.29
     87.8700	  633.00	  663.66	-1797.31	  388.04
     87.9700	  657.00	  663.44	-1773.08	  387.79
     88.0700	  659.00	  659.53	-1767.17	  387.54
     88.1700	  667.00	  652.56	-1752.20	  387.28
     88.2700	  658.00	  643.49	-1752.13	  387.02
     88.3700	  633.00	  633.33	-1766.98	  386.76
     88.4700	  621.00	  623.06	-1768.71	  386.50
     88.5700	  593.00	  613.48	-1787.12	  386.23
     88.6700	  632.00	  605.22	-1739.86	  385.96
     88.7700	  560.00	  598.75	-1805.39	  385.69
     88.8700	  635.00	  593.91	-1725.55	  385.42
     88.9700	  623.00	  591.64	-1735.28	  385.15
     89.0700	  587.00	  591.43	-1771.07	  384.87
     89.1700	  586.00	  593.05	-1773.69	  384.59
     89.2700	  563.00	  596.12	-1799.77	  384.31
     89.3700	  590.00	  600.16	-1776.81	  384.03
     89.4700	  599.00	  604.59	-1772.23	  383.74
     89.5700	  626.00	  608.75	-1749.40	  383.45
     89.6700	  574.00	  611.99	-1804.63	  383.16
     89.7700	  605.00	  613.70	-1775.34	  382.87
     89.8700	  605.00	  613.47	-1775.11	  382.58
     89.9700	  590.00	  611.19	-1787.84	  382.28
     90.0700	  599.00	  607.06	-1774.70	  381.98
     90.1700	  604.00	  601.47	-1764.11	  381.68
     90.2700	  591.00	  594.92	-1770.57	  381.38
     90.3700	  541.00	  587.92	-1813.57	  381.07
     90.4700	  541.00	  580.89	-1806.54	  380.76
     90.5700	  506.00	  574.17	-1834.82	  380.46
     90.6700	  501.00	  568.01	-1833.66	  380.14
     90.7700	  539.00	  562.59	-1790.23	  379.83
     90.8700	  558.00	  557.98	-1766.62	  379.51
     90.9700	  583.00	  554.22	-1737.86	  379.19
     91.0700	  539.00	  551.28	-1778.92	  378.87
     91.1700	  547.00	  549.11	-1768.75	  378.55
     91.2700	  485.00	  547.63	-1829.27	  378.23
     91.3700	  508.00	  546.78	-1805.43	  377.90
     91.4700	  487.00	  546.51	-1826.15	  377.57
     91.5700	  553.00	  546.78	-1760.43	  377.24
     91.6700	  466.00	  547.60	-1848.25	  376.91
     91.7700	  530.00	  549.01	-1785.66	  376.57
     91.8700	  532.00	  551.09	-1785.73	  376.23
     91.9700	  514.00	  553.95	-1806.59	  375.89
     92.0700	  554.00	  557.73	-1770.38	  375.55
     92.1700	  536.00	  562.61	-1793.26	  375.21
     92.2700	  563.00	  568.77	-1772.41	  374.86
     92.3700	  552.00	  576.36	-1791.01	  374.52
     92.4700	  540.00	  585.55	-1812.20	  374.17
     92.5700	  602.00	  596.43	-1761.08	  373.81
     92.6700	  532.00	  609.03	-1843.67	  373.46
     92.7700	  634.00	  623.29	-1755.94	  373.11
     92.8700	  598.00	  639.07	-1807.72	  372.75
     92.9700	  616.00	  656.09	-1806.74	  372.39
     93.0700	  698.00	  673.96	-1742.60	  372.03
     93.1700	  669.00	  692.15	-1789.80	  371.66
     93.2700	  708.00	  710.04	-1768.69	  371.30
     93.3700	  731.00	  726.96	-1762.61	  370.93
     93.4700	  718.00	  742.30	-1790.95	  370.56
     93.5700	  774.00	  755.70	-1748.35	  370.19
     93.6700	  792.00	  767.18	-1741.82	  369.82
     93.7700	  752.00	  777.11	-1791.76	  369.44
     93.8700	  786.00	  786.13	-1766.77	  369.06
     93.9700	  806.00	  794.89	-1755.53	  368.69
     94.0700	  812.00	  803.92	-1758.57	  368.30
     94.1700	  850.00	  813.26	-1729.90	  367.92
     94.2700	  830.00	  823.65	-1760.30	  367.54
     94.3700	  880.00	  834.84	-1721.48	  367.15
     94.4700	  851.00	  846.80	-1762.45	  366.76
     94.5700	  841.00	  859.51	-1785.16	  366.37
     94.6700	  917.00	  872.84	-1722.48	  365.98
     94.7700	  868.00	  886.43	-1785.08	  365.59
     94.8700	  901.00	  899.64	-1765.28	  365.19
     94.9700	  949.00	  911.44	-1729.08	  364.80
     95.0700	  940.00	  920.51	-1747.16	  364.40
     95.1700	  960.00	  925.43	-1732.08	  364.00
     95.2700	  916.00	  924.92	-1775.56	  363.60
     95.3700	  930.00	  918.18	-1754.83	  363.19
     95.4700	  941.00	  905.22	-1730.87	  362.79
     95.5700	  885.00	  886.84	-1768.48	  362.38
     95.6700	  829.00	  864.42	-1802.07	  361.97
     95.7700	  834.00	  839.70	-1772.35	  361.56
     95.8700	  830.00	  814.47	-1751.11	  361.15
     95.9700	  766.00	  790.43	-1791.08	  360.74
     96.0700	  766.00	  769.19	-1769.84	  360.32
     96.1700	  733.00	  752.18	-1785.82	  359.91
     96.2700	  720.00	  740.67	-1787.32	  359.49
     96.3700	  703.00	  735.79	-1799.44	  359.07
     96.4700	  711.00	  738.51	-1794.15	  358.65
     96.5700	  768.00	  749.64	-1748.28	  358.23
     96.6700	  716.00	  769.80	-1820.44	  357.80
     96.7700	  828.00	  799.39	-1738.04	  357.38
     96.8700	  833.00	  838.55	-1772.20	  356.95
     96.9700	  897.00	  887.08	-1756.73	  356.52
     97.0700	  900.00	  944.41	-1811.06	  356.09
     97.1700	  967.00	 1009.51	-1809.15	  355.66
     97.2700	 1023.00	 1080.80	-1824.45	  355.23
     97.3700	 1165.00	 1156.17	-1757.81	  354.80
     97.4700	 1265.00	 1232.87	-1734.52	  354.36
     97.5700	 1288.00	 1307.61	-1786.25	  353.92
     97.6700	 1373.00	 1376.53	-1770.17	  353.49
     97.7700	 1427.00	 1435.40	-1775.05	  353.05
     97.8700	 1433.00	 1480.08	-1813.72	  352.61
     97.9700	 1496.00	 1507.09	-1777.74	  352.17
     98.0700	 1491.00	 1514.37	-1790.01	  351.73
     98.1700	 1404.00	 1501.71	-1864.36	  351.28
     98.2700	 1383.00	 1470.82	-1854.46	  350.84
     98.3700	 1422.00	 1424.82	-1769.47	  350.39
     98.4700	 1346.00	 1367.65	-1788.29	  349.95
     98.5700	 1302.00	 1303.41	-1768.06	  349.50
     98.6700	 1171.00	 1236.05	-1831.69	  349.05
     98.7700	 1166.00	 1169.13	-1769.77	  348.60
     98.8700	 1119.00	 1105.73	-1753.37	  348.15
     98.9700	 1027.00	 1048.44	-1788.09	  347.70
     99.0700	  980.00	  999.36	-1786.00	  347.25
     99.1700	  945.00	  960.12	-1781.77	  346.79
     99.2700	  905.00	  932.03	-1793.67	  346.34
     99.3700	  886.00	  916.02	-1796.67	  345.88
     99.4700	  919.00	  912.75	-1760.39	  345.43
     99.5700	  940.00	  922.55	-1749.19	  344.97
     99.6700	  981.00	  945.50	-1731.14	  344.51
     99.7700	  930.00	  981.41	-1818.05	  344.05
     99.8700	 1101.00	 1029.84	-1695.48	  343.59
     99.9700	 1191.00	 1090.01	-1665.65	  343.13
    100.0700	 1203.00	 1160.84	-1724.48	  342.67
    100.1700	 1273.00	 1240.83	-1734.47	  342.21
    100.2700	 1349.00	 1328.02	-1745.67	  341.75
    100.3700	 1374.00	 1420.01	-1812.65	  341.29
    100.4700	 1561.00	 1513.78	-1719.42	  340.82
    100.5700	 1555.00	 1606.10	-1817.75	  340.36
    100.6700	 1736.00	 1693.40	-1724.04	  339.90
    100.7700	 1729.00	 1772.33	-1809.98	  339.43
    100.8700	 1906.00	 1840.17	-1700.81	  338.97
    100.9700	 1880.00	 1894.96	-1781.60	  338.50
    101.0700	 1937.00	 1935.55	-1765.19	  338.04
    101.1700	 2049.00	 1961.26	-1678.91	  337.57
    101.2700	 1976.00	 1971.62	-1762.27	  337.10
    101.3700	 2028.00	 1966.24	-1704.89	  336.64
    101.4700	 1852.00	 1945.00	-1859.64	  336.17
    101.5700	 1892.00	 1908.40	-1783.05	  335.70
    101.6700	 1816.00	 1858.01	-1808.65	  335.23
    101.7700	 1882.00	 1796.48	-1681.12	  334.76
    101.8700	 1707.00	 1727.31	-1786.95	  334.30
    101.9700	 1654.00	 1654.40	-1767.04	  333.83
    102.0700	 1513.00	 1581.42	-1835.06	  333.36
    102.1700	 1479.00	 1511.55	-1799.19	  332.89
    102.2700	 1500.00	 1447.22	-1713.86	  332.42
    102.3700	 1402.00	 1389.98	-1754.62	  331.95
    102.4700	 1324.00	 1340.61	-1783.25	  331.49
    102.5700	 1283.00	 1299.08	-1782.73	  331.02
    102.6700	 1324.00	 1264.71	-1707.36	  330.55
    102.7700	 1210.00	 1236.20	-1792.84	  330.08
    102.8700	 1252.00	 1211.70	-1726.35	  329.61
    102.9700	 1145.00	 1189.15	-1810.79	  329.15
    103.0700	 1178.00	 1166.37	-1755.02	  328.68
    103.1700	 1123.00	 1141.52	-1785.17	  328.21
    103.2700	 1078.00	 1113.28	-1801.92	  327.74
    103.3700	 1091.00	 1081.05	-1756.69	  327.28
    103.4700	  994.00	 1044.96	-1817.60	  326.81
    103.5700	  983.00	 1005.67	-1789.32	  326.35
    103.6700	  903.00	  964.19	-1827.83	  325.88
    103.7700	  904.00	  921.61	-1784.26	  325.42
    103.8700	  888.00	  879.04	-1757.68	  324.95
    103.9700	  861.00	  837.46	-1743.11	  324.49
    104.0700	  818.00	  797.73	-1746.38	  324.02
    104.1700	  772.00	  760.54	-1755.18	  323.56
    104.2700	  810.00	  726.37	-1683.02	  323.10
    104.3700	  712.00	  695.60	-1750.24	  322.64
    104.4700	  686.00	  668.38	-1749.03	  322.18
    104.5700	  646.00	  644.76	-1765.40	  321.72
    104.6700	  633.00	  624.63	-1758.27	  321.26
    104.7700	  611.00	  607.78	-1763.43	  320.80
    104.8700	  609.00	  593.96	-1751.61	  320.34
    104.9700	  594.00	  582.86	-1755.50	  319.89
    105.0700	  594.00	  574.15	-1746.79	  319.43
    105.1700	  616.00	  567.50	-1718.14	  318.98
    105.2700	  564.00	  562.62	-1765.27	  318.53
    105.3700	  599.00	  559.25	-1726.90	  318.07
    105.4700	  604.00	  557.16	-1719.80	  317.62
    105.5700	  540.00	  556.15	-1782.80	  317.17
    105.6700	  577.00	  556.10	-1745.75	  316.73
    105.7700	  567.00	  556.89	-1756.53	  316.28
    105.8700	  606.00	  558.45	-1719.09	  315.83
    105.9700	  605.00	  560.73	-1722.37	  315.39
    106.0700	  549.00	  563.70	-1781.35	  314.95
    106.1700	  553.00	  567.40	-1781.05	  314.51
    106.2700	  590.00	  571.83	-1748.48	  314.07
    106.3700	  604.00	  577.04	-1739.68	  313.63
    106.4700	  566.00	  583.05	-1783.70	  313.19
    106.5700	  567.00	  589.92	-1789.56	  312.76
    106.6700	  619.00	  597.63	-1745.28	  312.32
    106.7700	  578.00	  606.17	-1794.81	  311.89
    106.8700	  622.00	  615.46	-1760.10	  311.46
    106.9700	  650.00	  625.36	-1742.01	  311.03
    107.0700	  626.00	  635.70	-1776.35	  310.61
    107.1700	  644.00	  646.24	-1768.88	  310.18
    107.2700	  641.00	  656.67	-1782.32	  309.76
    107.3700	  631.00	  666.68	-1802.32	  309.34
    107.4700	  697.00	  675.88	-1745.52	  308.92
    107.5700	  701.00	  683.91	-1749.55	  308.50
    107.6700	  720.00	  690.43	-1737.07	  308.09
    107.7700	  689.00	  695.22	-1772.87	  307.68
    107.8700	  696.00	  698.19	-1768.83	  307.27
    107.9700	  684.00	  699.39	-1782.04	  306.86
    108.0700	  696.00	  699.07	-1769.71	  306.46
    108.1700	  639.00	  697.56	-1825.21	  306.06
    108.2700	  699.00	  695.32	-1762.96	  305.66
    108.3700	  729.00	  692.76	-1730.40	  305.26
    108.4700	  671.00	  690.27	-1785.92	  304.86
    108.5700	  680.00	  688.18	-1774.83	  304.47
    108.6700	  736.00	  686.73	-1717.38	  304.08
    108.7700	  697.00	  686.04	-1755.69	  303.69
    108.8700	  707.00	  686.16	-1745.81	  303.31
    108.9700	  744.00	  687.01	-1709.66	  302.93
    109.0700	  710.00	  688.43	-1745.07	  302.55
    109.1700	  704.00	  690.15	-1752.79	  302.17
    109.2700	  712.00	  691.84	-1746.48	  301.80
    109.3700	  746.00	  693.11	-1713.76	  301.43
    109.4700	  702.00	  693.57	-1758.21	  301.07
    109.5700	  663.00	  692.83	-1796.47	  300.70
    109.6700	  725.00	  690.62	-1732.26	  300.34
    109.7700	  640.00	  686.77	-1813.41	  299.99
    109.8700	  707.00	  681.28	-1740.93	  299.63
    109.9700	  742.00	  674.29	-1698.93	  299.28
    110.0700	  718.00	  666.01	-1714.66	  298.93
    110.1700	  679.00	  656.77	-1744.41	  298.59
    110.2700	  662.00	  646.87	-1751.52	  298.25
    110.3700	  633.00	  636.66	-1770.31	  297.92
    110.4700	  636.00	  626.44	-1757.08	  297.58
    110.5700	  672.00	  616.47	-1711.11	  297.25
    110.6700	  626.00	  606.98	-1747.62	  296.93
    110.7700	  582.00	  598.17	-1782.82	  296.61
    110.8700	  634.00	  590.19	-1722.84	  296.29
    110.9700	  621.00	  583.16	-1728.80	  295.98
    111.0700	  612.00	  577.12	-1731.76	  295.67
    111.1700	  577.00	  572.11	-1761.76	  295.36
    111.2700	  552.00	  568.14	-1782.78	  295.06
    111.3700	  590.00	  565.16	-1741.81	  294.76
    111.4700	  563.00	  563.13	-1766.77	  294.47
    111.5700	  588.00	  561.96	-1740.61	  294.18
    111.6700	  544.00	  561.58	-1784.23	  293.90
    111.7700	  612.00	  561.89	-1716.54	  293.62
    111.8700	  550.00	  562.80	-1779.44	  293.35
    111.9700	  537.00	  564.21	-1793.85	  293.07
    112.0700	  591.00	  566.02	-1741.67	  292.81
    112.1700	  537.00	  568.17	-1797.81	  292.55
    112.2700	  495.00	  570.56	-1842.20	  292.29
    112.3700	  546.00	  573.13	-1793.78	  292.04
    112.4700	  568.00	  575.86	-1774.50	  291.79
    112.5700	  573.00	  578.69	-1772.34	  291.55
    112.6700	  590.00	  581.64	-1758.29	  291.31
    112.7700	  575.00	  584.73	-1776.37	  291.08
    112.8700	  588.00	  587.98	-1766.62	  290.86
    112.9700	  547.00	  591.46	-1811.11	  290.63
    113.0700	  552.00	  595.24	-1809.89	  290.42
    113.1700	  569.00	  599.42	-1797.06	  290.21
    113.2700	  653.00	  604.09	-1717.73	  290.00
    113.3700	  586.00	  609.39	-1790.04	  289.80
    113.4700	  583.00	  615.48	-1799.12	  289.61
    113.5700	  596.00	  622.54	-1793.18	  289.42
    113.6700	  646.00	  630.82	-1751.46	  289.24
    113.7700	  653.00	  640.60	-1754.24	  289.06
    113.8700	  664.00	  652.26	-1754.90	  288.89
    113.9700	  636.00	  666.24	-1796.89	  288.72
    114.0700	  688.00	  683.11	-1761.76	  288.56
    114.1700	  729.00	  703.56	-1741.20	  288.41
    114.2700	  712.00	  728.41	-1783.05	  288.26
    114.3700	  764.00	  758.65	-1761.29	  288.12
    114.4700	  796.00	  795.46	-1766.10	  287.99
    114.5700	  850.00	  840.17	-1756.82	  287.86
    114.6700	  923.00	  894.35	-1737.99	  287.73
    114.7700	  973.00	  959.72	-1753.37	  287.62
    114.8700	 1018.00	 1038.18	-1786.83	  287.51
    114.9700	 1170.00	 1131.75	-1728.40	  287.41
    115.0700	 1223.00	 1242.51	-1786.15	  287.31
    115.1700	 1364.00	 1372.59	-1775.23	  287.22
    115.2700	 1534.00	 1524.04	-1756.68	  287.14
    115.3700	 1736.00	 1698.72	-1729.36	  287.06
    115.4700	 1936.00	 1898.18	-1728.83	  287.00
    115.5700	 2202.00	 2123.54	-1688.19	  286.94
    115.6700	 2447.00	 2375.42	-1695.06	  286.88
    115.7700	 2864.00	 2653.75	-1556.40	  286.83
    115.8700	 2959.00	 2957.61	-1765.25	  286.79
    115.9700	 3399.00	 3285.17	-1652.81	  286.76
    116.0700	 3589.00	 3633.54	-1811.19	  286.74
    116.1700	 4018.00	 3998.95	-1747.60	  286.72
    116.2700	 4396.00	 4376.46	-1747.11	  286.71
    116.3700	 4800.00	 4759.95	-1726.59	  286.71
    116.4700	 5166.00	 5142.24	-1742.89	  286.72
    116.5700	 5497.00	 5515.12	-1784.76	  286.73
    116.6700	 5788.00	 5869.53	-1848.17	  286.75
    116.7700	 6121.00	 6195.72	-1841.36	  286.78
    116.8700	 6489.00	 6483.45	-1761.10	  286.82
    116.9700	 6542.00	 6722.68	-1947.33	  286.86
    117.0700	 6789.00	 6904.19	-1881.83	  286.92
    117.1700	 6935.00	 7020.49	-1852.13	  286.98
    117.2700	 7046.00	 7066.58	-1787.22	  287.05
    117.3700	 7009.00	 7040.58	-1798.22	  287.13
    117.4700	 6988.00	 6944.03	-1722.67	  287.22
    117.5700	 6817.00	 6781.69	-1731.33	  287.32
    117.6700	 6417.00	 6560.83	-1910.47	  287.42
    117.7700	 6199.00	 6290.45	-1858.09	  287.54
    117.8700	 5817.00	 5980.51	-1930.15	  287.66
    117.9700	 5408.00	 5641.12	-1999.76	  287.79
    118.0700	 5291.00	 5282.08	-1757.73	  287.93
    118.1700	 4911.00	 4912.40	-1768.04	  288.09
    118.2700	 4657.00	 4540.12	-1649.76	  288.25
    118.3700	 4336.00	 4172.38	-1603.03	  288.42
    118.4700	 3923.00	 3815.17	-1658.82	  288.59
    118.5700	 3541.00	 3473.41	-1699.05	  288.78
    118.6700	 3145.00	 3150.80	-1772.44	  288.98
    118.7700	 2907.00	 2850.04	-1709.68	  289.19
    118.8700	 2597.00	 2572.94	-1742.59	  289.41
    118.9700	 2441.00	 2320.40	-1646.05	  289.63
    119.0700	 2059.00	 2092.60	-1800.25	  289.87
    119.1700	 1958.00	 1889.03	-1697.67	  290.12
    119.2700	 1655.00	 1708.68	-1820.33	  290.38
    119.3700	 1546.00	 1550.25	-1770.89	  290.64
    119.4700	 1447.00	 1412.10	-1731.74	  290.92
    119.5700	 1325.00	 1292.47	-1734.11	  291.21
    119.6700	 1212.00	 1189.47	-1744.11	  291.51
    119.7700	 1094.00	 1101.21	-1773.85	  291.82
    119.8700	 1085.00	 1025.89	-1707.53	  292.14
    119.9700	  995.00	  961.81	-1733.45	  292.47
    120.0700	  935.00	  907.40	-1739.05	  292.82
    120.1700	  870.00	  861.25	-1757.90	  293.17
    120.2700	  857.00	  822.11	-1731.75	  293.53
    120.3700	  745.00	  788.90	-1810.54	  293.91
    120.4700	  798.00	  760.71	-1729.35	  294.30
    120.5700	  740.00	  736.75	-1763.39	  294.69
    120.6700	  698.00	  716.37	-1785.02	  295.10
    120.7700	  685.00	  699.05	-1780.69	  295.53
    120.8700	  662.00	  684.32	-1788.97	  295.96
    120.9700	  651.00	  671.85	-1787.49	  296.40
    121.0700	  609.00	  661.32	-1818.96	  296.86
    121.1700	  653.00	  652.50	-1766.14	  297.33
    121.2700	  635.00	  645.19	-1776.83	  297.81
    121.3700	  656.00	  639.22	-1749.87	  298.30
    121.4700	  595.00	  634.48	-1806.12	  298.81
    121.5700	  620.00	  630.84	-1777.48	  299.33
    121.6700	  553.00	  628.20	-1841.84	  299.86
    121.7700	  607.00	  626.49	-1786.13	  300.40
    121.8700	  592.00	  625.62	-1800.26	  300.96
    121.9700	  584.00	  625.53	-1808.18	  301.52
    122.0700	  619.00	  626.16	-1773.80	  302.11
    122.1700	  690.00	  627.43	-1704.07	  302.70
    122.2700	  626.00	  629.28	-1769.92	  303.31
    122.3700	  664.00	  631.64	-1734.28	  303.93
    122.4700	  629.00	  634.43	-1772.07	  304.56
    122.5700	  629.00	  637.57	-1775.21	  305.21
    122.6700	  658.00	  640.98	-1749.62	  305.87
    122.7700	  599.00	  644.56	-1812.21	  306.54
    122.8700	  619.00	  648.23	-1795.87	  307.23
    122.9700	  672.00	  651.87	-1746.51	  307.93
    123.0700	  680.00	  655.37	-1742.02	  308.65
    123.1700	  663.00	  658.64	-1762.29	  309.38
    123.2700	  701.00	  661.58	-1727.22	  310.12
    123.3700	  715.00	  664.07	-1715.72	  310.88
    123.4700	  656.00	  666.06	-1776.70	  311.65
    123.5700	  672.00	  667.48	-1762.12	  312.44
    123.6700	  647.00	  668.29	-1787.93	  313.24
    123.7700	  649.00	  668.48	-1786.13	  314.06
    123.8700	  654.00	  668.09	-1780.73	  314.89
    123.9700	  649.00	  667.13	-1784.78	  315.74
    124.0700	  689.00	  665.67	-1743.32	  316.60
    124.1700	  643.00	  663.78	-1787.42	  317.48
    124.2700	  656.00	  661.52	-1772.16	  318.37
    124.3700	  665.00	  658.94	-1760.58	  319.27
    124.4700	  676.00	  656.17	-1746.81	  320.20
    124.5700	  676.00	  653.24	-1743.89	  321.13
    124.6700	  627.00	  650.23	-1789.88	  322.09
    124.7700	  610.00	  647.20	-1803.85	  323.06
    124.8700	  642.00	  644.20	-1768.85	  324.04
    124.9700	  596.00	  420.62	-1591.26	  325.05
    125.0700	  633.00	  421.63	-1766.64	  326.06
    125.1700	  630.00	  422.67	-1766.64	  327.10
    125.2700	  583.00	  423.72	-1766.64	  328.15
    125.3700	  654.00	  424.78	-1766.64	  329.21
    125.4700	  569.00	  425.87	-1766.64	  330.30
    125.5700	  619.00	  426.97	-1766.64	  331.40
    125.6700	  571.00	  428.09	-1766.64	  332.52
    125.7700	  624.00	  429.22	-1766.64	  333.65
    125.8700	  575.00	  430.37	-1766.64	  334.80
    125.9700	  586.00	  431.54	-1766.64	  335.97
    126.0700	  600.00	  432.73	-1766.64	  337.16
    126.1700	  598.00	  433.93	-1766.64	  338.36
    126.2700	  607.00	  435.15	-1766.64	  339.58
    126.3700	  582.00	  436.39	-1766.64	  340.82
    126.4700	  613.00	  437.65	-1766.64	  342.08
    126.5700	  576.00	  438.92	-1766.64	  343.35
    126.6700	  598.00	  440.21	-1766.64	  344.64
    126.7700	  574.00	  441.53	-1766.64	  345.96
    126.8700	  573.00	  442.85	-1766.64	  347.29
    126.9700	  583.00	  444.20	-1766.64	  348.63
    127.0700	  586.00	  445.57	-1766.64	  350.00
    127.1700	  605.00	  446.95	-1766.64	  351.38
    127.2700	  541.00	  448.36	-1766.64	  352.79
    127.3700	  537.00	  449.78	-1766.64	  354.21
    127.4700	  583.00	  451.22	-1766.64	  355.65
    127.5700	  573.00	  452.68	-1766.64	  357.11
    127.6700	  572.00	  454.17	-1766.64	  358.60
    127.7700	  589.00	  455.67	-1766.64	  360.10
    127.8700	  573.00	  457.18	-1766.64	  361.62
    127.9700	  657.00	  458.72	-1766.64	  363.15
    128.0700	  648.00	  460.28	-1766.64	  364.71
    128.1700	  670.00	  461.86	-1766.64	  366.29
    128.2700	  709.00	  463.46	-1766.64	  367.89
    128.3700	  670.00	  465.08	-1766.64	  369.51
    128.4700	  671.00	  466.72	-1766.64	  371.15
    128.5700	    0.00	  468.38	-1766.64	  372.81
    128.6700	    0.00	  470.06	-1766.64	  374.49
     12.3592	        	        	        	        	       0	(  0  0  2)	  0  1
     24.9993	        	        	        	        	       0	(  0  0  4)	  0  1
     28.4264	        	        	        	        	       0	(  1  0  0)	  0  1
     29.1275	        	        	        	        	       0	(  1  0  1)	  0  1
     31.1450	        	        	        	        	       0	(  1  0  2)	  0  1
     34.2704	        	        	        	        	       0	(  1  0  3)	  0  1
     37.9597	        	        	        	        	       0	(  0  0  6)	  0  1
     38.2692	        	        	        	        	       0	(  1  0  4)	  0  1
     42.9446	        	        	        	        	       0	(  1  0  5)	  0  1
     48.1572	        	        	        	        	       0	(  1  0  6)	  0  1
     50.4464	        	        	        	        	       0	(  1  1  0)	  0  1
     51.4503	        	        	        	        	       0	(  0  0  8)	  0  1
     52.1801	        	        	        	        	       0	(  1  1  2)	  0  1
     53.8195	        	        	        	        	       0	(  1  0  7)	  0  1
     57.1588	        	        	        	        	       0	(  1  1  4)	  0  1
     58.9794	        	        	        	        	       0	(  2  0  0)	  0  1
     59.3736	        	        	        	        	       0	(  2  0  1)	  0  1
     59.8853	        	        	        	        	       0	(  1  0  8)	  0  1
     60.5466	        	        	        	        	       0	(  2  0  2)	  0  1
     62.4724	        	        	        	        	       0	(  2  0  3)	  0  1
     64.9028	        	        	        	        	       0	(  1  1  6)	  0  1
     65.1139	        	        	        	        	       0	(  2  0  4)	  0  1
     65.7613	        	        	        	        	       0	(  0  0 10)	  0  1
     66.3412	        	        	        	        	       0	(  1  0  9)	  0  1
     68.4305	        	        	        	        	       0	(  2  0  5)	  0  1
     72.3853	        	        	        	        	       0	(  2  0  6)	  0  1
     73.2023	        	        	        	        	       0	(  1  0 10)	  0  1
     75.0091	        	        	        	        	       0	(  1  1  8)	  0  1
     76.9522	        	        	        	        	       0	(  2  0  7)	  0  1
     80.5121	        	        	        	        	       0	(  1  0 11)	  0  1
     81.3326	        	        	        	        	       0	(  2  1  0)	  0  1
     81.3475	        	        	        	        	       0	(  0  0 12)	  0  1
     81.6751	        	        	        	        	       0	(  2  1  1)	  0  1
     82.1215	        	        	        	        	       0	(  2  0  8)	  0  1
     82.7011	        	        	        	        	       0	(  2  1  2)	  0  1
     84.4061	        	        	        	        	       0	(  2  1  3)	  0  1
     86.7853	        	        	        	        	       0	(  2  1  4)	  0  1
     87.3754	        	        	        	        	       0	(  1  1 10)	  0  1
     87.9063	        	        	        	        	       0	(  2  0  9)	  0  1
     88.3486	        	        	        	        	       0	(  1  0 12)	  0  1
     89.8370	        	        	        	        	       0	(  2  1  5)	  0  1
     93.5677	        	        	        	        	       0	(  2  1  6)	  0  1
     94.3507	        	        	        	        	       0	(  2  0 10)	  0  1
     95.3121	        	        	        	        	       0	(  3  0  0)	  0  1
     95.6526	        	        	        	        	       0	(  3  0  1)	  0  1
     96.6756	        	        	        	        	       0	(  3  0  2)	  0  1
     96.8388	        	        	        	        	       0	(  1  0 13)	  0  1
     97.9983	        	        	        	        	       0	(  2  1  7)	  0  1
     98.3855	        	        	        	        	       0	(  3  0  3)	  0  1
     99.0416	        	        	        	        	       0	(  0  0 14)	  0  1
    100.7926	        	        	        	        	       0	(  3  0  4)	  0  1
    101.5439	        	        	        	        	       0	(  2  0 11)	  0  1
    102.3879	        	        	        	        	       0	(  1  1 12)	  0  1
    103.1740	        	        	        	        	       0	(  2  1  8)	  0  1
    103.9171	        	        	        	        	       0	(  3  0  5)	  0  1
    106.1923	        	        	        	        	       0	(  1  0 14)	  0  1
    107.7959	        	        	        	        	       0	(  3  0  6)	  0  1
    109.1798	        	        	        	        	       0	(  2  1  9)	  0  1
    109.6489	        	        	        	        	       0	(  2  0 12)	  0  1
    112.4941	        	        	        	        	       0	(  3  0  7)	  0  1
    116.1696	        	        	        	        	       0	(  2  1 10)	  0  1
    116.7794	        	        	        	        	       0	(  1  0 15)	  0  1
    117.2430	        	        	        	        	       0	(  2  2  0)	  0  1
    118.1260	        	        	        	        	       0	(  3  0  8)	  0  1
    118.7804	        	        	        	        	       0	(  2  2  2)	  0  1
    118.9658	        	        	        	        	       0	(  2  0 13)	  0  1
    120.8209	        	        	        	        	       0	(  0  0 16)	  0  1
    121.4934	        	        	        	        	       0	(  1  1 14)	  0  1
    123.5411	        	        	        	        	       0	(  2  2  4)	  0  1
    124.4310	        	        	        	        	       0	(  2  1 11)	  0  1
    124.8975	        	        	        	        	       0	(  3  0  9)	  0  1
    125.4211	        	        	        	        	       0	(  3  1  0)	  0  1
    125.8387	        	        	        	        	       0	(  3  1  1)	  0  1
    127.1052	        	        	        	        	       0	(  3  1  2)	  0  1
    129.2651	        	        	        	        	       0	(  3  1  3)	  0  1
    129.3605	        	        	        	        	       0	(  1  0 16)	  0  1
    130.1092	        	        	        	        	       0	(  2  0 14)	  0  1
    132.1479	        	        	        	        	       0	(  2  2  6)	  0  1
    132.4073	        	        	        	        	       0	(  3  1  4)	  0  1
    133.2125	        	        	        	        	       0	(  3  0 10)	  0  1
    134.5649	        	        	        	        	       0	(  2  1 12)	  0  1
    136.6983	        	        	        	        	       0	(  3  1  5)	  0  1
    142.4661	        	        	        	        	       0	(  3  1  6)	  0  1
    144.0222	        	        	        	        	       0	(  3  0 11)	  0  1
    144.7073	        	        	        	        	       0	(  2  0 15)	  0  1
    146.0871	        	        	        	        	       0	(  1  0 17)	  0  1
    146.8364	        	        	        	        	       0	(  2  2  8)	  0  1
    148.2135	        	        	        	        	       0	(  2  1 13)	  0  1
    150.4766	        	        	        	        	       0	(  3  1  7)	  0  1
    151.4211	        	        	        	        	       0	(  1  1 16)	  0  1
    156.2944	        	        	        	        	       0	(  0  0 18)	  0  1
    161.0197	        	        	        	        	       0	(  4  0  0)	  0  1
    161.0653	        	        	        	        	       0	(  3  0 12)	  0  1
    162.0984	        	        	        	        	       0	(  4  0  1)	  0  1
    163.6090	        	        	        	        	       0	(  3  1  8)	  0  1
    165.8062	        	        	        	        	       0	(  4  0  2)	  0  1
    178.2484	        	        	        	        	       0	(  4  0  3)	  0  1
