MSG Master    CELL:    5.91901   5.91901  23.27353   90.0000   90.0000  120.0000   SPGR: P 63/m m c             TEMP:   1074.85
  1   1280     2.52000     0.00000    -0.12888     0.00000     0.00000    0
    99     0     2
       0.00000      10.00000
     125.00000     130.00000
 2Theta	Yobs	Ycal	Yobs-Ycal	Backg	Posr	(hkl)	K
      0.7700	    0.00	  547.33	-1760.25	  429.93
      0.8700	    0.00	  548.08	-1760.25	  430.67
      0.9700	   25.00	  548.81	-1760.25	  431.40
      1.0700	   37.00	  549.53	-1760.25	  432.13
      1.1700	   40.00	  550.25	-1760.25	  432.84
      1.2700	   36.00	  550.95	-1760.25	  433.54
      1.3700	   50.00	  551.63	-1760.25	  434.23
      1.4700	   96.00	  552.31	-1760.25	  434.90
      1.5700	  302.00	  552.98	-1760.25	  435.57
      1.6700	  460.00	  553.64	-1760.25	  436.23
      1.7700	  607.00	  554.28	-1760.25	  436.87
      1.8700	  627.00	  554.92	-1760.25	  437.51
      1.9700	  688.00	  555.54	-1760.25	  438.13
      2.0700	  772.00	  556.16	-1760.25	  438.75
      2.1700	  783.00	  556.76	-1760.25	  439.35
      2.2700	  751.00	  557.36	-1760.25	  439.95
      2.3700	  703.00	  557.94	-1760.25	  440.53
      2.4700	  703.00	  558.51	-1760.25	  441.10
      2.5700	  645.00	  559.08	-1760.25	  441.67
      2.6700	  639.00	  559.63	-1760.25	  442.22
      2.7700	  679.00	  560.18	-1760.25	  442.77
      2.8700	  623.00	  560.71	-1760.25	  443.30
      2.9700	  620.00	  561.23	-1760.25	  443.82
      3.0700	  617.00	  561.75	-1760.25	  444.34
      3.1700	  599.00	  562.25	-1760.25	  444.84
      3.2700	  568.00	  562.75	-1760.25	  445.34
      3.3700	  674.00	  563.23	-1760.25	  445.83
      3.4700	  783.00	  563.71	-1760.25	  446.30
      3.5700	  841.00	  564.18	-1760.25	  446.77
      3.6700	  870.00	  564.64	-1760.25	  447.23
      3.7700	  950.00	  565.09	-1760.25	  447.68
      3.8700	  971.00	  565.52	-1760.25	  448.12
      3.9700	 1021.00	  565.96	-1760.25	  448.55
      4.0700	 1052.00	  566.38	-1760.25	  448.97
      4.1700	 1064.00	  566.79	-1760.25	  449.38
      4.2700	 1069.00	  567.19	-1760.25	  449.78
      4.3700	 1051.00	  567.59	-1760.25	  450.18
      4.4700	  976.00	  567.97	-1760.25	  450.57
      4.5700	 1040.00	  568.35	-1760.25	  450.94
      4.6700	 1032.00	  568.72	-1760.25	  451.31
      4.7700	  973.00	  569.08	-1760.25	  451.67
      4.8700	  987.00	  569.43	-1760.25	  452.02
      4.9700	  972.00	  569.78	-1760.25	  452.37
      5.0700	  924.00	  570.11	-1760.25	  452.70
      5.1700	  939.00	  570.44	-1760.25	  453.03
      5.2700	  926.00	  570.76	-1760.25	  453.35
      5.3700	  912.00	  571.07	-1760.25	  453.66
      5.4700	  845.00	  571.37	-1760.25	  453.96
      5.5700	  865.00	  571.67	-1760.25	  454.26
      5.6700	  846.00	  571.95	-1760.25	  454.54
      5.7700	  835.00	  572.23	-1760.25	  454.82
      5.8700	  815.00	  572.50	-1760.25	  455.09
      5.9700	  846.00	  572.77	-1760.25	  455.36
      6.0700	  803.00	  573.02	-1760.25	  455.61
      6.1700	  768.00	  573.27	-1760.25	  455.86
      6.2700	  786.00	  573.51	-1760.25	  456.10
      6.3700	  735.00	  573.74	-1760.25	  456.33
      6.4700	  749.00	  573.97	-1760.25	  456.56
      6.5700	  740.00	  574.18	-1760.25	  456.78
      6.6700	  769.00	  574.40	-1760.25	  456.99
      6.7700	  709.00	  574.60	-1760.25	  457.19
      6.8700	  741.00	  574.79	-1760.25	  457.39
      6.9700	  709.00	  574.98	-1760.25	  457.57
      7.0700	  757.00	  575.17	-1760.25	  457.76
      7.1700	  659.00	  575.34	-1760.25	  457.93
      7.2700	  660.00	  575.51	-1760.25	  458.10
      7.3700	  679.00	  575.67	-1760.25	  458.26
      7.4700	  686.00	  575.82	-1760.25	  458.41
      7.5700	  654.00	  575.97	-1760.25	  458.56
      7.6700	  717.00	  576.11	-1760.25	  458.70
      7.7700	  659.00	  576.24	-1760.25	  458.84
      7.8700	  651.00	  576.37	-1760.25	  458.96
      7.9700	  648.00	  576.49	-1760.25	  459.08
      8.0700	  627.00	  576.61	-1760.25	  459.20
      8.1700	  636.00	  576.71	-1760.25	  459.31
      8.2700	  632.00	  576.82	-1760.25	  459.41
      8.3700	  614.00	  576.91	-1760.25	  459.50
      8.4700	  644.00	  577.00	-1760.25	  459.59
      8.5700	  634.00	  577.08	-1760.25	  459.67
      8.6700	  622.00	  577.16	-1760.25	  459.75
      8.7700	  632.00	  577.23	-1760.25	  459.82
      8.8700	  686.00	  577.29	-1760.25	  459.89
      8.9700	  599.00	  577.35	-1760.25	  459.94
      9.0700	  626.00	  577.40	-1760.25	  460.00
      9.1700	  635.00	  577.45	-1760.25	  460.04
      9.2700	  595.00	  577.49	-1760.25	  460.08
      9.3700	  621.00	  577.53	-1760.25	  460.12
      9.4700	  584.00	  577.56	-1760.25	  460.15
      9.5700	  632.00	  577.58	-1760.25	  460.17
      9.6700	  553.00	  577.60	-1760.25	  460.19
      9.7700	  598.00	  577.61	-1760.25	  460.20
      9.8700	  628.00	  577.62	-1760.25	  460.21
      9.9700	  582.00	  577.62	-1760.25	  460.21
     10.0700	  638.00	  578.35	-1700.60	  460.20
     10.1700	  621.00	  578.41	-1717.66	  460.20
     10.2700	  564.00	  578.49	-1774.74	  460.18
     10.3700	  588.00	  578.60	-1750.85	  460.16
     10.4700	  661.00	  578.75	-1678.00	  460.14
     10.5700	  584.00	  579.01	-1755.26	  460.11
     10.6700	  583.00	  579.46	-1756.71	  460.07
     10.7700	  552.00	  580.22	-1788.47	  460.03
     10.8700	  597.00	  581.34	-1744.59	  459.98
     10.9700	  591.00	  582.82	-1752.07	  459.93
     11.0700	  581.00	  584.61	-1763.86	  459.88
     11.1700	  606.00	  586.73	-1740.98	  459.82
     11.2700	  551.00	  589.19	-1798.44	  459.75
     11.3700	  569.00	  592.08	-1783.33	  459.68
     11.4700	  567.00	  595.52	-1788.77	  459.61
     11.5700	  571.00	  599.71	-1788.96	  459.53
     11.6700	  563.00	  604.97	-1802.22	  459.45
     11.7700	  618.00	  611.89	-1754.14	  459.36
     11.8700	  597.00	  621.38	-1784.63	  459.27
     11.9700	  653.00	  634.10	-1741.35	  459.17
     12.0700	  699.00	  648.51	-1709.76	  459.07
     12.1700	  675.00	  658.53	-1743.78	  458.96
     12.2700	  681.00	  654.74	-1733.99	  458.85
     12.3700	  654.00	  634.76	-1741.01	  458.74
     12.4700	  612.00	  611.02	-1759.27	  458.62
     12.5700	  625.00	  594.03	-1729.28	  458.50
     12.6700	  645.00	  585.03	-1700.28	  458.37
     12.7700	  595.00	  581.04	-1746.29	  458.24
     12.8700	  573.00	  579.25	-1766.50	  458.11
     12.9700	  600.00	  578.24	-1738.49	  457.97
     13.0700	  564.00	  577.55	-1773.80	  457.83
     13.1700	  557.00	  577.00	-1780.25	  457.68
     13.2700	  535.00	  576.56	-1801.81	  457.53
     13.3700	  549.00	  576.18	-1787.43	  457.38
     13.4700	  578.00	  575.84	-1758.09	  457.22
     13.5700	  588.00	  575.54	-1747.79	  457.06
     13.6700	  595.00	  575.26	-1740.51	  456.89
     13.7700	  557.00	  575.00	-1778.25	  456.72
     13.8700	  567.00	  574.74	-1767.99	  456.55
     13.9700	  557.00	  574.50	-1777.75	  456.37
     14.0700	  548.00	  574.27	-1786.52	  456.19
     14.1700	  607.00	  574.04	-1727.29	  456.01
     14.2700	  551.00	  573.81	-1783.06	  455.83
     14.3700	  552.00	  573.58	-1781.83	  455.64
     14.4700	  593.00	  573.36	-1740.61	  455.44
     14.5700	  567.00	  573.13	-1766.38	  455.25
     14.6700	  582.00	  572.91	-1751.16	  455.05
     14.7700	  540.00	  572.69	-1792.94	  454.85
     14.8700	  551.00	  572.46	-1781.71	  454.64
     14.9700	  504.00	  572.23	-1828.48	  454.43
     15.0700	  570.00	  572.01	-1762.26	  454.22
     15.1700	  588.00	  571.78	-1744.03	  454.01
     15.2700	  551.00	  571.55	-1780.80	  453.79
     15.3700	  569.00	  571.32	-1762.57	  453.57
     15.4700	  548.00	  571.08	-1783.33	  453.34
     15.5700	  569.00	  570.85	-1762.10	  453.12
     15.6700	  573.00	  570.61	-1757.86	  452.89
     15.7700	  605.00	  570.37	-1725.62	  452.66
     15.8700	  550.00	  570.13	-1780.38	  452.42
     15.9700	  553.00	  569.88	-1777.13	  452.19
     16.0700	  571.00	  569.63	-1758.88	  451.95
     16.1700	  563.00	  569.39	-1766.64	  451.70
     16.2700	  562.00	  569.16	-1767.41	  451.46
     16.3700	  604.00	  568.91	-1725.16	  451.21
     16.4700	  577.00	  568.66	-1751.91	  450.96
     16.5700	  537.00	  568.40	-1791.65	  450.71
     16.6700	  568.00	  568.14	-1760.39	  450.45
     16.7700	  580.00	  567.88	-1748.13	  450.20
     16.8700	  570.00	  567.62	-1757.87	  449.94
     16.9700	  564.00	  567.35	-1763.60	  449.68
     17.0700	  551.00	  567.09	-1776.34	  449.41
     17.1700	  503.00	  566.82	-1824.07	  449.15
     17.2700	  594.00	  566.55	-1732.80	  448.88
     17.3700	  527.00	  566.28	-1799.53	  448.61
     17.4700	  548.00	  566.00	-1778.25	  448.33
     17.5700	  558.00	  565.73	-1767.98	  448.06
     17.6700	  534.00	  565.45	-1791.70	  447.78
     17.7700	  580.00	  565.17	-1745.42	  447.50
     17.8700	  578.00	  564.89	-1747.14	  447.22
     17.9700	  593.00	  564.60	-1731.85	  446.94
     18.0700	  570.00	  564.42	-1754.67	  446.65
     18.1700	  557.00	  564.13	-1767.38	  446.37
     18.2700	  520.00	  563.85	-1804.10	  446.08
     18.3700	  527.00	  563.56	-1796.81	  445.79
     18.4700	  538.00	  563.27	-1785.52	  445.50
     18.5700	  536.00	  562.98	-1787.23	  445.20
     18.6700	  578.00	  562.69	-1744.94	  444.91
     18.7700	  564.00	  562.39	-1758.64	  444.61
     18.8700	  563.00	  562.10	-1759.35	  444.31
     18.9700	  565.00	  561.88	-1757.13	  444.01
     19.0700	  608.00	  561.59	-1713.84	  443.71
     19.1700	  579.00	  561.29	-1742.54	  443.41
     19.2700	  608.00	  560.99	-1713.24	  443.10
     19.3700	  592.00	  560.69	-1728.94	  442.80
     19.4700	  553.00	  560.39	-1767.64	  442.49
     19.5700	  562.00	  560.09	-1758.34	  442.18
     19.6700	  547.00	  559.78	-1773.03	  441.87
     19.7700	  549.00	  559.48	-1770.73	  441.56
     19.8700	  546.00	  559.18	-1773.43	  441.25
     19.9700	  555.00	  558.87	-1764.12	  440.93
     20.0700	  566.00	  558.56	-1752.81	  440.62
     20.1700	  581.00	  558.26	-1737.51	  440.30
     20.2700	  554.00	  557.95	-1764.20	  439.98
     20.3700	  557.00	  557.64	-1760.89	  439.67
     20.4700	  504.00	  557.33	-1813.58	  439.35
     20.5700	  530.00	  556.99	-1787.24	  439.02
     20.6700	  554.00	  556.69	-1762.94	  438.70
     20.7700	  553.00	  556.38	-1763.63	  438.38
     20.8700	  509.00	  556.07	-1807.32	  438.06
     20.9700	  576.00	  555.79	-1740.04	  437.73
     21.0700	  588.00	  555.48	-1727.73	  437.40
     21.1700	  546.00	  555.17	-1769.42	  437.08
     21.2700	  545.00	  554.86	-1770.11	  436.75
     21.3700	  536.00	  554.56	-1778.81	  436.42
     21.4700	  520.00	  554.25	-1794.50	  436.09
     21.5700	  536.00	  553.94	-1778.19	  435.76
     21.6700	  561.00	  553.64	-1752.89	  435.43
     21.7700	  561.00	  553.33	-1752.58	  435.10
     21.8700	  579.00	  553.03	-1734.28	  434.77
     21.9700	  568.00	  552.72	-1744.97	  434.44
     22.0700	  550.00	  552.42	-1762.67	  434.10
     22.1700	  618.00	  552.13	-1694.38	  433.77
     22.2700	  582.00	  551.83	-1730.08	  433.43
     22.3700	  586.00	  551.54	-1725.79	  433.10
     22.4700	  509.00	  551.25	-1802.50	  432.76
     22.5700	  532.00	  550.96	-1779.21	  432.43
     22.6700	  588.00	  550.68	-1722.94	  432.09
     22.7700	  550.00	  550.41	-1760.66	  431.75
     22.8700	  502.00	  550.15	-1808.40	  431.42
     22.9700	  544.00	  549.89	-1766.14	  431.08
     23.0700	  562.00	  549.65	-1747.90	  430.74
     23.1700	  503.00	  549.42	-1806.67	  430.40
     23.2700	  535.00	  549.21	-1774.46	  430.06
     23.3700	  536.00	  549.03	-1773.28	  429.72
     23.4700	  541.00	  548.88	-1768.13	  429.38
     23.5700	  565.00	  548.77	-1744.02	  429.04
     23.6700	  558.00	  548.73	-1750.98	  428.70
     23.7700	  517.00	  548.93	-1792.18	  428.36
     23.8700	  553.00	  549.21	-1756.46	  428.02
     23.9700	  578.00	  549.92	-1732.17	  427.68
     24.0700	  588.00	  551.49	-1723.74	  427.34
     24.1700	  548.00	  554.60	-1766.85	  427.00
     24.2700	  580.00	  560.07	-1740.32	  426.66
     24.3700	  613.00	  568.87	-1716.12	  426.32
     24.4700	  579.00	  582.05	-1763.30	  425.98
     24.5700	  616.00	  599.85	-1744.10	  425.64
     24.6700	  597.00	  619.36	-1782.61	  425.30
     24.7700	  607.00	  632.50	-1785.75	  424.96
     24.8700	  623.00	  628.65	-1765.90	  424.62
     24.9700	  652.00	  607.15	-1715.40	  424.28
     25.0700	  616.00	  581.87	-1726.12	  423.94
     25.1700	  600.00	  563.35	-1723.60	  423.60
     25.2700	  558.00	  553.13	-1755.38	  423.26
     25.3700	  544.00	  548.42	-1764.67	  422.92
     25.4700	  543.00	  546.29	-1763.54	  422.58
     25.5700	  573.00	  545.14	-1732.39	  422.24
     25.6700	  542.00	  544.38	-1762.63	  421.90
     25.7700	  549.00	  543.82	-1755.07	  421.56
     25.8700	  525.00	  543.38	-1778.63	  421.22
     25.9700	  565.00	  543.05	-1738.30	  420.89
     26.0700	  568.00	  542.80	-1735.05	  420.55
     26.1700	  546.00	  542.62	-1756.87	  420.21
     26.2700	  571.00	  542.52	-1731.77	  419.87
     26.3700	  570.00	  542.48	-1732.73	  419.54
     26.4700	  536.00	  542.54	-1766.79	  419.20
     26.5700	  535.00	  542.68	-1767.93	  418.86
     26.6700	  587.00	  542.93	-1716.18	  418.53
     26.7700	  572.00	  543.32	-1731.57	  418.19
     26.8700	  556.00	  543.87	-1748.12	  417.86
     26.9700	  522.00	  544.64	-1782.89	  417.53
     27.0700	  570.00	  545.71	-1735.96	  417.19
     27.1700	  573.00	  547.20	-1734.45	  416.86
     27.2700	  590.00	  549.35	-1719.60	  416.53
     27.3700	  589.00	  552.68	-1723.93	  416.20
     27.4700	  536.00	  558.14	-1782.39	  415.86
     27.5700	  575.00	  567.47	-1752.72	  415.53
     27.6700	  601.00	  583.43	-1742.68	  415.20
     27.7700	  592.00	  609.58	-1777.83	  414.88
     27.8700	  628.00	  648.99	-1781.24	  414.55
     27.9700	  627.00	  701.78	-1835.03	  414.22
     28.0700	  789.00	  761.79	-1733.04	  413.89
     28.1700	  891.00	  813.76	-1683.01	  413.57
     28.2700	  926.00	  834.97	-1669.22	  413.24
     28.3700	  894.00	  812.61	-1678.86	  412.92
     28.4700	  855.00	  768.89	-1674.14	  412.59
     28.5700	  711.00	  739.07	-1788.32	  412.27
     28.6700	  709.00	  738.80	-1790.05	  411.95
     28.7700	  760.00	  762.97	-1763.22	  411.63
     28.8700	  774.00	  791.29	-1777.54	  411.31
     28.9700	  794.00	  795.52	-1761.77	  410.99
     29.0700	  766.00	  758.27	-1752.52	  410.67
     29.1700	  739.00	  695.84	-1717.09	  410.35
     29.2700	  677.00	  636.86	-1720.11	  410.03
     29.3700	  589.00	  594.66	-1765.91	  409.72
     29.4700	  620.00	  569.40	-1709.65	  409.40
     29.5700	  623.00	  555.87	-1693.12	  409.09
     29.6700	  591.00	  548.75	-1718.00	  408.77
     29.7700	  595.00	  544.71	-1709.96	  408.46
     29.8700	  604.00	  542.18	-1698.43	  408.15
     29.9700	  541.00	  540.55	-1759.80	  407.84
     30.0700	  569.00	  539.70	-1730.95	  407.53
     30.1700	  559.00	  539.78	-1741.03	  407.22
     30.2700	  532.00	  541.32	-1769.57	  406.92
     30.3700	  559.00	  545.33	-1746.58	  406.61
     30.4700	  548.00	  553.40	-1765.65	  406.31
     30.5700	  500.00	  567.17	-1827.42	  406.00
     30.6700	  577.00	  587.11	-1770.36	  405.70
     30.7700	  596.00	  610.73	-1774.98	  405.40
     30.8700	  611.00	  631.18	-1780.43	  405.10
     30.9700	  631.00	  638.11	-1767.36	  404.80
     31.0700	  573.00	  624.66	-1811.91	  404.50
     31.1700	  579.00	  598.00	-1779.25	  404.21
     31.2700	  569.00	  571.48	-1762.73	  403.91
     31.3700	  536.00	  552.08	-1776.33	  403.62
     31.4700	  557.00	  540.40	-1743.65	  403.32
     31.5700	  540.00	  534.21	-1754.46	  403.03
     31.6700	  539.00	  531.05	-1752.30	  402.74
     31.7700	  503.00	  529.29	-1786.54	  402.45
     31.8700	  554.00	  528.17	-1734.42	  402.16
     31.9700	  525.00	  527.39	-1762.64	  401.88
     32.0700	  534.00	  526.83	-1753.08	  401.59
     32.1700	  545.00	  526.45	-1741.70	  401.31
     32.2700	  528.00	  526.22	-1758.47	  401.03
     32.3700	  544.00	  526.14	-1742.39	  400.75
     32.4700	  530.00	  526.21	-1756.46	  400.47
     32.5700	  530.00	  526.44	-1756.69	  400.19
     32.6700	  533.00	  526.87	-1754.12	  399.91
     32.7700	  539.00	  527.54	-1748.79	  399.63
     32.8700	  518.00	  528.52	-1770.77	  399.36
     32.9700	  550.00	  529.92	-1740.17	  399.09
     33.0700	  548.00	  531.96	-1744.21	  398.81
     33.1700	  536.00	  535.10	-1759.35	  398.54
     33.2700	  543.00	  540.41	-1757.66	  398.28
     33.3700	  546.00	  550.22	-1764.47	  398.01
     33.4700	  543.00	  569.04	-1786.29	  397.74
     33.5700	  637.00	  604.06	-1727.31	  397.48
     33.6700	  640.00	  663.69	-1783.94	  397.22
     33.7700	  781.00	  751.65	-1730.90	  396.95
     33.8700	  955.00	  858.27	-1663.52	  396.69
     33.9700	 1049.00	  954.54	-1665.79	  396.44
     34.0700	 1035.00	  996.11	-1721.36	  396.18
     34.1700	 1042.00	  951.00	-1669.25	  395.92
     34.2700	  901.00	  842.92	-1702.17	  395.67
     34.3700	  760.00	  727.76	-1728.01	  395.42
     34.4700	  634.00	  639.36	-1765.61	  395.17
     34.5700	  583.00	  584.34	-1761.59	  394.92
     34.6700	  603.00	  554.89	-1712.14	  394.67
     34.7700	  559.00	  540.24	-1741.49	  394.42
     34.8700	  518.00	  532.64	-1774.89	  394.18
     34.9700	  535.00	  528.09	-1753.34	  393.94
     35.0700	  489.00	  524.94	-1796.19	  393.69
     35.1700	  503.00	  522.55	-1779.80	  393.45
     35.2700	  526.00	  520.68	-1754.93	  393.22
     35.3700	  538.00	  519.14	-1741.39	  392.98
     35.4700	  537.00	  517.86	-1741.11	  392.74
     35.5700	  495.00	  516.78	-1782.03	  392.51
     35.6700	  504.00	  515.85	-1772.10	  392.28
     35.7700	  510.00	  515.04	-1765.29	  392.05
     35.8700	  509.00	  514.32	-1765.57	  391.82
     35.9700	  528.00	  513.69	-1745.94	  391.59
     36.0700	  521.00	  513.59	-1752.84	  391.37
     36.1700	  560.00	  513.08	-1713.33	  391.15
     36.2700	  509.00	  512.62	-1763.87	  390.92
     36.3700	  507.00	  512.20	-1765.45	  390.70
     36.4700	  534.00	  511.82	-1738.07	  390.49
     36.5700	  507.00	  511.48	-1764.73	  390.27
     36.6700	  536.00	  511.17	-1735.42	  390.05
     36.7700	  542.00	  510.91	-1729.16	  389.84
     36.8700	  508.00	  510.72	-1762.97	  389.63
     36.9700	  501.00	  510.64	-1769.89	  389.42
     37.0700	  507.00	  510.80	-1764.05	  389.21
     37.1700	  501.00	  511.44	-1770.69	  389.01
     37.2700	  503.00	  512.89	-1770.14	  388.80
     37.3700	  550.00	  515.51	-1725.76	  388.60
     37.4700	  525.00	  519.31	-1754.56	  388.40
     37.5700	  569.00	  523.64	-1714.89	  388.20
     37.6700	  565.00	  527.09	-1722.34	  388.00
     37.7700	  516.00	  528.11	-1772.36	  387.80
     37.8700	  550.00	  526.36	-1736.61	  387.61
     37.9700	  495.00	  523.10	-1788.35	  387.42
     38.0700	  483.00	  519.45	-1796.70	  387.23
     38.1700	  500.00	  515.85	-1776.10	  387.04
     38.2700	  504.00	  512.65	-1768.90	  386.85
     38.3700	  511.00	  510.18	-1759.43	  386.67
     38.4700	  503.00	  508.45	-1765.70	  386.48
     38.5700	  500.00	  507.34	-1767.59	  386.30
     38.6700	  484.00	  506.54	-1782.79	  386.12
     38.7700	  501.00	  506.09	-1765.34	  385.94
     38.8700	  497.00	  505.76	-1769.01	  385.77
     38.9700	  476.00	  505.49	-1789.74	  385.59
     39.0700	  532.00	  505.25	-1733.50	  385.42
     39.1700	  538.00	  504.96	-1727.21	  385.25
     39.2700	  490.00	  504.76	-1775.01	  385.08
     39.3700	  505.00	  504.57	-1759.82	  384.91
     39.4700	  544.00	  504.40	-1720.65	  384.75
     39.5700	  496.00	  504.24	-1768.49	  384.58
     39.6700	  512.00	  504.21	-1752.46	  384.42
     39.7700	  523.00	  504.07	-1741.32	  384.26
     39.8700	  527.00	  503.94	-1737.19	  384.10
     39.9700	  551.00	  503.82	-1713.07	  383.95
     40.0700	  469.00	  503.71	-1794.96	  383.79
     40.1700	  525.00	  503.60	-1738.85	  383.64
     40.2700	  467.00	  503.51	-1796.76	  383.49
     40.3700	  467.00	  503.43	-1796.68	  383.34
     40.4700	  502.00	  503.36	-1761.61	  383.19
     40.5700	  486.00	  503.31	-1777.56	  383.05
     40.6700	  533.00	  503.27	-1730.52	  382.90
     40.7700	  493.00	  503.25	-1770.50	  382.76
     40.8700	  522.00	  503.26	-1741.51	  382.62
     40.9700	  445.00	  503.28	-1818.53	  382.48
     41.0700	  506.00	  503.34	-1757.59	  382.35
     41.1700	  531.00	  503.41	-1732.66	  382.21
     41.2700	  495.00	  503.55	-1768.80	  382.08
     41.3700	  460.00	  503.76	-1804.01	  381.95
     41.4700	  471.00	  504.05	-1793.30	  381.82
     41.5700	  504.00	  504.44	-1760.69	  381.69
     41.6700	  552.00	  505.43	-1713.68	  381.57
     41.7700	  489.00	  506.29	-1777.54	  381.44
     41.8700	  487.00	  507.74	-1780.99	  381.32
     41.9700	  481.00	  510.46	-1789.71	  381.20
     42.0700	  483.00	  515.79	-1793.04	  381.08
     42.1700	  497.00	  525.86	-1789.11	  380.97
     42.2700	  510.00	  543.20	-1793.45	  380.85
     42.3700	  525.00	  569.28	-1804.53	  380.74
     42.4700	  539.00	  602.04	-1823.29	  380.63
     42.5700	  588.00	  634.28	-1806.53	  380.52
     42.6700	  592.00	  654.19	-1822.44	  380.42
     42.7700	  620.00	  651.32	-1791.57	  380.31
     42.8700	  578.00	  626.35	-1808.60	  380.21
     42.9700	  547.00	  591.82	-1805.07	  380.11
     43.0700	  512.00	  559.73	-1807.98	  380.01
     43.1700	  541.00	  535.90	-1755.15	  379.91
     43.2700	  471.00	  520.95	-1810.20	  379.81
     43.3700	  512.00	  512.72	-1760.97	  379.72
     43.4700	  528.00	  508.53	-1740.78	  379.63
     43.5700	  501.00	  506.37	-1765.62	  379.54
     43.6700	  475.00	  505.15	-1790.40	  379.45
     43.7700	  511.00	  504.53	-1753.78	  379.36
     43.8700	  517.00	  503.96	-1747.21	  379.28
     43.9700	  522.00	  503.52	-1741.77	  379.19
     44.0700	  481.00	  503.19	-1782.44	  379.11
     44.1700	  501.00	  502.96	-1762.21	  379.03
     44.2700	  480.00	  502.76	-1783.01	  378.96
     44.3700	  446.00	  502.61	-1816.86	  378.88
     44.4700	  491.00	  502.50	-1771.75	  378.81
     44.5700	  514.00	  502.30	-1748.55	  378.73
     44.6700	  518.00	  502.25	-1744.50	  378.66
     44.7700	  538.00	  502.24	-1724.49	  378.60
     44.8700	  507.00	  502.24	-1755.49	  378.53
     44.9700	  480.00	  502.27	-1782.52	  378.46
     45.0700	  521.00	  502.32	-1741.57	  378.40
     45.1700	  457.00	  502.40	-1805.65	  378.34
     45.2700	  494.00	  502.67	-1768.92	  378.28
     45.3700	  476.00	  502.79	-1787.04	  378.22
     45.4700	  513.00	  502.93	-1750.18	  378.17
     45.5700	  509.00	  503.09	-1754.34	  378.11
     45.6700	  478.00	  503.28	-1785.53	  378.06
     45.7700	  478.00	  503.49	-1785.74	  378.01
     45.8700	  490.00	  503.73	-1773.98	  377.96
     45.9700	  474.00	  504.01	-1790.26	  377.91
     46.0700	  477.00	  504.31	-1787.56	  377.87
     46.1700	  562.00	  504.66	-1702.91	  377.82
     46.2700	  515.00	  505.04	-1750.29	  377.78
     46.3700	  484.00	  505.48	-1781.73	  377.74
     46.4700	  518.00	  505.97	-1748.22	  377.70
     46.5700	  520.00	  506.53	-1746.78	  377.67
     46.6700	  505.00	  507.18	-1762.43	  377.63
     46.7700	  530.00	  507.94	-1738.19	  377.60
     46.8700	  539.00	  508.87	-1730.12	  377.57
     46.9700	  514.00	  510.08	-1756.33	  377.54
     47.0700	  499.00	  511.85	-1773.10	  377.51
     47.1700	  502.00	  514.71	-1772.96	  377.48
     47.2700	  492.00	  519.61	-1787.86	  377.46
     47.3700	  537.00	  527.80	-1751.05	  377.43
     47.4700	  544.00	  540.34	-1756.59	  377.41
     47.5700	  552.00	  557.47	-1765.72	  377.39
     47.6700	  602.00	  577.45	-1735.70	  377.38
     47.7700	  584.00	  595.97	-1772.22	  377.36
     47.8700	  543.00	  606.94	-1824.19	  377.34
     47.9700	  620.00	  605.77	-1746.02	  377.33
     48.0700	  601.00	  593.68	-1752.93	  377.32
     48.1700	  589.00	  576.78	-1748.03	  377.31
     48.2700	  552.00	  560.95	-1769.20	  377.30
     48.3700	  557.00	  549.38	-1752.63	  377.30
     48.4700	  517.00	  542.96	-1786.21	  377.29
     48.5700	  525.00	  541.00	-1776.25	  377.29
     48.6700	  540.00	  542.34	-1762.59	  377.29
     48.7700	  571.00	  546.03	-1735.28	  377.29
     48.8700	  498.00	  551.59	-1813.84	  377.29
     48.9700	  565.00	  559.10	-1754.35	  377.29
     49.0700	  576.00	  569.26	-1753.51	  377.30
     49.1700	  570.00	  583.73	-1773.98	  377.31
     49.2700	  639.00	  606.05	-1727.30	  377.31
     49.3700	  656.00	  642.97	-1747.22	  377.32
     49.4700	  745.00	  705.94	-1721.19	  377.34
     49.5700	  799.00	  811.38	-1772.63	  377.35
     49.6700	  902.00	  978.35	-1836.60	  377.36
     49.7700	 1166.00	 1220.18	-1814.43	  377.38
     49.8700	 1485.00	 1535.32	-1810.57	  377.40
     49.9700	 1863.00	 1893.74	-1790.99	  377.42
     50.0700	 2219.00	 2228.27	-1769.52	  377.44
     50.1700	 2505.00	 2439.69	-1694.94	  377.46
     50.2700	 2484.00	 2440.54	-1716.79	  377.49
     50.3700	 2309.00	 2228.20	-1679.45	  377.51
     50.4700	 1903.00	 1891.49	-1748.74	  377.54
     50.5700	 1404.00	 1534.07	-1890.32	  377.57
     50.6700	 1061.00	 1224.01	-1923.26	  377.60
     50.7700	  806.00	  990.67	-1944.92	  377.63
     50.8700	  726.00	  834.79	-1869.04	  377.66
     50.9700	  653.00	  740.52	-1847.77	  377.70
     51.0700	  662.00	  686.33	-1784.58	  377.73
     51.1700	  647.00	  653.05	-1766.30	  377.77
     51.2700	  640.00	  628.27	-1748.52	  377.81
     51.3700	  567.00	  606.96	-1800.21	  377.85
     51.4700	  546.00	  588.49	-1802.74	  377.89
     51.5700	  585.00	  573.39	-1748.64	  377.93
     51.6700	  562.00	  561.94	-1760.19	  377.98
     51.7700	  576.00	  553.84	-1738.09	  378.03
     51.8700	  554.00	  548.40	-1754.65	  378.07
     51.9700	  548.00	  544.85	-1757.10	  378.12
     52.0700	  567.00	  542.62	-1735.87	  378.17
     52.1700	  544.00	  541.37	-1757.62	  378.22
     52.2700	  564.00	  541.01	-1737.26	  378.28
     52.3700	  591.00	  541.85	-1711.10	  378.33
     52.4700	  592.00	  543.90	-1712.15	  378.39
     52.5700	  544.00	  548.39	-1764.64	  378.45
     52.6700	  589.00	  557.51	-1728.76	  378.50
     52.7700	  622.00	  575.33	-1713.58	  378.56
     52.8700	  674.00	  608.16	-1694.41	  378.63
     52.9700	  678.00	  663.82	-1746.07	  378.69
     53.0700	  816.00	  748.85	-1693.10	  378.75
     53.1700	  912.00	  863.90	-1712.15	  378.82
     53.2700	 1042.00	  998.54	-1716.79	  378.88
     53.3700	 1118.00	 1128.28	-1770.53	  378.95
     53.4700	 1199.00	 1216.89	-1778.14	  379.02
     53.5700	 1170.00	 1230.50	-1820.75	  379.09
     53.6700	 1061.00	 1162.56	-1861.81	  379.16
     53.7700	 1031.00	 1040.87	-1770.12	  379.24
     53.8700	  830.00	  904.10	-1834.35	  379.31
     53.9700	  716.00	  781.26	-1825.51	  379.39
     54.0700	  684.00	  686.93	-1763.18	  379.46
     54.1700	  611.00	  623.27	-1772.52	  379.54
     54.2700	  585.00	  584.88	-1760.13	  379.62
     54.3700	  596.00	  563.80	-1728.05	  379.70
     54.4700	  554.00	  552.99	-1759.24	  379.78
     54.5700	  591.00	  547.74	-1716.99	  379.87
     54.6700	  538.00	  545.35	-1767.60	  379.95
     54.7700	  542.00	  544.50	-1762.75	  380.04
     54.8700	  543.00	  544.63	-1761.88	  380.12
     54.9700	  594.00	  545.53	-1711.78	  380.21
     55.0700	  565.00	  547.14	-1742.39	  380.30
     55.1700	  566.00	  549.46	-1743.71	  380.39
     55.2700	  608.00	  552.56	-1704.81	  380.48
     55.3700	  533.00	  556.58	-1783.83	  380.57
     55.4700	  573.00	  561.68	-1748.93	  380.66
     55.5700	  592.00	  568.28	-1736.53	  380.76
     55.6700	  582.00	  577.14	-1755.39	  380.85
     55.7700	  600.00	  589.89	-1750.14	  380.95
     55.8700	  575.00	  609.79	-1795.04	  381.05
     55.9700	  621.00	  643.04	-1782.29	  381.15
     56.0700	  669.00	  700.06	-1791.31	  381.25
     56.1700	  737.00	  796.07	-1819.32	  381.35
     56.2700	  866.00	  949.43	-1843.68	  381.45
     56.3700	 1064.00	 1176.18	-1872.43	  381.55
     56.4700	 1377.00	 1481.28	-1864.53	  381.65
     56.5700	 1823.00	 1848.44	-1785.69	  381.76
     56.6700	 2022.00	 2232.03	-1970.28	  381.86
     56.7700	 2474.00	 2555.35	-1841.60	  381.97
     56.8700	 2672.00	 2724.90	-1813.15	  382.08
     56.9700	 2718.00	 2677.64	-1719.89	  382.19
     57.0700	 2415.00	 2431.86	-1777.11	  382.30
     57.1700	 1987.00	 2072.32	-1845.57	  382.41
     57.2700	 1667.00	 1690.05	-1783.30	  382.52
     57.3700	 1311.00	 1349.00	-1798.25	  382.63
     57.4700	 1128.00	 1081.24	-1713.49	  382.75
     57.5700	  860.00	  892.70	-1792.95	  382.86
     57.6700	  745.00	  772.71	-1787.96	  382.97
     57.7700	  702.00	  704.01	-1762.26	  383.09
     57.8700	  666.00	  670.50	-1764.75	  383.21
     57.9700	  688.00	  660.99	-1733.24	  383.32
     58.0700	  677.00	  669.65	-1752.90	  383.44
     58.1700	  701.00	  694.67	-1753.92	  383.56
     58.2700	  758.00	  736.24	-1738.49	  383.68
     58.3700	  834.00	  794.68	-1720.93	  383.80
     58.4700	  922.00	  868.73	-1706.98	  383.93
     58.5700	 1115.00	  953.92	-1599.17	  384.05
     58.6700	 1195.00	 1042.00	-1607.25	  384.17
     58.7700	 1320.00	 1123.25	-1563.50	  384.30
     58.8700	 1479.00	 1190.85	-1472.10	  384.42
     58.9700	 1552.00	 1240.85	-1449.10	  384.55
     59.0700	 1609.00	 1268.07	-1419.32	  384.67
     59.1700	 1602.00	 1267.76	-1426.01	  384.80
     59.2700	 1403.00	 1243.59	-1600.84	  384.93
     59.3700	 1303.00	 1208.06	-1665.31	  385.06
     59.4700	 1285.00	 1174.21	-1649.46	  385.19
     59.5700	 1185.00	 1151.02	-1726.27	  385.32
     59.6700	 1192.00	 1146.18	-1714.43	  385.45
     59.7700	 1202.00	 1168.58	-1726.83	  385.58
     59.8700	 1283.00	 1223.81	-1701.06	  385.71
     59.9700	 1321.00	 1307.89	-1747.14	  385.84
     60.0700	 1505.00	 1404.13	-1659.38	  385.98
     60.1700	 1575.00	 1483.78	-1669.03	  386.11
     60.2700	 1528.00	 1513.28	-1745.53	  386.24
     60.3700	 1515.00	 1471.55	-1716.80	  386.38
     60.4700	 1447.00	 1365.18	-1678.43	  386.52
     60.5700	 1256.00	 1221.49	-1725.74	  386.65
     60.6700	 1098.00	 1070.06	-1732.31	  386.79
     60.7700	  848.00	  932.55	-1844.80	  386.93
     60.8700	  794.00	  821.19	-1787.44	  387.06
     60.9700	  723.00	  740.13	-1777.38	  387.20
     61.0700	  670.00	  688.11	-1778.36	  387.34
     61.1700	  660.00	  661.64	-1761.89	  387.48
     61.2700	  600.00	  657.85	-1818.10	  387.62
     61.3700	  655.00	  676.19	-1781.44	  387.76
     61.4700	  633.00	  718.67	-1845.92	  387.90
     61.5700	  769.00	  788.57	-1779.82	  388.05
     61.6700	  863.00	  887.96	-1785.21	  388.19
     61.7700	  987.00	 1014.64	-1787.89	  388.33
     61.8700	 1116.00	 1159.42	-1803.67	  388.47
     61.9700	 1180.00	 1304.26	-1884.51	  388.62
     62.0700	 1312.00	 1422.45	-1870.70	  388.76
     62.1700	 1420.00	 1483.64	-1823.89	  388.90
     62.2700	 1350.00	 1467.88	-1878.13	  389.05
     62.3700	 1286.00	 1379.90	-1854.15	  389.19
     62.4700	 1211.00	 1245.53	-1794.78	  389.34
     62.5700	 1019.00	 1095.00	-1836.25	  389.48
     62.6700	  890.00	  951.93	-1822.18	  389.63
     62.7700	  802.00	  830.72	-1788.97	  389.78
     62.8700	  678.00	  737.23	-1819.48	  389.92
     62.9700	  640.00	  670.82	-1791.07	  390.07
     63.0700	  611.00	  626.96	-1776.21	  390.22
     63.1700	  557.00	  599.76	-1803.01	  390.37
     63.2700	  574.00	  583.85	-1770.10	  390.51
     63.3700	  571.00	  575.26	-1764.51	  390.66
     63.4700	  540.00	  571.65	-1791.90	  390.81
     63.5700	  624.00	  572.20	-1708.45	  390.96
     63.6700	  565.00	  577.31	-1772.56	  391.11
     63.7700	  618.00	  588.42	-1730.67	  391.26
     63.8700	  606.00	  607.61	-1761.86	  391.41
     63.9700	  658.00	  637.11	-1739.36	  391.56
     64.0700	  705.00	  678.44	-1733.69	  391.71
     64.1700	  788.00	  731.39	-1703.64	  391.86
     64.2700	  849.00	  793.06	-1704.31	  392.01
     64.3700	  880.00	  857.26	-1737.51	  392.16
     64.4700	 1017.00	  914.46	-1657.71	  392.31
     64.5700	 1022.00	  953.11	-1691.36	  392.46
     64.6700	 1024.00	  965.58	-1701.83	  392.61
     64.7700	  962.00	  949.67	-1747.92	  392.76
     64.8700	  958.00	  910.82	-1713.07	  392.91
     64.9700	  913.00	  858.21	-1705.46	  393.06
     65.0700	  817.00	  801.54	-1744.79	  393.21
     65.1700	  807.00	  748.44	-1701.69	  393.36
     65.2700	  727.00	  703.12	-1736.37	  393.51
     65.3700	  648.00	  666.58	-1778.83	  393.67
     65.4700	  648.00	  637.85	-1750.10	  393.82
     65.5700	  613.00	  615.46	-1762.71	  393.97
     65.6700	  598.00	  598.21	-1760.46	  394.12
     65.7700	  573.00	  585.17	-1772.42	  394.27
     65.8700	  563.00	  575.65	-1772.90	  394.42
     65.9700	  562.00	  569.10	-1767.35	  394.57
     66.0700	  518.00	  565.06	-1807.31	  394.72
     66.1700	  535.00	  563.12	-1788.37	  394.88
     66.2700	  512.00	  562.90	-1811.15	  395.03
     66.3700	  571.00	  564.11	-1753.36	  395.18
     66.4700	  578.00	  566.59	-1748.84	  395.33
     66.5700	  551.00	  570.39	-1779.64	  395.48
     66.6700	  572.00	  575.88	-1764.13	  395.63
     66.7700	  584.00	  584.04	-1760.29	  395.78
     66.8700	  612.00	  596.35	-1744.60	  395.93
     66.9700	  592.00	  615.89	-1784.14	  396.08
     67.0700	  619.00	  647.37	-1788.62	  396.23
     67.1700	  662.00	  697.62	-1795.87	  396.38
     67.2700	  741.00	  775.35	-1794.60	  396.53
     67.3700	  904.00	  890.00	-1746.25	  396.68
     67.4700	 1065.00	 1049.44	-1744.69	  396.83
     67.5700	 1238.00	 1256.63	-1778.88	  396.98
     67.6700	 1571.00	 1506.18	-1695.43	  397.13
     67.7700	 1794.00	 1781.16	-1747.41	  397.28
     67.8700	 2162.00	 2051.92	-1650.17	  397.43
     67.9700	 2340.00	 2277.08	-1697.33	  397.58
     68.0700	 2461.00	 2410.41	-1709.66	  397.72
     68.1700	 2439.00	 2417.74	-1738.99	  397.87
     68.2700	 2298.00	 2296.97	-1759.22	  398.02
     68.3700	 2133.00	 2079.65	-1706.90	  398.17
     68.4700	 1718.00	 1811.93	-1854.18	  398.31
     68.5700	 1495.00	 1536.17	-1801.42	  398.46
     68.6700	 1277.00	 1283.41	-1766.66	  398.61
     68.7700	 1041.00	 1071.69	-1790.94	  398.75
     68.8700	  849.00	  907.69	-1818.94	  398.90
     68.9700	  752.00	  789.20	-1797.45	  399.04
     69.0700	  662.00	  708.54	-1806.79	  399.19
     69.1700	  705.00	  656.35	-1711.60	  399.33
     69.2700	  670.00	  623.77	-1714.02	  399.48
     69.3700	  586.00	  603.76	-1778.01	  399.62
     69.4700	  628.00	  591.38	-1723.63	  399.76
     69.5700	  590.00	  583.48	-1753.73	  399.91
     69.6700	  584.00	  578.23	-1754.48	  400.05
     69.7700	  581.00	  574.61	-1753.86	  400.19
     69.8700	  587.00	  572.12	-1745.37	  400.33
     69.9700	  564.00	  570.47	-1766.72	  400.47
     70.0700	  588.00	  569.55	-1741.80	  400.61
     70.1700	  552.00	  569.31	-1777.56	  400.76
     70.2700	  520.00	  569.76	-1810.01	  400.89
     70.3700	  564.00	  571.02	-1767.27	  401.03
     70.4700	  555.00	  573.28	-1778.53	  401.17
     70.5700	  557.00	  577.02	-1780.27	  401.31
     70.6700	  571.00	  583.10	-1772.35	  401.45
     70.7700	  561.00	  592.98	-1792.23	  401.58
     70.8700	  623.00	  609.07	-1746.32	  401.72
     70.9700	  646.00	  634.93	-1749.18	  401.86
     71.0700	  650.00	  675.38	-1785.63	  401.99
     71.1700	  707.00	  736.23	-1789.48	  402.13
     71.2700	  845.00	  823.39	-1738.64	  402.26
     71.3700	  889.00	  941.40	-1812.65	  402.39
     71.4700	 1070.00	 1091.47	-1781.72	  402.53
     71.5700	 1283.00	 1270.31	-1747.56	  402.66
     71.6700	 1383.00	 1465.36	-1842.61	  402.79
     71.7700	 1597.00	 1658.98	-1822.23	  402.92
     71.8700	 1777.00	 1825.88	-1809.13	  403.05
     71.9700	 1927.00	 1937.26	-1770.51	  403.18
     72.0700	 1895.00	 1969.11	-1834.36	  403.31
     72.1700	 1940.00	 1913.83	-1734.08	  403.44
     72.2700	 1770.00	 1784.74	-1774.99	  403.57
     72.3700	 1692.00	 1608.05	-1676.30	  403.69
     72.4700	 1509.00	 1412.92	-1664.17	  403.82
     72.5700	 1281.00	 1222.27	-1701.52	  403.94
     72.6700	 1230.00	 1052.18	-1582.43	  404.07
     72.7700	 1036.00	  911.35	-1635.60	  404.19
     72.8700	  945.00	  802.02	-1617.27	  404.31
     72.9700	  858.00	  721.82	-1624.07	  404.44
     73.0700	  815.00	  665.75	-1611.00	  404.56
     73.1700	  738.00	  628.00	-1650.25	  404.68
     73.2700	  643.00	  603.21	-1720.46	  404.80
     73.3700	  696.00	  587.07	-1651.32	  404.92
     73.4700	  618.00	  576.46	-1718.71	  405.03
     73.5700	  556.00	  569.37	-1773.62	  405.15
     73.6700	  609.00	  564.55	-1715.80	  405.27
     73.7700	  610.00	  561.27	-1711.52	  405.38
     73.8700	  601.00	  559.12	-1718.37	  405.50
     73.9700	  577.00	  557.87	-1741.12	  405.61
     74.0700	  576.00	  557.33	-1741.58	  405.73
     74.1700	  608.00	  557.37	-1709.62	  405.84
     74.2700	  595.00	  557.78	-1723.03	  405.95
     74.3700	  625.00	  558.35	-1693.60	  406.06
     74.4700	  608.00	  558.81	-1711.06	  406.17
     74.5700	  641.00	  558.92	-1678.17	  406.28
     74.6700	  677.00	  558.46	-1641.71	  406.38
     74.7700	  654.00	  557.38	-1663.63	  406.49
     74.8700	  634.00	  555.83	-1682.08	  406.59
     74.9700	  628.00	  554.06	-1686.31	  406.70
     75.0700	  601.00	  552.37	-1711.62	  406.80
     75.1700	  588.00	  551.04	-1723.29	  406.91
     75.2700	  558.00	  550.41	-1752.66	  407.01
     75.3700	  585.00	  550.95	-1726.20	  407.11
     75.4700	  522.00	  553.00	-1791.25	  407.21
     75.5700	  599.00	  556.94	-1718.19	  407.30
     75.6700	  543.00	  563.50	-1780.75	  407.40
     75.7700	  584.00	  573.04	-1749.29	  407.50
     75.8700	  622.00	  585.88	-1724.13	  407.59
     75.9700	  607.00	  602.00	-1755.25	  407.69
     76.0700	  636.00	  620.92	-1745.17	  407.78
     76.1700	  664.00	  641.56	-1737.81	  407.87
     76.2700	  621.00	  662.20	-1801.45	  407.96
     76.3700	  650.00	  680.57	-1790.82	  408.05
     76.4700	  729.00	  694.04	-1725.29	  408.14
     76.5700	  693.00	  700.19	-1767.44	  408.23
     76.6700	  712.00	  697.76	-1746.01	  408.32
     76.7700	  679.00	  687.22	-1768.47	  408.40
     76.8700	  674.00	  670.59	-1756.84	  408.49
     76.9700	  632.00	  650.29	-1778.54	  408.57
     77.0700	  564.00	  629.17	-1825.42	  408.65
     77.1700	  546.00	  609.02	-1823.27	  408.73
     77.2700	  576.00	  591.20	-1775.45	  408.81
     77.3700	  573.00	  576.42	-1763.67	  408.89
     77.4700	  503.00	  564.86	-1822.11	  408.97
     77.5700	  509.00	  556.28	-1807.53	  409.04
     77.6700	  523.00	  550.22	-1787.47	  409.12
     77.7700	  520.00	  546.11	-1786.36	  409.19
     77.8700	  559.00	  543.43	-1744.68	  409.26
     77.9700	  503.00	  541.71	-1798.96	  409.33
     78.0700	  484.00	  540.64	-1816.89	  409.40
     78.1700	  549.00	  539.97	-1751.22	  409.47
     78.2700	  561.00	  539.56	-1738.81	  409.54
     78.3700	  517.00	  539.32	-1782.57	  409.61
     78.4700	  534.00	  539.19	-1765.44	  409.67
     78.5700	  570.00	  539.16	-1729.41	  409.73
     78.6700	  548.00	  539.23	-1751.48	  409.80
     78.7700	  508.00	  539.40	-1791.65	  409.86
     78.8700	  521.00	  539.70	-1778.95	  409.92
     78.9700	  517.00	  540.16	-1783.41	  409.98
     79.0700	  500.00	  540.83	-1801.08	  410.03
     79.1700	  559.00	  541.76	-1743.01	  410.09
     79.2700	  562.00	  542.82	-1741.07	  410.14
     79.3700	  531.00	  544.45	-1773.70	  410.20
     79.4700	  504.00	  546.51	-1802.76	  410.25
     79.5700	  541.00	  549.07	-1768.32	  410.30
     79.6700	  518.00	  552.21	-1794.46	  410.35
     79.7700	  502.00	  556.01	-1814.26	  410.40
     79.8700	  541.00	  560.58	-1779.83	  410.44
     79.9700	  528.00	  566.09	-1798.34	  410.49
     80.0700	  544.00	  572.74	-1788.99	  410.53
     80.1700	  568.00	  580.80	-1773.05	  410.57
     80.2700	  582.00	  590.61	-1768.86	  410.61
     80.3700	  581.00	  602.43	-1781.68	  410.65
     80.4700	  590.00	  616.40	-1786.65	  410.69
     80.5700	  584.00	  632.36	-1808.61	  410.73
     80.6700	  634.00	  649.84	-1776.09	  410.76
     80.7700	  641.00	  667.96	-1787.21	  410.80
     80.8700	  664.00	  685.52	-1781.77	  410.83
     80.9700	  690.00	  701.11	-1771.36	  410.86
     81.0700	  725.00	  713.46	-1748.71	  410.89
     81.1700	  697.00	  721.59	-1784.84	  410.92
     81.2700	  754.00	  724.93	-1731.18	  410.94
     81.3700	  768.00	  723.30	-1715.55	  410.97
     81.4700	  756.00	  716.94	-1721.19	  410.99
     81.5700	  745.00	  706.51	-1721.76	  411.01
     81.6700	  780.00	  692.85	-1673.10	  411.03
     81.7700	  719.00	  676.94	-1718.19	  411.05
     81.8700	  735.00	  659.76	-1685.01	  411.07
     81.9700	  701.00	  642.31	-1701.56	  411.09
     82.0700	  666.00	  625.61	-1719.86	  411.10
     82.1700	  651.00	  610.31	-1719.56	  411.12
     82.2700	  646.00	  596.82	-1711.07	  411.13
     82.3700	  581.00	  585.34	-1764.59	  411.14
     82.4700	  614.00	  575.88	-1722.13	  411.15
     82.5700	  588.00	  568.36	-1740.61	  411.15
     82.6700	  571.00	  562.72	-1751.97	  411.16
     82.7700	  572.00	  558.81	-1747.06	  411.16
     82.8700	  544.00	  556.50	-1772.75	  411.17
     82.9700	  548.00	  555.70	-1767.95	  411.17
     83.0700	  509.00	  556.32	-1807.57	  411.17
     83.1700	  540.00	  558.28	-1778.53	  411.16
     83.2700	  533.00	  561.48	-1788.73	  411.16
     83.3700	  534.00	  565.75	-1792.00	  411.16
     83.4700	  560.00	  570.87	-1771.12	  411.15
     83.5700	  518.00	  576.49	-1818.74	  411.14
     83.6700	  558.00	  582.16	-1784.41	  411.13
     83.7700	  571.00	  587.35	-1776.60	  411.12
     83.8700	  612.00	  591.44	-1739.69	  411.11
     83.9700	  564.00	  593.85	-1790.10	  411.09
     84.0700	  583.00	  594.18	-1771.43	  411.08
     84.1700	  563.00	  592.33	-1789.58	  411.06
     84.2700	  582.00	  588.56	-1766.81	  411.04
     84.3700	  569.00	  583.38	-1774.63	  411.02
     84.4700	  559.00	  577.38	-1778.63	  410.99
     84.5700	  570.00	  571.11	-1761.36	  410.97
     84.6700	  585.00	  565.01	-1740.26	  410.94
     84.7700	  543.00	  559.42	-1776.67	  410.92
     84.8700	  517.00	  554.56	-1797.81	  410.89
     84.9700	  592.00	  550.52	-1718.77	  410.86
     85.0700	  532.00	  547.32	-1775.56	  410.83
     85.1700	  527.00	  544.89	-1778.14	  410.79
     85.2700	  555.00	  543.15	-1748.40	  410.76
     85.3700	  523.00	  541.98	-1779.23	  410.72
     85.4700	  527.00	  541.28	-1774.53	  410.68
     85.5700	  518.00	  540.96	-1783.21	  410.64
     85.6700	  511.00	  540.96	-1790.21	  410.60
     85.7700	  533.00	  541.25	-1768.50	  410.55
     85.8700	  522.00	  541.85	-1780.10	  410.51
     85.9700	  535.00	  542.80	-1768.05	  410.46
     86.0700	  543.00	  544.16	-1761.41	  410.41
     86.1700	  550.00	  546.05	-1756.30	  410.36
     86.2700	  572.00	  548.60	-1736.85	  410.31
     86.3700	  518.00	  551.96	-1794.21	  410.26
     86.4700	  524.00	  556.26	-1792.51	  410.20
     86.5700	  540.00	  561.62	-1781.87	  410.15
     86.6700	  567.00	  568.07	-1761.32	  410.09
     86.7700	  576.00	  575.24	-1759.49	  410.03
     86.8700	  573.00	  583.54	-1770.79	  409.97
     86.9700	  595.00	  592.28	-1757.53	  409.90
     87.0700	  631.00	  600.95	-1730.20	  409.84
     87.1700	  655.00	  608.90	-1714.15	  409.77
     87.2700	  621.00	  615.40	-1754.65	  409.70
     87.3700	  629.00	  619.71	-1750.96	  409.63
     87.4700	  653.00	  621.29	-1728.54	  409.56
     87.5700	  664.00	  619.92	-1716.17	  409.49
     87.6700	  680.00	  615.84	-1696.09	  409.41
     87.7700	  651.00	  609.66	-1718.91	  409.34
     87.8700	  613.00	  602.14	-1749.39	  409.26
     87.9700	  638.00	  594.14	-1716.39	  409.18
     88.0700	  615.00	  586.40	-1731.65	  409.10
     88.1700	  597.00	  579.55	-1742.80	  409.01
     88.2700	  576.00	  574.10	-1758.35	  408.93
     88.3700	  584.00	  570.37	-1746.62	  408.84
     88.4700	  599.00	  568.52	-1729.77	  408.75
     88.5700	  576.00	  568.56	-1752.81	  408.66
     88.6700	  584.00	  570.33	-1746.58	  408.57
     88.7700	  609.00	  573.57	-1724.82	  408.48
     88.8700	  567.00	  577.91	-1771.16	  408.39
     88.9700	  533.00	  582.90	-1810.15	  408.29
     89.0700	  605.00	  588.00	-1743.25	  408.19
     89.1700	  587.00	  592.64	-1765.89	  408.09
     89.2700	  587.00	  596.25	-1769.50	  407.99
     89.3700	  630.00	  598.32	-1728.57	  407.89
     89.4700	  611.00	  598.53	-1747.78	  407.78
     89.5700	  590.00	  596.79	-1767.04	  407.68
     89.6700	  546.00	  593.31	-1807.56	  407.57
     89.7700	  570.00	  588.48	-1778.73	  407.46
     89.8700	  565.00	  582.79	-1778.04	  407.35
     89.9700	  555.00	  576.71	-1781.96	  407.23
     90.0700	  564.00	  570.64	-1766.89	  407.12
     90.1700	  563.00	  564.91	-1762.16	  407.00
     90.2700	  481.00	  559.76	-1839.01	  406.89
     90.3700	  496.00	  555.32	-1819.57	  406.77
     90.4700	  555.00	  551.67	-1756.92	  406.64
     90.5700	  540.00	  548.79	-1769.04	  406.52
     90.6700	  553.00	  546.62	-1753.87	  406.40
     90.7700	  519.00	  545.09	-1786.34	  406.27
     90.8700	  529.00	  544.11	-1775.36	  406.14
     90.9700	  527.00	  543.59	-1776.84	  406.01
     91.0700	  500.00	  543.47	-1803.72	  405.88
     91.1700	  532.00	  543.73	-1771.98	  405.75
     91.2700	  488.00	  544.37	-1816.62	  405.62
     91.3700	  513.00	  545.43	-1792.68	  405.48
     91.4700	  501.00	  546.99	-1806.24	  405.34
     91.5700	  560.00	  549.19	-1749.44	  405.21
     91.6700	  500.00	  552.17	-1812.42	  405.07
     91.7700	  532.00	  556.15	-1784.40	  404.92
     91.8700	  555.00	  561.11	-1766.36	  404.78
     91.9700	  576.00	  567.69	-1751.94	  404.64
     92.0700	  558.00	  575.88	-1778.12	  404.49
     92.1700	  588.00	  585.78	-1758.03	  404.34
     92.2700	  584.00	  597.48	-1773.73	  404.19
     92.3700	  583.00	  610.90	-1788.15	  404.04
     92.4700	  679.00	  625.88	-1707.13	  403.89
     92.5700	  650.00	  642.09	-1752.34	  403.73
     92.6700	  689.00	  659.07	-1730.32	  403.58
     92.7700	  653.00	  676.25	-1783.50	  403.42
     92.8700	  686.00	  692.93	-1767.18	  403.26
     92.9700	  764.00	  708.41	-1704.66	  403.10
     93.0700	  778.00	  722.08	-1704.33	  402.94
     93.1700	  779.00	  733.63	-1714.88	  402.77
     93.2700	  842.00	  743.14	-1661.39	  402.61
     93.3700	  765.00	  751.03	-1746.28	  402.44
     93.4700	  825.00	  757.98	-1693.23	  402.27
     93.5700	  830.00	  764.67	-1694.92	  402.10
     93.6700	  827.00	  771.76	-1705.01	  401.93
     93.7700	  825.00	  779.82	-1715.07	  401.76
     93.8700	  806.00	  789.35	-1743.60	  401.58
     93.9700	  800.00	  800.79	-1761.04	  401.41
     94.0700	  882.00	  814.50	-1692.75	  401.23
     94.1700	  839.00	  830.56	-1751.81	  401.05
     94.2700	  832.00	  848.69	-1776.94	  400.87
     94.3700	  901.00	  868.17	-1727.42	  400.69
     94.4700	  894.00	  887.81	-1754.06	  400.51
     94.5700	  950.00	  906.00	-1716.25	  400.32
     94.6700	  931.00	  920.84	-1750.09	  400.14
     94.7700	  921.00	  930.35	-1769.60	  399.95
     94.8700	  852.00	  932.85	-1841.10	  399.76
     94.9700	  923.00	  927.38	-1764.63	  399.57
     95.0700	  870.00	  913.97	-1804.22	  399.38
     95.1700	  843.00	  893.64	-1810.89	  399.19
     95.2700	  888.00	  868.12	-1740.37	  398.99
     95.3700	  769.00	  839.45	-1830.70	  398.80
     95.4700	  822.00	  809.79	-1748.04	  398.60
     95.5700	  787.00	  781.15	-1754.40	  398.40
     95.6700	  710.00	  755.40	-1805.65	  398.20
     95.7700	  714.00	  734.24	-1780.49	  398.00
     95.8700	  734.00	  719.15	-1745.40	  397.80
     95.9700	  722.00	  711.45	-1749.70	  397.60
     96.0700	  669.00	  712.27	-1803.52	  397.39
     96.1700	  714.00	  722.58	-1768.83	  397.19
     96.2700	  663.00	  743.09	-1840.34	  396.98
     96.3700	  701.00	  774.30	-1833.55	  396.77
     96.4700	  810.00	  816.34	-1766.59	  396.56
     96.5700	  897.00	  868.91	-1732.16	  396.35
     96.6700	  937.00	  931.12	-1754.37	  396.14
     96.7700	 1018.00	 1001.47	-1743.72	  395.92
     96.8700	 1059.00	 1077.75	-1779.00	  395.71
     96.9700	 1106.00	 1156.97	-1811.22	  395.49
     97.0700	 1271.00	 1235.50	-1724.75	  395.27
     97.1700	 1248.00	 1309.06	-1821.31	  395.06
     97.2700	 1352.00	 1373.00	-1781.25	  394.84
     97.3700	 1460.00	 1422.68	-1722.93	  394.62
     97.4700	 1438.00	 1454.09	-1776.34	  394.39
     97.5700	 1441.00	 1464.58	-1783.83	  394.17
     97.6700	 1428.00	 1453.53	-1785.78	  393.95
     97.7700	 1469.00	 1422.41	-1713.66	  393.72
     97.8700	 1344.00	 1374.38	-1790.63	  393.49
     97.9700	 1275.00	 1313.61	-1798.86	  393.27
     98.0700	 1244.00	 1244.64	-1760.89	  393.04
     98.1700	 1189.00	 1171.89	-1743.14	  392.81
     98.2700	 1108.00	 1099.43	-1751.68	  392.58
     98.3700	 1063.00	 1030.78	-1728.03	  392.34
     98.4700	 1022.00	  968.90	-1707.15	  392.11
     98.5700	  883.00	  916.15	-1793.40	  391.88
     98.6700	  820.00	  874.35	-1814.60	  391.64
     98.7700	  810.00	  844.86	-1795.11	  391.41
     98.8700	  808.00	  828.60	-1780.85	  391.17
     98.9700	  801.00	  826.25	-1785.50	  390.93
     99.0700	  797.00	  838.18	-1801.43	  390.69
     99.1700	  829.00	  864.63	-1795.88	  390.45
     99.2700	  895.00	  905.60	-1770.85	  390.21
     99.3700	  904.00	  960.88	-1817.13	  389.97
     99.4700	  952.00	 1029.95	-1838.20	  389.73
     99.5700	 1069.00	 1111.92	-1803.17	  389.48
     99.6700	 1220.00	 1205.43	-1745.68	  389.24
     99.7700	 1321.00	 1308.49	-1747.74	  388.99
     99.8700	 1434.00	 1418.46	-1744.71	  388.75
     99.9700	 1527.00	 1531.94	-1765.19	  388.50
    100.0700	 1686.00	 1644.86	-1719.11	  388.25
    100.1700	 1767.00	 1752.66	-1745.91	  388.00
    100.2700	 1858.00	 1850.70	-1752.95	  387.75
    100.3700	 2024.00	 1934.77	-1671.02	  387.50
    100.4700	 2057.00	 2001.48	-1704.73	  387.25
    100.5700	 2050.00	 2048.47	-1758.72	  387.00
    100.6700	 2109.00	 2074.19	-1725.44	  386.75
    100.7700	 2089.00	 2077.81	-1749.06	  386.49
    100.8700	 2087.00	 2059.13	-1732.38	  386.24
    100.9700	 2091.00	 2018.78	-1688.03	  385.99
    101.0700	 1978.00	 1958.67	-1740.92	  385.73
    101.1700	 1890.00	 1882.09	-1752.34	  385.47
    101.2700	 1850.00	 1793.58	-1703.83	  385.22
    101.3700	 1678.00	 1698.29	-1780.54	  384.96
    101.4700	 1576.00	 1601.43	-1785.68	  384.70
    101.5700	 1539.00	 1507.66	-1728.91	  384.44
    101.6700	 1462.00	 1420.78	-1719.03	  384.18
    101.7700	 1353.00	 1343.56	-1750.81	  383.93
    101.8700	 1307.00	 1277.66	-1730.91	  383.66
    101.9700	 1266.00	 1223.64	-1717.89	  383.40
    102.0700	 1155.00	 1181.03	-1786.28	  383.14
    102.1700	 1150.00	 1148.46	-1758.71	  382.88
    102.2700	 1111.00	 1123.82	-1773.07	  382.62
    102.3700	 1090.00	 1104.49	-1774.74	  382.36
    102.4700	 1075.00	 1087.65	-1772.90	  382.09
    102.5700	 1056.00	 1070.58	-1774.83	  381.83
    102.6700	 1019.00	 1051.05	-1792.30	  381.57
    102.7700	  969.00	 1027.57	-1818.82	  381.30
    102.8700	  957.00	  999.53	-1802.78	  381.04
    102.9700	  960.00	  967.12	-1767.37	  380.77
    103.0700	  903.00	  931.12	-1788.37	  380.51
    103.1700	  832.00	  892.67	-1820.92	  380.24
    103.2700	  863.00	  853.01	-1750.26	  379.98
    103.3700	  899.00	  813.41	-1674.66	  379.71
    103.4700	  795.00	  775.01	-1740.26	  379.45
    103.5700	  769.00	  738.78	-1730.03	  379.18
    103.6700	  686.00	  705.48	-1779.73	  378.91
    103.7700	  713.00	  675.63	-1722.88	  378.65
    103.8700	  658.00	  649.53	-1751.78	  378.38
    103.9700	  607.00	  627.27	-1780.52	  378.11
    104.0700	  602.00	  608.74	-1766.99	  377.85
    104.1700	  588.00	  593.72	-1765.97	  377.58
    104.2700	  579.00	  581.88	-1763.13	  377.31
    104.3700	  560.00	  572.83	-1773.08	  377.04
    104.4700	  569.00	  566.19	-1757.44	  376.78
    104.5700	  574.00	  561.56	-1747.81	  376.51
    104.6700	  521.00	  558.59	-1797.84	  376.24
    104.7700	  543.00	  556.94	-1774.19	  375.97
    104.8700	  503.00	  556.35	-1813.60	  375.71
    104.9700	  555.00	  556.58	-1761.83	  375.44
    105.0700	  540.00	  557.46	-1777.71	  375.17
    105.1700	  549.00	  558.86	-1770.11	  374.91
    105.2700	  529.00	  560.65	-1791.90	  374.64
    105.3700	  536.00	  562.81	-1787.06	  374.37
    105.4700	  545.00	  565.33	-1780.58	  374.11
    105.5700	  541.00	  568.22	-1787.47	  373.84
    105.6700	  534.00	  571.58	-1797.83	  373.58
    105.7700	  616.00	  575.50	-1719.75	  373.31
    105.8700	  603.00	  580.10	-1737.35	  373.04
    105.9700	  587.00	  585.51	-1758.76	  372.78
    106.0700	  594.00	  591.81	-1758.06	  372.52
    106.1700	  548.00	  599.05	-1811.30	  372.25
    106.2700	  604.00	  607.22	-1763.47	  371.99
    106.3700	  599.00	  616.23	-1777.48	  371.72
    106.4700	  603.00	  625.93	-1783.18	  371.46
    106.5700	  614.00	  636.08	-1782.33	  371.20
    106.6700	  643.00	  646.41	-1763.66	  370.94
    106.7700	  663.00	  656.54	-1753.79	  370.68
    106.8700	  644.00	  666.09	-1782.34	  370.41
    106.9700	  645.00	  674.65	-1789.90	  370.15
    107.0700	  643.00	  681.83	-1799.08	  369.90
    107.1700	  687.00	  687.33	-1760.58	  369.64
    107.2700	  727.00	  690.95	-1724.20	  369.38
    107.3700	  664.00	  692.69	-1788.94	  369.12
    107.4700	  683.00	  692.73	-1769.98	  368.86
    107.5700	  659.00	  691.39	-1792.64	  368.61
    107.6700	  681.00	  689.10	-1768.35	  368.35
    107.7700	  709.00	  686.32	-1737.57	  368.10
    107.8700	  662.00	  683.49	-1781.74	  367.84
    107.9700	  648.00	  680.98	-1793.23	  367.59
    108.0700	  687.00	  679.06	-1752.31	  367.34
    108.1700	  668.00	  677.89	-1770.14	  367.09
    108.2700	  694.00	  677.51	-1743.76	  366.84
    108.3700	  648.00	  677.84	-1790.09	  366.59
    108.4700	  709.00	  678.68	-1729.93	  366.34
    108.5700	  700.00	  679.74	-1739.99	  366.09
    108.6700	  705.00	  680.65	-1735.90	  365.85
    108.7700	  696.00	  680.99	-1745.24	  365.60
    108.8700	  607.00	  680.37	-1833.62	  365.36
    108.9700	  717.00	  678.46	-1721.71	  365.11
    109.0700	  669.00	  675.01	-1766.26	  364.87
    109.1700	  677.00	  669.95	-1753.20	  364.63
    109.2700	  665.00	  663.32	-1758.57	  364.39
    109.3700	  689.00	  655.33	-1726.58	  364.15
    109.4700	  665.00	  646.23	-1741.48	  363.92
    109.5700	  632.00	  636.35	-1764.60	  363.68
    109.6700	  629.00	  626.03	-1757.28	  363.45
    109.7700	  632.00	  615.60	-1743.85	  363.22
    109.8700	  596.00	  605.36	-1769.61	  362.98
    109.9700	  566.00	  595.58	-1789.83	  362.76
    110.0700	  584.00	  586.48	-1762.73	  362.53
    110.1700	  634.00	  578.20	-1704.45	  362.30
    110.2700	  572.00	  570.88	-1759.13	  362.07
    110.3700	  580.00	  564.57	-1744.82	  361.85
    110.4700	  606.00	  559.28	-1713.53	  361.63
    110.5700	  578.00	  554.99	-1737.24	  361.41
    110.6700	  559.00	  551.65	-1752.90	  361.19
    110.7700	  551.00	  549.18	-1758.43	  360.97
    110.8700	  547.00	  547.50	-1760.75	  360.76
    110.9700	  545.00	  546.50	-1761.75	  360.54
    111.0700	  508.00	  546.11	-1798.36	  360.33
    111.1700	  560.00	  546.24	-1746.49	  360.12
    111.2700	  523.00	  546.80	-1784.05	  359.91
    111.3700	  536.00	  547.73	-1771.98	  359.71
    111.4700	  560.00	  548.98	-1749.23	  359.50
    111.5700	  507.00	  550.51	-1803.76	  359.30
    111.6700	  502.00	  552.27	-1810.52	  359.10
    111.7700	  586.00	  554.25	-1728.50	  358.90
    111.8700	  496.00	  556.43	-1820.68	  358.71
    111.9700	  576.00	  558.81	-1743.06	  358.51
    112.0700	  634.00	  561.40	-1687.65	  358.32
    112.1700	  596.00	  564.19	-1728.44	  358.13
    112.2700	  551.00	  567.22	-1776.47	  357.95
    112.3700	  572.00	  570.52	-1758.77	  357.76
    112.4700	  570.00	  574.11	-1764.36	  357.58
    112.5700	  638.00	  578.06	-1700.31	  357.40
    112.6700	  612.00	  582.42	-1730.67	  357.22
    112.7700	  595.00	  587.28	-1752.53	  357.04
    112.8700	  638.00	  592.75	-1715.00	  356.87
    112.9700	  660.00	  598.97	-1699.22	  356.70
    113.0700	  646.00	  606.11	-1720.36	  356.53
    113.1700	  699.00	  614.44	-1675.69	  356.37
    113.2700	  715.00	  624.26	-1669.51	  356.20
    113.3700	  692.00	  635.97	-1704.22	  356.04
    113.4700	  796.00	  650.06	-1614.31	  355.89
    113.5700	  776.00	  667.17	-1651.42	  355.73
    113.6700	  805.00	  688.09	-1643.34	  355.58
    113.7700	  872.00	  713.76	-1602.01	  355.43
    113.8700	  915.00	  745.35	-1590.60	  355.28
    113.9700	  963.00	  784.21	-1581.46	  355.14
    114.0700	 1004.00	  831.92	-1588.17	  355.00
    114.1700	 1059.00	  890.27	-1591.52	  354.86
    114.2700	 1070.00	  961.28	-1651.53	  354.73
    114.3700	 1179.00	 1047.13	-1628.38	  354.59
    114.4700	 1355.00	 1150.14	-1555.39	  354.47
    114.5700	 1367.00	 1272.66	-1665.91	  354.34
    114.6700	 1547.00	 1417.01	-1630.26	  354.22
    114.7700	 1675.00	 1585.37	-1670.62	  354.10
    114.8700	 1817.00	 1779.67	-1722.92	  353.98
    114.9700	 2146.00	 2001.35	-1615.60	  353.87
    115.0700	 2307.00	 2251.24	-1704.49	  353.76
    115.1700	 2576.00	 2529.41	-1713.66	  353.66
    115.2700	 2801.00	 2835.07	-1794.32	  353.55
    115.3700	 3175.00	 3166.45	-1751.70	  353.45
    115.4700	 3407.00	 3520.49	-1873.74	  353.36
    115.5700	 3774.00	 3892.99	-1879.24	  353.27
    115.6700	 4079.00	 4278.45	-1959.70	  353.18
    115.7700	 4309.00	 4670.24	-2121.49	  353.09
    115.8700	 4848.00	 5060.52	-1972.77	  353.01
    115.9700	 5191.00	 5440.26	-2009.51	  352.93
    116.0700	 5545.00	 5799.53	-2014.78	  352.86
    116.1700	 5911.00	 6127.69	-1976.94	  352.79
    116.2700	 6343.00	 6413.94	-1831.19	  352.72
    116.3700	 6714.00	 6647.76	-1694.01	  352.66
    116.4700	 6785.00	 6819.64	-1794.89	  352.60
    116.5700	 7029.00	 6922.14	-1653.39	  352.55
    116.6700	 6991.00	 6950.67	-1719.92	  352.50
    116.7700	 7013.00	 6904.12	-1651.37	  352.45
    116.8700	 7041.00	 6784.93	-1504.18	  352.41
    116.9700	 6699.00	 6598.84	-1660.09	  352.37
    117.0700	 6418.00	 6354.16	-1696.41	  352.34
    117.1700	 6106.00	 6060.83	-1715.08	  352.31
    117.2700	 5743.00	 5729.52	-1746.77	  352.29
    117.3700	 5311.00	 5370.87	-1820.12	  352.26
    117.4700	 4920.00	 4995.22	-1835.47	  352.25
    117.5700	 4619.00	 4612.02	-1753.27	  352.24
    117.6700	 4310.00	 4229.76	-1680.01	  352.23
    117.7700	 4005.00	 3855.65	-1610.90	  352.23
    117.8700	 3575.00	 3495.70	-1680.95	  352.23
    117.9700	 3258.00	 3154.77	-1657.02	  352.23
    118.0700	 2925.00	 2836.43	-1671.68	  352.25
    118.1700	 2626.00	 2543.19	-1677.44	  352.26
    118.2700	 2231.00	 2276.36	-1805.61	  352.28
    118.3700	 2000.00	 2036.36	-1796.61	  352.31
    118.4700	 1738.00	 1822.92	-1845.17	  352.34
    118.5700	 1589.00	 1635.05	-1806.30	  352.37
    118.6700	 1357.00	 1471.32	-1874.57	  352.41
    118.7700	 1251.00	 1329.88	-1839.13	  352.46
    118.8700	 1124.00	 1208.66	-1844.91	  352.51
    118.9700	 1018.00	 1105.56	-1847.81	  352.56
    119.0700	  992.00	 1018.41	-1786.66	  352.62
    119.1700	  888.00	  945.15	-1817.40	  352.69
    119.2700	  796.00	  883.83	-1848.08	  352.76
    119.3700	  792.00	  832.64	-1800.89	  352.84
    119.4700	  691.00	  790.02	-1859.27	  352.92
    119.5700	  675.00	  754.56	-1839.81	  353.01
    119.6700	  687.00	  725.08	-1798.33	  353.10
    119.7700	  635.00	  700.55	-1825.80	  353.20
    119.8700	  616.00	  680.12	-1824.37	  353.30
    119.9700	  636.00	  663.07	-1787.32	  353.41
    120.0700	  617.00	  648.83	-1792.08	  353.53
    120.1700	  594.00	  636.92	-1803.17	  353.65
    120.2700	  613.00	  626.98	-1774.23	  353.78
    120.3700	  640.00	  618.68	-1738.93	  353.91
    120.4700	  532.00	  611.79	-1840.04	  354.05
    120.5700	  615.00	  606.11	-1751.36	  354.19
    120.6700	  555.00	  601.51	-1806.76	  354.34
    120.7700	  537.00	  597.85	-1821.10	  354.50
    120.8700	  545.00	  595.04	-1810.29	  354.66
    120.9700	  583.00	  593.02	-1770.27	  354.83
    121.0700	  586.00	  591.73	-1765.98	  355.01
    121.1700	  562.00	  591.11	-1789.36	  355.19
    121.2700	  582.00	  591.13	-1769.38	  355.38
    121.3700	  562.00	  591.74	-1789.99	  355.57
    121.4700	  603.00	  592.89	-1750.14	  355.77
    121.5700	  605.00	  594.55	-1749.80	  355.98
    121.6700	  558.00	  596.65	-1798.90	  356.19
    121.7700	  581.00	  599.11	-1778.36	  356.41
    121.8700	  579.00	  601.91	-1783.16	  356.64
    121.9700	  580.00	  604.94	-1785.19	  356.88
    122.0700	  609.00	  608.12	-1759.37	  357.12
    122.1700	  609.00	  611.35	-1762.60	  357.36
    122.2700	  612.00	  614.53	-1762.78	  357.62
    122.3700	  630.00	  617.56	-1747.81	  357.88
    122.4700	  620.00	  620.31	-1760.56	  358.15
    122.5700	  666.00	  622.72	-1716.97	  358.43
    122.6700	  659.00	  624.67	-1725.92	  358.71
    122.7700	  682.00	  626.09	-1704.34	  359.00
    122.8700	  643.00	  626.92	-1744.17	  359.30
    122.9700	  628.00	  627.13	-1759.38	  359.60
    123.0700	  634.00	  626.71	-1752.96	  359.91
    123.1700	  665.00	  625.68	-1720.93	  360.23
    123.2700	  638.00	  624.08	-1746.33	  360.56
    123.3700	  666.00	  621.98	-1716.23	  360.90
    123.4700	  656.00	  619.42	-1723.67	  361.24
    123.5700	  610.00	  616.49	-1766.74	  361.59
    123.6700	  633.00	  613.26	-1740.51	  361.95
    123.7700	  612.00	  609.82	-1758.07	  362.31
    123.8700	  582.00	  606.22	-1784.47	  362.69
    123.9700	  590.00	  602.54	-1772.79	  363.07
    124.0700	  625.00	  598.85	-1734.10	  363.46
    124.1700	  628.00	  595.19	-1727.44	  363.86
    124.2700	  638.00	  591.63	-1713.88	  364.26
    124.3700	  609.00	  588.20	-1739.45	  364.68
    124.4700	  631.00	  584.93	-1714.18	  365.10
    124.5700	  583.00	  581.85	-1759.10	  365.53
    124.6700	  539.00	  578.98	-1800.23	  365.97
    124.7700	  577.00	  576.34	-1759.59	  366.42
    124.8700	  539.00	  573.94	-1795.19	  366.88
    124.9700	  628.00	  484.75	-1617.00	  367.34
    125.0700	  540.00	  485.22	-1760.25	  367.81
    125.1700	  538.00	  485.71	-1760.25	  368.30
    125.2700	  595.00	  486.20	-1760.25	  368.79
    125.3700	  584.00	  486.70	-1760.25	  369.29
    125.4700	  579.00	  487.21	-1760.25	  369.80
    125.5700	  557.00	  487.72	-1760.25	  370.32
    125.6700	  546.00	  488.25	-1760.25	  370.84
    125.7700	  536.00	  488.79	-1760.25	  371.38
    125.8700	  576.00	  489.33	-1760.25	  371.92
    125.9700	  558.00	  489.89	-1760.25	  372.48
    126.0700	  584.00	  490.45	-1760.25	  373.04
    126.1700	  529.00	  491.03	-1760.25	  373.62
    126.2700	  561.00	  491.61	-1760.25	  374.20
    126.3700	  653.00	  492.20	-1760.25	  374.79
    126.4700	  614.00	  492.80	-1760.25	  375.39
    126.5700	  584.00	  493.41	-1760.25	  376.01
    126.6700	  569.00	  494.04	-1760.25	  376.63
    126.7700	  622.00	  494.67	-1760.25	  377.26
    126.8700	  572.00	  495.31	-1760.25	  377.90
    126.9700	  656.00	  495.96	-1760.25	  378.55
    127.0700	  598.00	  496.62	-1760.25	  379.21
    127.1700	  598.00	  497.29	-1760.25	  379.88
    127.2700	  639.00	  497.97	-1760.25	  380.57
    127.3700	  662.00	  498.67	-1760.25	  381.26
    127.4700	  624.00	  499.37	-1760.25	  381.96
    127.5700	  695.00	  500.08	-1760.25	  382.67
    127.6700	  703.00	  500.80	-1760.25	  383.39
    127.7700	  659.00	  501.54	-1760.25	  384.13
    127.8700	  736.00	  502.28	-1760.25	  384.87
    127.9700	  751.00	  503.04	-1760.25	  385.63
    128.0700	  737.00	  503.80	-1760.25	  386.39
    128.1700	  778.00	  504.58	-1760.25	  387.17
    128.2700	  760.00	  505.36	-1760.25	  387.96
    128.3700	  784.00	  506.16	-1760.25	  388.75
    128.4700	  763.00	  506.97	-1760.25	  389.56
    128.5700	    0.00	  507.79	-1760.25	  390.38
    128.6700	    0.00	  508.62	-1760.25	  391.22
     12.3033	        	        	        	        	       0	(  0  0  2)	  0  1
     24.8848	        	        	        	        	       0	(  0  0  4)	  0  1
     28.3300	        	        	        	        	       0	(  1  0  0)	  0  1
     29.0270	        	        	        	        	       0	(  1  0  1)	  0  1
     31.0327	        	        	        	        	       0	(  1  0  2)	  0  1
     34.1404	        	        	        	        	       0	(  1  0  3)	  0  1
     37.7822	        	        	        	        	       0	(  0  0  6)	  0  1
     38.1166	        	        	        	        	       0	(  1  0  4)	  0  1
     42.7657	        	        	        	        	       0	(  1  0  5)	  0  1
     47.9487	        	        	        	        	       0	(  1  0  6)	  0  1
     50.2671	        	        	        	        	       0	(  1  1  0)	  0  1
     51.2017	        	        	        	        	       0	(  0  0  8)	  0  1
     51.9897	        	        	        	        	       0	(  1  1  2)	  0  1
     53.5779	        	        	        	        	       0	(  1  0  7)	  0  1
     56.9363	        	        	        	        	       0	(  1  1  4)	  0  1
     58.7641	        	        	        	        	       0	(  2  0  0)	  0  1
     59.1556	        	        	        	        	       0	(  2  0  1)	  0  1
     59.6071	        	        	        	        	       0	(  1  0  8)	  0  1
     60.3207	        	        	        	        	       0	(  2  0  2)	  0  1
     62.2334	        	        	        	        	       0	(  2  0  3)	  0  1
     64.6291	        	        	        	        	       0	(  1  1  6)	  0  1
     64.8568	        	        	        	        	       0	(  2  0  4)	  0  1
     65.4279	        	        	        	        	       0	(  0  0 10)	  0  1
     66.0219	        	        	        	        	       0	(  1  0  9)	  0  1
     68.1502	        	        	        	        	       0	(  2  0  5)	  0  1
     72.0767	        	        	        	        	       0	(  2  0  6)	  0  1
     72.8364	        	        	        	        	       0	(  1  0 10)	  0  1
     74.6643	        	        	        	        	       0	(  1  1  8)	  0  1
     76.6096	        	        	        	        	       0	(  2  0  7)	  0  1
     80.0922	        	        	        	        	       0	(  1  0 11)	  0  1
     80.9045	        	        	        	        	       0	(  0  0 12)	  0  1
     81.0056	        	        	        	        	       0	(  2  1  0)	  0  1
     81.3454	        	        	        	        	       0	(  2  1  1)	  0  1
     81.7385	        	        	        	        	       0	(  2  0  8)	  0  1
     82.3629	        	        	        	        	       0	(  2  1  2)	  0  1
     84.0538	        	        	        	        	       0	(  2  1  3)	  0  1
     86.4128	        	        	        	        	       0	(  2  1  4)	  0  1
     86.9323	        	        	        	        	       0	(  1  1 10)	  0  1
     87.4750	        	        	        	        	       0	(  2  0  9)	  0  1
     87.8643	        	        	        	        	       0	(  1  0 12)	  0  1
     89.4377	        	        	        	        	       0	(  2  1  5)	  0  1
     93.1341	        	        	        	        	       0	(  2  1  6)	  0  1
     93.8605	        	        	        	        	       0	(  2  0 10)	  0  1
     94.8947	        	        	        	        	       0	(  3  0  0)	  0  1
     95.2319	        	        	        	        	       0	(  3  0  1)	  0  1
     96.2449	        	        	        	        	       0	(  3  0  2)	  0  1
     96.2748	        	        	        	        	       0	(  1  0 13)	  0  1
     97.5214	        	        	        	        	       0	(  2  1  7)	  0  1
     97.9377	        	        	        	        	       0	(  3  0  3)	  0  1
     98.4383	        	        	        	        	       0	(  0  0 14)	  0  1
    100.3200	        	        	        	        	       0	(  3  0  4)	  0  1
    100.9800	        	        	        	        	       0	(  2  0 11)	  0  1
    101.7979	        	        	        	        	       0	(  1  1 12)	  0  1
    102.6423	        	        	        	        	       0	(  2  1  8)	  0  1
    103.4107	        	        	        	        	       0	(  3  0  5)	  0  1
    105.5240	        	        	        	        	       0	(  1  0 14)	  0  1
    107.2447	        	        	        	        	       0	(  3  0  6)	  0  1
    108.5772	        	        	        	        	       0	(  2  1  9)	  0  1
    108.9884	        	        	        	        	       0	(  2  0 12)	  0  1
    111.8835	        	        	        	        	       0	(  3  0  7)	  0  1
    115.4716	        	        	        	        	       0	(  2  1 10)	  0  1
    115.9629	        	        	        	        	       0	(  1  0 15)	  0  1
    116.6204	        	        	        	        	       0	(  2  2  0)	  0  1
    117.4351	        	        	        	        	       0	(  3  0  8)	  0  1
    118.1352	        	        	        	        	       0	(  2  2  2)	  0  1
    118.1689	        	        	        	        	       0	(  2  0 13)	  0  1
    119.9170	        	        	        	        	       0	(  0  0 16)	  0  1
    120.6343	        	        	        	        	       0	(  1  1 14)	  0  1
    122.8193	        	        	        	        	       0	(  2  2  4)	  0  1
    123.5954	        	        	        	        	       0	(  2  1 11)	  0  1
    124.0927	        	        	        	        	       0	(  3  0  9)	  0  1
    124.6861	        	        	        	        	       0	(  3  1  0)	  0  1
    125.0962	        	        	        	        	       0	(  3  1  1)	  0  1
    126.3393	        	        	        	        	       0	(  3  1  2)	  0  1
    128.2994	        	        	        	        	       0	(  1  0 16)	  0  1
    128.4570	        	        	        	        	       0	(  3  1  3)	  0  1
    129.0934	        	        	        	        	       0	(  2  0 14)	  0  1
    131.2566	        	        	        	        	       0	(  2  2  6)	  0  1
    131.5320	        	        	        	        	       0	(  3  1  4)	  0  1
    132.2301	        	        	        	        	       0	(  3  0 10)	  0  1
    133.5032	        	        	        	        	       0	(  2  1 12)	  0  1
    135.7179	        	        	        	        	       0	(  3  1  5)	  0  1
    141.3118	        	        	        	        	       0	(  3  1  6)	  0  1
    142.7041	        	        	        	        	       0	(  3  0 11)	  0  1
    143.2245	        	        	        	        	       0	(  2  0 15)	  0  1
    144.4568	        	        	        	        	       0	(  1  0 17)	  0  1
    145.4860	        	        	        	        	       0	(  2  2  8)	  0  1
    146.6515	        	        	        	        	       0	(  2  1 13)	  0  1
    148.9828	        	        	        	        	       0	(  3  1  7)	  0  1
    149.5507	        	        	        	        	       0	(  1  1 16)	  0  1
    153.9394	        	        	        	        	       0	(  0  0 18)	  0  1
    158.5734	        	        	        	        	       0	(  3  0 12)	  0  1
    158.8502	        	        	        	        	       0	(  4  0  0)	  0  1
    159.8074	        	        	        	        	       0	(  4  0  1)	  0  1
    160.9739	        	        	        	        	       0	(  3  1  8)	  0  1
    162.9878	        	        	        	        	       0	(  4  0  2)	  0  1
    169.6262	        	        	        	        	       0	(  2  0 16)	  0  1
    170.3444	        	        	        	        	       0	(  4  0  3)	  0  1
    174.0555	        	        	        	        	       0	(  2  1 14)	  0  1
