MSG Master    CELL:    5.90817   5.90817  23.22030   90.0000   90.0000  120.0000   SPGR: P 63/m m c             TEMP:    889.95
  1   1280     2.52000     0.00000    -0.12893     0.00000     0.00000    0
    98     0     2
       0.00000      10.00000
     125.00000     130.00000
 2Theta	Yobs	Ycal	Yobs-Ycal	Backg	Posr	(hkl)	K
      0.7700	    0.00	  454.71	-1741.75	  346.46
      0.8700	    0.00	  456.45	-1741.75	  348.21
      0.9700	   46.00	  458.17	-1741.75	  349.93
      1.0700	   35.00	  459.87	-1741.75	  351.63
      1.1700	   31.00	  461.56	-1741.75	  353.32
      1.2700	   52.00	  463.22	-1741.75	  354.98
      1.3700	   49.00	  464.87	-1741.75	  356.63
      1.4700	   82.00	  466.50	-1741.75	  358.26
      1.5700	  299.00	  468.11	-1741.75	  359.87
      1.6700	  457.00	  469.70	-1741.75	  361.46
      1.7700	  547.00	  471.28	-1741.75	  363.03
      1.8700	  637.00	  472.83	-1741.75	  364.59
      1.9700	  710.00	  474.37	-1741.75	  366.13
      2.0700	  769.00	  475.89	-1741.75	  367.65
      2.1700	  773.00	  477.39	-1741.75	  369.15
      2.2700	  761.00	  478.88	-1741.75	  370.63
      2.3700	  761.00	  480.34	-1741.75	  372.10
      2.4700	  727.00	  481.79	-1741.75	  373.55
      2.5700	  716.00	  483.22	-1741.75	  374.98
      2.6700	  647.00	  484.64	-1741.75	  376.40
      2.7700	  669.00	  486.04	-1741.75	  377.80
      2.8700	  635.00	  487.42	-1741.75	  379.18
      2.9700	  628.00	  488.78	-1741.75	  380.54
      3.0700	  606.00	  490.13	-1741.75	  381.89
      3.1700	  614.00	  491.46	-1741.75	  383.22
      3.2700	  674.00	  492.77	-1741.75	  384.53
      3.3700	  759.00	  494.07	-1741.75	  385.83
      3.4700	  855.00	  495.35	-1741.75	  387.11
      3.5700	  923.00	  496.62	-1741.75	  388.38
      3.6700	 1097.00	  497.87	-1741.75	  389.63
      3.7700	 1086.00	  499.10	-1741.75	  390.86
      3.8700	 1092.00	  500.32	-1741.75	  392.08
      3.9700	 1131.00	  501.52	-1741.75	  393.28
      4.0700	 1206.00	  502.70	-1741.75	  394.46
      4.1700	 1306.00	  503.87	-1741.75	  395.63
      4.2700	 1276.00	  505.03	-1741.75	  396.79
      4.3700	 1246.00	  506.17	-1741.75	  397.93
      4.4700	 1184.00	  507.29	-1741.75	  399.05
      4.5700	 1128.00	  508.40	-1741.75	  400.16
      4.6700	 1141.00	  509.49	-1741.75	  401.25
      4.7700	 1137.00	  510.57	-1741.75	  402.33
      4.8700	 1083.00	  511.63	-1741.75	  403.39
      4.9700	 1042.00	  512.68	-1741.75	  404.44
      5.0700	 1070.00	  513.72	-1741.75	  405.48
      5.1700	  996.00	  514.74	-1741.75	  406.50
      5.2700	  908.00	  515.74	-1741.75	  407.50
      5.3700	  925.00	  516.73	-1741.75	  408.49
      5.4700	  907.00	  517.71	-1741.75	  409.47
      5.5700	  896.00	  518.67	-1741.75	  410.43
      5.6700	  859.00	  519.62	-1741.75	  411.38
      5.7700	  840.00	  520.56	-1741.75	  412.31
      5.8700	  879.00	  521.48	-1741.75	  413.23
      5.9700	  831.00	  522.38	-1741.75	  414.14
      6.0700	  808.00	  523.28	-1741.75	  415.03
      6.1700	  815.00	  524.15	-1741.75	  415.91
      6.2700	  777.00	  525.02	-1741.75	  416.78
      6.3700	  814.00	  525.87	-1741.75	  417.63
      6.4700	  764.00	  526.71	-1741.75	  418.47
      6.5700	  830.00	  527.54	-1741.75	  419.30
      6.6700	  729.00	  528.35	-1741.75	  420.11
      6.7700	  698.00	  529.15	-1741.75	  420.91
      6.8700	  752.00	  529.94	-1741.75	  421.70
      6.9700	  713.00	  530.71	-1741.75	  422.47
      7.0700	  722.00	  531.47	-1741.75	  423.23
      7.1700	  706.00	  532.22	-1741.75	  423.98
      7.2700	  725.00	  532.96	-1741.75	  424.72
      7.3700	  675.00	  533.68	-1741.75	  425.44
      7.4700	  687.00	  534.39	-1741.75	  426.15
      7.5700	  658.00	  535.09	-1741.75	  426.85
      7.6700	  628.00	  535.78	-1741.75	  427.54
      7.7700	  662.00	  536.46	-1741.75	  428.21
      7.8700	  631.00	  537.12	-1741.75	  428.88
      7.9700	  657.00	  537.77	-1741.75	  429.53
      8.0700	  611.00	  538.41	-1741.75	  430.17
      8.1700	  654.00	  539.04	-1741.75	  430.79
      8.2700	  620.00	  539.65	-1741.75	  431.41
      8.3700	  612.00	  540.26	-1741.75	  432.01
      8.4700	  615.00	  540.85	-1741.75	  432.61
      8.5700	  611.00	  541.43	-1741.75	  433.19
      8.6700	  610.00	  542.00	-1741.75	  433.76
      8.7700	  581.00	  542.56	-1741.75	  434.32
      8.8700	  623.00	  543.11	-1741.75	  434.87
      8.9700	  614.00	  543.64	-1741.75	  435.40
      9.0700	  557.00	  544.17	-1741.75	  435.93
      9.1700	  569.00	  544.69	-1741.75	  436.44
      9.2700	  586.00	  545.19	-1741.75	  436.95
      9.3700	  596.00	  545.68	-1741.75	  437.44
      9.4700	  574.00	  546.17	-1741.75	  437.93
      9.5700	  620.00	  546.64	-1741.75	  438.40
      9.6700	  540.00	  547.10	-1741.75	  438.86
      9.7700	  587.00	  547.55	-1741.75	  439.31
      9.8700	  591.00	  547.99	-1741.75	  439.75
      9.9700	  583.00	  548.43	-1741.75	  440.18
     10.0700	  606.00	  550.49	-1686.24	  440.61
     10.1700	  624.00	  551.07	-1668.82	  441.02
     10.2700	  597.00	  551.68	-1696.43	  441.42
     10.3700	  590.00	  552.34	-1704.09	  441.81
     10.4700	  652.00	  553.07	-1642.82	  442.19
     10.5700	  562.00	  553.94	-1733.69	  442.56
     10.6700	  602.00	  555.02	-1694.77	  442.93
     10.7700	  550.00	  556.41	-1748.16	  443.28
     10.8700	  584.00	  558.17	-1715.92	  443.62
     10.9700	  555.00	  560.34	-1747.09	  443.96
     11.0700	  565.00	  562.92	-1739.67	  444.28
     11.1700	  529.00	  565.90	-1778.65	  444.60
     11.2700	  552.00	  569.33	-1759.08	  444.90
     11.3700	  596.00	  573.28	-1719.03	  445.20
     11.4700	  553.00	  577.88	-1766.63	  445.49
     11.5700	  570.00	  583.34	-1755.09	  445.77
     11.6700	  565.00	  589.97	-1766.72	  446.04
     11.7700	  596.00	  598.20	-1743.95	  446.30
     11.8700	  630.00	  608.39	-1720.14	  446.55
     11.9700	  627.00	  620.37	-1735.12	  446.80
     12.0700	  645.00	  632.58	-1729.33	  447.04
     12.1700	  690.00	  641.27	-1693.02	  447.26
     12.2700	  680.00	  640.72	-1702.47	  447.48
     12.3700	  677.00	  627.73	-1692.48	  447.69
     12.4700	  610.00	  608.16	-1739.91	  447.90
     12.5700	  547.00	  590.54	-1785.29	  448.09
     12.6700	  603.00	  578.17	-1716.92	  448.28
     12.7700	  551.00	  570.67	-1761.42	  448.46
     12.8700	  550.00	  566.50	-1758.25	  448.63
     12.9700	  596.00	  564.21	-1709.96	  448.79
     13.0700	  541.00	  562.87	-1763.62	  448.95
     13.1700	  551.00	  562.01	-1752.76	  449.09
     13.2700	  600.00	  561.41	-1703.16	  449.23
     13.3700	  537.00	  560.98	-1765.73	  449.37
     13.4700	  515.00	  560.66	-1787.42	  449.49
     13.5700	  528.00	  560.43	-1774.18	  449.61
     13.6700	  516.00	  560.26	-1786.01	  449.72
     13.7700	  571.00	  560.13	-1730.88	  449.82
     13.8700	  607.00	  560.03	-1694.78	  449.92
     13.9700	  544.00	  559.95	-1757.70	  450.01
     14.0700	  526.00	  559.89	-1775.64	  450.09
     14.1700	  576.00	  559.88	-1725.63	  450.16
     14.2700	  533.00	  559.84	-1768.59	  450.23
     14.3700	  562.00	  559.82	-1739.57	  450.29
     14.4700	  517.00	  559.79	-1784.54	  450.35
     14.5700	  544.00	  559.77	-1757.52	  450.39
     14.6700	  539.00	  559.75	-1762.50	  450.43
     14.7700	  527.00	  559.73	-1774.48	  450.47
     14.8700	  586.00	  559.71	-1715.46	  450.50
     14.9700	  512.00	  559.69	-1789.44	  450.52
     15.0700	  575.00	  559.67	-1726.42	  450.53
     15.1700	  557.00	  559.64	-1744.39	  450.54
     15.2700	  520.00	  559.61	-1781.36	  450.54
     15.3700	  548.00	  559.58	-1753.33	  450.54
     15.4700	  540.00	  559.55	-1761.30	  450.53
     15.5700	  570.00	  559.51	-1731.26	  450.51
     15.6700	  573.00	  559.46	-1728.21	  450.49
     15.7700	  557.00	  559.42	-1744.17	  450.46
     15.8700	  549.00	  559.37	-1752.12	  450.43
     15.9700	  571.00	  559.31	-1730.06	  450.39
     16.0700	  546.00	  559.25	-1755.00	  450.34
     16.1700	  544.00	  559.18	-1756.93	  450.29
     16.2700	  559.00	  559.12	-1741.87	  450.23
     16.3700	  534.00	  559.04	-1766.79	  450.17
     16.4700	  581.00	  558.96	-1719.71	  450.10
     16.5700	  553.00	  558.88	-1747.63	  450.03
     16.6700	  518.00	  558.79	-1782.54	  449.95
     16.7700	  516.00	  558.70	-1784.45	  449.87
     16.8700	  596.00	  558.60	-1704.35	  449.78
     16.9700	  512.00	  558.50	-1788.25	  449.68
     17.0700	  506.00	  558.40	-1794.15	  449.58
     17.1700	  568.00	  558.29	-1732.04	  449.48
     17.2700	  566.00	  558.17	-1733.92	  449.37
     17.3700	  571.00	  558.05	-1728.80	  449.26
     17.4700	  561.00	  557.93	-1738.68	  449.14
     17.5700	  543.00	  557.91	-1756.66	  449.01
     17.6700	  551.00	  557.78	-1748.53	  448.88
     17.7700	  550.00	  557.65	-1749.40	  448.75
     17.8700	  529.00	  557.51	-1770.26	  448.61
     17.9700	  559.00	  557.36	-1740.11	  448.47
     18.0700	  552.00	  557.32	-1747.07	  448.32
     18.1700	  532.00	  557.17	-1766.92	  448.17
     18.2700	  567.00	  557.01	-1731.76	  448.01
     18.3700	  572.00	  556.86	-1726.61	  447.85
     18.4700	  512.00	  556.70	-1786.45	  447.69
     18.5700	  549.00	  556.53	-1749.28	  447.52
     18.6700	  566.00	  556.36	-1732.11	  447.34
     18.7700	  577.00	  556.19	-1720.94	  447.17
     18.8700	  511.00	  556.01	-1786.76	  446.98
     18.9700	  535.00	  555.83	-1762.58	  446.80
     19.0700	  554.00	  555.65	-1743.40	  446.61
     19.1700	  536.00	  555.46	-1761.21	  446.42
     19.2700	  569.00	  555.27	-1728.02	  446.22
     19.3700	  551.00	  555.08	-1745.83	  446.02
     19.4700	  519.00	  554.88	-1777.63	  445.81
     19.5700	  551.00	  554.68	-1745.43	  445.60
     19.6700	  522.00	  554.48	-1774.23	  445.39
     19.7700	  561.00	  554.32	-1735.07	  445.17
     19.8700	  500.00	  554.11	-1795.86	  444.95
     19.9700	  545.00	  553.90	-1750.65	  444.73
     20.0700	  537.00	  553.68	-1758.43	  444.50
     20.1700	  586.00	  553.47	-1709.22	  444.27
     20.2700	  530.00	  553.25	-1765.00	  444.04
     20.3700	  579.00	  553.03	-1715.78	  443.80
     20.4700	  563.00	  552.81	-1731.56	  443.56
     20.5700	  522.00	  552.58	-1772.33	  443.32
     20.6700	  512.00	  552.35	-1782.10	  443.07
     20.7700	  547.00	  552.12	-1746.87	  442.82
     20.8700	  514.00	  551.89	-1779.64	  442.57
     20.9700	  497.00	  551.66	-1796.41	  442.32
     21.0700	  561.00	  551.42	-1732.17	  442.06
     21.1700	  581.00	  551.19	-1711.94	  441.80
     21.2700	  530.00	  550.95	-1762.70	  441.53
     21.3700	  557.00	  550.71	-1735.46	  441.26
     21.4700	  564.00	  550.47	-1728.22	  440.99
     21.5700	  545.00	  550.23	-1746.98	  440.72
     21.6700	  560.00	  550.00	-1731.75	  440.45
     21.7700	  540.00	  549.76	-1751.51	  440.17
     21.8700	  519.00	  549.52	-1772.27	  439.89
     21.9700	  537.00	  549.28	-1754.03	  439.60
     22.0700	  522.00	  549.04	-1768.79	  439.32
     22.1700	  544.00	  548.81	-1746.56	  439.03
     22.2700	  527.00	  548.58	-1763.33	  438.74
     22.3700	  544.00	  548.35	-1746.10	  438.45
     22.4700	  506.00	  548.28	-1784.03	  438.15
     22.5700	  530.00	  548.03	-1759.78	  437.85
     22.6700	  541.00	  547.82	-1748.57	  437.55
     22.7700	  522.00	  547.62	-1767.37	  437.25
     22.8700	  525.00	  547.43	-1764.18	  436.95
     22.9700	  509.00	  547.26	-1780.01	  436.64
     23.0700	  595.00	  547.11	-1693.86	  436.33
     23.1700	  535.00	  546.97	-1753.72	  436.02
     23.2700	  552.00	  546.87	-1736.62	  435.71
     23.3700	  566.00	  546.80	-1722.55	  435.40
     23.4700	  538.00	  546.77	-1750.52	  435.08
     23.5700	  532.00	  546.82	-1756.57	  434.76
     23.6700	  552.00	  546.95	-1736.70	  434.45
     23.7700	  560.00	  547.23	-1728.98	  434.12
     23.8700	  561.00	  547.74	-1728.49	  433.80
     23.9700	  521.00	  548.65	-1769.40	  433.48
     24.0700	  570.00	  550.24	-1721.99	  433.15
     24.1700	  619.00	  552.94	-1675.69	  432.82
     24.2700	  605.00	  557.33	-1694.08	  432.49
     24.3700	  580.00	  564.00	-1725.75	  432.16
     24.4700	  590.00	  573.35	-1725.10	  431.83
     24.5700	  590.00	  585.20	-1736.95	  431.49
     24.6700	  649.00	  598.18	-1690.93	  431.16
     24.7700	  618.00	  609.02	-1732.77	  430.82
     24.8700	  639.00	  612.52	-1715.27	  430.48
     24.9700	  599.00	  604.78	-1747.53	  430.14
     25.0700	  603.00	  589.27	-1728.02	  429.80
     25.1700	  598.00	  573.45	-1717.20	  429.46
     25.2700	  562.00	  561.33	-1741.08	  429.12
     25.3700	  613.00	  553.42	-1682.17	  428.77
     25.4700	  561.00	  548.72	-1729.47	  428.43
     25.5700	  570.00	  546.02	-1717.77	  428.08
     25.6700	  600.00	  544.40	-1686.15	  427.74
     25.7700	  585.00	  543.34	-1700.09	  427.39
     25.8700	  559.00	  542.59	-1725.34	  427.04
     25.9700	  542.00	  542.03	-1741.78	  426.69
     26.0700	  558.00	  541.62	-1725.37	  426.34
     26.1700	  580.00	  541.33	-1703.08	  425.98
     26.2700	  565.00	  541.15	-1717.90	  425.63
     26.3700	  565.00	  541.08	-1717.83	  425.28
     26.4700	  602.00	  541.11	-1680.85	  424.92
     26.5700	  535.00	  541.25	-1748.00	  424.57
     26.6700	  547.00	  541.52	-1736.27	  424.21
     26.7700	  546.00	  541.95	-1737.70	  423.86
     26.8700	  535.00	  542.56	-1749.31	  423.50
     26.9700	  573.00	  543.41	-1712.16	  423.14
     27.0700	  607.00	  544.56	-1679.31	  422.78
     27.1700	  529.00	  546.15	-1758.90	  422.43
     27.2700	  586.00	  548.36	-1704.11	  422.07
     27.3700	  598.00	  551.62	-1695.36	  421.71
     27.4700	  575.00	  556.66	-1723.41	  421.35
     27.5700	  569.00	  564.87	-1737.62	  420.99
     27.6700	  622.00	  578.46	-1698.21	  420.63
     27.7700	  613.00	  600.51	-1729.26	  420.26
     27.8700	  618.00	  634.19	-1757.94	  419.90
     27.9700	  624.00	  680.88	-1798.63	  419.54
     28.0700	  680.00	  737.65	-1799.40	  419.18
     28.1700	  893.00	  794.75	-1643.50	  418.82
     28.2700	  885.00	  834.45	-1691.20	  418.46
     28.3700	  960.00	  837.64	-1619.39	  418.09
     28.4700	  811.00	  806.87	-1737.62	  417.73
     28.5700	  790.00	  772.34	-1724.09	  417.37
     28.6700	  733.00	  758.82	-1767.57	  417.01
     28.7700	  751.00	  770.67	-1761.42	  416.64
     28.8700	  743.00	  796.32	-1795.07	  416.28
     28.9700	  832.00	  813.38	-1723.13	  415.92
     29.0700	  834.00	  798.15	-1705.90	  415.55
     29.1700	  738.00	  747.75	-1751.50	  415.19
     29.2700	  709.00	  685.44	-1718.19	  414.83
     29.3700	  666.00	  632.12	-1707.87	  414.47
     29.4700	  594.00	  594.63	-1742.38	  414.11
     29.5700	  584.00	  571.37	-1729.12	  413.74
     29.6700	  557.00	  558.00	-1742.75	  413.38
     29.7700	  626.00	  550.40	-1666.15	  413.02
     29.8700	  619.00	  545.88	-1668.63	  412.66
     29.9700	  591.00	  543.08	-1693.83	  412.30
     30.0700	  597.00	  541.47	-1686.22	  411.94
     30.1700	  530.00	  540.99	-1752.74	  411.58
     30.2700	  566.00	  541.95	-1717.70	  411.22
     30.3700	  543.00	  545.07	-1743.82	  410.86
     30.4700	  559.00	  551.49	-1734.24	  410.50
     30.5700	  592.00	  562.48	-1712.23	  410.14
     30.6700	  558.00	  578.72	-1762.47	  409.78
     30.7700	  646.00	  599.10	-1694.85	  409.42
     30.8700	  602.00	  619.73	-1759.48	  409.07
     30.9700	  678.00	  633.56	-1697.31	  408.71
     31.0700	  651.00	  632.39	-1723.14	  408.36
     31.1700	  629.00	  614.77	-1727.52	  408.00
     31.2700	  610.00	  589.82	-1721.57	  407.65
     31.3700	  573.00	  567.06	-1735.81	  407.29
     31.4700	  532.00	  550.29	-1760.04	  406.94
     31.5700	  602.00	  539.52	-1679.27	  406.59
     31.6700	  595.00	  533.17	-1679.92	  406.23
     31.7700	  530.00	  529.54	-1741.29	  405.88
     31.8700	  573.00	  527.37	-1696.12	  405.53
     31.9700	  541.00	  525.98	-1726.73	  405.18
     32.0700	  558.00	  525.03	-1708.78	  404.83
     32.1700	  531.00	  524.39	-1735.14	  404.48
     32.2700	  547.00	  523.99	-1718.74	  404.14
     32.3700	  579.00	  523.82	-1686.57	  403.79
     32.4700	  558.00	  523.86	-1707.61	  403.44
     32.5700	  556.00	  524.13	-1709.88	  403.10
     32.6700	  505.00	  524.66	-1761.41	  402.76
     32.7700	  542.00	  525.49	-1725.24	  402.41
     32.8700	  577.00	  526.71	-1691.46	  402.07
     32.9700	  567.00	  528.44	-1703.19	  401.73
     33.0700	  591.00	  530.90	-1681.65	  401.39
     33.1700	  550.00	  534.51	-1726.26	  401.05
     33.2700	  575.00	  540.13	-1706.88	  400.71
     33.3700	  594.00	  549.42	-1697.17	  400.38
     33.4700	  544.00	  565.32	-1763.07	  400.04
     33.5700	  564.00	  592.34	-1770.09	  399.71
     33.6700	  609.00	  635.78	-1768.53	  399.37
     33.7700	  700.00	  699.34	-1741.09	  399.04
     33.8700	  785.00	  780.42	-1737.17	  398.71
     33.9700	  853.00	  865.80	-1754.55	  398.38
     34.0700	  950.00	  930.00	-1721.75	  398.05
     34.1700	 1025.00	  941.59	-1658.34	  397.72
     34.2700	  967.00	  888.54	-1663.29	  397.40
     34.3700	  836.00	  798.29	-1704.04	  397.07
     34.4700	  689.00	  708.17	-1760.92	  396.75
     34.5700	  641.00	  637.40	-1738.15	  396.42
     34.6700	  594.00	  589.50	-1737.25	  396.10
     34.7700	  556.00	  560.24	-1745.99	  395.78
     34.8700	  566.00	  543.32	-1719.07	  395.46
     34.9700	  565.00	  533.40	-1710.15	  395.15
     35.0700	  508.00	  527.14	-1760.89	  394.83
     35.1700	  485.00	  522.77	-1779.52	  394.52
     35.2700	  492.00	  519.48	-1769.23	  394.20
     35.3700	  532.00	  516.86	-1726.61	  393.89
     35.4700	  493.00	  514.72	-1763.47	  393.58
     35.5700	  504.00	  513.39	-1751.14	  393.27
     35.6700	  477.00	  511.88	-1776.63	  392.96
     35.7700	  517.00	  510.59	-1735.34	  392.66
     35.8700	  513.00	  509.46	-1738.21	  392.35
     35.9700	  479.00	  508.47	-1771.22	  392.05
     36.0700	  491.00	  507.60	-1758.35	  391.75
     36.1700	  530.00	  506.81	-1718.56	  391.45
     36.2700	  464.00	  506.10	-1783.85	  391.15
     36.3700	  502.00	  505.46	-1745.21	  390.85
     36.4700	  514.00	  504.89	-1732.64	  390.55
     36.5700	  513.00	  504.37	-1733.12	  390.26
     36.6700	  462.00	  503.91	-1783.66	  389.97
     36.7700	  504.00	  503.52	-1741.27	  389.67
     36.8700	  474.00	  503.21	-1770.96	  389.39
     36.9700	  482.00	  503.03	-1762.78	  389.10
     37.0700	  448.00	  503.05	-1796.80	  388.81
     37.1700	  491.00	  503.39	-1754.14	  388.53
     37.2700	  464.00	  504.25	-1782.00	  388.24
     37.3700	  475.00	  505.80	-1772.55	  387.96
     37.4700	  542.00	  508.12	-1707.87	  387.68
     37.5700	  489.00	  511.01	-1763.76	  387.40
     37.6700	  547.00	  513.89	-1708.64	  387.13
     37.7700	  513.00	  515.78	-1744.53	  386.85
     37.8700	  546.00	  515.86	-1711.61	  386.58
     37.9700	  502.00	  513.77	-1753.52	  386.31
     38.0700	  472.00	  510.62	-1780.37	  386.04
     38.1700	  501.00	  507.32	-1748.07	  385.77
     38.2700	  516.00	  504.29	-1730.04	  385.50
     38.3700	  453.00	  501.80	-1790.55	  385.24
     38.4700	  497.00	  499.92	-1744.67	  384.98
     38.5700	  528.00	  498.57	-1712.32	  384.72
     38.6700	  457.00	  497.61	-1782.36	  384.46
     38.7700	  481.00	  496.92	-1757.67	  384.20
     38.8700	  507.00	  496.38	-1731.13	  383.94
     38.9700	  450.00	  495.95	-1787.70	  383.69
     39.0700	  493.00	  495.57	-1744.32	  383.44
     39.1700	  470.00	  495.23	-1766.98	  383.19
     39.2700	  482.00	  494.82	-1754.57	  382.94
     39.3700	  499.00	  494.53	-1737.28	  382.69
     39.4700	  499.00	  494.26	-1737.01	  382.45
     39.5700	  496.00	  494.01	-1739.76	  382.21
     39.6700	  448.00	  493.77	-1787.52	  381.97
     39.7700	  501.00	  493.55	-1734.30	  381.73
     39.8700	  499.00	  493.34	-1736.09	  381.49
     39.9700	  473.00	  493.14	-1761.89	  381.26
     40.0700	  458.00	  492.95	-1776.70	  381.02
     40.1700	  488.00	  492.69	-1746.44	  380.79
     40.2700	  442.00	  492.53	-1792.28	  380.56
     40.3700	  475.00	  492.39	-1759.14	  380.33
     40.4700	  491.00	  492.78	-1743.53	  380.11
     40.5700	  506.00	  492.69	-1728.44	  379.88
     40.6700	  489.00	  492.61	-1745.36	  379.66
     40.7700	  478.00	  492.56	-1756.31	  379.44
     40.8700	  512.00	  492.53	-1722.28	  379.22
     40.9700	  498.00	  492.54	-1736.29	  379.01
     41.0700	  456.00	  492.59	-1778.34	  378.79
     41.1700	  450.00	  492.68	-1784.43	  378.58
     41.2700	  481.00	  492.84	-1753.59	  378.37
     41.3700	  467.00	  493.07	-1767.82	  378.16
     41.4700	  486.00	  493.39	-1749.14	  377.96
     41.5700	  485.00	  493.85	-1750.60	  377.75
     41.6700	  483.00	  494.48	-1753.23	  377.55
     41.7700	  481.00	  495.41	-1756.16	  377.35
     41.8700	  470.00	  496.90	-1768.65	  377.15
     41.9700	  484.00	  499.26	-1757.01	  376.95
     42.0700	  461.00	  503.25	-1784.00	  376.76
     42.1700	  470.00	  510.08	-1781.83	  376.57
     42.2700	  543.00	  520.92	-1719.67	  376.38
     42.3700	  594.00	  536.89	-1684.64	  376.19
     42.4700	  545.00	  558.03	-1754.78	  376.00
     42.5700	  540.00	  582.39	-1784.14	  375.82
     42.6700	  585.00	  604.74	-1761.49	  375.64
     42.7700	  581.00	  617.49	-1778.24	  375.45
     42.8700	  573.00	  614.28	-1783.03	  375.28
     42.9700	  592.00	  596.48	-1746.23	  375.10
     43.0700	  534.00	  571.65	-1779.40	  374.93
     43.1700	  508.00	  547.57	-1781.32	  374.75
     43.2700	  495.00	  528.11	-1774.86	  374.58
     43.3700	  461.00	  514.22	-1794.97	  374.41
     43.4700	  488.00	  505.20	-1758.95	  374.25
     43.5700	  494.00	  499.70	-1747.45	  374.08
     43.6700	  511.00	  496.42	-1727.17	  373.92
     43.7700	  466.00	  494.39	-1770.14	  373.76
     43.8700	  522.00	  493.05	-1712.80	  373.60
     43.9700	  506.00	  492.09	-1727.84	  373.45
     44.0700	  536.00	  491.36	-1697.11	  373.29
     44.1700	  485.00	  490.78	-1747.53	  373.14
     44.2700	  510.00	  490.52	-1722.27	  372.99
     44.3700	  487.00	  490.14	-1744.89	  372.84
     44.4700	  502.00	  489.84	-1729.59	  372.70
     44.5700	  499.00	  489.60	-1732.35	  372.55
     44.6700	  503.00	  489.41	-1728.16	  372.41
     44.7700	  505.00	  489.26	-1726.01	  372.27
     44.8700	  485.00	  489.15	-1745.90	  372.13
     44.9700	  463.00	  489.07	-1767.82	  372.00
     45.0700	  491.00	  489.03	-1739.78	  371.86
     45.1700	  495.00	  489.02	-1735.77	  371.73
     45.2700	  510.00	  489.04	-1720.79	  371.60
     45.3700	  519.00	  489.09	-1711.84	  371.47
     45.4700	  507.00	  489.16	-1723.91	  371.35
     45.5700	  484.00	  489.27	-1747.02	  371.22
     45.6700	  543.00	  489.41	-1688.16	  371.10
     45.7700	  499.00	  489.58	-1732.33	  370.98
     45.8700	  490.00	  489.86	-1741.61	  370.86
     45.9700	  467.00	  489.95	-1764.70	  370.75
     46.0700	  480.00	  490.28	-1752.03	  370.63
     46.1700	  496.00	  490.62	-1736.37	  370.52
     46.2700	  489.00	  491.01	-1743.76	  370.41
     46.3700	  510.00	  491.47	-1723.22	  370.31
     46.4700	  524.00	  491.99	-1709.74	  370.20
     46.5700	  440.00	  492.60	-1794.35	  370.10
     46.6700	  499.00	  493.31	-1736.06	  370.00
     46.7700	  506.00	  494.16	-1729.91	  369.90
     46.8700	  507.00	  495.19	-1729.94	  369.80
     46.9700	  476.00	  496.51	-1762.26	  369.70
     47.0700	  481.00	  498.31	-1759.06	  369.61
     47.1700	  481.00	  500.92	-1761.67	  369.52
     47.2700	  496.00	  504.87	-1750.62	  369.43
     47.3700	  538.00	  510.88	-1714.63	  369.34
     47.4700	  526.00	  519.71	-1735.46	  369.25
     47.5700	  513.00	  531.86	-1760.61	  369.17
     47.6700	  562.00	  547.14	-1726.89	  369.09
     47.7700	  562.00	  564.11	-1743.86	  369.01
     47.8700	  587.00	  579.71	-1734.46	  368.93
     47.9700	  611.00	  589.49	-1720.24	  368.86
     48.0700	  586.00	  589.88	-1745.63	  368.78
     48.1700	  564.00	  581.37	-1759.12	  368.71
     48.2700	  554.00	  568.25	-1756.00	  368.64
     48.3700	  538.00	  555.43	-1759.18	  368.57
     48.4700	  560.00	  544.82	-1726.57	  368.51
     48.5700	  492.00	  537.92	-1787.67	  368.44
     48.6700	  507.00	  534.80	-1769.55	  368.38
     48.7700	  548.00	  534.96	-1728.71	  368.32
     48.8700	  552.00	  537.86	-1727.61	  368.26
     48.9700	  496.00	  543.12	-1788.87	  368.20
     49.0700	  539.00	  550.80	-1753.55	  368.15
     49.1700	  540.00	  561.62	-1763.37	  368.10
     49.2700	  576.00	  577.36	-1743.11	  368.05
     49.3700	  615.00	  601.64	-1728.39	  368.00
     49.4700	  593.00	  640.96	-1789.71	  367.95
     49.5700	  657.00	  705.58	-1790.33	  367.90
     49.6700	  711.00	  809.24	-1839.99	  367.86
     49.7700	  886.00	  966.39	-1822.14	  367.82
     49.8700	 1139.00	 1186.44	-1789.19	  367.78
     49.9700	 1452.00	 1465.41	-1755.16	  367.74
     50.0700	 1719.00	 1776.58	-1799.33	  367.71
     50.1700	 2127.00	 2063.19	-1677.94	  367.67
     50.2700	 2232.00	 2242.24	-1751.99	  367.64
     50.3700	 2328.00	 2241.64	-1655.39	  367.61
     50.4700	 2140.00	 2060.19	-1661.94	  367.58
     50.5700	 1752.00	 1771.92	-1761.67	  367.55
     50.6700	 1392.00	 1463.02	-1812.77	  367.53
     50.7700	 1085.00	 1190.48	-1847.23	  367.51
     50.8700	  878.00	  979.70	-1843.45	  367.49
     50.9700	  787.00	  833.70	-1788.45	  367.47
     51.0700	  736.00	  740.98	-1746.73	  367.45
     51.1700	  645.00	  685.36	-1782.11	  367.43
     51.2700	  640.00	  650.94	-1752.69	  367.42
     51.3700	  626.00	  626.28	-1742.03	  367.41
     51.4700	  581.00	  605.74	-1766.49	  367.39
     51.5700	  601.00	  587.88	-1728.63	  367.39
     51.6700	  600.00	  572.77	-1714.52	  367.38
     51.7700	  580.00	  560.65	-1722.40	  367.37
     51.8700	  546.00	  551.49	-1747.24	  367.37
     51.9700	  586.00	  545.02	-1700.77	  367.37
     52.0700	  550.00	  540.81	-1732.56	  367.37
     52.1700	  573.00	  538.45	-1707.20	  367.37
     52.2700	  596.00	  537.63	-1683.38	  367.37
     52.3700	  573.00	  538.26	-1707.01	  367.38
     52.4700	  528.00	  540.51	-1754.26	  367.38
     52.5700	  572.00	  544.99	-1714.74	  367.39
     52.6700	  587.00	  552.94	-1707.69	  367.40
     52.7700	  590.00	  566.56	-1718.31	  367.41
     52.8700	  546.00	  589.14	-1784.89	  367.43
     52.9700	  634.00	  624.94	-1732.69	  367.44
     53.0700	  660.00	  678.38	-1760.13	  367.46
     53.1700	  781.00	  752.42	-1713.17	  367.47
     53.2700	  931.00	  846.37	-1657.12	  367.49
     53.3700	 1011.00	  953.39	-1684.14	  367.51
     53.4700	 1039.00	 1058.27	-1761.02	  367.54
     53.5700	 1161.00	 1136.89	-1717.64	  367.56
     53.6700	 1241.00	 1163.21	-1663.96	  367.59
     53.7700	 1049.00	 1126.39	-1819.14	  367.61
     53.8700	 1058.00	 1040.86	-1724.61	  367.64
     53.9700	  938.00	  934.03	-1737.78	  367.67
     54.0700	  802.00	  828.92	-1768.67	  367.71
     54.1700	  770.00	  739.04	-1710.79	  367.74
     54.2700	  678.00	  669.74	-1733.49	  367.77
     54.3700	  623.00	  620.79	-1739.54	  367.81
     54.4700	  625.00	  588.74	-1705.49	  367.85
     54.5700	  571.00	  569.07	-1739.82	  367.89
     54.6700	  573.00	  557.63	-1726.38	  367.93
     54.7700	  558.00	  551.33	-1735.07	  367.97
     54.8700	  566.00	  548.16	-1723.91	  368.02
     54.9700	  575.00	  547.00	-1713.75	  368.06
     55.0700	  563.00	  547.27	-1726.02	  368.11
     55.1700	  590.00	  548.73	-1700.48	  368.16
     55.2700	  574.00	  551.29	-1719.04	  368.21
     55.3700	  531.00	  555.01	-1765.76	  368.26
     55.4700	  632.00	  560.03	-1669.78	  368.31
     55.5700	  551.00	  566.64	-1757.39	  368.36
     55.6700	  571.00	  575.40	-1746.15	  368.42
     55.7700	  530.00	  587.36	-1799.11	  368.47
     55.8700	  586.00	  604.50	-1760.25	  368.53
     55.9700	  687.00	  630.38	-1685.13	  368.59
     56.0700	  682.00	  670.92	-1730.67	  368.65
     56.1700	  707.00	  734.95	-1769.70	  368.71
     56.2700	  814.00	  834.16	-1761.91	  368.78
     56.3700	  967.00	  981.09	-1755.84	  368.84
     56.4700	 1122.00	 1185.63	-1805.38	  368.90
     56.5700	 1454.00	 1449.53	-1737.28	  368.97
     56.6700	 1718.00	 1760.61	-1784.36	  369.04
     56.7700	 2092.00	 2086.64	-1736.39	  369.11
     56.8700	 2390.00	 2371.83	-1723.58	  369.18
     56.9700	 2506.00	 2543.00	-1778.75	  369.25
     57.0700	 2527.00	 2541.82	-1756.57	  369.32
     57.1700	 2306.00	 2368.52	-1804.27	  369.40
     57.2700	 2039.00	 2082.71	-1785.46	  369.47
     57.3700	 1716.00	 1758.46	-1784.21	  369.55
     57.4700	 1384.00	 1451.33	-1809.08	  369.63
     57.5700	 1126.00	 1192.84	-1808.59	  369.71
     57.6700	  972.00	  994.77	-1764.52	  369.79
     57.7700	  839.00	  855.36	-1758.11	  369.87
     57.8700	  798.00	  765.22	-1708.97	  369.95
     57.9700	  739.00	  712.81	-1715.56	  370.03
     58.0700	  742.00	  688.17	-1687.92	  370.12
     58.1700	  760.00	  684.54	-1666.29	  370.20
     58.2700	  734.00	  698.38	-1706.13	  370.29
     58.3700	  726.00	  728.28	-1744.03	  370.38
     58.4700	  775.00	  773.59	-1740.34	  370.47
     58.5700	  870.00	  832.96	-1704.71	  370.56
     58.6700	  885.00	  902.89	-1759.64	  370.65
     58.7700	 1077.00	  976.96	-1641.71	  370.74
     58.8700	 1124.00	 1047.19	-1664.94	  370.83
     58.9700	 1158.00	 1107.48	-1691.23	  370.92
     59.0700	 1309.00	 1154.36	-1587.11	  371.02
     59.1700	 1302.00	 1183.94	-1623.69	  371.11
     59.2700	 1363.00	 1192.11	-1570.86	  371.21
     59.3700	 1291.00	 1180.71	-1631.46	  371.31
     59.4700	 1277.00	 1159.73	-1624.48	  371.41
     59.5700	 1282.00	 1141.11	-1600.86	  371.51
     59.6700	 1203.00	 1132.97	-1671.72	  371.61
     59.7700	 1159.00	 1140.35	-1723.10	  371.71
     59.8700	 1148.00	 1168.17	-1761.92	  371.81
     59.9700	 1256.00	 1220.31	-1706.06	  371.91
     60.0700	 1327.00	 1294.79	-1709.54	  372.01
     60.1700	 1447.00	 1379.97	-1674.72	  372.12
     60.2700	 1530.00	 1453.81	-1665.56	  372.22
     60.3700	 1536.00	 1488.18	-1693.93	  372.33
     60.4700	 1579.00	 1461.75	-1624.50	  372.44
     60.5700	 1473.00	 1374.97	-1643.72	  372.54
     60.6700	 1338.00	 1248.87	-1652.62	  372.65
     60.7700	 1136.00	 1109.74	-1715.49	  372.76
     60.8700	  991.00	  978.06	-1728.81	  372.87
     60.9700	  849.00	  866.36	-1759.11	  372.98
     61.0700	  794.00	  780.45	-1728.20	  373.09
     61.1700	  680.00	  721.35	-1783.10	  373.20
     61.2700	  684.00	  687.55	-1745.30	  373.32
     61.3700	  673.00	  676.98	-1745.73	  373.43
     61.4700	  670.00	  688.63	-1760.38	  373.54
     61.5700	  693.00	  722.96	-1771.71	  373.66
     61.6700	  803.00	  781.25	-1720.00	  373.77
     61.7700	  856.00	  864.19	-1749.94	  373.89
     61.8700	  953.00	  969.84	-1758.59	  374.01
     61.9700	 1007.00	 1091.72	-1826.47	  374.12
     62.0700	 1164.00	 1217.15	-1794.90	  374.24
     62.1700	 1258.00	 1326.31	-1810.06	  374.36
     62.2700	 1347.00	 1394.43	-1789.18	  374.48
     62.3700	 1347.00	 1401.08	-1795.83	  374.60
     62.4700	 1282.00	 1343.40	-1803.15	  374.72
     62.5700	 1173.00	 1238.50	-1807.25	  374.84
     62.6700	  977.00	 1111.29	-1876.04	  374.96
     62.7700	  921.00	  983.10	-1803.85	  375.08
     62.8700	  755.00	  868.04	-1854.79	  375.20
     62.9700	  794.00	  773.44	-1721.19	  375.32
     63.0700	  681.00	  701.27	-1762.02	  375.44
     63.1700	  603.00	  649.80	-1788.55	  375.57
     63.2700	  586.00	  615.26	-1771.01	  375.69
     63.3700	  576.00	  593.49	-1759.24	  375.81
     63.4700	  580.00	  580.84	-1742.59	  375.94
     63.5700	  626.00	  574.79	-1690.54	  376.06
     63.6700	  585.00	  574.03	-1730.78	  376.19
     63.7700	  594.00	  578.38	-1726.13	  376.31
     63.8700	  589.00	  588.53	-1741.28	  376.44
     63.9700	  615.00	  605.78	-1732.53	  376.56
     64.0700	  625.00	  631.62	-1748.37	  376.69
     64.1700	  689.00	  667.22	-1719.97	  376.82
     64.2700	  692.00	  712.67	-1762.42	  376.94
     64.3700	  787.00	  766.55	-1721.30	  377.07
     64.4700	  890.00	  825.18	-1676.93	  377.20
     64.5700	  933.00	  882.17	-1690.92	  377.32
     64.6700	  972.00	  928.84	-1698.59	  377.45
     64.7700	  993.00	  956.38	-1705.13	  377.58
     64.8700	 1007.00	  959.69	-1694.44	  377.71
     64.9700	  935.00	  939.48	-1746.23	  377.84
     65.0700	  933.00	  901.27	-1710.02	  377.96
     65.1700	  815.00	  853.21	-1779.96	  378.09
     65.2700	  837.00	  802.28	-1707.03	  378.22
     65.3700	  746.00	  755.13	-1750.88	  378.35
     65.4700	  721.00	  713.99	-1734.74	  378.48
     65.5700	  680.00	  679.31	-1741.06	  378.61
     65.6700	  638.00	  650.54	-1754.29	  378.74
     65.7700	  626.00	  626.99	-1742.74	  378.87
     65.8700	  564.00	  608.21	-1785.96	  379.00
     65.9700	  531.00	  593.71	-1804.46	  379.12
     66.0700	  566.00	  582.98	-1758.73	  379.25
     66.1700	  570.00	  575.52	-1747.27	  379.38
     66.2700	  575.00	  570.89	-1737.64	  379.51
     66.3700	  512.00	  568.86	-1798.61	  379.64
     66.4700	  604.00	  569.07	-1706.82	  379.77
     66.5700	  565.00	  571.18	-1747.93	  379.90
     66.6700	  530.00	  575.41	-1787.16	  380.03
     66.7700	  546.00	  582.10	-1777.85	  380.16
     66.8700	  601.00	  592.13	-1732.88	  380.29
     66.9700	  618.00	  607.10	-1730.85	  380.42
     67.0700	  593.00	  629.66	-1778.41	  380.54
     67.1700	  701.00	  663.86	-1704.61	  380.67
     67.2700	  637.00	  714.97	-1819.72	  380.80
     67.3700	  787.00	  789.70	-1744.45	  380.93
     67.4700	  848.00	  895.01	-1788.76	  381.06
     67.5700	 1014.00	 1036.79	-1764.54	  381.18
     67.6700	 1179.00	 1217.69	-1780.44	  381.31
     67.7700	 1428.00	 1434.90	-1748.65	  381.44
     67.8700	 1671.00	 1678.08	-1748.83	  381.57
     67.9700	 1962.00	 1927.45	-1707.20	  381.69
     68.0700	 2155.00	 2153.07	-1739.82	  381.82
     68.1700	 2354.00	 2316.56	-1704.31	  381.95
     68.2700	 2481.00	 2381.22	-1641.97	  382.07
     68.3700	 2295.00	 2330.00	-1776.75	  382.20
     68.4700	 2262.00	 2176.58	-1656.33	  382.32
     68.5700	 1989.00	 1956.38	-1709.13	  382.45
     68.6700	 1700.00	 1708.38	-1750.13	  382.57
     68.7700	 1433.00	 1463.76	-1772.51	  382.70
     68.8700	 1211.00	 1243.31	-1774.06	  382.82
     68.9700	 1046.00	 1058.48	-1754.23	  382.95
     69.0700	  827.00	  912.80	-1827.55	  383.07
     69.1700	  791.00	  804.07	-1754.82	  383.19
     69.2700	  733.00	  726.72	-1735.47	  383.32
     69.3700	  695.00	  673.76	-1720.51	  383.44
     69.4700	  670.00	  638.32	-1710.07	  383.56
     69.5700	  557.00	  615.12	-1799.87	  383.68
     69.6700	  630.00	  599.83	-1711.58	  383.80
     69.7700	  589.00	  589.58	-1742.33	  383.92
     69.8700	  570.00	  582.58	-1754.33	  384.04
     69.9700	  554.00	  577.74	-1765.49	  384.16
     70.0700	  557.00	  574.46	-1759.21	  384.28
     70.1700	  596.00	  572.41	-1718.16	  384.40
     70.2700	  529.00	  571.46	-1784.21	  384.52
     70.3700	  551.00	  571.56	-1762.31	  384.63
     70.4700	  570.00	  572.82	-1744.57	  384.75
     70.5700	  589.00	  575.45	-1728.20	  384.87
     70.6700	  578.00	  579.93	-1743.68	  384.98
     70.7700	  588.00	  588.00	-1741.75	  385.10
     70.8700	  578.00	  599.11	-1762.86	  385.21
     70.9700	  618.00	  616.18	-1739.93	  385.32
     71.0700	  617.00	  642.00	-1766.75	  385.44
     71.1700	  703.00	  680.19	-1718.94	  385.55
     71.2700	  660.00	  734.98	-1816.73	  385.66
     71.3700	  801.00	  810.65	-1751.40	  385.77
     71.4700	  872.00	  910.63	-1780.38	  385.88
     71.5700	 1006.00	 1036.43	-1772.18	  385.99
     71.6700	 1176.00	 1186.32	-1752.07	  386.10
     71.7700	 1386.00	 1354.19	-1709.94	  386.21
     71.8700	 1520.00	 1528.66	-1750.41	  386.31
     71.9700	 1749.00	 1692.52	-1685.27	  386.42
     72.0700	 1745.00	 1823.34	-1820.09	  386.52
     72.1700	 1867.00	 1897.32	-1772.07	  386.63
     72.2700	 1836.00	 1897.99	-1803.74	  386.73
     72.3700	 1733.00	 1825.21	-1833.96	  386.84
     72.4700	 1689.00	 1695.24	-1747.99	  386.94
     72.5700	 1527.00	 1531.85	-1746.60	  387.04
     72.6700	 1413.00	 1357.50	-1686.25	  387.14
     72.7700	 1179.00	 1189.40	-1752.15	  387.24
     72.8700	 1046.00	 1038.92	-1734.67	  387.34
     72.9700	  974.00	  912.14	-1679.89	  387.44
     73.0700	  828.00	  810.76	-1724.51	  387.53
     73.1700	  823.00	  733.33	-1652.08	  387.63
     73.2700	  745.00	  676.51	-1673.26	  387.72
     73.3700	  716.00	  636.11	-1661.86	  387.82
     73.4700	  653.00	  608.02	-1696.77	  387.91
     73.5700	  640.00	  588.67	-1690.42	  388.00
     73.6700	  597.00	  574.80	-1719.55	  388.09
     73.7700	  582.00	  565.46	-1725.21	  388.19
     73.8700	  565.00	  558.83	-1735.58	  388.27
     73.9700	  543.00	  554.08	-1752.83	  388.36
     74.0700	  599.00	  550.70	-1693.45	  388.45
     74.1700	  527.00	  548.34	-1763.09	  388.54
     74.2700	  556.00	  546.80	-1732.55	  388.62
     74.3700	  586.00	  545.86	-1701.61	  388.70
     74.4700	  578.00	  545.36	-1709.11	  388.79
     74.5700	  631.00	  545.07	-1655.82	  388.87
     74.6700	  586.00	  544.76	-1700.51	  388.95
     74.7700	  625.00	  544.22	-1660.97	  389.03
     74.8700	  620.00	  543.30	-1665.05	  389.11
     74.9700	  622.00	  541.98	-1661.73	  389.19
     75.0700	  665.00	  540.43	-1617.18	  389.26
     75.1700	  587.00	  538.89	-1693.64	  389.34
     75.2700	  572.00	  537.67	-1707.42	  389.41
     75.3700	  573.00	  537.09	-1705.84	  389.48
     75.4700	  599.00	  537.50	-1680.25	  389.56
     75.5700	  604.00	  539.29	-1677.04	  389.63
     75.6700	  504.00	  542.88	-1780.63	  389.69
     75.7700	  561.00	  548.72	-1729.47	  389.76
     75.8700	  572.00	  557.22	-1726.97	  389.83
     75.9700	  570.00	  568.64	-1740.39	  389.89
     76.0700	  604.00	  583.16	-1720.91	  389.96
     76.1700	  590.00	  600.52	-1752.27	  390.02
     76.2700	  615.00	  620.06	-1746.81	  390.08
     76.3700	  643.00	  640.66	-1739.41	  390.14
     76.4700	  679.00	  660.54	-1723.29	  390.20
     76.5700	  670.00	  677.71	-1749.46	  390.26
     76.6700	  697.00	  689.58	-1734.33	  390.32
     76.7700	  674.00	  693.97	-1761.72	  390.37
     76.8700	  709.00	  689.96	-1722.71	  390.43
     76.9700	  715.00	  678.30	-1705.05	  390.48
     77.0700	  676.00	  661.06	-1726.81	  390.53
     77.1700	  647.00	  640.68	-1735.43	  390.58
     77.2700	  612.00	  619.49	-1749.24	  390.63
     77.3700	  581.00	  599.15	-1759.90	  390.67
     77.4700	  565.00	  580.83	-1757.58	  390.72
     77.5700	  544.00	  565.18	-1762.93	  390.76
     77.6700	  493.00	  552.44	-1801.19	  390.81
     77.7700	  531.00	  542.49	-1753.24	  390.85
     77.8700	  509.00	  535.01	-1767.76	  390.89
     77.9700	  537.00	  529.57	-1734.32	  390.93
     78.0700	  501.00	  525.51	-1766.26	  390.96
     78.1700	  527.00	  522.84	-1737.59	  391.00
     78.2700	  483.00	  521.00	-1779.75	  391.03
     78.3700	  513.00	  519.73	-1748.48	  391.07
     78.4700	  517.00	  518.85	-1743.60	  391.10
     78.5700	  505.00	  518.25	-1755.00	  391.13
     78.6700	  502.00	  517.84	-1757.59	  391.15
     78.7700	  507.00	  517.59	-1752.34	  391.18
     78.8700	  526.00	  517.48	-1733.23	  391.21
     78.9700	  539.00	  517.51	-1720.26	  391.23
     79.0700	  491.00	  517.69	-1768.44	  391.25
     79.1700	  495.00	  518.04	-1764.79	  391.27
     79.2700	  515.00	  518.58	-1745.33	  391.29
     79.3700	  467.00	  519.37	-1794.12	  391.31
     79.4700	  518.00	  520.42	-1744.17	  391.32
     79.5700	  544.00	  521.80	-1719.55	  391.34
     79.6700	  501.00	  523.56	-1764.31	  391.35
     79.7700	  506.00	  525.77	-1761.52	  391.36
     79.8700	  489.00	  528.50	-1781.25	  391.37
     79.9700	  528.00	  531.86	-1745.61	  391.38
     80.0700	  493.00	  535.98	-1784.73	  391.39
     80.1700	  529.00	  540.97	-1753.72	  391.39
     80.2700	  561.00	  547.03	-1727.78	  391.39
     80.3700	  536.00	  554.33	-1760.08	  391.39
     80.4700	  551.00	  562.92	-1753.67	  391.39
     80.5700	  589.00	  573.39	-1726.14	  391.39
     80.6700	  547.00	  585.62	-1780.37	  391.39
     80.7700	  593.00	  599.50	-1748.25	  391.38
     80.8700	  621.00	  614.69	-1735.44	  391.38
     80.9700	  624.00	  630.51	-1748.26	  391.37
     81.0700	  642.00	  646.09	-1745.84	  391.36
     81.1700	  610.00	  660.43	-1792.18	  391.35
     81.2700	  758.00	  672.61	-1656.36	  391.33
     81.3700	  751.00	  681.93	-1672.68	  391.32
     81.4700	  724.00	  687.94	-1705.69	  391.30
     81.5700	  724.00	  690.39	-1708.14	  391.28
     81.6700	  750.00	  689.27	-1681.02	  391.26
     81.7700	  672.00	  684.75	-1754.50	  391.24
     81.8700	  750.00	  677.09	-1668.84	  391.21
     81.9700	  733.00	  666.67	-1675.42	  391.19
     82.0700	  648.00	  654.09	-1747.84	  391.16
     82.1700	  678.00	  640.16	-1703.91	  391.13
     82.2700	  680.00	  625.75	-1687.50	  391.10
     82.3700	  633.00	  611.57	-1720.32	  391.07
     82.4700	  648.00	  598.09	-1691.84	  391.03
     82.5700	  613.00	  585.60	-1714.35	  390.99
     82.6700	  601.00	  574.32	-1715.07	  390.96
     82.7700	  592.00	  564.42	-1714.17	  390.92
     82.8700	  516.00	  556.05	-1781.80	  390.87
     82.9700	  573.00	  549.30	-1718.05	  390.83
     83.0700	  546.00	  544.22	-1739.97	  390.79
     83.1700	  551.00	  540.80	-1731.55	  390.74
     83.2700	  542.00	  538.98	-1738.73	  390.69
     83.3700	  559.00	  538.65	-1721.40	  390.64
     83.4700	  502.00	  539.69	-1779.44	  390.59
     83.5700	  515.00	  541.89	-1768.64	  390.53
     83.6700	  534.00	  544.92	-1752.67	  390.48
     83.7700	  503.00	  548.59	-1787.34	  390.42
     83.8700	  565.00	  552.44	-1729.19	  390.36
     83.9700	  536.00	  555.96	-1761.71	  390.30
     84.0700	  590.00	  558.72	-1710.47	  390.23
     84.1700	  540.00	  560.21	-1761.96	  390.17
     84.2700	  559.00	  560.09	-1742.84	  390.10
     84.3700	  548.00	  558.32	-1752.07	  390.03
     84.4700	  521.00	  555.10	-1775.85	  389.96
     84.5700	  544.00	  550.83	-1748.58	  389.89
     84.6700	  562.00	  545.96	-1725.71	  389.81
     84.7700	  581.00	  540.88	-1701.63	  389.74
     84.8700	  535.00	  535.95	-1742.70	  389.66
     84.9700	  539.00	  531.39	-1734.14	  389.58
     85.0700	  518.00	  527.38	-1751.13	  389.50
     85.1700	  526.00	  524.00	-1739.75	  389.41
     85.2700	  528.00	  521.25	-1735.00	  389.33
     85.3700	  500.00	  519.13	-1760.88	  389.24
     85.4700	  530.00	  517.55	-1729.30	  389.15
     85.5700	  538.00	  516.47	-1720.22	  389.06
     85.6700	  527.00	  515.80	-1730.55	  388.96
     85.7700	  482.00	  515.51	-1775.26	  388.87
     85.8700	  485.00	  515.56	-1772.31	  388.77
     85.9700	  527.00	  515.96	-1730.71	  388.67
     86.0700	  524.00	  516.76	-1734.51	  388.57
     86.1700	  495.00	  518.04	-1764.79	  388.47
     86.2700	  518.00	  519.90	-1743.65	  388.36
     86.3700	  529.00	  522.49	-1735.24	  388.26
     86.4700	  508.00	  525.96	-1759.71	  388.15
     86.5700	  513.00	  530.49	-1759.24	  388.04
     86.6700	  555.00	  536.20	-1722.95	  387.93
     86.7700	  527.00	  543.18	-1757.93	  387.81
     86.8700	  581.00	  551.43	-1712.18	  387.70
     86.9700	  539.00	  560.86	-1763.61	  387.58
     87.0700	  598.00	  571.22	-1714.97	  387.46
     87.1700	  601.00	  582.14	-1722.89	  387.34
     87.2700	  627.00	  593.06	-1707.81	  387.21
     87.3700	  604.00	  603.29	-1741.04	  387.09
     87.4700	  595.00	  612.00	-1758.75	  386.96
     87.5700	  646.00	  618.32	-1714.07	  386.83
     87.6700	  637.00	  621.52	-1726.27	  386.70
     87.7700	  635.00	  621.23	-1727.98	  386.57
     87.8700	  606.00	  617.58	-1753.33	  386.43
     87.9700	  573.00	  611.17	-1779.92	  386.30
     88.0700	  601.00	  602.88	-1743.63	  386.16
     88.1700	  585.00	  593.64	-1750.39	  386.02
     88.2700	  605.00	  583.92	-1720.67	  385.88
     88.3700	  563.00	  575.29	-1754.04	  385.73
     88.4700	  591.00	  567.92	-1718.67	  385.59
     88.5700	  562.00	  562.23	-1741.98	  385.44
     88.6700	  570.00	  558.47	-1730.22	  385.29
     88.7700	  608.00	  556.72	-1690.47	  385.14
     88.8700	  582.00	  556.90	-1716.65	  384.98
     88.9700	  598.00	  558.81	-1702.56	  384.83
     89.0700	  565.00	  562.08	-1738.83	  384.67
     89.1700	  571.00	  566.27	-1737.02	  384.51
     89.2700	  587.00	  570.86	-1725.61	  384.35
     89.3700	  567.00	  575.22	-1749.97	  384.19
     89.4700	  572.00	  578.75	-1748.50	  384.02
     89.5700	  591.00	  580.86	-1731.61	  383.86
     89.6700	  587.00	  581.13	-1735.88	  383.69
     89.7700	  577.00	  579.43	-1744.18	  383.52
     89.8700	  536.00	  575.88	-1781.63	  383.35
     89.9700	  570.00	  570.86	-1742.61	  383.17
     90.0700	  529.00	  564.84	-1777.59	  383.00
     90.1700	  530.00	  558.32	-1770.07	  382.82
     90.2700	  540.00	  551.72	-1753.47	  382.64
     90.3700	  520.00	  545.36	-1767.11	  382.46
     90.4700	  519.00	  539.53	-1762.28	  382.28
     90.5700	  512.00	  534.37	-1764.12	  382.10
     90.6700	  522.00	  530.00	-1749.75	  381.91
     90.7700	  506.00	  526.43	-1762.18	  381.72
     90.8700	  518.00	  523.64	-1747.39	  381.53
     90.9700	  481.00	  521.58	-1782.33	  381.34
     91.0700	  462.00	  520.18	-1799.93	  381.15
     91.1700	  496.00	  519.37	-1765.12	  380.95
     91.2700	  498.00	  519.09	-1762.84	  380.75
     91.3700	  516.00	  519.31	-1745.06	  380.56
     91.4700	  493.00	  520.03	-1768.78	  380.36
     91.5700	  508.00	  521.28	-1755.03	  380.15
     91.6700	  499.00	  523.14	-1765.89	  379.95
     91.7700	  525.00	  525.71	-1742.46	  379.75
     91.8700	  497.00	  529.15	-1773.90	  379.54
     91.9700	  558.00	  533.62	-1717.37	  379.33
     92.0700	  487.00	  539.30	-1794.05	  379.12
     92.1700	  584.00	  546.38	-1704.13	  378.91
     92.2700	  521.00	  555.02	-1775.77	  378.69
     92.3700	  521.00	  565.33	-1786.08	  378.48
     92.4700	  524.00	  577.37	-1795.12	  378.26
     92.5700	  568.00	  591.11	-1764.86	  378.04
     92.6700	  553.00	  606.43	-1795.18	  377.82
     92.7700	  601.00	  623.06	-1763.81	  377.60
     92.8700	  597.00	  640.63	-1785.38	  377.38
     92.9700	  636.00	  658.62	-1764.37	  377.15
     93.0700	  645.00	  676.41	-1773.16	  376.92
     93.1700	  700.00	  693.30	-1735.05	  376.69
     93.2700	  663.00	  708.65	-1787.40	  376.46
     93.3700	  706.00	  722.05	-1757.80	  376.23
     93.4700	  749.00	  733.42	-1726.17	  376.00
     93.5700	  671.00	  742.76	-1813.51	  375.76
     93.6700	  795.00	  751.16	-1697.91	  375.53
     93.7700	  759.00	  758.91	-1741.66	  375.29
     93.8700	  789.00	  766.50	-1719.25	  375.05
     93.9700	  797.00	  774.30	-1719.05	  374.81
     94.0700	  831.00	  782.62	-1693.37	  374.57
     94.1700	  848.00	  791.74	-1685.49	  374.32
     94.2700	  808.00	  801.97	-1735.72	  374.08
     94.3700	  841.00	  813.54	-1714.29	  373.83
     94.4700	  862.00	  826.46	-1706.21	  373.58
     94.5700	  879.00	  840.41	-1703.16	  373.33
     94.6700	  878.00	  854.63	-1718.38	  373.08
     94.7700	  870.00	  868.02	-1739.77	  372.83
     94.8700	  890.00	  879.11	-1730.86	  372.58
     94.9700	  871.00	  886.30	-1757.05	  372.32
     95.0700	  901.00	  888.12	-1728.87	  372.06
     95.1700	  865.00	  883.58	-1760.33	  371.81
     95.2700	  909.00	  872.51	-1705.26	  371.55
     95.3700	  863.00	  855.58	-1734.33	  371.29
     95.4700	  821.00	  834.15	-1754.90	  371.02
     95.5700	  793.00	  809.97	-1758.72	  370.76
     95.6700	  772.00	  784.88	-1754.63	  370.50
     95.7700	  808.00	  760.67	-1694.42	  370.23
     95.8700	  753.00	  739.01	-1727.76	  369.96
     95.9700	  745.00	  721.40	-1718.15	  369.69
     96.0700	  706.00	  709.21	-1744.96	  369.42
     96.1700	  705.00	  703.61	-1740.36	  369.15
     96.2700	  711.00	  705.62	-1736.37	  368.88
     96.3700	  705.00	  716.11	-1752.86	  368.61
     96.4700	  678.00	  735.70	-1799.45	  368.33
     96.5700	  799.00	  764.81	-1707.56	  368.06
     96.6700	  810.00	  803.57	-1735.32	  367.78
     96.7700	  865.00	  851.75	-1728.50	  367.50
     96.8700	  894.00	  908.73	-1756.48	  367.22
     96.9700	  909.00	  973.37	-1806.12	  366.94
     97.0700	 1006.00	 1044.00	-1779.75	  366.66
     97.1700	 1086.00	 1118.37	-1774.12	  366.38
     97.2700	 1208.00	 1193.62	-1727.37	  366.10
     97.3700	 1237.00	 1266.30	-1771.05	  365.81
     97.4700	 1305.00	 1332.46	-1769.21	  365.53
     97.5700	 1401.00	 1387.84	-1728.59	  365.24
     97.6700	 1435.00	 1428.38	-1735.13	  364.95
     97.7700	 1351.00	 1450.86	-1841.61	  364.66
     97.8700	 1394.00	 1453.59	-1801.34	  364.38
     97.9700	 1382.00	 1436.80	-1796.55	  364.09
     98.0700	 1420.00	 1402.54	-1724.29	  363.79
     98.1700	 1326.00	 1354.18	-1769.93	  363.50
     98.2700	 1243.00	 1295.68	-1794.43	  363.21
     98.3700	 1194.00	 1231.08	-1778.83	  362.92
     98.4700	 1154.00	 1164.24	-1751.99	  362.62
     98.5700	 1129.00	 1098.60	-1711.35	  362.33
     98.6700	 1031.00	 1037.13	-1747.88	  362.03
     98.7700	  943.00	  982.32	-1781.07	  361.73
     98.8700	  915.00	  936.18	-1762.93	  361.43
     98.9700	  906.00	  900.35	-1736.10	  361.14
     99.0700	  883.00	  876.07	-1734.82	  360.84
     99.1700	  894.00	  864.27	-1712.02	  360.54
     99.2700	  891.00	  865.55	-1716.30	  360.24
     99.3700	  923.00	  880.26	-1699.01	  359.94
     99.4700	  898.00	  908.48	-1752.23	  359.63
     99.5700	  976.00	  950.04	-1715.79	  359.33
     99.6700	  994.00	 1004.51	-1752.26	  359.03
     99.7700	 1059.00	 1071.08	-1753.83	  358.73
     99.8700	 1124.00	 1148.66	-1766.41	  358.42
     99.9700	 1262.00	 1235.62	-1715.37	  358.12
    100.0700	 1331.00	 1329.83	-1740.58	  357.81
    100.1700	 1400.00	 1428.65	-1770.40	  357.51
    100.2700	 1552.00	 1528.84	-1718.59	  357.20
    100.3700	 1668.00	 1626.68	-1700.43	  356.89
    100.4700	 1656.00	 1718.32	-1804.07	  356.59
    100.5700	 1801.00	 1800.09	-1740.84	  356.28
    100.6700	 1886.00	 1868.96	-1724.71	  355.97
    100.7700	 1943.00	 1922.77	-1721.52	  355.67
    100.8700	 2009.00	 1960.10	-1692.85	  355.36
    100.9700	 2020.00	 1980.10	-1701.85	  355.05
    101.0700	 1988.00	 1982.21	-1735.96	  354.74
    101.1700	 2021.00	 1966.24	-1686.99	  354.43
    101.2700	 1912.00	 1932.64	-1762.39	  354.12
    101.3700	 1883.00	 1882.89	-1741.64	  353.81
    101.4700	 1776.00	 1819.68	-1785.43	  353.50
    101.5700	 1696.00	 1746.75	-1792.50	  353.20
    101.6700	 1654.00	 1668.36	-1756.11	  352.89
    101.7700	 1650.00	 1588.72	-1680.47	  352.58
    101.8700	 1514.00	 1511.59	-1739.34	  352.27
    101.9700	 1505.00	 1439.94	-1676.69	  351.96
    102.0700	 1361.00	 1375.85	-1756.60	  351.65
    102.1700	 1332.00	 1320.49	-1730.24	  351.34
    102.2700	 1230.00	 1274.15	-1785.90	  351.03
    102.3700	 1222.00	 1236.39	-1756.14	  350.72
    102.4700	 1240.00	 1206.00	-1707.75	  350.41
    102.5700	 1156.00	 1181.23	-1766.98	  350.10
    102.6700	 1166.00	 1159.86	-1735.61	  349.79
    102.7700	 1129.00	 1139.53	-1752.28	  349.48
    102.8700	 1130.00	 1118.02	-1729.77	  349.17
    102.9700	 1098.00	 1093.52	-1737.27	  348.87
    103.0700	 1068.00	 1064.98	-1738.73	  348.56
    103.1700	 1046.00	 1032.10	-1727.85	  348.25
    103.2700	 1032.00	  995.30	-1705.05	  347.94
    103.3700	  936.00	  955.46	-1761.21	  347.64
    103.4700	  882.00	  913.71	-1773.46	  347.33
    103.5700	  878.00	  871.22	-1734.97	  347.03
    103.6700	  838.00	  829.10	-1732.85	  346.72
    103.7700	  764.00	  788.36	-1766.11	  346.41
    103.8700	  763.00	  749.81	-1728.56	  346.11
    103.9700	  699.00	  714.10	-1756.85	  345.81
    104.0700	  716.00	  681.69	-1707.44	  345.50
    104.1700	  693.00	  652.85	-1701.60	  345.20
    104.2700	  624.00	  627.68	-1745.43	  344.90
    104.3700	  669.00	  606.14	-1678.89	  344.60
    104.4700	  553.00	  588.06	-1776.81	  344.30
    104.5700	  573.00	  573.18	-1741.93	  344.00
    104.6700	  551.00	  561.17	-1751.92	  343.70
    104.7700	  572.00	  551.71	-1721.46	  343.40
    104.8700	  533.00	  544.43	-1753.18	  343.10
    104.9700	  581.00	  539.02	-1699.77	  342.81
    105.0700	  551.00	  535.17	-1725.92	  342.51
    105.1700	  529.00	  532.61	-1745.36	  342.22
    105.2700	  511.00	  531.15	-1761.90	  341.92
    105.3700	  553.00	  530.59	-1719.34	  341.63
    105.4700	  539.00	  530.81	-1733.56	  341.34
    105.5700	  518.00	  531.71	-1755.46	  341.05
    105.6700	  550.00	  533.23	-1724.98	  340.76
    105.7700	  527.00	  535.33	-1750.08	  340.47
    105.8700	  552.00	  538.04	-1727.79	  340.19
    105.9700	  558.00	  541.37	-1725.12	  339.90
    106.0700	  535.00	  545.38	-1752.13	  339.62
    106.1700	  530.00	  550.12	-1761.87	  339.34
    106.2700	  548.00	  555.64	-1749.39	  339.05
    106.3700	  565.00	  561.99	-1738.74	  338.77
    106.4700	  606.00	  569.18	-1704.93	  338.50
    106.5700	  578.00	  577.15	-1740.90	  338.22
    106.6700	  622.00	  585.82	-1705.57	  337.94
    106.7700	  629.00	  595.05	-1707.80	  337.67
    106.8700	  597.00	  604.65	-1749.40	  337.40
    106.9700	  630.00	  614.35	-1726.10	  337.13
    107.0700	  673.00	  623.90	-1692.65	  336.86
    107.1700	  617.00	  632.97	-1757.72	  336.59
    107.2700	  645.00	  641.22	-1737.97	  336.33
    107.3700	  663.00	  648.33	-1727.08	  336.06
    107.4700	  696.00	  654.05	-1699.80	  335.80
    107.5700	  680.00	  658.22	-1719.97	  335.54
    107.6700	  718.00	  660.85	-1684.60	  335.28
    107.7700	  656.00	  662.08	-1747.83	  335.03
    107.8700	  650.00	  662.22	-1753.97	  334.77
    107.9700	  659.00	  661.61	-1744.36	  334.52
    108.0700	  614.00	  660.66	-1788.41	  334.27
    108.1700	  667.00	  659.72	-1734.47	  334.02
    108.2700	  691.00	  659.09	-1709.84	  333.78
    108.3700	  689.00	  659.01	-1711.76	  333.53
    108.4700	  636.00	  659.58	-1765.33	  333.29
    108.5700	  662.00	  660.83	-1740.58	  333.05
    108.6700	  613.00	  662.68	-1791.43	  332.82
    108.7700	  644.00	  664.94	-1762.69	  332.58
    108.8700	  660.00	  667.35	-1749.10	  332.35
    108.9700	  650.00	  669.54	-1761.29	  332.12
    109.0700	  707.00	  671.12	-1705.87	  331.89
    109.1700	  671.00	  671.68	-1742.43	  331.67
    109.2700	  683.00	  670.86	-1729.61	  331.45
    109.3700	  683.00	  668.39	-1727.14	  331.23
    109.4700	  649.00	  664.14	-1756.89	  331.01
    109.5700	  656.00	  658.14	-1743.89	  330.80
    109.6700	  640.00	  650.56	-1752.31	  330.59
    109.7700	  675.00	  641.65	-1708.40	  330.38
    109.8700	  655.00	  631.76	-1718.51	  330.18
    109.9700	  642.00	  621.23	-1720.98	  329.98
    110.0700	  641.00	  610.40	-1711.15	  329.78
    110.1700	  572.00	  599.58	-1769.33	  329.58
    110.2700	  593.00	  589.05	-1737.80	  329.39
    110.3700	  567.00	  579.05	-1753.80	  329.20
    110.4700	  588.00	  569.76	-1723.51	  329.01
    110.5700	  576.00	  561.33	-1727.08	  328.83
    110.6700	  542.00	  553.86	-1753.61	  328.65
    110.7700	  552.00	  547.40	-1737.15	  328.47
    110.8700	  587.00	  541.98	-1696.73	  328.30
    110.9700	  550.00	  537.58	-1729.33	  328.13
    111.0700	  585.00	  534.15	-1690.90	  327.96
    111.1700	  545.00	  531.65	-1728.40	  327.80
    111.2700	  536.00	  529.99	-1735.74	  327.64
    111.3700	  521.00	  529.09	-1749.84	  327.48
    111.4700	  527.00	  528.86	-1743.61	  327.33
    111.5700	  514.00	  529.22	-1756.97	  327.18
    111.6700	  523.00	  530.08	-1748.83	  327.04
    111.7700	  552.00	  531.36	-1721.11	  326.90
    111.8700	  529.00	  533.01	-1745.76	  326.76
    111.9700	  574.00	  534.96	-1702.71	  326.63
    112.0700	  554.00	  537.17	-1724.92	  326.50
    112.1700	  515.00	  539.60	-1766.35	  326.37
    112.2700	  506.00	  542.24	-1777.99	  326.25
    112.3700	  539.00	  545.07	-1747.82	  326.14
    112.4700	  547.00	  548.12	-1742.87	  326.02
    112.5700	  543.00	  551.40	-1750.15	  325.92
    112.6700	  507.00	  554.95	-1789.70	  325.81
    112.7700	  510.00	  558.82	-1790.57	  325.71
    112.8700	  544.00	  563.07	-1760.82	  325.62
    112.9700	  571.00	  567.79	-1738.54	  325.53
    113.0700	  551.00	  573.07	-1763.82	  325.44
    113.1700	  595.00	  579.04	-1725.79	  325.36
    113.2700	  594.00	  585.85	-1733.60	  325.28
    113.3700	  553.00	  593.71	-1782.46	  325.21
    113.4700	  588.00	  602.88	-1756.63	  325.14
    113.5700	  601.00	  613.66	-1754.41	  325.08
    113.6700	  672.00	  626.48	-1696.23	  325.02
    113.7700	  605.00	  641.82	-1778.57	  324.97
    113.8700	  703.00	  660.32	-1699.07	  324.92
    113.9700	  698.00	  682.75	-1726.50	  324.88
    114.0700	  756.00	  710.03	-1695.78	  324.84
    114.1700	  750.00	  743.24	-1734.99	  324.81
    114.2700	  831.00	  783.70	-1694.45	  324.78
    114.3700	  844.00	  832.89	-1730.64	  324.76
    114.4700	  934.00	  892.48	-1700.23	  324.74
    114.5700	  961.00	  964.34	-1745.09	  324.73
    114.6700	 1126.00	 1050.46	-1666.21	  324.73
    114.7700	 1218.00	 1152.99	-1676.74	  324.72
    114.8700	 1245.00	 1274.09	-1770.84	  324.73
    114.9700	 1491.00	 1415.89	-1666.64	  324.74
    115.0700	 1600.00	 1580.36	-1722.11	  324.76
    115.1700	 1855.00	 1769.20	-1655.95	  324.78
    115.2700	 2051.00	 1983.80	-1674.55	  324.81
    115.3700	 2307.00	 2225.02	-1659.77	  324.84
    115.4700	 2633.00	 2492.97	-1601.72	  324.88
    115.5700	 2830.00	 2787.04	-1698.79	  324.93
    115.6700	 3157.00	 3105.63	-1690.38	  324.98
    115.7700	 3500.00	 3446.24	-1687.99	  325.04
    115.8700	 3767.00	 3805.32	-1780.07	  325.11
    115.9700	 4022.00	 4178.06	-1897.81	  325.18
    116.0700	 4441.00	 4558.60	-1859.35	  325.25
    116.1700	 4885.00	 4939.90	-1796.65	  325.34
    116.2700	 5309.00	 5313.95	-1746.70	  325.43
    116.3700	 5563.00	 5671.81	-1850.56	  325.52
    116.4700	 5850.00	 6003.62	-1895.37	  325.63
    116.5700	 6222.00	 6299.15	-1818.90	  325.74
    116.6700	 6575.00	 6548.12	-1714.87	  325.85
    116.7700	 6741.00	 6741.04	-1741.79	  325.98
    116.8700	 6787.00	 6869.92	-1824.67	  326.11
    116.9700	 6967.00	 6929.10	-1703.85	  326.25
    117.0700	 6943.00	 6916.03	-1714.78	  326.39
    117.1700	 6864.00	 6831.63	-1709.38	  326.54
    117.2700	 6679.00	 6680.11	-1742.86	  326.70
    117.3700	 6425.00	 6468.37	-1785.12	  326.87
    117.4700	 6269.00	 6205.31	-1678.06	  327.04
    117.5700	 5720.00	 5900.85	-1922.60	  327.22
    117.6700	 5421.00	 5565.28	-1886.03	  327.41
    117.7700	 5176.00	 5208.51	-1774.26	  327.60
    117.8700	 4819.00	 4839.78	-1762.53	  327.81
    117.9700	 4412.00	 4467.51	-1797.26	  328.02
    118.0700	 4152.00	 4099.07	-1688.82	  328.24
    118.1700	 3865.00	 3740.75	-1617.50	  328.46
    118.2700	 3492.00	 3397.58	-1647.33	  328.70
    118.3700	 3137.00	 3073.51	-1678.26	  328.94
    118.4700	 2879.00	 2771.48	-1634.23	  329.19
    118.5700	 2436.00	 2493.41	-1799.16	  329.45
    118.6700	 2290.00	 2240.32	-1692.07	  329.71
    118.7700	 2034.00	 2012.39	-1720.14	  329.99
    118.8700	 1783.00	 1809.16	-1767.91	  330.27
    118.9700	 1656.00	 1629.68	-1715.43	  330.56
    119.0700	 1510.00	 1472.58	-1704.33	  330.86
    119.1700	 1378.00	 1336.20	-1699.95	  331.17
    119.2700	 1181.00	 1218.65	-1779.40	  331.49
    119.3700	 1081.00	 1117.97	-1778.72	  331.81
    119.4700	 1013.00	 1032.24	-1760.99	  332.15
    119.5700	  948.00	  959.56	-1753.31	  332.49
    119.6700	  925.00	  898.17	-1714.92	  332.84
    119.7700	  836.00	  846.44	-1752.19	  333.20
    119.8700	  813.00	  802.90	-1731.65	  333.57
    119.9700	  716.00	  766.27	-1792.02	  333.95
    120.0700	  704.00	  735.46	-1773.21	  334.34
    120.1700	  712.00	  709.51	-1739.26	  334.74
    120.2700	  646.00	  687.63	-1783.38	  335.15
    120.3700	  674.00	  669.16	-1736.91	  335.56
    120.4700	  617.00	  653.56	-1778.31	  335.99
    120.5700	  624.00	  640.38	-1758.13	  336.42
    120.6700	  599.00	  629.26	-1772.01	  336.87
    120.7700	  576.00	  619.91	-1785.66	  337.33
    120.8700	  538.00	  612.09	-1815.84	  337.79
    120.9700	  600.00	  605.61	-1747.36	  338.27
    121.0700	  612.00	  600.33	-1730.08	  338.75
    121.1700	  596.00	  596.11	-1741.86	  339.25
    121.2700	  635.00	  592.86	-1699.61	  339.75
    121.3700	  552.00	  590.49	-1780.24	  340.27
    121.4700	  562.00	  588.92	-1768.67	  340.79
    121.5700	  560.00	  588.11	-1769.86	  341.33
    121.6700	  542.00	  587.97	-1787.72	  341.88
    121.7700	  577.00	  588.47	-1753.22	  342.43
    121.8700	  584.00	  589.54	-1747.29	  343.00
    121.9700	  580.00	  591.12	-1752.87	  343.58
    122.0700	  608.00	  593.15	-1726.90	  344.17
    122.1700	  593.00	  595.57	-1744.32	  344.77
    122.2700	  543.00	  598.30	-1797.05	  345.38
    122.3700	  613.00	  601.27	-1730.02	  346.00
    122.4700	  621.00	  604.38	-1725.13	  346.64
    122.5700	  617.00	  607.55	-1732.30	  347.28
    122.6700	  627.00	  610.68	-1725.43	  347.94
    122.7700	  596.00	  613.67	-1759.42	  348.61
    122.8700	  618.00	  616.43	-1740.18	  349.29
    122.9700	  598.00	  618.87	-1762.62	  349.98
    123.0700	  600.00	  620.88	-1762.63	  350.68
    123.1700	  603.00	  622.42	-1761.17	  351.40
    123.2700	  666.00	  623.42	-1699.17	  352.12
    123.3700	  657.00	  623.87	-1708.62	  352.86
    123.4700	  646.00	  623.75	-1719.50	  353.61
    123.5700	  612.00	  623.09	-1752.84	  354.38
    123.6700	  671.00	  621.91	-1692.66	  355.15
    123.7700	  624.00	  620.31	-1738.06	  355.94
    123.8700	  657.00	  618.31	-1703.06	  356.74
    123.9700	  637.00	  616.00	-1720.75	  357.55
    124.0700	  662.00	  613.43	-1693.18	  358.38
    124.1700	  634.00	  610.69	-1718.44	  359.21
    124.2700	  629.00	  607.82	-1720.57	  360.06
    124.3700	  593.00	  604.89	-1753.64	  360.93
    124.4700	  632.00	  601.96	-1711.71	  361.80
    124.5700	  562.00	  599.07	-1778.82	  362.69
    124.6700	  611.00	  596.28	-1727.03	  363.60
    124.7700	  562.00	  593.60	-1773.35	  364.51
    124.8700	  624.00	  591.10	-1708.85	  365.44
    124.9700	  604.00	  474.63	-1612.38	  366.39
    125.0700	  620.00	  475.58	-1741.75	  367.34
    125.1700	  594.00	  476.55	-1741.75	  368.31
    125.2700	  587.00	  477.54	-1741.75	  369.30
    125.3700	  590.00	  478.54	-1741.75	  370.29
    125.4700	  600.00	  479.55	-1741.75	  371.31
    125.5700	  562.00	  480.57	-1741.75	  372.33
    125.6700	  513.00	  481.61	-1741.75	  373.37
    125.7700	  551.00	  482.67	-1741.75	  374.43
    125.8700	  579.00	  483.74	-1741.75	  375.49
    125.9700	  536.00	  484.82	-1741.75	  376.58
    126.0700	  569.00	  485.92	-1741.75	  377.67
    126.1700	  569.00	  487.03	-1741.75	  378.79
    126.2700	  550.00	  488.16	-1741.75	  379.91
    126.3700	  606.00	  489.30	-1741.75	  381.06
    126.4700	  577.00	  490.45	-1741.75	  382.21
    126.5700	  569.00	  491.63	-1741.75	  383.38
    126.6700	  567.00	  492.81	-1741.75	  384.57
    126.7700	  571.00	  494.01	-1741.75	  385.77
    126.8700	  588.00	  495.23	-1741.75	  386.99
    126.9700	  561.00	  496.47	-1741.75	  388.22
    127.0700	  636.00	  497.71	-1741.75	  389.47
    127.1700	  599.00	  498.98	-1741.75	  390.74
    127.2700	  603.00	  500.26	-1741.75	  392.02
    127.3700	  601.00	  501.55	-1741.75	  393.31
    127.4700	  597.00	  502.87	-1741.75	  394.62
    127.5700	  594.00	  504.19	-1741.75	  395.95
    127.6700	  570.00	  505.54	-1741.75	  397.30
    127.7700	  608.00	  506.90	-1741.75	  398.66
    127.8700	  640.00	  508.28	-1741.75	  400.03
    127.9700	  651.00	  509.67	-1741.75	  401.43
    128.0700	  651.00	  511.08	-1741.75	  402.84
    128.1700	  711.00	  512.51	-1741.75	  404.26
    128.2700	  751.00	  513.95	-1741.75	  405.71
    128.3700	  770.00	  515.41	-1741.75	  407.17
    128.4700	  742.00	  516.89	-1741.75	  408.65
    128.5700	    0.00	  518.38	-1741.75	  410.14
    128.6700	    0.00	  519.89	-1741.75	  411.65
     12.3318	        	        	        	        	       0	(  0  0  2)	  0  1
     24.9430	        	        	        	        	       0	(  0  0  4)	  0  1
     28.3833	        	        	        	        	       0	(  1  0  0)	  0  1
     29.0823	        	        	        	        	       0	(  1  0  1)	  0  1
     31.0937	        	        	        	        	       0	(  1  0  2)	  0  1
     34.2100	        	        	        	        	       0	(  1  0  3)	  0  1
     37.8723	        	        	        	        	       0	(  0  0  6)	  0  1
     38.1973	        	        	        	        	       0	(  1  0  4)	  0  1
     42.8595	        	        	        	        	       0	(  1  0  5)	  0  1
     48.0572	        	        	        	        	       0	(  1  0  6)	  0  1
     50.3660	        	        	        	        	       0	(  1  1  0)	  0  1
     51.3277	        	        	        	        	       0	(  0  0  8)	  0  1
     52.0940	        	        	        	        	       0	(  1  1  2)	  0  1
     53.7029	        	        	        	        	       0	(  1  0  7)	  0  1
     57.0564	        	        	        	        	       0	(  1  1  4)	  0  1
     58.8828	        	        	        	        	       0	(  2  0  0)	  0  1
     59.2756	        	        	        	        	       0	(  2  0  1)	  0  1
     59.7504	        	        	        	        	       0	(  1  0  8)	  0  1
     60.4446	        	        	        	        	       0	(  2  0  2)	  0  1
     62.3638	        	        	        	        	       0	(  2  0  3)	  0  1
     64.7745	        	        	        	        	       0	(  1  1  6)	  0  1
     64.9961	        	        	        	        	       0	(  2  0  4)	  0  1
     65.5968	        	        	        	        	       0	(  0  0 10)	  0  1
     66.1859	        	        	        	        	       0	(  1  0  9)	  0  1
     68.3010	        	        	        	        	       0	(  2  0  5)	  0  1
     72.2416	        	        	        	        	       0	(  2  0  6)	  0  1
     73.0239	        	        	        	        	       0	(  1  0 10)	  0  1
     74.8453	        	        	        	        	       0	(  1  1  8)	  0  1
     76.7915	        	        	        	        	       0	(  2  0  7)	  0  1
     80.3069	        	        	        	        	       0	(  1  0 11)	  0  1
     81.1288	        	        	        	        	       0	(  0  0 12)	  0  1
     81.1856	        	        	        	        	       0	(  2  1  0)	  0  1
     81.5268	        	        	        	        	       0	(  2  1  1)	  0  1
     81.9407	        	        	        	        	       0	(  2  0  8)	  0  1
     82.5486	        	        	        	        	       0	(  2  1  2)	  0  1
     84.2466	        	        	        	        	       0	(  2  1  3)	  0  1
     86.6157	        	        	        	        	       0	(  2  1  4)	  0  1
     87.1628	        	        	        	        	       0	(  1  1 10)	  0  1
     87.7015	        	        	        	        	       0	(  2  0  9)	  0  1
     88.1115	        	        	        	        	       0	(  1  0 12)	  0  1
     89.6542	        	        	        	        	       0	(  2  1  5)	  0  1
     93.3679	        	        	        	        	       0	(  2  1  6)	  0  1
     94.1167	        	        	        	        	       0	(  2  0 10)	  0  1
     95.1244	        	        	        	        	       0	(  3  0  0)	  0  1
     95.4633	        	        	        	        	       0	(  3  0  1)	  0  1
     96.4813	        	        	        	        	       0	(  3  0  2)	  0  1
     96.5622	        	        	        	        	       0	(  1  0 13)	  0  1
     97.7771	        	        	        	        	       0	(  2  1  7)	  0  1
     98.1829	        	        	        	        	       0	(  3  0  3)	  0  1
     98.7435	        	        	        	        	       0	(  0  0 14)	  0  1
    100.5778	        	        	        	        	       0	(  3  0  4)	  0  1
    101.2736	        	        	        	        	       0	(  2  0 11)	  0  1
    102.1026	        	        	        	        	       0	(  1  1 12)	  0  1
    102.9259	        	        	        	        	       0	(  2  1  8)	  0  1
    103.6858	        	        	        	        	       0	(  3  0  5)	  0  1
    105.8640	        	        	        	        	       0	(  1  0 14)	  0  1
    107.5427	        	        	        	        	       0	(  3  0  6)	  0  1
    108.8970	        	        	        	        	       0	(  2  1  9)	  0  1
    109.3310	        	        	        	        	       0	(  2  0 12)	  0  1
    112.2121	        	        	        	        	       0	(  3  0  7)	  0  1
    115.8402	        	        	        	        	       0	(  2  1 10)	  0  1
    116.3776	        	        	        	        	       0	(  1  0 15)	  0  1
    116.9626	        	        	        	        	       0	(  2  2  0)	  0  1
    117.8050	        	        	        	        	       0	(  3  0  8)	  0  1
    118.4891	        	        	        	        	       0	(  2  2  2)	  0  1
    118.5807	        	        	        	        	       0	(  2  0 13)	  0  1
    120.3733	        	        	        	        	       0	(  0  0 16)	  0  1
    121.0752	        	        	        	        	       0	(  1  1 14)	  0  1
    123.2131	        	        	        	        	       0	(  2  2  4)	  0  1
    124.0344	        	        	        	        	       0	(  2  1 11)	  0  1
    124.5213	        	        	        	        	       0	(  3  0  9)	  0  1
    125.0896	        	        	        	        	       0	(  3  1  0)	  0  1
    125.5037	        	        	        	        	       0	(  3  1  1)	  0  1
    126.7591	        	        	        	        	       0	(  3  1  2)	  0  1
    128.8369	        	        	        	        	       0	(  1  0 16)	  0  1
    128.8989	        	        	        	        	       0	(  3  1  3)	  0  1
    129.6161	        	        	        	        	       0	(  2  0 14)	  0  1
    131.7389	        	        	        	        	       0	(  2  2  6)	  0  1
    132.0092	        	        	        	        	       0	(  3  1  4)	  0  1
    132.7503	        	        	        	        	       0	(  3  0 10)	  0  1
    134.0579	        	        	        	        	       0	(  2  1 12)	  0  1
    136.2502	        	        	        	        	       0	(  3  1  5)	  0  1
    141.9352	        	        	        	        	       0	(  3  1  6)	  0  1
    143.3967	        	        	        	        	       0	(  3  0 11)	  0  1
    143.9819	        	        	        	        	       0	(  2  0 15)	  0  1
    145.2767	        	        	        	        	       0	(  1  0 17)	  0  1
    146.2074	        	        	        	        	       0	(  2  2  8)	  0  1
    147.4600	        	        	        	        	       0	(  2  1 13)	  0  1
    149.7830	        	        	        	        	       0	(  3  1  7)	  0  1
    150.4958	        	        	        	        	       0	(  1  1 16)	  0  1
    155.1044	        	        	        	        	       0	(  0  0 18)	  0  1
    159.8504	        	        	        	        	       0	(  3  0 12)	  0  1
    160.0153	        	        	        	        	       0	(  4  0  0)	  0  1
    161.0338	        	        	        	        	       0	(  4  0  1)	  0  1
    162.3470	        	        	        	        	       0	(  3  1  8)	  0  1
    164.4734	        	        	        	        	       0	(  4  0  2)	  0  1
    172.9486	        	        	        	        	       0	(  2  0 16)	  0  1
    173.3606	        	        	        	        	       0	(  4  0  3)	  0  1
