MSG Master    CELL:    5.91472   5.91472  23.25204   90.0000   90.0000  120.0000   SPGR: P 63/m m c             TEMP:    998.25
  1   1280     2.52000     0.00000    -0.13500     0.00000     0.00000    0
    99     0     2
       0.00000      10.00000
     125.00000     130.00000
 2Theta	Yobs	Ycal	Yobs-Ycal	Backg	Posr	(hkl)	K
      0.7700	    0.00	  503.21	-1711.67	  389.45
      0.8700	    0.00	  504.39	-1711.67	  390.63
      0.9700	   48.00	  505.56	-1711.67	  391.80
      1.0700	   27.00	  506.71	-1711.67	  392.96
      1.1700	   52.00	  507.85	-1711.67	  394.10
      1.2700	   41.00	  508.98	-1711.67	  395.22
      1.3700	   52.00	  510.09	-1711.67	  396.33
      1.4700	   92.00	  511.19	-1711.67	  397.43
      1.5700	  334.00	  512.27	-1711.67	  398.51
      1.6700	  481.00	  513.34	-1711.67	  399.58
      1.7700	  546.00	  514.40	-1711.67	  400.64
      1.8700	  655.00	  515.44	-1711.67	  401.68
      1.9700	  715.00	  516.47	-1711.67	  402.71
      2.0700	  771.00	  517.48	-1711.67	  403.72
      2.1700	  793.00	  518.48	-1711.67	  404.72
      2.2700	  781.00	  519.47	-1711.67	  405.71
      2.3700	  703.00	  520.44	-1711.67	  406.68
      2.4700	  703.00	  521.40	-1711.67	  407.65
      2.5700	  712.00	  522.35	-1711.67	  408.59
      2.6700	  678.00	  523.29	-1711.67	  409.53
      2.7700	  673.00	  524.21	-1711.67	  410.45
      2.8700	  650.00	  525.12	-1711.67	  411.36
      2.9700	  620.00	  526.01	-1711.67	  412.25
      3.0700	  611.00	  526.90	-1711.67	  413.14
      3.1700	  600.00	  527.77	-1711.67	  414.01
      3.2700	  608.00	  528.62	-1711.67	  414.87
      3.3700	  729.00	  529.47	-1711.67	  415.71
      3.4700	  777.00	  530.30	-1711.67	  416.55
      3.5700	  820.00	  531.12	-1711.67	  417.37
      3.6700	  937.00	  531.93	-1711.67	  418.18
      3.7700	  994.00	  532.73	-1711.67	  418.97
      3.8700	 1036.00	  533.51	-1711.67	  419.76
      3.9700	 1097.00	  534.29	-1711.67	  420.53
      4.0700	 1144.00	  535.05	-1711.67	  421.29
      4.1700	 1151.00	  535.80	-1711.67	  422.04
      4.2700	 1129.00	  536.53	-1711.67	  422.78
      4.3700	 1210.00	  537.26	-1711.67	  423.50
      4.4700	 1126.00	  537.97	-1711.67	  424.22
      4.5700	 1091.00	  538.68	-1711.67	  424.92
      4.6700	 1074.00	  539.37	-1711.67	  425.61
      4.7700	 1081.00	  540.05	-1711.67	  426.29
      4.8700	 1071.00	  540.72	-1711.67	  426.96
      4.9700	 1004.00	  541.38	-1711.67	  427.62
      5.0700	  973.00	  542.02	-1711.67	  428.27
      5.1700	 1063.00	  542.66	-1711.67	  428.90
      5.2700	  948.00	  543.28	-1711.67	  429.53
      5.3700	  944.00	  543.90	-1711.67	  430.14
      5.4700	  917.00	  544.50	-1711.67	  430.74
      5.5700	  878.00	  545.09	-1711.67	  431.34
      5.6700	  894.00	  545.68	-1711.67	  431.92
      5.7700	  842.00	  546.25	-1711.67	  432.49
      5.8700	  811.00	  546.81	-1711.67	  433.05
      5.9700	  778.00	  547.36	-1711.67	  433.60
      6.0700	  852.00	  547.90	-1711.67	  434.14
      6.1700	  802.00	  548.43	-1711.67	  434.68
      6.2700	  795.00	  548.95	-1711.67	  435.20
      6.3700	  759.00	  549.46	-1711.67	  435.71
      6.4700	  808.00	  549.96	-1711.67	  436.21
      6.5700	  748.00	  550.46	-1711.67	  436.70
      6.6700	  732.00	  550.94	-1711.67	  437.18
      6.7700	  764.00	  551.41	-1711.67	  437.65
      6.8700	  752.00	  551.87	-1711.67	  438.11
      6.9700	  683.00	  552.32	-1711.67	  438.56
      7.0700	  743.00	  552.76	-1711.67	  439.01
      7.1700	  741.00	  553.20	-1711.67	  439.44
      7.2700	  631.00	  553.62	-1711.67	  439.86
      7.3700	  668.00	  554.03	-1711.67	  440.28
      7.4700	  662.00	  554.44	-1711.67	  440.68
      7.5700	  594.00	  554.84	-1711.67	  441.08
      7.6700	  639.00	  555.22	-1711.67	  441.47
      7.7700	  608.00	  555.60	-1711.67	  441.84
      7.8700	  651.00	  555.97	-1711.67	  442.21
      7.9700	  613.00	  556.33	-1711.67	  442.57
      8.0700	  650.00	  556.68	-1711.67	  442.93
      8.1700	  644.00	  557.03	-1711.67	  443.27
      8.2700	  610.00	  557.36	-1711.67	  443.60
      8.3700	  655.00	  557.69	-1711.67	  443.93
      8.4700	  625.00	  558.00	-1711.67	  444.25
      8.5700	  598.00	  558.31	-1711.67	  444.55
      8.6700	  597.00	  558.61	-1711.67	  444.86
      8.7700	  624.00	  558.90	-1711.67	  445.15
      8.8700	  622.00	  559.19	-1711.67	  445.43
      8.9700	  600.00	  559.46	-1711.67	  445.71
      9.0700	  648.00	  559.73	-1711.67	  445.98
      9.1700	  652.00	  559.99	-1711.67	  446.24
      9.2700	  593.00	  560.24	-1711.67	  446.49
      9.3700	  581.00	  560.49	-1711.67	  446.73
      9.4700	  577.00	  560.72	-1711.67	  446.97
      9.5700	  618.00	  560.95	-1711.67	  447.20
      9.6700	  597.00	  561.17	-1711.67	  447.42
      9.7700	  600.00	  561.39	-1711.67	  447.63
      9.8700	  613.00	  561.59	-1711.67	  447.84
      9.9700	  601.00	  561.79	-1711.67	  448.03
     10.0700	  578.00	  563.35	-1697.02	  448.23
     10.1700	  623.00	  563.69	-1652.36	  448.41
     10.2700	  620.00	  564.05	-1655.72	  448.59
     10.3700	  640.00	  564.46	-1636.13	  448.75
     10.4700	  596.00	  564.96	-1680.63	  448.92
     10.5700	  581.00	  565.60	-1696.27	  449.07
     10.6700	  576.00	  566.47	-1702.14	  449.22
     10.7700	  639.00	  567.68	-1640.35	  449.36
     10.8700	  580.00	  569.29	-1700.96	  449.49
     10.9700	  591.00	  571.32	-1691.98	  449.62
     11.0700	  601.00	  573.74	-1684.41	  449.74
     11.1700	  613.00	  576.57	-1675.24	  449.86
     11.2700	  566.00	  579.85	-1725.51	  449.96
     11.3700	  588.00	  583.66	-1707.33	  450.06
     11.4700	  571.00	  588.15	-1728.82	  450.16
     11.5700	  583.00	  593.55	-1722.22	  450.25
     11.6700	  604.00	  600.23	-1707.90	  450.33
     11.7700	  610.00	  608.73	-1710.40	  450.40
     11.8700	  635.00	  619.56	-1696.23	  450.47
     11.9700	  668.00	  632.54	-1676.21	  450.53
     12.0700	  658.00	  645.62	-1699.29	  450.59
     12.1700	  683.00	  653.87	-1682.54	  450.64
     12.2700	  629.00	  650.29	-1732.95	  450.68
     12.3700	  622.00	  632.96	-1722.63	  450.72
     12.4700	  676.00	  610.98	-1646.65	  450.75
     12.5700	  650.00	  593.18	-1654.85	  450.78
     12.6700	  540.00	  581.77	-1753.44	  450.80
     12.7700	  553.00	  575.43	-1734.10	  450.82
     12.8700	  556.00	  572.11	-1727.78	  450.83
     12.9700	  547.00	  570.28	-1734.95	  450.83
     13.0700	  554.00	  569.13	-1726.80	  450.83
     13.1700	  543.00	  568.33	-1737.00	  450.82
     13.2700	  534.00	  567.73	-1745.40	  450.81
     13.3700	  517.00	  567.26	-1761.93	  450.79
     13.4700	  530.00	  566.88	-1748.55	  450.77
     13.5700	  522.00	  566.57	-1756.23	  450.74
     13.6700	  564.00	  566.30	-1713.97	  450.70
     13.7700	  540.00	  566.07	-1737.74	  450.67
     13.8700	  520.00	  565.87	-1757.54	  450.62
     13.9700	  590.00	  565.68	-1687.35	  450.57
     14.0700	  563.00	  565.52	-1714.18	  450.52
     14.1700	  553.00	  565.36	-1724.03	  450.46
     14.2700	  542.00	  565.21	-1734.88	  450.39
     14.3700	  528.00	  565.07	-1748.74	  450.33
     14.4700	  556.00	  564.93	-1720.60	  450.25
     14.5700	  594.00	  564.79	-1682.46	  450.17
     14.6700	  537.00	  564.66	-1739.33	  450.09
     14.7700	  537.00	  564.56	-1739.23	  450.00
     14.8700	  551.00	  564.43	-1725.10	  449.91
     14.9700	  598.00	  564.29	-1677.96	  449.81
     15.0700	  530.00	  564.16	-1745.83	  449.71
     15.1700	  551.00	  564.03	-1724.70	  449.61
     15.2700	  548.00	  563.89	-1727.56	  449.50
     15.3700	  548.00	  563.76	-1727.42	  449.38
     15.4700	  539.00	  563.62	-1736.28	  449.26
     15.5700	  539.00	  563.47	-1736.14	  449.14
     15.6700	  593.00	  563.33	-1682.00	  449.01
     15.7700	  552.00	  563.18	-1722.85	  448.88
     15.8700	  549.00	  563.03	-1725.70	  448.75
     15.9700	  543.00	  562.88	-1731.55	  448.61
     16.0700	  541.00	  562.72	-1733.39	  448.47
     16.1700	  560.00	  562.57	-1714.24	  448.32
     16.2700	  536.00	  562.41	-1738.07	  448.17
     16.3700	  538.00	  562.24	-1735.91	  448.01
     16.4700	  577.00	  562.07	-1696.74	  447.86
     16.5700	  541.00	  561.90	-1732.57	  447.69
     16.6700	  560.00	  561.73	-1713.40	  447.53
     16.7700	  565.00	  561.55	-1708.22	  447.36
     16.8700	  534.00	  561.38	-1739.04	  447.19
     16.9700	  576.00	  561.19	-1696.86	  447.01
     17.0700	  601.00	  561.01	-1671.68	  446.83
     17.1700	  560.00	  560.82	-1712.49	  446.65
     17.2700	  557.00	  560.63	-1715.30	  446.46
     17.3700	  510.00	  560.43	-1762.10	  446.27
     17.4700	  535.00	  560.24	-1736.91	  446.08
     17.5700	  545.00	  560.04	-1726.71	  445.88
     17.6700	  536.00	  559.83	-1735.50	  445.68
     17.7700	  544.00	  559.63	-1727.30	  445.48
     17.8700	  559.00	  559.42	-1712.09	  445.27
     17.9700	  555.00	  559.31	-1715.98	  445.06
     18.0700	  556.00	  559.10	-1714.77	  444.85
     18.1700	  599.00	  558.88	-1671.55	  444.63
     18.2700	  591.00	  558.67	-1679.34	  444.42
     18.3700	  561.00	  558.45	-1709.12	  444.19
     18.4700	  580.00	  558.23	-1689.89	  443.97
     18.5700	  575.00	  558.08	-1694.75	  443.74
     18.6700	  518.00	  557.86	-1751.53	  443.51
     18.7700	  528.00	  557.63	-1741.30	  443.28
     18.8700	  557.00	  557.40	-1712.07	  443.05
     18.9700	  521.00	  557.17	-1747.84	  442.81
     19.0700	  579.00	  556.93	-1689.60	  442.57
     19.1700	  584.00	  556.70	-1684.37	  442.33
     19.2700	  544.00	  556.46	-1724.13	  442.08
     19.3700	  517.00	  556.22	-1750.89	  441.84
     19.4700	  576.00	  555.97	-1691.64	  441.59
     19.5700	  521.00	  555.73	-1746.40	  441.33
     19.6700	  531.00	  555.48	-1736.15	  441.08
     19.7700	  575.00	  555.24	-1691.90	  440.82
     19.8700	  538.00	  554.99	-1728.65	  440.56
     19.9700	  566.00	  554.73	-1700.40	  440.30
     20.0700	  531.00	  554.48	-1735.15	  440.04
     20.1700	  531.00	  554.23	-1734.89	  439.77
     20.2700	  545.00	  554.01	-1720.67	  439.50
     20.3700	  543.00	  553.75	-1722.42	  439.23
     20.4700	  526.00	  553.49	-1739.16	  438.96
     20.5700	  537.00	  553.23	-1727.90	  438.69
     20.6700	  527.00	  552.97	-1737.64	  438.41
     20.7700	  534.00	  552.71	-1730.38	  438.14
     20.8700	  553.00	  552.45	-1711.12	  437.86
     20.9700	  563.00	  552.19	-1700.85	  437.57
     21.0700	  511.00	  551.92	-1752.59	  437.29
     21.1700	  512.00	  551.66	-1751.33	  437.01
     21.2700	  531.00	  551.40	-1732.06	  436.72
     21.3700	  552.00	  551.13	-1710.80	  436.43
     21.4700	  516.00	  550.87	-1746.54	  436.14
     21.5700	  551.00	  550.61	-1711.27	  435.85
     21.6700	  556.00	  550.34	-1706.01	  435.56
     21.7700	  547.00	  550.08	-1714.75	  435.26
     21.8700	  551.00	  549.82	-1710.49	  434.96
     21.9700	  568.00	  549.56	-1693.23	  434.67
     22.0700	  544.00	  549.26	-1716.93	  434.37
     22.1700	  553.00	  549.01	-1707.68	  434.07
     22.2700	  550.00	  548.76	-1710.43	  433.77
     22.3700	  566.00	  548.51	-1694.18	  433.46
     22.4700	  613.00	  548.27	-1646.94	  433.16
     22.5700	  595.00	  548.04	-1664.71	  432.85
     22.6700	  520.00	  547.81	-1739.48	  432.55
     22.7700	  571.00	  547.59	-1688.26	  432.24
     22.8700	  556.00	  547.38	-1703.05	  431.93
     22.9700	  550.00	  547.34	-1709.01	  431.62
     23.0700	  520.00	  547.16	-1738.83	  431.31
     23.1700	  538.00	  547.01	-1720.68	  430.99
     23.2700	  523.00	  546.88	-1735.55	  430.68
     23.3700	  550.00	  546.79	-1708.46	  430.36
     23.4700	  572.00	  546.74	-1686.41	  430.05
     23.5700	  546.00	  546.76	-1712.43	  429.73
     23.6700	  549.00	  546.87	-1709.53	  429.41
     23.7700	  571.00	  547.12	-1687.79	  429.10
     23.8700	  561.00	  547.64	-1698.31	  428.78
     23.9700	  604.00	  548.61	-1656.28	  428.46
     24.0700	  539.00	  550.39	-1723.06	  428.14
     24.1700	  567.00	  553.49	-1698.16	  427.82
     24.2700	  576.00	  558.57	-1694.24	  427.49
     24.3700	  569.00	  566.28	-1708.95	  427.17
     24.4700	  583.00	  577.05	-1705.72	  426.85
     24.5700	  635.00	  590.49	-1667.16	  426.52
     24.6700	  664.00	  604.43	-1652.10	  426.20
     24.7700	  589.00	  614.14	-1736.81	  425.87
     24.8700	  619.00	  613.28	-1705.95	  425.55
     24.9700	  608.00	  600.08	-1703.75	  425.22
     25.0700	  597.00	  581.94	-1696.60	  424.89
     25.1700	  570.00	  566.40	-1708.06	  424.57
     25.2700	  531.00	  555.87	-1736.54	  424.24
     25.3700	  576.00	  549.72	-1685.39	  423.91
     25.4700	  572.00	  546.38	-1686.05	  423.58
     25.5700	  544.00	  544.51	-1712.18	  423.25
     25.6700	  600.00	  543.35	-1655.02	  422.92
     25.7700	  618.00	  542.54	-1636.21	  422.59
     25.8700	  520.00	  541.94	-1733.60	  422.27
     25.9700	  538.00	  541.48	-1715.15	  421.94
     26.0700	  520.00	  541.14	-1732.81	  421.61
     26.1700	  524.00	  540.89	-1728.56	  421.27
     26.2700	  579.00	  540.74	-1673.41	  420.94
     26.3700	  544.00	  540.67	-1708.34	  420.61
     26.4700	  543.00	  540.69	-1709.36	  420.28
     26.5700	  573.00	  540.81	-1679.48	  419.95
     26.6700	  547.00	  541.05	-1705.72	  419.62
     26.7700	  576.00	  541.43	-1677.10	  419.29
     26.8700	  533.00	  541.98	-1720.65	  418.96
     26.9700	  521.00	  542.75	-1733.42	  418.63
     27.0700	  559.00	  543.81	-1696.48	  418.30
     27.1700	  526.00	  545.29	-1730.96	  417.97
     27.2700	  589.00	  547.42	-1670.09	  417.64
     27.3700	  587.00	  550.65	-1675.32	  417.31
     27.4700	  571.00	  555.88	-1696.54	  416.98
     27.5700	  557.00	  564.70	-1719.37	  416.65
     27.6700	  596.00	  579.70	-1695.37	  416.32
     27.7700	  584.00	  604.27	-1731.94	  415.99
     27.8700	  611.00	  641.55	-1742.22	  415.66
     27.9700	  669.00	  692.08	-1734.75	  415.33
     28.0700	  736.00	  750.84	-1726.51	  415.00
     28.1700	  928.00	  804.33	-1588.00	  414.67
     28.2700	  908.00	  831.09	-1634.76	  414.35
     28.3700	  895.00	  815.36	-1632.03	  414.02
     28.4700	  795.00	  773.18	-1689.85	  413.69
     28.5700	  777.00	  738.93	-1673.60	  413.36
     28.6700	  703.00	  730.74	-1739.41	  413.04
     28.7700	  763.00	  746.52	-1695.19	  412.71
     28.8700	  790.00	  770.00	-1691.67	  412.38
     28.9700	  813.00	  776.90	-1675.57	  412.06
     29.0700	  738.00	  749.02	-1722.69	  411.74
     29.1700	  711.00	  695.39	-1696.06	  411.41
     29.2700	  657.00	  640.77	-1695.44	  411.09
     29.3700	  576.00	  599.17	-1734.84	  410.76
     29.4700	  605.00	  572.56	-1679.23	  410.44
     29.5700	  563.00	  557.39	-1706.06	  410.12
     29.6700	  546.00	  549.11	-1714.78	  409.80
     29.7700	  552.00	  544.43	-1704.10	  409.48
     29.8700	  563.00	  541.58	-1690.25	  409.16
     29.9700	  595.00	  539.79	-1656.46	  408.84
     30.0700	  553.00	  538.91	-1697.58	  408.52
     30.1700	  538.00	  538.96	-1712.62	  408.20
     30.2700	  567.00	  540.41	-1685.08	  407.89
     30.3700	  590.00	  544.11	-1665.78	  407.57
     30.4700	  546.00	  551.33	-1717.00	  407.26
     30.5700	  581.00	  563.32	-1693.99	  406.94
     30.6700	  571.00	  580.40	-1721.07	  406.63
     30.7700	  566.00	  600.65	-1746.32	  406.31
     30.8700	  540.00	  618.96	-1790.63	  406.00
     30.9700	  654.00	  627.23	-1684.90	  405.69
     31.0700	  595.00	  618.82	-1735.48	  405.38
     31.1700	  629.00	  597.32	-1679.99	  405.07
     31.2700	  566.00	  573.65	-1719.32	  404.76
     31.3700	  564.00	  554.77	-1702.44	  404.46
     31.4700	  533.00	  542.28	-1720.95	  404.15
     31.5700	  563.00	  534.99	-1683.66	  403.84
     31.6700	  572.00	  531.00	-1670.67	  403.54
     31.7700	  534.00	  528.78	-1706.45	  403.24
     31.8700	  572.00	  527.43	-1667.10	  402.93
     31.9700	  539.00	  526.55	-1699.22	  402.63
     32.0700	  540.00	  525.97	-1697.64	  402.33
     32.1700	  549.00	  525.60	-1688.27	  402.03
     32.2700	  550.00	  525.43	-1687.10	  401.73
     32.3700	  576.00	  525.45	-1661.12	  401.44
     32.4700	  550.00	  525.66	-1687.32	  401.14
     32.5700	  571.00	  526.08	-1666.75	  400.84
     32.6700	  543.00	  526.75	-1695.42	  400.55
     32.7700	  552.00	  527.73	-1687.40	  400.26
     32.8700	  512.00	  529.11	-1728.78	  399.97
     32.9700	  565.00	  531.03	-1677.69	  399.68
     33.0700	  544.00	  533.76	-1701.42	  399.39
     33.1700	  548.00	  537.84	-1701.51	  399.10
     33.2700	  510.00	  544.43	-1746.09	  398.81
     33.3700	  613.00	  555.79	-1654.46	  398.53
     33.4700	  603.00	  576.00	-1684.66	  398.24
     33.5700	  591.00	  611.07	-1731.74	  397.96
     33.6700	  611.00	  667.53	-1768.20	  397.68
     33.7700	  733.00	  748.08	-1726.75	  397.40
     33.8700	  882.00	  845.23	-1674.90	  397.12
     33.9700	 1050.00	  936.74	-1598.41	  396.84
     34.0700	 1098.00	  986.74	-1600.41	  396.56
     34.1700	 1023.00	  963.15	-1651.82	  396.29
     34.2700	  938.00	  874.76	-1648.43	  396.02
     34.3700	  812.00	  767.28	-1666.95	  395.74
     34.4700	  677.00	  675.78	-1710.45	  395.47
     34.5700	  631.00	  611.83	-1692.50	  395.20
     34.6700	  548.00	  572.90	-1736.57	  394.93
     34.7700	  544.00	  551.17	-1718.84	  394.67
     34.8700	  516.00	  539.20	-1734.87	  394.40
     34.9700	  540.00	  532.14	-1703.81	  394.14
     35.0700	  539.00	  527.43	-1700.10	  393.88
     35.1700	  527.00	  524.01	-1708.68	  393.62
     35.2700	  503.00	  521.34	-1730.01	  393.36
     35.3700	  497.00	  519.20	-1733.87	  393.10
     35.4700	  560.00	  517.44	-1669.10	  392.84
     35.5700	  571.00	  515.96	-1656.62	  392.59
     35.6700	  520.00	  514.70	-1706.36	  392.33
     35.7700	  527.00	  513.61	-1698.28	  392.08
     35.8700	  516.00	  512.66	-1708.33	  391.83
     35.9700	  541.00	  512.27	-1682.94	  391.58
     36.0700	  473.00	  511.53	-1750.20	  391.33
     36.1700	  506.00	  510.88	-1716.54	  391.09
     36.2700	  505.00	  510.28	-1716.95	  390.84
     36.3700	  480.00	  509.75	-1741.42	  390.60
     36.4700	  512.00	  509.27	-1708.94	  390.36
     36.5700	  507.00	  508.84	-1713.51	  390.12
     36.6700	  511.00	  508.48	-1709.15	  389.88
     36.7700	  527.00	  508.17	-1692.84	  389.64
     36.8700	  507.00	  507.94	-1712.61	  389.41
     36.9700	  528.00	  507.86	-1691.53	  389.18
     37.0700	  504.00	  508.01	-1715.68	  388.94
     37.1700	  499.00	  508.58	-1721.25	  388.71
     37.2700	  536.00	  509.78	-1685.45	  388.49
     37.3700	  504.00	  511.78	-1719.45	  388.26
     37.4700	  522.00	  514.53	-1704.20	  388.03
     37.5700	  541.00	  517.58	-1688.24	  387.81
     37.6700	  524.00	  519.97	-1707.64	  387.59
     37.7700	  506.00	  520.52	-1726.19	  387.37
     37.8700	  488.00	  518.70	-1742.37	  387.15
     37.9700	  523.00	  515.38	-1704.05	  386.93
     38.0700	  483.00	  511.84	-1740.51	  386.72
     38.1700	  449.00	  508.82	-1771.49	  386.51
     38.2700	  519.00	  506.54	-1699.21	  386.30
     38.3700	  513.00	  504.95	-1703.62	  386.09
     38.4700	  517.00	  504.07	-1698.73	  385.88
     38.5700	  523.00	  503.35	-1692.02	  385.67
     38.6700	  492.00	  502.84	-1722.51	  385.47
     38.7700	  497.00	  502.44	-1717.11	  385.26
     38.8700	  531.00	  502.01	-1682.68	  385.06
     38.9700	  508.00	  501.72	-1705.39	  384.86
     39.0700	  492.00	  501.46	-1721.13	  384.66
     39.1700	  517.00	  501.22	-1695.89	  384.47
     39.2700	  491.00	  500.99	-1721.66	  384.27
     39.3700	  465.00	  500.78	-1747.45	  384.08
     39.4700	  483.00	  500.59	-1729.25	  383.89
     39.5700	  485.00	  500.40	-1727.07	  383.70
     39.6700	  485.00	  500.15	-1726.81	  383.52
     39.7700	  472.00	  499.98	-1739.65	  383.33
     39.8700	  503.00	  499.83	-1708.50	  383.15
     39.9700	  514.00	  499.69	-1697.36	  382.97
     40.0700	  476.00	  499.56	-1735.22	  382.79
     40.1700	  498.00	  499.44	-1713.10	  382.61
     40.2700	  466.00	  499.33	-1745.00	  382.43
     40.3700	  557.00	  499.24	-1653.90	  382.26
     40.4700	  480.00	  499.16	-1730.83	  382.08
     40.5700	  511.00	  499.09	-1699.76	  381.91
     40.6700	  460.00	  499.05	-1750.72	  381.74
     40.7700	  505.00	  499.03	-1705.70	  381.58
     40.8700	  485.00	  499.04	-1725.71	  381.41
     40.9700	  483.00	  499.55	-1728.22	  381.25
     41.0700	  482.00	  499.63	-1729.30	  381.08
     41.1700	  480.00	  499.76	-1731.43	  380.92
     41.2700	  484.00	  499.94	-1727.61	  380.77
     41.3700	  479.00	  500.20	-1732.86	  380.61
     41.4700	  468.00	  500.54	-1744.21	  380.46
     41.5700	  504.00	  501.02	-1708.69	  380.30
     41.6700	  506.00	  501.70	-1707.37	  380.15
     41.7700	  561.00	  502.70	-1653.37	  380.00
     41.8700	  507.00	  504.29	-1708.96	  379.86
     41.9700	  474.00	  507.08	-1744.75	  379.71
     42.0700	  461.00	  512.00	-1762.67	  379.57
     42.1700	  494.00	  520.47	-1738.14	  379.42
     42.2700	  533.00	  534.06	-1712.73	  379.28
     42.3700	  525.00	  553.54	-1740.21	  379.15
     42.4700	  547.00	  577.94	-1742.60	  379.01
     42.5700	  583.00	  603.19	-1731.86	  378.88
     42.6700	  615.00	  621.65	-1718.31	  378.74
     42.7700	  581.00	  625.07	-1755.73	  378.61
     42.8700	  559.00	  611.07	-1763.74	  378.48
     42.9700	  585.00	  586.42	-1713.09	  378.36
     43.0700	  538.00	  560.41	-1734.08	  378.23
     43.1700	  542.00	  538.67	-1708.33	  378.11
     43.2700	  554.00	  523.05	-1680.72	  377.99
     43.3700	  512.00	  513.25	-1712.92	  377.87
     43.4700	  493.00	  507.37	-1726.04	  377.75
     43.5700	  501.00	  504.03	-1714.69	  377.63
     43.6700	  505.00	  502.07	-1708.74	  377.52
     43.7700	  468.00	  500.84	-1744.51	  377.41
     43.8700	  541.00	  499.98	-1670.65	  377.30
     43.9700	  494.00	  499.33	-1717.00	  377.19
     44.0700	  475.00	  498.84	-1735.50	  377.08
     44.1700	  521.00	  498.44	-1689.11	  376.98
     44.2700	  495.00	  498.13	-1714.80	  376.87
     44.3700	  525.00	  497.88	-1684.55	  376.77
     44.4700	  506.00	  497.69	-1703.36	  376.67
     44.5700	  512.00	  497.54	-1697.21	  376.58
     44.6700	  521.00	  497.43	-1688.10	  376.48
     44.7700	  463.00	  497.54	-1746.21	  376.39
     44.8700	  497.00	  497.50	-1712.17	  376.29
     44.9700	  499.00	  497.48	-1710.15	  376.20
     45.0700	  478.00	  497.50	-1731.17	  376.11
     45.1700	  464.00	  497.53	-1745.20	  376.03
     45.2700	  493.00	  497.60	-1716.27	  375.94
     45.3700	  444.00	  497.68	-1765.35	  375.86
     45.4700	  478.00	  497.69	-1731.36	  375.78
     45.5700	  535.00	  497.83	-1674.50	  375.70
     45.6700	  490.00	  498.00	-1719.67	  375.62
     45.7700	  464.00	  498.20	-1745.87	  375.55
     45.8700	  517.00	  498.43	-1693.10	  375.47
     45.9700	  520.00	  498.70	-1690.37	  375.40
     46.0700	  489.00	  499.00	-1721.67	  375.33
     46.1700	  471.00	  499.35	-1740.02	  375.26
     46.2700	  518.00	  499.75	-1693.42	  375.19
     46.3700	  499.00	  500.26	-1712.93	  375.13
     46.4700	  521.00	  500.79	-1691.46	  375.07
     46.5700	  491.00	  501.42	-1722.09	  375.00
     46.6700	  501.00	  502.13	-1712.80	  374.94
     46.7700	  483.00	  502.98	-1731.65	  374.89
     46.8700	  457.00	  504.03	-1758.69	  374.83
     46.9700	  514.00	  505.42	-1703.09	  374.77
     47.0700	  509.00	  507.40	-1710.07	  374.72
     47.1700	  471.00	  510.44	-1751.11	  374.67
     47.2700	  523.00	  515.23	-1703.90	  374.62
     47.3700	  539.00	  522.66	-1695.32	  374.57
     47.4700	  507.00	  533.50	-1738.16	  374.53
     47.5700	  549.00	  547.95	-1710.62	  374.48
     47.6700	  584.00	  565.01	-1692.68	  374.44
     47.7700	  569.00	  581.94	-1724.61	  374.40
     47.8700	  619.00	  594.25	-1686.92	  374.36
     47.9700	  592.00	  597.41	-1717.08	  374.33
     48.0700	  575.00	  590.45	-1727.12	  374.29
     48.1700	  565.00	  577.22	-1723.89	  374.26
     48.2700	  563.00	  562.84	-1711.51	  374.22
     48.3700	  538.00	  550.80	-1724.46	  374.19
     48.4700	  518.00	  542.60	-1736.26	  374.17
     48.5700	  509.00	  538.41	-1741.08	  374.14
     48.6700	  534.00	  537.67	-1715.34	  374.11
     48.7700	  515.00	  539.65	-1736.31	  374.09
     48.8700	  542.00	  544.16	-1713.83	  374.07
     48.9700	  483.00	  550.32	-1778.99	  374.05
     49.0700	  562.00	  558.86	-1708.53	  374.03
     49.1700	  584.00	  570.96	-1698.63	  374.01
     49.2700	  582.00	  589.24	-1718.91	  374.00
     49.3700	  578.00	  618.85	-1752.52	  373.98
     49.4700	  547.00	  668.73	-1833.40	  373.97
     49.5700	  722.00	  752.33	-1742.00	  373.96
     49.6700	  823.00	  886.05	-1774.72	  373.95
     49.7700	  991.00	 1084.31	-1804.98	  373.94
     49.8700	 1258.00	 1350.67	-1804.34	  373.94
     49.9700	 1642.00	 1667.27	-1736.94	  373.93
     50.0700	 1986.00	 1985.30	-1710.97	  373.93
     50.1700	 2330.00	 2223.19	-1604.86	  373.93
     50.2700	 2379.00	 2292.23	-1624.90	  373.93
     50.3700	 2182.00	 2159.46	-1689.12	  373.93
     50.4700	 1913.00	 1882.98	-1681.64	  373.94
     50.5700	 1494.00	 1558.84	-1776.51	  373.94
     50.6700	 1144.00	 1260.31	-1827.97	  373.95
     50.7700	  917.00	 1024.37	-1819.04	  373.96
     50.8700	  746.00	  859.54	-1825.21	  373.97
     50.9700	  688.00	  755.95	-1779.62	  373.98
     51.0700	  676.00	  695.51	-1731.18	  373.99
     51.1700	  651.00	  659.81	-1720.48	  374.01
     51.2700	  601.00	  635.05	-1745.71	  374.02
     51.3700	  576.00	  614.23	-1749.89	  374.04
     51.4700	  597.00	  595.89	-1710.56	  374.06
     51.5700	  570.00	  579.86	-1721.53	  374.08
     51.6700	  561.00	  566.91	-1717.58	  374.10
     51.7700	  522.00	  557.15	-1746.82	  374.13
     51.8700	  550.00	  550.31	-1711.98	  374.15
     51.9700	  591.00	  545.89	-1666.55	  374.18
     52.0700	  560.00	  543.34	-1695.01	  374.21
     52.1700	  572.00	  542.27	-1681.94	  374.24
     52.2700	  535.00	  542.48	-1719.15	  374.27
     52.3700	  593.00	  544.03	-1662.70	  374.30
     52.4700	  597.00	  547.35	-1662.02	  374.33
     52.5700	  591.00	  553.44	-1674.11	  374.37
     52.6700	  568.00	  564.26	-1707.93	  374.40
     52.7700	  631.00	  583.07	-1663.74	  374.44
     52.8700	  627.00	  614.51	-1699.18	  374.48
     52.9700	  704.00	  664.04	-1671.71	  374.52
     53.0700	  760.00	  736.24	-1687.91	  374.56
     53.1700	  886.00	  832.14	-1657.81	  374.60
     53.2700	  968.00	  946.14	-1689.81	  374.65
     53.3700	 1120.00	 1063.18	-1654.85	  374.70
     53.4700	 1132.00	 1157.71	-1737.38	  374.74
     53.5700	 1194.00	 1199.38	-1717.05	  374.79
     53.6700	 1147.00	 1170.98	-1735.65	  374.84
     53.7700	 1078.00	 1084.07	-1717.74	  374.89
     53.8700	  949.00	  968.83	-1731.50	  374.94
     53.9700	  807.00	  853.00	-1757.67	  375.00
     54.0700	  730.00	  753.59	-1735.26	  375.05
     54.1700	  611.00	  677.66	-1778.33	  375.11
     54.2700	  647.00	  625.06	-1689.73	  375.17
     54.3700	  606.00	  591.60	-1697.26	  375.22
     54.4700	  592.00	  571.70	-1691.37	  375.28
     54.5700	  579.00	  560.50	-1693.16	  375.35
     54.6700	  564.00	  554.46	-1702.13	  375.41
     54.7700	  522.00	  551.42	-1741.09	  375.47
     54.8700	  601.00	  550.22	-1660.89	  375.54
     54.9700	  531.00	  550.28	-1730.95	  375.60
     55.0700	  620.00	  551.37	-1643.04	  375.67
     55.1700	  605.00	  553.42	-1660.09	  375.74
     55.2700	  552.00	  556.44	-1716.11	  375.81
     55.3700	  555.00	  560.55	-1717.22	  375.88
     55.4700	  584.00	  565.95	-1693.62	  375.95
     55.5700	  585.00	  573.03	-1699.70	  376.02
     55.6700	  566.00	  582.52	-1728.19	  376.10
     55.7700	  595.00	  595.98	-1712.65	  376.17
     55.8700	  613.00	  616.22	-1714.89	  376.25
     55.9700	  657.00	  648.39	-1703.05	  376.32
     56.0700	  666.00	  700.80	-1746.47	  376.40
     56.1700	  711.00	  785.37	-1786.04	  376.48
     56.2700	  855.00	  916.45	-1773.12	  376.56
     56.3700	 1078.00	 1107.34	-1741.01	  376.64
     56.4700	 1311.00	 1364.29	-1764.96	  376.73
     56.5700	 1596.00	 1679.35	-1795.02	  376.81
     56.6700	 2006.00	 2023.41	-1729.08	  376.89
     56.7700	 2306.00	 2341.52	-1747.19	  376.98
     56.8700	 2501.00	 2556.50	-1767.17	  377.07
     56.9700	 2565.00	 2596.87	-1743.53	  377.15
     57.0700	 2391.00	 2446.77	-1767.43	  377.24
     57.1700	 2160.00	 2160.81	-1712.48	  377.33
     57.2700	 1779.00	 1820.44	-1753.11	  377.42
     57.3700	 1524.00	 1491.32	-1678.99	  377.51
     57.4700	 1213.00	 1212.52	-1711.19	  377.60
     57.5700	  939.00	  999.58	-1772.25	  377.70
     57.6700	  853.00	  851.22	-1709.89	  377.79
     57.7700	  771.00	  756.61	-1697.27	  377.89
     57.8700	  739.00	  702.18	-1674.84	  377.98
     57.9700	  713.00	  676.28	-1674.95	  378.08
     58.0700	  714.00	  671.17	-1668.84	  378.18
     58.1700	  729.00	  682.97	-1665.64	  378.27
     58.2700	  720.00	  710.42	-1702.09	  378.37
     58.3700	  810.00	  753.26	-1654.93	  378.47
     58.4700	  797.00	  810.70	-1725.37	  378.57
     58.5700	  927.00	  879.89	-1664.55	  378.67
     58.6700	 1014.00	  954.89	-1652.56	  378.78
     58.7700	 1094.00	 1027.46	-1645.13	  378.88
     58.8700	 1236.00	 1090.50	-1566.17	  378.98
     58.9700	 1302.00	 1140.11	-1549.78	  379.09
     59.0700	 1388.00	 1172.71	-1496.38	  379.19
     59.1700	 1363.00	 1183.69	-1532.36	  379.30
     59.2700	 1393.00	 1172.95	-1491.62	  379.41
     59.3700	 1285.00	 1149.17	-1575.84	  379.51
     59.4700	 1162.00	 1124.74	-1674.41	  379.62
     59.5700	 1168.00	 1109.13	-1652.80	  379.73
     59.6700	 1145.00	 1108.69	-1675.36	  379.84
     59.7700	 1197.00	 1129.73	-1644.40	  379.95
     59.8700	 1184.00	 1177.77	-1705.44	  380.06
     59.9700	 1289.00	 1252.31	-1674.98	  380.17
     60.0700	 1421.00	 1342.80	-1633.47	  380.29
     60.1700	 1509.00	 1427.56	-1630.23	  380.40
     60.2700	 1520.00	 1477.01	-1668.68	  380.51
     60.3700	 1492.00	 1465.56	-1685.23	  380.63
     60.4700	 1459.00	 1388.53	-1641.19	  380.74
     60.5700	 1281.00	 1265.11	-1695.78	  380.86
     60.6700	 1133.00	 1123.33	-1702.00	  380.97
     60.7700	 1033.00	  986.46	-1665.13	  381.09
     60.8700	  817.00	  869.20	-1763.87	  381.21
     60.9700	  781.00	  778.58	-1709.25	  381.32
     61.0700	  664.00	  715.84	-1763.51	  381.44
     61.1700	  649.00	  678.99	-1741.66	  381.56
     61.2700	  654.00	  665.32	-1722.99	  381.68
     61.3700	  640.00	  673.33	-1745.00	  381.80
     61.4700	  667.00	  703.45	-1748.12	  381.92
     61.5700	  773.00	  757.59	-1696.25	  382.04
     61.6700	  777.00	  837.41	-1772.08	  382.16
     61.7700	  899.00	  942.15	-1754.82	  382.28
     61.8700	 1040.00	 1066.29	-1737.96	  382.40
     61.9700	 1116.00	 1197.54	-1793.21	  382.52
     62.0700	 1293.00	 1316.08	-1734.74	  382.64
     62.1700	 1362.00	 1395.93	-1745.60	  382.77
     62.2700	 1338.00	 1413.70	-1787.37	  382.89
     62.3700	 1252.00	 1362.92	-1822.59	  383.01
     62.4700	 1176.00	 1259.21	-1794.88	  383.14
     62.5700	 1065.00	 1128.82	-1775.49	  383.26
     62.6700	  931.00	  995.47	-1776.13	  383.39
     62.7700	  844.00	  875.27	-1742.94	  383.51
     62.8700	  750.00	  776.81	-1738.48	  383.64
     62.9700	  679.00	  702.44	-1735.11	  383.76
     63.0700	  606.00	  650.20	-1755.87	  383.89
     63.1700	  575.00	  615.84	-1752.51	  384.01
     63.2700	  607.00	  594.61	-1699.28	  384.14
     63.3700	  584.00	  582.48	-1710.15	  384.26
     63.4700	  603.00	  576.68	-1685.35	  384.39
     63.5700	  598.00	  575.80	-1689.47	  384.52
     63.6700	  582.00	  579.67	-1709.34	  384.64
     63.7700	  608.00	  589.08	-1692.74	  384.77
     63.8700	  641.00	  605.54	-1676.21	  384.90
     63.9700	  688.00	  630.89	-1654.56	  385.03
     64.0700	  658.00	  666.66	-1720.33	  385.15
     64.1700	  755.00	  713.33	-1670.00	  385.28
     64.2700	  811.00	  769.65	-1670.32	  385.41
     64.3700	  907.00	  831.83	-1636.49	  385.54
     64.4700	  973.00	  893.09	-1631.75	  385.67
     64.5700	  984.00	  944.03	-1671.70	  385.79
     64.6700	 1045.00	  974.78	-1641.45	  385.92
     64.7700	  968.00	  979.05	-1722.72	  386.05
     64.8700	 1050.00	  958.20	-1619.87	  386.18
     64.9700	  978.00	  917.65	-1651.32	  386.31
     65.0700	  897.00	  866.03	-1680.70	  386.43
     65.1700	  778.00	  811.93	-1745.60	  386.56
     65.2700	  797.00	  761.54	-1676.21	  386.69
     65.3700	  715.00	  717.93	-1714.60	  386.82
     65.4700	  684.00	  681.64	-1709.30	  386.95
     65.5700	  611.00	  651.98	-1752.65	  387.08
     65.6700	  584.00	  628.14	-1755.80	  387.20
     65.7700	  584.00	  609.54	-1737.21	  387.33
     65.8700	  581.00	  595.28	-1725.95	  387.46
     65.9700	  580.00	  584.84	-1716.51	  387.59
     66.0700	  592.00	  577.64	-1697.31	  387.72
     66.1700	  542.00	  573.20	-1742.87	  387.85
     66.2700	  541.00	  571.12	-1741.79	  387.97
     66.3700	  563.00	  571.06	-1719.73	  388.10
     66.4700	  593.00	  572.83	-1691.50	  388.23
     66.5700	  508.00	  576.40	-1780.07	  388.36
     66.6700	  602.00	  582.05	-1691.72	  388.48
     66.7700	  596.00	  590.49	-1706.16	  388.61
     66.8700	  601.00	  603.17	-1713.84	  388.74
     66.9700	  630.00	  622.67	-1704.34	  388.86
     67.0700	  630.00	  652.71	-1734.38	  388.99
     67.1700	  683.00	  699.11	-1727.78	  389.11
     67.2700	  753.00	  768.72	-1727.39	  389.24
     67.3700	  860.00	  869.63	-1721.30	  389.37
     67.4700	  976.00	 1008.93	-1744.60	  389.49
     67.5700	 1216.00	 1190.62	-1686.29	  389.62
     67.6700	 1407.00	 1412.77	-1717.44	  389.74
     67.7700	 1594.00	 1664.97	-1782.64	  389.87
     67.8700	 1901.00	 1926.50	-1737.17	  389.99
     67.9700	 2269.00	 2165.21	-1607.88	  390.11
     68.0700	 2458.00	 2340.25	-1593.92	  390.24
     68.1700	 2392.00	 2411.93	-1731.60	  390.36
     68.2700	 2350.00	 2361.00	-1722.67	  390.48
     68.3700	 2166.00	 2201.32	-1746.99	  390.61
     68.4700	 2032.00	 1970.65	-1650.32	  390.73
     68.5700	 1763.00	 1710.83	-1659.50	  390.85
     68.6700	 1459.00	 1455.65	-1708.32	  390.97
     68.7700	 1169.00	 1227.81	-1770.47	  391.09
     68.8700	  967.00	 1039.17	-1783.84	  391.21
     68.9700	  851.00	  893.29	-1753.96	  391.33
     69.0700	  739.00	  786.82	-1759.48	  391.45
     69.1700	  697.00	  712.93	-1727.60	  391.57
     69.2700	  711.00	  663.72	-1664.39	  391.69
     69.3700	  660.00	  631.83	-1683.50	  391.81
     69.4700	  587.00	  611.40	-1736.06	  391.92
     69.5700	  588.00	  598.16	-1721.83	  392.04
     69.6700	  581.00	  589.39	-1720.05	  392.16
     69.7700	  578.00	  583.40	-1717.07	  392.27
     69.8700	  610.00	  579.28	-1680.95	  392.39
     69.9700	  562.00	  576.49	-1726.16	  392.50
     70.0700	  594.00	  574.72	-1692.38	  392.62
     70.1700	  592.00	  573.86	-1693.53	  392.73
     70.2700	  534.00	  573.92	-1751.58	  392.85
     70.3700	  585.00	  574.93	-1701.60	  392.96
     70.4700	  566.00	  577.13	-1722.80	  393.07
     70.5700	  565.00	  580.90	-1727.57	  393.18
     70.6700	  559.00	  586.99	-1739.66	  393.29
     70.7700	  601.00	  596.63	-1707.30	  393.40
     70.8700	  583.00	  611.76	-1740.43	  393.51
     70.9700	  607.00	  635.23	-1739.90	  393.62
     71.0700	  659.00	  670.85	-1723.52	  393.73
     71.1700	  730.00	  723.19	-1704.86	  393.84
     71.2700	  768.00	  797.11	-1740.78	  393.94
     71.3700	  929.00	  897.55	-1680.22	  394.05
     71.4700	  999.00	 1024.85	-1737.52	  394.15
     71.5700	 1161.00	 1178.25	-1728.92	  394.26
     71.6700	 1351.00	 1351.25	-1711.92	  394.36
     71.7700	 1444.00	 1531.55	-1799.22	  394.46
     71.8700	 1655.00	 1700.54	-1757.20	  394.57
     71.9700	 1803.00	 1834.14	-1742.81	  394.67
     72.0700	 1927.00	 1907.29	-1691.96	  394.77
     72.1700	 1896.00	 1903.34	-1719.01	  394.87
     72.2700	 1819.00	 1823.26	-1715.93	  394.97
     72.3700	 1674.00	 1685.01	-1722.68	  395.06
     72.4700	 1479.00	 1513.91	-1746.58	  395.16
     72.5700	 1305.00	 1333.56	-1740.22	  395.26
     72.6700	 1165.00	 1161.93	-1708.60	  395.35
     72.7700	 1086.00	 1010.64	-1636.30	  395.45
     72.8700	  998.00	  885.51	-1599.18	  395.54
     72.9700	  822.00	  787.69	-1677.35	  395.63
     73.0700	  721.00	  714.88	-1705.55	  395.73
     73.1700	  712.00	  662.49	-1662.16	  395.82
     73.2700	  698.00	  626.65	-1640.32	  395.91
     73.3700	  622.00	  602.44	-1692.11	  396.00
     73.4700	  698.00	  586.20	-1599.87	  396.09
     73.5700	  668.00	  575.23	-1618.90	  396.17
     73.6700	  628.00	  567.70	-1651.37	  396.26
     73.7700	  566.00	  562.44	-1708.11	  396.34
     73.8700	  621.00	  558.74	-1649.40	  396.43
     73.9700	  588.00	  556.18	-1679.85	  396.51
     74.0700	  597.00	  554.52	-1669.19	  396.60
     74.1700	  610.00	  553.57	-1655.24	  396.68
     74.2700	  648.00	  553.14	-1616.81	  396.76
     74.3700	  619.00	  553.07	-1645.74	  396.84
     74.4700	  585.00	  553.13	-1679.80	  396.91
     74.5700	  613.00	  553.08	-1651.75	  396.99
     74.6700	  627.00	  552.70	-1637.36	  397.07
     74.7700	  635.00	  551.84	-1628.51	  397.14
     74.8700	  632.00	  550.52	-1630.19	  397.22
     74.9700	  624.00	  548.93	-1636.60	  397.29
     75.0700	  609.00	  547.33	-1650.00	  397.36
     75.1700	  588.00	  546.03	-1669.70	  397.43
     75.2700	  554.00	  545.36	-1703.03	  397.50
     75.3700	  586.00	  545.68	-1671.34	  397.57
     75.4700	  537.00	  547.33	-1722.00	  397.64
     75.5700	  579.00	  550.88	-1683.55	  397.71
     75.6700	  608.00	  556.75	-1660.42	  397.77
     75.7700	  565.00	  565.40	-1712.06	  397.83
     75.8700	  554.00	  577.16	-1734.83	  397.90
     75.9700	  610.00	  592.07	-1693.74	  397.96
     76.0700	  651.00	  610.04	-1670.71	  398.02
     76.1700	  633.00	  630.27	-1708.94	  398.08
     76.2700	  659.00	  651.48	-1704.15	  398.14
     76.3700	  646.00	  671.83	-1737.50	  398.19
     76.4700	  690.00	  688.93	-1710.59	  398.25
     76.5700	  652.00	  700.11	-1759.78	  398.30
     76.6700	  694.00	  703.35	-1721.02	  398.36
     76.7700	  691.00	  697.89	-1718.55	  398.41
     76.8700	  663.00	  684.79	-1733.46	  398.46
     76.9700	  661.00	  666.36	-1717.03	  398.51
     77.0700	  648.00	  645.21	-1708.88	  398.56
     77.1700	  604.00	  623.60	-1731.27	  398.60
     77.2700	  567.00	  603.25	-1747.92	  398.65
     77.3700	  564.00	  585.27	-1732.94	  398.69
     77.4700	  579.00	  570.07	-1702.74	  398.74
     77.5700	  540.00	  558.14	-1729.81	  398.78
     77.6700	  531.00	  549.08	-1729.75	  398.82
     77.7700	  522.00	  542.46	-1732.13	  398.86
     77.8700	  532.00	  537.79	-1717.46	  398.89
     77.9700	  519.00	  534.58	-1727.25	  398.93
     78.0700	  525.00	  532.42	-1719.09	  398.97
     78.1700	  509.00	  530.96	-1733.63	  399.00
     78.2700	  529.00	  529.99	-1712.66	  399.03
     78.3700	  478.00	  529.33	-1763.00	  399.06
     78.4700	  506.00	  528.89	-1734.56	  399.09
     78.5700	  484.00	  528.61	-1756.28	  399.12
     78.6700	  495.00	  528.47	-1745.14	  399.15
     78.7700	  477.00	  528.46	-1763.13	  399.17
     78.8700	  496.00	  528.59	-1744.26	  399.20
     78.9700	  516.00	  528.87	-1724.54	  399.22
     79.0700	  517.00	  529.35	-1724.02	  399.24
     79.1700	  524.00	  530.06	-1717.72	  399.26
     79.2700	  513.00	  531.03	-1729.70	  399.28
     79.3700	  536.00	  532.32	-1707.99	  399.29
     79.4700	  500.00	  533.98	-1745.65	  399.31
     79.5700	  501.00	  536.06	-1746.73	  399.32
     79.6700	  520.00	  538.60	-1730.27	  399.33
     79.7700	  526.00	  541.69	-1727.36	  399.35
     79.8700	  567.00	  545.22	-1689.89	  399.36
     79.9700	  536.00	  549.66	-1725.33	  399.36
     80.0700	  583.00	  554.98	-1683.65	  399.37
     80.1700	  584.00	  561.37	-1689.04	  399.37
     80.2700	  574.00	  569.08	-1706.75	  399.38
     80.3700	  607.00	  578.41	-1683.08	  399.38
     80.4700	  616.00	  589.62	-1685.29	  399.38
     80.5700	  595.00	  602.81	-1719.48	  399.38
     80.6700	  635.00	  617.85	-1694.52	  399.38
     80.7700	  659.00	  634.31	-1686.98	  399.37
     80.8700	  683.00	  651.42	-1680.09	  399.37
     80.9700	  662.00	  668.13	-1717.80	  399.36
     81.0700	  664.00	  683.30	-1730.97	  399.35
     81.1700	  700.00	  695.88	-1707.55	  399.34
     81.2700	  689.00	  705.06	-1727.72	  399.33
     81.3700	  710.00	  710.30	-1711.97	  399.32
     81.4700	  757.00	  711.35	-1666.02	  399.30
     81.5700	  782.00	  708.27	-1637.94	  399.28
     81.6700	  699.00	  701.37	-1714.03	  399.27
     81.7700	  733.00	  691.08	-1669.75	  399.25
     81.8700	  654.00	  678.04	-1735.71	  399.22
     81.9700	  735.00	  663.07	-1639.73	  399.20
     82.0700	  667.00	  647.16	-1691.83	  399.18
     82.1700	  690.00	  631.26	-1652.93	  399.15
     82.2700	  636.00	  616.09	-1691.76	  399.12
     82.3700	  646.00	  602.08	-1667.75	  399.09
     82.4700	  579.00	  589.48	-1722.15	  399.06
     82.5700	  594.00	  578.44	-1696.11	  399.03
     82.6700	  571.00	  569.07	-1709.74	  399.00
     82.7700	  526.00	  561.42	-1747.09	  398.96
     82.8700	  555.00	  555.51	-1712.18	  398.92
     82.9700	  535.00	  551.31	-1727.98	  398.89
     83.0700	  560.00	  548.71	-1700.38	  398.84
     83.1700	  576.00	  547.75	-1683.41	  398.80
     83.2700	  562.00	  548.25	-1697.92	  398.76
     83.3700	  548.00	  550.03	-1713.70	  398.71
     83.4700	  527.00	  552.96	-1737.63	  398.67
     83.5700	  535.00	  556.72	-1733.39	  398.62
     83.6700	  531.00	  560.95	-1741.62	  398.57
     83.7700	  528.00	  565.23	-1748.90	  398.52
     83.8700	  509.00	  569.04	-1771.71	  398.46
     83.9700	  540.00	  571.86	-1743.53	  398.41
     84.0700	  569.00	  573.19	-1715.86	  398.35
     84.1700	  522.00	  572.77	-1762.44	  398.29
     84.2700	  554.00	  570.58	-1728.25	  398.23
     84.3700	  585.00	  566.92	-1693.59	  398.17
     84.4700	  548.00	  562.24	-1725.90	  398.10
     84.5700	  586.00	  557.01	-1682.68	  398.04
     84.6700	  564.00	  551.67	-1699.34	  397.97
     84.7700	  533.00	  546.56	-1725.23	  397.90
     84.8700	  533.00	  541.92	-1720.59	  397.83
     84.9700	  485.00	  537.90	-1764.57	  397.76
     85.0700	  535.00	  534.58	-1711.25	  397.69
     85.1700	  546.00	  531.94	-1697.61	  397.61
     85.2700	  533.00	  529.95	-1708.62	  397.54
     85.3700	  542.00	  528.52	-1698.19	  397.46
     85.4700	  530.00	  527.57	-1709.24	  397.38
     85.5700	  548.00	  527.03	-1690.70	  397.29
     85.6700	  528.00	  526.85	-1710.52	  397.21
     85.7700	  564.00	  526.99	-1674.66	  397.13
     85.8700	  527.00	  527.48	-1712.15	  397.04
     85.9700	  539.00	  528.36	-1701.03	  396.95
     86.0700	  548.00	  529.72	-1693.39	  396.86
     86.1700	  532.00	  531.69	-1711.36	  396.77
     86.2700	  562.00	  534.41	-1684.08	  396.67
     86.3700	  504.00	  538.05	-1745.72	  396.58
     86.4700	  535.00	  542.79	-1719.46	  396.48
     86.5700	  574.00	  548.76	-1686.43	  396.38
     86.6700	  553.00	  556.05	-1714.72	  396.28
     86.7700	  527.00	  564.64	-1749.31	  396.18
     86.8700	  566.00	  574.38	-1720.05	  396.07
     86.9700	  579.00	  584.99	-1717.66	  395.97
     87.0700	  639.00	  596.00	-1668.66	  395.86
     87.1700	  570.00	  606.77	-1748.44	  395.75
     87.2700	  590.00	  616.53	-1738.20	  395.64
     87.3700	  680.00	  624.38	-1656.05	  395.53
     87.4700	  631.00	  629.47	-1710.14	  395.42
     87.5700	  619.00	  631.16	-1723.83	  395.30
     87.6700	  641.00	  628.91	-1699.57	  395.18
     87.7700	  668.00	  623.80	-1667.47	  395.06
     87.8700	  621.00	  616.21	-1706.88	  394.94
     87.9700	  607.00	  607.10	-1711.77	  394.82
     88.0700	  563.00	  597.41	-1746.08	  394.70
     88.1700	  575.00	  587.99	-1724.66	  394.57
     88.2700	  591.00	  579.55	-1700.22	  394.44
     88.3700	  631.00	  572.62	-1653.29	  394.32
     88.4700	  592.00	  567.56	-1687.23	  394.18
     88.5700	  537.00	  564.56	-1739.23	  394.05
     88.6700	  521.00	  563.61	-1754.28	  393.92
     88.7700	  565.00	  564.57	-1711.24	  393.78
     88.8700	  610.00	  567.14	-1668.81	  393.65
     88.9700	  558.00	  570.93	-1724.60	  393.51
     89.0700	  570.00	  575.44	-1717.11	  393.37
     89.1700	  643.00	  580.10	-1648.77	  393.22
     89.2700	  590.00	  584.29	-1705.96	  393.08
     89.3700	  596.00	  587.40	-1703.07	  392.94
     89.4700	  599.00	  588.91	-1701.58	  392.79
     89.5700	  580.00	  588.51	-1720.18	  392.64
     89.6700	  599.00	  586.16	-1698.83	  392.49
     89.7700	  590.00	  582.10	-1703.77	  392.34
     89.8700	  523.00	  576.77	-1765.44	  392.18
     89.9700	  567.00	  570.66	-1715.33	  392.03
     90.0700	  544.00	  564.22	-1731.89	  391.87
     90.1700	  498.00	  557.85	-1771.52	  391.71
     90.2700	  499.00	  551.87	-1764.54	  391.56
     90.3700	  521.00	  546.49	-1737.16	  391.39
     90.4700	  484.00	  541.85	-1769.52	  391.23
     90.5700	  530.00	  538.00	-1719.67	  391.07
     90.6700	  527.00	  534.95	-1719.62	  390.90
     90.7700	  501.00	  532.64	-1743.31	  390.73
     90.8700	  532.00	  531.00	-1710.67	  390.56
     90.9700	  494.00	  529.95	-1747.62	  390.39
     91.0700	  509.00	  529.41	-1732.08	  390.22
     91.1700	  551.00	  529.34	-1690.01	  390.05
     91.2700	  492.00	  529.72	-1749.39	  389.87
     91.3700	  513.00	  530.55	-1729.22	  389.69
     91.4700	  527.00	  531.88	-1716.55	  389.52
     91.5700	  496.00	  533.82	-1749.49	  389.34
     91.6700	  543.00	  536.48	-1705.15	  389.15
     91.7700	  529.00	  540.03	-1722.70	  388.97
     91.8700	  529.00	  544.66	-1727.33	  388.79
     91.9700	  527.00	  550.58	-1735.25	  388.60
     92.0700	  473.00	  557.97	-1796.64	  388.41
     92.1700	  558.00	  567.00	-1720.67	  388.23
     92.2700	  557.00	  577.80	-1732.47	  388.04
     92.3700	  534.00	  590.39	-1768.06	  387.84
     92.4700	  628.00	  604.72	-1688.39	  387.65
     92.5700	  656.00	  620.61	-1676.28	  387.46
     92.6700	  609.00	  637.76	-1740.43	  387.26
     92.7700	  619.00	  655.72	-1748.39	  387.06
     92.8700	  666.00	  673.66	-1719.33	  386.86
     92.9700	  665.00	  691.40	-1738.07	  386.66
     93.0700	  697.00	  707.98	-1722.65	  386.46
     93.1700	  769.00	  722.80	-1665.47	  386.26
     93.2700	  749.00	  735.56	-1698.23	  386.05
     93.3700	  727.00	  746.31	-1730.98	  385.85
     93.4700	  748.00	  755.42	-1719.09	  385.64
     93.5700	  767.00	  763.42	-1708.09	  385.43
     93.6700	  803.00	  770.83	-1679.50	  385.22
     93.7700	  828.00	  778.09	-1661.76	  385.01
     93.8700	  848.00	  785.56	-1649.23	  384.80
     93.9700	  853.00	  793.58	-1652.25	  384.59
     94.0700	  870.00	  802.54	-1644.21	  384.37
     94.1700	  829.00	  812.80	-1695.46	  384.15
     94.2700	  813.00	  824.55	-1723.22	  383.94
     94.3700	  826.00	  837.69	-1723.36	  383.72
     94.4700	  878.00	  851.71	-1685.38	  383.50
     94.5700	  868.00	  865.63	-1709.30	  383.28
     94.6700	  849.00	  878.13	-1740.80	  383.05
     94.7700	  933.00	  887.60	-1666.27	  382.83
     94.8700	  940.00	  892.38	-1664.05	  382.61
     94.9700	  867.00	  891.14	-1735.81	  382.38
     95.0700	  890.00	  883.20	-1704.87	  382.15
     95.1700	  943.00	  868.77	-1637.44	  381.92
     95.2700	  830.00	  848.90	-1730.57	  381.69
     95.3700	  818.00	  825.19	-1718.86	  381.46
     95.4700	  796.00	  799.50	-1715.17	  381.23
     95.5700	  756.00	  773.70	-1729.37	  381.00
     95.6700	  741.00	  749.58	-1720.24	  380.76
     95.7700	  726.00	  728.76	-1714.43	  380.53
     95.8700	  695.00	  712.71	-1729.38	  380.29
     95.9700	  682.00	  702.73	-1732.40	  380.05
     96.0700	  663.00	  699.97	-1748.64	  379.82
     96.1700	  666.00	  705.39	-1751.06	  379.58
     96.2700	  734.00	  719.79	-1697.46	  379.34
     96.3700	  783.00	  743.73	-1672.40	  379.09
     96.4700	  760.00	  777.55	-1729.22	  378.85
     96.5700	  790.00	  821.23	-1742.90	  378.61
     96.6700	  794.00	  874.39	-1792.06	  378.36
     96.7700	  959.00	  936.15	-1688.82	  378.12
     96.8700	 1050.00	 1005.06	-1666.73	  377.87
     96.9700	 1120.00	 1079.05	-1670.71	  377.62
     97.0700	 1106.00	 1155.40	-1761.07	  377.38
     97.1700	 1245.00	 1230.79	-1697.46	  377.13
     97.2700	 1213.00	 1301.33	-1800.00	  376.88
     97.3700	 1322.00	 1362.68	-1752.35	  376.63
     97.4700	 1379.00	 1410.52	-1743.19	  376.37
     97.5700	 1474.00	 1441.08	-1678.75	  376.12
     97.6700	 1393.00	 1451.91	-1770.57	  375.87
     97.7700	 1436.00	 1442.42	-1718.09	  375.61
     97.8700	 1430.00	 1414.01	-1695.68	  375.36
     97.9700	 1388.00	 1369.64	-1693.31	  375.10
     98.0700	 1226.00	 1313.19	-1798.86	  374.85
     98.1700	 1259.00	 1248.82	-1701.49	  374.59
     98.2700	 1165.00	 1180.60	-1727.27	  374.33
     98.3700	 1131.00	 1112.28	-1692.95	  374.07
     98.4700	 1030.00	 1047.14	-1728.81	  373.81
     98.5700	  968.00	  987.98	-1731.65	  373.55
     98.6700	  895.00	  937.07	-1753.74	  373.29
     98.7700	  925.00	  896.22	-1682.89	  373.03
     98.8700	  832.00	  866.85	-1746.52	  372.77
     98.9700	  793.00	  850.00	-1768.67	  372.51
     99.0700	  831.00	  846.37	-1727.04	  372.24
     99.1700	  888.00	  856.46	-1680.13	  371.98
     99.2700	  860.00	  880.45	-1732.12	  371.72
     99.3700	  888.00	  918.33	-1742.00	  371.45
     99.4700	  968.00	  969.79	-1713.46	  371.19
     99.5700	 1021.00	 1034.24	-1724.91	  370.92
     99.6700	 1161.00	 1110.71	-1661.38	  370.65
     99.7700	 1157.00	 1197.77	-1752.44	  370.39
     99.8700	 1279.00	 1293.49	-1726.16	  370.12
     99.9700	 1459.00	 1395.30	-1647.96	  369.85
    100.0700	 1510.00	 1500.01	-1701.68	  369.58
    100.1700	 1592.00	 1603.90	-1723.57	  369.32
    100.2700	 1694.00	 1702.86	-1720.53	  369.05
    100.3700	 1719.00	 1792.80	-1785.47	  368.78
    100.4700	 1822.00	 1870.08	-1759.75	  368.51
    100.5700	 1908.00	 1931.89	-1735.56	  368.24
    100.6700	 2079.00	 1976.32	-1608.99	  367.97
    100.7700	 1909.00	 2002.14	-1804.81	  367.70
    100.8700	 2057.00	 2008.59	-1663.26	  367.43
    100.9700	 2035.00	 1995.35	-1672.02	  367.16
    101.0700	 2006.00	 1962.82	-1668.49	  366.89
    101.1700	 1948.00	 1912.44	-1676.10	  366.62
    101.2700	 1793.00	 1846.94	-1765.61	  366.35
    101.3700	 1767.00	 1770.24	-1714.91	  366.08
    101.4700	 1722.00	 1686.93	-1676.60	  365.81
    101.5700	 1632.00	 1601.65	-1681.32	  365.54
    101.6700	 1560.00	 1518.57	-1670.23	  365.27
    101.7700	 1409.00	 1441.06	-1743.73	  365.00
    101.8700	 1391.00	 1371.59	-1692.26	  364.73
    101.9700	 1330.00	 1311.63	-1693.30	  364.46
    102.0700	 1267.00	 1261.72	-1706.39	  364.18
    102.1700	 1208.00	 1221.47	-1725.14	  363.91
    102.2700	 1252.00	 1189.75	-1649.42	  363.64
    102.3700	 1169.00	 1164.76	-1707.43	  363.37
    102.4700	 1159.00	 1144.21	-1696.88	  363.10
    102.5700	 1085.00	 1125.56	-1752.23	  362.83
    102.6700	 1089.00	 1106.36	-1729.03	  362.56
    102.7700	 1144.00	 1084.55	-1652.21	  362.29
    102.8700	 1070.00	 1058.77	-1700.44	  362.03
    102.9700	 1014.00	 1028.51	-1726.18	  361.76
    103.0700	  975.00	  993.99	-1730.66	  361.49
    103.1700	  854.00	  956.02	-1813.68	  361.22
    103.2700	  946.00	  915.69	-1681.36	  360.95
    103.3700	  872.00	  874.23	-1713.89	  360.68
    103.4700	  848.00	  832.82	-1696.48	  360.42
    103.5700	  832.00	  792.52	-1672.19	  360.15
    103.6700	  786.00	  754.26	-1679.93	  359.89
    103.7700	  735.00	  718.77	-1695.44	  359.62
    103.8700	  723.00	  686.55	-1675.22	  359.36
    103.9700	  671.00	  657.93	-1698.60	  359.09
    104.0700	  611.00	  633.03	-1733.70	  358.83
    104.1700	  618.00	  611.81	-1705.48	  358.56
    104.2700	  611.00	  594.09	-1694.76	  358.30
    104.3700	  570.00	  579.60	-1721.27	  358.04
    104.4700	  544.00	  568.01	-1735.68	  357.78
    104.5700	  587.00	  558.94	-1683.61	  357.52
    104.6700	  570.00	  552.03	-1693.70	  357.26
    104.7700	  532.00	  546.94	-1726.61	  357.00
    104.8700	  564.00	  543.36	-1691.03	  356.74
    104.9700	  504.00	  541.02	-1748.69	  356.49
    105.0700	  568.00	  539.70	-1683.37	  356.23
    105.1700	  561.00	  539.22	-1689.88	  355.97
    105.2700	  512.00	  539.46	-1739.13	  355.72
    105.3700	  560.00	  540.35	-1692.02	  355.47
    105.4700	  572.00	  541.81	-1681.48	  355.21
    105.5700	  571.00	  543.85	-1684.52	  354.96
    105.6700	  539.00	  546.45	-1719.12	  354.71
    105.7700	  545.00	  549.71	-1716.38	  354.46
    105.8700	  530.00	  553.67	-1735.34	  354.22
    105.9700	  594.00	  558.40	-1676.07	  353.97
    106.0700	  555.00	  563.98	-1720.65	  353.72
    106.1700	  558.00	  570.45	-1724.12	  353.48
    106.2700	  546.00	  577.81	-1743.48	  353.24
    106.3700	  626.00	  586.05	-1671.72	  353.00
    106.4700	  564.00	  595.06	-1742.73	  352.76
    106.5700	  604.00	  604.70	-1712.37	  352.52
    106.6700	  618.00	  614.75	-1708.42	  352.28
    106.7700	  606.00	  624.97	-1730.64	  352.04
    106.8700	  619.00	  635.04	-1727.70	  351.81
    106.9700	  631.00	  644.61	-1725.28	  351.58
    107.0700	  645.00	  653.34	-1720.00	  351.34
    107.1700	  683.00	  660.86	-1689.53	  351.12
    107.2700	  651.00	  666.91	-1727.58	  350.89
    107.3700	  651.00	  671.30	-1731.96	  350.66
    107.4700	  663.00	  674.00	-1722.67	  350.44
    107.5700	  702.00	  675.17	-1684.84	  350.21
    107.6700	  659.00	  675.09	-1727.76	  349.99
    107.7700	  713.00	  674.14	-1672.80	  349.77
    107.8700	  702.00	  672.72	-1682.39	  349.55
    107.9700	  658.00	  671.25	-1724.92	  349.34
    108.0700	  689.00	  670.04	-1692.71	  349.12
    108.1700	  631.00	  669.35	-1750.02	  348.91
    108.2700	  672.00	  669.33	-1709.00	  348.70
    108.3700	  705.00	  670.00	-1676.67	  348.49
    108.4700	  631.00	  671.29	-1751.96	  348.29
    108.5700	  641.00	  673.03	-1743.70	  348.08
    108.6700	  657.00	  674.95	-1729.61	  347.88
    108.7700	  693.00	  676.67	-1695.34	  347.68
    108.8700	  652.00	  677.81	-1737.48	  347.49
    108.9700	  696.00	  677.95	-1693.62	  347.29
    109.0700	  727.00	  676.73	-1661.40	  347.10
    109.1700	  700.00	  673.90	-1685.57	  346.91
    109.2700	  660.00	  669.33	-1721.00	  346.72
    109.3700	  654.00	  663.06	-1720.73	  346.53
    109.4700	  694.00	  655.26	-1672.93	  346.35
    109.5700	  639.00	  646.21	-1718.88	  346.17
    109.6700	  643.00	  636.24	-1704.91	  345.99
    109.7700	  649.00	  625.69	-1688.35	  345.82
    109.8700	  604.00	  614.89	-1722.56	  345.64
    109.9700	  619.00	  604.16	-1696.83	  345.47
    110.0700	  586.00	  593.77	-1719.44	  345.30
    110.1700	  604.00	  583.94	-1691.61	  345.14
    110.2700	  576.00	  574.86	-1710.53	  344.98
    110.3700	  598.00	  566.67	-1680.34	  344.82
    110.4700	  578.00	  559.44	-1693.11	  344.66
    110.5700	  550.00	  553.23	-1714.90	  344.51
    110.6700	  547.00	  548.05	-1712.71	  344.36
    110.7700	  551.00	  543.85	-1704.52	  344.21
    110.8700	  536.00	  540.59	-1716.26	  344.07
    110.9700	  563.00	  538.21	-1686.88	  343.92
    111.0700	  524.00	  536.61	-1724.28	  343.79
    111.1700	  563.00	  535.71	-1684.38	  343.65
    111.2700	  499.00	  535.42	-1748.09	  343.52
    111.3700	  558.00	  535.67	-1689.34	  343.39
    111.4700	  554.00	  536.36	-1694.03	  343.26
    111.5700	  569.00	  537.44	-1680.11	  343.14
    111.6700	  530.00	  538.85	-1720.52	  343.02
    111.7700	  573.00	  540.54	-1679.20	  342.91
    111.8700	  557.00	  542.46	-1697.13	  342.80
    111.9700	  545.00	  544.61	-1711.28	  342.69
    112.0700	  532.00	  546.95	-1726.62	  342.58
    112.1700	  522.00	  549.50	-1739.16	  342.48
    112.2700	  531.00	  552.24	-1732.91	  342.39
    112.3700	  544.00	  555.22	-1722.89	  342.29
    112.4700	  570.00	  558.45	-1700.11	  342.20
    112.5700	  597.00	  561.97	-1676.64	  342.12
    112.6700	  565.00	  565.83	-1712.50	  342.03
    112.7700	  565.00	  570.11	-1716.77	  341.96
    112.8700	  563.00	  574.88	-1723.54	  341.88
    112.9700	  592.00	  580.25	-1699.91	  341.81
    113.0700	  625.00	  586.36	-1673.03	  341.75
    113.1700	  622.00	  593.39	-1683.06	  341.68
    113.2700	  634.00	  601.57	-1679.24	  341.63
    113.3700	  678.00	  611.20	-1644.87	  341.57
    113.4700	  584.00	  622.64	-1750.31	  341.52
    113.5700	  619.00	  636.39	-1729.06	  341.48
    113.6700	  694.00	  653.03	-1670.70	  341.44
    113.7700	  730.00	  673.30	-1654.97	  341.40
    113.8700	  715.00	  698.10	-1694.77	  341.37
    113.9700	  788.00	  728.52	-1652.19	  341.34
    114.0700	  783.00	  765.85	-1694.52	  341.32
    114.1700	  832.00	  811.57	-1691.24	  341.30
    114.2700	  904.00	  867.38	-1675.04	  341.29
    114.3700	  986.00	  935.19	-1660.86	  341.28
    114.4700	 1070.00	 1017.07	-1658.73	  341.27
    114.5700	 1207.00	 1115.26	-1619.92	  341.27
    114.6700	 1347.00	 1232.01	-1596.68	  341.28
    114.7700	 1443.00	 1369.57	-1638.24	  341.29
    114.8700	 1560.00	 1530.10	-1681.77	  341.31
    114.9700	 1842.00	 1715.44	-1585.10	  341.33
    115.0700	 1986.00	 1927.12	-1652.79	  341.35
    115.1700	 2260.00	 2166.09	-1617.76	  341.38
    115.2700	 2536.00	 2432.54	-1608.21	  341.42
    115.3700	 2754.00	 2725.98	-1683.64	  341.46
    115.4700	 2942.00	 3044.76	-1814.43	  341.51
    115.5700	 3375.00	 3386.37	-1723.04	  341.56
    115.6700	 3721.00	 3746.99	-1737.66	  341.62
    115.7700	 4238.00	 4121.60	-1595.26	  341.68
    115.8700	 4338.00	 4504.15	-1877.82	  341.75
    115.9700	 4779.00	 4887.21	-1819.88	  341.82
    116.0700	 5141.00	 5262.49	-1833.16	  341.90
    116.1700	 5511.00	 5620.55	-1821.22	  341.99
    116.2700	 5857.00	 5951.23	-1805.90	  342.08
    116.3700	 6260.00	 6244.11	-1695.78	  342.17
    116.4700	 6492.00	 6488.71	-1708.38	  342.28
    116.5700	 6601.00	 6675.53	-1786.20	  342.38
    116.6700	 6714.00	 6796.64	-1794.31	  342.50
    116.7700	 6815.00	 6846.68	-1743.34	  342.62
    116.8700	 6782.00	 6823.54	-1753.21	  342.75
    116.9700	 6813.00	 6728.63	-1627.30	  342.88
    117.0700	 6501.00	 6566.60	-1777.27	  343.02
    117.1700	 6332.00	 6344.88	-1724.54	  343.17
    117.2700	 6060.00	 6072.72	-1724.39	  343.32
    117.3700	 5741.00	 5760.30	-1730.97	  343.48
    117.4700	 5269.00	 5418.14	-1860.81	  343.64
    117.5700	 4841.00	 5056.26	-1926.93	  343.81
    117.6700	 4653.00	 4684.13	-1742.80	  343.99
    117.7700	 4284.00	 4310.29	-1737.96	  344.17
    117.8700	 4064.00	 3942.00	-1589.67	  344.37
    117.9700	 3768.00	 3585.60	-1529.27	  344.56
    118.0700	 3468.00	 3246.00	-1489.67	  344.77
    118.1700	 3035.00	 2927.11	-1603.78	  344.98
    118.2700	 2663.00	 2631.70	-1680.36	  345.20
    118.3700	 2391.00	 2361.33	-1682.00	  345.42
    118.4700	 2162.00	 2116.86	-1666.53	  345.66
    118.5700	 1861.00	 1898.15	-1748.82	  345.90
    118.6700	 1662.00	 1704.55	-1754.22	  346.14
    118.7700	 1562.00	 1534.85	-1684.52	  346.40
    118.8700	 1398.00	 1387.40	-1701.07	  346.66
    118.9700	 1238.00	 1260.36	-1734.03	  346.93
    119.0700	 1158.00	 1151.68	-1705.35	  347.21
    119.1700	 1024.00	 1059.31	-1746.98	  347.49
    119.2700	 1026.00	  981.24	-1666.91	  347.78
    119.3700	  940.00	  915.52	-1687.19	  348.08
    119.4700	  798.00	  860.39	-1774.06	  348.39
    119.5700	  793.00	  814.24	-1732.90	  348.71
    119.6700	  739.00	  775.64	-1748.30	  349.03
    119.7700	  728.00	  743.37	-1727.04	  349.36
    119.8700	  648.00	  716.37	-1780.03	  349.70
    119.9700	  625.00	  693.76	-1780.43	  350.05
    120.0700	  628.00	  674.79	-1758.46	  350.40
    120.1700	  640.00	  658.87	-1730.54	  350.76
    120.2700	  596.00	  645.50	-1761.17	  351.14
    120.3700	  607.00	  634.27	-1738.94	  351.52
    120.4700	  605.00	  624.87	-1731.53	  351.90
    120.5700	  576.00	  617.02	-1752.68	  352.30
    120.6700	  567.00	  610.52	-1755.19	  352.71
    120.7700	  537.00	  605.20	-1779.87	  353.12
    120.8700	  603.00	  600.94	-1709.61	  353.54
    120.9700	  514.00	  597.63	-1795.29	  353.97
    121.0700	  585.00	  595.17	-1721.84	  354.42
    121.1700	  589.00	  593.50	-1716.16	  354.86
    121.2700	  580.00	  592.55	-1724.22	  355.32
    121.3700	  578.00	  592.28	-1725.95	  355.79
    121.4700	  532.00	  592.64	-1772.31	  356.27
    121.5700	  606.00	  593.57	-1699.24	  356.75
    121.6700	  605.00	  595.03	-1701.70	  357.25
    121.7700	  540.00	  596.96	-1768.63	  357.75
    121.8700	  589.00	  599.30	-1721.97	  358.27
    121.9700	  629.00	  601.99	-1684.66	  358.79
    122.0700	  587.00	  604.95	-1729.62	  359.32
    122.1700	  627.00	  608.11	-1692.78	  359.86
    122.2700	  636.00	  611.38	-1687.05	  360.42
    122.3700	  564.00	  614.68	-1762.35	  360.98
    122.4700	  679.00	  617.89	-1650.56	  361.55
    122.5700	  672.00	  620.94	-1660.60	  362.13
    122.6700	  634.00	  623.71	-1701.38	  362.72
    122.7700	  621.00	  626.12	-1716.78	  363.32
    122.8700	  683.00	  628.06	-1656.73	  363.94
    122.9700	  573.00	  629.52	-1768.19	  364.56
    123.0700	  669.00	  630.43	-1673.10	  365.19
    123.1700	  628.00	  630.78	-1714.44	  365.83
    123.2700	  621.00	  630.55	-1721.22	  366.49
    123.3700	  661.00	  629.79	-1680.46	  367.15
    123.4700	  609.00	  628.53	-1731.20	  367.83
    123.5700	  604.00	  626.82	-1734.49	  368.51
    123.6700	  614.00	  624.73	-1722.40	  369.21
    123.7700	  639.00	  622.32	-1694.99	  369.91
    123.8700	  619.00	  619.65	-1712.32	  370.63
    123.9700	  630.00	  616.78	-1698.45	  371.36
    124.0700	  652.00	  613.81	-1673.48	  372.10
    124.1700	  632.00	  610.78	-1690.45	  372.85
    124.2700	  606.00	  607.74	-1713.41	  373.62
    124.3700	  644.00	  604.75	-1672.42	  374.39
    124.4700	  653.00	  601.86	-1660.53	  375.17
    124.5700	  610.00	  599.10	-1700.77	  375.97
    124.6700	  613.00	  596.50	-1695.17	  376.78
    124.7700	  620.00	  594.09	-1685.76	  377.60
    124.8700	  573.00	  591.90	-1730.56	  378.43
    124.9700	  553.00	  493.03	-1651.70	  379.28
    125.0700	  559.00	  493.89	-1711.67	  380.13
    125.1700	  599.00	  494.76	-1711.67	  381.00
    125.2700	  580.00	  495.64	-1711.67	  381.88
    125.3700	  576.00	  496.53	-1711.67	  382.77
    125.4700	  578.00	  497.43	-1711.67	  383.67
    125.5700	  529.00	  498.35	-1711.67	  384.59
    125.6700	  596.00	  499.28	-1711.67	  385.52
    125.7700	  559.00	  500.22	-1711.67	  386.46
    125.8700	  566.00	  501.17	-1711.67	  387.41
    125.9700	  600.00	  502.14	-1711.67	  388.38
    126.0700	  554.00	  503.12	-1711.67	  389.36
    126.1700	  605.00	  504.11	-1711.67	  390.35
    126.2700	  588.00	  505.12	-1711.67	  391.36
    126.3700	  561.00	  506.13	-1711.67	  392.38
    126.4700	  540.00	  507.16	-1711.67	  393.41
    126.5700	  586.00	  508.21	-1711.67	  394.45
    126.6700	  568.00	  509.27	-1711.67	  395.51
    126.7700	  577.00	  510.34	-1711.67	  396.58
    126.8700	  596.00	  511.42	-1711.67	  397.67
    126.9700	  649.00	  512.52	-1711.67	  398.76
    127.0700	  614.00	  513.63	-1711.67	  399.88
    127.1700	  649.00	  514.76	-1711.67	  401.00
    127.2700	  653.00	  515.90	-1711.67	  402.14
    127.3700	  611.00	  517.05	-1711.67	  403.29
    127.4700	  627.00	  518.22	-1711.67	  404.46
    127.5700	  688.00	  519.40	-1711.67	  405.64
    127.6700	  673.00	  520.60	-1711.67	  406.84
    127.7700	  647.00	  521.81	-1711.67	  408.05
    127.8700	  674.00	  523.03	-1711.67	  409.27
    127.9700	  721.00	  524.27	-1711.67	  410.51
    128.0700	  702.00	  525.52	-1711.67	  411.77
    128.1700	  786.00	  526.79	-1711.67	  413.03
    128.2700	  757.00	  528.07	-1711.67	  414.32
    128.3700	  737.00	  529.37	-1711.67	  415.61
    128.4700	  789.00	  530.68	-1711.67	  416.93
    128.5700	    0.00	  532.01	-1711.67	  418.25
    128.6700	    0.00	  533.35	-1711.67	  419.60
     12.3085	        	        	        	        	       0	(  0  0  2)	  0  1
     24.9019	        	        	        	        	       0	(  0  0  4)	  0  1
     28.3449	        	        	        	        	       0	(  1  0  0)	  0  1
     29.0428	        	        	        	        	       0	(  1  0  1)	  0  1
     31.0508	        	        	        	        	       0	(  1  0  2)	  0  1
     34.1619	        	        	        	        	       0	(  1  0  3)	  0  1
     37.8121	        	        	        	        	       0	(  0  0  6)	  0  1
     38.1425	        	        	        	        	       0	(  1  0  4)	  0  1
     42.7969	        	        	        	        	       0	(  1  0  5)	  0  1
     47.9857	        	        	        	        	       0	(  1  0  6)	  0  1
     50.3001	        	        	        	        	       0	(  1  1  0)	  0  1
     51.2458	        	        	        	        	       0	(  0  0  8)	  0  1
     52.0248	        	        	        	        	       0	(  1  1  2)	  0  1
     53.6216	        	        	        	        	       0	(  1  0  7)	  0  1
     56.9778	        	        	        	        	       0	(  1  1  4)	  0  1
     58.8049	        	        	        	        	       0	(  2  0  0)	  0  1
     59.1969	        	        	        	        	       0	(  2  0  1)	  0  1
     59.6580	        	        	        	        	       0	(  1  0  8)	  0  1
     60.3636	        	        	        	        	       0	(  2  0  2)	  0  1
     62.2789	        	        	        	        	       0	(  2  0  3)	  0  1
     64.6807	        	        	        	        	       0	(  1  1  6)	  0  1
     64.9059	        	        	        	        	       0	(  2  0  4)	  0  1
     65.4892	        	        	        	        	       0	(  0  0 10)	  0  1
     66.0812	        	        	        	        	       0	(  1  0  9)	  0  1
     68.2039	        	        	        	        	       0	(  2  0  5)	  0  1
     72.1360	        	        	        	        	       0	(  2  0  6)	  0  1
     72.9050	        	        	        	        	       0	(  1  0 10)	  0  1
     74.7301	        	        	        	        	       0	(  1  1  8)	  0  1
     76.6757	        	        	        	        	       0	(  2  0  7)	  0  1
     80.1716	        	        	        	        	       0	(  1  0 11)	  0  1
     80.9878	        	        	        	        	       0	(  0  0 12)	  0  1
     81.0706	        	        	        	        	       0	(  2  1  0)	  0  1
     81.4110	        	        	        	        	       0	(  2  1  1)	  0  1
     81.8127	        	        	        	        	       0	(  2  0  8)	  0  1
     82.4302	        	        	        	        	       0	(  2  1  2)	  0  1
     84.1239	        	        	        	        	       0	(  2  1  3)	  0  1
     86.4870	        	        	        	        	       0	(  2  1  4)	  0  1
     87.0178	        	        	        	        	       0	(  1  1 10)	  0  1
     87.5588	        	        	        	        	       0	(  2  0  9)	  0  1
     87.9567	        	        	        	        	       0	(  1  0 12)	  0  1
     89.5173	        	        	        	        	       0	(  2  1  5)	  0  1
     93.2206	        	        	        	        	       0	(  2  1  6)	  0  1
     93.9562	        	        	        	        	       0	(  2  0 10)	  0  1
     94.9793	        	        	        	        	       0	(  3  0  0)	  0  1
     95.3173	        	        	        	        	       0	(  3  0  1)	  0  1
     96.3322	        	        	        	        	       0	(  3  0  2)	  0  1
     96.3832	        	        	        	        	       0	(  1  0 13)	  0  1
     97.6166	        	        	        	        	       0	(  2  1  7)	  0  1
     98.0285	        	        	        	        	       0	(  3  0  3)	  0  1
     98.5539	        	        	        	        	       0	(  0  0 14)	  0  1
    100.4159	        	        	        	        	       0	(  3  0  4)	  0  1
    101.0906	        	        	        	        	       0	(  2  0 11)	  0  1
    101.9130	        	        	        	        	       0	(  1  1 12)	  0  1
    102.7486	        	        	        	        	       0	(  2  1  8)	  0  1
    103.5134	        	        	        	        	       0	(  3  0  5)	  0  1
    105.6534	        	        	        	        	       0	(  1  0 14)	  0  1
    107.3565	        	        	        	        	       0	(  3  0  6)	  0  1
    108.6979	        	        	        	        	       0	(  2  1  9)	  0  1
    109.1184	        	        	        	        	       0	(  2  0 12)	  0  1
    112.0075	        	        	        	        	       0	(  3  0  7)	  0  1
    115.6116	        	        	        	        	       0	(  2  1 10)	  0  1
    116.1219	        	        	        	        	       0	(  1  0 15)	  0  1
    116.7494	        	        	        	        	       0	(  2  2  0)	  0  1
    117.5754	        	        	        	        	       0	(  3  0  8)	  0  1
    118.2688	        	        	        	        	       0	(  2  2  2)	  0  1
    118.3264	        	        	        	        	       0	(  2  0 13)	  0  1
    120.0927	        	        	        	        	       0	(  0  0 16)	  0  1
    120.8034	        	        	        	        	       0	(  1  1 14)	  0  1
    122.9687	        	        	        	        	       0	(  2  2  4)	  0  1
    123.7633	        	        	        	        	       0	(  2  1 11)	  0  1
    124.2562	        	        	        	        	       0	(  3  0  9)	  0  1
    124.8392	        	        	        	        	       0	(  3  1  0)	  0  1
    125.2509	        	        	        	        	       0	(  3  1  1)	  0  1
    126.4988	        	        	        	        	       0	(  3  1  2)	  0  1
    128.5071	        	        	        	        	       0	(  1  0 16)	  0  1
    128.6252	        	        	        	        	       0	(  3  1  3)	  0  1
    129.2948	        	        	        	        	       0	(  2  0 14)	  0  1
    131.4410	        	        	        	        	       0	(  2  2  6)	  0  1
    131.7142	        	        	        	        	       0	(  3  1  4)	  0  1
    132.4298	        	        	        	        	       0	(  3  0 10)	  0  1
    133.7168	        	        	        	        	       0	(  2  1 12)	  0  1
    135.9218	        	        	        	        	       0	(  3  1  5)	  0  1
    141.5513	        	        	        	        	       0	(  3  1  6)	  0  1
    142.9715	        	        	        	        	       0	(  3  0 11)	  0  1
    143.5182	        	        	        	        	       0	(  2  0 15)	  0  1
    144.7756	        	        	        	        	       0	(  1  0 17)	  0  1
    145.7640	        	        	        	        	       0	(  2  2  8)	  0  1
    146.9645	        	        	        	        	       0	(  2  1 13)	  0  1
    149.2912	        	        	        	        	       0	(  3  1  7)	  0  1
    149.9177	        	        	        	        	       0	(  1  1 16)	  0  1
    154.3920	        	        	        	        	       0	(  0  0 18)	  0  1
    159.0653	        	        	        	        	       0	(  3  0 12)	  0  1
    159.2969	        	        	        	        	       0	(  4  0  0)	  0  1
    160.2771	        	        	        	        	       0	(  4  0  1)	  0  1
    161.4997	        	        	        	        	       0	(  3  1  8)	  0  1
    163.5531	        	        	        	        	       0	(  4  0  2)	  0  1
    170.7967	        	        	        	        	       0	(  2  0 16)	  0  1
    171.4018	        	        	        	        	       0	(  4  0  3)	  0  1
    176.4084	        	        	        	        	       0	(  2  1 14)	  0  1
