MSG Master    CELL:    5.91930   5.91930  23.27491   90.0000   90.0000  120.0000   SPGR: P 63/m m c             TEMP:   1074.85
  1   1280     2.52000     0.00000    -0.12432     0.00000     0.00000    0
    99     0     2
       0.00000      10.00000
     125.00000     130.00000
 2Theta	Yobs	Ycal	Yobs-Ycal	Backg	Posr	(hkl)	K
      0.7700	    0.00	  561.60	-1749.25	  443.52
      0.8700	    0.00	  562.06	-1749.25	  443.98
      0.9700	   49.00	  562.51	-1749.25	  444.43
      1.0700	   30.00	  562.95	-1749.25	  444.87
      1.1700	   30.00	  563.38	-1749.25	  445.31
      1.2700	   45.00	  563.81	-1749.25	  445.74
      1.3700	   64.00	  564.23	-1749.25	  446.15
      1.4700	   94.00	  564.64	-1749.25	  446.56
      1.5700	  287.00	  565.04	-1749.25	  446.97
      1.6700	  436.00	  565.43	-1749.25	  447.36
      1.7700	  589.00	  565.82	-1749.25	  447.75
      1.8700	  638.00	  566.20	-1749.25	  448.12
      1.9700	  659.00	  566.57	-1749.25	  448.49
      2.0700	  774.00	  566.93	-1749.25	  448.86
      2.1700	  772.00	  567.29	-1749.25	  449.21
      2.2700	  724.00	  567.63	-1749.25	  449.56
      2.3700	  692.00	  567.97	-1749.25	  449.90
      2.4700	  735.00	  568.30	-1749.25	  450.23
      2.5700	  660.00	  568.63	-1749.25	  450.55
      2.6700	  684.00	  568.95	-1749.25	  450.87
      2.7700	  624.00	  569.26	-1749.25	  451.18
      2.8700	  670.00	  569.56	-1749.25	  451.48
      2.9700	  651.00	  569.85	-1749.25	  451.78
      3.0700	  636.00	  570.14	-1749.25	  452.07
      3.1700	  553.00	  570.42	-1749.25	  452.35
      3.2700	  581.00	  570.70	-1749.25	  452.62
      3.3700	  678.00	  570.96	-1749.25	  452.89
      3.4700	  699.00	  571.22	-1749.25	  453.15
      3.5700	  806.00	  571.48	-1749.25	  453.40
      3.6700	  872.00	  571.72	-1749.25	  453.65
      3.7700	  921.00	  571.96	-1749.25	  453.89
      3.8700	  923.00	  572.19	-1749.25	  454.12
      3.9700	 1024.00	  572.42	-1749.25	  454.35
      4.0700	 1011.00	  572.64	-1749.25	  454.56
      4.1700	 1048.00	  572.85	-1749.25	  454.78
      4.2700	 1093.00	  573.06	-1749.25	  454.98
      4.3700	 1073.00	  573.26	-1749.25	  455.18
      4.4700	 1063.00	  573.45	-1749.25	  455.38
      4.5700	 1049.00	  573.64	-1749.25	  455.56
      4.6700	 1036.00	  573.82	-1749.25	  455.74
      4.7700	 1018.00	  573.99	-1749.25	  455.92
      4.8700	  934.00	  574.16	-1749.25	  456.08
      4.9700	  953.00	  574.32	-1749.25	  456.25
      5.0700	  993.00	  574.48	-1749.25	  456.40
      5.1700	  922.00	  574.62	-1749.25	  456.55
      5.2700	  946.00	  574.77	-1749.25	  456.69
      5.3700	  932.00	  574.91	-1749.25	  456.83
      5.4700	  877.00	  575.04	-1749.25	  456.96
      5.5700	  837.00	  575.16	-1749.25	  457.09
      5.6700	  882.00	  575.28	-1749.25	  457.21
      5.7700	  845.00	  575.40	-1749.25	  457.32
      5.8700	  834.00	  575.50	-1749.25	  457.43
      5.9700	  768.00	  575.61	-1749.25	  457.53
      6.0700	  794.00	  575.70	-1749.25	  457.63
      6.1700	  772.00	  575.79	-1749.25	  457.72
      6.2700	  771.00	  575.88	-1749.25	  457.80
      6.3700	  716.00	  575.96	-1749.25	  457.88
      6.4700	  731.00	  576.03	-1749.25	  457.96
      6.5700	  724.00	  576.10	-1749.25	  458.03
      6.6700	  766.00	  576.17	-1749.25	  458.09
      6.7700	  757.00	  576.22	-1749.25	  458.15
      6.8700	  692.00	  576.28	-1749.25	  458.20
      6.9700	  666.00	  576.32	-1749.25	  458.25
      7.0700	  709.00	  576.37	-1749.25	  458.29
      7.1700	  653.00	  576.41	-1749.25	  458.33
      7.2700	  733.00	  576.44	-1749.25	  458.36
      7.3700	  694.00	  576.47	-1749.25	  458.39
      7.4700	  708.00	  576.49	-1749.25	  458.41
      7.5700	  673.00	  576.51	-1749.25	  458.43
      7.6700	  636.00	  576.52	-1749.25	  458.44
      7.7700	  661.00	  576.53	-1749.25	  458.45
      7.8700	  616.00	  576.53	-1749.25	  458.45
      7.9700	  655.00	  576.53	-1749.25	  458.45
      8.0700	  644.00	  576.52	-1749.25	  458.45
      8.1700	  678.00	  576.51	-1749.25	  458.43
      8.2700	  588.00	  576.49	-1749.25	  458.42
      8.3700	  617.00	  576.47	-1749.25	  458.40
      8.4700	  638.00	  576.45	-1749.25	  458.37
      8.5700	  619.00	  576.42	-1749.25	  458.34
      8.6700	  605.00	  576.38	-1749.25	  458.31
      8.7700	  603.00	  576.35	-1749.25	  458.27
      8.8700	  595.00	  576.30	-1749.25	  458.23
      8.9700	  612.00	  576.26	-1749.25	  458.18
      9.0700	  642.00	  576.20	-1749.25	  458.13
      9.1700	  591.00	  576.15	-1749.25	  458.07
      9.2700	  566.00	  576.09	-1749.25	  458.01
      9.3700	  553.00	  576.02	-1749.25	  457.95
      9.4700	  610.00	  575.96	-1749.25	  457.88
      9.5700	  600.00	  575.88	-1749.25	  457.81
      9.6700	  612.00	  575.81	-1749.25	  457.73
      9.7700	  614.00	  575.73	-1749.25	  457.65
      9.8700	  574.00	  575.64	-1749.25	  457.57
      9.9700	  581.00	  575.56	-1749.25	  457.48
     10.0700	  619.00	  576.30	-1706.55	  457.39
     10.1700	  564.00	  576.29	-1761.54	  457.29
     10.2700	  566.00	  576.30	-1759.55	  457.19
     10.3700	  539.00	  576.35	-1786.60	  457.09
     10.4700	  585.00	  576.44	-1740.69	  456.98
     10.5700	  630.00	  576.66	-1695.91	  456.87
     10.6700	  598.00	  577.09	-1728.34	  456.76
     10.7700	  588.00	  577.84	-1739.09	  456.64
     10.8700	  597.00	  579.00	-1731.25	  456.52
     10.9700	  601.00	  580.54	-1728.79	  456.39
     11.0700	  567.00	  582.45	-1764.70	  456.26
     11.1700	  605.00	  584.71	-1728.96	  456.13
     11.2700	  597.00	  587.36	-1739.61	  456.00
     11.3700	  559.00	  590.48	-1780.73	  455.86
     11.4700	  630.00	  594.20	-1713.45	  455.72
     11.5700	  592.00	  598.74	-1755.99	  455.57
     11.6700	  637.00	  604.45	-1716.70	  455.42
     11.7700	  603.00	  611.95	-1758.20	  455.27
     11.8700	  661.00	  622.19	-1710.44	  455.12
     11.9700	  640.00	  635.79	-1745.04	  454.96
     12.0700	  674.00	  651.12	-1726.37	  454.80
     12.1700	  693.00	  661.93	-1718.18	  454.63
     12.2700	  650.00	  658.40	-1757.65	  454.47
     12.3700	  608.00	  637.53	-1778.78	  454.30
     12.4700	  619.00	  611.97	-1742.22	  454.12
     12.5700	  596.00	  593.17	-1746.42	  453.95
     12.6700	  572.00	  582.85	-1760.10	  453.77
     12.7700	  556.00	  578.09	-1771.34	  453.59
     12.8700	  572.00	  575.90	-1753.15	  453.40
     12.9700	  620.00	  574.67	-1703.92	  453.21
     13.0700	  548.00	  573.81	-1775.06	  453.02
     13.1700	  592.00	  573.15	-1730.40	  452.83
     13.2700	  545.00	  572.60	-1776.85	  452.64
     13.3700	  591.00	  572.14	-1730.39	  452.44
     13.4700	  563.00	  571.73	-1757.98	  452.24
     13.5700	  564.00	  571.35	-1756.60	  452.03
     13.6700	  581.00	  571.01	-1739.26	  451.83
     13.7700	  556.00	  570.69	-1763.94	  451.62
     13.8700	  564.00	  570.39	-1755.64	  451.41
     13.9700	  544.00	  570.10	-1775.35	  451.20
     14.0700	  552.00	  569.81	-1767.06	  450.98
     14.1700	  526.00	  569.54	-1792.79	  450.76
     14.2700	  561.00	  569.27	-1757.52	  450.54
     14.3700	  546.00	  569.00	-1772.25	  450.32
     14.4700	  564.00	  568.74	-1753.99	  450.10
     14.5700	  575.00	  568.48	-1742.73	  449.87
     14.6700	  558.00	  568.22	-1759.47	  449.64
     14.7700	  563.00	  567.97	-1754.22	  449.41
     14.8700	  583.00	  567.71	-1733.96	  449.18
     14.9700	  529.00	  567.45	-1787.70	  448.94
     15.0700	  566.00	  567.20	-1750.45	  448.70
     15.1700	  548.00	  566.94	-1768.19	  448.46
     15.2700	  576.00	  566.68	-1739.93	  448.22
     15.3700	  555.00	  566.43	-1760.68	  447.98
     15.4700	  567.00	  566.17	-1748.42	  447.73
     15.5700	  571.00	  565.91	-1744.16	  447.49
     15.6700	  570.00	  565.65	-1744.90	  447.24
     15.7700	  547.00	  565.39	-1767.64	  446.99
     15.8700	  561.00	  565.13	-1753.38	  446.73
     15.9700	  563.00	  564.86	-1751.11	  446.48
     16.0700	  583.00	  564.63	-1730.88	  446.22
     16.1700	  583.00	  564.36	-1730.61	  445.96
     16.2700	  608.00	  564.10	-1705.35	  445.70
     16.3700	  549.00	  563.83	-1764.08	  445.44
     16.4700	  564.00	  563.56	-1748.81	  445.18
     16.5700	  589.00	  563.29	-1723.54	  444.92
     16.6700	  556.00	  563.02	-1756.27	  444.65
     16.7700	  577.00	  562.75	-1735.00	  444.38
     16.8700	  561.00	  562.48	-1750.73	  444.11
     16.9700	  527.00	  562.21	-1784.46	  443.84
     17.0700	  553.00	  561.93	-1758.18	  443.57
     17.1700	  539.00	  561.65	-1771.90	  443.30
     17.2700	  597.00	  561.38	-1713.63	  443.02
     17.3700	  509.00	  561.10	-1801.35	  442.75
     17.4700	  579.00	  560.82	-1731.07	  442.47
     17.5700	  574.00	  560.54	-1735.79	  442.19
     17.6700	  574.00	  560.26	-1735.51	  441.91
     17.7700	  531.00	  559.97	-1778.22	  441.63
     17.8700	  558.00	  559.69	-1750.94	  441.34
     17.9700	  537.00	  559.41	-1771.66	  441.06
     18.0700	  572.00	  559.22	-1736.47	  440.78
     18.1700	  541.00	  558.94	-1767.19	  440.49
     18.2700	  554.00	  558.65	-1753.90	  440.20
     18.3700	  543.00	  558.36	-1764.61	  439.91
     18.4700	  576.00	  558.08	-1731.33	  439.62
     18.5700	  555.00	  557.79	-1752.04	  439.33
     18.6700	  509.00	  557.50	-1797.75	  439.04
     18.7700	  599.00	  557.21	-1707.46	  438.75
     18.8700	  508.00	  557.01	-1798.26	  438.46
     18.9700	  525.00	  556.72	-1780.97	  438.16
     19.0700	  570.00	  556.43	-1735.68	  437.87
     19.1700	  541.00	  556.14	-1764.39	  437.57
     19.2700	  561.00	  555.84	-1744.09	  437.27
     19.3700	  559.00	  555.55	-1745.80	  436.98
     19.4700	  564.00	  555.26	-1740.51	  436.68
     19.5700	  528.00	  554.97	-1776.22	  436.38
     19.6700	  563.00	  554.68	-1740.93	  436.08
     19.7700	  572.00	  554.38	-1731.63	  435.78
     19.8700	  510.00	  554.09	-1793.34	  435.48
     19.9700	  555.00	  553.80	-1748.05	  435.17
     20.0700	  507.00	  553.50	-1795.75	  434.87
     20.1700	  562.00	  553.21	-1740.46	  434.57
     20.2700	  583.00	  552.92	-1719.17	  434.26
     20.3700	  513.00	  552.62	-1788.87	  433.96
     20.4700	  554.00	  552.33	-1747.58	  433.65
     20.5700	  574.00	  552.03	-1727.28	  433.35
     20.6700	  489.00	  551.71	-1811.96	  433.04
     20.7700	  541.00	  551.42	-1759.67	  432.73
     20.8700	  520.00	  551.16	-1780.41	  432.43
     20.9700	  539.00	  550.87	-1761.12	  432.12
     21.0700	  541.00	  550.57	-1758.82	  431.81
     21.1700	  533.00	  550.28	-1766.53	  431.50
     21.2700	  557.00	  550.00	-1742.25	  431.19
     21.3700	  521.00	  549.71	-1777.96	  430.88
     21.4700	  543.00	  549.42	-1755.67	  430.57
     21.5700	  523.00	  549.13	-1775.38	  430.26
     21.6700	  552.00	  548.85	-1746.10	  429.95
     21.7700	  551.00	  548.57	-1746.82	  429.64
     21.8700	  566.00	  548.29	-1731.54	  429.33
     21.9700	  584.00	  548.01	-1713.26	  429.02
     22.0700	  539.00	  547.73	-1757.98	  428.71
     22.1700	  574.00	  547.46	-1722.71	  428.40
     22.2700	  575.00	  547.19	-1721.44	  428.09
     22.3700	  522.00	  546.92	-1774.17	  427.77
     22.4700	  537.00	  546.66	-1758.91	  427.46
     22.5700	  570.00	  546.40	-1725.65	  427.15
     22.6700	  564.00	  546.15	-1731.40	  426.84
     22.7700	  493.00	  545.91	-1802.16	  426.53
     22.8700	  569.00	  545.68	-1725.93	  426.21
     22.9700	  586.00	  545.46	-1708.71	  425.90
     23.0700	  521.00	  545.25	-1773.50	  425.59
     23.1700	  551.00	  545.05	-1743.30	  425.28
     23.2700	  507.00	  544.88	-1787.13	  424.96
     23.3700	  563.00	  544.74	-1730.99	  424.65
     23.4700	  527.00	  544.63	-1766.88	  424.34
     23.5700	  558.00	  544.58	-1735.83	  424.03
     23.6700	  529.00	  544.59	-1764.84	  423.72
     23.7700	  556.00	  544.85	-1738.10	  423.40
     23.8700	  549.00	  545.21	-1745.46	  423.09
     23.9700	  527.00	  546.03	-1768.28	  422.78
     24.0700	  565.00	  547.73	-1731.98	  422.47
     24.1700	  558.00	  551.01	-1742.26	  422.16
     24.2700	  621.00	  556.71	-1684.96	  421.85
     24.3700	  602.00	  565.82	-1713.07	  421.54
     24.4700	  611.00	  579.33	-1717.58	  421.23
     24.5700	  573.00	  597.42	-1773.67	  420.92
     24.6700	  648.00	  617.17	-1718.42	  420.61
     24.7700	  639.00	  630.65	-1740.90	  420.30
     24.8700	  627.00	  627.33	-1749.58	  419.99
     24.9700	  603.00	  606.11	-1752.36	  419.68
     25.0700	  594.00	  580.54	-1735.79	  419.37
     25.1700	  561.00	  561.38	-1749.63	  419.06
     25.2700	  597.00	  550.52	-1702.77	  418.76
     25.3700	  516.00	  545.37	-1778.62	  418.45
     25.4700	  552.00	  543.01	-1740.26	  418.14
     25.5700	  578.00	  541.77	-1713.02	  417.84
     25.6700	  566.00	  540.97	-1724.22	  417.53
     25.7700	  508.00	  540.39	-1781.64	  417.23
     25.8700	  560.00	  539.95	-1729.20	  416.92
     25.9700	  536.00	  539.63	-1752.88	  416.62
     26.0700	  540.00	  539.39	-1748.64	  416.31
     26.1700	  551.00	  539.23	-1737.48	  416.01
     26.2700	  558.00	  539.15	-1730.40	  415.71
     26.3700	  580.00	  539.14	-1708.39	  415.40
     26.4700	  536.00	  539.22	-1752.47	  415.10
     26.5700	  548.00	  539.39	-1740.64	  414.80
     26.6700	  561.00	  539.67	-1727.92	  414.50
     26.7700	  547.00	  540.09	-1742.34	  414.20
     26.8700	  517.00	  540.67	-1772.92	  413.90
     26.9700	  542.00	  541.47	-1748.72	  413.60
     27.0700	  555.00	  542.56	-1736.81	  413.31
     27.1700	  539.00	  544.08	-1754.33	  413.01
     27.2700	  566.00	  546.25	-1729.50	  412.71
     27.3700	  586.00	  549.56	-1712.81	  412.42
     27.4700	  552.00	  554.95	-1752.20	  412.12
     27.5700	  570.00	  564.11	-1743.36	  411.83
     27.6700	  574.00	  579.70	-1754.95	  411.54
     27.7700	  554.00	  605.21	-1800.46	  411.24
     27.8700	  598.00	  643.65	-1794.90	  410.95
     27.9700	  626.00	  695.24	-1818.49	  410.66
     28.0700	  786.00	  754.18	-1717.43	  410.37
     28.1700	  886.00	  805.89	-1669.14	  410.08
     28.2700	  895.00	  828.37	-1682.62	  409.79
     28.3700	  927.00	  808.50	-1630.75	  409.50
     28.4700	  813.00	  767.06	-1703.31	  409.22
     28.5700	  703.00	  738.77	-1785.02	  408.93
     28.6700	  729.00	  739.60	-1759.85	  408.65
     28.7700	  704.00	  764.81	-1810.06	  408.36
     28.8700	  744.00	  794.42	-1799.67	  408.08
     28.9700	  783.00	  800.07	-1766.32	  407.80
     29.0700	  779.00	  763.48	-1733.73	  407.52
     29.1700	  746.00	  700.24	-1703.49	  407.24
     29.2700	  626.00	  639.62	-1762.87	  406.96
     29.3700	  627.00	  595.78	-1718.03	  406.68
     29.4700	  623.00	  569.26	-1695.51	  406.40
     29.5700	  614.00	  554.93	-1690.18	  406.12
     29.6700	  617.00	  547.38	-1679.63	  405.85
     29.7700	  589.00	  543.12	-1703.37	  405.57
     29.8700	  571.00	  540.46	-1718.71	  405.30
     29.9700	  560.00	  538.76	-1728.01	  405.03
     30.0700	  562.00	  537.85	-1725.10	  404.76
     30.1700	  560.00	  537.87	-1727.12	  404.49
     30.2700	  524.00	  539.29	-1764.54	  404.22
     30.3700	  558.00	  543.08	-1734.33	  403.95
     30.4700	  558.00	  550.70	-1741.95	  403.68
     30.5700	  549.00	  563.71	-1763.96	  403.42
     30.6700	  590.00	  582.53	-1741.78	  403.15
     30.7700	  571.00	  604.85	-1783.10	  402.89
     30.8700	  597.00	  624.35	-1776.60	  402.62
     30.9700	  597.00	  631.37	-1783.62	  402.36
     31.0700	  612.00	  619.24	-1756.49	  402.10
     31.1700	  589.00	  594.21	-1754.46	  401.84
     31.2700	  543.00	  568.97	-1775.22	  401.59
     31.3700	  554.00	  550.26	-1745.51	  401.33
     31.4700	  561.00	  538.84	-1727.09	  401.07
     31.5700	  512.00	  532.72	-1769.97	  400.82
     31.6700	  529.00	  529.57	-1749.82	  400.57
     31.7700	  551.00	  527.84	-1726.09	  400.31
     31.8700	  508.00	  526.75	-1768.00	  400.06
     31.9700	  558.00	  526.00	-1717.25	  399.81
     32.0700	  576.00	  525.48	-1698.73	  399.57
     32.1700	  538.00	  525.13	-1736.38	  399.32
     32.2700	  605.00	  524.93	-1669.18	  399.07
     32.3700	  550.00	  524.88	-1724.13	  398.83
     32.4700	  582.00	  524.98	-1692.23	  398.58
     32.5700	  586.00	  525.24	-1688.49	  398.34
     32.6700	  528.00	  525.70	-1746.95	  398.10
     32.7700	  563.00	  526.39	-1712.64	  397.86
     32.8700	  534.00	  527.39	-1742.64	  397.62
     32.9700	  548.00	  528.80	-1730.05	  397.39
     33.0700	  552.00	  530.85	-1728.10	  397.15
     33.1700	  597.00	  533.97	-1686.22	  396.92
     33.2700	  523.00	  539.19	-1765.44	  396.69
     33.3700	  555.00	  548.73	-1742.98	  396.45
     33.4700	  561.00	  566.84	-1755.09	  396.22
     33.5700	  609.00	  600.26	-1740.51	  396.00
     33.6700	  646.00	  656.68	-1759.93	  395.77
     33.7700	  772.00	  739.60	-1716.85	  395.54
     33.8700	  916.00	  840.09	-1673.34	  395.32
     33.9700	  967.00	  931.36	-1713.61	  395.10
     34.0700	 1012.00	  972.19	-1709.44	  394.87
     34.1700	 1007.00	  931.92	-1674.17	  394.65
     34.2700	  845.00	  831.20	-1735.45	  394.43
     34.3700	  782.00	  722.19	-1689.44	  394.22
     34.4700	  617.00	  637.42	-1769.67	  394.00
     34.5700	  593.00	  583.85	-1740.10	  393.79
     34.6700	  559.00	  554.70	-1744.95	  393.57
     34.7700	  533.00	  540.00	-1756.25	  393.36
     34.8700	  568.00	  532.34	-1713.59	  393.15
     34.9700	  510.00	  527.78	-1767.03	  392.94
     35.0700	  522.00	  524.66	-1751.91	  392.73
     35.1700	  515.00	  522.32	-1756.57	  392.53
     35.2700	  523.00	  520.46	-1746.71	  392.32
     35.3700	  515.00	  518.96	-1753.21	  392.12
     35.4700	  542.00	  517.71	-1724.96	  391.92
     35.5700	  509.00	  516.67	-1756.92	  391.72
     35.6700	  527.00	  515.77	-1738.02	  391.52
     35.7700	  538.00	  514.99	-1726.24	  391.32
     35.8700	  547.00	  514.31	-1716.56	  391.13
     35.9700	  513.00	  513.71	-1749.96	  390.93
     36.0700	  533.00	  513.65	-1729.90	  390.74
     36.1700	  536.00	  513.18	-1726.43	  390.55
     36.2700	  493.00	  512.75	-1769.00	  390.36
     36.3700	  479.00	  512.37	-1782.62	  390.17
     36.4700	  478.00	  512.03	-1783.28	  389.98
     36.5700	  488.00	  511.72	-1772.97	  389.80
     36.6700	  483.00	  511.46	-1777.71	  389.61
     36.7700	  517.00	  511.25	-1743.50	  389.43
     36.8700	  498.00	  511.11	-1762.36	  389.25
     36.9700	  521.00	  511.11	-1739.36	  389.07
     37.0700	  487.00	  511.39	-1773.64	  388.89
     37.1700	  542.00	  512.22	-1719.47	  388.72
     37.2700	  514.00	  513.99	-1749.24	  388.54
     37.3700	  501.00	  517.06	-1765.31	  388.37
     37.4700	  522.00	  521.40	-1748.65	  388.20
     37.5700	  533.00	  526.17	-1742.42	  388.03
     37.6700	  509.00	  529.72	-1769.97	  387.86
     37.7700	  525.00	  530.21	-1754.46	  387.69
     37.8700	  560.00	  527.35	-1716.60	  387.53
     37.9700	  486.00	  522.84	-1786.09	  387.36
     38.0700	  536.00	  518.38	-1731.63	  387.20
     38.1700	  513.00	  514.65	-1750.90	  387.04
     38.2700	  454.00	  511.85	-1807.10	  386.88
     38.3700	  524.00	  509.93	-1735.18	  386.72
     38.4700	  478.00	  508.67	-1779.92	  386.57
     38.5700	  529.00	  507.86	-1728.11	  386.41
     38.6700	  485.00	  507.24	-1771.49	  386.26
     38.7700	  496.00	  506.88	-1760.13	  386.11
     38.8700	  522.00	  506.61	-1733.86	  385.96
     38.9700	  533.00	  506.37	-1722.62	  385.81
     39.0700	  500.00	  506.17	-1755.42	  385.67
     39.1700	  483.00	  505.90	-1772.16	  385.52
     39.2700	  490.00	  505.74	-1764.99	  385.38
     39.3700	  451.00	  505.58	-1803.83	  385.24
     39.4700	  472.00	  505.44	-1782.69	  385.10
     39.5700	  515.00	  505.44	-1739.69	  384.96
     39.6700	  507.00	  505.32	-1747.57	  384.82
     39.7700	  497.00	  505.20	-1757.45	  384.69
     39.8700	  539.00	  505.10	-1715.35	  384.55
     39.9700	  496.00	  505.01	-1758.26	  384.42
     40.0700	  519.00	  504.92	-1735.17	  384.29
     40.1700	  505.00	  504.85	-1749.10	  384.16
     40.2700	  546.00	  504.78	-1708.03	  384.03
     40.3700	  474.00	  504.73	-1779.98	  383.91
     40.4700	  477.00	  504.69	-1776.94	  383.78
     40.5700	  500.00	  504.66	-1753.91	  383.66
     40.6700	  481.00	  504.65	-1772.90	  383.54
     40.7700	  501.00	  504.66	-1752.91	  383.42
     40.8700	  471.00	  504.70	-1782.95	  383.30
     40.9700	  518.00	  504.75	-1736.00	  383.19
     41.0700	  499.00	  504.85	-1755.10	  383.07
     41.1700	  520.00	  504.98	-1734.23	  382.96
     41.2700	  503.00	  505.13	-1751.38	  382.85
     41.3700	  534.00	  505.38	-1720.63	  382.74
     41.4700	  515.00	  505.71	-1739.96	  382.63
     41.5700	  513.00	  506.58	-1742.83	  382.52
     41.6700	  486.00	  507.20	-1770.45	  382.42
     41.7700	  469.00	  508.14	-1788.39	  382.32
     41.8700	  496.00	  509.69	-1762.94	  382.21
     41.9700	  522.00	  512.55	-1739.80	  382.11
     42.0700	  566.00	  518.05	-1701.30	  382.02
     42.1700	  492.00	  528.29	-1785.54	  381.92
     42.2700	  537.00	  545.72	-1757.97	  381.82
     42.3700	  544.00	  571.74	-1776.99	  381.73
     42.4700	  616.00	  604.30	-1737.55	  381.64
     42.5700	  593.00	  636.40	-1792.65	  381.55
     42.6700	  577.00	  656.47	-1828.72	  381.46
     42.7700	  579.00	  654.11	-1824.36	  381.37
     42.8700	  569.00	  629.71	-1809.96	  381.28
     42.9700	  620.00	  595.52	-1724.77	  381.20
     43.0700	  500.00	  563.43	-1812.68	  381.12
     43.1700	  537.00	  539.32	-1751.57	  381.04
     43.2700	  502.00	  523.98	-1771.23	  380.96
     43.3700	  500.00	  515.40	-1764.65	  380.88
     43.4700	  485.00	  510.96	-1775.21	  380.80
     43.5700	  497.00	  508.66	-1760.91	  380.73
     43.6700	  515.00	  507.35	-1741.60	  380.65
     43.7700	  530.00	  506.69	-1725.94	  380.58
     43.8700	  535.00	  506.09	-1720.34	  380.51
     43.9700	  495.00	  505.68	-1759.93	  380.44
     44.0700	  467.00	  505.34	-1787.59	  380.38
     44.1700	  480.00	  505.07	-1774.32	  380.31
     44.2700	  521.00	  504.87	-1733.12	  380.25
     44.3700	  473.00	  504.72	-1780.97	  380.18
     44.4700	  566.00	  504.61	-1687.86	  380.12
     44.5700	  507.00	  504.42	-1746.67	  380.06
     44.6700	  470.00	  504.38	-1783.63	  380.01
     44.7700	  495.00	  504.37	-1758.62	  379.95
     44.8700	  556.00	  504.38	-1697.63	  379.90
     44.9700	  513.00	  504.42	-1740.67	  379.84
     45.0700	  539.00	  504.48	-1714.73	  379.79
     45.1700	  513.00	  504.75	-1741.00	  379.74
     45.2700	  477.00	  504.85	-1777.10	  379.69
     45.3700	  514.00	  504.98	-1740.23	  379.65
     45.4700	  511.00	  505.13	-1743.38	  379.60
     45.5700	  497.00	  505.31	-1757.56	  379.56
     45.6700	  502.00	  505.50	-1752.75	  379.51
     45.7700	  516.00	  505.73	-1738.98	  379.47
     45.8700	  485.00	  505.98	-1770.23	  379.43
     45.9700	  537.00	  506.26	-1718.51	  379.39
     46.0700	  485.00	  506.58	-1770.83	  379.36
     46.1700	  497.00	  506.94	-1759.19	  379.32
     46.2700	  561.00	  507.34	-1695.59	  379.29
     46.3700	  488.00	  507.79	-1769.04	  379.26
     46.4700	  473.00	  508.30	-1784.55	  379.23
     46.5700	  526.00	  508.88	-1732.13	  379.20
     46.6700	  512.00	  509.55	-1746.80	  379.17
     46.7700	  506.00	  510.33	-1753.58	  379.15
     46.8700	  519.00	  511.29	-1741.54	  379.12
     46.9700	  553.00	  512.55	-1708.80	  379.10
     47.0700	  543.00	  514.38	-1720.63	  379.08
     47.1700	  509.00	  517.36	-1757.61	  379.06
     47.2700	  473.00	  522.40	-1798.65	  379.04
     47.3700	  502.00	  530.64	-1777.89	  379.02
     47.4700	  568.00	  543.21	-1724.46	  379.00
     47.5700	  517.00	  560.30	-1792.55	  378.99
     47.6700	  607.00	  580.16	-1722.41	  378.98
     47.7700	  606.00	  598.60	-1741.85	  378.97
     47.8700	  586.00	  609.63	-1772.88	  378.96
     47.9700	  620.00	  608.66	-1737.91	  378.95
     48.0700	  583.00	  596.81	-1763.06	  378.94
     48.1700	  545.00	  580.09	-1784.34	  378.93
     48.2700	  544.00	  564.24	-1769.49	  378.93
     48.3700	  590.00	  552.53	-1711.78	  378.93
     48.4700	  602.00	  545.89	-1693.14	  378.92
     48.5700	  559.00	  543.70	-1733.95	  378.92
     48.6700	  519.00	  544.84	-1775.09	  378.92
     48.7700	  533.00	  548.36	-1764.61	  378.93
     48.8700	  545.00	  553.80	-1758.05	  378.93
     48.9700	  528.00	  561.19	-1782.44	  378.94
     49.0700	  577.00	  571.20	-1743.45	  378.94
     49.1700	  570.00	  585.46	-1764.71	  378.95
     49.2700	  577.00	  607.43	-1779.68	  378.96
     49.3700	  666.00	  643.68	-1726.93	  378.97
     49.4700	  727.00	  705.33	-1727.58	  378.98
     49.5700	  774.00	  808.64	-1783.89	  379.00
     49.6700	  892.00	  971.20	-1828.45	  379.01
     49.7700	 1109.00	 1206.97	-1847.22	  379.03
     49.8700	 1451.00	 1514.26	-1812.51	  379.04
     49.9700	 1877.00	 1864.45	-1736.70	  379.06
     50.0700	 2303.00	 2192.61	-1638.86	  379.08
     50.1700	 2467.00	 2402.33	-1684.58	  379.10
     50.2700	 2466.00	 2407.44	-1690.69	  379.13
     50.3700	 2297.00	 2203.47	-1655.72	  379.15
     50.4700	 1824.00	 1875.90	-1801.15	  379.18
     50.5700	 1421.00	 1526.29	-1854.54	  379.20
     50.6700	 1016.00	 1221.81	-1955.06	  379.23
     50.7700	  854.00	  991.77	-1887.02	  379.26
     50.8700	  708.00	  837.50	-1878.75	  379.29
     50.9700	  670.00	  743.79	-1823.04	  379.32
     51.0700	  627.00	  689.73	-1811.98	  379.35
     51.1700	  632.00	  656.47	-1773.72	  379.39
     51.2700	  643.00	  631.70	-1737.95	  379.42
     51.3700	  563.00	  610.41	-1796.66	  379.46
     51.4700	  602.00	  591.93	-1739.18	  379.50
     51.5700	  597.00	  576.78	-1729.03	  379.53
     51.6700	  590.00	  565.25	-1724.50	  379.57
     51.7700	  581.00	  557.08	-1725.33	  379.62
     51.8700	  525.00	  551.59	-1775.84	  379.66
     51.9700	  569.00	  548.05	-1728.30	  379.70
     52.0700	  611.00	  545.87	-1684.12	  379.75
     52.1700	  546.00	  544.73	-1747.98	  379.79
     52.2700	  581.00	  544.75	-1713.00	  379.84
     52.3700	  530.00	  545.60	-1764.85	  379.89
     52.4700	  569.00	  547.94	-1728.19	  379.94
     52.5700	  546.00	  552.88	-1756.13	  379.99
     52.6700	  553.00	  562.69	-1758.94	  380.04
     52.7700	  622.00	  581.51	-1708.76	  380.09
     52.8700	  597.00	  615.67	-1767.92	  380.15
     52.9700	  782.00	  672.88	-1640.13	  380.20
     53.0700	  801.00	  759.46	-1707.71	  380.26
     53.1700	  936.00	  875.84	-1689.09	  380.32
     53.2700	 1055.00	 1011.56	-1705.81	  380.37
     53.3700	 1167.00	 1142.30	-1724.55	  380.43
     53.4700	 1162.00	 1231.95	-1819.20	  380.49
     53.5700	 1161.00	 1246.44	-1834.69	  380.56
     53.6700	 1158.00	 1178.87	-1770.12	  380.62
     53.7700	  994.00	 1056.82	-1812.07	  380.68
     53.8700	  860.00	  918.98	-1808.23	  380.75
     53.9700	  714.00	  794.47	-1829.72	  380.81
     54.0700	  658.00	  698.06	-1789.31	  380.88
     54.1700	  624.00	  632.29	-1757.54	  380.95
     54.2700	  537.00	  592.08	-1804.33	  381.02
     54.3700	  578.00	  569.64	-1740.89	  381.09
     54.4700	  561.00	  557.95	-1746.20	  381.16
     54.5700	  587.00	  552.11	-1714.36	  381.23
     54.6700	  544.00	  549.36	-1754.61	  381.30
     54.7700	  575.00	  548.29	-1722.54	  381.38
     54.8700	  557.00	  548.27	-1740.52	  381.45
     54.9700	  512.00	  549.06	-1786.31	  381.53
     55.0700	  540.00	  550.60	-1759.85	  381.60
     55.1700	  586.00	  552.87	-1716.12	  381.68
     55.2700	  563.00	  555.97	-1742.22	  381.76
     55.3700	  540.00	  559.97	-1769.22	  381.84
     55.4700	  570.00	  565.11	-1744.36	  381.92
     55.5700	  595.00	  571.77	-1726.02	  382.00
     55.6700	  545.00	  580.75	-1785.00	  382.08
     55.7700	  590.00	  593.66	-1752.91	  382.17
     55.8700	  614.00	  613.81	-1749.06	  382.25
     55.9700	  623.00	  647.28	-1773.53	  382.34
     56.0700	  709.00	  704.31	-1744.56	  382.42
     56.1700	  706.00	  799.70	-1842.95	  382.51
     56.2700	  892.00	  951.14	-1808.39	  382.60
     56.3700	 1021.00	 1173.96	-1902.21	  382.69
     56.4700	 1433.00	 1472.75	-1789.00	  382.77
     56.5700	 1708.00	 1831.69	-1872.94	  382.86
     56.6700	 2176.00	 2206.70	-1779.95	  382.96
     56.7700	 2390.00	 2523.59	-1882.84	  383.05
     56.8700	 2579.00	 2691.36	-1861.61	  383.14
     56.9700	 2598.00	 2647.92	-1799.17	  383.23
     57.0700	 2408.00	 2410.03	-1751.28	  383.33
     57.1700	 2030.00	 2059.75	-1779.00	  383.42
     57.2700	 1653.00	 1685.83	-1782.08	  383.52
     57.3700	 1286.00	 1350.82	-1814.07	  383.62
     57.4700	 1031.00	 1086.40	-1804.65	  383.71
     57.5700	  888.00	  898.98	-1760.23	  383.81
     57.6700	  787.00	  778.77	-1741.02	  383.91
     57.7700	  731.00	  709.25	-1727.50	  384.01
     57.8700	  733.00	  674.81	-1691.06	  384.11
     57.9700	  665.00	  664.40	-1748.65	  384.21
     58.0700	  699.00	  672.17	-1722.42	  384.31
     58.1700	  745.00	  696.18	-1700.43	  384.42
     58.2700	  811.00	  736.52	-1674.77	  384.52
     58.3700	  864.00	  793.49	-1678.74	  384.62
     58.4700	  970.00	  865.85	-1645.10	  384.73
     58.5700	 1019.00	  949.29	-1679.54	  384.83
     58.6700	 1238.00	 1035.89	-1547.14	  384.94
     58.7700	 1318.00	 1116.21	-1547.46	  385.04
     58.8700	 1455.00	 1183.62	-1477.87	  385.15
     58.9700	 1547.00	 1234.32	-1436.57	  385.26
     59.0700	 1630.00	 1263.20	-1382.45	  385.37
     59.1700	 1563.00	 1265.50	-1451.75	  385.48
     59.2700	 1477.00	 1244.48	-1516.73	  385.59
     59.3700	 1357.00	 1211.98	-1604.23	  385.70
     59.4700	 1312.00	 1180.36	-1617.61	  385.81
     59.5700	 1221.00	 1157.95	-1686.20	  385.92
     59.6700	 1080.00	 1152.00	-1821.25	  386.03
     59.7700	 1172.00	 1171.32	-1748.57	  386.14
     59.8700	 1190.00	 1221.90	-1781.15	  386.25
     59.9700	 1337.00	 1300.43	-1712.68	  386.37
     60.0700	 1457.00	 1391.21	-1683.46	  386.48
     60.1700	 1610.00	 1466.68	-1605.93	  386.60
     60.2700	 1562.00	 1494.39	-1681.64	  386.71
     60.3700	 1533.00	 1453.66	-1669.91	  386.83
     60.4700	 1462.00	 1350.46	-1637.71	  386.94
     60.5700	 1245.00	 1210.99	-1715.24	  387.06
     60.6700	 1077.00	 1063.84	-1736.09	  387.18
     60.7700	  914.00	  929.96	-1765.21	  387.29
     60.8700	  750.00	  821.32	-1820.57	  387.41
     60.9700	  724.00	  742.08	-1767.33	  387.53
     61.0700	  681.00	  691.25	-1759.50	  387.65
     61.1700	  659.00	  665.65	-1755.90	  387.77
     61.2700	  652.00	  662.72	-1759.97	  387.89
     61.3700	  700.00	  682.12	-1731.37	  388.01
     61.4700	  680.00	  726.01	-1795.26	  388.13
     61.5700	  776.00	  797.70	-1770.95	  388.25
     61.6700	  837.00	  899.26	-1811.51	  388.37
     61.7700	  963.00	 1028.45	-1814.70	  388.49
     61.8700	 1143.00	 1175.90	-1782.15	  388.61
     61.9700	 1203.00	 1323.50	-1869.75	  388.74
     62.0700	 1381.00	 1444.19	-1812.44	  388.86
     62.1700	 1445.00	 1507.14	-1811.39	  388.98
     62.2700	 1353.00	 1491.91	-1888.16	  389.10
     62.3700	 1288.00	 1403.03	-1864.28	  389.23
     62.4700	 1181.00	 1266.59	-1834.84	  389.35
     62.5700	 1090.00	 1113.31	-1772.56	  389.48
     62.6700	  895.00	  967.25	-1821.50	  389.60
     62.7700	  785.00	  843.10	-1807.35	  389.73
     62.8700	  747.00	  746.98	-1749.23	  389.85
     62.9700	  645.00	  678.36	-1782.61	  389.98
     63.0700	  577.00	  632.79	-1805.04	  390.10
     63.1700	  589.00	  604.36	-1764.61	  390.23
     63.2700	  587.00	  587.60	-1749.85	  390.35
     63.3700	  570.00	  578.46	-1757.71	  390.48
     63.4700	  593.00	  574.50	-1730.75	  390.61
     63.5700	  556.00	  574.78	-1768.03	  390.73
     63.6700	  615.00	  579.64	-1713.89	  390.86
     63.7700	  604.00	  590.41	-1735.66	  390.99
     63.8700	  640.00	  609.07	-1718.32	  391.11
     63.9700	  629.00	  637.75	-1758.00	  391.24
     64.0700	  729.00	  677.91	-1698.16	  391.37
     64.1700	  777.00	  729.39	-1701.64	  391.50
     64.2700	  824.00	  789.52	-1714.77	  391.62
     64.3700	  966.00	  852.46	-1635.71	  391.75
     64.4700	  979.00	  909.20	-1679.45	  391.88
     64.5700	  988.00	  948.49	-1709.74	  392.01
     64.6700	 1031.00	  962.89	-1681.14	  392.14
     64.7700	 1038.00	  949.80	-1661.05	  392.26
     64.8700	  984.00	  913.99	-1679.24	  392.39
     64.9700	  954.00	  864.00	-1659.25	  392.52
     65.0700	  880.00	  809.25	-1678.50	  392.65
     65.1700	  777.00	  757.27	-1729.52	  392.78
     65.2700	  717.00	  712.34	-1744.59	  392.91
     65.3700	  674.00	  675.49	-1750.74	  393.03
     65.4700	  630.00	  645.97	-1765.22	  393.16
     65.5700	  602.00	  622.51	-1769.76	  393.29
     65.6700	  587.00	  604.09	-1766.34	  393.42
     65.7700	  610.00	  589.96	-1729.21	  393.55
     65.8700	  529.00	  579.49	-1799.74	  393.68
     65.9700	  580.00	  572.18	-1741.43	  393.81
     66.0700	  536.00	  567.57	-1780.82	  393.93
     66.1700	  571.00	  565.21	-1743.46	  394.06
     66.2700	  532.00	  564.71	-1781.96	  394.19
     66.3700	  560.00	  565.75	-1755.00	  394.32
     66.4700	  586.00	  568.15	-1731.40	  394.45
     66.5700	  557.00	  572.04	-1764.29	  394.58
     66.6700	  567.00	  577.59	-1759.84	  394.70
     66.7700	  544.00	  585.77	-1791.02	  394.83
     66.8700	  636.00	  598.29	-1711.54	  394.96
     66.9700	  596.00	  618.08	-1771.33	  395.09
     67.0700	  608.00	  649.84	-1791.09	  395.22
     67.1700	  699.00	  700.25	-1750.50	  395.34
     67.2700	  765.00	  777.78	-1762.03	  395.47
     67.3700	  880.00	  891.59	-1760.84	  395.60
     67.4700	 1022.00	 1049.29	-1776.54	  395.72
     67.5700	 1266.00	 1253.44	-1736.69	  395.85
     67.6700	 1470.00	 1498.48	-1777.73	  395.98
     67.7700	 1754.00	 1768.22	-1763.47	  396.10
     67.8700	 2079.00	 2033.71	-1703.96	  396.23
     67.9700	 2311.00	 2254.59	-1692.84	  396.36
     68.0700	 2450.00	 2385.60	-1684.85	  396.48
     68.1700	 2406.00	 2393.21	-1736.46	  396.61
     68.2700	 2323.00	 2275.31	-1701.56	  396.73
     68.3700	 2075.00	 2062.63	-1736.88	  396.86
     68.4700	 1850.00	 1800.35	-1699.60	  396.98
     68.5700	 1577.00	 1529.70	-1701.95	  397.11
     68.6700	 1236.00	 1281.07	-1794.32	  397.23
     68.7700	  992.00	 1072.25	-1829.50	  397.36
     68.8700	  867.00	  909.89	-1792.14	  397.48
     68.9700	  769.00	  791.92	-1772.17	  397.60
     69.0700	  703.00	  711.22	-1757.47	  397.73
     69.1700	  625.00	  658.69	-1782.94	  397.85
     69.2700	  657.00	  625.69	-1717.94	  397.97
     69.3700	  594.00	  605.29	-1760.54	  398.09
     69.4700	  580.00	  592.61	-1761.86	  398.22
     69.5700	  555.00	  584.49	-1778.74	  398.34
     69.6700	  567.00	  579.08	-1761.33	  398.46
     69.7700	  599.00	  575.36	-1725.61	  398.58
     69.8700	  590.00	  572.80	-1732.05	  398.70
     69.9700	  585.00	  571.11	-1735.36	  398.82
     70.0700	  568.00	  570.17	-1751.42	  398.94
     70.1700	  555.00	  569.94	-1764.19	  399.06
     70.2700	  562.00	  570.42	-1757.67	  399.17
     70.3700	  562.00	  571.72	-1758.97	  399.29
     70.4700	  601.00	  574.08	-1722.33	  399.41
     70.5700	  555.00	  577.97	-1772.22	  399.53
     70.6700	  571.00	  584.26	-1762.51	  399.64
     70.7700	  622.00	  594.47	-1721.72	  399.76
     70.8700	  578.00	  611.00	-1782.25	  399.88
     70.9700	  621.00	  637.40	-1765.65	  399.99
     71.0700	  681.00	  678.45	-1746.70	  400.11
     71.1700	  669.00	  739.84	-1820.09	  400.22
     71.2700	  841.00	  827.34	-1735.59	  400.33
     71.3700	  908.00	  945.33	-1786.58	  400.45
     71.4700	 1101.00	 1094.83	-1743.08	  400.56
     71.5700	 1184.00	 1272.50	-1837.75	  400.67
     71.6700	 1392.00	 1465.88	-1823.13	  400.78
     71.7700	 1615.00	 1657.67	-1791.92	  400.90
     71.8700	 1719.00	 1822.93	-1853.18	  401.01
     71.9700	 1901.00	 1933.19	-1781.44	  401.12
     72.0700	 2011.00	 1964.73	-1702.98	  401.23
     72.1700	 1856.00	 1910.05	-1803.30	  401.33
     72.2700	 1755.00	 1782.31	-1776.56	  401.44
     72.3700	 1670.00	 1607.41	-1686.66	  401.55
     72.4700	 1582.00	 1414.15	-1581.40	  401.66
     72.5700	 1363.00	 1225.14	-1611.39	  401.76
     72.6700	 1208.00	 1056.17	-1597.42	  401.87
     72.7700	 1066.00	  915.79	-1599.04	  401.97
     72.8700	  930.00	  806.36	-1625.61	  402.08
     72.9700	  888.00	  725.66	-1586.91	  402.18
     73.0700	  803.00	  668.89	-1615.14	  402.28
     73.1700	  720.00	  630.42	-1659.67	  402.39
     73.2700	  702.00	  604.96	-1652.21	  402.49
     73.3700	  670.00	  588.26	-1667.51	  402.59
     73.4700	  627.00	  577.25	-1699.50	  402.69
     73.5700	  616.00	  569.87	-1703.12	  402.79
     73.6700	  577.00	  564.87	-1737.12	  402.89
     73.7700	  594.00	  561.53	-1716.78	  402.99
     73.8700	  574.00	  559.41	-1734.66	  403.08
     73.9700	  583.00	  558.27	-1724.52	  403.18
     74.0700	  613.00	  557.94	-1694.19	  403.28
     74.1700	  584.00	  558.22	-1723.47	  403.37
     74.2700	  617.00	  558.92	-1691.17	  403.47
     74.3700	  627.00	  559.76	-1682.01	  403.56
     74.4700	  600.00	  560.46	-1709.71	  403.65
     74.5700	  697.00	  560.69	-1612.94	  403.74
     74.6700	  657.00	  560.22	-1652.47	  403.84
     74.7700	  634.00	  559.00	-1674.25	  403.93
     74.8700	  623.00	  557.18	-1683.43	  404.02
     74.9700	  590.00	  555.06	-1714.31	  404.10
     75.0700	  573.00	  553.01	-1729.26	  404.19
     75.1700	  545.00	  551.32	-1755.57	  404.28
     75.2700	  592.00	  550.43	-1707.68	  404.37
     75.3700	  573.00	  550.75	-1727.00	  404.45
     75.4700	  528.00	  552.67	-1773.92	  404.54
     75.5700	  569.00	  556.57	-1736.82	  404.62
     75.6700	  550.00	  563.16	-1762.41	  404.70
     75.7700	  597.00	  572.78	-1725.03	  404.78
     75.8700	  572.00	  585.73	-1762.98	  404.86
     75.9700	  643.00	  601.97	-1708.22	  404.94
     76.0700	  634.00	  621.00	-1736.25	  405.02
     76.1700	  640.00	  641.73	-1750.98	  405.10
     76.2700	  663.00	  662.44	-1748.69	  405.18
     76.3700	  714.00	  680.84	-1716.09	  405.26
     76.4700	  664.00	  694.30	-1779.55	  405.33
     76.5700	  756.00	  700.41	-1693.66	  405.41
     76.6700	  667.00	  697.89	-1780.14	  405.48
     76.7700	  669.00	  687.25	-1767.50	  405.55
     76.8700	  655.00	  670.49	-1764.74	  405.62
     76.9700	  609.00	  650.07	-1790.32	  405.70
     77.0700	  576.00	  628.82	-1802.07	  405.76
     77.1700	  587.00	  608.52	-1770.77	  405.83
     77.2700	  538.00	  590.54	-1801.79	  405.90
     77.3700	  566.00	  575.59	-1758.84	  405.97
     77.4700	  534.00	  563.85	-1779.10	  406.03
     77.5700	  513.00	  555.11	-1791.36	  406.10
     77.6700	  545.00	  548.90	-1753.15	  406.16
     77.7700	  511.00	  544.66	-1782.91	  406.23
     77.8700	  510.00	  541.86	-1781.11	  406.29
     77.9700	  530.00	  540.07	-1759.32	  406.35
     78.0700	  524.00	  538.93	-1764.18	  406.41
     78.1700	  508.00	  538.21	-1779.46	  406.47
     78.2700	  522.00	  537.76	-1765.01	  406.52
     78.3700	  543.00	  537.49	-1743.74	  406.58
     78.4700	  504.00	  537.34	-1782.59	  406.64
     78.5700	  516.00	  537.29	-1770.54	  406.69
     78.6700	  509.00	  537.34	-1777.59	  406.74
     78.7700	  512.00	  537.48	-1774.73	  406.80
     78.8700	  505.00	  537.75	-1782.00	  406.85
     78.9700	  501.00	  538.17	-1786.42	  406.90
     79.0700	  547.00	  538.77	-1741.02	  406.95
     79.1700	  548.00	  539.60	-1740.85	  406.99
     79.2700	  532.00	  540.54	-1757.79	  407.04
     79.3700	  557.00	  542.01	-1734.26	  407.09
     79.4700	  555.00	  543.89	-1738.14	  407.13
     79.5700	  514.00	  546.26	-1781.51	  407.17
     79.6700	  504.00	  549.20	-1794.45	  407.21
     79.7700	  506.00	  552.84	-1796.09	  407.26
     79.8700	  566.00	  557.32	-1740.57	  407.30
     79.9700	  523.00	  562.85	-1789.10	  407.33
     80.0700	  554.00	  569.68	-1764.93	  407.37
     80.1700	  491.00	  578.10	-1836.35	  407.41
     80.2700	  547.00	  588.45	-1790.70	  407.44
     80.3700	  574.00	  601.01	-1776.26	  407.48
     80.4700	  592.00	  615.90	-1773.15	  407.51
     80.5700	  574.00	  632.96	-1808.21	  407.54
     80.6700	  628.00	  651.72	-1772.97	  407.57
     80.7700	  650.00	  671.29	-1770.54	  407.60
     80.8700	  677.00	  690.43	-1762.68	  407.63
     80.9700	  704.00	  707.74	-1752.99	  407.66
     81.0700	  708.00	  721.88	-1763.13	  407.68
     81.1700	  732.00	  731.81	-1749.06	  407.71
     81.2700	  736.00	  736.83	-1750.08	  407.73
     81.3700	  774.00	  736.64	-1711.89	  407.75
     81.4700	  691.00	  731.34	-1789.59	  407.77
     81.5700	  801.00	  721.47	-1669.72	  407.79
     81.6700	  781.00	  707.76	-1676.01	  407.81
     81.7700	  711.00	  691.14	-1729.39	  407.83
     81.8700	  701.00	  672.66	-1720.91	  407.84
     81.9700	  734.00	  653.50	-1668.75	  407.86
     82.0700	  693.00	  634.72	-1690.97	  407.87
     82.1700	  636.00	  617.30	-1730.55	  407.88
     82.2700	  692.00	  601.79	-1659.04	  407.89
     82.3700	  599.00	  588.48	-1738.73	  407.90
     82.4700	  569.00	  577.47	-1757.72	  407.91
     82.5700	  583.00	  568.69	-1734.94	  407.92
     82.6700	  600.00	  562.05	-1711.30	  407.92
     82.7700	  584.00	  557.38	-1722.63	  407.92
     82.8700	  547.00	  554.48	-1756.73	  407.93
     82.9700	  541.00	  553.17	-1761.42	  407.93
     83.0700	  533.00	  553.33	-1769.58	  407.93
     83.1700	  532.00	  554.80	-1772.05	  407.93
     83.2700	  549.00	  557.46	-1757.71	  407.93
     83.3700	  580.00	  561.13	-1730.38	  407.92
     83.4700	  540.00	  565.57	-1774.82	  407.92
     83.5700	  569.00	  570.48	-1750.73	  407.91
     83.6700	  558.00	  575.44	-1766.69	  407.90
     83.7700	  552.00	  579.99	-1777.24	  407.89
     83.8700	  555.00	  583.56	-1777.81	  407.88
     83.9700	  568.00	  585.66	-1766.91	  407.87
     84.0700	  601.00	  585.91	-1734.16	  407.86
     84.1700	  578.00	  584.23	-1755.48	  407.84
     84.2700	  535.00	  580.87	-1795.12	  407.83
     84.3700	  560.00	  576.26	-1765.51	  407.81
     84.4700	  538.00	  570.94	-1782.19	  407.79
     84.5700	  525.00	  565.38	-1789.63	  407.77
     84.6700	  526.00	  559.98	-1783.23	  407.75
     84.7700	  500.00	  555.04	-1804.29	  407.73
     84.8700	  497.00	  550.74	-1802.99	  407.71
     84.9700	  493.00	  547.18	-1803.43	  407.68
     85.0700	  527.00	  544.37	-1766.62	  407.65
     85.1700	  524.00	  542.27	-1767.52	  407.63
     85.2700	  557.00	  540.78	-1733.03	  407.60
     85.3700	  518.00	  539.82	-1771.07	  407.57
     85.4700	  511.00	  539.30	-1777.55	  407.53
     85.5700	  528.00	  539.15	-1760.40	  407.50
     85.6700	  502.00	  539.33	-1786.58	  407.47
     85.7700	  554.00	  539.80	-1735.05	  407.43
     85.8700	  535.00	  540.60	-1754.85	  407.39
     85.9700	  523.00	  541.76	-1768.01	  407.35
     86.0700	  534.00	  543.39	-1758.64	  407.31
     86.1700	  555.00	  545.58	-1739.83	  407.27
     86.2700	  576.00	  548.49	-1721.74	  407.23
     86.3700	  512.00	  552.29	-1789.54	  407.18
     86.4700	  565.00	  557.11	-1741.36	  407.14
     86.5700	  576.00	  563.09	-1736.34	  407.09
     86.6700	  545.00	  570.28	-1774.53	  407.04
     86.7700	  565.00	  578.30	-1762.55	  406.99
     86.8700	  620.00	  587.54	-1716.79	  406.94
     86.9700	  620.00	  597.30	-1726.55	  406.89
     87.0700	  590.00	  607.01	-1766.26	  406.83
     87.1700	  637.00	  615.92	-1728.17	  406.78
     87.2700	  622.00	  623.23	-1750.48	  406.72
     87.3700	  665.00	  628.12	-1712.37	  406.66
     87.4700	  647.00	  629.95	-1732.20	  406.60
     87.5700	  668.00	  628.49	-1709.74	  406.54
     87.6700	  672.00	  624.02	-1701.27	  406.48
     87.7700	  657.00	  617.18	-1709.43	  406.41
     87.8700	  665.00	  608.87	-1693.12	  406.35
     87.9700	  649.00	  600.00	-1700.25	  406.28
     88.0700	  621.00	  591.41	-1719.66	  406.21
     88.1700	  613.00	  583.81	-1720.06	  406.14
     88.2700	  565.00	  577.76	-1762.01	  406.07
     88.3700	  563.00	  573.61	-1759.86	  406.00
     88.4700	  603.00	  571.56	-1717.81	  405.92
     88.5700	  581.00	  571.61	-1739.86	  405.85
     88.6700	  592.00	  573.60	-1730.85	  405.77
     88.7700	  584.00	  577.24	-1742.49	  405.69
     88.8700	  575.00	  582.11	-1756.36	  405.61
     88.9700	  621.00	  587.69	-1715.94	  405.53
     89.0700	  609.00	  593.41	-1733.66	  405.45
     89.1700	  601.00	  598.60	-1746.85	  405.37
     89.2700	  628.00	  602.64	-1723.89	  405.28
     89.3700	  587.00	  604.93	-1767.18	  405.19
     89.4700	  566.00	  605.12	-1788.37	  405.11
     89.5700	  588.00	  603.12	-1764.37	  405.02
     89.6700	  580.00	  599.17	-1768.42	  404.92
     89.7700	  583.00	  593.71	-1759.96	  404.83
     89.8700	  629.00	  587.28	-1707.53	  404.74
     89.9700	  575.00	  580.42	-1754.67	  404.64
     90.0700	  595.00	  573.57	-1727.82	  404.55
     90.1700	  568.00	  567.10	-1748.35	  404.45
     90.2700	  554.00	  561.28	-1756.53	  404.35
     90.3700	  542.00	  556.27	-1763.52	  404.25
     90.4700	  529.00	  552.13	-1772.38	  404.15
     90.5700	  506.00	  548.85	-1792.10	  404.04
     90.6700	  509.00	  546.38	-1786.63	  403.94
     90.7700	  540.00	  544.62	-1753.87	  403.83
     90.8700	  526.00	  543.47	-1766.72	  403.72
     90.9700	  500.00	  542.84	-1792.08	  403.61
     91.0700	  538.00	  542.65	-1753.90	  403.50
     91.1700	  527.00	  542.87	-1765.12	  403.39
     91.2700	  524.00	  543.50	-1768.75	  403.28
     91.3700	  531.00	  544.57	-1762.82	  403.16
     91.4700	  519.00	  546.17	-1776.42	  403.05
     91.5700	  554.00	  548.41	-1743.66	  402.93
     91.6700	  562.00	  551.46	-1738.71	  402.81
     91.7700	  533.00	  555.50	-1771.75	  402.69
     91.8700	  543.00	  560.75	-1767.00	  402.57
     91.9700	  537.00	  567.19	-1779.44	  402.45
     92.0700	  585.00	  575.45	-1739.70	  402.32
     92.1700	  570.00	  585.43	-1764.68	  402.20
     92.2700	  593.00	  597.18	-1753.43	  402.07
     92.3700	  602.00	  610.65	-1757.90	  401.94
     92.4700	  608.00	  625.65	-1766.90	  401.81
     92.5700	  645.00	  641.86	-1746.11	  401.68
     92.6700	  609.00	  658.84	-1799.09	  401.55
     92.7700	  696.00	  675.98	-1729.23	  401.41
     92.8700	  761.00	  692.61	-1680.86	  401.28
     92.9700	  712.00	  708.01	-1745.26	  401.14
     93.0700	  815.00	  721.59	-1655.84	  401.01
     93.1700	  756.00	  733.04	-1726.29	  400.87
     93.2700	  807.00	  742.45	-1684.70	  400.73
     93.3700	  822.00	  750.24	-1677.49	  400.59
     93.4700	  832.00	  757.07	-1674.32	  400.44
     93.5700	  849.00	  763.63	-1663.88	  400.30
     93.6700	  872.00	  770.54	-1647.79	  400.15
     93.7700	  917.00	  778.35	-1610.60	  400.01
     93.8700	  861.00	  787.56	-1675.81	  399.86
     93.9700	  852.00	  798.60	-1695.85	  399.71
     94.0700	  852.00	  811.81	-1709.06	  399.56
     94.1700	  846.00	  827.28	-1730.53	  399.41
     94.2700	  851.00	  844.73	-1742.98	  399.25
     94.3700	  852.00	  863.47	-1760.72	  399.10
     94.4700	  953.00	  882.33	-1678.58	  398.94
     94.5700	  880.00	  899.73	-1768.98	  398.79
     94.6700	  912.00	  913.82	-1751.07	  398.63
     94.7700	  896.00	  922.65	-1775.90	  398.47
     94.8700	  951.00	  924.62	-1722.87	  398.31
     94.9700	  879.00	  918.81	-1789.06	  398.15
     95.0700	  835.00	  905.28	-1819.53	  397.98
     95.1700	  932.00	  885.07	-1702.32	  397.82
     95.2700	  854.00	  859.90	-1755.15	  397.65
     95.3700	  772.00	  831.79	-1809.04	  397.49
     95.4700	  842.00	  802.84	-1710.09	  397.32
     95.5700	  755.00	  775.02	-1769.27	  397.15
     95.6700	  728.00	  750.15	-1771.40	  396.98
     95.7700	  690.00	  729.87	-1789.12	  396.81
     95.8700	  673.00	  715.63	-1791.88	  396.63
     95.9700	  683.00	  708.70	-1774.95	  396.46
     96.0700	  663.00	  710.20	-1796.45	  396.29
     96.1700	  675.00	  721.02	-1795.27	  396.11
     96.2700	  755.00	  741.90	-1736.15	  395.93
     96.3700	  782.00	  773.27	-1740.52	  395.75
     96.4700	  818.00	  815.26	-1746.51	  395.57
     96.5700	  836.00	  867.52	-1780.77	  395.39
     96.6700	  901.00	  929.17	-1777.42	  395.21
     96.7700	  923.00	  998.74	-1824.99	  395.03
     96.8700	 1075.00	 1074.02	-1748.27	  394.85
     96.9700	 1083.00	 1152.13	-1818.38	  394.66
     97.0700	 1207.00	 1229.45	-1771.70	  394.47
     97.1700	 1233.00	 1301.81	-1818.06	  394.29
     97.2700	 1437.00	 1364.68	-1676.93	  394.10
     97.3700	 1445.00	 1413.50	-1717.75	  393.91
     97.4700	 1395.00	 1444.35	-1798.60	  393.72
     97.5700	 1445.00	 1454.68	-1758.93	  393.53
     97.6700	 1466.00	 1443.90	-1727.15	  393.34
     97.7700	 1457.00	 1413.48	-1705.73	  393.14
     97.8700	 1301.00	 1366.54	-1814.79	  392.95
     97.9700	 1350.00	 1307.17	-1706.42	  392.75
     98.0700	 1238.00	 1239.75	-1751.00	  392.56
     98.1700	 1199.00	 1168.66	-1718.91	  392.36
     98.2700	 1055.00	 1097.80	-1792.05	  392.16
     98.3700	 1073.00	 1030.63	-1706.88	  391.96
     98.4700	  956.00	  970.03	-1763.28	  391.76
     98.5700	  915.00	  918.34	-1752.59	  391.56
     98.6700	  853.00	  877.35	-1773.60	  391.36
     98.7700	  799.00	  848.40	-1798.65	  391.15
     98.8700	  825.00	  832.46	-1756.71	  390.95
     98.9700	  786.00	  830.18	-1793.43	  390.74
     99.0700	  831.00	  841.99	-1760.24	  390.54
     99.1700	  845.00	  868.11	-1772.36	  390.33
     99.2700	  900.00	  908.54	-1757.79	  390.12
     99.3700	  918.00	  963.07	-1794.32	  389.92
     99.4700	  993.00	 1031.17	-1787.42	  389.71
     99.5700	 1077.00	 1111.96	-1784.21	  389.50
     99.6700	 1162.00	 1204.05	-1791.30	  389.29
     99.7700	 1313.00	 1305.45	-1741.70	  389.07
     99.8700	 1404.00	 1413.55	-1758.80	  388.86
     99.9700	 1529.00	 1524.96	-1745.21	  388.65
    100.0700	 1641.00	 1635.69	-1743.94	  388.43
    100.1700	 1726.00	 1741.25	-1764.50	  388.22
    100.2700	 1866.00	 1837.08	-1720.33	  388.00
    100.3700	 2015.00	 1919.09	-1653.34	  387.79
    100.4700	 2094.00	 1984.03	-1639.28	  387.57
    100.5700	 2089.00	 2029.62	-1689.87	  387.35
    100.6700	 2055.00	 2054.44	-1748.69	  387.13
    100.7700	 2095.00	 2057.68	-1711.93	  386.91
    100.8700	 1956.00	 2039.17	-1832.42	  386.69
    100.9700	 2083.00	 1999.62	-1665.87	  386.47
    101.0700	 1951.00	 1940.92	-1739.17	  386.25
    101.1700	 1904.00	 1866.39	-1711.64	  386.03
    101.2700	 1854.00	 1780.52	-1675.77	  385.81
    101.3700	 1732.00	 1688.37	-1705.62	  385.58
    101.4700	 1583.00	 1595.04	-1761.29	  385.36
    101.5700	 1540.00	 1505.01	-1714.26	  385.13
    101.6700	 1409.00	 1421.96	-1762.21	  384.91
    101.7700	 1335.00	 1348.54	-1762.79	  384.68
    101.8700	 1326.00	 1286.24	-1709.49	  384.46
    101.9700	 1276.00	 1235.53	-1708.78	  384.23
    102.0700	 1242.00	 1195.84	-1703.09	  384.00
    102.1700	 1183.00	 1165.75	-1732.00	  383.78
    102.2700	 1160.00	 1143.12	-1732.37	  383.55
    102.3700	 1126.00	 1125.29	-1748.54	  383.32
    102.4700	 1133.00	 1109.41	-1725.66	  383.09
    102.5700	 1102.00	 1092.78	-1740.03	  382.86
    102.6700	 1067.00	 1073.18	-1755.43	  382.63
    102.7700	 1029.00	 1049.20	-1769.45	  382.40
    102.8700	  984.00	 1020.30	-1785.55	  382.17
    102.9700	  921.00	  986.76	-1815.01	  381.94
    103.0700	  862.00	  949.46	-1836.71	  381.70
    103.1700	  852.00	  909.60	-1806.85	  381.47
    103.2700	  920.00	  868.50	-1697.75	  381.24
    103.3700	  787.00	  827.48	-1789.73	  381.01
    103.4700	  786.00	  787.71	-1750.96	  380.77
    103.5700	  725.00	  750.20	-1774.45	  380.54
    103.6700	  732.00	  715.73	-1732.98	  380.31
    103.7700	  680.00	  684.82	-1754.07	  380.07
    103.8700	  653.00	  657.78	-1754.03	  379.84
    103.9700	  687.00	  634.69	-1696.94	  379.60
    104.0700	  624.00	  615.47	-1740.72	  379.37
    104.1700	  587.00	  599.85	-1762.10	  379.13
    104.2700	  579.00	  587.51	-1757.76	  378.90
    104.3700	  576.00	  578.06	-1751.31	  378.66
    104.4700	  595.00	  571.09	-1725.34	  378.43
    104.5700	  550.00	  566.19	-1765.44	  378.19
    104.6700	  551.00	  563.00	-1761.25	  377.96
    104.7700	  539.00	  561.17	-1771.42	  377.72
    104.8700	  544.00	  560.42	-1765.67	  377.48
    104.9700	  552.00	  560.53	-1757.78	  377.25
    105.0700	  520.00	  561.29	-1790.54	  377.01
    105.1700	  571.00	  562.57	-1740.82	  376.78
    105.2700	  558.00	  564.24	-1755.49	  376.54
    105.3700	  583.00	  566.28	-1732.53	  376.30
    105.4700	  514.00	  568.64	-1803.89	  376.07
    105.5700	  560.00	  571.37	-1760.62	  375.83
    105.6700	  556.00	  574.52	-1767.77	  375.60
    105.7700	  553.00	  578.19	-1774.44	  375.36
    105.8700	  579.00	  582.51	-1752.76	  375.12
    105.9700	  566.00	  587.59	-1770.84	  374.89
    106.0700	  555.00	  593.50	-1787.75	  374.65
    106.1700	  595.00	  600.30	-1754.55	  374.42
    106.2700	  592.00	  607.98	-1765.23	  374.18
    106.3700	  585.00	  616.45	-1780.70	  373.95
    106.4700	  581.00	  625.58	-1793.83	  373.71
    106.5700	  577.00	  635.14	-1807.39	  373.48
    106.6700	  603.00	  644.87	-1791.12	  373.24
    106.7700	  612.00	  654.44	-1791.69	  373.01
    106.8700	  600.00	  663.47	-1812.72	  372.78
    106.9700	  640.00	  671.58	-1780.83	  372.54
    107.0700	  657.00	  678.41	-1770.66	  372.31
    107.1700	  686.00	  683.68	-1746.93	  372.08
    107.2700	  671.00	  687.22	-1765.47	  371.84
    107.3700	  691.00	  689.04	-1747.29	  371.61
    107.4700	  681.00	  689.30	-1757.55	  371.38
    107.5700	  688.00	  688.33	-1749.58	  371.15
    107.6700	  666.00	  686.51	-1769.76	  370.92
    107.7700	  667.00	  684.30	-1766.55	  370.69
    107.8700	  696.00	  682.09	-1735.34	  370.46
    107.9700	  669.00	  680.22	-1760.47	  370.23
    108.0700	  674.00	  678.94	-1754.19	  370.00
    108.1700	  678.00	  678.39	-1749.64	  369.77
    108.2700	  699.00	  678.58	-1728.83	  369.54
    108.3700	  642.00	  679.41	-1786.66	  369.32
    108.4700	  697.00	  680.70	-1732.95	  369.09
    108.5700	  711.00	  682.12	-1720.37	  368.87
    108.6700	  660.00	  683.32	-1772.57	  368.64
    108.7700	  768.00	  683.89	-1665.14	  368.42
    108.8700	  680.00	  683.43	-1752.68	  368.19
    108.9700	  705.00	  681.62	-1725.87	  367.97
    109.0700	  645.00	  678.26	-1782.51	  367.75
    109.1700	  649.00	  673.25	-1773.50	  367.53
    109.2700	  683.00	  666.68	-1732.93	  367.31
    109.3700	  624.00	  658.74	-1783.99	  367.09
    109.4700	  675.00	  649.70	-1723.95	  366.87
    109.5700	  609.00	  639.90	-1780.15	  366.65
    109.6700	  661.00	  629.68	-1717.93	  366.44
    109.7700	  612.00	  619.34	-1756.59	  366.22
    109.8700	  580.00	  609.21	-1778.46	  366.00
    109.9700	  615.00	  599.53	-1733.78	  365.79
    110.0700	  644.00	  590.52	-1695.77	  365.58
    110.1700	  606.00	  582.34	-1725.59	  365.37
    110.2700	  584.00	  575.09	-1740.34	  365.16
    110.3700	  604.00	  568.84	-1714.09	  364.95
    110.4700	  619.00	  563.60	-1693.85	  364.74
    110.5700	  581.00	  559.34	-1727.59	  364.53
    110.6700	  534.00	  556.02	-1771.27	  364.32
    110.7700	  575.00	  553.55	-1727.80	  364.12
    110.8700	  573.00	  551.86	-1728.11	  363.92
    110.9700	  536.00	  550.86	-1764.11	  363.71
    111.0700	  563.00	  550.45	-1736.70	  363.51
    111.1700	  500.00	  550.56	-1799.81	  363.31
    111.2700	  542.00	  551.10	-1758.35	  363.11
    111.3700	  556.00	  552.01	-1745.26	  362.92
    111.4700	  567.00	  553.25	-1735.50	  362.72
    111.5700	  547.00	  554.76	-1757.01	  362.53
    111.6700	  548.00	  556.53	-1757.78	  362.33
    111.7700	  533.00	  558.51	-1774.76	  362.14
    111.8700	  569.00	  560.71	-1740.96	  361.95
    111.9700	  554.00	  563.12	-1758.37	  361.76
    112.0700	  558.00	  565.74	-1756.99	  361.58
    112.1700	  558.00	  568.59	-1759.84	  361.39
    112.2700	  595.00	  571.68	-1725.93	  361.21
    112.3700	  602.00	  575.04	-1722.29	  361.03
    112.4700	  598.00	  578.72	-1729.97	  360.85
    112.5700	  581.00	  582.75	-1751.00	  360.67
    112.6700	  585.00	  587.21	-1751.46	  360.49
    112.7700	  658.00	  592.19	-1683.44	  360.32
    112.8700	  658.00	  597.78	-1689.03	  360.14
    112.9700	  649.00	  604.14	-1704.39	  359.97
    113.0700	  675.00	  611.46	-1685.71	  359.80
    113.1700	  675.00	  619.97	-1694.22	  359.63
    113.2700	  697.00	  630.00	-1682.25	  359.47
    113.3700	  744.00	  641.96	-1647.21	  359.30
    113.4700	  794.00	  656.35	-1611.60	  359.14
    113.5700	  815.00	  673.81	-1608.06	  358.98
    113.6700	  875.00	  695.13	-1569.38	  358.82
    113.7700	  888.00	  721.27	-1582.52	  358.67
    113.8700	  941.00	  753.39	-1561.64	  358.51
    113.9700	  975.00	  792.85	-1567.10	  358.36
    114.0700	 1027.00	  841.24	-1563.49	  358.21
    114.1700	 1083.00	  900.35	-1566.60	  358.06
    114.2700	 1072.00	  972.17	-1649.42	  357.92
    114.3700	 1188.00	 1058.88	-1620.13	  357.78
    114.4700	 1383.00	 1162.75	-1529.00	  357.64
    114.5700	 1393.00	 1286.15	-1642.40	  357.50
    114.6700	 1609.00	 1431.36	-1571.61	  357.36
    114.7700	 1775.00	 1600.49	-1574.74	  357.23
    114.8700	 1893.00	 1795.42	-1651.67	  357.10
    114.9700	 2132.00	 2017.49	-1634.74	  356.97
    115.0700	 2305.00	 2267.57	-1711.82	  356.84
    115.1700	 2540.00	 2545.66	-1754.91	  356.72
    115.2700	 2835.00	 2850.84	-1765.09	  356.60
    115.3700	 3124.00	 3181.32	-1806.57	  356.48
    115.4700	 3415.00	 3533.95	-1868.20	  356.36
    115.5700	 3705.00	 3904.63	-1948.88	  356.25
    115.6700	 4108.00	 4287.84	-1929.09	  356.14
    115.7700	 4441.00	 4676.82	-1985.07	  356.03
    115.8700	 4853.00	 5063.84	-1960.09	  355.93
    115.9700	 5229.00	 5439.84	-1960.09	  355.82
    116.0700	 5678.00	 5795.06	-1866.31	  355.72
    116.1700	 5897.00	 6118.91	-1971.16	  355.63
    116.2700	 6261.00	 6400.58	-1888.83	  355.53
    116.3700	 6480.00	 6629.72	-1898.97	  355.44
    116.4700	 6723.00	 6796.94	-1823.19	  355.35
    116.5700	 6981.00	 6895.03	-1663.28	  355.27
    116.6700	 6930.00	 6919.54	-1738.79	  355.19
    116.7700	 6997.00	 6869.53	-1621.78	  355.11
    116.8700	 6878.00	 6747.62	-1618.87	  355.03
    116.9700	 6626.00	 6559.67	-1682.92	  354.96
    117.0700	 6456.00	 6313.97	-1607.22	  354.89
    117.1700	 6174.00	 6020.44	-1595.69	  354.82
    117.2700	 5592.00	 5689.74	-1846.99	  354.76
    117.3700	 5295.00	 5332.42	-1786.67	  354.70
    117.4700	 4924.00	 4958.73	-1783.98	  354.64
    117.5700	 4484.00	 4577.89	-1843.14	  354.59
    117.6700	 4364.00	 4198.26	-1583.51	  354.54
    117.7700	 3950.00	 3827.06	-1626.31	  354.50
    117.8700	 3677.00	 3470.12	-1542.37	  354.45
    117.9700	 3224.00	 3132.24	-1657.49	  354.41
    118.0700	 2891.00	 2816.84	-1675.09	  354.38
    118.1700	 2555.00	 2526.35	-1720.60	  354.35
    118.2700	 2214.00	 2262.13	-1797.38	  354.32
    118.3700	 2005.00	 2024.52	-1768.77	  354.29
    118.4700	 1727.00	 1813.26	-1835.51	  354.27
    118.5700	 1573.00	 1627.29	-1803.54	  354.25
    118.6700	 1449.00	 1465.18	-1765.43	  354.24
    118.7700	 1209.00	 1325.15	-1865.40	  354.23
    118.8700	 1179.00	 1205.13	-1775.38	  354.23
    118.9700	 1006.00	 1103.03	-1846.28	  354.22
    119.0700	  940.00	 1016.69	-1825.94	  354.23
    119.1700	  936.00	  944.07	-1757.32	  354.23
    119.2700	  822.00	  883.24	-1810.49	  354.24
    119.3700	  682.00	  832.43	-1899.68	  354.26
    119.4700	  744.00	  790.09	-1795.34	  354.27
    119.5700	  693.00	  754.83	-1811.08	  354.30
    119.6700	  681.00	  725.47	-1793.72	  354.32
    119.7700	  587.00	  701.00	-1863.25	  354.35
    119.8700	  623.00	  680.57	-1806.82	  354.39
    119.9700	  604.00	  663.51	-1808.76	  354.43
    120.0700	  584.00	  649.23	-1814.48	  354.47
    120.1700	  516.00	  637.26	-1870.51	  354.52
    120.2700	  558.00	  627.25	-1818.50	  354.57
    120.3700	  571.00	  618.89	-1797.14	  354.63
    120.4700	  570.00	  611.93	-1791.18	  354.69
    120.5700	  593.00	  606.20	-1762.45	  354.76
    120.6700	  577.00	  601.55	-1773.80	  354.83
    120.7700	  572.00	  597.86	-1775.11	  354.90
    120.8700	  571.00	  595.04	-1773.29	  354.98
    120.9700	  552.00	  593.01	-1790.26	  355.07
    121.0700	  581.00	  591.72	-1759.97	  355.16
    121.1700	  612.00	  591.11	-1728.36	  355.25
    121.2700	  518.00	  591.15	-1822.40	  355.35
    121.3700	  549.00	  591.77	-1792.02	  355.46
    121.4700	  579.00	  592.94	-1763.19	  355.57
    121.5700	  576.00	  594.60	-1767.85	  355.68
    121.6700	  591.00	  596.69	-1754.94	  355.80
    121.7700	  560.00	  599.16	-1788.41	  355.92
    121.8700	  638.00	  601.91	-1713.16	  356.05
    121.9700	  612.00	  604.89	-1742.14	  356.19
    122.0700	  634.00	  608.00	-1723.25	  356.33
    122.1700	  597.00	  611.14	-1763.39	  356.47
    122.2700	  596.00	  614.21	-1767.46	  356.62
    122.3700	  667.00	  617.11	-1699.36	  356.78
    122.4700	  663.00	  619.73	-1705.98	  356.94
    122.5700	  700.00	  621.96	-1671.21	  357.11
    122.6700	  640.00	  623.73	-1732.98	  357.28
    122.7700	  639.00	  624.96	-1735.21	  357.46
    122.8700	  681.00	  625.58	-1693.83	  357.64
    122.9700	  666.00	  625.59	-1708.84	  357.83
    123.0700	  628.00	  624.96	-1746.21	  358.03
    123.1700	  650.00	  623.74	-1722.99	  358.23
    123.2700	  645.00	  621.95	-1726.20	  358.43
    123.3700	  580.00	  619.66	-1788.91	  358.65
    123.4700	  673.00	  616.94	-1693.19	  358.86
    123.5700	  639.00	  613.87	-1724.12	  359.09
    123.6700	  582.00	  610.51	-1777.76	  359.32
    123.7700	  628.00	  606.96	-1728.21	  359.55
    123.8700	  641.00	  603.27	-1711.52	  359.80
    123.9700	  664.00	  599.52	-1684.77	  360.05
    124.0700	  628.00	  595.78	-1717.03	  360.30
    124.1700	  594.00	  592.08	-1747.33	  360.56
    124.2700	  643.00	  588.49	-1694.74	  360.83
    124.3700	  546.00	  585.04	-1788.29	  361.10
    124.4700	  588.00	  581.76	-1743.01	  361.38
    124.5700	  575.00	  578.67	-1752.92	  361.67
    124.6700	  601.00	  575.80	-1724.05	  361.96
    124.7700	  582.00	  573.14	-1740.39	  362.26
    124.8700	  553.00	  570.73	-1766.98	  362.57
    124.9700	  557.00	  480.95	-1673.20	  362.88
    125.0700	  592.00	  481.27	-1749.25	  363.20
    125.1700	  599.00	  481.60	-1749.25	  363.52
    125.2700	  564.00	  481.93	-1749.25	  363.86
    125.3700	  567.00	  482.27	-1749.25	  364.20
    125.4700	  563.00	  482.62	-1749.25	  364.54
    125.5700	  577.00	  482.97	-1749.25	  364.90
    125.6700	  559.00	  483.33	-1749.25	  365.26
    125.7700	  594.00	  483.70	-1749.25	  365.63
    125.8700	  603.00	  484.08	-1749.25	  366.00
    125.9700	  527.00	  484.46	-1749.25	  366.38
    126.0700	  585.00	  484.85	-1749.25	  366.77
    126.1700	  595.00	  485.24	-1749.25	  367.17
    126.2700	  594.00	  485.65	-1749.25	  367.57
    126.3700	  582.00	  486.06	-1749.25	  367.98
    126.4700	  547.00	  486.48	-1749.25	  368.40
    126.5700	  631.00	  486.90	-1749.25	  368.83
    126.6700	  599.00	  487.34	-1749.25	  369.26
    126.7700	  627.00	  487.78	-1749.25	  369.70
    126.8700	  624.00	  488.23	-1749.25	  370.15
    126.9700	  593.00	  488.69	-1749.25	  370.61
    127.0700	  612.00	  489.15	-1749.25	  371.08
    127.1700	  650.00	  489.62	-1749.25	  371.55
    127.2700	  641.00	  490.10	-1749.25	  372.03
    127.3700	  684.00	  490.59	-1749.25	  372.52
    127.4700	  707.00	  491.09	-1749.25	  373.01
    127.5700	  650.00	  491.59	-1749.25	  373.52
    127.6700	  674.00	  492.10	-1749.25	  374.03
    127.7700	  698.00	  492.63	-1749.25	  374.55
    127.8700	  714.00	  493.15	-1749.25	  375.08
    127.9700	  737.00	  493.69	-1749.25	  375.62
    128.0700	  746.00	  494.24	-1749.25	  376.16
    128.1700	  740.00	  494.79	-1749.25	  376.72
    128.2700	  750.00	  495.35	-1749.25	  377.28
    128.3700	  781.00	  495.92	-1749.25	  377.85
    128.4700	  828.00	  496.50	-1749.25	  378.43
    128.5700	    0.00	  497.09	-1749.25	  379.02
    128.6700	    0.00	  497.69	-1749.25	  379.61
     12.3070	        	        	        	        	       0	(  0  0  2)	  0  1
     24.8877	        	        	        	        	       0	(  0  0  4)	  0  1
     28.3331	        	        	        	        	       0	(  1  0  0)	  0  1
     29.0301	        	        	        	        	       0	(  1  0  1)	  0  1
     31.0356	        	        	        	        	       0	(  1  0  2)	  0  1
     34.1430	        	        	        	        	       0	(  1  0  3)	  0  1
     37.7841	        	        	        	        	       0	(  0  0  6)	  0  1
     38.1188	        	        	        	        	       0	(  1  0  4)	  0  1
     42.7676	        	        	        	        	       0	(  1  0  5)	  0  1
     47.9501	        	        	        	        	       0	(  1  0  6)	  0  1
     50.2689	        	        	        	        	       0	(  1  1  0)	  0  1
     51.2025	        	        	        	        	       0	(  0  0  8)	  0  1
     51.9913	        	        	        	        	       0	(  1  1  2)	  0  1
     53.5789	        	        	        	        	       0	(  1  0  7)	  0  1
     56.9375	        	        	        	        	       0	(  1  1  4)	  0  1
     58.7654	        	        	        	        	       0	(  2  0  0)	  0  1
     59.1569	        	        	        	        	       0	(  2  0  1)	  0  1
     59.6074	        	        	        	        	       0	(  1  0  8)	  0  1
     60.3218	        	        	        	        	       0	(  2  0  2)	  0  1
     62.2344	        	        	        	        	       0	(  2  0  3)	  0  1
     64.6295	        	        	        	        	       0	(  1  1  6)	  0  1
     64.8575	        	        	        	        	       0	(  2  0  4)	  0  1
     65.4274	        	        	        	        	       0	(  0  0 10)	  0  1
     66.0217	        	        	        	        	       0	(  1  0  9)	  0  1
     68.1506	        	        	        	        	       0	(  2  0  5)	  0  1
     72.0766	        	        	        	        	       0	(  2  0  6)	  0  1
     72.8355	        	        	        	        	       0	(  1  0 10)	  0  1
     74.6636	        	        	        	        	       0	(  1  1  8)	  0  1
     76.6090	        	        	        	        	       0	(  2  0  7)	  0  1
     80.0905	        	        	        	        	       0	(  1  0 11)	  0  1
     80.9024	        	        	        	        	       0	(  0  0 12)	  0  1
     81.0052	        	        	        	        	       0	(  2  1  0)	  0  1
     81.3449	        	        	        	        	       0	(  2  1  1)	  0  1
     81.7373	        	        	        	        	       0	(  2  0  8)	  0  1
     82.3624	        	        	        	        	       0	(  2  1  2)	  0  1
     84.0530	        	        	        	        	       0	(  2  1  3)	  0  1
     86.4117	        	        	        	        	       0	(  2  1  4)	  0  1
     86.9302	        	        	        	        	       0	(  1  1 10)	  0  1
     87.4730	        	        	        	        	       0	(  2  0  9)	  0  1
     87.8616	        	        	        	        	       0	(  1  0 12)	  0  1
     89.4363	        	        	        	        	       0	(  2  1  5)	  0  1
     93.1321	        	        	        	        	       0	(  2  1  6)	  0  1
     93.8577	        	        	        	        	       0	(  2  0 10)	  0  1
     94.8929	        	        	        	        	       0	(  3  0  0)	  0  1
     95.2301	        	        	        	        	       0	(  3  0  1)	  0  1
     96.2429	        	        	        	        	       0	(  3  0  2)	  0  1
     96.2709	        	        	        	        	       0	(  1  0 13)	  0  1
     97.5188	        	        	        	        	       0	(  2  1  7)	  0  1
     97.9355	        	        	        	        	       0	(  3  0  3)	  0  1
     98.4338	        	        	        	        	       0	(  0  0 14)	  0  1
    100.3175	        	        	        	        	       0	(  3  0  4)	  0  1
    100.9761	        	        	        	        	       0	(  2  0 11)	  0  1
    101.7936	        	        	        	        	       0	(  1  1 12)	  0  1
    102.6388	        	        	        	        	       0	(  2  1  8)	  0  1
    103.4077	        	        	        	        	       0	(  3  0  5)	  0  1
    105.5186	        	        	        	        	       0	(  1  0 14)	  0  1
    107.2409	        	        	        	        	       0	(  3  0  6)	  0  1
    108.5727	        	        	        	        	       0	(  2  1  9)	  0  1
    108.9830	        	        	        	        	       0	(  2  0 12)	  0  1
    111.8789	        	        	        	        	       0	(  3  0  7)	  0  1
    115.4657	        	        	        	        	       0	(  2  1 10)	  0  1
    115.9552	        	        	        	        	       0	(  1  0 15)	  0  1
    116.6156	        	        	        	        	       0	(  2  2  0)	  0  1
    117.4293	        	        	        	        	       0	(  3  0  8)	  0  1
    118.1300	        	        	        	        	       0	(  2  2  2)	  0  1
    118.1616	        	        	        	        	       0	(  2  0 13)	  0  1
    119.9081	        	        	        	        	       0	(  0  0 16)	  0  1
    120.6260	        	        	        	        	       0	(  1  1 14)	  0  1
    122.8130	        	        	        	        	       0	(  2  2  4)	  0  1
    123.5874	        	        	        	        	       0	(  2  1 11)	  0  1
    124.0852	        	        	        	        	       0	(  3  0  9)	  0  1
    124.6796	        	        	        	        	       0	(  3  1  0)	  0  1
    125.0896	        	        	        	        	       0	(  3  1  1)	  0  1
    126.3323	        	        	        	        	       0	(  3  1  2)	  0  1
    128.2882	        	        	        	        	       0	(  1  0 16)	  0  1
    128.4494	        	        	        	        	       0	(  3  1  3)	  0  1
    129.0829	        	        	        	        	       0	(  2  0 14)	  0  1
    131.2478	        	        	        	        	       0	(  2  2  6)	  0  1
    131.5235	        	        	        	        	       0	(  3  1  4)	  0  1
    132.2200	        	        	        	        	       0	(  3  0 10)	  0  1
    133.4919	        	        	        	        	       0	(  2  1 12)	  0  1
    135.7078	        	        	        	        	       0	(  3  1  5)	  0  1
    141.2991	        	        	        	        	       0	(  3  1  6)	  0  1
    142.6891	        	        	        	        	       0	(  3  0 11)	  0  1
    143.2072	        	        	        	        	       0	(  2  0 15)	  0  1
    144.4375	        	        	        	        	       0	(  1  0 17)	  0  1
    145.4706	        	        	        	        	       0	(  2  2  8)	  0  1
    146.6331	        	        	        	        	       0	(  2  1 13)	  0  1
    148.9654	        	        	        	        	       0	(  3  1  7)	  0  1
    149.5280	        	        	        	        	       0	(  1  1 16)	  0  1
    153.9102	        	        	        	        	       0	(  0  0 18)	  0  1
    158.5426	        	        	        	        	       0	(  3  0 12)	  0  1
    158.8237	        	        	        	        	       0	(  4  0  0)	  0  1
    159.7793	        	        	        	        	       0	(  4  0  1)	  0  1
    160.9415	        	        	        	        	       0	(  3  1  8)	  0  1
    162.9532	        	        	        	        	       0	(  4  0  2)	  0  1
    169.5497	        	        	        	        	       0	(  2  0 16)	  0  1
    170.2791	        	        	        	        	       0	(  4  0  3)	  0  1
    173.9251	        	        	        	        	       0	(  2  1 14)	  0  1
