MSG Master    CELL:    5.91970   5.91970  23.28062   90.0000   90.0000  120.0000   SPGR: P 63/m m c             TEMP:   1074.85
  1   1280     2.52000     0.00000    -0.12694     0.00000     0.00000    0
    99     0     2
       0.00000      10.00000
     125.00000     130.00000
 2Theta	Yobs	Ycal	Yobs-Ycal	Backg	Posr	(hkl)	K
      0.7700	    0.00	  543.27	-1721.75	  423.98
      0.8700	    0.00	  544.06	-1721.75	  424.77
      0.9700	   39.00	  544.83	-1721.75	  425.54
      1.0700	   34.00	  545.60	-1721.75	  426.31
      1.1700	   52.00	  546.35	-1721.75	  427.06
      1.2700	   41.00	  547.09	-1721.75	  427.80
      1.3700	   41.00	  547.82	-1721.75	  428.53
      1.4700	   97.00	  548.54	-1721.75	  429.25
      1.5700	  300.00	  549.25	-1721.75	  429.96
      1.6700	  447.00	  549.95	-1721.75	  430.66
      1.7700	  577.00	  550.64	-1721.75	  431.35
      1.8700	  680.00	  551.31	-1721.75	  432.02
      1.9700	  701.00	  551.98	-1721.75	  432.69
      2.0700	  807.00	  552.63	-1721.75	  433.34
      2.1700	  770.00	  553.28	-1721.75	  433.99
      2.2700	  785.00	  553.91	-1721.75	  434.62
      2.3700	  744.00	  554.53	-1721.75	  435.24
      2.4700	  709.00	  555.15	-1721.75	  435.86
      2.5700	  724.00	  555.75	-1721.75	  436.46
      2.6700	  684.00	  556.34	-1721.75	  437.05
      2.7700	  694.00	  556.92	-1721.75	  437.63
      2.8700	  653.00	  557.50	-1721.75	  438.21
      2.9700	  641.00	  558.06	-1721.75	  438.77
      3.0700	  614.00	  558.61	-1721.75	  439.32
      3.1700	  604.00	  559.15	-1721.75	  439.86
      3.2700	  641.00	  559.69	-1721.75	  440.40
      3.3700	  692.00	  560.21	-1721.75	  440.92
      3.4700	  793.00	  560.72	-1721.75	  441.43
      3.5700	  759.00	  561.23	-1721.75	  441.94
      3.6700	  873.00	  561.72	-1721.75	  442.43
      3.7700	  964.00	  562.21	-1721.75	  442.92
      3.8700	 1005.00	  562.68	-1721.75	  443.39
      3.9700	  947.00	  563.15	-1721.75	  443.86
      4.0700	 1064.00	  563.61	-1721.75	  444.32
      4.1700	 1134.00	  564.06	-1721.75	  444.77
      4.2700	 1096.00	  564.50	-1721.75	  445.21
      4.3700	 1087.00	  564.93	-1721.75	  445.64
      4.4700	 1096.00	  565.35	-1721.75	  446.06
      4.5700	 1038.00	  565.76	-1721.75	  446.47
      4.6700	 1078.00	  566.17	-1721.75	  446.88
      4.7700	 1031.00	  566.56	-1721.75	  447.27
      4.8700	  985.00	  566.95	-1721.75	  447.66
      4.9700	  967.00	  567.32	-1721.75	  448.03
      5.0700	  941.00	  567.69	-1721.75	  448.40
      5.1700	  894.00	  568.06	-1721.75	  448.77
      5.2700	  953.00	  568.41	-1721.75	  449.12
      5.3700	  912.00	  568.75	-1721.75	  449.46
      5.4700	  875.00	  569.09	-1721.75	  449.80
      5.5700	  900.00	  569.42	-1721.75	  450.13
      5.6700	  834.00	  569.74	-1721.75	  450.45
      5.7700	  854.00	  570.05	-1721.75	  450.76
      5.8700	  848.00	  570.35	-1721.75	  451.06
      5.9700	  762.00	  570.65	-1721.75	  451.36
      6.0700	  836.00	  570.93	-1721.75	  451.64
      6.1700	  717.00	  571.21	-1721.75	  451.92
      6.2700	  769.00	  571.49	-1721.75	  452.20
      6.3700	  756.00	  571.75	-1721.75	  452.46
      6.4700	  735.00	  572.01	-1721.75	  452.72
      6.5700	  739.00	  572.26	-1721.75	  452.97
      6.6700	  738.00	  572.50	-1721.75	  453.21
      6.7700	  711.00	  572.73	-1721.75	  453.44
      6.8700	  681.00	  572.96	-1721.75	  453.67
      6.9700	  665.00	  573.18	-1721.75	  453.89
      7.0700	  686.00	  573.39	-1721.75	  454.10
      7.1700	  691.00	  573.60	-1721.75	  454.31
      7.2700	  685.00	  573.79	-1721.75	  454.50
      7.3700	  680.00	  573.99	-1721.75	  454.70
      7.4700	  682.00	  574.17	-1721.75	  454.88
      7.5700	  648.00	  574.35	-1721.75	  455.06
      7.6700	  710.00	  574.52	-1721.75	  455.23
      7.7700	  663.00	  574.68	-1721.75	  455.39
      7.8700	  626.00	  574.84	-1721.75	  455.55
      7.9700	  660.00	  574.99	-1721.75	  455.70
      8.0700	  624.00	  575.13	-1721.75	  455.84
      8.1700	  627.00	  575.27	-1721.75	  455.98
      8.2700	  605.00	  575.40	-1721.75	  456.11
      8.3700	  590.00	  575.52	-1721.75	  456.23
      8.4700	  637.00	  575.64	-1721.75	  456.35
      8.5700	  605.00	  575.75	-1721.75	  456.46
      8.6700	  605.00	  575.85	-1721.75	  456.56
      8.7700	  636.00	  575.95	-1721.75	  456.66
      8.8700	  616.00	  576.04	-1721.75	  456.75
      8.9700	  576.00	  576.13	-1721.75	  456.84
      9.0700	  646.00	  576.21	-1721.75	  456.92
      9.1700	  627.00	  576.28	-1721.75	  456.99
      9.2700	  639.00	  576.35	-1721.75	  457.06
      9.3700	  635.00	  576.41	-1721.75	  457.12
      9.4700	  635.00	  576.47	-1721.75	  457.18
      9.5700	  589.00	  576.52	-1721.75	  457.23
      9.6700	  620.00	  576.56	-1721.75	  457.27
      9.7700	  569.00	  576.60	-1721.75	  457.31
      9.8700	  594.00	  576.63	-1721.75	  457.34
      9.9700	  569.00	  576.66	-1721.75	  457.37
     10.0700	  605.00	  577.65	-1694.40	  457.39
     10.1700	  586.00	  577.77	-1713.52	  457.41
     10.2700	  615.00	  577.92	-1684.67	  457.42
     10.3700	  601.00	  578.10	-1698.85	  457.42
     10.4700	  539.00	  578.35	-1761.10	  457.43
     10.5700	  562.00	  578.72	-1738.47	  457.42
     10.6700	  606.00	  579.31	-1695.06	  457.41
     10.7700	  631.00	  580.23	-1670.98	  457.39
     10.8700	  585.00	  581.52	-1718.27	  457.37
     10.9700	  610.00	  583.20	-1694.95	  457.35
     11.0700	  581.00	  585.23	-1725.98	  457.32
     11.1700	  626.00	  587.62	-1683.37	  457.28
     11.2700	  587.00	  590.41	-1725.16	  457.24
     11.3700	  577.00	  593.67	-1738.42	  457.20
     11.4700	  592.00	  597.55	-1727.30	  457.15
     11.5700	  603.00	  602.26	-1721.01	  457.09
     11.6700	  678.00	  608.16	-1651.91	  457.03
     11.7700	  599.00	  615.85	-1738.60	  456.97
     11.8700	  674.00	  626.07	-1673.82	  456.90
     11.9700	  674.00	  639.04	-1686.79	  456.82
     12.0700	  710.00	  652.75	-1664.50	  456.75
     12.1700	  697.00	  661.50	-1686.25	  456.66
     12.2700	  709.00	  657.06	-1669.81	  456.58
     12.3700	  650.00	  637.78	-1709.53	  456.48
     12.4700	  605.00	  614.86	-1731.61	  456.39
     12.5700	  571.00	  597.68	-1748.43	  456.29
     12.6700	  605.00	  587.73	-1704.48	  456.18
     12.7700	  616.00	  582.80	-1688.55	  456.08
     12.8700	  600.00	  580.40	-1702.15	  455.96
     12.9700	  545.00	  579.06	-1755.81	  455.85
     13.0700	  593.00	  578.17	-1706.92	  455.73
     13.1700	  618.00	  577.50	-1681.25	  455.60
     13.2700	  546.00	  576.96	-1752.71	  455.47
     13.3700	  514.00	  576.51	-1784.26	  455.34
     13.4700	  565.00	  576.13	-1732.88	  455.20
     13.5700	  532.00	  575.79	-1765.54	  455.06
     13.6700	  550.00	  575.49	-1747.24	  454.92
     13.7700	  576.00	  575.21	-1720.96	  454.77
     13.8700	  592.00	  574.94	-1704.69	  454.62
     13.9700	  576.00	  574.70	-1720.45	  454.47
     14.0700	  563.00	  574.46	-1733.21	  454.31
     14.1700	  530.00	  574.23	-1765.98	  454.15
     14.2700	  570.00	  574.00	-1725.75	  453.98
     14.3700	  610.00	  573.78	-1685.53	  453.81
     14.4700	  592.00	  573.57	-1703.32	  453.64
     14.5700	  578.00	  573.35	-1717.10	  453.46
     14.6700	  528.00	  573.14	-1766.89	  453.28
     14.7700	  588.00	  572.93	-1706.68	  453.10
     14.8700	  513.00	  572.71	-1781.46	  452.91
     14.9700	  561.00	  572.50	-1733.25	  452.73
     15.0700	  595.00	  572.28	-1699.03	  452.53
     15.1700	  558.00	  572.07	-1735.82	  452.34
     15.2700	  568.00	  571.85	-1725.60	  452.14
     15.3700	  550.00	  571.63	-1743.38	  451.94
     15.4700	  542.00	  571.41	-1751.16	  451.73
     15.5700	  536.00	  571.19	-1756.94	  451.53
     15.6700	  574.00	  571.00	-1718.75	  451.32
     15.7700	  490.00	  570.77	-1802.52	  451.10
     15.8700	  557.00	  570.55	-1735.30	  450.89
     15.9700	  584.00	  570.32	-1708.07	  450.67
     16.0700	  580.00	  570.09	-1711.84	  450.45
     16.1700	  543.00	  569.86	-1748.61	  450.22
     16.2700	  546.00	  569.63	-1745.38	  450.00
     16.3700	  548.00	  569.39	-1743.14	  449.77
     16.4700	  564.00	  569.15	-1726.90	  449.54
     16.5700	  570.00	  568.91	-1720.66	  449.30
     16.6700	  591.00	  568.67	-1699.42	  449.06
     16.7700	  580.00	  568.43	-1710.18	  448.82
     16.8700	  552.00	  568.18	-1737.93	  448.58
     16.9700	  564.00	  567.93	-1725.68	  448.34
     17.0700	  571.00	  567.68	-1718.43	  448.09
     17.1700	  546.00	  567.43	-1743.18	  447.84
     17.2700	  532.00	  567.17	-1756.92	  447.59
     17.3700	  532.00	  566.92	-1756.67	  447.34
     17.4700	  538.00	  566.66	-1750.41	  447.08
     17.5700	  530.00	  566.40	-1758.15	  446.82
     17.6700	  566.00	  566.14	-1721.89	  446.56
     17.7700	  572.00	  565.87	-1715.62	  446.30
     17.8700	  597.00	  565.61	-1690.36	  446.04
     17.9700	  527.00	  565.34	-1760.09	  445.77
     18.0700	  550.00	  565.07	-1736.82	  445.50
     18.1700	  514.00	  564.90	-1772.65	  445.23
     18.2700	  554.00	  564.63	-1732.38	  444.96
     18.3700	  575.00	  564.36	-1711.11	  444.69
     18.4700	  543.00	  564.09	-1742.84	  444.41
     18.5700	  552.00	  563.81	-1733.56	  444.13
     18.6700	  522.00	  563.54	-1763.29	  443.86
     18.7700	  564.00	  563.26	-1721.01	  443.57
     18.8700	  538.00	  563.06	-1746.81	  443.29
     18.9700	  558.00	  562.78	-1726.53	  443.01
     19.0700	  572.00	  562.50	-1712.25	  442.72
     19.1700	  556.00	  562.21	-1727.96	  442.43
     19.2700	  564.00	  561.93	-1719.68	  442.14
     19.3700	  596.00	  561.65	-1687.40	  441.85
     19.4700	  574.00	  561.36	-1709.11	  441.56
     19.5700	  598.00	  561.07	-1684.82	  441.27
     19.6700	  565.00	  560.79	-1717.54	  440.97
     19.7700	  546.00	  560.50	-1736.25	  440.68
     19.8700	  513.00	  560.21	-1768.96	  440.38
     19.9700	  544.00	  559.92	-1737.67	  440.08
     20.0700	  542.00	  559.63	-1739.38	  439.78
     20.1700	  539.00	  559.33	-1742.08	  439.48
     20.2700	  595.00	  559.04	-1685.79	  439.17
     20.3700	  583.00	  558.75	-1697.50	  438.87
     20.4700	  592.00	  558.46	-1688.21	  438.56
     20.5700	  557.00	  558.16	-1722.91	  438.26
     20.6700	  515.00	  557.87	-1764.62	  437.95
     20.7700	  550.00	  557.60	-1729.35	  437.64
     20.8700	  569.00	  557.31	-1710.06	  437.33
     20.9700	  569.00	  557.01	-1709.76	  437.02
     21.0700	  539.00	  556.72	-1739.47	  436.71
     21.1700	  560.00	  556.39	-1718.14	  436.39
     21.2700	  563.00	  556.10	-1714.85	  436.08
     21.3700	  573.00	  555.81	-1704.56	  435.76
     21.4700	  571.00	  555.51	-1706.26	  435.45
     21.5700	  550.00	  555.22	-1726.97	  435.13
     21.6700	  562.00	  554.93	-1714.68	  434.81
     21.7700	  554.00	  554.64	-1722.39	  434.50
     21.8700	  559.00	  554.36	-1717.11	  434.18
     21.9700	  578.00	  554.07	-1697.82	  433.86
     22.0700	  566.00	  553.79	-1709.54	  433.54
     22.1700	  572.00	  553.51	-1703.26	  433.22
     22.2700	  552.00	  553.23	-1722.98	  432.89
     22.3700	  533.00	  552.96	-1741.71	  432.57
     22.4700	  574.00	  552.69	-1700.44	  432.25
     22.5700	  598.00	  552.43	-1676.18	  431.93
     22.6700	  548.00	  552.17	-1725.92	  431.60
     22.7700	  554.00	  551.92	-1719.67	  431.28
     22.8700	  514.00	  551.68	-1759.43	  430.95
     22.9700	  554.00	  551.45	-1719.20	  430.63
     23.0700	  505.00	  551.24	-1767.99	  430.30
     23.1700	  561.00	  551.05	-1711.80	  429.97
     23.2700	  519.00	  550.88	-1753.63	  429.65
     23.3700	  542.00	  550.74	-1730.49	  429.32
     23.4700	  528.00	  550.77	-1744.52	  428.99
     23.5700	  581.00	  550.73	-1691.48	  428.67
     23.6700	  555.00	  550.78	-1717.53	  428.34
     23.7700	  564.00	  550.96	-1708.71	  428.01
     23.8700	  518.00	  551.39	-1755.14	  427.68
     23.9700	  591.00	  552.31	-1683.06	  427.35
     24.0700	  578.00	  554.14	-1697.89	  427.02
     24.1700	  564.00	  557.48	-1715.23	  426.69
     24.2700	  578.00	  563.12	-1706.87	  426.36
     24.3700	  551.00	  571.88	-1742.63	  426.04
     24.4700	  630.00	  584.44	-1676.19	  425.71
     24.5700	  627.00	  600.47	-1695.22	  425.38
     24.6700	  622.00	  616.94	-1716.69	  425.05
     24.7700	  622.00	  627.06	-1726.81	  424.72
     24.8700	  646.00	  622.62	-1698.37	  424.39
     24.9700	  612.00	  603.97	-1713.72	  424.06
     25.0700	  626.00	  582.39	-1678.14	  423.73
     25.1700	  610.00	  566.03	-1677.78	  423.40
     25.2700	  557.00	  556.29	-1721.04	  423.07
     25.3700	  554.00	  551.31	-1719.06	  422.74
     25.4700	  536.00	  548.85	-1734.60	  422.41
     25.5700	  571.00	  547.49	-1698.24	  422.08
     25.6700	  545.00	  546.61	-1723.36	  421.76
     25.7700	  568.00	  545.96	-1699.71	  421.43
     25.8700	  537.00	  545.47	-1730.22	  421.10
     25.9700	  556.00	  545.09	-1710.84	  420.77
     26.0700	  569.00	  544.81	-1697.56	  420.44
     26.1700	  591.00	  544.61	-1675.36	  420.12
     26.2700	  546.00	  544.49	-1720.24	  419.79
     26.3700	  538.00	  544.44	-1728.19	  419.46
     26.4700	  522.00	  544.48	-1744.23	  419.14
     26.5700	  567.00	  544.62	-1699.37	  418.81
     26.6700	  501.00	  544.87	-1765.62	  418.49
     26.7700	  563.00	  545.26	-1704.01	  418.16
     26.8700	  533.00	  545.81	-1734.56	  417.84
     26.9700	  587.00	  546.59	-1681.34	  417.51
     27.0700	  568.00	  547.65	-1701.41	  417.19
     27.1700	  582.00	  549.15	-1688.90	  416.87
     27.2700	  536.00	  551.32	-1737.07	  416.54
     27.3700	  614.00	  554.68	-1662.43	  416.22
     27.4700	  588.00	  560.22	-1693.97	  415.90
     27.5700	  540.00	  569.76	-1751.51	  415.58
     27.6700	  597.00	  586.18	-1710.93	  415.26
     27.7700	  563.00	  613.23	-1771.98	  414.94
     27.8700	  636.00	  654.20	-1739.95	  414.62
     27.9700	  667.00	  709.29	-1764.04	  414.30
     28.0700	  822.00	  772.02	-1671.77	  413.98
     28.1700	  915.00	  826.10	-1632.85	  413.66
     28.2700	  943.00	  847.25	-1626.00	  413.35
     28.3700	  879.00	  821.96	-1664.71	  413.03
     28.4700	  794.00	  773.93	-1701.68	  412.72
     28.5700	  702.00	  739.91	-1759.66	  412.40
     28.6700	  705.00	  735.88	-1752.63	  412.09
     28.7700	  722.00	  756.54	-1756.29	  411.78
     28.8700	  781.00	  781.83	-1722.58	  411.47
     28.9700	  854.00	  784.57	-1652.32	  411.15
     29.0700	  743.00	  748.56	-1727.31	  410.84
     29.1700	  681.00	  689.44	-1730.19	  410.53
     29.2700	  645.00	  633.86	-1710.61	  410.23
     29.3700	  559.00	  594.06	-1756.81	  409.92
     29.4700	  568.00	  570.12	-1723.87	  409.61
     29.5700	  582.00	  557.18	-1696.93	  409.31
     29.6700	  590.00	  550.32	-1682.07	  409.00
     29.7700	  568.00	  546.40	-1700.15	  408.70
     29.8700	  580.00	  543.92	-1685.67	  408.39
     29.9700	  573.00	  542.33	-1691.08	  408.09
     30.0700	  532.00	  541.48	-1731.23	  407.79
     30.1700	  518.00	  541.51	-1745.26	  407.49
     30.2700	  545.00	  542.90	-1719.65	  407.19
     30.3700	  582.00	  546.52	-1686.27	  406.89
     30.4700	  565.00	  553.72	-1710.47	  406.60
     30.5700	  549.00	  565.81	-1738.56	  406.30
     30.6700	  530.00	  583.04	-1774.79	  406.01
     30.7700	  592.00	  603.03	-1732.78	  405.71
     30.8700	  609.00	  619.97	-1732.72	  405.42
     30.9700	  608.00	  625.23	-1738.98	  405.13
     31.0700	  629.00	  613.38	-1706.13	  404.84
     31.1700	  578.00	  590.67	-1734.42	  404.55
     31.2700	  562.00	  568.20	-1727.95	  404.26
     31.3700	  582.00	  551.62	-1691.37	  403.98
     31.4700	  570.00	  541.45	-1693.20	  403.69
     31.5700	  561.00	  535.93	-1696.68	  403.41
     31.6700	  549.00	  533.04	-1705.79	  403.12
     31.7700	  523.00	  531.42	-1730.17	  402.84
     31.8700	  575.00	  530.40	-1677.15	  402.56
     31.9700	  544.00	  529.70	-1707.45	  402.28
     32.0700	  543.00	  529.21	-1707.96	  402.00
     32.1700	  557.00	  528.89	-1693.64	  401.72
     32.2700	  548.00	  528.73	-1702.48	  401.45
     32.3700	  569.00	  528.71	-1681.46	  401.17
     32.4700	  533.00	  528.86	-1717.60	  400.90
     32.5700	  549.00	  529.17	-1701.92	  400.63
     32.6700	  566.00	  529.69	-1685.44	  400.36
     32.7700	  524.00	  530.47	-1728.22	  400.09
     32.8700	  578.00	  531.58	-1675.33	  399.82
     32.9700	  565.00	  533.15	-1689.90	  399.56
     33.0700	  533.00	  535.42	-1724.17	  399.29
     33.1700	  532.00	  538.91	-1728.66	  399.03
     33.2700	  537.00	  544.75	-1729.50	  398.77
     33.3700	  553.00	  555.33	-1724.08	  398.50
     33.4700	  586.00	  575.05	-1710.80	  398.24
     33.5700	  607.00	  610.53	-1725.28	  397.99
     33.6700	  630.00	  668.85	-1760.60	  397.73
     33.7700	  748.00	  752.16	-1725.91	  397.47
     33.8700	  892.00	  850.27	-1680.02	  397.22
     33.9700	  982.00	  936.24	-1675.99	  396.97
     34.0700	 1033.00	  970.45	-1659.20	  396.72
     34.1700	  987.00	  926.18	-1660.93	  396.47
     34.2700	  900.00	  826.70	-1648.45	  396.22
     34.3700	  744.00	  721.60	-1699.35	  395.97
     34.4700	  624.00	  640.10	-1737.85	  395.73
     34.5700	  581.00	  588.11	-1728.86	  395.49
     34.6700	  537.00	  559.26	-1744.01	  395.24
     34.7700	  521.00	  544.35	-1745.10	  395.00
     34.8700	  533.00	  536.38	-1725.13	  394.77
     34.9700	  553.00	  531.58	-1700.33	  394.53
     35.0700	  520.00	  528.26	-1730.01	  394.29
     35.1700	  508.00	  525.75	-1739.50	  394.06
     35.2700	  557.00	  523.77	-1688.52	  393.83
     35.3700	  551.00	  522.16	-1692.91	  393.60
     35.4700	  556.00	  520.83	-1686.58	  393.37
     35.5700	  516.00	  519.70	-1725.45	  393.14
     35.6700	  532.00	  518.73	-1708.48	  392.91
     35.7700	  476.00	  517.89	-1763.64	  392.69
     35.8700	  512.00	  517.15	-1726.90	  392.46
     35.9700	  543.00	  516.50	-1695.25	  392.24
     36.0700	  529.00	  515.91	-1708.66	  392.02
     36.1700	  529.00	  515.84	-1708.59	  391.81
     36.2700	  520.00	  515.37	-1717.12	  391.59
     36.3700	  542.00	  514.94	-1694.69	  391.37
     36.4700	  479.00	  514.56	-1757.31	  391.16
     36.5700	  542.00	  514.22	-1693.97	  390.95
     36.6700	  502.00	  513.93	-1733.68	  390.74
     36.7700	  522.00	  513.69	-1713.44	  390.53
     36.8700	  521.00	  513.53	-1714.28	  390.32
     36.9700	  484.00	  513.51	-1751.26	  390.12
     37.0700	  477.00	  513.77	-1758.52	  389.92
     37.1700	  549.00	  514.54	-1687.29	  389.72
     37.2700	  504.00	  516.09	-1733.84	  389.52
     37.3700	  495.00	  518.65	-1745.40	  389.32
     37.4700	  504.00	  522.08	-1739.83	  389.12
     37.5700	  535.00	  525.67	-1712.42	  388.93
     37.6700	  502.00	  528.15	-1747.90	  388.73
     37.7700	  535.00	  528.24	-1714.99	  388.54
     37.8700	  503.00	  525.90	-1744.65	  388.35
     37.9700	  521.00	  522.44	-1723.19	  388.17
     38.0700	  510.00	  518.96	-1730.71	  387.98
     38.1700	  544.00	  515.91	-1693.66	  387.79
     38.2700	  527.00	  513.49	-1708.24	  387.61
     38.3700	  479.00	  511.73	-1754.48	  387.43
     38.4700	  503.00	  510.54	-1729.29	  387.25
     38.5700	  506.00	  509.65	-1725.40	  387.07
     38.6700	  496.00	  509.11	-1734.86	  386.90
     38.7700	  522.00	  508.73	-1708.48	  386.73
     38.8700	  505.00	  508.43	-1725.18	  386.55
     38.9700	  524.00	  508.17	-1705.92	  386.38
     39.0700	  516.00	  507.95	-1713.70	  386.21
     39.1700	  563.00	  507.88	-1666.63	  386.05
     39.2700	  525.00	  507.62	-1704.37	  385.88
     39.3700	  532.00	  507.44	-1697.19	  385.72
     39.4700	  512.00	  507.28	-1717.03	  385.56
     39.5700	  568.00	  507.13	-1660.88	  385.40
     39.6700	  501.00	  506.98	-1727.73	  385.24
     39.7700	  490.00	  506.85	-1738.60	  385.08
     39.8700	  485.00	  506.73	-1743.48	  384.93
     39.9700	  485.00	  506.61	-1743.36	  384.78
     40.0700	  490.00	  506.51	-1738.26	  384.63
     40.1700	  523.00	  506.41	-1705.16	  384.48
     40.2700	  531.00	  506.33	-1697.08	  384.33
     40.3700	  510.00	  506.26	-1718.01	  384.19
     40.4700	  510.00	  506.21	-1717.96	  384.04
     40.5700	  488.00	  506.17	-1739.92	  383.90
     40.6700	  497.00	  506.14	-1730.89	  383.76
     40.7700	  533.00	  506.14	-1694.89	  383.62
     40.8700	  494.00	  506.16	-1733.91	  383.49
     40.9700	  497.00	  506.21	-1730.96	  383.35
     41.0700	  493.00	  506.30	-1735.05	  383.22
     41.1700	  509.00	  506.42	-1719.17	  383.09
     41.2700	  492.00	  506.60	-1736.35	  382.96
     41.3700	  497.00	  507.26	-1732.01	  382.83
     41.4700	  497.00	  507.61	-1732.36	  382.71
     41.5700	  515.00	  508.08	-1714.83	  382.58
     41.6700	  491.00	  508.75	-1739.50	  382.46
     41.7700	  503.00	  509.76	-1728.51	  382.34
     41.8700	  482.00	  511.47	-1751.22	  382.22
     41.9700	  521.00	  514.57	-1715.32	  382.11
     42.0700	  492.00	  520.37	-1750.12	  381.99
     42.1700	  509.00	  530.72	-1743.47	  381.88
     42.2700	  498.00	  547.60	-1771.35	  381.77
     42.3700	  541.00	  571.77	-1752.52	  381.66
     42.4700	  606.00	  601.01	-1716.76	  381.55
     42.5700	  611.00	  628.63	-1739.38	  381.44
     42.6700	  570.00	  644.48	-1796.23	  381.34
     42.7700	  587.00	  640.12	-1774.87	  381.24
     42.8700	  627.00	  617.38	-1712.13	  381.14
     42.9700	  521.00	  587.02	-1787.77	  381.04
     43.0700	  526.00	  558.93	-1754.68	  380.94
     43.1700	  514.00	  537.78	-1745.53	  380.85
     43.2700	  506.00	  524.10	-1739.85	  380.76
     43.3700	  515.00	  516.23	-1722.98	  380.66
     43.4700	  489.00	  512.01	-1744.76	  380.58
     43.5700	  521.00	  509.78	-1710.53	  380.49
     43.6700	  522.00	  508.45	-1708.20	  380.40
     43.7700	  484.00	  507.77	-1745.52	  380.32
     43.8700	  481.00	  507.15	-1747.90	  380.24
     43.9700	  519.00	  506.67	-1709.42	  380.16
     44.0700	  536.00	  506.31	-1692.06	  380.08
     44.1700	  455.00	  506.02	-1772.77	  380.00
     44.2700	  517.00	  505.80	-1710.55	  379.92
     44.3700	  504.00	  505.64	-1723.39	  379.85
     44.4700	  473.00	  505.51	-1754.26	  379.78
     44.5700	  511.00	  505.42	-1716.17	  379.71
     44.6700	  498.00	  505.37	-1729.12	  379.64
     44.7700	  510.00	  505.34	-1717.09	  379.58
     44.8700	  569.00	  505.21	-1657.96	  379.51
     44.9700	  488.00	  505.24	-1738.99	  379.45
     45.0700	  515.00	  505.29	-1712.04	  379.39
     45.1700	  543.00	  505.54	-1684.29	  379.33
     45.2700	  541.00	  505.64	-1686.39	  379.27
     45.3700	  516.00	  505.76	-1711.51	  379.22
     45.4700	  514.00	  505.90	-1713.65	  379.16
     45.5700	  518.00	  506.07	-1709.82	  379.11
     45.6700	  531.00	  506.26	-1697.01	  379.06
     45.7700	  492.00	  506.48	-1736.23	  379.01
     45.8700	  547.00	  506.73	-1681.48	  378.96
     45.9700	  502.00	  507.02	-1726.77	  378.92
     46.0700	  527.00	  507.34	-1702.09	  378.88
     46.1700	  520.00	  507.70	-1709.45	  378.83
     46.2700	  524.00	  508.11	-1705.86	  378.79
     46.3700	  536.00	  508.58	-1694.33	  378.76
     46.4700	  504.00	  509.11	-1726.86	  378.72
     46.5700	  512.00	  509.72	-1719.47	  378.68
     46.6700	  518.00	  510.44	-1714.19	  378.65
     46.7700	  543.00	  511.29	-1690.04	  378.62
     46.8700	  539.00	  512.36	-1695.11	  378.59
     46.9700	  505.00	  513.88	-1730.63	  378.56
     47.0700	  520.00	  516.08	-1717.83	  378.54
     47.1700	  503.00	  519.61	-1738.36	  378.51
     47.2700	  510.00	  525.48	-1737.23	  378.49
     47.3700	  518.00	  534.85	-1738.60	  378.47
     47.4700	  515.00	  548.66	-1755.41	  378.45
     47.5700	  572.00	  566.77	-1716.52	  378.43
     47.6700	  551.00	  587.09	-1757.84	  378.41
     47.7700	  593.00	  605.16	-1733.91	  378.40
     47.8700	  582.00	  614.99	-1754.74	  378.38
     47.9700	  619.00	  612.38	-1715.13	  378.37
     48.0700	  580.00	  599.28	-1741.03	  378.36
     48.1700	  563.00	  581.88	-1740.63	  378.36
     48.2700	  556.00	  565.71	-1731.46	  378.35
     48.3700	  531.00	  553.74	-1744.49	  378.34
     48.4700	  508.00	  546.74	-1760.49	  378.34
     48.5700	  570.00	  544.12	-1695.87	  378.34
     48.6700	  547.00	  544.82	-1719.57	  378.34
     48.7700	  541.00	  547.92	-1728.67	  378.34
     48.8700	  521.00	  552.94	-1753.69	  378.34
     48.9700	  544.00	  559.90	-1737.65	  378.35
     49.0700	  545.00	  569.43	-1746.18	  378.36
     49.1700	  572.00	  583.12	-1732.87	  378.36
     49.2700	  595.00	  604.40	-1731.15	  378.37
     49.3700	  585.00	  640.23	-1776.98	  378.38
     49.4700	  673.00	  701.25	-1750.00	  378.40
     49.5700	  783.00	  804.10	-1742.85	  378.41
     49.6700	  956.00	  967.39	-1733.14	  378.43
     49.7700	 1091.00	 1204.90	-1835.65	  378.44
     49.8700	 1486.00	 1514.23	-1749.98	  378.46
     49.9700	 1866.00	 1864.76	-1720.51	  378.48
     50.0700	 2252.00	 2188.86	-1658.61	  378.51
     50.1700	 2474.00	 2388.22	-1635.97	  378.53
     50.2700	 2288.00	 2379.19	-1812.94	  378.55
     50.3700	 2317.00	 2163.98	-1568.73	  378.58
     50.4700	 1761.00	 1832.39	-1793.14	  378.61
     50.5700	 1359.00	 1485.27	-1848.02	  378.64
     50.6700	 1050.00	 1187.55	-1859.30	  378.67
     50.7700	  837.00	  966.02	-1850.77	  378.70
     50.8700	  715.00	  819.88	-1826.62	  378.73
     50.9700	  648.00	  732.46	-1806.21	  378.77
     51.0700	  632.00	  682.42	-1772.17	  378.81
     51.1700	  611.00	  651.32	-1762.07	  378.84
     51.2700	  596.00	  627.79	-1753.54	  378.88
     51.3700	  538.00	  607.52	-1791.27	  378.92
     51.4700	  591.00	  590.04	-1720.79	  378.97
     51.5700	  548.00	  575.79	-1749.54	  379.01
     51.6700	  542.00	  564.97	-1744.72	  379.06
     51.7700	  564.00	  557.30	-1715.05	  379.10
     51.8700	  562.00	  552.18	-1711.93	  379.15
     51.9700	  532.00	  549.19	-1738.94	  379.20
     52.0700	  579.00	  547.33	-1690.08	  379.25
     52.1700	  568.00	  546.56	-1700.31	  379.30
     52.2700	  536.00	  546.79	-1732.54	  379.36
     52.3700	  546.00	  548.23	-1723.98	  379.41
     52.4700	  583.00	  551.42	-1690.17	  379.47
     52.5700	  575.00	  557.67	-1704.42	  379.53
     52.6700	  606.00	  569.46	-1685.21	  379.59
     52.7700	  643.00	  590.99	-1669.74	  379.65
     52.8700	  670.00	  628.21	-1679.96	  379.71
     52.9700	  669.00	  687.67	-1740.42	  379.77
     53.0700	  779.00	  773.91	-1716.66	  379.83
     53.1700	  953.00	  885.50	-1654.25	  379.90
     53.2700	 1108.00	 1011.13	-1624.88	  379.97
     53.3700	 1214.00	 1127.33	-1635.08	  380.03
     53.4700	 1154.00	 1200.97	-1768.72	  380.10
     53.5700	 1133.00	 1203.45	-1792.20	  380.17
     53.6700	 1080.00	 1133.22	-1774.97	  380.25
     53.7700	  970.00	 1018.01	-1769.76	  380.32
     53.8700	  916.00	  892.01	-1697.76	  380.39
     53.9700	  755.00	  779.54	-1746.29	  380.47
     54.0700	  663.00	  692.37	-1751.12	  380.55
     54.1700	  599.00	  632.27	-1755.02	  380.62
     54.2700	  617.00	  594.80	-1699.55	  380.70
     54.3700	  598.00	  573.32	-1697.07	  380.78
     54.4700	  603.00	  561.77	-1680.52	  380.86
     54.5700	  596.00	  555.82	-1681.57	  380.95
     54.6700	  567.00	  552.93	-1707.68	  381.03
     54.7700	  554.00	  551.76	-1719.51	  381.12
     54.8700	  543.00	  551.67	-1730.42	  381.20
     54.9700	  590.00	  552.51	-1684.26	  381.29
     55.0700	  564.00	  554.12	-1711.87	  381.38
     55.1700	  605.00	  556.52	-1673.27	  381.47
     55.2700	  636.00	  559.77	-1645.52	  381.56
     55.3700	  562.00	  564.01	-1723.76	  381.65
     55.4700	  601.00	  569.49	-1690.24	  381.74
     55.5700	  592.00	  576.63	-1706.38	  381.83
     55.6700	  601.00	  586.33	-1707.08	  381.93
     55.7700	  557.00	  600.40	-1765.15	  382.03
     55.8700	  630.00	  622.43	-1714.18	  382.12
     55.9700	  621.00	  658.90	-1759.65	  382.22
     56.0700	  698.00	  720.38	-1744.13	  382.32
     56.1700	  784.00	  821.64	-1759.39	  382.42
     56.2700	  923.00	  979.65	-1778.40	  382.52
     56.3700	 1200.00	 1208.10	-1729.85	  382.62
     56.4700	 1432.00	 1509.41	-1799.16	  382.73
     56.5700	 1809.00	 1865.43	-1778.18	  382.83
     56.6700	 2234.00	 2230.66	-1718.41	  382.93
     56.7700	 2366.00	 2530.55	-1886.30	  383.04
     56.8700	 2650.00	 2676.95	-1748.70	  383.15
     56.9700	 2611.00	 2615.03	-1725.78	  383.26
     57.0700	 2398.00	 2368.68	-1692.43	  383.36
     57.1700	 2039.00	 2020.60	-1703.35	  383.47
     57.2700	 1616.00	 1655.47	-1761.22	  383.58
     57.3700	 1349.00	 1331.17	-1703.92	  383.70
     57.4700	  993.00	 1076.10	-1804.85	  383.81
     57.5700	  911.00	  895.35	-1706.10	  383.92
     57.6700	  738.00	  778.96	-1762.71	  384.04
     57.7700	  741.00	  711.16	-1691.91	  384.15
     57.8700	  678.00	  677.17	-1720.92	  384.27
     57.9700	  661.00	  666.55	-1727.30	  384.38
     58.0700	  689.00	  673.83	-1706.58	  384.50
     58.1700	  725.00	  697.19	-1693.94	  384.62
     58.2700	  734.00	  736.67	-1724.42	  384.74
     58.3700	  846.00	  792.40	-1668.15	  384.86
     58.4700	  876.00	  862.87	-1708.62	  384.98
     58.5700	  970.00	  943.54	-1695.29	  385.10
     58.6700	 1109.00	 1026.34	-1639.09	  385.22
     58.7700	 1266.00	 1102.14	-1557.89	  385.35
     58.8700	 1338.00	 1164.84	-1548.59	  385.47
     58.9700	 1445.00	 1211.00	-1487.75	  385.59
     59.0700	 1455.00	 1235.83	-1502.58	  385.72
     59.1700	 1484.00	 1235.25	-1473.00	  385.84
     59.2700	 1367.00	 1213.23	-1567.98	  385.97
     59.3700	 1300.00	 1181.60	-1603.35	  386.10
     59.4700	 1262.00	 1152.30	-1612.05	  386.23
     59.5700	 1155.00	 1133.79	-1700.54	  386.36
     59.6700	 1183.00	 1134.06	-1672.81	  386.48
     59.7700	 1180.00	 1161.93	-1703.68	  386.61
     59.8700	 1261.00	 1222.10	-1682.85	  386.75
     59.9700	 1301.00	 1309.32	-1730.07	  386.88
     60.0700	 1511.00	 1405.94	-1616.69	  387.01
     60.1700	 1620.00	 1483.06	-1584.81	  387.14
     60.2700	 1545.00	 1508.07	-1684.82	  387.27
     60.3700	 1618.00	 1462.14	-1565.89	  387.41
     60.4700	 1409.00	 1353.81	-1666.56	  387.54
     60.5700	 1241.00	 1210.81	-1691.56	  387.68
     60.6700	 1078.00	 1061.87	-1705.62	  387.81
     60.7700	  962.00	  927.67	-1687.42	  387.95
     60.8700	  784.00	  819.61	-1757.36	  388.08
     60.9700	  709.00	  741.41	-1754.16	  388.22
     61.0700	  662.00	  691.72	-1751.47	  388.36
     61.1700	  635.00	  667.15	-1753.91	  388.50
     61.2700	  667.00	  665.09	-1719.84	  388.63
     61.3700	  673.00	  685.09	-1733.84	  388.77
     61.4700	  725.00	  729.09	-1725.84	  388.91
     61.5700	  769.00	  800.00	-1752.75	  389.05
     61.6700	  887.00	  899.37	-1734.12	  389.19
     61.7700	  928.00	 1024.48	-1818.23	  389.33
     61.8700	 1115.00	 1165.71	-1772.46	  389.48
     61.9700	 1251.00	 1305.08	-1775.83	  389.62
     62.0700	 1320.00	 1416.29	-1818.04	  389.76
     62.1700	 1299.00	 1470.26	-1893.01	  389.90
     62.2700	 1379.00	 1449.17	-1791.92	  390.04
     62.3700	 1274.00	 1359.56	-1807.31	  390.19
     62.4700	 1149.00	 1227.21	-1799.96	  390.33
     62.5700	 1098.00	 1081.07	-1704.82	  390.47
     62.6700	  901.00	  943.23	-1763.98	  390.62
     62.7700	  741.00	  826.89	-1807.64	  390.76
     62.8700	  684.00	  737.28	-1775.03	  390.91
     62.9700	  652.00	  673.59	-1743.34	  391.05
     63.0700	  616.00	  631.44	-1737.19	  391.20
     63.1700	  577.00	  605.28	-1750.03	  391.34
     63.2700	  612.00	  590.05	-1699.80	  391.49
     63.3700	  580.00	  582.03	-1723.78	  391.63
     63.4700	  601.00	  579.11	-1699.86	  391.78
     63.5700	  585.00	  580.58	-1717.33	  391.93
     63.6700	  571.00	  586.97	-1737.72	  392.07
     63.7700	  612.00	  599.71	-1709.46	  392.22
     63.8700	  615.00	  620.83	-1727.58	  392.37
     63.9700	  680.00	  652.35	-1694.10	  392.52
     64.0700	  719.00	  695.50	-1698.25	  392.66
     64.1700	  792.00	  749.78	-1679.53	  392.81
     64.2700	  838.00	  812.15	-1695.90	  392.96
     64.3700	  904.00	  876.32	-1694.07	  393.11
     64.4700	  986.00	  932.44	-1668.19	  393.26
     64.5700	 1039.00	  970.62	-1653.37	  393.40
     64.6700	 1010.00	  982.43	-1694.18	  393.55
     64.7700	 1067.00	  966.71	-1621.46	  393.70
     64.8700	  973.00	  928.56	-1677.31	  393.85
     64.9700	  856.00	  876.82	-1742.57	  394.00
     65.0700	  866.00	  820.76	-1676.51	  394.15
     65.1700	  792.00	  767.75	-1697.50	  394.29
     65.2700	  735.00	  721.79	-1708.54	  394.44
     65.3700	  688.00	  683.90	-1717.65	  394.59
     65.4700	  644.00	  653.41	-1731.16	  394.74
     65.5700	  597.00	  629.24	-1753.99	  394.89
     65.6700	  582.00	  610.45	-1750.20	  395.04
     65.7700	  609.00	  596.24	-1708.99	  395.19
     65.8700	  574.00	  585.88	-1733.63	  395.34
     65.9700	  534.00	  578.75	-1766.50	  395.49
     66.0700	  549.00	  574.33	-1747.08	  395.63
     66.1700	  539.00	  572.17	-1754.92	  395.78
     66.2700	  593.00	  571.88	-1700.63	  395.93
     66.3700	  602.00	  573.28	-1693.03	  396.08
     66.4700	  589.00	  576.00	-1708.75	  396.23
     66.5700	  564.00	  580.27	-1738.02	  396.38
     66.6700	  575.00	  586.52	-1733.27	  396.52
     66.7700	  602.00	  595.78	-1715.53	  396.67
     66.8700	  574.00	  609.94	-1757.69	  396.82
     66.9700	  607.00	  632.23	-1746.98	  396.97
     67.0700	  658.00	  667.64	-1731.39	  397.12
     67.1700	  683.00	  723.12	-1761.87	  397.26
     67.2700	  741.00	  807.22	-1787.97	  397.41
     67.3700	  873.00	  928.78	-1777.53	  397.56
     67.4700	 1073.00	 1094.73	-1743.48	  397.70
     67.5700	 1396.00	 1306.46	-1632.21	  397.85
     67.6700	 1535.00	 1557.27	-1744.02	  398.00
     67.7700	 1799.00	 1829.40	-1752.15	  398.14
     67.8700	 2111.00	 2092.75	-1703.50	  398.29
     67.9700	 2378.00	 2306.19	-1649.94	  398.43
     68.0700	 2347.00	 2424.78	-1799.53	  398.58
     68.1700	 2433.00	 2417.82	-1706.57	  398.72
     68.2700	 2273.00	 2287.19	-1735.94	  398.87
     68.3700	 2056.00	 2066.31	-1732.06	  399.01
     68.4700	 1887.00	 1800.45	-1635.20	  399.16
     68.5700	 1633.00	 1529.88	-1618.63	  399.30
     68.6700	 1300.00	 1283.12	-1704.87	  399.45
     68.7700	 1083.00	 1076.70	-1715.45	  399.59
     68.8700	  868.00	  916.42	-1770.17	  399.73
     68.9700	  789.00	  799.89	-1732.64	  399.87
     69.0700	  736.00	  719.92	-1705.67	  400.02
     69.1700	  631.00	  667.57	-1758.32	  400.16
     69.2700	  622.00	  634.42	-1734.17	  400.30
     69.3700	  620.00	  613.73	-1715.48	  400.44
     69.4700	  621.00	  600.73	-1701.48	  400.58
     69.5700	  623.00	  592.33	-1691.08	  400.72
     69.6700	  565.00	  586.69	-1743.44	  400.86
     69.7700	  579.00	  582.80	-1725.55	  401.00
     69.8700	  545.00	  580.12	-1756.87	  401.14
     69.9700	  602.00	  578.36	-1698.11	  401.27
     70.0700	  600.00	  577.42	-1699.17	  401.41
     70.1700	  579.00	  577.20	-1719.95	  401.55
     70.2700	  547.00	  577.77	-1752.52	  401.69
     70.3700	  543.00	  579.25	-1758.00	  401.82
     70.4700	  600.00	  581.90	-1703.65	  401.96
     70.5700	  590.00	  586.27	-1718.02	  402.09
     70.6700	  562.00	  593.32	-1753.07	  402.23
     70.7700	  595.00	  604.65	-1731.40	  402.36
     70.8700	  597.00	  622.82	-1747.57	  402.49
     70.9700	  609.00	  651.41	-1764.16	  402.63
     71.0700	  672.00	  695.14	-1744.89	  402.76
     71.1700	  777.00	  759.45	-1704.20	  402.89
     71.2700	  841.00	  849.56	-1730.31	  403.02
     71.3700	  934.00	  969.11	-1756.86	  403.15
     71.4700	 1098.00	 1118.34	-1742.09	  403.28
     71.5700	 1323.00	 1292.29	-1691.04	  403.41
     71.6700	 1439.00	 1479.68	-1762.43	  403.54
     71.7700	 1588.00	 1663.14	-1796.89	  403.67
     71.8700	 1797.00	 1816.70	-1741.45	  403.79
     71.9700	 1886.00	 1913.87	-1749.62	  403.92
     72.0700	 1912.00	 1933.26	-1743.01	  404.05
     72.1700	 1857.00	 1870.23	-1734.98	  404.17
     72.2700	 1672.00	 1739.69	-1789.44	  404.29
     72.3700	 1573.00	 1567.59	-1716.34	  404.42
     72.4700	 1483.00	 1380.29	-1619.04	  404.54
     72.5700	 1221.00	 1198.52	-1699.27	  404.66
     72.6700	 1074.00	 1037.38	-1685.13	  404.78
     72.7700	  965.00	  903.96	-1660.71	  404.90
     72.8700	  908.00	  800.06	-1613.81	  405.02
     72.9700	  818.00	  723.44	-1627.19	  405.14
     73.0700	  734.00	  669.49	-1657.24	  405.26
     73.1700	  699.00	  632.88	-1655.63	  405.38
     73.2700	  682.00	  608.62	-1648.37	  405.50
     73.3700	  651.00	  592.67	-1663.42	  405.61
     73.4700	  671.00	  582.10	-1632.85	  405.73
     73.5700	  620.00	  574.97	-1676.72	  405.84
     73.6700	  616.00	  570.05	-1675.80	  405.95
     73.7700	  609.00	  566.63	-1679.38	  406.07
     73.8700	  623.00	  564.31	-1663.06	  406.18
     73.9700	  590.00	  562.84	-1694.59	  406.29
     74.0700	  564.00	  562.04	-1719.79	  406.40
     74.1700	  596.00	  561.77	-1687.52	  406.51
     74.2700	  631.00	  561.83	-1652.58	  406.61
     74.3700	  684.00	  562.05	-1599.80	  406.72
     74.4700	  641.00	  562.18	-1642.93	  406.83
     74.5700	  627.00	  562.00	-1656.75	  406.93
     74.6700	  642.00	  561.36	-1641.11	  407.04
     74.7700	  661.00	  560.24	-1620.99	  407.14
     74.8700	  600.00	  558.78	-1680.53	  407.24
     74.9700	  603.00	  557.23	-1675.98	  407.34
     75.0700	  615.00	  555.81	-1662.56	  407.44
     75.1700	  626.00	  554.92	-1650.67	  407.54
     75.2700	  551.00	  554.83	-1725.58	  407.64
     75.3700	  572.00	  555.91	-1705.66	  407.74
     75.4700	  557.00	  558.58	-1723.33	  407.83
     75.5700	  532.00	  563.24	-1752.99	  407.93
     75.6700	  529.00	  570.52	-1763.27	  408.02
     75.7700	  575.00	  580.83	-1727.58	  408.12
     75.8700	  589.00	  594.36	-1727.11	  408.21
     75.9700	  620.00	  611.00	-1712.75	  408.30
     76.0700	  629.00	  630.18	-1722.93	  408.39
     76.1700	  635.00	  650.75	-1737.50	  408.48
     76.2700	  665.00	  670.94	-1727.69	  408.56
     76.3700	  732.00	  688.48	-1678.23	  408.65
     76.4700	  704.00	  700.77	-1718.52	  408.74
     76.5700	  685.00	  705.56	-1742.31	  408.82
     76.6700	  741.00	  701.82	-1682.57	  408.90
     76.7700	  730.00	  690.31	-1682.06	  408.99
     76.8700	  613.00	  673.16	-1781.91	  409.07
     76.9700	  667.00	  652.76	-1707.51	  409.15
     77.0700	  637.00	  631.83	-1716.58	  409.23
     77.1700	  592.00	  612.03	-1741.78	  409.30
     77.2700	  572.00	  594.56	-1744.31	  409.38
     77.3700	  553.00	  580.07	-1748.82	  409.46
     77.4700	  573.00	  568.69	-1717.44	  409.53
     77.5700	  547.00	  560.18	-1734.93	  409.60
     77.6700	  508.00	  554.11	-1767.86	  409.67
     77.7700	  543.00	  549.93	-1728.68	  409.74
     77.8700	  521.00	  547.15	-1747.90	  409.81
     77.9700	  514.00	  545.34	-1753.09	  409.88
     78.0700	  506.00	  544.18	-1759.93	  409.95
     78.1700	  519.00	  543.43	-1746.18	  410.01
     78.2700	  528.00	  542.95	-1736.70	  410.08
     78.3700	  530.00	  542.65	-1734.40	  410.14
     78.4700	  519.00	  542.48	-1745.23	  410.20
     78.5700	  546.00	  542.42	-1718.17	  410.26
     78.6700	  532.00	  542.46	-1732.21	  410.32
     78.7700	  479.00	  542.61	-1785.36	  410.38
     78.8700	  491.00	  542.89	-1773.64	  410.44
     78.9700	  579.00	  543.33	-1686.08	  410.49
     79.0700	  502.00	  543.97	-1763.72	  410.55
     79.1700	  490.00	  544.85	-1776.60	  410.60
     79.2700	  540.00	  546.01	-1727.76	  410.65
     79.3700	  520.00	  547.33	-1749.08	  410.70
     79.4700	  549.00	  549.20	-1721.95	  410.75
     79.5700	  530.00	  551.52	-1743.27	  410.80
     79.6700	  534.00	  554.35	-1742.10	  410.84
     79.7700	  532.00	  557.80	-1747.55	  410.89
     79.8700	  539.00	  561.98	-1744.73	  410.93
     79.9700	  577.00	  567.08	-1711.83	  410.98
     80.0700	  603.00	  573.33	-1692.08	  411.02
     80.1700	  550.00	  581.06	-1752.81	  411.06
     80.2700	  583.00	  590.61	-1729.36	  411.09
     80.3700	  561.00	  602.27	-1763.02	  411.13
     80.4700	  614.00	  616.18	-1723.93	  411.17
     80.5700	  636.00	  632.23	-1717.98	  411.20
     80.6700	  605.00	  649.95	-1766.70	  411.23
     80.7700	  686.00	  668.52	-1704.27	  411.26
     80.8700	  649.00	  686.79	-1759.54	  411.29
     80.9700	  669.00	  703.40	-1756.15	  411.32
     81.0700	  719.00	  717.07	-1719.82	  411.35
     81.1700	  714.00	  726.78	-1734.53	  411.37
     81.2700	  752.00	  731.80	-1701.55	  411.40
     81.3700	  777.00	  731.79	-1676.54	  411.42
     81.4700	  811.00	  726.85	-1637.60	  411.44
     81.5700	  771.00	  717.48	-1668.23	  411.46
     81.6700	  765.00	  704.45	-1661.20	  411.48
     81.7700	  756.00	  688.67	-1654.42	  411.49
     81.8700	  669.00	  671.22	-1723.97	  411.51
     81.9700	  701.00	  653.24	-1673.99	  411.52
     82.0700	  637.00	  635.78	-1720.53	  411.54
     82.1700	  690.00	  619.63	-1651.38	  411.55
     82.2700	  662.00	  605.27	-1665.02	  411.56
     82.3700	  612.00	  592.87	-1702.62	  411.56
     82.4700	  592.00	  582.60	-1712.35	  411.57
     82.5700	  604.00	  574.36	-1692.11	  411.58
     82.6700	  553.00	  568.07	-1736.82	  411.58
     82.7700	  566.00	  563.57	-1719.32	  411.58
     82.8700	  543.00	  560.78	-1739.53	  411.58
     82.9700	  579.00	  559.56	-1702.31	  411.58
     83.0700	  587.00	  559.81	-1694.56	  411.58
     83.1700	  590.00	  561.41	-1693.16	  411.57
     83.2700	  543.00	  564.24	-1742.99	  411.57
     83.3700	  525.00	  568.14	-1764.89	  411.56
     83.4700	  521.00	  572.84	-1773.59	  411.55
     83.5700	  523.00	  578.00	-1776.75	  411.54
     83.6700	  577.00	  583.19	-1727.94	  411.53
     83.7700	  595.00	  587.89	-1714.64	  411.52
     83.8700	  570.00	  591.51	-1743.26	  411.50
     83.9700	  564.00	  593.52	-1751.27	  411.48
     84.0700	  547.00	  593.56	-1768.31	  411.47
     84.1700	  594.00	  591.58	-1719.33	  411.45
     84.2700	  565.00	  587.86	-1744.61	  411.43
     84.3700	  554.00	  582.89	-1750.64	  411.40
     84.4700	  580.00	  577.22	-1718.97	  411.38
     84.5700	  544.00	  571.35	-1749.10	  411.35
     84.6700	  567.00	  565.69	-1720.44	  411.32
     84.7700	  564.00	  560.52	-1718.27	  411.30
     84.8700	  538.00	  556.05	-1739.80	  411.27
     84.9700	  534.00	  552.35	-1740.10	  411.23
     85.0700	  541.00	  549.43	-1730.18	  411.20
     85.1700	  564.00	  547.23	-1704.98	  411.16
     85.2700	  515.00	  545.66	-1752.41	  411.13
     85.3700	  562.00	  544.62	-1704.37	  411.09
     85.4700	  544.00	  544.02	-1721.77	  411.05
     85.5700	  570.00	  543.78	-1695.53	  411.01
     85.6700	  555.00	  543.86	-1710.61	  410.96
     85.7700	  562.00	  544.25	-1704.00	  410.92
     85.8700	  551.00	  544.98	-1715.73	  410.87
     85.9700	  568.00	  546.11	-1699.86	  410.82
     86.0700	  520.00	  547.75	-1749.50	  410.77
     86.1700	  573.00	  550.03	-1698.78	  410.72
     86.2700	  529.00	  553.10	-1745.85	  410.67
     86.3700	  543.00	  557.12	-1735.87	  410.62
     86.4700	  547.00	  562.25	-1737.00	  410.56
     86.5700	  569.00	  568.57	-1721.32	  410.50
     86.6700	  592.00	  576.09	-1705.84	  410.44
     86.7700	  574.00	  584.70	-1732.45	  410.38
     86.8700	  597.00	  594.13	-1718.88	  410.32
     86.9700	  611.00	  603.96	-1714.71	  410.26
     87.0700	  595.00	  613.26	-1740.01	  410.19
     87.1700	  623.00	  621.95	-1720.70	  410.12
     87.2700	  611.00	  628.88	-1739.63	  410.05
     87.3700	  663.00	  633.27	-1692.02	  409.98
     87.4700	  646.00	  634.55	-1710.30	  409.91
     87.5700	  665.00	  632.57	-1689.32	  409.84
     87.6700	  641.00	  627.68	-1708.43	  409.76
     87.7700	  632.00	  620.57	-1710.32	  409.69
     87.8700	  643.00	  612.12	-1690.87	  409.61
     87.9700	  609.00	  603.20	-1715.95	  409.53
     88.0700	  597.00	  594.61	-1719.36	  409.44
     88.1700	  565.00	  586.98	-1743.73	  409.36
     88.2700	  560.00	  580.82	-1742.57	  409.28
     88.3700	  581.00	  576.43	-1717.18	  409.19
     88.4700	  606.00	  573.97	-1689.72	  409.10
     88.5700	  571.00	  573.42	-1724.17	  409.01
     88.6700	  602.00	  574.62	-1694.37	  408.92
     88.7700	  582.00	  577.29	-1717.04	  408.83
     88.8700	  616.00	  581.07	-1686.82	  408.73
     88.9700	  603.00	  585.47	-1704.22	  408.64
     89.0700	  632.00	  590.00	-1679.75	  408.54
     89.1700	  624.00	  594.07	-1691.82	  408.44
     89.2700	  594.00	  597.15	-1724.90	  408.34
     89.3700	  588.00	  598.76	-1732.51	  408.24
     89.4700	  625.00	  598.61	-1695.36	  408.13
     89.5700	  589.00	  596.66	-1729.41	  408.03
     89.6700	  585.00	  593.14	-1729.89	  407.92
     89.7700	  580.00	  588.43	-1730.18	  407.81
     89.8700	  537.00	  582.97	-1767.72	  407.70
     89.9700	  574.00	  577.21	-1724.96	  407.59
     90.0700	  568.00	  571.51	-1725.26	  407.47
     90.1700	  530.00	  566.17	-1757.92	  407.36
     90.2700	  545.00	  561.39	-1738.14	  407.24
     90.3700	  518.00	  557.30	-1761.05	  407.12
     90.4700	  495.00	  553.94	-1780.69	  407.00
     90.5700	  520.00	  551.31	-1753.06	  406.88
     90.6700	  515.00	  549.34	-1756.09	  406.76
     90.7700	  508.00	  547.98	-1761.73	  406.63
     90.8700	  546.00	  547.13	-1722.88	  406.51
     90.9700	  533.00	  546.73	-1735.48	  406.38
     91.0700	  542.00	  546.74	-1726.49	  406.25
     91.1700	  521.00	  547.12	-1747.87	  406.12
     91.2700	  532.00	  547.90	-1737.65	  405.99
     91.3700	  512.00	  549.12	-1758.87	  405.85
     91.4700	  535.00	  550.90	-1737.65	  405.72
     91.5700	  496.00	  553.35	-1779.10	  405.58
     91.6700	  536.00	  556.66	-1742.41	  405.44
     91.7700	  534.00	  561.01	-1748.76	  405.30
     91.8700	  523.00	  566.62	-1765.37	  405.16
     91.9700	  546.00	  573.70	-1749.45	  405.02
     92.0700	  566.00	  582.43	-1738.18	  404.88
     92.1700	  545.00	  592.92	-1769.67	  404.73
     92.2700	  594.00	  604.99	-1732.74	  404.58
     92.3700	  657.00	  619.02	-1683.77	  404.43
     92.4700	  602.00	  634.59	-1754.34	  404.28
     92.5700	  699.00	  651.35	-1674.10	  404.13
     92.6700	  649.00	  668.84	-1741.59	  403.98
     92.7700	  716.00	  686.42	-1692.17	  403.82
     92.8700	  701.00	  703.40	-1724.15	  403.67
     92.9700	  728.00	  719.03	-1712.78	  403.51
     93.0700	  760.00	  732.73	-1694.48	  403.35
     93.1700	  749.00	  744.21	-1716.96	  403.19
     93.2700	  768.00	  753.57	-1707.32	  403.03
     93.3700	  783.00	  761.26	-1700.01	  402.86
     93.4700	  793.00	  767.90	-1696.65	  402.70
     93.5700	  820.00	  774.15	-1675.90	  402.53
     93.6700	  796.00	  780.59	-1706.34	  402.36
     93.7700	  847.00	  787.75	-1662.50	  402.20
     93.8700	  912.00	  796.14	-1605.89	  402.03
     93.9700	  835.00	  806.24	-1692.99	  401.85
     94.0700	  847.00	  818.41	-1693.16	  401.68
     94.1700	  815.00	  832.79	-1739.54	  401.51
     94.2700	  851.00	  849.13	-1719.88	  401.33
     94.3700	  883.00	  866.70	-1705.45	  401.15
     94.4700	  917.00	  884.35	-1689.10	  400.97
     94.5700	  902.00	  900.49	-1720.24	  400.79
     94.6700	  932.00	  913.29	-1703.04	  400.61
     94.7700	  962.00	  920.86	-1680.61	  400.43
     94.8700	  913.00	  921.68	-1730.43	  400.25
     94.9700	  905.00	  914.95	-1731.70	  400.06
     95.0700	  908.00	  900.81	-1714.56	  399.87
     95.1700	  945.00	  880.38	-1657.13	  399.69
     95.2700	  878.00	  855.36	-1699.11	  399.50
     95.3700	  813.00	  827.76	-1736.51	  399.31
     95.4700	  809.00	  799.63	-1712.38	  399.12
     95.5700	  834.00	  772.90	-1660.65	  398.92
     95.6700	  695.00	  749.36	-1776.11	  398.73
     95.7700	  723.00	  730.60	-1729.35	  398.53
     95.8700	  751.00	  718.02	-1688.77	  398.34
     95.9700	  726.00	  712.86	-1708.61	  398.14
     96.0700	  733.00	  716.13	-1704.88	  397.94
     96.1700	  700.00	  728.69	-1750.44	  397.74
     96.2700	  738.00	  751.14	-1734.89	  397.54
     96.3700	  725.00	  783.83	-1780.58	  397.34
     96.4700	  795.00	  826.76	-1753.51	  397.13
     96.5700	  917.00	  879.50	-1684.25	  396.93
     96.6700	  933.00	  941.05	-1729.80	  396.72
     96.7700	  971.00	 1009.84	-1760.59	  396.51
     96.8700	 1087.00	 1083.64	-1718.39	  396.31
     96.9700	 1140.00	 1159.53	-1741.28	  396.10
     97.0700	 1227.00	 1233.93	-1728.68	  395.89
     97.1700	 1265.00	 1302.71	-1759.46	  395.67
     97.2700	 1372.00	 1361.47	-1711.22	  395.46
     97.3700	 1402.00	 1405.84	-1725.59	  395.25
     97.4700	 1424.00	 1432.21	-1729.96	  395.03
     97.5700	 1451.00	 1438.39	-1709.14	  394.82
     97.6700	 1406.00	 1424.20	-1739.95	  394.60
     97.7700	 1320.00	 1391.42	-1793.17	  394.38
     97.8700	 1321.00	 1343.31	-1744.06	  394.16
     97.9700	 1284.00	 1283.94	-1721.69	  393.94
     98.0700	 1216.00	 1217.60	-1723.35	  393.72
     98.1700	 1128.00	 1148.41	-1742.16	  393.50
     98.2700	 1051.00	 1080.09	-1750.84	  393.28
     98.3700	  965.00	 1015.84	-1772.59	  393.06
     98.4700	  942.00	  958.42	-1738.17	  392.83
     98.5700	  961.00	  909.97	-1670.72	  392.61
     98.6700	  824.00	  872.22	-1769.97	  392.38
     98.7700	  863.00	  846.41	-1705.16	  392.15
     98.8700	  824.00	  833.48	-1731.23	  391.92
     98.9700	  830.00	  834.07	-1725.82	  391.70
     99.0700	  825.00	  848.58	-1745.33	  391.47
     99.1700	  855.00	  877.22	-1743.97	  391.23
     99.2700	  891.00	  919.96	-1750.71	  391.00
     99.3700	  968.00	  976.55	-1730.30	  390.77
     99.4700	 1032.00	 1046.40	-1736.15	  390.54
     99.5700	 1114.00	 1128.51	-1736.26	  390.30
     99.6700	 1207.00	 1221.37	-1736.12	  390.07
     99.7700	 1326.00	 1322.88	-1718.63	  389.83
     99.8700	 1447.00	 1430.27	-1705.02	  389.60
     99.9700	 1516.00	 1540.02	-1745.77	  389.36
    100.0700	 1654.00	 1648.06	-1715.81	  389.12
    100.1700	 1734.00	 1749.90	-1737.65	  388.89
    100.2700	 1798.00	 1841.11	-1764.86	  388.65
    100.3700	 1936.00	 1917.77	-1703.52	  388.41
    100.4700	 2037.00	 1976.85	-1661.60	  388.17
    100.5700	 2116.00	 2016.33	-1622.08	  387.93
    100.6700	 2089.00	 2035.02	-1667.77	  387.69
    100.7700	 2081.00	 2032.31	-1673.06	  387.45
    100.8700	 1940.00	 2008.25	-1790.00	  387.20
    100.9700	 1926.00	 1963.88	-1759.63	  386.96
    101.0700	 1912.00	 1901.47	-1711.22	  386.72
    101.1700	 1823.00	 1824.64	-1723.39	  386.47
    101.2700	 1757.00	 1737.99	-1702.74	  386.23
    101.3700	 1661.00	 1646.54	-1707.29	  385.98
    101.4700	 1574.00	 1555.11	-1702.86	  385.74
    101.5700	 1454.00	 1467.89	-1735.64	  385.49
    101.6700	 1415.00	 1388.14	-1694.89	  385.25
    101.7700	 1347.00	 1318.10	-1692.85	  385.00
    101.8700	 1230.00	 1258.98	-1750.73	  384.75
    101.9700	 1250.00	 1210.98	-1682.73	  384.51
    102.0700	 1205.00	 1173.37	-1690.12	  384.26
    102.1700	 1145.00	 1144.64	-1721.39	  384.01
    102.2700	 1118.00	 1122.64	-1726.39	  383.76
    102.3700	 1050.00	 1104.82	-1776.57	  383.51
    102.4700	 1099.00	 1088.51	-1711.26	  383.27
    102.5700	 1067.00	 1071.20	-1725.95	  383.02
    102.6700	 1029.00	 1050.94	-1743.69	  382.77
    102.7700	 1063.00	 1026.54	-1685.29	  382.52
    102.8700	 1037.00	  997.66	-1682.41	  382.27
    102.9700	 1010.00	  964.67	-1676.42	  382.02
    103.0700	  839.00	  928.46	-1811.21	  381.77
    103.1700	  872.00	  890.17	-1739.92	  381.52
    103.2700	  846.00	  851.02	-1726.77	  381.27
    103.3700	  789.00	  812.19	-1744.94	  381.02
    103.4700	  780.00	  774.74	-1716.49	  380.77
    103.5700	  768.00	  739.55	-1693.30	  380.52
    103.6700	  735.00	  707.28	-1694.03	  380.27
    103.7700	  656.00	  678.40	-1744.15	  380.02
    103.8700	  660.00	  653.14	-1714.89	  379.77
    103.9700	  662.00	  631.57	-1691.32	  379.52
    104.0700	  607.00	  613.56	-1728.31	  379.27
    104.1700	  603.00	  598.89	-1717.64	  379.02
    104.2700	  581.00	  587.23	-1727.98	  378.77
    104.3700	  589.00	  578.22	-1710.97	  378.52
    104.4700	  646.00	  571.49	-1647.24	  378.27
    104.5700	  574.00	  566.66	-1714.41	  378.02
    104.6700	  606.00	  563.41	-1679.16	  377.77
    104.7700	  566.00	  561.41	-1717.16	  377.52
    104.8700	  532.00	  560.44	-1750.19	  377.27
    104.9700	  562.00	  560.28	-1720.03	  377.02
    105.0700	  570.00	  560.77	-1712.52	  376.77
    105.1700	  546.00	  561.77	-1737.52	  376.53
    105.2700	  557.00	  563.25	-1728.00	  376.28
    105.3700	  519.00	  565.13	-1767.88	  376.03
    105.4700	  577.00	  567.45	-1712.20	  375.78
    105.5700	  568.00	  570.23	-1723.98	  375.54
    105.6700	  552.00	  573.57	-1743.32	  375.29
    105.7700	  618.00	  577.56	-1681.31	  375.05
    105.8700	  563.00	  582.31	-1741.06	  374.80
    105.9700	  593.00	  587.92	-1716.67	  374.56
    106.0700	  660.00	  594.44	-1656.19	  374.31
    106.1700	  596.00	  601.91	-1727.66	  374.07
    106.2700	  595.00	  610.28	-1737.03	  373.83
    106.3700	  634.00	  619.44	-1707.19	  373.58
    106.4700	  657.00	  629.22	-1693.97	  373.34
    106.5700	  603.00	  639.40	-1758.15	  373.10
    106.6700	  605.00	  649.66	-1766.41	  372.86
    106.7700	  653.00	  659.67	-1728.42	  372.62
    106.8700	  721.00	  669.05	-1669.80	  372.38
    106.9700	  662.00	  677.42	-1737.17	  372.15
    107.0700	  667.00	  684.42	-1739.17	  371.91
    107.1700	  717.00	  689.77	-1694.52	  371.67
    107.2700	  632.00	  693.34	-1783.09	  371.44
    107.3700	  707.00	  695.16	-1709.91	  371.20
    107.4700	  672.00	  695.43	-1745.18	  370.97
    107.5700	  656.00	  694.49	-1760.24	  370.74
    107.6700	  702.00	  692.74	-1712.49	  370.51
    107.7700	  691.00	  690.63	-1721.38	  370.28
    107.8700	  676.00	  688.54	-1734.29	  370.05
    107.9700	  671.00	  686.80	-1737.55	  369.82
    108.0700	  692.00	  685.62	-1715.37	  369.59
    108.1700	  684.00	  685.14	-1722.89	  369.37
    108.2700	  678.00	  685.33	-1729.08	  369.14
    108.3700	  665.00	  686.08	-1742.83	  368.92
    108.4700	  652.00	  687.18	-1756.93	  368.70
    108.5700	  683.00	  688.30	-1727.05	  368.47
    108.6700	  693.00	  689.07	-1717.82	  368.25
    108.7700	  742.00	  689.09	-1668.84	  368.04
    108.8700	  675.00	  687.98	-1734.73	  367.82
    108.9700	  725.00	  685.44	-1682.19	  367.60
    109.0700	  691.00	  681.31	-1712.06	  367.39
    109.1700	  682.00	  675.55	-1715.30	  367.17
    109.2700	  669.00	  668.29	-1721.04	  366.96
    109.3700	  635.00	  659.76	-1746.51	  366.75
    109.4700	  647.00	  650.24	-1724.99	  366.54
    109.5700	  623.00	  640.07	-1738.82	  366.34
    109.6700	  656.00	  629.59	-1695.34	  366.13
    109.7700	  617.00	  619.10	-1723.85	  365.93
    109.8700	  611.00	  608.89	-1719.64	  365.73
    109.9700	  573.00	  599.20	-1747.95	  365.53
    110.0700	  604.00	  590.22	-1707.97	  365.33
    110.1700	  615.00	  582.10	-1688.85	  365.13
    110.2700	  545.00	  574.92	-1751.67	  364.93
    110.3700	  541.00	  568.74	-1749.49	  364.74
    110.4700	  554.00	  563.57	-1731.32	  364.55
    110.5700	  579.00	  559.37	-1702.12	  364.36
    110.6700	  559.00	  556.08	-1718.83	  364.17
    110.7700	  543.00	  553.64	-1732.39	  363.99
    110.8700	  570.00	  551.96	-1703.71	  363.80
    110.9700	  520.00	  550.95	-1752.70	  363.62
    111.0700	  546.00	  550.52	-1726.27	  363.44
    111.1700	  546.00	  550.60	-1726.35	  363.26
    111.2700	  541.00	  551.10	-1731.85	  363.09
    111.3700	  566.00	  551.96	-1707.71	  362.92
    111.4700	  553.00	  553.14	-1721.89	  362.75
    111.5700	  550.00	  554.59	-1726.34	  362.58
    111.6700	  538.00	  556.27	-1740.02	  362.41
    111.7700	  541.00	  558.16	-1738.91	  362.25
    111.8700	  575.00	  560.25	-1707.00	  362.08
    111.9700	  551.00	  562.54	-1733.29	  361.93
    112.0700	  558.00	  565.03	-1728.78	  361.77
    112.1700	  562.00	  567.73	-1727.48	  361.61
    112.2700	  633.00	  570.67	-1659.42	  361.46
    112.3700	  594.00	  573.86	-1701.61	  361.31
    112.4700	  556.00	  577.35	-1743.10	  361.17
    112.5700	  580.00	  581.19	-1722.94	  361.02
    112.6700	  606.00	  585.44	-1701.19	  360.88
    112.7700	  638.00	  590.19	-1673.94	  360.74
    112.8700	  607.00	  595.54	-1710.29	  360.61
    112.9700	  608.00	  601.65	-1715.40	  360.47
    113.0700	  605.00	  608.69	-1725.44	  360.34
    113.1700	  657.00	  616.92	-1681.67	  360.21
    113.2700	  631.00	  626.64	-1717.39	  360.09
    113.3700	  679.00	  638.26	-1681.01	  359.97
    113.4700	  716.00	  652.29	-1658.04	  359.85
    113.5700	  728.00	  669.36	-1663.11	  359.73
    113.6700	  767.00	  690.29	-1645.04	  359.62
    113.7700	  752.00	  716.05	-1685.80	  359.51
    113.8700	  814.00	  747.79	-1655.54	  359.40
    113.9700	  884.00	  786.90	-1624.65	  359.30
    114.0700	  923.00	  834.99	-1633.74	  359.20
    114.1700	  995.00	  893.87	-1620.62	  359.10
    114.2700	 1084.00	  965.58	-1603.33	  359.01
    114.3700	 1162.00	 1052.33	-1612.08	  358.92
    114.4700	 1303.00	 1156.45	-1575.20	  358.83
    114.5700	 1432.00	 1280.30	-1570.05	  358.75
    114.6700	 1505.00	 1426.19	-1642.94	  358.67
    114.7700	 1683.00	 1596.29	-1635.04	  358.59
    114.8700	 1951.00	 1792.49	-1563.24	  358.52
    114.9700	 2105.00	 2016.13	-1632.88	  358.45
    115.0700	 2325.00	 2268.00	-1664.75	  358.39
    115.1700	 2644.00	 2548.00	-1625.75	  358.32
    115.2700	 2777.00	 2855.23	-1799.98	  358.27
    115.3700	 3182.00	 3187.71	-1727.46	  358.21
    115.4700	 3510.00	 3542.21	-1753.96	  358.16
    115.5700	 3903.00	 3914.32	-1733.07	  358.11
    115.6700	 4174.00	 4298.30	-1846.05	  358.07
    115.7700	 4490.00	 4687.31	-1919.06	  358.03
    115.8700	 4826.00	 5073.31	-1969.06	  358.00
    115.9700	 5239.00	 5447.08	-1929.83	  357.97
    116.0700	 5693.00	 5798.58	-1827.33	  357.94
    116.1700	 6051.00	 6117.11	-1787.86	  357.92
    116.2700	 6315.00	 6391.92	-1798.67	  357.90
    116.3700	 6584.00	 6612.71	-1750.46	  357.89
    116.4700	 6641.00	 6770.35	-1851.10	  357.88
    116.5700	 6887.00	 6857.95	-1692.70	  357.87
    116.6700	 6829.00	 6871.58	-1764.33	  357.87
    116.7700	 6707.00	 6810.87	-1825.62	  357.87
    116.8700	 6608.00	 6678.94	-1792.69	  357.88
    116.9700	 6591.00	 6482.06	-1612.81	  357.89
    117.0700	 6242.00	 6228.86	-1708.61	  357.91
    117.1700	 5946.00	 5929.47	-1705.22	  357.93
    117.2700	 5484.00	 5594.52	-1832.27	  357.96
    117.3700	 5182.00	 5234.59	-1774.34	  357.99
    117.4700	 4915.00	 4859.79	-1666.54	  358.02
    117.5700	 4469.00	 4479.37	-1732.12	  358.06
    117.6700	 4208.00	 4101.57	-1615.32	  358.11
    117.7700	 3895.00	 3733.34	-1560.09	  358.16
    117.8700	 3509.00	 3380.39	-1593.14	  358.21
    117.9700	 3217.00	 3047.31	-1552.06	  358.28
    118.0700	 2788.00	 2737.43	-1671.18	  358.34
    118.1700	 2554.00	 2452.97	-1620.72	  358.41
    118.2700	 2289.00	 2195.03	-1627.78	  358.49
    118.3700	 1966.00	 1963.83	-1719.58	  358.57
    118.4700	 1744.00	 1758.91	-1736.66	  358.65
    118.5700	 1553.00	 1579.17	-1747.92	  358.74
    118.6700	 1312.00	 1423.04	-1832.79	  358.84
    118.7700	 1211.00	 1288.61	-1799.36	  358.94
    118.8700	 1131.00	 1173.77	-1764.52	  359.05
    118.9700	 1013.00	 1076.38	-1785.13	  359.16
    119.0700	  948.00	  994.29	-1768.04	  359.28
    119.1700	  850.00	  925.45	-1797.20	  359.41
    119.2700	  786.00	  867.95	-1803.70	  359.54
    119.3700	  827.00	  820.03	-1714.78	  359.67
    119.4700	  771.00	  780.18	-1730.93	  359.81
    119.5700	  688.00	  747.06	-1780.81	  359.96
    119.6700	  654.00	  719.51	-1787.26	  360.11
    119.7700	  600.00	  696.59	-1818.34	  360.27
    119.8700	  665.00	  677.47	-1734.22	  360.44
    119.9700	  628.00	  661.51	-1755.26	  360.61
    120.0700	  600.00	  648.16	-1769.91	  360.78
    120.1700	  595.00	  637.00	-1763.75	  360.97
    120.2700	  613.00	  627.66	-1736.41	  361.16
    120.3700	  631.00	  619.87	-1710.62	  361.35
    120.4700	  600.00	  613.42	-1735.17	  361.56
    120.5700	  578.00	  608.12	-1751.87	  361.76
    120.6700	  582.00	  603.84	-1743.59	  361.98
    120.7700	  531.00	  600.47	-1791.22	  362.20
    120.8700	  559.00	  597.94	-1760.69	  362.43
    120.9700	  613.00	  596.15	-1704.90	  362.66
    121.0700	  562.00	  595.07	-1754.82	  362.90
    121.1700	  565.00	  594.64	-1751.39	  363.15
    121.2700	  550.00	  594.82	-1766.57	  363.41
    121.3700	  552.00	  595.55	-1765.30	  363.67
    121.4700	  551.00	  596.80	-1767.55	  363.94
    121.5700	  606.00	  598.50	-1714.25	  364.21
    121.6700	  610.00	  600.61	-1712.36	  364.50
    121.7700	  580.00	  603.06	-1744.81	  364.79
    121.8700	  613.00	  605.79	-1714.54	  365.08
    121.9700	  594.00	  608.70	-1736.45	  365.39
    122.0700	  624.00	  611.71	-1709.46	  365.70
    122.1700	  662.00	  614.76	-1674.51	  366.02
    122.2700	  655.00	  617.73	-1684.48	  366.34
    122.3700	  600.00	  620.53	-1742.28	  366.68
    122.4700	  611.00	  623.06	-1733.81	  367.02
    122.5700	  643.00	  625.23	-1703.98	  367.36
    122.6700	  665.00	  626.95	-1683.70	  367.72
    122.7700	  620.00	  628.17	-1729.92	  368.08
    122.8700	  616.00	  628.84	-1734.59	  368.46
    122.9700	  682.00	  628.92	-1668.67	  368.84
    123.0700	  667.00	  628.44	-1683.19	  369.22
    123.1700	  687.00	  627.43	-1662.18	  369.62
    123.2700	  632.00	  625.91	-1715.67	  370.02
    123.3700	  654.00	  623.96	-1691.71	  370.43
    123.4700	  615.00	  621.63	-1728.38	  370.85
    123.5700	  599.00	  618.99	-1741.74	  371.28
    123.6700	  648.00	  616.12	-1689.87	  371.71
    123.7700	  602.00	  613.09	-1732.84	  372.16
    123.8700	  650.00	  609.95	-1681.70	  372.61
    123.9700	  621.00	  606.78	-1707.53	  373.07
    124.0700	  640.00	  603.62	-1685.37	  373.54
    124.1700	  595.00	  600.53	-1727.28	  374.02
    124.2700	  584.00	  597.53	-1735.28	  374.51
    124.3700	  595.00	  594.68	-1721.43	  375.00
    124.4700	  582.00	  591.98	-1731.73	  375.51
    124.5700	  606.00	  589.47	-1705.22	  376.02
    124.6700	  600.00	  587.15	-1708.90	  376.54
    124.7700	  590.00	  585.04	-1716.79	  377.07
    124.8700	  636.00	  583.16	-1668.91	  377.61
    124.9700	  563.00	  497.45	-1656.20	  378.16
    125.0700	  589.00	  498.01	-1721.75	  378.72
    125.1700	  630.00	  498.58	-1721.75	  379.29
    125.2700	  571.00	  499.15	-1721.75	  379.86
    125.3700	  537.00	  499.74	-1721.75	  380.45
    125.4700	  549.00	  500.33	-1721.75	  381.04
    125.5700	  548.00	  500.94	-1721.75	  381.65
    125.6700	  558.00	  501.55	-1721.75	  382.26
    125.7700	  591.00	  502.18	-1721.75	  382.89
    125.8700	  576.00	  502.81	-1721.75	  383.52
    125.9700	  535.00	  503.45	-1721.75	  384.16
    126.0700	  632.00	  504.11	-1721.75	  384.82
    126.1700	  597.00	  504.77	-1721.75	  385.48
    126.2700	  579.00	  505.44	-1721.75	  386.15
    126.3700	  592.00	  506.13	-1721.75	  386.84
    126.4700	  571.00	  506.82	-1721.75	  387.53
    126.5700	  562.00	  507.53	-1721.75	  388.24
    126.6700	  646.00	  508.24	-1721.75	  388.95
    126.7700	  622.00	  508.96	-1721.75	  389.67
    126.8700	  644.00	  509.70	-1721.75	  390.41
    126.9700	  579.00	  510.45	-1721.75	  391.16
    127.0700	  639.00	  511.20	-1721.75	  391.91
    127.1700	  669.00	  511.97	-1721.75	  392.68
    127.2700	  629.00	  512.75	-1721.75	  393.46
    127.3700	  630.00	  513.53	-1721.75	  394.24
    127.4700	  684.00	  514.33	-1721.75	  395.04
    127.5700	  696.00	  515.14	-1721.75	  395.85
    127.6700	  704.00	  515.96	-1721.75	  396.67
    127.7700	  736.00	  516.80	-1721.75	  397.51
    127.8700	  761.00	  517.64	-1721.75	  398.35
    127.9700	  701.00	  518.49	-1721.75	  399.20
    128.0700	  770.00	  519.36	-1721.75	  400.07
    128.1700	  735.00	  520.24	-1721.75	  400.95
    128.2700	  814.00	  521.13	-1721.75	  401.84
    128.3700	  830.00	  522.03	-1721.75	  402.74
    128.4700	  799.00	  522.94	-1721.75	  403.65
    128.5700	    0.00	  523.86	-1721.75	  404.57
    128.6700	    0.00	  524.80	-1721.75	  405.51
     12.3013	        	        	        	        	       0	(  0  0  2)	  0  1
     24.8788	        	        	        	        	       0	(  0  0  4)	  0  1
     28.3285	        	        	        	        	       0	(  1  0  0)	  0  1
     29.0252	        	        	        	        	       0	(  1  0  1)	  0  1
     31.0299	        	        	        	        	       0	(  1  0  2)	  0  1
     34.1360	        	        	        	        	       0	(  1  0  3)	  0  1
     37.7719	        	        	        	        	       0	(  0  0  6)	  0  1
     38.1104	        	        	        	        	       0	(  1  0  4)	  0  1
     42.7575	        	        	        	        	       0	(  1  0  5)	  0  1
     47.9382	        	        	        	        	       0	(  1  0  6)	  0  1
     50.2626	        	        	        	        	       0	(  1  1  0)	  0  1
     51.1864	        	        	        	        	       0	(  0  0  8)	  0  1
     51.9843	        	        	        	        	       0	(  1  1  2)	  0  1
     53.5651	        	        	        	        	       0	(  1  0  7)	  0  1
     56.9283	        	        	        	        	       0	(  1  1  4)	  0  1
     58.7584	        	        	        	        	       0	(  2  0  0)	  0  1
     59.1497	        	        	        	        	       0	(  2  0  1)	  0  1
     59.5915	        	        	        	        	       0	(  1  0  8)	  0  1
     60.3141	        	        	        	        	       0	(  2  0  2)	  0  1
     62.2258	        	        	        	        	       0	(  2  0  3)	  0  1
     64.6172	        	        	        	        	       0	(  1  1  6)	  0  1
     64.8478	        	        	        	        	       0	(  2  0  4)	  0  1
     65.4068	        	        	        	        	       0	(  0  0 10)	  0  1
     66.0035	        	        	        	        	       0	(  1  0  9)	  0  1
     68.1394	        	        	        	        	       0	(  2  0  5)	  0  1
     72.0638	        	        	        	        	       0	(  2  0  6)	  0  1
     72.8147	        	        	        	        	       0	(  1  0 10)	  0  1
     74.6472	        	        	        	        	       0	(  1  1  8)	  0  1
     76.5943	        	        	        	        	       0	(  2  0  7)	  0  1
     80.0667	        	        	        	        	       0	(  1  0 11)	  0  1
     80.8758	        	        	        	        	       0	(  0  0 12)	  0  1
     80.9959	        	        	        	        	       0	(  2  1  0)	  0  1
     81.3355	        	        	        	        	       0	(  2  1  1)	  0  1
     81.7203	        	        	        	        	       0	(  2  0  8)	  0  1
     82.3524	        	        	        	        	       0	(  2  1  2)	  0  1
     84.0423	        	        	        	        	       0	(  2  1  3)	  0  1
     86.3998	        	        	        	        	       0	(  2  1  4)	  0  1
     86.9083	        	        	        	        	       0	(  1  1 10)	  0  1
     87.4533	        	        	        	        	       0	(  2  0  9)	  0  1
     87.8343	        	        	        	        	       0	(  1  0 12)	  0  1
     89.4229	        	        	        	        	       0	(  2  1  5)	  0  1
     93.1170	        	        	        	        	       0	(  2  1  6)	  0  1
     93.8348	        	        	        	        	       0	(  2  0 10)	  0  1
     94.8818	        	        	        	        	       0	(  3  0  0)	  0  1
     95.2188	        	        	        	        	       0	(  3  0  1)	  0  1
     96.2311	        	        	        	        	       0	(  3  0  2)	  0  1
     96.2394	        	        	        	        	       0	(  1  0 13)	  0  1
     97.5014	        	        	        	        	       0	(  2  1  7)	  0  1
     97.9228	        	        	        	        	       0	(  3  0  3)	  0  1
     98.3986	        	        	        	        	       0	(  0  0 14)	  0  1
    100.3035	        	        	        	        	       0	(  3  0  4)	  0  1
    100.9494	        	        	        	        	       0	(  2  0 11)	  0  1
    101.7639	        	        	        	        	       0	(  1  1 12)	  0  1
    102.6187	        	        	        	        	       0	(  2  1  8)	  0  1
    103.3921	        	        	        	        	       0	(  3  0  5)	  0  1
    105.4816	        	        	        	        	       0	(  1  0 14)	  0  1
    107.2232	        	        	        	        	       0	(  3  0  6)	  0  1
    108.5490	        	        	        	        	       0	(  2  1  9)	  0  1
    108.9514	        	        	        	        	       0	(  2  0 12)	  0  1
    111.8584	        	        	        	        	       0	(  3  0  7)	  0  1
    115.4375	        	        	        	        	       0	(  2  1 10)	  0  1
    115.9104	        	        	        	        	       0	(  1  0 15)	  0  1
    116.6002	        	        	        	        	       0	(  2  2  0)	  0  1
    117.4052	        	        	        	        	       0	(  3  0  8)	  0  1
    118.1137	        	        	        	        	       0	(  2  2  2)	  0  1
    118.1232	        	        	        	        	       0	(  2  0 13)	  0  1
    119.8569	        	        	        	        	       0	(  0  0 16)	  0  1
    120.5826	        	        	        	        	       0	(  1  1 14)	  0  1
    122.7937	        	        	        	        	       0	(  2  2  4)	  0  1
    123.5530	        	        	        	        	       0	(  2  1 11)	  0  1
    124.0562	        	        	        	        	       0	(  3  0  9)	  0  1
    124.6620	        	        	        	        	       0	(  3  1  0)	  0  1
    125.0717	        	        	        	        	       0	(  3  1  1)	  0  1
    126.3136	        	        	        	        	       0	(  3  1  2)	  0  1
    128.2307	        	        	        	        	       0	(  1  0 16)	  0  1
    128.4291	        	        	        	        	       0	(  3  1  3)	  0  1
    129.0338	        	        	        	        	       0	(  2  0 14)	  0  1
    131.2222	        	        	        	        	       0	(  2  2  6)	  0  1
    131.5009	        	        	        	        	       0	(  3  1  4)	  0  1
    132.1837	        	        	        	        	       0	(  3  0 10)	  0  1
    133.4475	        	        	        	        	       0	(  2  1 12)	  0  1
    135.6817	        	        	        	        	       0	(  3  1  5)	  0  1
    141.2673	        	        	        	        	       0	(  3  1  6)	  0  1
    142.6396	        	        	        	        	       0	(  3  0 11)	  0  1
    143.1364	        	        	        	        	       0	(  2  0 15)	  0  1
    144.3514	        	        	        	        	       0	(  1  0 17)	  0  1
    145.4293	        	        	        	        	       0	(  2  2  8)	  0  1
    146.5678	        	        	        	        	       0	(  2  1 13)	  0  1
    148.9232	        	        	        	        	       0	(  3  1  7)	  0  1
    149.4367	        	        	        	        	       0	(  1  1 16)	  0  1
    153.7863	        	        	        	        	       0	(  0  0 18)	  0  1
    158.4517	        	        	        	        	       0	(  3  0 12)	  0  1
    158.7789	        	        	        	        	       0	(  4  0  0)	  0  1
    159.7322	        	        	        	        	       0	(  4  0  1)	  0  1
    160.8687	        	        	        	        	       0	(  3  1  8)	  0  1
    162.8965	        	        	        	        	       0	(  4  0  2)	  0  1
    169.2945	        	        	        	        	       0	(  2  0 16)	  0  1
    170.1773	        	        	        	        	       0	(  4  0  3)	  0  1
    173.5592	        	        	        	        	       0	(  2  1 14)	  0  1
