MSG Master    CELL:    5.89383   5.89383  23.16297   90.0000   90.0000  120.0000   SPGR: P 63/m m c             TEMP:    693.05
  2   1280     2.52000     0.00000    -0.10240     0.00000     0.00000    0
    96    96     0     0     2
       0.00000      10.00000
     125.00000     130.00000
 2Theta	Yobs	Ycal	Yobs-Ycal	Backg	Posr	(hkl)	K
      0.7700	    0.00	  673.99	-1826.67	  556.18
      0.8700	    0.00	  673.85	-1826.67	  556.04
      0.9700	   44.00	  673.71	-1826.67	  555.90
      1.0700	   35.00	  673.56	-1826.67	  555.75
      1.1700	   49.00	  673.41	-1826.67	  555.60
      1.2700	   50.00	  673.25	-1826.67	  555.44
      1.3700	   45.00	  673.09	-1826.67	  555.28
      1.4700	   94.00	  672.92	-1826.67	  555.11
      1.5700	  307.00	  672.75	-1826.67	  554.94
      1.6700	  508.00	  672.58	-1826.67	  554.77
      1.7700	  605.00	  672.40	-1826.67	  554.59
      1.8700	  649.00	  672.22	-1826.67	  554.41
      1.9700	  760.00	  672.03	-1826.67	  554.22
      2.0700	  757.00	  671.84	-1826.67	  554.03
      2.1700	  775.00	  671.64	-1826.67	  553.83
      2.2700	  780.00	  671.44	-1826.67	  553.63
      2.3700	  739.00	  671.24	-1826.67	  553.43
      2.4700	  721.00	  671.03	-1826.67	  553.22
      2.5700	  675.00	  670.82	-1826.67	  553.01
      2.6700	  671.00	  670.60	-1826.67	  552.79
      2.7700	  659.00	  670.39	-1826.67	  552.58
      2.8700	  641.00	  670.16	-1826.67	  552.35
      2.9700	  618.00	  669.94	-1826.67	  552.13
      3.0700	  612.00	  669.70	-1826.67	  551.89
      3.1700	  639.00	  669.47	-1826.67	  551.66
      3.2700	  693.00	  669.23	-1826.67	  551.42
      3.3700	  932.00	  668.99	-1826.67	  551.18
      3.4700	 1021.00	  668.75	-1826.67	  550.94
      3.5700	 1161.00	  668.50	-1826.67	  550.69
      3.6700	 1278.00	  668.24	-1826.67	  550.43
      3.7700	 1393.00	  667.99	-1826.67	  550.18
      3.8700	 1460.00	  667.73	-1826.67	  549.92
      3.9700	 1477.00	  667.47	-1826.67	  549.66
      4.0700	 1525.00	  667.20	-1826.67	  549.39
      4.1700	 1589.00	  666.93	-1826.67	  549.12
      4.2700	 1567.00	  666.66	-1826.67	  548.85
      4.3700	 1584.00	  666.38	-1826.67	  548.57
      4.4700	 1488.00	  666.10	-1826.67	  548.29
      4.5700	 1476.00	  665.82	-1826.67	  548.01
      4.6700	 1416.00	  665.54	-1826.67	  547.73
      4.7700	 1366.00	  665.25	-1826.67	  547.44
      4.8700	 1295.00	  664.96	-1826.67	  547.15
      4.9700	 1299.00	  664.66	-1826.67	  546.85
      5.0700	 1158.00	  664.36	-1826.67	  546.55
      5.1700	 1290.00	  664.06	-1826.67	  546.25
      5.2700	 1169.00	  663.76	-1826.67	  545.95
      5.3700	 1129.00	  663.45	-1826.67	  545.64
      5.4700	 1119.00	  663.15	-1826.67	  545.34
      5.5700	 1049.00	  662.83	-1826.67	  545.02
      5.6700	 1129.00	  662.52	-1826.67	  544.71
      5.7700	 1048.00	  662.20	-1826.67	  544.39
      5.8700	 1018.00	  661.88	-1826.67	  544.07
      5.9700	  974.00	  661.56	-1826.67	  543.75
      6.0700	 1012.00	  661.23	-1826.67	  543.42
      6.1700	  954.00	  660.90	-1826.67	  543.09
      6.2700	  977.00	  660.57	-1826.67	  542.76
      6.3700	  901.00	  660.24	-1826.67	  542.43
      6.4700	  935.00	  659.90	-1826.67	  542.09
      6.5700	  907.00	  659.56	-1826.67	  541.75
      6.6700	  894.00	  659.22	-1826.67	  541.41
      6.7700	  905.00	  658.88	-1826.67	  541.07
      6.8700	  844.00	  658.53	-1826.67	  540.72
      6.9700	  880.00	  658.19	-1826.67	  540.38
      7.0700	  801.00	  657.83	-1826.67	  540.02
      7.1700	  843.00	  657.48	-1826.67	  539.67
      7.2700	  824.00	  657.13	-1826.67	  539.32
      7.3700	  762.00	  656.77	-1826.67	  538.96
      7.4700	  812.00	  656.41	-1826.67	  538.60
      7.5700	  765.00	  656.05	-1826.67	  538.24
      7.6700	  795.00	  655.68	-1826.67	  537.87
      7.7700	  783.00	  655.32	-1826.67	  537.51
      7.8700	  745.00	  654.95	-1826.67	  537.14
      7.9700	  773.00	  654.58	-1826.67	  536.77
      8.0700	  707.00	  654.21	-1826.67	  536.40
      8.1700	  754.00	  653.83	-1826.67	  536.02
      8.2700	  727.00	  653.46	-1826.67	  535.65
      8.3700	  746.00	  653.08	-1826.67	  535.27
      8.4700	  764.00	  652.70	-1826.67	  534.89
      8.5700	  648.00	  652.32	-1826.67	  534.51
      8.6700	  702.00	  651.93	-1826.67	  534.12
      8.7700	  719.00	  651.55	-1826.67	  533.74
      8.8700	  755.00	  651.16	-1826.67	  533.35
      8.9700	  705.00	  650.77	-1826.67	  532.96
      9.0700	  678.00	  650.38	-1826.67	  532.57
      9.1700	  663.00	  649.99	-1826.67	  532.18
      9.2700	  695.00	  649.59	-1826.67	  531.78
      9.3700	  735.00	  649.20	-1826.67	  531.39
      9.4700	  722.00	  648.80	-1826.67	  530.99
      9.5700	  672.00	  648.40	-1826.67	  530.59
      9.6700	  663.00	  648.00	-1826.67	  530.19
      9.7700	  648.00	  647.60	-1826.67	  529.79
      9.8700	  695.00	  647.20	-1826.67	  529.39
      9.9700	  707.00	  646.79	-1826.67	  528.98
     10.0700	  668.00	  648.69	-1807.36	  528.57
     10.1700	  651.00	  648.55	-1824.22	  528.17
     10.2700	  670.00	  648.45	-1805.12	  527.76
     10.3700	  645.00	  648.43	-1830.10	  527.35
     10.4700	  684.00	  648.52	-1791.19	  526.93
     10.5700	  696.00	  648.76	-1779.44	  526.52
     10.6700	  689.00	  649.24	-1786.91	  526.11
     10.7700	  645.00	  650.03	-1831.71	  525.69
     10.8700	  663.00	  651.25	-1814.92	  525.27
     10.9700	  658.00	  652.94	-1821.61	  524.85
     11.0700	  627.00	  655.15	-1854.82	  524.44
     11.1700	  583.00	  657.90	-1901.57	  524.01
     11.2700	  692.00	  661.20	-1795.87	  523.59
     11.3700	  689.00	  665.14	-1802.81	  523.17
     11.4700	  685.00	  669.83	-1811.50	  522.75
     11.5700	  700.00	  675.46	-1802.13	  522.32
     11.6700	  650.00	  682.29	-1858.96	  521.89
     11.7700	  670.00	  690.62	-1847.29	  521.47
     11.8700	  731.00	  700.63	-1796.30	  521.04
     11.9700	  702.00	  712.12	-1836.79	  520.61
     12.0700	  780.00	  724.02	-1770.69	  520.18
     12.1700	  789.00	  733.85	-1771.52	  519.75
     12.2700	  815.00	  737.40	-1749.07	  519.32
     12.3700	  788.00	  730.30	-1768.97	  518.89
     12.4700	  722.00	  713.24	-1817.91	  518.45
     12.5700	  711.00	  693.08	-1808.75	  518.02
     12.6700	  693.00	  675.64	-1809.31	  517.58
     12.7700	  632.00	  662.75	-1857.42	  517.15
     12.8700	  662.00	  653.99	-1818.66	  516.71
     12.9700	  649.00	  648.26	-1825.93	  516.27
     13.0700	  601.00	  644.47	-1870.14	  515.84
     13.1700	  657.00	  641.83	-1811.50	  515.40
     13.2700	  663.00	  639.87	-1803.54	  514.96
     13.3700	  600.00	  638.31	-1864.98	  514.52
     13.4700	  597.00	  637.00	-1866.67	  514.08
     13.5700	  611.00	  635.88	-1851.55	  513.64
     13.6700	  614.00	  634.88	-1847.55	  513.20
     13.7700	  617.00	  633.99	-1843.66	  512.75
     13.8700	  599.00	  633.17	-1860.84	  512.31
     13.9700	  608.00	  632.42	-1851.09	  511.87
     14.0700	  640.00	  631.71	-1818.38	  511.42
     14.1700	  649.00	  631.04	-1808.71	  510.98
     14.2700	  598.00	  630.40	-1859.07	  510.54
     14.3700	  636.00	  629.79	-1820.46	  510.09
     14.4700	  652.00	  629.19	-1803.86	  509.65
     14.5700	  643.00	  628.62	-1812.29	  509.20
     14.6700	  598.00	  628.06	-1856.73	  508.75
     14.7700	  619.00	  627.51	-1835.18	  508.31
     14.8700	  610.00	  626.98	-1843.65	  507.86
     14.9700	  579.00	  626.45	-1874.12	  507.41
     15.0700	  623.00	  625.93	-1829.60	  506.97
     15.1700	  664.00	  625.42	-1788.09	  506.52
     15.2700	  602.00	  624.91	-1849.58	  506.07
     15.3700	  638.00	  624.41	-1813.08	  505.62
     15.4700	  627.00	  623.92	-1823.59	  505.18
     15.5700	  618.00	  623.43	-1832.10	  504.73
     15.6700	  634.00	  622.94	-1815.61	  504.28
     15.7700	  609.00	  622.45	-1840.12	  503.83
     15.8700	  607.00	  621.97	-1841.64	  503.38
     15.9700	  604.00	  621.49	-1844.16	  502.94
     16.0700	  652.00	  621.02	-1795.69	  502.49
     16.1700	  567.00	  620.54	-1880.21	  502.04
     16.2700	  595.00	  620.07	-1851.74	  501.59
     16.3700	  602.00	  619.60	-1844.27	  501.14
     16.4700	  669.00	  619.13	-1776.80	  500.69
     16.5700	  617.00	  618.66	-1828.33	  500.24
     16.6700	  617.00	  618.20	-1827.87	  499.80
     16.7700	  647.00	  617.73	-1797.40	  499.35
     16.8700	  631.00	  617.27	-1812.94	  498.90
     16.9700	  613.00	  616.81	-1830.48	  498.45
     17.0700	  618.00	  616.35	-1825.02	  498.00
     17.1700	  593.00	  615.89	-1849.56	  497.56
     17.2700	  582.00	  615.43	-1860.10	  497.11
     17.3700	  644.00	  614.97	-1797.64	  496.66
     17.4700	  622.00	  614.51	-1819.18	  496.21
     17.5700	  576.00	  614.06	-1864.73	  495.77
     17.6700	  569.00	  613.60	-1871.27	  495.32
     17.7700	  563.00	  613.15	-1876.82	  494.87
     17.8700	  622.00	  612.70	-1817.37	  494.43
     17.9700	  602.00	  613.01	-1837.68	  493.98
     18.0700	  619.00	  613.03	-1820.70	  493.53
     18.1700	  632.00	  612.61	-1807.28	  493.09
     18.2700	  594.00	  612.18	-1844.85	  492.64
     18.3700	  628.00	  611.76	-1810.43	  492.20
     18.4700	  563.00	  611.34	-1875.01	  491.75
     18.5700	  619.00	  610.92	-1818.59	  491.31
     18.6700	  623.00	  610.50	-1814.17	  490.87
     18.7700	  603.00	  610.08	-1833.75	  490.42
     18.8700	  565.00	  609.67	-1871.34	  489.98
     18.9700	  564.00	  609.25	-1871.92	  489.54
     19.0700	  658.00	  608.84	-1777.51	  489.09
     19.1700	  586.00	  608.43	-1849.10	  488.65
     19.2700	  609.00	  608.02	-1825.69	  488.21
     19.3700	  609.00	  607.62	-1825.29	  487.77
     19.4700	  573.00	  607.28	-1860.95	  487.33
     19.5700	  584.00	  606.88	-1849.55	  486.89
     19.6700	  619.00	  606.49	-1814.16	  486.45
     19.7700	  562.00	  606.09	-1870.76	  486.01
     19.8700	  561.00	  605.70	-1871.37	  485.58
     19.9700	  614.00	  605.31	-1817.98	  485.14
     20.0700	  558.00	  604.92	-1873.59	  484.70
     20.1700	  598.00	  604.54	-1833.21	  484.27
     20.2700	  557.00	  604.15	-1873.82	  483.83
     20.3700	  636.00	  603.78	-1794.45	  483.40
     20.4700	  607.00	  603.40	-1823.07	  482.96
     20.5700	  582.00	  603.03	-1847.70	  482.53
     20.6700	  581.00	  602.66	-1848.33	  482.10
     20.7700	  577.00	  602.30	-1851.97	  481.67
     20.8700	  612.00	  601.94	-1816.61	  481.23
     20.9700	  599.00	  601.58	-1829.25	  480.80
     21.0700	  583.00	  601.23	-1844.90	  480.37
     21.1700	  557.00	  600.88	-1870.55	  479.94
     21.2700	  580.00	  600.54	-1847.21	  479.52
     21.3700	  597.00	  600.20	-1829.87	  479.09
     21.4700	  622.00	  599.87	-1804.54	  478.66
     21.5700	  610.00	  599.54	-1816.22	  478.24
     21.6700	  591.00	  599.23	-1834.90	  477.81
     21.7700	  587.00	  599.09	-1838.76	  477.39
     21.8700	  601.00	  598.79	-1824.46	  476.96
     21.9700	  537.00	  598.50	-1888.17	  476.54
     22.0700	  604.00	  598.21	-1820.88	  476.12
     22.1700	  574.00	  597.94	-1850.61	  475.70
     22.2700	  603.00	  597.68	-1821.35	  475.28
     22.3700	  595.00	  597.42	-1829.09	  474.86
     22.4700	  621.00	  597.19	-1802.86	  474.44
     22.5700	  616.00	  596.96	-1807.63	  474.02
     22.6700	  613.00	  596.75	-1810.42	  473.61
     22.7700	  633.00	  596.56	-1790.24	  473.19
     22.8700	  583.00	  596.40	-1840.07	  472.78
     22.9700	  598.00	  596.25	-1824.92	  472.37
     23.0700	  613.00	  596.14	-1809.81	  471.95
     23.1700	  614.00	  596.06	-1808.73	  471.54
     23.2700	  646.00	  596.02	-1776.69	  471.13
     23.3700	  600.00	  596.02	-1822.69	  470.72
     23.4700	  583.00	  596.09	-1839.76	  470.31
     23.5700	  596.00	  596.23	-1826.90	  469.91
     23.6700	  603.00	  596.47	-1820.14	  469.50
     23.7700	  611.00	  596.86	-1812.53	  469.10
     23.8700	  583.00	  597.45	-1841.12	  468.69
     23.9700	  614.00	  598.34	-1811.01	  468.29
     24.0700	  568.00	  599.72	-1858.39	  467.89
     24.1700	  619.00	  601.85	-1809.52	  467.49
     24.2700	  600.00	  605.02	-1831.69	  467.09
     24.3700	  622.00	  609.78	-1814.45	  466.69
     24.4700	  627.00	  616.38	-1816.05	  466.29
     24.5700	  658.00	  624.86	-1793.53	  465.89
     24.6700	  663.00	  634.73	-1798.40	  465.50
     24.7700	  653.00	  644.66	-1818.33	  465.10
     24.8700	  674.00	  652.20	-1804.87	  464.71
     24.9700	  697.00	  653.92	-1783.59	  464.32
     25.0700	  713.00	  647.99	-1761.66	  463.93
     25.1700	  670.00	  637.05	-1793.72	  463.54
     25.2700	  650.00	  625.71	-1802.38	  463.15
     25.3700	  623.00	  616.60	-1820.27	  462.76
     25.4700	  586.00	  610.26	-1850.93	  462.38
     25.5700	  626.00	  606.31	-1806.98	  461.99
     25.6700	  625.00	  604.12	-1805.80	  461.61
     25.7700	  593.00	  603.11	-1836.78	  461.23
     25.8700	  693.00	  602.86	-1736.53	  460.85
     25.9700	  645.00	  603.13	-1784.80	  460.47
     26.0700	  568.00	  603.80	-1862.47	  460.09
     26.1700	  657.00	  604.84	-1774.51	  459.71
     26.2700	  656.00	  606.23	-1776.90	  459.34
     26.3700	  630.00	  608.00	-1804.67	  458.96
     26.4700	  650.00	  610.19	-1786.87	  458.59
     26.5700	  681.00	  612.88	-1758.55	  458.22
     26.6700	  675.00	  616.15	-1767.82	  457.85
     26.7700	  630.00	  620.13	-1816.80	  457.48
     26.8700	  683.00	  624.98	-1768.65	  457.11
     26.9700	  629.00	  630.95	-1828.62	  456.74
     27.0700	  688.00	  638.35	-1777.02	  456.38
     27.1700	  641.00	  647.68	-1833.35	  456.01
     27.2700	  694.00	  659.70	-1792.37	  455.65
     27.3700	  732.00	  675.80	-1770.47	  455.29
     27.4700	  713.00	  698.69	-1812.36	  454.93
     27.5700	  717.00	  733.70	-1843.37	  454.57
     27.6700	  735.00	  790.69	-1882.36	  454.21
     27.7700	  824.00	  886.20	-1888.87	  453.86
     27.8700	  877.00	 1043.81	-1993.48	  453.50
     27.9700	 1047.00	 1288.70	-2068.37	  453.15
     28.0700	 1389.00	 1633.36	-2071.03	  452.80
     28.1700	 1902.00	 2056.42	-1981.09	  452.45
     28.2700	 2730.00	 2480.35	-1577.02	  452.10
     28.3700	 3036.00	 2761.46	-1552.13	  451.75
     28.4700	 3127.00	 2743.19	-1442.86	  451.40
     28.5700	 2584.00	 2441.45	-1684.13	  451.06
     28.6700	 1985.00	 2087.31	-1928.98	  450.72
     28.7700	 1694.00	 1865.81	-1998.48	  450.37
     28.8700	 1583.00	 1815.10	-2058.77	  450.03
     28.9700	 1877.00	 1872.30	-1821.97	  449.69
     29.0700	 2035.00	 1918.78	-1710.45	  449.36
     29.1700	 1893.00	 1835.12	-1768.79	  449.02
     29.2700	 1630.00	 1601.56	-1798.23	  448.69
     29.3700	 1313.00	 1317.92	-1831.59	  448.35
     29.4700	 1056.00	 1075.20	-1845.87	  448.02
     29.5700	  947.00	  903.14	-1782.81	  447.69
     29.6700	  810.00	  795.13	-1811.80	  447.36
     29.7700	  798.00	  731.86	-1760.53	  447.03
     29.8700	  738.00	  694.93	-1783.60	  446.71
     29.9700	  745.00	  672.07	-1753.74	  446.38
     30.0700	  747.00	  656.82	-1736.49	  446.06
     30.1700	  670.00	  646.29	-1802.96	  445.74
     30.2700	  713.00	  639.40	-1753.07	  445.42
     30.3700	  717.00	  636.12	-1745.79	  445.10
     30.4700	  706.00	  637.20	-1757.87	  444.79
     30.5700	  694.00	  644.02	-1776.69	  444.47
     30.6700	  666.00	  658.18	-1818.85	  444.16
     30.7700	  691.00	  680.33	-1816.00	  443.84
     30.8700	  731.00	  708.64	-1804.31	  443.53
     30.9700	  721.00	  737.45	-1843.12	  443.22
     31.0700	  747.00	  756.72	-1836.40	  442.92
     31.1700	  760.00	  754.78	-1821.45	  442.61
     31.2700	  709.00	  728.94	-1846.61	  442.31
     31.3700	  720.00	  691.50	-1798.17	  442.00
     31.4700	  638.00	  656.26	-1844.93	  441.70
     31.5700	  628.00	  629.28	-1827.95	  441.40
     31.6700	  614.00	  611.06	-1823.73	  441.10
     31.7700	  650.00	  599.67	-1776.34	  440.81
     31.8700	  613.00	  592.75	-1806.42	  440.51
     31.9700	  634.00	  588.41	-1781.08	  440.22
     32.0700	  619.00	  585.50	-1793.18	  439.93
     32.1700	  582.00	  583.44	-1828.11	  439.63
     32.2700	  621.00	  581.94	-1787.61	  439.35
     32.3700	  620.00	  580.89	-1787.56	  439.06
     32.4700	  585.00	  580.19	-1821.86	  438.77
     32.5700	  599.00	  579.82	-1807.49	  438.49
     32.6700	  613.00	  579.81	-1793.48	  438.20
     32.7700	  611.00	  580.16	-1795.83	  437.92
     32.8700	  596.00	  580.93	-1811.61	  437.64
     32.9700	  658.00	  582.22	-1750.89	  437.37
     33.0700	  625.00	  584.16	-1785.83	  437.09
     33.1700	  580.00	  587.02	-1833.69	  436.81
     33.2700	  631.00	  591.31	-1786.98	  436.54
     33.3700	  595.00	  597.98	-1829.65	  436.27
     33.4700	  620.00	  608.76	-1815.43	  436.00
     33.5700	  619.00	  626.53	-1834.20	  435.73
     33.6700	  582.00	  655.37	-1900.04	  435.46
     33.7700	  667.00	  699.88	-1859.56	  435.20
     33.8700	  706.00	  762.93	-1883.60	  434.93
     33.9700	  866.00	  841.98	-1802.66	  434.67
     34.0700	  984.00	  925.40	-1768.07	  434.41
     34.1700	 1076.00	  990.67	-1741.34	  434.15
     34.2700	 1075.00	 1009.02	-1760.69	  433.89
     34.3700	 1028.00	  966.01	-1764.68	  433.64
     34.4700	  904.00	  882.22	-1804.89	  433.38
     34.5700	  794.00	  792.44	-1825.11	  433.13
     34.6700	  655.00	  717.59	-1889.26	  432.88
     34.7700	  636.00	  663.43	-1854.10	  432.63
     34.8700	  657.00	  627.89	-1797.56	  432.38
     34.9700	  566.00	  605.92	-1866.59	  432.14
     35.0700	  648.00	  592.52	-1771.19	  431.89
     35.1700	  610.00	  584.03	-1800.70	  431.65
     35.2700	  564.00	  578.23	-1840.90	  431.41
     35.3700	  573.00	  573.97	-1827.64	  431.17
     35.4700	  562.00	  570.66	-1835.34	  430.93
     35.5700	  542.00	  568.01	-1852.68	  430.69
     35.6700	  604.00	  565.82	-1788.49	  430.46
     35.7700	  524.00	  564.00	-1866.67	  430.22
     35.8700	  550.00	  562.47	-1839.14	  429.99
     35.9700	  527.00	  561.17	-1860.84	  429.76
     36.0700	  562.00	  560.55	-1825.22	  429.53
     36.1700	  530.00	  559.60	-1856.27	  429.30
     36.2700	  551.00	  558.80	-1834.47	  429.08
     36.3700	  557.00	  558.11	-1827.78	  428.85
     36.4700	  572.00	  557.54	-1812.21	  428.63
     36.5700	  515.00	  557.28	-1868.95	  428.41
     36.6700	  570.00	  556.93	-1813.60	  428.19
     36.7700	  550.00	  556.70	-1833.37	  427.97
     36.8700	  542.00	  556.61	-1841.28	  427.76
     36.9700	  521.00	  556.70	-1862.37	  427.54
     37.0700	  521.00	  557.03	-1862.70	  427.33
     37.1700	  550.00	  557.72	-1834.39	  427.12
     37.2700	  575.00	  558.92	-1810.59	  426.91
     37.3700	  547.00	  560.96	-1840.63	  426.70
     37.4700	  601.00	  564.22	-1789.89	  426.49
     37.5700	  584.00	  569.17	-1811.84	  426.29
     37.6700	  528.00	  576.31	-1874.98	  426.08
     37.7700	  593.00	  585.90	-1819.57	  425.88
     37.8700	  580.00	  597.62	-1844.29	  425.68
     37.9700	  628.00	  610.34	-1809.01	  425.48
     38.0700	  596.00	  622.13	-1852.80	  425.28
     38.1700	  673.00	  630.02	-1783.69	  425.09
     38.2700	  633.00	  630.58	-1824.25	  424.89
     38.3700	  588.00	  622.16	-1860.83	  424.70
     38.4700	  597.00	  607.69	-1837.36	  424.51
     38.5700	  569.00	  592.15	-1849.82	  424.32
     38.6700	  558.00	  578.74	-1847.41	  424.13
     38.7700	  542.00	  568.56	-1853.24	  423.95
     38.8700	  560.00	  561.49	-1828.16	  423.76
     38.9700	  544.00	  556.10	-1838.77	  423.58
     39.0700	  596.00	  553.13	-1783.80	  423.40
     39.1700	  526.00	  551.18	-1851.85	  423.22
     39.2700	  538.00	  549.83	-1838.50	  423.04
     39.3700	  542.00	  548.82	-1833.49	  422.86
     39.4700	  564.00	  548.02	-1810.69	  422.68
     39.5700	  555.00	  547.37	-1819.04	  422.51
     39.6700	  569.00	  546.82	-1804.49	  422.34
     39.7700	  577.00	  546.36	-1796.03	  422.17
     39.8700	  546.00	  545.95	-1826.62	  422.00
     39.9700	  533.00	  546.15	-1839.82	  421.83
     40.0700	  580.00	  545.85	-1792.52	  421.66
     40.1700	  564.00	  545.59	-1808.27	  421.50
     40.2700	  531.00	  544.93	-1840.60	  421.33
     40.3700	  547.00	  544.75	-1824.42	  421.17
     40.4700	  524.00	  544.60	-1847.27	  421.01
     40.5700	  537.00	  544.48	-1834.15	  420.85
     40.6700	  524.00	  544.40	-1847.07	  420.69
     40.7700	  512.00	  544.34	-1859.01	  420.54
     40.8700	  512.00	  544.32	-1858.99	  420.38
     40.9700	  526.00	  544.39	-1845.06	  420.23
     41.0700	  476.00	  544.45	-1895.12	  420.08
     41.1700	  526.00	  544.56	-1845.23	  419.93
     41.2700	  569.00	  544.73	-1802.40	  419.78
     41.3700	  543.00	  544.97	-1828.64	  419.63
     41.4700	  557.00	  545.29	-1814.96	  419.49
     41.5700	  541.00	  545.72	-1831.39	  419.34
     41.6700	  523.00	  546.30	-1849.97	  419.20
     41.7700	  522.00	  547.08	-1851.75	  419.06
     41.8700	  540.00	  548.19	-1834.86	  418.92
     41.9700	  552.00	  549.81	-1824.48	  418.78
     42.0700	  589.00	  552.31	-1789.98	  418.64
     42.1700	  515.00	  556.26	-1867.93	  418.51
     42.2700	  547.00	  562.46	-1842.13	  418.37
     42.3700	  556.00	  571.98	-1842.65	  418.24
     42.4700	  568.00	  585.30	-1843.97	  418.11
     42.5700	  566.00	  602.70	-1863.37	  417.98
     42.6700	  580.00	  623.00	-1869.67	  417.85
     42.7700	  589.00	  642.97	-1880.64	  417.72
     42.8700	  609.00	  657.04	-1874.71	  417.60
     42.9700	  571.00	  659.79	-1915.46	  417.47
     43.0700	  652.00	  649.11	-1823.78	  417.35
     43.1700	  614.00	  629.88	-1842.55	  417.23
     43.2700	  597.00	  608.68	-1838.35	  417.11
     43.3700	  587.00	  589.79	-1829.46	  416.99
     43.4700	  558.00	  574.95	-1843.62	  416.87
     43.5700	  573.00	  564.28	-1817.95	  416.76
     43.6700	  559.00	  557.12	-1824.79	  416.64
     43.7700	  540.00	  552.52	-1839.19	  416.53
     43.8700	  544.00	  549.58	-1832.25	  416.42
     43.9700	  556.00	  547.66	-1818.34	  416.31
     44.0700	  553.00	  546.35	-1820.02	  416.20
     44.1700	  527.00	  545.60	-1845.27	  416.09
     44.2700	  531.00	  544.87	-1840.54	  415.98
     44.3700	  544.00	  544.30	-1826.97	  415.88
     44.4700	  512.00	  543.85	-1858.52	  415.77
     44.5700	  575.00	  543.50	-1795.17	  415.67
     44.6700	  535.00	  543.22	-1834.89	  415.57
     44.7700	  559.00	  543.03	-1810.70	  415.47
     44.8700	  538.00	  542.87	-1831.54	  415.37
     44.9700	  548.00	  542.76	-1821.43	  415.27
     45.0700	  551.00	  542.69	-1818.36	  415.18
     45.1700	  525.00	  542.76	-1844.43	  415.08
     45.2700	  543.00	  542.76	-1826.44	  414.99
     45.3700	  542.00	  542.81	-1827.48	  414.90
     45.4700	  551.00	  542.89	-1818.56	  414.81
     45.5700	  519.00	  543.00	-1850.67	  414.72
     45.6700	  537.00	  543.15	-1832.82	  414.63
     45.7700	  559.00	  543.40	-1811.07	  414.54
     45.8700	  556.00	  543.62	-1814.29	  414.45
     45.9700	  582.00	  543.88	-1788.55	  414.37
     46.0700	  564.00	  544.18	-1806.85	  414.29
     46.1700	  574.00	  544.53	-1797.20	  414.20
     46.2700	  585.00	  544.93	-1786.60	  414.12
     46.3700	  574.00	  545.40	-1798.07	  414.04
     46.4700	  547.00	  545.93	-1825.60	  413.96
     46.5700	  536.00	  546.55	-1837.22	  413.89
     46.6700	  615.00	  547.26	-1758.93	  413.81
     46.7700	  536.00	  547.91	-1838.58	  413.74
     46.8700	  531.00	  548.90	-1844.57	  413.66
     46.9700	  601.00	  550.11	-1775.78	  413.59
     47.0700	  588.00	  551.64	-1790.31	  413.52
     47.1700	  547.00	  553.68	-1833.35	  413.45
     47.2700	  557.00	  556.52	-1826.19	  413.38
     47.3700	  554.00	  560.60	-1833.27	  413.31
     47.4700	  487.00	  566.49	-1906.16	  413.24
     47.5700	  522.00	  574.80	-1879.47	  413.18
     47.6700	  556.00	  585.94	-1856.61	  413.11
     47.7700	  573.00	  599.94	-1853.61	  413.05
     47.8700	  613.00	  616.44	-1830.11	  412.99
     47.9700	  684.00	  632.51	-1775.18	  412.93
     48.0700	  659.00	  645.13	-1812.80	  412.87
     48.1700	  635.00	  650.41	-1842.08	  412.81
     48.2700	  661.00	  646.72	-1812.39	  412.75
     48.3700	  649.00	  636.31	-1813.99	  412.69
     48.4700	  610.00	  623.43	-1840.10	  412.64
     48.5700	  645.00	  611.44	-1793.11	  412.58
     48.6700	  545.00	  602.17	-1883.84	  412.53
     48.7700	  607.00	  596.27	-1815.94	  412.48
     48.8700	  565.00	  593.74	-1855.41	  412.43
     48.9700	  585.00	  594.23	-1835.90	  412.38
     49.0700	  590.00	  597.39	-1834.06	  412.33
     49.1700	  606.00	  603.04	-1823.71	  412.28
     49.2700	  555.00	  611.46	-1883.13	  412.23
     49.3700	  628.00	  623.65	-1822.32	  412.18
     49.4700	  645.00	  642.05	-1823.72	  412.14
     49.5700	  614.00	  671.55	-1884.22	  412.09
     49.6700	  689.00	  720.82	-1858.49	  412.05
     49.7700	  787.00	  803.23	-1842.90	  412.01
     49.8700	  905.00	  935.78	-1857.45	  411.97
     49.9700	 1126.00	 1134.59	-1835.26	  411.93
     50.0700	 1395.00	 1406.59	-1838.26	  411.89
     50.1700	 1778.00	 1738.67	-1787.34	  411.85
     50.2700	 2154.00	 2087.43	-1760.10	  411.81
     50.3700	 2459.00	 2372.82	-1740.49	  411.78
     50.4700	 2615.00	 2497.63	-1709.30	  411.74
     50.5700	 2486.00	 2406.12	-1746.79	  411.71
     50.6700	 2189.00	 2138.60	-1776.27	  411.67
     50.7700	 1760.00	 1794.77	-1861.44	  411.64
     50.8700	 1369.00	 1461.25	-1918.92	  411.61
     50.9700	 1010.00	 1186.63	-2003.30	  411.58
     51.0700	  925.00	  986.90	-1888.57	  411.55
     51.1700	  775.00	  856.21	-1907.88	  411.52
     51.2700	  753.00	  777.57	-1851.24	  411.49
     51.3700	  703.00	  731.72	-1855.39	  411.46
     51.4700	  667.00	  702.83	-1862.50	  411.43
     51.5700	  656.00	  681.12	-1851.79	  411.41
     51.6700	  655.00	  662.52	-1834.19	  411.38
     51.7700	  672.00	  646.26	-1800.93	  411.36
     51.8700	  654.00	  632.52	-1805.20	  411.34
     51.9700	  584.00	  621.55	-1864.22	  411.31
     52.0700	  645.00	  613.29	-1794.96	  411.29
     52.1700	  633.00	  607.49	-1801.16	  411.27
     52.2700	  583.00	  603.85	-1847.52	  411.25
     52.3700	  625.00	  602.12	-1803.79	  411.23
     52.4700	  645.00	  602.18	-1783.85	  411.22
     52.5700	  623.00	  604.17	-1807.84	  411.20
     52.6700	  636.00	  608.55	-1799.22	  411.18
     52.7700	  616.00	  616.27	-1826.94	  411.17
     52.8700	  660.00	  628.91	-1795.58	  411.15
     52.9700	  644.00	  648.86	-1831.53	  411.14
     53.0700	  670.00	  678.94	-1835.61	  411.12
     53.1700	  743.00	  722.36	-1806.03	  411.11
     53.2700	  780.00	  781.58	-1828.25	  411.10
     53.3700	  879.00	  857.19	-1804.86	  411.08
     53.4700	  970.00	  946.39	-1803.06	  411.07
     53.5700	 1049.00	 1041.14	-1818.81	  411.06
     53.6700	 1202.00	 1126.44	-1751.11	  411.05
     53.7700	 1294.00	 1181.26	-1713.93	  411.05
     53.8700	 1175.00	 1187.14	-1838.81	  411.04
     53.9700	 1156.00	 1141.68	-1812.35	  411.03
     54.0700	 1062.00	 1060.96	-1825.63	  411.02
     54.1700	 1016.00	  966.96	-1777.63	  411.02
     54.2700	  912.00	  876.37	-1791.04	  411.01
     54.3700	  802.00	  798.45	-1823.13	  411.01
     54.4700	  699.00	  736.80	-1864.47	  411.00
     54.5700	  671.00	  691.33	-1847.00	  411.00
     54.6700	  675.00	  659.80	-1811.47	  411.00
     54.7700	  694.00	  639.08	-1771.75	  410.99
     54.8700	  678.00	  626.12	-1774.79	  410.99
     54.9700	  680.00	  618.43	-1765.10	  410.99
     55.0700	  625.00	  614.24	-1815.91	  410.99
     55.1700	  599.00	  612.44	-1840.11	  410.99
     55.2700	  623.00	  612.41	-1816.08	  410.99
     55.3700	  609.00	  613.82	-1831.49	  410.99
     55.4700	  607.00	  616.58	-1836.25	  410.99
     55.5700	  633.00	  620.75	-1814.42	  411.00
     55.6700	  639.00	  626.50	-1814.17	  411.00
     55.7700	  627.00	  634.24	-1833.91	  411.00
     55.8700	  576.00	  644.73	-1895.40	  411.01
     55.9700	  715.00	  659.38	-1771.05	  411.01
     56.0700	  695.00	  680.64	-1812.31	  411.01
     56.1700	  673.00	  712.71	-1866.38	  411.02
     56.2700	  784.00	  762.03	-1804.70	  411.02
     56.3700	  806.00	  837.48	-1858.15	  411.03
     56.4700	  879.00	  949.65	-1897.32	  411.04
     56.5700	 1099.00	 1108.74	-1836.41	  411.04
     56.6700	 1357.00	 1321.11	-1790.78	  411.05
     56.7700	 1584.00	 1584.66	-1827.33	  411.06
     56.8700	 1918.00	 1883.93	-1792.60	  411.07
     56.9700	 2156.00	 2184.96	-1855.63	  411.08
     57.0700	 2481.00	 2432.62	-1778.30	  411.09
     57.1700	 2591.00	 2560.50	-1796.17	  411.10
     57.2700	 2491.00	 2524.42	-1860.09	  411.11
     57.3700	 2281.00	 2337.52	-1883.19	  411.12
     57.4700	 1953.00	 2059.76	-1933.43	  411.13
     57.5700	 1704.00	 1756.20	-1878.87	  411.14
     57.6700	 1418.00	 1472.90	-1881.57	  411.15
     57.7700	 1146.00	 1235.01	-1915.68	  411.16
     57.8700	 1003.00	 1051.60	-1875.27	  411.17
     57.9700	  910.00	  920.93	-1837.60	  411.19
     58.0700	  810.00	  835.28	-1851.95	  411.20
     58.1700	  795.00	  785.38	-1817.05	  411.21
     58.2700	  752.00	  763.29	-1837.96	  411.23
     58.3700	  743.00	  763.81	-1847.48	  411.24
     58.4700	  834.00	  784.26	-1776.94	  411.26
     58.5700	  856.00	  823.46	-1794.14	  411.27
     58.6700	  882.00	  880.18	-1824.85	  411.28
     58.7700	  914.00	  951.52	-1864.19	  411.30
     58.8700	 1074.00	 1031.45	-1784.12	  411.31
     58.9700	 1037.00	 1110.42	-1900.09	  411.33
     59.0700	 1207.00	 1178.08	-1797.75	  411.35
     59.1700	 1167.00	 1228.15	-1887.82	  411.36
     59.2700	 1245.00	 1259.05	-1840.72	  411.38
     59.3700	 1329.00	 1269.22	-1766.89	  411.39
     59.4700	 1285.00	 1257.30	-1798.97	  411.41
     59.5700	 1289.00	 1228.16	-1765.84	  411.43
     59.6700	 1185.00	 1193.87	-1835.54	  411.45
     59.7700	 1177.00	 1167.27	-1816.95	  411.46
     59.8700	 1134.00	 1157.21	-1849.88	  411.48
     59.9700	 1130.00	 1169.12	-1865.79	  411.50
     60.0700	 1206.00	 1206.90	-1827.57	  411.52
     60.1700	 1292.00	 1271.69	-1806.36	  411.53
     60.2700	 1423.00	 1358.20	-1761.87	  411.55
     60.3700	 1525.00	 1452.05	-1753.72	  411.57
     60.4700	 1611.00	 1529.32	-1744.99	  411.59
     60.5700	 1629.00	 1561.61	-1759.28	  411.61
     60.6700	 1542.00	 1529.72	-1814.39	  411.63
     60.7700	 1462.00	 1437.28	-1801.95	  411.64
     60.8700	 1349.00	 1307.21	-1784.88	  411.66
     60.9700	 1131.00	 1166.03	-1861.70	  411.68
     61.0700	 1027.00	 1033.71	-1833.39	  411.70
     61.1700	  915.00	  922.24	-1833.91	  411.72
     61.2700	  811.00	  836.97	-1852.64	  411.74
     61.3700	  779.00	  778.68	-1826.35	  411.76
     61.4700	  820.00	  745.72	-1752.39	  411.78
     61.5700	  777.00	  735.95	-1785.62	  411.80
     61.6700	  809.00	  748.15	-1765.82	  411.82
     61.7700	  842.00	  782.40	-1767.07	  411.83
     61.8700	  872.00	  839.49	-1794.16	  411.85
     61.9700	  990.00	  919.51	-1756.18	  411.87
     62.0700	 1093.00	 1020.18	-1753.85	  411.89
     62.1700	 1103.00	 1135.13	-1858.80	  411.91
     62.2700	 1253.00	 1252.23	-1825.90	  411.93
     62.3700	 1373.00	 1352.95	-1806.62	  411.95
     62.4700	 1380.00	 1414.39	-1861.06	  411.97
     62.5700	 1429.00	 1418.23	-1815.90	  411.99
     62.6700	 1337.00	 1362.67	-1852.34	  412.01
     62.7700	 1257.00	 1263.78	-1833.45	  412.03
     62.8700	 1089.00	 1144.57	-1882.24	  412.05
     62.9700	  985.00	 1024.54	-1866.21	  412.06
     63.0700	  885.00	  916.52	-1858.19	  412.08
     63.1700	  733.00	  827.24	-1920.91	  412.10
     63.2700	  713.00	  758.68	-1872.35	  412.12
     63.3700	  709.00	  709.47	-1827.14	  412.14
     63.4700	  627.00	  676.44	-1876.11	  412.16
     63.5700	  644.00	  655.95	-1838.62	  412.18
     63.6700	  700.00	  644.86	-1771.53	  412.19
     63.7700	  659.00	  640.99	-1808.66	  412.21
     63.8700	  631.00	  643.35	-1839.02	  412.23
     63.9700	  644.00	  652.12	-1834.79	  412.25
     64.0700	  674.00	  668.33	-1821.00	  412.26
     64.1700	  739.00	  693.62	-1781.29	  412.28
     64.2700	  716.00	  729.80	-1840.47	  412.30
     64.3700	  739.00	  778.32	-1865.99	  412.32
     64.4700	  834.00	  839.72	-1832.39	  412.33
     64.5700	  952.00	  912.19	-1786.86	  412.35
     64.6700	 1058.00	  991.86	-1760.53	  412.37
     64.7700	 1105.00	 1071.20	-1792.87	  412.38
     64.8700	 1158.00	 1139.66	-1808.33	  412.40
     64.9700	 1196.00	 1185.71	-1816.38	  412.41
     65.0700	 1214.00	 1200.71	-1813.38	  412.43
     65.1700	 1190.00	 1183.18	-1819.85	  412.44
     65.2700	 1132.00	 1137.45	-1832.12	  412.46
     65.3700	 1066.00	 1073.13	-1833.80	  412.47
     65.4700	  981.00	 1001.26	-1846.93	  412.49
     65.5700	  879.00	  930.70	-1878.37	  412.50
     65.6700	  823.00	  866.80	-1870.47	  412.52
     65.7700	  795.00	  811.76	-1843.43	  412.53
     65.8700	  729.00	  765.96	-1863.63	  412.54
     65.9700	  703.00	  728.83	-1852.50	  412.55
     66.0700	  690.00	  699.66	-1836.33	  412.57
     66.1700	  677.00	  677.46	-1827.13	  412.58
     66.2700	  671.00	  661.21	-1816.88	  412.59
     66.3700	  645.00	  649.66	-1831.33	  412.60
     66.4700	  651.00	  641.87	-1817.54	  412.61
     66.5700	  610.00	  637.28	-1853.95	  412.62
     66.6700	  577.00	  635.46	-1885.13	  412.64
     66.7700	  633.00	  636.23	-1829.90	  412.65
     66.8700	  636.00	  639.63	-1830.30	  412.65
     66.9700	  661.00	  646.04	-1811.71	  412.66
     67.0700	  659.00	  656.37	-1824.04	  412.67
     67.1700	  649.00	  672.21	-1849.88	  412.68
     67.2700	  689.00	  696.14	-1833.81	  412.69
     67.3700	  720.00	  731.89	-1838.56	  412.70
     67.4700	  799.00	  784.44	-1812.11	  412.70
     67.5700	  857.00	  859.58	-1829.26	  412.71
     67.6700	  923.00	  963.44	-1867.11	  412.72
     67.7700	 1067.00	 1100.96	-1860.63	  412.72
     67.8700	 1281.00	 1274.35	-1820.02	  412.73
     67.9700	 1464.00	 1481.15	-1843.82	  412.73
     68.0700	 1691.00	 1712.56	-1848.23	  412.74
     68.1700	 1973.00	 1951.68	-1805.35	  412.74
     68.2700	 2272.00	 2172.19	-1726.87	  412.75
     68.3700	 2346.00	 2339.34	-1820.01	  412.75
     68.4700	 2422.00	 2417.97	-1822.64	  412.75
     68.5700	 2398.00	 2388.11	-1816.78	  412.75
     68.6700	 2215.00	 2257.56	-1869.24	  412.76
     68.7700	 2096.00	 2056.77	-1787.44	  412.76
     68.8700	 1735.00	 1822.26	-1913.94	  412.76
     68.9700	 1577.00	 1584.68	-1834.35	  412.76
     69.0700	 1337.00	 1365.10	-1854.77	  412.76
     69.1700	 1085.00	 1175.80	-1917.47	  412.75
     69.2700	 1013.00	 1021.94	-1835.61	  412.75
     69.3700	  912.00	  903.20	-1817.87	  412.75
     69.4700	  871.00	  815.63	-1771.30	  412.75
     69.5700	  747.00	  753.46	-1833.13	  412.74
     69.6700	  660.00	  710.56	-1877.23	  412.74
     69.7700	  661.00	  681.49	-1847.16	  412.74
     69.8700	  675.00	  661.87	-1813.54	  412.73
     69.9700	  671.00	  648.54	-1804.21	  412.73
     70.0700	  659.00	  639.36	-1807.03	  412.72
     70.1700	  643.00	  632.97	-1816.64	  412.71
     70.2700	  615.00	  628.60	-1840.27	  412.70
     70.3700	  634.00	  625.75	-1818.42	  412.70
     70.4700	  644.00	  624.22	-1806.89	  412.69
     70.5700	  654.00	  623.95	-1796.62	  412.68
     70.6700	  611.00	  625.01	-1840.68	  412.67
     70.7700	  626.00	  627.64	-1828.31	  412.66
     70.8700	  654.00	  632.31	-1804.98	  412.65
     70.9700	  657.00	  639.61	-1809.28	  412.63
     71.0700	  682.00	  651.15	-1795.82	  412.62
     71.1700	  715.00	  668.56	-1780.23	  412.61
     71.2700	  680.00	  694.30	-1840.97	  412.59
     71.3700	  749.00	  732.39	-1810.06	  412.58
     71.4700	  801.00	  784.58	-1810.25	  412.56
     71.5700	  861.00	  855.36	-1821.03	  412.55
     71.6700	  913.00	  947.67	-1861.34	  412.53
     71.7700	 1122.00	 1062.88	-1767.55	  412.51
     71.8700	 1208.00	 1199.86	-1818.53	  412.49
     71.9700	 1368.00	 1354.04	-1812.71	  412.48
     72.0700	 1509.00	 1516.59	-1834.26	  412.46
     72.1700	 1692.00	 1673.69	-1808.36	  412.43
     72.2700	 1813.00	 1806.34	-1820.01	  412.41
     72.3700	 1859.00	 1892.83	-1860.50	  412.39
     72.4700	 1857.00	 1915.30	-1884.97	  412.37
     72.5700	 1927.00	 1868.53	-1768.20	  412.35
     72.6700	 1756.00	 1762.94	-1833.61	  412.32
     72.7700	 1521.00	 1618.73	-1924.40	  412.30
     72.8700	 1460.00	 1457.19	-1823.86	  412.27
     72.9700	 1257.00	 1295.56	-1865.23	  412.24
     73.0700	 1209.00	 1145.82	-1763.49	  412.22
     73.1700	  996.00	 1015.12	-1845.79	  412.19
     73.2700	  873.00	  906.70	-1860.37	  412.16
     73.3700	  836.00	  820.68	-1811.35	  412.13
     73.4700	  780.00	  755.09	-1801.76	  412.10
     73.5700	  711.00	  706.71	-1822.38	  412.07
     73.6700	  702.00	  671.95	-1796.62	  412.04
     73.7700	  708.00	  647.45	-1766.12	  412.00
     73.8700	  631.00	  630.34	-1826.01	  411.97
     73.9700	  647.00	  618.45	-1798.12	  411.93
     74.0700	  641.00	  610.21	-1795.88	  411.90
     74.1700	  650.00	  604.56	-1781.23	  411.86
     74.2700	  637.00	  600.83	-1790.50	  411.83
     74.3700	  654.00	  598.02	-1770.69	  411.79
     74.4700	  611.00	  596.94	-1812.61	  411.75
     74.5700	  621.00	  596.74	-1802.41	  411.71
     74.6700	  650.00	  597.17	-1773.84	  411.67
     74.7700	  640.00	  597.91	-1784.59	  411.63
     74.8700	  680.00	  598.62	-1745.29	  411.58
     74.9700	  671.00	  598.89	-1754.56	  411.54
     75.0700	  648.00	  598.41	-1777.08	  411.50
     75.1700	  655.00	  597.07	-1768.74	  411.45
     75.2700	  666.00	  595.06	-1755.73	  411.41
     75.3700	  645.00	  592.76	-1774.43	  411.36
     75.4700	  661.00	  590.70	-1756.37	  411.31
     75.5700	  688.00	  589.40	-1728.07	  411.26
     75.6700	  633.00	  589.43	-1783.10	  411.21
     75.7700	  633.00	  591.28	-1784.95	  411.16
     75.8700	  620.00	  595.67	-1802.34	  411.11
     75.9700	  622.00	  603.13	-1807.80	  411.06
     76.0700	  607.00	  614.20	-1833.87	  411.01
     76.1700	  704.00	  629.27	-1751.94	  410.95
     76.2700	  677.00	  648.52	-1798.19	  410.90
     76.3700	  706.00	  671.75	-1792.42	  410.84
     76.4700	  726.00	  698.20	-1798.87	  410.79
     76.5700	  724.00	  726.82	-1829.49	  410.73
     76.6700	  766.00	  755.57	-1816.24	  410.67
     76.7700	  786.00	  781.80	-1822.47	  410.61
     76.8700	  790.00	  802.25	-1838.92	  410.55
     76.9700	  799.00	  813.63	-1841.30	  410.49
     77.0700	  841.00	  813.72	-1799.39	  410.42
     77.1700	  814.00	  802.42	-1815.09	  410.36
     77.2700	  760.00	  781.78	-1848.45	  410.30
     77.3700	  790.00	  755.03	-1791.70	  410.23
     77.4700	  650.00	  725.44	-1902.11	  410.16
     77.5700	  678.00	  695.72	-1844.39	  410.10
     77.6700	  667.00	  667.80	-1827.47	  410.03
     77.7700	  646.00	  642.94	-1823.61	  409.96
     77.8700	  574.00	  621.78	-1874.45	  409.89
     77.9700	  614.00	  604.50	-1817.17	  409.82
     78.0700	  619.00	  590.89	-1798.56	  409.74
     78.1700	  553.00	  580.51	-1854.18	  409.67
     78.2700	  624.00	  572.82	-1775.49	  409.60
     78.3700	  588.00	  567.04	-1805.71	  409.52
     78.4700	  553.00	  563.07	-1836.74	  409.45
     78.5700	  556.00	  560.27	-1830.94	  409.37
     78.6700	  558.00	  558.30	-1826.97	  409.29
     78.7700	  561.00	  556.88	-1822.55	  409.21
     78.8700	  527.00	  555.95	-1855.62	  409.13
     78.9700	  549.00	  555.35	-1833.02	  409.05
     79.0700	  566.00	  555.02	-1815.69	  408.97
     79.1700	  518.00	  554.94	-1863.61	  408.88
     79.2700	  618.00	  555.10	-1763.78	  408.80
     79.3700	  544.00	  555.53	-1838.20	  408.71
     79.4700	  548.00	  556.24	-1834.91	  408.63
     79.5700	  508.00	  557.29	-1875.96	  408.54
     79.6700	  557.00	  558.76	-1828.43	  408.45
     79.7700	  548.00	  560.74	-1839.41	  408.36
     79.8700	  546.00	  563.39	-1844.06	  408.27
     79.9700	  587.00	  566.93	-1806.60	  408.18
     80.0700	  564.00	  571.64	-1834.31	  408.09
     80.1700	  603.00	  577.93	-1801.60	  407.99
     80.2700	  563.00	  586.27	-1849.94	  407.90
     80.3700	  599.00	  597.26	-1824.93	  407.80
     80.4700	  621.00	  611.50	-1817.17	  407.71
     80.5700	  628.00	  629.65	-1828.32	  407.61
     80.6700	  679.00	  652.27	-1799.94	  407.51
     80.7700	  681.00	  679.74	-1825.41	  407.41
     80.8700	  737.00	  712.08	-1801.75	  407.31
     80.9700	  777.00	  748.60	-1798.28	  407.21
     81.0700	  780.00	  788.56	-1835.23	  407.10
     81.1700	  836.00	  829.82	-1820.49	  407.00
     81.2700	  904.00	  869.79	-1792.46	  406.89
     81.3700	  980.00	  905.42	-1752.09	  406.79
     81.4700	  980.00	  933.87	-1780.54	  406.68
     81.5700	  942.00	  953.13	-1837.80	  406.57
     81.6700	  964.00	  962.34	-1825.01	  406.46
     81.7700	  949.00	  961.63	-1839.30	  406.35
     81.8700	  984.00	  951.89	-1794.56	  406.24
     81.9700	  898.00	  934.61	-1863.28	  406.13
     82.0700	  852.00	  911.60	-1886.27	  406.01
     82.1700	  856.00	  884.60	-1855.27	  405.90
     82.2700	  856.00	  855.22	-1825.89	  405.78
     82.3700	  793.00	  824.94	-1858.62	  405.67
     82.4700	  790.00	  795.12	-1831.79	  405.55
     82.5700	  733.00	  766.73	-1860.40	  405.43
     82.6700	  708.00	  740.23	-1858.90	  405.31
     82.7700	  695.00	  715.67	-1847.34	  405.19
     82.8700	  640.00	  692.92	-1879.59	  405.07
     82.9700	  660.00	  671.94	-1838.61	  404.95
     83.0700	  636.00	  652.89	-1843.56	  404.82
     83.1700	  535.00	  636.01	-1927.68	  404.70
     83.2700	  602.00	  621.56	-1846.23	  404.57
     83.3700	  584.00	  609.70	-1852.37	  404.44
     83.4700	  596.00	  600.53	-1831.20	  404.31
     83.5700	  585.00	  594.02	-1835.69	  404.18
     83.6700	  594.00	  590.05	-1822.73	  404.05
     83.7700	  554.00	  588.42	-1861.09	  403.92
     83.8700	  597.00	  588.80	-1818.47	  403.79
     83.9700	  540.00	  590.78	-1877.45	  403.66
     84.0700	  575.00	  593.83	-1845.50	  403.52
     84.1700	  597.00	  597.35	-1827.02	  403.39
     84.2700	  586.00	  600.67	-1841.34	  403.25
     84.3700	  643.00	  603.10	-1786.77	  403.11
     84.4700	  606.00	  604.01	-1824.69	  402.97
     84.5700	  640.00	  603.04	-1789.71	  402.83
     84.6700	  626.00	  599.97	-1800.64	  402.69
     84.7700	  602.00	  595.44	-1820.11	  402.55
     84.8700	  614.00	  589.77	-1802.44	  402.41
     84.9700	  574.00	  583.52	-1836.20	  402.26
     85.0700	  550.00	  577.19	-1853.86	  402.12
     85.1700	  570.00	  571.17	-1827.84	  401.97
     85.2700	  589.00	  565.77	-1803.44	  401.83
     85.3700	  523.00	  561.20	-1864.87	  401.68
     85.4700	  524.00	  557.61	-1860.28	  401.53
     85.5700	  562.00	  555.05	-1819.72	  401.38
     85.6700	  576.00	  553.56	-1804.23	  401.23
     85.7700	  557.00	  553.12	-1822.79	  401.08
     85.8700	  573.00	  553.70	-1807.37	  400.92
     85.9700	  547.00	  555.28	-1834.95	  400.77
     86.0700	  549.00	  557.82	-1835.50	  400.61
     86.1700	  610.00	  561.29	-1777.96	  400.46
     86.2700	  579.00	  565.63	-1813.30	  400.30
     86.3700	  599.00	  570.80	-1798.47	  400.14
     86.4700	  623.00	  576.71	-1780.38	  399.98
     86.5700	  589.00	  583.28	-1820.95	  399.82
     86.6700	  583.00	  590.34	-1834.01	  399.66
     86.7700	  582.00	  597.80	-1842.47	  399.50
     86.8700	  549.00	  605.50	-1883.17	  399.34
     86.9700	  569.00	  613.36	-1871.03	  399.17
     87.0700	  635.00	  621.44	-1813.11	  399.01
     87.1700	  614.00	  629.87	-1842.54	  398.84
     87.2700	  621.00	  638.80	-1844.47	  398.68
     87.3700	  636.00	  648.24	-1838.91	  398.51
     87.4700	  664.00	  658.03	-1820.70	  398.34
     87.5700	  644.00	  667.78	-1850.45	  398.17
     87.6700	  706.00	  676.85	-1797.52	  398.00
     87.7700	  650.00	  684.40	-1861.07	  397.83
     87.8700	  700.00	  689.48	-1816.15	  397.66
     87.9700	  650.00	  691.25	-1867.92	  397.48
     88.0700	  712.00	  689.25	-1803.92	  397.31
     88.1700	  687.00	  683.56	-1823.23	  397.13
     88.2700	  656.00	  674.77	-1845.44	  396.96
     88.3700	  680.00	  663.75	-1810.42	  396.78
     88.4700	  606.00	  651.51	-1872.18	  396.60
     88.5700	  620.00	  638.94	-1845.62	  396.42
     88.6700	  632.00	  626.87	-1821.54	  396.24
     88.7700	  584.00	  615.93	-1858.60	  396.06
     88.8700	  567.00	  606.61	-1866.28	  395.88
     88.9700	  610.00	  599.22	-1815.89	  395.70
     89.0700	  620.00	  593.43	-1800.10	  395.51
     89.1700	  655.00	  590.15	-1761.82	  395.33
     89.2700	  620.00	  588.74	-1795.41	  395.14
     89.3700	  609.00	  588.92	-1806.59	  394.96
     89.4700	  580.00	  590.29	-1836.96	  394.77
     89.5700	  630.00	  592.37	-1789.04	  394.58
     89.6700	  610.00	  594.63	-1811.30	  394.39
     89.7700	  571.00	  596.51	-1852.18	  394.20
     89.8700	  641.00	  597.49	-1783.16	  394.01
     89.9700	  583.00	  597.17	-1840.84	  393.82
     90.0700	  613.00	  595.37	-1809.04	  393.63
     90.1700	  666.00	  592.17	-1752.84	  393.44
     90.2700	  597.00	  587.84	-1817.51	  393.24
     90.3700	  593.00	  582.73	-1816.40	  393.05
     90.4700	  586.00	  577.23	-1817.90	  392.86
     90.5700	  586.00	  571.67	-1812.34	  392.66
     90.6700	  604.00	  566.33	-1789.00	  392.46
     90.7700	  553.00	  561.42	-1835.09	  392.26
     90.8700	  543.00	  557.07	-1840.74	  392.07
     90.9700	  557.00	  553.37	-1823.04	  391.87
     91.0700	  556.00	  550.36	-1821.03	  391.67
     91.1700	  491.00	  548.04	-1883.71	  391.47
     91.2700	  558.00	  546.36	-1815.03	  391.27
     91.3700	  544.00	  545.30	-1827.97	  391.06
     91.4700	  473.00	  544.81	-1898.48	  390.86
     91.5700	  577.00	  544.86	-1794.53	  390.66
     91.6700	  510.00	  545.45	-1862.12	  390.45
     91.7700	  551.00	  546.60	-1822.27	  390.25
     91.8700	  536.00	  548.38	-1839.05	  390.04
     91.9700	  532.00	  550.89	-1845.56	  389.84
     92.0700	  529.00	  554.26	-1851.93	  389.63
     92.1700	  556.00	  558.67	-1829.34	  389.42
     92.2700	  567.00	  564.32	-1823.99	  389.21
     92.3700	  544.00	  571.40	-1854.07	  389.00
     92.4700	  567.00	  580.14	-1839.81	  388.80
     92.5700	  600.00	  590.70	-1817.37	  388.59
     92.6700	  564.00	  603.22	-1865.89	  388.37
     92.7700	  583.00	  617.78	-1861.45	  388.16
     92.8700	  645.00	  634.34	-1816.01	  387.95
     92.9700	  582.00	  652.75	-1897.42	  387.74
     93.0700	  630.00	  672.75	-1869.42	  387.52
     93.1700	  663.00	  693.92	-1857.59	  387.31
     93.2700	  703.00	  715.69	-1839.36	  387.10
     93.3700	  700.00	  737.33	-1864.00	  386.88
     93.4700	  718.00	  758.03	-1866.70	  386.67
     93.5700	  748.00	  777.02	-1855.69	  386.45
     93.6700	  712.00	  793.72	-1908.39	  386.23
     93.7700	  786.00	  807.96	-1848.63	  386.02
     93.8700	  782.00	  819.98	-1864.65	  385.80
     93.9700	  772.00	  830.32	-1884.99	  385.58
     94.0700	  814.00	  839.62	-1852.29	  385.36
     94.1700	  813.00	  848.43	-1862.10	  385.14
     94.2700	  848.00	  857.10	-1835.77	  384.92
     94.3700	  895.00	  865.85	-1797.52	  384.70
     94.4700	  822.00	  874.80	-1879.47	  384.48
     94.5700	  906.00	  883.81	-1804.48	  384.26
     94.6700	  868.00	  893.72	-1852.39	  384.04
     94.7700	  927.00	  904.36	-1804.03	  383.82
     94.8700	  879.00	  915.64	-1863.31	  383.60
     94.9700	  929.00	  927.14	-1824.81	  383.37
     95.0700	  918.00	  938.01	-1846.69	  383.15
     95.1700	  962.00	  947.04	-1811.71	  382.93
     95.2700	 1016.00	  952.75	-1763.42	  382.70
     95.3700	  944.00	  953.67	-1836.34	  382.48
     95.4700	  933.00	  948.67	-1842.34	  382.26
     95.5700	  960.00	  937.33	-1804.00	  382.03
     95.6700	  958.00	  920.05	-1788.72	  381.81
     95.7700	  933.00	  897.99	-1791.67	  381.58
     95.8700	  864.00	  872.82	-1835.49	  381.36
     95.9700	  843.00	  846.39	-1830.06	  381.13
     96.0700	  797.00	  820.56	-1850.23	  380.90
     96.1700	  790.00	  797.10	-1833.77	  380.68
     96.2700	  793.00	  777.61	-1811.28	  380.45
     96.3700	  759.00	  763.53	-1831.20	  380.22
     96.4700	  754.00	  756.08	-1828.75	  380.00
     96.5700	  790.00	  756.33	-1793.00	  379.77
     96.6700	  717.00	  765.09	-1874.76	  379.54
     96.7700	  765.00	  783.00	-1844.67	  379.32
     96.8700	  819.00	  810.45	-1818.12	  379.09
     96.9700	  892.00	  847.55	-1782.22	  378.86
     97.0700	  868.00	  894.15	-1852.83	  378.63
     97.1700	  943.00	  949.70	-1833.37	  378.40
     97.2700	 1019.00	 1013.22	-1820.90	  378.18
     97.3700	 1039.00	 1083.30	-1870.98	  377.95
     97.4700	 1104.00	 1157.95	-1880.62	  377.72
     97.5700	 1245.00	 1234.65	-1816.32	  377.49
     97.6700	 1284.00	 1310.26	-1852.93	  377.26
     97.7700	 1393.00	 1381.07	-1814.74	  377.03
     97.8700	 1410.00	 1443.02	-1859.69	  376.81
     97.9700	 1481.00	 1491.88	-1837.55	  376.58
     98.0700	 1475.00	 1523.98	-1875.65	  376.35
     98.1700	 1532.00	 1536.82	-1831.49	  376.12
     98.2700	 1462.00	 1529.68	-1894.35	  375.89
     98.3700	 1518.00	 1503.75	-1812.42	  375.66
     98.4700	 1569.00	 1461.83	-1719.50	  375.43
     98.5700	 1345.00	 1407.61	-1889.28	  375.21
     98.6700	 1370.00	 1345.15	-1801.82	  374.98
     98.7700	 1301.00	 1278.41	-1804.08	  374.75
     98.8700	 1213.00	 1210.98	-1824.65	  374.52
     98.9700	 1130.00	 1146.04	-1842.71	  374.29
     99.0700	 1104.00	 1086.28	-1808.95	  374.07
     99.1700	 1028.00	 1033.97	-1832.64	  373.84
     99.2700	  998.00	  990.98	-1819.65	  373.61
     99.3700	  916.00	  958.76	-1869.43	  373.39
     99.4700	  956.00	  938.48	-1809.15	  373.16
     99.5700	  946.00	  930.93	-1811.60	  372.93
     99.6700	  905.00	  936.64	-1858.31	  372.71
     99.7700	  951.00	  955.84	-1831.51	  372.48
     99.8700	 1002.00	  988.47	-1813.14	  372.25
     99.9700	 1105.00	 1034.19	-1755.86	  372.03
    100.0700	 1100.00	 1092.33	-1819.00	  371.80
    100.1700	 1264.00	 1161.88	-1724.55	  371.58
    100.2700	 1256.00	 1241.43	-1812.10	  371.36
    100.3700	 1295.00	 1329.13	-1860.80	  371.13
    100.4700	 1455.00	 1422.60	-1794.27	  370.91
    100.5700	 1487.00	 1519.00	-1858.67	  370.68
    100.6700	 1587.00	 1614.98	-1854.65	  370.46
    100.7700	 1686.00	 1706.94	-1847.61	  370.24
    100.8700	 1860.00	 1791.28	-1757.95	  370.02
    100.9700	 1889.00	 1864.73	-1802.40	  369.80
    101.0700	 1981.00	 1924.98	-1770.65	  369.58
    101.1700	 1962.00	 1970.32	-1834.99	  369.36
    101.2700	 1982.00	 1999.79	-1844.46	  369.14
    101.3700	 2028.00	 2012.85	-1811.52	  368.92
    101.4700	 1969.00	 2009.17	-1866.84	  368.70
    101.5700	 1981.00	 1988.80	-1834.47	  368.48
    101.6700	 1940.00	 1952.44	-1839.11	  368.26
    101.7700	 1970.00	 1901.78	-1758.45	  368.05
    101.8700	 1954.00	 1839.58	-1712.25	  367.83
    101.9700	 1840.00	 1769.41	-1756.08	  367.62
    102.0700	 1631.00	 1695.17	-1890.84	  367.40
    102.1700	 1653.00	 1620.59	-1794.27	  367.19
    102.2700	 1601.00	 1548.88	-1774.55	  366.97
    102.3700	 1452.00	 1482.46	-1857.13	  366.76
    102.4700	 1437.00	 1422.95	-1812.62	  366.55
    102.5700	 1423.00	 1371.19	-1774.86	  366.34
    102.6700	 1347.00	 1327.26	-1806.93	  366.13
    102.7700	 1235.00	 1290.59	-1882.26	  365.92
    102.8700	 1267.00	 1260.01	-1819.68	  365.71
    102.9700	 1261.00	 1233.89	-1799.56	  365.51
    103.0700	 1131.00	 1210.25	-1905.92	  365.30
    103.1700	 1147.00	 1187.05	-1866.72	  365.09
    103.2700	 1142.00	 1162.40	-1847.08	  364.89
    103.3700	 1147.00	 1134.88	-1814.55	  364.69
    103.4700	 1032.00	 1103.73	-1898.40	  364.48
    103.5700	 1037.00	 1068.86	-1858.53	  364.28
    103.6700	 1032.00	 1030.78	-1825.45	  364.08
    103.7700	 1011.00	  990.37	-1806.04	  363.88
    103.8700	  960.00	  948.65	-1815.32	  363.68
    103.9700	  849.00	  906.68	-1884.35	  363.49
    104.0700	  845.00	  865.40	-1847.07	  363.29
    104.1700	  881.00	  825.64	-1771.31	  363.09
    104.2700	  781.00	  788.09	-1833.76	  362.90
    104.3700	  775.00	  753.26	-1804.93	  362.71
    104.4700	  735.00	  721.54	-1813.21	  362.52
    104.5700	  707.00	  693.14	-1812.81	  362.33
    104.6700	  706.00	  668.12	-1788.79	  362.14
    104.7700	  653.00	  646.45	-1820.12	  361.95
    104.8700	  664.00	  627.99	-1790.66	  361.76
    104.9700	  648.00	  612.52	-1791.19	  361.58
    105.0700	  654.00	  599.76	-1772.43	  361.39
    105.1700	  638.00	  589.43	-1778.10	  361.21
    105.2700	  632.00	  581.24	-1775.91	  361.03
    105.3700	  643.00	  574.90	-1758.57	  360.85
    105.4700	  612.00	  570.16	-1784.84	  360.67
    105.5700	  585.00	  566.83	-1808.50	  360.50
    105.6700	  535.00	  564.71	-1856.38	  360.32
    105.7700	  569.00	  563.66	-1821.33	  360.15
    105.8700	  582.00	  563.65	-1808.32	  359.98
    105.9700	  569.00	  564.60	-1822.27	  359.81
    106.0700	  589.00	  566.51	-1804.18	  359.64
    106.1700	  605.00	  569.37	-1791.04	  359.47
    106.2700	  597.00	  573.23	-1802.90	  359.30
    106.3700	  589.00	  578.14	-1815.81	  359.14
    106.4700	  565.00	  584.11	-1845.78	  358.98
    106.5700	  613.00	  591.24	-1804.91	  358.82
    106.6700	  580.00	  599.55	-1846.22	  358.66
    106.7700	  597.00	  609.02	-1838.69	  358.50
    106.8700	  624.00	  619.62	-1822.29	  358.35
    106.9700	  668.00	  631.24	-1789.91	  358.20
    107.0700	  680.00	  643.73	-1790.40	  358.04
    107.1700	  652.00	  656.90	-1831.57	  357.89
    107.2700	  625.00	  670.47	-1872.14	  357.75
    107.3700	  645.00	  684.12	-1865.79	  357.60
    107.4700	  676.00	  697.46	-1848.13	  357.46
    107.5700	  665.00	  710.08	-1871.75	  357.32
    107.6700	  729.00	  721.53	-1819.20	  357.18
    107.7700	  674.00	  731.39	-1884.06	  357.04
    107.8700	  729.00	  739.30	-1836.97	  356.90
    107.9700	  731.00	  745.04	-1840.71	  356.77
    108.0700	  742.00	  748.56	-1833.24	  356.64
    108.1700	  726.00	  750.02	-1850.69	  356.51
    108.2700	  771.00	  749.71	-1805.38	  356.38
    108.3700	  703.00	  748.13	-1871.80	  356.26
    108.4700	  711.00	  745.73	-1861.40	  356.14
    108.5700	  711.00	  742.98	-1858.65	  356.02
    108.6700	  703.00	  740.28	-1863.95	  355.90
    108.7700	  701.00	  737.94	-1863.61	  355.78
    108.8700	  724.00	  736.20	-1838.87	  355.67
    108.9700	  784.00	  735.14	-1777.81	  355.56
    109.0700	  700.00	  734.77	-1861.44	  355.45
    109.1700	  720.00	  734.95	-1841.62	  355.34
    109.2700	  776.00	  735.45	-1786.12	  355.24
    109.3700	  705.00	  735.97	-1857.64	  355.14
    109.4700	  664.00	  736.12	-1898.79	  355.04
    109.5700	  721.00	  735.49	-1841.16	  354.95
    109.6700	  697.00	  733.69	-1863.36	  354.85
    109.7700	  763.00	  730.42	-1794.09	  354.76
    109.8700	  750.00	  725.49	-1802.16	  354.68
    109.9700	  723.00	  718.89	-1822.56	  354.59
    110.0700	  719.00	  710.72	-1818.39	  354.51
    110.1700	  719.00	  701.24	-1808.91	  354.43
    110.2700	  720.00	  690.73	-1797.40	  354.35
    110.3700	  702.00	  679.53	-1804.20	  354.28
    110.4700	  650.00	  667.98	-1844.65	  354.21
    110.5700	  725.00	  656.38	-1758.05	  354.14
    110.6700	  681.00	  645.01	-1790.68	  354.07
    110.7700	  628.00	  634.11	-1832.78	  354.01
    110.8700	  677.00	  623.87	-1773.54	  353.95
    110.9700	  623.00	  614.45	-1818.12	  353.89
    111.0700	  654.00	  605.96	-1778.63	  353.84
    111.1700	  655.00	  598.48	-1770.15	  353.79
    111.2700	  585.00	  592.04	-1833.71	  353.74
    111.3700	  605.00	  586.65	-1808.32	  353.70
    111.4700	  627.00	  582.30	-1781.97	  353.66
    111.5700	  556.00	  578.93	-1849.60	  353.62
    111.6700	  590.00	  576.49	-1813.16	  353.59
    111.7700	  539.00	  574.90	-1862.57	  353.56
    111.8700	  555.00	  574.06	-1845.73	  353.53
    111.9700	  576.00	  573.90	-1824.57	  353.50
    112.0700	  614.00	  574.32	-1786.99	  353.48
    112.1700	  567.00	  575.23	-1834.90	  353.47
    112.2700	  553.00	  576.54	-1850.22	  353.45
    112.3700	  586.00	  578.19	-1818.86	  353.44
    112.4700	  569.00	  580.11	-1837.78	  353.43
    112.5700	  560.00	  582.23	-1848.90	  353.43
    112.6700	  559.00	  584.53	-1852.20	  353.43
    112.7700	  574.00	  586.98	-1839.65	  353.43
    112.8700	  620.00	  589.58	-1796.25	  353.44
    112.9700	  598.00	  592.35	-1821.02	  353.45
    113.0700	  614.00	  595.31	-1807.98	  353.47
    113.1700	  581.00	  598.51	-1844.19	  353.49
    113.2700	  623.00	  602.02	-1805.70	  353.51
    113.3700	  589.00	  605.91	-1843.58	  353.53
    113.4700	  601.00	  610.27	-1835.94	  353.56
    113.5700	  565.00	  615.21	-1876.88	  353.60
    113.6700	  598.00	  620.87	-1849.54	  353.64
    113.7700	  609.00	  627.42	-1845.09	  353.68
    113.8700	  616.00	  635.08	-1845.75	  353.72
    113.9700	  627.00	  644.12	-1843.79	  353.77
    114.0700	  657.00	  654.89	-1824.56	  353.83
    114.1700	  654.00	  667.82	-1840.49	  353.89
    114.2700	  633.00	  683.46	-1877.13	  353.95
    114.3700	  660.00	  702.49	-1869.16	  354.02
    114.4700	  737.00	  725.73	-1815.40	  354.09
    114.5700	  700.00	  754.19	-1880.86	  354.16
    114.6700	  836.00	  789.05	-1779.72	  354.24
    114.7700	  822.00	  831.70	-1836.37	  354.33
    114.8700	  877.00	  883.77	-1833.44	  354.41
    114.9700	  925.00	  947.05	-1848.72	  354.51
    115.0700	 1056.00	 1023.57	-1794.24	  354.60
    115.1700	 1075.00	 1115.48	-1867.15	  354.71
    115.2700	 1180.00	 1225.05	-1871.72	  354.81
    115.3700	 1439.00	 1354.63	-1742.30	  354.92
    115.4700	 1675.00	 1506.44	-1658.11	  355.04
    115.5700	 1772.00	 1682.62	-1737.29	  355.16
    115.6700	 2035.00	 1884.96	-1676.63	  355.28
    115.7700	 2248.00	 2114.81	-1693.48	  355.41
    115.8700	 2513.00	 2373.02	-1686.69	  355.55
    115.9700	 2778.00	 2659.57	-1708.24	  355.69
    116.0700	 3059.00	 2973.76	-1741.43	  355.83
    116.1700	 3348.00	 3313.75	-1792.42	  355.98
    116.2700	 3731.00	 3676.58	-1772.25	  356.14
    116.3700	 4090.00	 4058.33	-1795.00	  356.30
    116.4700	 4465.00	 4453.63	-1815.30	  356.46
    116.5700	 4824.00	 4856.17	-1858.84	  356.63
    116.6700	 5178.00	 5258.29	-1906.96	  356.80
    116.7700	 5555.00	 5651.21	-1922.88	  356.98
    116.8700	 5939.00	 6025.48	-1913.15	  357.17
    116.9700	 6272.00	 6370.62	-1925.29	  357.36
    117.0700	 6617.00	 6676.00	-1885.67	  357.55
    117.1700	 6828.00	 6931.01	-1929.68	  357.76
    117.2700	 7045.00	 7125.96	-1907.63	  357.96
    117.3700	 7120.00	 7252.98	-1959.65	  358.17
    117.4700	 7130.00	 7306.68	-2003.35	  358.39
    117.5700	 7280.00	 7284.99	-1831.67	  358.61
    117.6700	 7145.00	 7189.34	-1871.01	  358.84
    117.7700	 6933.00	 7024.49	-1918.16	  359.08
    117.8700	 6699.00	 6797.86	-1925.53	  359.31
    117.9700	 6483.00	 6518.85	-1862.53	  359.56
    118.0700	 6046.00	 6197.71	-1978.38	  359.81
    118.1700	 5615.00	 5845.04	-2056.71	  360.07
    118.2700	 5537.00	 5471.19	-1760.86	  360.33
    118.3700	 5040.00	 5085.62	-1872.30	  360.60
    118.4700	 4794.00	 4697.10	-1729.77	  360.87
    118.5700	 4362.00	 4313.07	-1777.74	  361.15
    118.6700	 4091.00	 3940.01	-1675.68	  361.44
    118.7700	 3706.00	 3583.18	-1703.85	  361.73
    118.8700	 3381.00	 3246.50	-1692.17	  362.03
    118.9700	 3062.00	 2933.02	-1697.69	  362.34
    119.0700	 2684.00	 2644.49	-1787.16	  362.65
    119.1700	 2434.00	 2381.91	-1774.58	  362.96
    119.2700	 2204.00	 2145.44	-1768.11	  363.29
    119.3700	 1994.00	 1934.49	-1767.16	  363.62
    119.4700	 1764.00	 1748.06	-1810.73	  363.95
    119.5700	 1646.00	 1584.62	-1765.29	  364.30
    119.6700	 1578.00	 1442.44	-1691.11	  364.65
    119.7700	 1381.00	 1319.61	-1765.28	  365.00
    119.8700	 1272.00	 1214.07	-1768.74	  365.36
    119.9700	 1185.00	 1123.86	-1765.53	  365.73
    120.0700	 1059.00	 1047.01	-1814.68	  366.11
    120.1700	 1029.00	  981.73	-1779.41	  366.49
    120.2700	  974.00	  926.39	-1779.06	  366.88
    120.3700	  890.00	  879.47	-1816.15	  367.28
    120.4700	  891.00	  839.72	-1775.39	  367.68
    120.5700	  845.00	  806.00	-1787.67	  368.09
    120.6700	  852.00	  777.38	-1752.05	  368.50
    120.7700	  799.00	  753.06	-1780.73	  368.93
    120.8700	  755.00	  732.38	-1804.06	  369.36
    120.9700	  709.00	  714.81	-1832.48	  369.80
    121.0700	  715.00	  699.90	-1811.57	  370.24
    121.1700	  687.00	  687.30	-1826.97	  370.69
    121.2700	  683.00	  676.70	-1820.37	  371.15
    121.3700	  685.00	  667.87	-1809.54	  371.62
    121.4700	  671.00	  660.63	-1816.30	  372.09
    121.5700	  617.00	  654.80	-1864.47	  372.57
    121.6700	  636.00	  650.25	-1840.92	  373.06
    121.7700	  632.00	  646.89	-1841.56	  373.56
    121.8700	  635.00	  644.60	-1836.27	  374.06
    121.9700	  629.00	  643.31	-1840.98	  374.58
    122.0700	  591.00	  642.94	-1878.61	  375.10
    122.1700	  668.00	  643.43	-1802.10	  375.62
    122.2700	  580.00	  644.70	-1891.37	  376.16
    122.3700	  639.00	  646.69	-1834.36	  376.70
    122.4700	  614.00	  649.33	-1862.00	  377.25
    122.5700	  640.00	  652.54	-1839.21	  377.81
    122.6700	  623.00	  656.25	-1859.92	  378.38
    122.7700	  662.00	  660.37	-1825.04	  378.95
    122.8700	  652.00	  664.82	-1839.49	  379.53
    122.9700	  673.00	  669.50	-1823.17	  380.12
    123.0700	  645.00	  674.31	-1855.98	  380.72
    123.1700	  665.00	  679.13	-1840.80	  381.33
    123.2700	  699.00	  683.87	-1811.54	  381.94
    123.3700	  711.00	  688.40	-1804.07	  382.57
    123.4700	  666.00	  692.62	-1853.29	  383.20
    123.5700	  715.00	  696.42	-1808.09	  383.84
    123.6700	  658.00	  699.72	-1868.39	  384.49
    123.7700	  653.00	  702.46	-1876.13	  385.15
    123.8700	  700.00	  704.60	-1831.27	  385.82
    123.9700	  720.00	  706.11	-1812.78	  386.49
    124.0700	  687.00	  707.02	-1846.70	  387.17
    124.1700	  682.00	  707.37	-1852.04	  387.87
    124.2700	  672.00	  707.21	-1861.88	  388.57
    124.3700	  737.00	  706.59	-1796.26	  389.28
    124.4700	  685.00	  705.60	-1847.27	  390.00
    124.5700	  694.00	  704.30	-1836.97	  390.73
    124.6700	  705.00	  702.72	-1824.39	  391.47
    124.7700	  723.00	  700.99	-1804.66	  392.21
    124.8700	  667.00	  699.12	-1858.79	  392.97
    124.9700	  677.00	  511.54	-1661.21	  393.73
    125.0700	  664.00	  512.32	-1826.67	  394.51
    125.1700	  662.00	  513.10	-1826.67	  395.29
    125.2700	  677.00	  513.90	-1826.67	  396.08
    125.3700	  651.00	  514.70	-1826.67	  396.89
    125.4700	  673.00	  515.51	-1826.67	  397.70
    125.5700	  628.00	  516.33	-1826.67	  398.52
    125.6700	  643.00	  517.16	-1826.67	  399.35
    125.7700	  699.00	  518.01	-1826.67	  400.20
    125.8700	  672.00	  518.86	-1826.67	  401.05
    125.9700	  649.00	  519.72	-1826.67	  401.91
    126.0700	  632.00	  520.59	-1826.67	  402.78
    126.1700	  676.00	  521.47	-1826.67	  403.66
    126.2700	  645.00	  522.36	-1826.67	  404.55
    126.3700	  635.00	  523.26	-1826.67	  405.45
    126.4700	  618.00	  524.17	-1826.67	  406.36
    126.5700	  604.00	  525.09	-1826.67	  407.28
    126.6700	  560.00	  526.03	-1826.67	  408.22
    126.7700	  597.00	  526.97	-1826.67	  409.16
    126.8700	  590.00	  527.92	-1826.67	  410.11
    126.9700	  565.00	  528.88	-1826.67	  411.07
    127.0700	  621.00	  529.86	-1826.67	  412.05
    127.1700	  582.00	  530.84	-1826.67	  413.03
    127.2700	  606.00	  531.83	-1826.67	  414.02
    127.3700	  564.00	  532.84	-1826.67	  415.03
    127.4700	  594.00	  533.85	-1826.67	  416.04
    127.5700	  556.00	  534.88	-1826.67	  417.07
    127.6700	  568.00	  535.92	-1826.67	  418.11
    127.7700	  569.00	  536.97	-1826.67	  419.16
    127.8700	  625.00	  538.03	-1826.67	  420.22
    127.9700	  587.00	  539.10	-1826.67	  421.29
    128.0700	  602.00	  540.18	-1826.67	  422.37
    128.1700	  621.00	  541.27	-1826.67	  423.46
    128.2700	  686.00	  542.38	-1826.67	  424.57
    128.3700	  641.00	  543.49	-1826.67	  425.68
    128.4700	  673.00	  544.62	-1826.67	  426.81
    128.5700	    0.00	  545.76	-1826.67	  427.95
    128.6700	    0.00	  546.91	-1826.67	  429.10
     12.3892	        	        	        	        	       0	(  0  0  2)	  0  1
     12.3892	        	        	        	        	    -456	(  0  0  2)	  0  1
     25.0325	        	        	        	        	       0	(  0  0  4)	  0  1
     25.0325	        	        	        	        	    -456	(  0  0  4)	  0  1
     28.4806	        	        	        	        	       0	(  1  0  0)	  0  1
     28.4806	        	        	        	        	    -456	(  1  0  0)	  0  1
     29.1815	        	        	        	        	       0	(  1  0  1)	  0  1
     29.1815	        	        	        	        	    -456	(  1  0  1)	  0  1
     31.1983	        	        	        	        	       0	(  1  0  2)	  0  1
     31.1983	        	        	        	        	    -456	(  1  0  2)	  0  1
     34.3231	        	        	        	        	       0	(  1  0  3)	  0  1
     34.3231	        	        	        	        	    -456	(  1  0  3)	  0  1
     37.9964	        	        	        	        	       0	(  0  0  6)	  0  1
     37.9964	        	        	        	        	    -456	(  0  0  6)	  0  1
     38.3214	        	        	        	        	       0	(  1  0  4)	  0  1
     38.3214	        	        	        	        	    -456	(  1  0  4)	  0  1
     42.9968	        	        	        	        	       0	(  1  0  5)	  0  1
     42.9968	        	        	        	        	    -456	(  1  0  5)	  0  1
     48.2097	        	        	        	        	       0	(  1  0  6)	  0  1
     48.2097	        	        	        	        	    -456	(  1  0  6)	  0  1
     50.5240	        	        	        	        	       0	(  1  1  0)	  0  1
     50.5240	        	        	        	        	    -456	(  1  1  0)	  0  1
     51.4908	        	        	        	        	       0	(  0  0  8)	  0  1
     51.4908	        	        	        	        	    -456	(  0  0  8)	  0  1
     52.2573	        	        	        	        	       0	(  1  1  2)	  0  1
     52.2573	        	        	        	        	    -456	(  1  1  2)	  0  1
     53.8727	        	        	        	        	       0	(  1  0  7)	  0  1
     53.8727	        	        	        	        	    -456	(  1  0  7)	  0  1
     57.2355	        	        	        	        	       0	(  1  1  4)	  0  1
     57.2355	        	        	        	        	    -456	(  1  1  4)	  0  1
     59.0672	        	        	        	        	       0	(  2  0  0)	  0  1
     59.0672	        	        	        	        	    -456	(  2  0  0)	  0  1
     59.4613	        	        	        	        	       0	(  2  0  1)	  0  1
     59.4613	        	        	        	        	    -456	(  2  0  1)	  0  1
     59.9395	        	        	        	        	       0	(  1  0  8)	  0  1
     59.9395	        	        	        	        	    -456	(  1  0  8)	  0  1
     60.6341	        	        	        	        	       0	(  2  0  2)	  0  1
     60.6341	        	        	        	        	    -456	(  2  0  2)	  0  1
     62.5598	        	        	        	        	       0	(  2  0  3)	  0  1
     62.5598	        	        	        	        	    -456	(  2  0  3)	  0  1
     64.9795	        	        	        	        	       0	(  1  1  6)	  0  1
     64.9795	        	        	        	        	    -456	(  1  1  6)	  0  1
     65.2013	        	        	        	        	       0	(  2  0  4)	  0  1
     65.2013	        	        	        	        	    -456	(  2  0  4)	  0  1
     65.8064	        	        	        	        	       0	(  0  0 10)	  0  1
     65.8064	        	        	        	        	    -456	(  0  0 10)	  0  1
     66.3970	        	        	        	        	       0	(  1  0  9)	  0  1
     66.3970	        	        	        	        	    -456	(  1  0  9)	  0  1
     68.5179	        	        	        	        	       0	(  2  0  5)	  0  1
     68.5179	        	        	        	        	    -456	(  2  0  5)	  0  1
     72.4732	        	        	        	        	       0	(  2  0  6)	  0  1
     72.4732	        	        	        	        	    -456	(  2  0  6)	  0  1
     73.2602	        	        	        	        	       0	(  1  0 10)	  0  1
     73.2602	        	        	        	        	    -456	(  1  0 10)	  0  1
     75.0875	        	        	        	        	       0	(  1  1  8)	  0  1
     75.0875	        	        	        	        	    -456	(  1  1  8)	  0  1
     77.0410	        	        	        	        	       0	(  2  0  7)	  0  1
     77.0410	        	        	        	        	    -456	(  2  0  7)	  0  1
     80.5726	        	        	        	        	       0	(  1  0 11)	  0  1
     80.5726	        	        	        	        	    -456	(  1  0 11)	  0  1
     81.3986	        	        	        	        	       0	(  0  0 12)	  0  1
     81.3986	        	        	        	        	    -456	(  0  0 12)	  0  1
     81.4519	        	        	        	        	       0	(  2  1  0)	  0  1
     81.4519	        	        	        	        	    -456	(  2  1  0)	  0  1
     81.7945	        	        	        	        	       0	(  2  1  1)	  0  1
     81.7945	        	        	        	        	    -456	(  2  1  1)	  0  1
     82.2118	        	        	        	        	       0	(  2  0  8)	  0  1
     82.2118	        	        	        	        	    -456	(  2  0  8)	  0  1
     82.8208	        	        	        	        	       0	(  2  1  2)	  0  1
     82.8208	        	        	        	        	    -456	(  2  1  2)	  0  1
     84.5263	        	        	        	        	       0	(  2  1  3)	  0  1
     84.5263	        	        	        	        	    -456	(  2  1  3)	  0  1
     86.9064	        	        	        	        	       0	(  2  1  4)	  0  1
     86.9064	        	        	        	        	    -456	(  2  1  4)	  0  1
     87.4581	        	        	        	        	       0	(  1  1 10)	  0  1
     87.4581	        	        	        	        	    -456	(  1  1 10)	  0  1
     87.9989	        	        	        	        	       0	(  2  0  9)	  0  1
     87.9989	        	        	        	        	    -456	(  2  0  9)	  0  1
     88.4125	        	        	        	        	       0	(  1  0 12)	  0  1
     88.4125	        	        	        	        	    -456	(  1  0 12)	  0  1
     89.9595	        	        	        	        	       0	(  2  1  5)	  0  1
     89.9595	        	        	        	        	    -456	(  2  1  5)	  0  1
     93.6921	        	        	        	        	       0	(  2  1  6)	  0  1
     93.6921	        	        	        	        	    -456	(  2  1  6)	  0  1
     94.4466	        	        	        	        	       0	(  2  0 10)	  0  1
     94.4466	        	        	        	        	    -456	(  2  0 10)	  0  1
     95.4570	        	        	        	        	       0	(  3  0  0)	  0  1
     95.4570	        	        	        	        	    -456	(  3  0  0)	  0  1
     95.7978	        	        	        	        	       0	(  3  0  1)	  0  1
     95.7978	        	        	        	        	    -456	(  3  0  1)	  0  1
     96.8215	        	        	        	        	       0	(  3  0  2)	  0  1
     96.8215	        	        	        	        	    -456	(  3  0  2)	  0  1
     96.9072	        	        	        	        	       0	(  1  0 13)	  0  1
     96.9072	        	        	        	        	    -456	(  1  0 13)	  0  1
     98.1257	        	        	        	        	       0	(  2  1  7)	  0  1
     98.1257	        	        	        	        	    -456	(  2  1  7)	  0  1
     98.5327	        	        	        	        	       0	(  3  0  3)	  0  1
     98.5327	        	        	        	        	    -456	(  3  0  3)	  0  1
     99.1015	        	        	        	        	       0	(  0  0 14)	  0  1
     99.1015	        	        	        	        	    -456	(  0  0 14)	  0  1
    100.9419	        	        	        	        	       0	(  3  0  4)	  0  1
    100.9419	        	        	        	        	    -456	(  3  0  4)	  0  1
    101.6447	        	        	        	        	       0	(  2  0 11)	  0  1
    101.6447	        	        	        	        	    -456	(  2  0 11)	  0  1
    102.4794	        	        	        	        	       0	(  1  1 12)	  0  1
    102.4794	        	        	        	        	    -456	(  1  1 12)	  0  1
    103.3057	        	        	        	        	       0	(  2  1  8)	  0  1
    103.3057	        	        	        	        	    -456	(  2  1  8)	  0  1
    104.0694	        	        	        	        	       0	(  3  0  5)	  0  1
    104.0694	        	        	        	        	    -456	(  3  0  5)	  0  1
    106.2667	        	        	        	        	       0	(  1  0 14)	  0  1
    106.2667	        	        	        	        	    -456	(  1  0 14)	  0  1
    107.9526	        	        	        	        	       0	(  3  0  6)	  0  1
    107.9526	        	        	        	        	    -456	(  3  0  6)	  0  1
    109.3178	        	        	        	        	       0	(  2  1  9)	  0  1
    109.3178	        	        	        	        	    -456	(  2  1  9)	  0  1
    109.7567	        	        	        	        	       0	(  2  0 12)	  0  1
    109.7567	        	        	        	        	    -456	(  2  0 12)	  0  1
    112.6572	        	        	        	        	       0	(  3  0  7)	  0  1
    112.6572	        	        	        	        	    -456	(  3  0  7)	  0  1
    116.3169	        	        	        	        	       0	(  2  1 10)	  0  1
    116.3169	        	        	        	        	    -456	(  2  1 10)	  0  1
    116.8628	        	        	        	        	       0	(  1  0 15)	  0  1
    116.8628	        	        	        	        	    -456	(  1  0 15)	  0  1
    117.4464	        	        	        	        	       0	(  2  2  0)	  0  1
    117.4464	        	        	        	        	    -456	(  2  2  0)	  0  1
    118.2984	        	        	        	        	       0	(  3  0  8)	  0  1
    118.2984	        	        	        	        	    -456	(  3  0  8)	  0  1
    118.9872	        	        	        	        	       0	(  2  2  2)	  0  1
    118.9872	        	        	        	        	    -456	(  2  2  2)	  0  1
    119.0845	        	        	        	        	       0	(  2  0 13)	  0  1
    119.0845	        	        	        	        	    -456	(  2  0 13)	  0  1
    120.8974	        	        	        	        	       0	(  0  0 16)	  0  1
    120.8974	        	        	        	        	    -456	(  0  0 16)	  0  1
    121.6045	        	        	        	        	       0	(  1  1 14)	  0  1
    121.6045	        	        	        	        	    -456	(  1  1 14)	  0  1
    123.7595	        	        	        	        	       0	(  2  2  4)	  0  1
    123.7595	        	        	        	        	    -456	(  2  2  4)	  0  1
    124.5933	        	        	        	        	       0	(  2  1 11)	  0  1
    124.5933	        	        	        	        	    -456	(  2  1 11)	  0  1
    125.0844	        	        	        	        	       0	(  3  0  9)	  0  1
    125.0844	        	        	        	        	    -456	(  3  0  9)	  0  1
    125.6567	        	        	        	        	       0	(  3  1  0)	  0  1
    125.6567	        	        	        	        	    -456	(  3  1  0)	  0  1
    126.0757	        	        	        	        	       0	(  3  1  1)	  0  1
    126.0757	        	        	        	        	    -456	(  3  1  1)	  0  1
    127.3463	        	        	        	        	       0	(  3  1  2)	  0  1
    127.3463	        	        	        	        	    -456	(  3  1  2)	  0  1
    129.4594	        	        	        	        	       0	(  1  0 16)	  0  1
    129.4594	        	        	        	        	    -456	(  1  0 16)	  0  1
    129.5138	        	        	        	        	       0	(  3  1  3)	  0  1
    129.5138	        	        	        	        	    -456	(  3  1  3)	  0  1
    130.2472	        	        	        	        	       0	(  2  0 14)	  0  1
    130.2472	        	        	        	        	    -456	(  2  0 14)	  0  1
    132.3949	        	        	        	        	       0	(  2  2  6)	  0  1
    132.3949	        	        	        	        	    -456	(  2  2  6)	  0  1
    132.6685	        	        	        	        	       0	(  3  1  4)	  0  1
    132.6685	        	        	        	        	    -456	(  3  1  4)	  0  1
    133.4239	        	        	        	        	       0	(  3  0 10)	  0  1
    133.4239	        	        	        	        	    -456	(  3  0 10)	  0  1
    134.7542	        	        	        	        	       0	(  2  1 12)	  0  1
    134.7542	        	        	        	        	    -456	(  2  1 12)	  0  1
    136.9798	        	        	        	        	       0	(  3  1  5)	  0  1
    136.9798	        	        	        	        	    -456	(  3  1  5)	  0  1
    142.7831	        	        	        	        	       0	(  3  1  6)	  0  1
    142.7831	        	        	        	        	    -456	(  3  1  6)	  0  1
    144.2846	        	        	        	        	       0	(  3  0 11)	  0  1
    144.2846	        	        	        	        	    -456	(  3  0 11)	  0  1
    144.8899	        	        	        	        	       0	(  2  0 15)	  0  1
    144.8899	        	        	        	        	    -456	(  2  0 15)	  0  1
    146.2238	        	        	        	        	       0	(  1  0 17)	  0  1
    146.2238	        	        	        	        	    -456	(  1  0 17)	  0  1
    147.1712	        	        	        	        	       0	(  2  2  8)	  0  1
    147.1712	        	        	        	        	    -456	(  2  2  8)	  0  1
    148.4686	        	        	        	        	       0	(  2  1 13)	  0  1
    148.4686	        	        	        	        	    -456	(  2  1 13)	  0  1
    150.8676	        	        	        	        	       0	(  3  1  7)	  0  1
    150.8676	        	        	        	        	    -456	(  3  1  7)	  0  1
    151.6198	        	        	        	        	       0	(  1  1 16)	  0  1
    151.6198	        	        	        	        	    -456	(  1  1 16)	  0  1
    156.4560	        	        	        	        	       0	(  0  0 18)	  0  1
    156.4560	        	        	        	        	    -456	(  0  0 18)	  0  1
    161.5355	        	        	        	        	       0	(  3  0 12)	  0  1
    161.5355	        	        	        	        	    -456	(  3  0 12)	  0  1
    161.7036	        	        	        	        	       0	(  4  0  0)	  0  1
    161.7036	        	        	        	        	    -456	(  4  0  0)	  0  1
    162.8229	        	        	        	        	       0	(  4  0  1)	  0  1
    162.8229	        	        	        	        	    -456	(  4  0  1)	  0  1
    164.2923	        	        	        	        	       0	(  3  1  8)	  0  1
    164.2923	        	        	        	        	    -456	(  3  1  8)	  0  1
    166.7223	        	        	        	        	       0	(  4  0  2)	  0  1
    166.7223	        	        	        	        	    -456	(  4  0  2)	  0  1
