MSG Master    CELL:    5.91930   5.91930  23.27281   90.0000   90.0000  120.0000   SPGR: P 63/m m c             TEMP:   1074.85
  1   1280     2.52000     0.00000    -0.12408     0.00000     0.00000    0
    99     0     2
       0.00000      10.00000
     125.00000     130.00000
 2Theta	Yobs	Ycal	Yobs-Ycal	Backg	Posr	(hkl)	K
      0.7700	    0.00	  554.87	-1796.75	  437.09
      0.8700	    0.00	  555.52	-1796.75	  437.74
      0.9700	   40.00	  556.16	-1796.75	  438.38
      1.0700	   41.00	  556.78	-1796.75	  439.00
      1.1700	   42.00	  557.40	-1796.75	  439.62
      1.2700	   57.00	  558.01	-1796.75	  440.23
      1.3700	   55.00	  558.61	-1796.75	  440.83
      1.4700	   95.00	  559.20	-1796.75	  441.42
      1.5700	  295.00	  559.77	-1796.75	  441.99
      1.6700	  417.00	  560.34	-1796.75	  442.56
      1.7700	  594.00	  560.90	-1796.75	  443.12
      1.8700	  646.00	  561.45	-1796.75	  443.67
      1.9700	  738.00	  561.98	-1796.75	  444.20
      2.0700	  763.00	  562.51	-1796.75	  444.73
      2.1700	  784.00	  563.03	-1796.75	  445.25
      2.2700	  766.00	  563.54	-1796.75	  445.76
      2.3700	  784.00	  564.04	-1796.75	  446.26
      2.4700	  697.00	  564.53	-1796.75	  446.75
      2.5700	  688.00	  565.01	-1796.75	  447.23
      2.6700	  688.00	  565.48	-1796.75	  447.70
      2.7700	  624.00	  565.94	-1796.75	  448.16
      2.8700	  667.00	  566.39	-1796.75	  448.61
      2.9700	  637.00	  566.83	-1796.75	  449.05
      3.0700	  600.00	  567.27	-1796.75	  449.49
      3.1700	  571.00	  567.69	-1796.75	  449.91
      3.2700	  585.00	  568.11	-1796.75	  450.33
      3.3700	  694.00	  568.52	-1796.75	  450.74
      3.4700	  723.00	  568.92	-1796.75	  451.14
      3.5700	  778.00	  569.31	-1796.75	  451.53
      3.6700	  834.00	  569.69	-1796.75	  451.91
      3.7700	  945.00	  570.06	-1796.75	  452.28
      3.8700	 1017.00	  570.42	-1796.75	  452.64
      3.9700	  987.00	  570.78	-1796.75	  453.00
      4.0700	  986.00	  571.13	-1796.75	  453.35
      4.1700	 1120.00	  571.46	-1796.75	  453.68
      4.2700	 1082.00	  571.80	-1796.75	  454.02
      4.3700	 1058.00	  572.12	-1796.75	  454.34
      4.4700	 1018.00	  572.43	-1796.75	  454.65
      4.5700	 1039.00	  572.74	-1796.75	  454.96
      4.6700	 1069.00	  573.04	-1796.75	  455.26
      4.7700	 1039.00	  573.33	-1796.75	  455.55
      4.8700	  937.00	  573.61	-1796.75	  455.83
      4.9700	 1002.00	  573.88	-1796.75	  456.10
      5.0700	  955.00	  574.15	-1796.75	  456.37
      5.1700	  946.00	  574.41	-1796.75	  456.63
      5.2700	  862.00	  574.66	-1796.75	  456.88
      5.3700	  904.00	  574.90	-1796.75	  457.12
      5.4700	  868.00	  575.14	-1796.75	  457.36
      5.5700	  838.00	  575.37	-1796.75	  457.59
      5.6700	  804.00	  575.59	-1796.75	  457.81
      5.7700	  810.00	  575.80	-1796.75	  458.02
      5.8700	  826.00	  576.01	-1796.75	  458.23
      5.9700	  813.00	  576.21	-1796.75	  458.43
      6.0700	  784.00	  576.40	-1796.75	  458.62
      6.1700	  801.00	  576.59	-1796.75	  458.81
      6.2700	  785.00	  576.76	-1796.75	  458.98
      6.3700	  736.00	  576.93	-1796.75	  459.15
      6.4700	  802.00	  577.10	-1796.75	  459.32
      6.5700	  740.00	  577.26	-1796.75	  459.48
      6.6700	  712.00	  577.41	-1796.75	  459.63
      6.7700	  765.00	  577.55	-1796.75	  459.77
      6.8700	  750.00	  577.69	-1796.75	  459.91
      6.9700	  713.00	  577.82	-1796.75	  460.04
      7.0700	  707.00	  577.94	-1796.75	  460.16
      7.1700	  721.00	  578.06	-1796.75	  460.28
      7.2700	  722.00	  578.17	-1796.75	  460.39
      7.3700	  686.00	  578.27	-1796.75	  460.49
      7.4700	  648.00	  578.37	-1796.75	  460.59
      7.5700	  670.00	  578.46	-1796.75	  460.68
      7.6700	  704.00	  578.55	-1796.75	  460.77
      7.7700	  651.00	  578.63	-1796.75	  460.85
      7.8700	  636.00	  578.70	-1796.75	  460.92
      7.9700	  650.00	  578.77	-1796.75	  460.99
      8.0700	  666.00	  578.83	-1796.75	  461.05
      8.1700	  624.00	  578.89	-1796.75	  461.11
      8.2700	  629.00	  578.94	-1796.75	  461.16
      8.3700	  648.00	  578.98	-1796.75	  461.20
      8.4700	  649.00	  579.02	-1796.75	  461.24
      8.5700	  623.00	  579.05	-1796.75	  461.27
      8.6700	  654.00	  579.08	-1796.75	  461.30
      8.7700	  654.00	  579.10	-1796.75	  461.32
      8.8700	  576.00	  579.11	-1796.75	  461.33
      8.9700	  593.00	  579.12	-1796.75	  461.34
      9.0700	  624.00	  579.13	-1796.75	  461.35
      9.1700	  646.00	  579.13	-1796.75	  461.35
      9.2700	  604.00	  579.12	-1796.75	  461.34
      9.3700	  597.00	  579.11	-1796.75	  461.33
      9.4700	  678.00	  579.09	-1796.75	  461.31
      9.5700	  603.00	  579.07	-1796.75	  461.29
      9.6700	  627.00	  579.04	-1796.75	  461.26
      9.7700	  620.00	  579.01	-1796.75	  461.23
      9.8700	  583.00	  578.97	-1796.75	  461.19
      9.9700	  525.00	  578.93	-1796.75	  461.15
     10.0700	  628.00	  579.67	-1748.42	  461.10
     10.1700	  615.00	  579.70	-1761.45	  461.05
     10.2700	  579.00	  579.75	-1797.50	  460.99
     10.3700	  624.00	  579.82	-1752.57	  460.93
     10.4700	  571.00	  579.95	-1805.70	  460.86
     10.5700	  567.00	  580.19	-1809.94	  460.79
     10.6700	  558.00	  580.62	-1819.37	  460.71
     10.7700	  592.00	  581.37	-1786.12	  460.63
     10.8700	  583.00	  582.51	-1796.26	  460.55
     10.9700	  568.00	  584.02	-1812.77	  460.46
     11.0700	  573.00	  585.88	-1809.63	  460.36
     11.1700	  625.00	  588.07	-1759.82	  460.26
     11.2700	  615.00	  590.64	-1772.39	  460.16
     11.3700	  567.00	  593.66	-1823.41	  460.05
     11.4700	  640.00	  597.25	-1754.00	  459.94
     11.5700	  605.00	  601.62	-1793.37	  459.83
     11.6700	  616.00	  607.11	-1787.86	  459.71
     11.7700	  624.00	  614.33	-1787.08	  459.58
     11.8700	  620.00	  624.17	-1800.92	  459.45
     11.9700	  631.00	  637.32	-1803.07	  459.32
     12.0700	  644.00	  652.26	-1805.01	  459.18
     12.1700	  692.00	  662.98	-1767.73	  459.04
     12.2700	  708.00	  659.83	-1748.58	  458.90
     12.3700	  663.00	  639.69	-1773.44	  458.75
     12.4700	  634.00	  614.82	-1777.57	  458.60
     12.5700	  605.00	  596.53	-1788.28	  458.44
     12.6700	  640.00	  586.55	-1743.30	  458.28
     12.7700	  580.00	  582.00	-1798.75	  458.12
     12.8700	  596.00	  579.92	-1780.67	  457.96
     12.9700	  589.00	  578.76	-1786.51	  457.79
     13.0700	  552.00	  577.96	-1822.71	  457.61
     13.1700	  545.00	  577.34	-1829.09	  457.43
     13.2700	  593.00	  576.83	-1780.58	  457.25
     13.3700	  586.00	  576.39	-1787.14	  457.07
     13.4700	  560.00	  576.00	-1812.75	  456.88
     13.5700	  581.00	  575.65	-1791.40	  456.69
     13.6700	  597.00	  575.33	-1775.08	  456.50
     13.7700	  559.00	  575.03	-1812.78	  456.30
     13.8700	  582.00	  574.74	-1789.49	  456.10
     13.9700	  554.00	  574.46	-1817.21	  455.90
     14.0700	  538.00	  574.19	-1832.94	  455.69
     14.1700	  577.00	  573.93	-1793.68	  455.48
     14.2700	  534.00	  573.67	-1836.42	  455.27
     14.3700	  538.00	  573.41	-1832.16	  455.05
     14.4700	  570.00	  573.16	-1799.91	  454.83
     14.5700	  585.00	  572.90	-1784.65	  454.61
     14.6700	  590.00	  572.65	-1779.40	  454.39
     14.7700	  552.00	  572.40	-1817.15	  454.16
     14.8700	  546.00	  572.15	-1822.90	  453.93
     14.9700	  515.00	  571.90	-1853.65	  453.70
     15.0700	  547.00	  571.64	-1821.39	  453.46
     15.1700	  534.00	  571.39	-1834.14	  453.22
     15.2700	  572.00	  571.13	-1795.88	  452.98
     15.3700	  531.00	  570.88	-1836.63	  452.74
     15.4700	  600.00	  570.62	-1767.37	  452.49
     15.5700	  531.00	  570.36	-1836.11	  452.24
     15.6700	  562.00	  570.10	-1804.85	  451.99
     15.7700	  554.00	  569.84	-1812.59	  451.74
     15.8700	  530.00	  569.57	-1836.32	  451.48
     15.9700	  560.00	  569.31	-1806.06	  451.23
     16.0700	  565.00	  569.04	-1800.79	  450.97
     16.1700	  563.00	  568.80	-1802.55	  450.70
     16.2700	  542.00	  568.52	-1823.27	  450.44
     16.3700	  579.00	  568.25	-1786.00	  450.17
     16.4700	  559.00	  567.98	-1805.73	  449.90
     16.5700	  542.00	  567.70	-1822.45	  449.63
     16.6700	  521.00	  567.43	-1843.18	  449.36
     16.7700	  584.00	  567.15	-1779.90	  449.08
     16.8700	  566.00	  566.87	-1797.62	  448.80
     16.9700	  569.00	  566.58	-1794.33	  448.52
     17.0700	  566.00	  566.30	-1797.05	  448.24
     17.1700	  536.00	  566.01	-1826.76	  447.96
     17.2700	  529.00	  565.72	-1833.47	  447.67
     17.3700	  621.00	  565.44	-1741.19	  447.39
     17.4700	  586.00	  565.14	-1775.89	  447.10
     17.5700	  559.00	  564.85	-1802.60	  446.81
     17.6700	  574.00	  564.56	-1787.31	  446.51
     17.7700	  581.00	  564.26	-1780.01	  446.22
     17.8700	  590.00	  564.07	-1770.82	  445.92
     17.9700	  555.00	  563.77	-1805.52	  445.63
     18.0700	  599.00	  563.47	-1761.22	  445.33
     18.1700	  541.00	  563.17	-1818.92	  445.03
     18.2700	  552.00	  562.87	-1807.62	  444.72
     18.3700	  520.00	  562.57	-1839.32	  444.42
     18.4700	  577.00	  562.27	-1782.02	  444.11
     18.5700	  555.00	  561.96	-1803.71	  443.81
     18.6700	  539.00	  561.66	-1819.41	  443.50
     18.7700	  566.00	  561.35	-1792.10	  443.19
     18.8700	  566.00	  561.14	-1791.89	  442.88
     18.9700	  580.00	  560.83	-1777.58	  442.57
     19.0700	  531.00	  560.52	-1826.27	  442.25
     19.1700	  589.00	  560.21	-1767.96	  441.94
     19.2700	  562.00	  559.90	-1794.65	  441.62
     19.3700	  521.00	  559.59	-1835.34	  441.31
     19.4700	  590.00	  559.28	-1766.03	  440.99
     19.5700	  523.00	  558.97	-1832.72	  440.67
     19.6700	  547.00	  558.66	-1808.41	  440.35
     19.7700	  506.00	  558.34	-1849.09	  440.03
     19.8700	  526.00	  558.03	-1828.78	  439.70
     19.9700	  557.00	  557.71	-1797.46	  439.38
     20.0700	  547.00	  557.40	-1807.15	  439.06
     20.1700	  551.00	  557.08	-1802.83	  438.73
     20.2700	  556.00	  556.77	-1797.52	  438.40
     20.3700	  556.00	  556.45	-1797.20	  438.08
     20.4700	  580.00	  556.13	-1772.88	  437.75
     20.5700	  551.00	  555.82	-1801.57	  437.42
     20.6700	  546.00	  555.47	-1806.22	  437.09
     20.7700	  562.00	  555.15	-1789.90	  436.76
     20.8700	  536.00	  554.87	-1815.62	  436.43
     20.9700	  523.00	  554.56	-1828.31	  436.10
     21.0700	  544.00	  554.24	-1806.99	  435.76
     21.1700	  526.00	  553.93	-1824.68	  435.43
     21.2700	  555.00	  553.61	-1795.36	  435.10
     21.3700	  556.00	  553.30	-1794.05	  434.76
     21.4700	  574.00	  552.99	-1775.74	  434.43
     21.5700	  560.00	  552.67	-1789.43	  434.09
     21.6700	  561.00	  552.36	-1788.11	  433.75
     21.7700	  557.00	  552.05	-1791.80	  433.42
     21.8700	  624.00	  551.75	-1724.50	  433.08
     21.9700	  542.00	  551.44	-1806.19	  432.74
     22.0700	  586.00	  551.14	-1761.89	  432.41
     22.1700	  519.00	  550.84	-1828.59	  432.07
     22.2700	  576.00	  550.54	-1771.29	  431.73
     22.3700	  540.00	  550.24	-1806.99	  431.39
     22.4700	  560.00	  549.95	-1786.70	  431.05
     22.5700	  547.00	  549.67	-1799.42	  430.71
     22.6700	  552.00	  549.39	-1794.14	  430.37
     22.7700	  498.00	  549.11	-1847.86	  430.03
     22.8700	  561.00	  548.85	-1784.60	  429.69
     22.9700	  545.00	  548.59	-1800.34	  429.35
     23.0700	  521.00	  548.35	-1824.10	  429.01
     23.1700	  553.00	  548.12	-1791.87	  428.67
     23.2700	  531.00	  547.91	-1813.66	  428.33
     23.3700	  557.00	  547.73	-1787.48	  427.99
     23.4700	  573.00	  547.58	-1771.33	  427.64
     23.5700	  554.00	  547.48	-1790.23	  427.30
     23.6700	  569.00	  547.57	-1775.32	  426.96
     23.7700	  564.00	  547.64	-1780.39	  426.62
     23.8700	  570.00	  547.91	-1774.66	  426.28
     23.9700	  541.00	  548.60	-1804.35	  425.94
     24.0700	  588.00	  550.10	-1758.85	  425.60
     24.1700	  580.00	  553.05	-1769.80	  425.26
     24.2700	  603.00	  558.26	-1752.01	  424.92
     24.3700	  557.00	  566.63	-1806.38	  424.57
     24.4700	  614.00	  579.16	-1761.91	  424.23
     24.5700	  635.00	  596.09	-1757.84	  423.89
     24.6700	  562.00	  614.83	-1849.58	  423.55
     24.7700	  636.00	  627.94	-1788.69	  423.21
     24.8700	  618.00	  625.34	-1804.09	  422.87
     24.9700	  627.00	  605.50	-1775.25	  422.53
     25.0700	  598.00	  581.15	-1779.90	  422.20
     25.1700	  580.00	  562.81	-1779.56	  421.86
     25.2700	  608.00	  552.40	-1741.15	  421.52
     25.3700	  561.00	  547.48	-1783.23	  421.18
     25.4700	  538.00	  545.24	-1803.99	  420.84
     25.5700	  607.00	  544.05	-1733.80	  420.51
     25.6700	  574.00	  543.27	-1766.02	  420.17
     25.7700	  608.00	  542.71	-1731.46	  419.83
     25.8700	  572.00	  542.28	-1767.03	  419.50
     25.9700	  560.00	  541.96	-1778.71	  419.16
     26.0700	  584.00	  541.72	-1754.47	  418.83
     26.1700	  521.00	  541.56	-1817.31	  418.49
     26.2700	  545.00	  541.47	-1793.22	  418.16
     26.3700	  532.00	  541.47	-1806.22	  417.82
     26.4700	  530.00	  541.55	-1808.30	  417.49
     26.5700	  559.00	  541.73	-1779.48	  417.16
     26.6700	  586.00	  542.02	-1752.77	  416.83
     26.7700	  508.00	  542.45	-1831.20	  416.50
     26.8700	  554.00	  543.06	-1785.81	  416.16
     26.9700	  570.00	  543.90	-1770.65	  415.84
     27.0700	  554.00	  545.05	-1787.80	  415.51
     27.1700	  547.00	  546.64	-1796.39	  415.18
     27.2700	  544.00	  548.92	-1801.67	  414.85
     27.3700	  584.00	  552.41	-1765.16	  414.52
     27.4700	  542.00	  558.06	-1812.81	  414.20
     27.5700	  562.00	  567.60	-1802.35	  413.87
     27.6700	  523.00	  583.75	-1857.50	  413.55
     27.7700	  606.00	  609.98	-1800.73	  413.22
     27.8700	  569.00	  649.24	-1876.99	  412.90
     27.9700	  612.00	  701.59	-1886.34	  412.58
     28.0700	  767.00	  761.11	-1790.86	  412.26
     28.1700	  889.00	  813.20	-1720.95	  411.94
     28.2700	  945.00	  836.03	-1687.78	  411.62
     28.3700	  926.00	  816.67	-1687.42	  411.30
     28.4700	  826.00	  775.85	-1746.60	  410.98
     28.5700	  733.00	  748.14	-1811.89	  410.66
     28.6700	  723.00	  749.53	-1823.28	  410.35
     28.7700	  681.00	  775.27	-1891.02	  410.03
     28.8700	  790.00	  805.25	-1812.00	  409.72
     28.9700	  857.00	  810.78	-1750.53	  409.40
     29.0700	  801.00	  773.27	-1769.02	  409.09
     29.1700	  719.00	  708.44	-1786.19	  408.78
     29.2700	  645.00	  646.08	-1797.83	  408.47
     29.3700	  617.00	  600.70	-1780.45	  408.16
     29.4700	  577.00	  573.00	-1792.75	  407.86
     29.5700	  603.00	  557.87	-1751.62	  407.55
     29.6700	  568.00	  549.84	-1778.59	  407.24
     29.7700	  601.00	  545.27	-1741.02	  406.94
     29.8700	  608.00	  542.42	-1731.17	  406.63
     29.9700	  617.00	  540.58	-1720.33	  406.33
     30.0700	  598.00	  539.57	-1738.32	  406.03
     30.1700	  564.00	  539.52	-1772.27	  405.73
     30.2700	  564.00	  540.92	-1773.67	  405.43
     30.3700	  576.00	  544.72	-1765.47	  405.13
     30.4700	  562.00	  552.42	-1787.17	  404.84
     30.5700	  556.00	  565.55	-1806.30	  404.54
     30.6700	  553.00	  584.54	-1828.29	  404.25
     30.7700	  619.00	  607.04	-1784.79	  403.96
     30.8700	  636.00	  626.72	-1787.47	  403.66
     30.9700	  624.00	  633.85	-1806.60	  403.37
     31.0700	  628.00	  621.70	-1790.45	  403.08
     31.1700	  599.00	  596.45	-1794.20	  402.80
     31.2700	  571.00	  570.87	-1796.62	  402.51
     31.3700	  511.00	  551.83	-1837.58	  402.23
     31.4700	  536.00	  540.13	-1800.88	  401.94
     31.5700	  504.00	  533.80	-1826.55	  401.66
     31.6700	  556.00	  530.52	-1771.27	  401.38
     31.7700	  575.00	  528.70	-1750.45	  401.10
     31.8700	  558.00	  527.55	-1766.30	  400.82
     31.9700	  488.00	  526.76	-1835.51	  400.54
     32.0700	  530.00	  526.20	-1792.95	  400.27
     32.1700	  530.00	  525.82	-1792.57	  399.99
     32.2700	  513.00	  525.60	-1809.35	  399.72
     32.3700	  532.00	  525.53	-1790.28	  399.45
     32.4700	  565.00	  525.62	-1757.37	  399.18
     32.5700	  515.00	  525.88	-1807.63	  398.91
     32.6700	  532.00	  526.33	-1791.08	  398.64
     32.7700	  535.00	  527.04	-1788.79	  398.38
     32.8700	  515.00	  528.06	-1809.81	  398.11
     32.9700	  517.00	  529.52	-1809.27	  397.85
     33.0700	  515.00	  531.62	-1813.37	  397.59
     33.1700	  500.00	  534.85	-1831.60	  397.33
     33.2700	  517.00	  540.25	-1820.00	  397.07
     33.3700	  507.00	  550.11	-1839.86	  396.81
     33.4700	  596.00	  568.81	-1769.56	  396.56
     33.5700	  626.00	  603.27	-1774.02	  396.30
     33.6700	  625.00	  661.46	-1833.21	  396.05
     33.7700	  772.00	  747.00	-1771.75	  395.80
     33.8700	  891.00	  850.79	-1756.54	  395.55
     33.9700	  993.00	  945.40	-1749.15	  395.30
     34.0700	 1068.00	  988.38	-1717.13	  395.06
     34.1700	 1049.00	  947.70	-1695.45	  394.81
     34.2700	  926.00	  844.02	-1714.77	  394.57
     34.3700	  771.00	  731.17	-1756.92	  394.33
     34.4700	  613.00	  643.03	-1826.78	  394.09
     34.5700	  574.00	  587.10	-1809.85	  393.85
     34.6700	  574.00	  556.54	-1779.29	  393.61
     34.7700	  550.00	  541.08	-1787.83	  393.38
     34.8700	  552.00	  533.01	-1777.76	  393.14
     34.9700	  529.00	  528.22	-1795.97	  392.91
     35.0700	  580.00	  524.92	-1741.67	  392.68
     35.1700	  507.00	  522.46	-1812.21	  392.45
     35.2700	  533.00	  520.50	-1784.25	  392.23
     35.3700	  489.00	  518.91	-1826.66	  392.00
     35.4700	  553.00	  517.60	-1761.35	  391.78
     35.5700	  500.00	  516.48	-1813.23	  391.56
     35.6700	  509.00	  515.53	-1803.28	  391.34
     35.7700	  504.00	  514.71	-1807.46	  391.12
     35.8700	  553.00	  514.46	-1758.21	  390.90
     35.9700	  523.00	  513.82	-1787.57	  390.69
     36.0700	  532.00	  513.25	-1778.00	  390.47
     36.1700	  517.00	  512.74	-1792.49	  390.26
     36.2700	  514.00	  512.27	-1795.02	  390.05
     36.3700	  510.00	  511.85	-1798.60	  389.84
     36.4700	  506.00	  511.47	-1802.22	  389.64
     36.5700	  538.00	  511.13	-1769.88	  389.43
     36.6700	  521.00	  510.83	-1786.58	  389.23
     36.7700	  515.00	  510.57	-1792.32	  389.03
     36.8700	  506.00	  510.38	-1801.13	  388.83
     36.9700	  554.00	  510.30	-1753.05	  388.63
     37.0700	  539.00	  510.45	-1768.20	  388.43
     37.1700	  524.00	  511.06	-1783.81	  388.24
     37.2700	  477.00	  512.45	-1832.20	  388.05
     37.3700	  573.00	  514.94	-1738.69	  387.85
     37.4700	  494.00	  518.55	-1821.30	  387.66
     37.5700	  536.00	  522.63	-1783.38	  387.48
     37.6700	  530.00	  525.82	-1792.57	  387.29
     37.7700	  484.00	  526.54	-1839.29	  387.11
     37.8700	  533.00	  524.44	-1788.19	  386.93
     37.9700	  512.00	  520.85	-1805.60	  386.75
     38.0700	  530.00	  517.10	-1783.85	  386.57
     38.1700	  507.00	  513.76	-1803.51	  386.39
     38.2700	  498.00	  511.07	-1809.82	  386.22
     38.3700	  484.00	  509.10	-1821.85	  386.04
     38.4700	  510.00	  507.77	-1794.52	  385.87
     38.5700	  496.00	  506.90	-1807.65	  385.70
     38.6700	  483.00	  506.34	-1820.09	  385.53
     38.7700	  461.00	  505.85	-1841.60	  385.37
     38.8700	  520.00	  505.56	-1782.31	  385.20
     38.9700	  516.00	  505.32	-1786.07	  385.04
     39.0700	  518.00	  505.10	-1783.85	  384.88
     39.1700	  498.00	  504.90	-1803.65	  384.72
     39.2700	  508.00	  504.64	-1793.39	  384.56
     39.3700	  512.00	  504.47	-1789.22	  384.41
     39.4700	  514.00	  504.31	-1787.06	  384.26
     39.5700	  508.00	  504.29	-1793.04	  384.10
     39.6700	  491.00	  504.16	-1809.91	  383.95
     39.7700	  518.00	  504.03	-1782.78	  383.81
     39.8700	  532.00	  503.91	-1768.66	  383.66
     39.9700	  503.00	  503.81	-1797.56	  383.52
     40.0700	  515.00	  503.71	-1785.46	  383.37
     40.1700	  451.00	  503.62	-1849.37	  383.23
     40.2700	  488.00	  503.54	-1812.29	  383.09
     40.3700	  508.00	  503.47	-1792.22	  382.96
     40.4700	  449.00	  503.42	-1851.17	  382.82
     40.5700	  487.00	  503.38	-1813.13	  382.69
     40.6700	  520.00	  503.35	-1780.10	  382.56
     40.7700	  526.00	  503.34	-1774.09	  382.43
     40.8700	  488.00	  503.36	-1812.11	  382.30
     40.9700	  537.00	  503.40	-1763.15	  382.17
     41.0700	  478.00	  503.47	-1822.22	  382.05
     41.1700	  469.00	  503.58	-1831.33	  381.93
     41.2700	  498.00	  503.71	-1802.46	  381.81
     41.3700	  516.00	  503.92	-1784.67	  381.69
     41.4700	  523.00	  504.22	-1777.97	  381.57
     41.5700	  522.00	  505.06	-1779.81	  381.45
     41.6700	  481.00	  505.64	-1821.39	  381.34
     41.7700	  548.00	  506.50	-1755.25	  381.23
     41.8700	  469.00	  507.94	-1835.69	  381.12
     41.9700	  470.00	  510.59	-1837.34	  381.01
     42.0700	  524.00	  515.70	-1788.45	  380.91
     42.1700	  501.00	  525.26	-1821.01	  380.80
     42.2700	  485.00	  541.65	-1853.40	  380.70
     42.3700	  545.00	  566.10	-1817.85	  380.60
     42.4700	  576.00	  596.93	-1817.68	  380.50
     42.5700	  600.00	  627.55	-1824.30	  380.40
     42.6700	  529.00	  647.13	-1914.88	  380.31
     42.7700	  567.00	  645.35	-1875.10	  380.22
     42.8700	  575.00	  622.56	-1844.31	  380.12
     42.9700	  563.00	  590.14	-1823.89	  380.03
     43.0700	  548.00	  559.52	-1808.27	  379.95
     43.1700	  540.00	  536.43	-1793.18	  379.86
     43.2700	  491.00	  521.69	-1827.44	  379.78
     43.3700	  519.00	  513.44	-1791.19	  379.69
     43.4700	  496.00	  509.17	-1809.92	  379.61
     43.5700	  484.00	  506.96	-1819.71	  379.53
     43.6700	  499.00	  505.90	-1803.65	  379.46
     43.7700	  513.00	  505.10	-1788.85	  379.38
     43.8700	  502.00	  504.53	-1799.28	  379.31
     43.9700	  492.00	  504.11	-1808.86	  379.24
     44.0700	  510.00	  503.82	-1790.57	  379.17
     44.1700	  490.00	  503.57	-1810.32	  379.10
     44.2700	  462.00	  503.38	-1838.13	  379.03
     44.3700	  510.00	  503.24	-1789.99	  378.97
     44.4700	  514.00	  503.15	-1785.90	  378.90
     44.5700	  492.00	  503.09	-1807.84	  378.84
     44.6700	  496.00	  502.93	-1803.68	  378.78
     44.7700	  516.00	  502.92	-1783.67	  378.73
     44.8700	  494.00	  502.95	-1805.70	  378.67
     44.9700	  486.00	  502.99	-1813.74	  378.62
     45.0700	  553.00	  503.06	-1746.81	  378.56
     45.1700	  487.00	  503.34	-1813.09	  378.51
     45.2700	  534.00	  503.45	-1766.20	  378.46
     45.3700	  484.00	  503.59	-1816.34	  378.42
     45.4700	  494.00	  503.75	-1806.50	  378.37
     45.5700	  520.00	  503.93	-1780.68	  378.33
     45.6700	  490.00	  504.14	-1810.89	  378.29
     45.7700	  532.00	  504.37	-1769.12	  378.25
     45.8700	  553.00	  504.63	-1748.38	  378.21
     45.9700	  540.00	  504.93	-1761.68	  378.17
     46.0700	  516.00	  505.26	-1786.01	  378.14
     46.1700	  522.00	  505.63	-1780.38	  378.10
     46.2700	  560.00	  506.04	-1742.79	  378.07
     46.3700	  550.00	  506.50	-1753.25	  378.04
     46.4700	  555.00	  507.03	-1748.78	  378.01
     46.5700	  506.00	  507.62	-1798.37	  377.99
     46.6700	  500.00	  508.30	-1805.05	  377.96
     46.7700	  471.00	  509.10	-1834.85	  377.94
     46.8700	  516.00	  510.07	-1790.82	  377.92
     46.9700	  549.00	  511.33	-1759.08	  377.90
     47.0700	  497.00	  513.15	-1812.90	  377.88
     47.1700	  516.00	  516.09	-1796.84	  377.86
     47.2700	  493.00	  521.05	-1824.80	  377.85
     47.3700	  495.00	  529.15	-1830.90	  377.84
     47.4700	  531.00	  541.56	-1807.31	  377.82
     47.5700	  548.00	  558.51	-1807.26	  377.81
     47.6700	  586.00	  578.33	-1789.08	  377.81
     47.7700	  565.00	  596.92	-1828.67	  377.80
     47.8700	  554.00	  608.32	-1851.07	  377.79
     47.9700	  630.00	  607.86	-1774.61	  377.79
     48.0700	  591.00	  596.38	-1802.13	  377.79
     48.1700	  560.00	  579.82	-1816.57	  377.79
     48.2700	  557.00	  564.02	-1803.77	  377.79
     48.3700	  561.00	  552.34	-1788.09	  377.79
     48.4700	  519.00	  545.73	-1823.48	  377.80
     48.5700	  529.00	  543.62	-1811.37	  377.80
     48.6700	  538.00	  544.89	-1803.64	  377.81
     48.7700	  543.00	  548.60	-1802.35	  377.82
     48.8700	  549.00	  554.28	-1802.03	  377.83
     48.9700	  559.00	  561.98	-1799.73	  377.84
     49.0700	  565.00	  572.41	-1804.16	  377.86
     49.1700	  580.00	  587.27	-1804.02	  377.87
     49.2700	  636.00	  610.10	-1770.85	  377.89
     49.3700	  651.00	  647.58	-1793.33	  377.91
     49.4700	  665.00	  711.12	-1842.87	  377.93
     49.5700	  795.00	  815.79	-1817.54	  377.95
     49.6700	  954.00	  979.63	-1822.38	  377.97
     49.7700	 1108.00	 1215.53	-1904.28	  378.00
     49.8700	 1484.00	 1521.44	-1834.19	  378.03
     49.9700	 1841.00	 1868.86	-1824.61	  378.05
     50.0700	 2222.00	 2193.84	-1768.59	  378.08
     50.1700	 2527.00	 2401.56	-1671.31	  378.11
     50.2700	 2447.00	 2407.08	-1756.83	  378.14
     50.3700	 2319.00	 2205.82	-1683.57	  378.18
     50.4700	 1948.00	 1881.77	-1730.52	  378.21
     50.5700	 1460.00	 1535.02	-1871.77	  378.25
     50.6700	 1018.00	 1231.89	-2010.64	  378.29
     50.7700	  855.00	 1001.72	-1943.47	  378.33
     50.8700	  706.00	  846.36	-1937.11	  378.37
     50.9700	  645.00	  751.35	-1903.10	  378.41
     51.0700	  631.00	  696.19	-1861.94	  378.45
     51.1700	  581.00	  662.07	-1877.82	  378.50
     51.2700	  601.00	  636.48	-1832.23	  378.54
     51.3700	  574.00	  614.25	-1837.00	  378.59
     51.4700	  589.00	  594.79	-1802.54	  378.64
     51.5700	  611.00	  578.76	-1764.51	  378.69
     51.6700	  574.00	  566.52	-1789.27	  378.74
     51.7700	  538.00	  557.83	-1816.58	  378.80
     51.8700	  525.00	  551.98	-1823.73	  378.85
     51.9700	  517.00	  548.17	-1827.92	  378.91
     52.0700	  548.00	  545.79	-1794.54	  378.96
     52.1700	  588.00	  544.68	-1753.43	  379.02
     52.2700	  540.00	  544.30	-1801.05	  379.08
     52.3700	  566.00	  544.94	-1775.69	  379.14
     52.4700	  570.00	  547.05	-1773.80	  379.21
     52.5700	  568.00	  551.63	-1780.38	  379.27
     52.6700	  577.00	  560.87	-1780.62	  379.33
     52.7700	  582.00	  578.74	-1793.49	  379.40
     52.8700	  606.00	  611.40	-1802.15	  379.47
     52.9700	  681.00	  666.46	-1782.21	  379.54
     53.0700	  776.00	  750.34	-1771.09	  379.61
     53.1700	  941.00	  863.82	-1719.57	  379.68
     53.2700	 1017.00	  997.13	-1776.88	  379.75
     53.3700	 1124.00	 1126.82	-1799.57	  379.82
     53.4700	 1174.00	 1217.51	-1840.26	  379.90
     53.5700	 1199.00	 1235.10	-1832.85	  379.97
     53.6700	 1072.00	 1171.34	-1896.09	  380.05
     53.7700	 1057.00	 1052.43	-1792.18	  380.13
     53.8700	  860.00	  916.60	-1853.35	  380.21
     53.9700	  733.00	  793.16	-1856.91	  380.29
     54.0700	  693.00	  697.19	-1800.94	  380.37
     54.1700	  613.00	  631.55	-1815.30	  380.46
     54.2700	  614.00	  591.37	-1774.12	  380.54
     54.3700	  579.00	  568.98	-1786.73	  380.63
     54.4700	  636.00	  557.36	-1718.11	  380.71
     54.5700	  566.00	  551.60	-1782.35	  380.80
     54.6700	  577.00	  548.95	-1768.70	  380.89
     54.7700	  555.00	  547.98	-1789.73	  380.98
     54.8700	  538.00	  548.06	-1806.81	  381.07
     54.9700	  557.00	  548.95	-1788.70	  381.16
     55.0700	  577.00	  550.59	-1770.34	  381.25
     55.1700	  585.00	  552.97	-1764.72	  381.35
     55.2700	  590.00	  556.19	-1762.94	  381.44
     55.3700	  576.00	  560.32	-1781.07	  381.54
     55.4700	  582.00	  565.59	-1780.34	  381.64
     55.5700	  557.00	  572.43	-1812.18	  381.73
     55.6700	  612.00	  581.62	-1766.37	  381.83
     55.7700	  599.00	  594.80	-1792.55	  381.93
     55.8700	  611.00	  615.30	-1801.05	  382.03
     55.9700	  629.00	  649.25	-1817.00	  382.14
     56.0700	  641.00	  706.92	-1862.67	  382.24
     56.1700	  734.00	  803.13	-1865.88	  382.34
     56.2700	  920.00	  955.58	-1832.33	  382.45
     56.3700	 1121.00	 1179.58	-1855.33	  382.56
     56.4700	 1362.00	 1479.81	-1914.56	  382.66
     56.5700	 1788.00	 1840.59	-1849.34	  382.77
     56.6700	 2145.00	 2218.07	-1869.82	  382.88
     56.7700	 2543.00	 2538.16	-1791.91	  382.99
     56.8700	 2654.00	 2709.50	-1852.25	  383.10
     56.9700	 2539.00	 2668.91	-1926.66	  383.21
     57.0700	 2303.00	 2432.04	-1925.79	  383.32
     57.1700	 2025.00	 2080.74	-1852.49	  383.43
     57.2700	 1636.00	 1704.38	-1865.13	  383.55
     57.3700	 1299.00	 1366.19	-1863.94	  383.66
     57.4700	 1002.00	 1098.42	-1893.17	  383.78
     57.5700	  956.00	  907.98	-1748.73	  383.90
     57.6700	  794.00	  785.37	-1788.12	  384.01
     57.7700	  770.00	  714.15	-1740.90	  384.13
     57.8700	  697.00	  678.63	-1778.38	  384.25
     57.9700	  690.00	  667.55	-1774.30	  384.37
     58.0700	  718.00	  674.85	-1753.60	  384.49
     58.1700	  701.00	  698.37	-1794.12	  384.61
     58.2700	  747.00	  738.04	-1787.79	  384.73
     58.3700	  821.00	  794.04	-1769.79	  384.85
     58.4700	  932.00	  865.10	-1729.85	  384.98
     58.5700	 1065.00	  946.91	-1678.66	  385.10
     58.6700	 1164.00	 1031.67	-1664.42	  385.23
     58.7700	 1357.00	 1110.10	-1549.85	  385.35
     58.8700	 1469.00	 1175.68	-1503.43	  385.48
     58.9700	 1565.00	 1224.71	-1456.46	  385.60
     59.0700	 1592.00	 1252.28	-1457.03	  385.73
     59.1700	 1547.00	 1253.92	-1503.67	  385.86
     59.2700	 1474.00	 1232.96	-1555.71	  385.99
     59.3700	 1404.00	 1201.34	-1594.09	  386.12
     59.4700	 1316.00	 1171.48	-1652.23	  386.25
     59.5700	 1156.00	 1151.74	-1792.49	  386.38
     59.6700	 1177.00	 1149.06	-1768.81	  386.51
     59.7700	 1202.00	 1171.66	-1766.41	  386.64
     59.8700	 1296.00	 1225.12	-1725.87	  386.77
     59.9700	 1325.00	 1305.97	-1777.72	  386.91
     60.0700	 1473.00	 1398.55	-1722.30	  387.04
     60.1700	 1542.00	 1475.43	-1730.18	  387.17
     60.2700	 1558.00	 1504.15	-1742.90	  387.31
     60.3700	 1512.00	 1463.97	-1748.72	  387.44
     60.4700	 1495.00	 1360.80	-1662.55	  387.58
     60.5700	 1271.00	 1220.91	-1746.66	  387.71
     60.6700	 1050.00	 1072.93	-1819.68	  387.85
     60.7700	  929.00	  937.98	-1805.73	  387.99
     60.8700	  738.00	  828.08	-1886.83	  388.12
     60.9700	  709.00	  747.53	-1835.28	  388.26
     61.0700	  682.00	  695.45	-1810.20	  388.40
     61.1700	  667.00	  668.70	-1798.45	  388.54
     61.2700	  667.00	  664.63	-1794.38	  388.68
     61.3700	  633.00	  682.72	-1846.47	  388.82
     61.4700	  653.00	  724.83	-1868.58	  388.96
     61.5700	  729.00	  793.98	-1861.73	  389.10
     61.6700	  859.00	  891.99	-1829.74	  389.24
     61.7700	 1012.00	 1016.62	-1801.37	  389.38
     61.8700	 1122.00	 1158.92	-1833.67	  389.52
     61.9700	 1234.00	 1301.42	-1864.17	  389.66
     62.0700	 1309.00	 1418.15	-1905.90	  389.80
     62.1700	 1358.00	 1479.41	-1918.16	  389.95
     62.2700	 1371.00	 1465.32	-1891.07	  390.09
     62.3700	 1297.00	 1380.03	-1879.78	  390.23
     62.4700	 1178.00	 1248.55	-1867.30	  390.37
     62.5700	 1036.00	 1100.50	-1861.25	  390.52
     62.6700	  879.00	  959.12	-1876.87	  390.66
     62.7700	  779.00	  838.64	-1856.39	  390.81
     62.8700	  742.00	  745.06	-1799.81	  390.95
     62.9700	  666.00	  678.02	-1808.77	  391.09
     63.0700	  541.00	  633.33	-1889.08	  391.24
     63.1700	  592.00	  605.33	-1810.08	  391.38
     63.2700	  578.00	  588.78	-1807.53	  391.53
     63.3700	  599.00	  579.74	-1777.49	  391.67
     63.4700	  577.00	  575.85	-1795.60	  391.82
     63.5700	  564.00	  576.19	-1808.94	  391.96
     63.6700	  588.00	  581.11	-1789.86	  392.11
     63.7700	  616.00	  591.96	-1772.71	  392.26
     63.8700	  630.00	  610.73	-1777.48	  392.40
     63.9700	  675.00	  639.60	-1761.35	  392.55
     64.0700	  714.00	  680.08	-1762.83	  392.69
     64.1700	  758.00	  732.09	-1770.84	  392.84
     64.2700	  880.00	  793.02	-1709.77	  392.99
     64.3700	  905.00	  857.08	-1748.83	  393.13
     64.4700	  956.00	  915.17	-1755.92	  393.28
     64.5700	 1084.00	  956.49	-1669.24	  393.43
     64.6700	 1032.00	  971.72	-1736.47	  393.57
     64.7700	 1051.00	  959.49	-1705.24	  393.72
     64.8700	 1003.00	  923.83	-1717.58	  393.87
     64.9700	  953.00	  873.31	-1717.06	  394.01
     65.0700	  888.00	  817.53	-1726.28	  394.16
     65.1700	  846.00	  764.33	-1715.08	  394.31
     65.2700	  754.00	  718.20	-1760.95	  394.45
     65.3700	  718.00	  680.38	-1759.13	  394.60
     65.4700	  664.00	  650.12	-1782.87	  394.75
     65.5700	  644.00	  626.13	-1778.88	  394.89
     65.6700	  599.00	  607.33	-1805.08	  395.04
     65.7700	  581.00	  592.93	-1808.68	  395.18
     65.8700	  592.00	  582.27	-1787.02	  395.33
     65.9700	  547.00	  574.83	-1824.58	  395.48
     66.0700	  541.00	  570.14	-1825.89	  395.62
     66.1700	  551.00	  567.75	-1813.50	  395.77
     66.2700	  534.00	  567.27	-1830.02	  395.91
     66.3700	  542.00	  568.35	-1823.10	  396.06
     66.4700	  593.00	  570.83	-1774.58	  396.21
     66.5700	  558.00	  574.83	-1813.58	  396.35
     66.6700	  558.00	  580.54	-1819.29	  396.50
     66.7700	  610.00	  588.92	-1775.67	  396.64
     66.8700	  583.00	  601.73	-1815.48	  396.78
     66.9700	  592.00	  621.93	-1826.68	  396.93
     67.0700	  622.00	  654.28	-1829.03	  397.07
     67.1700	  668.00	  705.51	-1834.26	  397.22
     67.2700	  748.00	  784.20	-1832.95	  397.36
     67.3700	  871.00	  899.67	-1825.42	  397.50
     67.4700	 1076.00	 1059.31	-1780.06	  397.65
     67.5700	 1249.00	 1266.02	-1813.77	  397.79
     67.6700	 1513.00	 1514.17	-1797.92	  397.93
     67.7700	 1792.00	 1787.48	-1792.23	  398.07
     67.8700	 2104.00	 2056.85	-1749.60	  398.22
     67.9700	 2356.00	 2281.56	-1722.31	  398.36
     68.0700	 2441.00	 2415.78	-1771.53	  398.50
     68.1700	 2430.00	 2425.26	-1792.01	  398.64
     68.2700	 2265.00	 2307.37	-1839.12	  398.78
     68.3700	 2083.00	 2092.88	-1806.63	  398.92
     68.4700	 1823.00	 1827.37	-1801.12	  399.06
     68.5700	 1553.00	 1552.98	-1796.73	  399.20
     68.6700	 1342.00	 1300.33	-1755.08	  399.34
     68.7700	 1070.00	 1087.76	-1814.51	  399.48
     68.8700	  918.00	  922.02	-1800.77	  399.62
     68.9700	  790.00	  801.33	-1808.08	  399.75
     69.0700	  703.00	  718.56	-1812.31	  399.89
     69.1700	  663.00	  664.55	-1798.30	  400.03
     69.2700	  625.00	  630.53	-1802.28	  400.16
     69.3700	  631.00	  609.46	-1775.21	  400.30
     69.4700	  605.00	  596.32	-1788.07	  400.43
     69.5700	  578.00	  587.90	-1806.65	  400.57
     69.6700	  608.00	  582.28	-1771.03	  400.70
     69.7700	  570.00	  578.41	-1805.16	  400.84
     69.8700	  591.00	  575.72	-1781.47	  400.97
     69.9700	  531.00	  573.93	-1839.68	  401.10
     70.0700	  563.00	  572.90	-1806.65	  401.24
     70.1700	  537.00	  572.60	-1832.35	  401.37
     70.2700	  606.00	  573.01	-1763.76	  401.50
     70.3700	  582.00	  574.24	-1788.99	  401.63
     70.4700	  567.00	  576.52	-1806.27	  401.76
     70.5700	  528.00	  580.33	-1849.08	  401.89
     70.6700	  595.00	  586.51	-1788.26	  402.02
     70.7700	  555.00	  596.54	-1838.29	  402.14
     70.8700	  540.00	  612.78	-1869.53	  402.27
     70.9700	  643.00	  638.73	-1792.48	  402.40
     71.0700	  647.00	  679.07	-1828.82	  402.52
     71.1700	  748.00	  739.42	-1788.17	  402.65
     71.2700	  813.00	  825.45	-1809.20	  402.77
     71.3700	  960.00	  942.39	-1779.14	  402.90
     71.4700	 1030.00	 1089.63	-1856.38	  403.02
     71.5700	 1240.00	 1264.07	-1820.82	  403.14
     71.6700	 1413.00	 1455.12	-1838.87	  403.27
     71.7700	 1607.00	 1645.07	-1834.82	  403.39
     71.8700	 1810.00	 1809.45	-1796.20	  403.51
     71.9700	 1810.00	 1920.14	-1906.89	  403.63
     72.0700	 1894.00	 1953.38	-1856.13	  403.75
     72.1700	 1887.00	 1901.23	-1810.98	  403.86
     72.2700	 1823.00	 1776.27	-1750.02	  403.98
     72.3700	 1702.00	 1604.27	-1699.02	  404.10
     72.4700	 1461.00	 1412.57	-1748.32	  404.21
     72.5700	 1278.00	 1224.92	-1743.67	  404.33
     72.6700	 1177.00	 1056.80	-1676.55	  404.44
     72.7700	 1018.00	  916.89	-1695.64	  404.56
     72.8700	  878.00	  807.66	-1726.41	  404.67
     72.9700	  896.00	  727.03	-1627.78	  404.78
     73.0700	  792.00	  670.32	-1675.07	  404.89
     73.1700	  768.00	  631.93	-1660.68	  405.00
     73.2700	  691.00	  606.59	-1712.34	  405.11
     73.3700	  647.00	  590.02	-1739.77	  405.22
     73.4700	  635.00	  579.11	-1740.86	  405.33
     73.5700	  625.00	  571.81	-1743.56	  405.43
     73.6700	  626.00	  566.83	-1737.58	  405.54
     73.7700	  616.00	  563.44	-1744.19	  405.64
     73.8700	  564.00	  561.20	-1793.95	  405.75
     73.9700	  585.00	  559.88	-1771.63	  405.85
     74.0700	  604.00	  559.29	-1752.04	  405.95
     74.1700	  637.00	  559.28	-1719.03	  406.05
     74.2700	  602.00	  559.67	-1754.42	  406.15
     74.3700	  614.00	  560.22	-1742.97	  406.25
     74.4700	  632.00	  560.69	-1725.44	  406.35
     74.5700	  679.00	  560.79	-1678.54	  406.45
     74.6700	  678.00	  560.33	-1679.08	  406.54
     74.7700	  608.00	  559.25	-1748.00	  406.64
     74.8700	  610.00	  557.68	-1744.43	  406.73
     74.9700	  574.00	  555.88	-1778.63	  406.82
     75.0700	  623.00	  554.17	-1727.92	  406.92
     75.1700	  545.00	  552.86	-1804.61	  407.01
     75.2700	  570.00	  552.21	-1778.96	  407.10
     75.3700	  591.00	  552.78	-1758.53	  407.18
     75.4700	  516.00	  554.91	-1835.66	  407.27
     75.5700	  556.00	  559.10	-1799.85	  407.36
     75.6700	  551.00	  565.76	-1811.51	  407.44
     75.7700	  599.00	  575.57	-1773.32	  407.53
     75.8700	  564.00	  588.74	-1821.49	  407.61
     75.9700	  631.00	  605.25	-1771.00	  407.69
     76.0700	  621.00	  624.62	-1800.37	  407.77
     76.1700	  624.00	  645.75	-1818.50	  407.85
     76.2700	  670.00	  666.93	-1793.68	  407.93
     76.3700	  680.00	  685.84	-1802.59	  408.01
     76.4700	  676.00	  699.79	-1820.54	  408.09
     76.5700	  705.00	  706.31	-1798.06	  408.16
     76.6700	  680.00	  704.05	-1820.80	  408.24
     76.7700	  726.00	  693.45	-1764.20	  408.31
     76.8700	  670.00	  676.52	-1803.27	  408.38
     76.9700	  614.00	  655.95	-1838.70	  408.45
     77.0700	  587.00	  634.07	-1843.82	  408.52
     77.1700	  565.00	  613.31	-1845.06	  408.59
     77.2700	  528.00	  594.86	-1863.61	  408.66
     77.3700	  542.00	  579.48	-1834.23	  408.72
     77.4700	  531.00	  567.38	-1833.13	  408.79
     77.5700	  562.00	  558.34	-1793.09	  408.85
     77.6700	  484.00	  551.90	-1864.65	  408.91
     77.7700	  474.00	  547.50	-1870.25	  408.97
     77.8700	  523.00	  544.59	-1818.34	  409.03
     77.9700	  525.00	  542.72	-1814.47	  409.09
     78.0700	  544.00	  541.52	-1794.27	  409.15
     78.1700	  550.00	  540.77	-1787.52	  409.20
     78.2700	  529.00	  540.29	-1808.04	  409.26
     78.3700	  496.00	  539.99	-1840.74	  409.31
     78.4700	  543.00	  539.82	-1793.57	  409.36
     78.5700	  506.00	  539.75	-1830.50	  409.41
     78.6700	  537.00	  539.78	-1799.53	  409.46
     78.7700	  527.00	  539.91	-1809.66	  409.51
     78.8700	  506.00	  540.16	-1830.91	  409.55
     78.9700	  502.00	  540.57	-1835.32	  409.60
     79.0700	  471.00	  541.17	-1866.92	  409.64
     79.1700	  537.00	  542.01	-1801.76	  409.69
     79.2700	  533.00	  543.14	-1806.89	  409.73
     79.3700	  541.00	  544.45	-1800.20	  409.77
     79.4700	  510.00	  546.36	-1833.11	  409.81
     79.5700	  554.00	  548.77	-1791.52	  409.84
     79.6700	  581.00	  551.74	-1767.49	  409.88
     79.7700	  541.00	  555.38	-1811.13	  409.91
     79.8700	  528.00	  559.82	-1828.57	  409.94
     79.9700	  575.00	  565.21	-1786.96	  409.98
     80.0700	  562.00	  571.77	-1806.52	  410.01
     80.1700	  587.00	  579.74	-1789.49	  410.03
     80.2700	  573.00	  589.43	-1813.18	  410.06
     80.3700	  578.00	  601.07	-1819.82	  410.09
     80.4700	  549.00	  614.77	-1862.52	  410.11
     80.5700	  567.00	  630.39	-1860.14	  410.14
     80.6700	  615.00	  647.45	-1829.20	  410.16
     80.7700	  658.00	  665.13	-1803.88	  410.18
     80.8700	  678.00	  682.29	-1801.04	  410.20
     80.9700	  638.00	  697.63	-1856.38	  410.21
     81.0700	  740.00	  709.94	-1766.69	  410.23
     81.1700	  730.00	  718.33	-1785.07	  410.24
     81.2700	  737.00	  722.25	-1782.00	  410.26
     81.3700	  778.00	  721.53	-1740.28	  410.27
     81.4700	  768.00	  716.33	-1745.08	  410.28
     81.5700	  773.00	  707.16	-1730.91	  410.28
     81.6700	  723.00	  694.71	-1768.46	  410.29
     81.7700	  747.00	  679.77	-1729.52	  410.30
     81.8700	  695.00	  663.27	-1765.02	  410.30
     81.9700	  727.00	  646.22	-1715.97	  410.30
     82.0700	  707.00	  629.56	-1719.31	  410.30
     82.1700	  648.00	  614.01	-1762.76	  410.30
     82.2700	  649.00	  600.15	-1747.90	  410.30
     82.3700	  655.00	  588.20	-1729.95	  410.30
     82.4700	  608.00	  578.23	-1766.98	  410.29
     82.5700	  603.00	  570.24	-1763.99	  410.29
     82.6700	  585.00	  564.11	-1775.86	  410.28
     82.7700	  575.00	  559.79	-1781.54	  410.27
     82.8700	  569.00	  557.13	-1784.88	  410.26
     82.9700	  541.00	  556.01	-1811.76	  410.24
     83.0700	  552.00	  556.32	-1801.07	  410.23
     83.1700	  540.00	  557.98	-1814.73	  410.21
     83.2700	  511.00	  560.85	-1846.60	  410.19
     83.3700	  533.00	  564.77	-1828.52	  410.18
     83.4700	  535.00	  569.51	-1831.26	  410.16
     83.5700	  507.00	  574.73	-1864.48	  410.13
     83.6700	  532.00	  580.02	-1844.77	  410.11
     83.7700	  596.00	  584.86	-1785.61	  410.08
     83.8700	  572.00	  588.68	-1813.43	  410.06
     83.9700	  538.00	  590.93	-1849.68	  410.03
     84.0700	  602.00	  591.21	-1785.96	  410.00
     84.1700	  565.00	  589.45	-1821.20	  409.97
     84.2700	  606.00	  585.87	-1776.62	  409.93
     84.3700	  549.00	  580.98	-1828.73	  409.90
     84.4700	  589.00	  575.31	-1783.06	  409.86
     84.5700	  576.00	  569.38	-1790.13	  409.82
     84.6700	  529.00	  563.62	-1831.37	  409.78
     84.7700	  565.00	  558.33	-1790.08	  409.74
     84.8700	  526.00	  553.72	-1824.47	  409.70
     84.9700	  542.00	  549.90	-1804.65	  409.66
     85.0700	  562.00	  546.87	-1781.62	  409.61
     85.1700	  551.00	  544.58	-1790.33	  409.56
     85.2700	  527.00	  542.97	-1812.72	  409.51
     85.3700	  591.00	  541.92	-1747.67	  409.46
     85.4700	  546.00	  541.35	-1792.10	  409.41
     85.5700	  501.00	  541.17	-1836.92	  409.36
     85.6700	  522.00	  541.33	-1816.08	  409.30
     85.7700	  510.00	  541.81	-1828.56	  409.24
     85.8700	  513.00	  542.62	-1826.37	  409.18
     85.9700	  548.00	  543.80	-1792.55	  409.12
     86.0700	  548.00	  545.41	-1794.16	  409.06
     86.1700	  519.00	  547.58	-1825.33	  409.00
     86.2700	  522.00	  550.42	-1825.17	  408.93
     86.3700	  548.00	  554.09	-1802.84	  408.87
     86.4700	  531.00	  558.73	-1824.48	  408.80
     86.5700	  596.00	  564.47	-1765.22	  408.73
     86.6700	  578.00	  571.35	-1790.10	  408.66
     86.7700	  575.00	  579.32	-1801.07	  408.58
     86.8700	  599.00	  587.86	-1785.61	  408.51
     86.9700	  585.00	  597.21	-1808.96	  408.43
     87.0700	  579.00	  606.53	-1824.28	  408.35
     87.1700	  616.00	  615.12	-1795.87	  408.27
     87.2700	  647.00	  622.19	-1771.94	  408.19
     87.3700	  630.00	  626.94	-1793.69	  408.11
     87.4700	  635.00	  628.77	-1790.52	  408.02
     87.5700	  651.00	  627.44	-1773.19	  407.94
     87.6700	  640.00	  623.17	-1779.92	  407.85
     87.7700	  682.00	  616.61	-1731.36	  407.76
     87.8700	  646.00	  608.62	-1759.37	  407.67
     87.9700	  600.00	  600.09	-1796.84	  407.57
     88.0700	  606.00	  591.86	-1782.61	  407.48
     88.1700	  596.00	  584.64	-1785.39	  407.38
     88.2700	  601.00	  578.96	-1774.71	  407.29
     88.3700	  617.00	  575.22	-1754.97	  407.19
     88.4700	  629.00	  573.58	-1741.33	  407.09
     88.5700	  570.00	  574.08	-1800.83	  406.98
     88.6700	  591.00	  576.55	-1782.30	  406.88
     88.7700	  583.00	  580.70	-1794.45	  406.77
     88.8700	  594.00	  586.10	-1788.85	  406.67
     88.9700	  606.00	  592.22	-1782.97	  406.56
     89.0700	  574.00	  598.44	-1821.19	  406.45
     89.1700	  627.00	  604.08	-1773.83	  406.33
     89.2700	  644.00	  608.47	-1761.22	  406.22
     89.3700	  615.00	  610.98	-1792.73	  406.11
     89.4700	  571.00	  611.22	-1836.97	  405.99
     89.5700	  592.00	  609.10	-1813.85	  405.87
     89.6700	  568.00	  604.87	-1833.62	  405.75
     89.7700	  575.00	  599.00	-1820.75	  405.63
     89.8700	  598.00	  592.07	-1790.82	  405.51
     89.9700	  614.00	  584.66	-1767.41	  405.38
     90.0700	  588.00	  577.25	-1786.00	  405.25
     90.1700	  553.00	  570.25	-1814.00	  405.13
     90.2700	  517.00	  563.93	-1843.68	  405.00
     90.3700	  513.00	  558.46	-1842.21	  404.86
     90.4700	  579.00	  553.93	-1771.68	  404.73
     90.5700	  526.00	  550.33	-1821.08	  404.60
     90.6700	  484.00	  547.58	-1860.33	  404.46
     90.7700	  544.00	  545.61	-1798.36	  404.32
     90.8700	  517.00	  544.28	-1824.03	  404.19
     90.9700	  596.00	  543.52	-1744.27	  404.05
     91.0700	  565.00	  543.23	-1774.98	  403.90
     91.1700	  563.00	  543.36	-1777.11	  403.76
     91.2700	  553.00	  543.92	-1787.67	  403.61
     91.3700	  502.00	  544.93	-1839.68	  403.47
     91.4700	  504.00	  546.46	-1839.21	  403.32
     91.5700	  516.00	  548.64	-1829.39	  403.17
     91.6700	  548.00	  551.62	-1800.37	  403.02
     91.7700	  536.00	  555.60	-1816.35	  402.87
     91.8700	  551.00	  560.76	-1806.51	  402.71
     91.9700	  585.00	  567.33	-1779.08	  402.56
     92.0700	  538.00	  575.25	-1834.00	  402.40
     92.1700	  579.00	  585.11	-1802.86	  402.24
     92.2700	  544.00	  596.72	-1849.47	  402.08
     92.3700	  597.00	  610.05	-1809.80	  401.92
     92.4700	  637.00	  624.90	-1784.65	  401.76
     92.5700	  636.00	  640.99	-1801.74	  401.59
     92.6700	  651.00	  657.87	-1803.62	  401.42
     92.7700	  699.00	  674.95	-1772.70	  401.26
     92.8700	  747.00	  691.58	-1741.33	  401.09
     92.9700	  736.00	  707.05	-1767.80	  400.92
     93.0700	  759.00	  720.78	-1758.53	  400.75
     93.1700	  786.00	  732.44	-1743.19	  400.57
     93.2700	  722.00	  742.10	-1816.85	  400.40
     93.3700	  785.00	  750.18	-1761.93	  400.22
     93.4700	  836.00	  757.30	-1718.05	  400.04
     93.5700	  866.00	  764.13	-1694.88	  399.87
     93.6700	  838.00	  771.27	-1730.02	  399.69
     93.7700	  845.00	  779.23	-1730.98	  399.50
     93.8700	  788.00	  788.47	-1797.22	  399.32
     93.9700	  881.00	  799.40	-1715.15	  399.14
     94.0700	  830.00	  812.35	-1779.10	  398.95
     94.1700	  858.00	  827.40	-1766.15	  398.76
     94.2700	  898.00	  844.32	-1743.07	  398.58
     94.3700	  834.00	  862.43	-1825.18	  398.39
     94.4700	  865.00	  880.62	-1812.37	  398.19
     94.5700	  887.00	  897.36	-1807.11	  398.00
     94.6700	  919.00	  910.85	-1788.60	  397.81
     94.7700	  940.00	  919.18	-1775.93	  397.61
     94.8700	  918.00	  920.79	-1799.54	  397.42
     94.9700	  884.00	  914.77	-1827.52	  397.22
     95.0700	  865.00	  901.20	-1832.95	  397.02
     95.1700	  915.00	  881.09	-1762.84	  396.82
     95.2700	  807.00	  856.13	-1845.88	  396.62
     95.3700	  813.00	  828.31	-1812.06	  396.42
     95.4700	  808.00	  799.68	-1788.43	  396.21
     95.5700	  735.00	  772.15	-1833.90	  396.01
     95.6700	  655.00	  747.51	-1889.26	  395.80
     95.7700	  699.00	  727.33	-1825.08	  395.59
     95.8700	  711.00	  713.04	-1798.79	  395.38
     95.9700	  670.00	  705.86	-1832.61	  395.17
     96.0700	  649.00	  706.86	-1854.61	  394.96
     96.1700	  712.00	  716.95	-1801.70	  394.75
     96.2700	  743.00	  736.80	-1790.55	  394.54
     96.3700	  743.00	  766.86	-1820.61	  394.32
     96.4700	  821.00	  807.26	-1783.01	  394.11
     96.5700	  837.00	  857.68	-1817.43	  393.89
     96.6700	  936.00	  917.30	-1778.05	  393.67
     96.7700	  965.00	  984.69	-1816.44	  393.45
     96.8700	 1054.00	 1057.76	-1800.51	  393.23
     96.9700	 1131.00	 1133.70	-1799.45	  393.01
     97.0700	 1147.00	 1209.07	-1858.82	  392.79
     97.1700	 1299.00	 1279.83	-1777.58	  392.56
     97.2700	 1384.00	 1341.56	-1754.31	  392.34
     97.3700	 1343.00	 1389.85	-1843.60	  392.11
     97.4700	 1374.00	 1420.82	-1843.57	  391.89
     97.5700	 1431.00	 1431.94	-1797.69	  391.66
     97.6700	 1391.00	 1422.52	-1828.27	  391.43
     97.7700	 1386.00	 1393.92	-1804.67	  391.20
     97.8700	 1342.00	 1349.08	-1803.83	  390.97
     97.9700	 1256.00	 1291.96	-1832.71	  390.74
     98.0700	 1235.00	 1226.78	-1788.53	  390.51
     98.1700	 1139.00	 1157.80	-1815.55	  390.27
     98.2700	 1079.00	 1088.89	-1806.64	  390.04
     98.3700	 1018.00	 1023.43	-1802.18	  389.80
     98.4700	  996.00	  964.30	-1765.05	  389.57
     98.5700	  903.00	  913.79	-1807.54	  389.33
     98.6700	  816.00	  873.71	-1854.46	  389.09
     98.7700	  769.00	  845.42	-1873.17	  388.85
     98.8700	  805.00	  829.91	-1821.66	  388.62
     98.9700	  771.00	  827.85	-1853.60	  388.37
     99.0700	  836.00	  839.67	-1800.42	  388.13
     99.1700	  905.00	  865.61	-1757.36	  387.89
     99.2700	  908.00	  905.71	-1794.46	  387.65
     99.3700	  881.00	  959.75	-1875.50	  387.41
     99.4700	 1025.00	 1027.24	-1798.99	  387.16
     99.5700	 1094.00	 1107.29	-1810.04	  386.92
     99.6700	 1170.00	 1198.53	-1825.28	  386.67
     99.7700	 1280.00	 1299.06	-1815.81	  386.42
     99.8700	 1380.00	 1406.27	-1823.02	  386.18
     99.9700	 1548.00	 1516.85	-1765.60	  385.93
    100.0700	 1541.00	 1626.84	-1882.59	  385.68
    100.1700	 1719.00	 1731.79	-1809.54	  385.43
    100.2700	 1854.00	 1827.24	-1769.99	  385.18
    100.3700	 1964.00	 1909.12	-1741.87	  384.93
    100.4700	 2063.00	 1974.19	-1707.94	  384.68
    100.5700	 2047.00	 2020.21	-1769.96	  384.43
    100.6700	 2143.00	 2045.73	-1699.48	  384.18
    100.7700	 2092.00	 2049.95	-1754.70	  383.93
    100.8700	 2008.00	 2032.65	-1821.40	  383.67
    100.9700	 2070.00	 1994.41	-1721.16	  383.42
    101.0700	 2018.00	 1937.02	-1715.77	  383.17
    101.1700	 1911.00	 1863.61	-1749.36	  382.91
    101.2700	 1837.00	 1778.53	-1738.28	  382.66
    101.3700	 1702.00	 1686.78	-1781.53	  382.40
    101.4700	 1666.00	 1593.40	-1724.15	  382.15
    101.5700	 1466.00	 1502.95	-1833.70	  381.89
    101.6700	 1448.00	 1419.13	-1767.88	  381.63
    101.7700	 1382.00	 1344.64	-1759.39	  381.38
    101.8700	 1290.00	 1281.07	-1787.82	  381.12
    101.9700	 1218.00	 1228.99	-1807.74	  380.86
    102.0700	 1235.00	 1187.94	-1749.69	  380.60
    102.1700	 1120.00	 1156.59	-1833.34	  380.35
    102.2700	 1089.00	 1132.83	-1840.58	  380.09
    102.3700	 1070.00	 1114.10	-1840.85	  379.83
    102.4700	 1125.00	 1097.61	-1769.36	  379.57
    102.5700	 1078.00	 1080.68	-1799.43	  379.31
    102.6700	 1119.00	 1061.09	-1738.84	  379.05
    102.7700	 1027.00	 1037.36	-1807.11	  378.79
    102.8700	 1067.00	 1008.93	-1738.68	  378.53
    102.9700	  914.00	  976.02	-1858.77	  378.27
    103.0700	  889.00	  939.43	-1847.18	  378.01
    103.1700	  915.00	  900.32	-1782.07	  377.75
    103.2700	  818.00	  859.99	-1838.74	  377.49
    103.3700	  854.00	  819.70	-1762.45	  377.23
    103.4700	  787.00	  780.61	-1790.36	  376.97
    103.5700	  725.00	  743.69	-1815.44	  376.71
    103.6700	  701.00	  709.71	-1805.46	  376.45
    103.7700	  642.00	  679.22	-1833.97	  376.19
    103.8700	  653.00	  652.50	-1796.25	  375.93
    103.9700	  655.00	  629.65	-1771.40	  375.68
    104.0700	  591.00	  610.57	-1816.32	  375.42
    104.1700	  630.00	  595.04	-1761.79	  375.16
    104.2700	  580.00	  582.73	-1799.48	  374.90
    104.3700	  568.00	  573.27	-1802.02	  374.64
    104.4700	  576.00	  566.24	-1786.99	  374.38
    104.5700	  561.00	  561.27	-1797.02	  374.12
    104.6700	  516.00	  557.98	-1838.73	  373.86
    104.7700	  552.00	  556.06	-1800.81	  373.60
    104.8700	  488.00	  555.22	-1863.97	  373.35
    104.9700	  593.00	  555.23	-1758.98	  373.09
    105.0700	  521.00	  555.92	-1831.67	  372.83
    105.1700	  551.00	  557.13	-1802.88	  372.58
    105.2700	  548.00	  558.78	-1807.53	  372.32
    105.3700	  559.00	  560.80	-1798.55	  372.06
    105.4700	  558.00	  563.20	-1801.95	  371.81
    105.5700	  556.00	  565.98	-1806.73	  371.55
    105.6700	  537.00	  569.22	-1828.97	  371.30
    105.7700	  523.00	  573.00	-1846.75	  371.05
    105.8700	  556.00	  577.44	-1818.19	  370.79
    105.9700	  557.00	  582.65	-1822.40	  370.54
    106.0700	  566.00	  588.70	-1819.45	  370.29
    106.1700	  545.00	  595.64	-1847.39	  370.04
    106.2700	  580.00	  603.45	-1820.20	  369.79
    106.3700	  586.00	  612.05	-1822.80	  369.54
    106.4700	  610.00	  621.30	-1808.05	  369.29
    106.5700	  614.00	  630.99	-1813.74	  369.04
    106.6700	  562.00	  640.83	-1875.58	  368.79
    106.7700	  651.00	  650.51	-1796.26	  368.54
    106.8700	  650.00	  659.64	-1806.40	  368.30
    106.9700	  686.00	  667.86	-1778.61	  368.05
    107.0700	  615.00	  674.81	-1856.56	  367.81
    107.1700	  684.00	  680.18	-1792.93	  367.56
    107.2700	  673.00	  683.83	-1807.58	  367.32
    107.3700	  663.00	  685.75	-1819.50	  367.08
    107.4700	  663.00	  686.10	-1819.85	  366.84
    107.5700	  714.00	  685.21	-1767.96	  366.60
    107.6700	  685.00	  683.49	-1795.24	  366.36
    107.7700	  687.00	  681.37	-1791.12	  366.12
    107.8700	  690.00	  679.26	-1786.01	  365.88
    107.9700	  671.00	  677.51	-1803.26	  365.65
    108.0700	  628.00	  676.36	-1845.11	  365.41
    108.1700	  703.00	  675.97	-1769.72	  365.18
    108.2700	  727.00	  676.34	-1746.09	  364.95
    108.3700	  697.00	  677.39	-1777.14	  364.72
    108.4700	  686.00	  678.89	-1789.64	  364.49
    108.5700	  707.00	  680.57	-1770.32	  364.26
    108.6700	  718.00	  682.02	-1760.77	  364.04
    108.7700	  676.00	  682.86	-1803.61	  363.81
    108.8700	  650.00	  682.66	-1829.41	  363.59
    108.9700	  697.00	  681.09	-1780.84	  363.36
    109.0700	  719.00	  677.92	-1755.67	  363.14
    109.1700	  695.00	  673.06	-1774.81	  362.92
    109.2700	  676.00	  666.58	-1787.33	  362.71
    109.3700	  622.00	  658.65	-1833.40	  362.49
    109.4700	  641.00	  649.58	-1805.33	  362.27
    109.5700	  652.00	  639.68	-1784.43	  362.06
    109.6700	  632.00	  629.31	-1794.06	  361.85
    109.7700	  656.00	  618.80	-1759.55	  361.64
    109.8700	  625.00	  608.46	-1780.21	  361.43
    109.9700	  625.00	  598.56	-1770.31	  361.23
    110.0700	  605.00	  589.33	-1781.08	  361.02
    110.1700	  616.00	  580.94	-1761.69	  360.82
    110.2700	  571.00	  573.50	-1799.25	  360.62
    110.3700	  584.00	  567.07	-1779.82	  360.42
    110.4700	  553.00	  561.69	-1805.44	  360.22
    110.5700	  556.00	  557.32	-1798.07	  360.03
    110.6700	  557.00	  553.91	-1793.66	  359.83
    110.7700	  531.00	  551.40	-1817.15	  359.64
    110.8700	  530.00	  549.69	-1816.44	  359.45
    110.9700	  556.00	  548.70	-1789.45	  359.27
    111.0700	  509.00	  548.33	-1836.08	  359.08
    111.1700	  566.00	  548.49	-1779.24	  358.90
    111.2700	  552.00	  549.11	-1793.86	  358.72
    111.3700	  528.00	  550.11	-1818.86	  358.54
    111.4700	  567.00	  551.45	-1781.20	  358.37
    111.5700	  515.00	  553.07	-1834.82	  358.19
    111.6700	  545.00	  554.94	-1806.69	  358.02
    111.7700	  587.00	  557.05	-1766.80	  357.85
    111.8700	  573.00	  559.37	-1783.12	  357.69
    111.9700	  548.00	  561.89	-1810.65	  357.52
    112.0700	  549.00	  564.64	-1812.39	  357.36
    112.1700	  557.00	  567.61	-1807.35	  357.20
    112.2700	  552.00	  570.82	-1815.57	  357.05
    112.3700	  550.00	  574.31	-1821.06	  356.89
    112.4700	  597.00	  578.13	-1777.88	  356.74
    112.5700	  609.00	  582.31	-1770.06	  356.60
    112.6700	  603.00	  586.93	-1780.68	  356.45
    112.7700	  622.00	  592.08	-1766.83	  356.31
    112.8700	  662.00	  597.87	-1732.62	  356.17
    112.9700	  700.00	  604.46	-1701.21	  356.03
    113.0700	  698.00	  612.03	-1710.78	  355.90
    113.1700	  699.00	  620.84	-1718.59	  355.76
    113.2700	  677.00	  631.19	-1750.94	  355.64
    113.3700	  773.00	  643.53	-1667.28	  355.51
    113.4700	  784.00	  658.36	-1671.11	  355.39
    113.5700	  824.00	  676.32	-1649.07	  355.27
    113.6700	  860.00	  698.22	-1634.97	  355.15
    113.7700	  881.00	  725.02	-1640.77	  355.04
    113.8700	  931.00	  757.89	-1623.65	  354.93
    113.9700	  993.00	  798.20	-1601.95	  354.83
    114.0700	 1019.00	  847.52	-1625.27	  354.72
    114.1700	 1044.00	  907.67	-1660.42	  354.62
    114.2700	 1134.00	  980.62	-1643.37	  354.53
    114.3700	 1211.00	 1068.54	-1654.29	  354.43
    114.4700	 1300.00	 1173.67	-1670.42	  354.34
    114.5700	 1415.00	 1298.35	-1680.10	  354.26
    114.6700	 1630.00	 1444.86	-1611.61	  354.18
    114.7700	 1736.00	 1615.28	-1676.03	  354.10
    114.8700	 1914.00	 1811.41	-1694.16	  354.02
    114.9700	 2102.00	 2034.57	-1729.32	  353.95
    115.0700	 2445.00	 2285.55	-1637.30	  353.88
    115.1700	 2583.00	 2564.40	-1778.15	  353.82
    115.2700	 2898.00	 2870.18	-1768.93	  353.76
    115.3700	 3060.00	 3200.99	-1937.74	  353.70
    115.4700	 3471.00	 3553.74	-1879.49	  353.65
    115.5700	 3713.00	 3924.26	-2008.01	  353.60
    115.6700	 4186.00	 4307.19	-1917.94	  353.56
    115.7700	 4511.00	 4695.83	-1981.58	  353.52
    115.8700	 4836.00	 5082.35	-2043.10	  353.48
    115.9700	 5215.00	 5457.81	-2039.56	  353.45
    116.0700	 5564.00	 5812.47	-2045.22	  353.42
    116.1700	 5930.00	 6135.88	-2002.63	  353.40
    116.2700	 6274.00	 6417.25	-1940.00	  353.38
    116.3700	 6456.00	 6646.17	-1986.92	  353.36
    116.4700	 6845.00	 6813.33	-1765.08	  353.35
    116.5700	 6862.00	 6911.46	-1846.21	  353.34
    116.6700	 7187.00	 6936.18	-1545.93	  353.34
    116.7700	 6933.00	 6886.49	-1750.24	  353.34
    116.8700	 6730.00	 6764.99	-1831.74	  353.35
    116.9700	 6697.00	 6577.56	-1677.31	  353.36
    117.0700	 6374.00	 6332.47	-1755.22	  353.38
    117.1700	 6144.00	 6039.55	-1692.30	  353.40
    117.2700	 5708.00	 5709.44	-1798.19	  353.42
    117.3700	 5318.00	 5352.73	-1831.48	  353.45
    117.4700	 4916.00	 4979.59	-1860.34	  353.49
    117.5700	 4558.00	 4599.26	-1838.01	  353.53
    117.6700	 4363.00	 4219.95	-1653.70	  353.57
    117.7700	 4101.00	 3848.83	-1544.58	  353.62
    117.8700	 3647.00	 3491.83	-1641.58	  353.68
    117.9700	 3243.00	 3153.69	-1707.44	  353.74
    118.0700	 2882.00	 2837.87	-1752.62	  353.80
    118.1700	 2616.00	 2546.72	-1727.47	  353.88
    118.2700	 2222.00	 2281.64	-1856.39	  353.95
    118.3700	 2020.00	 2043.09	-1819.84	  354.03
    118.4700	 1772.00	 1830.78	-1855.53	  354.12
    118.5700	 1551.00	 1643.74	-1889.49	  354.21
    118.6700	 1398.00	 1480.52	-1879.27	  354.31
    118.7700	 1255.00	 1339.37	-1881.12	  354.41
    118.8700	 1117.00	 1218.29	-1898.04	  354.52
    118.9700	 1098.00	 1115.21	-1813.96	  354.63
    119.0700	  989.00	 1027.98	-1835.73	  354.75
    119.1700	  893.00	  954.55	-1858.30	  354.88
    119.2700	  854.00	  893.01	-1835.76	  355.01
    119.3700	  786.00	  841.60	-1852.35	  355.14
    119.4700	  740.00	  798.75	-1855.50	  355.29
    119.5700	  708.00	  763.07	-1851.82	  355.43
    119.6700	  625.00	  733.36	-1905.11	  355.59
    119.7700	  660.00	  708.61	-1845.36	  355.75
    119.8700	  631.00	  687.97	-1853.72	  355.92
    119.9700	  595.00	  670.73	-1872.48	  356.09
    120.0700	  596.00	  656.31	-1857.06	  356.27
    120.1700	  582.00	  644.24	-1858.99	  356.45
    120.2700	  643.00	  634.13	-1787.88	  356.64
    120.3700	  547.00	  625.68	-1875.43	  356.84
    120.4700	  636.00	  618.65	-1779.40	  357.04
    120.5700	  572.00	  612.84	-1837.59	  357.26
    120.6700	  563.00	  608.11	-1841.86	  357.47
    120.7700	  533.00	  604.32	-1868.07	  357.70
    120.8700	  607.00	  601.40	-1791.15	  357.93
    120.9700	  566.00	  599.26	-1830.01	  358.16
    121.0700	  566.00	  597.85	-1828.60	  358.41
    121.1700	  567.00	  597.11	-1826.86	  358.66
    121.2700	  599.00	  597.00	-1794.75	  358.91
    121.3700	  596.00	  597.48	-1798.23	  359.18
    121.4700	  576.00	  598.51	-1819.26	  359.45
    121.5700	  575.00	  600.02	-1821.77	  359.73
    121.6700	  525.00	  601.98	-1873.73	  360.01
    121.7700	  571.00	  604.31	-1830.06	  360.31
    121.8700	  596.00	  606.96	-1807.71	  360.61
    121.9700	  628.00	  609.82	-1778.57	  360.91
    122.0700	  575.00	  612.85	-1834.60	  361.23
    122.1700	  616.00	  615.94	-1796.69	  361.55
    122.2700	  651.00	  619.00	-1764.75	  361.88
    122.3700	  649.00	  621.91	-1769.66	  362.22
    122.4700	  596.00	  624.59	-1825.34	  362.56
    122.5700	  639.00	  626.91	-1784.66	  362.91
    122.6700	  619.00	  628.82	-1806.57	  363.27
    122.7700	  684.00	  630.23	-1742.98	  363.64
    122.8700	  619.00	  631.08	-1808.83	  364.01
    122.9700	  660.00	  631.34	-1768.09	  364.40
    123.0700	  653.00	  631.01	-1774.76	  364.79
    123.1700	  718.00	  630.11	-1708.86	  365.19
    123.2700	  651.00	  628.66	-1774.41	  365.59
    123.3700	  618.00	  626.73	-1805.48	  366.01
    123.4700	  590.00	  624.38	-1831.13	  366.43
    123.5700	  626.00	  621.67	-1792.42	  366.86
    123.6700	  678.00	  618.67	-1737.42	  367.31
    123.7700	  618.00	  615.46	-1794.21	  367.75
    123.8700	  661.00	  612.11	-1747.86	  368.21
    123.9700	  661.00	  608.68	-1744.43	  368.68
    124.0700	  594.00	  605.23	-1807.98	  369.15
    124.1700	  614.00	  601.82	-1784.57	  369.63
    124.2700	  602.00	  598.50	-1793.25	  370.12
    124.3700	  611.00	  595.30	-1781.05	  370.62
    124.4700	  622.00	  592.26	-1767.01	  371.13
    124.5700	  614.00	  589.40	-1772.15	  371.65
    124.6700	  630.00	  586.75	-1753.50	  372.18
    124.7700	  601.00	  584.31	-1780.06	  372.71
    124.8700	  578.00	  582.10	-1800.85	  373.26
    124.9700	  603.00	  491.59	-1685.34	  373.81
    125.0700	  547.00	  492.16	-1796.75	  374.38
    125.1700	  629.00	  492.73	-1796.75	  374.95
    125.2700	  555.00	  493.31	-1796.75	  375.53
    125.3700	  533.00	  493.90	-1796.75	  376.12
    125.4700	  592.00	  494.50	-1796.75	  376.72
    125.5700	  565.00	  495.11	-1796.75	  377.33
    125.6700	  561.00	  495.73	-1796.75	  377.95
    125.7700	  565.00	  496.36	-1796.75	  378.58
    125.8700	  556.00	  497.00	-1796.75	  379.22
    125.9700	  614.00	  497.65	-1796.75	  379.87
    126.0700	  587.00	  498.31	-1796.75	  380.53
    126.1700	  579.00	  498.98	-1796.75	  381.20
    126.2700	  570.00	  499.66	-1796.75	  381.88
    126.3700	  603.00	  500.35	-1796.75	  382.57
    126.4700	  595.00	  501.05	-1796.75	  383.27
    126.5700	  593.00	  501.76	-1796.75	  383.98
    126.6700	  613.00	  502.48	-1796.75	  384.70
    126.7700	  577.00	  503.22	-1796.75	  385.44
    126.8700	  612.00	  503.96	-1796.75	  386.18
    126.9700	  593.00	  504.71	-1796.75	  386.93
    127.0700	  614.00	  505.47	-1796.75	  387.69
    127.1700	  655.00	  506.25	-1796.75	  388.47
    127.2700	  636.00	  507.03	-1796.75	  389.25
    127.3700	  644.00	  507.83	-1796.75	  390.04
    127.4700	  674.00	  508.63	-1796.75	  390.85
    127.5700	  671.00	  509.45	-1796.75	  391.67
    127.6700	  691.00	  510.28	-1796.75	  392.50
    127.7700	  714.00	  511.12	-1796.75	  393.34
    127.8700	  731.00	  511.97	-1796.75	  394.19
    127.9700	  794.00	  512.83	-1796.75	  395.05
    128.0700	  812.00	  513.70	-1796.75	  395.92
    128.1700	  825.00	  514.59	-1796.75	  396.81
    128.2700	  760.00	  515.48	-1796.75	  397.70
    128.3700	  804.00	  516.39	-1796.75	  398.61
    128.4700	  775.00	  517.31	-1796.75	  399.53
    128.5700	    0.00	  518.24	-1796.75	  400.46
    128.6700	    0.00	  519.18	-1796.75	  401.40
     12.3084	        	        	        	        	       0	(  0  0  2)	  0  1
     24.8903	        	        	        	        	       0	(  0  0  4)	  0  1
     28.3334	        	        	        	        	       0	(  1  0  0)	  0  1
     29.0305	        	        	        	        	       0	(  1  0  1)	  0  1
     31.0364	        	        	        	        	       0	(  1  0  2)	  0  1
     34.1443	        	        	        	        	       0	(  1  0  3)	  0  1
     37.7880	        	        	        	        	       0	(  0  0  6)	  0  1
     38.1207	        	        	        	        	       0	(  1  0  4)	  0  1
     42.7701	        	        	        	        	       0	(  1  0  5)	  0  1
     47.9534	        	        	        	        	       0	(  1  0  6)	  0  1
     50.2693	        	        	        	        	       0	(  1  1  0)	  0  1
     51.2078	        	        	        	        	       0	(  0  0  8)	  0  1
     51.9920	        	        	        	        	       0	(  1  1  2)	  0  1
     53.5829	        	        	        	        	       0	(  1  0  7)	  0  1
     56.9390	        	        	        	        	       0	(  1  1  4)	  0  1
     58.7658	        	        	        	        	       0	(  2  0  0)	  0  1
     59.1573	        	        	        	        	       0	(  2  0  1)	  0  1
     59.6123	        	        	        	        	       0	(  1  0  8)	  0  1
     60.3225	        	        	        	        	       0	(  2  0  2)	  0  1
     62.2354	        	        	        	        	       0	(  2  0  3)	  0  1
     64.6323	        	        	        	        	       0	(  1  1  6)	  0  1
     64.8590	        	        	        	        	       0	(  2  0  4)	  0  1
     65.4345	        	        	        	        	       0	(  0  0 10)	  0  1
     66.0275	        	        	        	        	       0	(  1  0  9)	  0  1
     68.1526	        	        	        	        	       0	(  2  0  5)	  0  1
     72.0793	        	        	        	        	       0	(  2  0  6)	  0  1
     72.8423	        	        	        	        	       0	(  1  0 10)	  0  1
     74.6681	        	        	        	        	       0	(  1  1  8)	  0  1
     76.6125	        	        	        	        	       0	(  2  0  7)	  0  1
     80.0984	        	        	        	        	       0	(  1  0 11)	  0  1
     80.9117	        	        	        	        	       0	(  0  0 12)	  0  1
     81.0057	        	        	        	        	       0	(  2  1  0)	  0  1
     81.3455	        	        	        	        	       0	(  2  1  1)	  0  1
     81.7417	        	        	        	        	       0	(  2  0  8)	  0  1
     82.3631	        	        	        	        	       0	(  2  1  2)	  0  1
     84.0541	        	        	        	        	       0	(  2  1  3)	  0  1
     86.4132	        	        	        	        	       0	(  2  1  4)	  0  1
     86.9368	        	        	        	        	       0	(  1  1 10)	  0  1
     87.4784	        	        	        	        	       0	(  2  0  9)	  0  1
     87.8708	        	        	        	        	       0	(  1  0 12)	  0  1
     89.4383	        	        	        	        	       0	(  2  1  5)	  0  1
     93.1349	        	        	        	        	       0	(  2  1  6)	  0  1
     93.8643	        	        	        	        	       0	(  2  0 10)	  0  1
     94.8935	        	        	        	        	       0	(  3  0  0)	  0  1
     95.2307	        	        	        	        	       0	(  3  0  1)	  0  1
     96.2437	        	        	        	        	       0	(  3  0  2)	  0  1
     96.2818	        	        	        	        	       0	(  1  0 13)	  0  1
     97.5223	        	        	        	        	       0	(  2  1  7)	  0  1
     97.9366	        	        	        	        	       0	(  3  0  3)	  0  1
     98.4464	        	        	        	        	       0	(  0  0 14)	  0  1
    100.3190	        	        	        	        	       0	(  3  0  4)	  0  1
    100.9842	        	        	        	        	       0	(  2  0 11)	  0  1
    101.8032	        	        	        	        	       0	(  1  1 12)	  0  1
    102.6434	        	        	        	        	       0	(  2  1  8)	  0  1
    103.4098	        	        	        	        	       0	(  3  0  5)	  0  1
    105.5316	        	        	        	        	       0	(  1  0 14)	  0  1
    107.2438	        	        	        	        	       0	(  3  0  6)	  0  1
    108.5785	        	        	        	        	       0	(  2  1  9)	  0  1
    108.9929	        	        	        	        	       0	(  2  0 12)	  0  1
    111.8828	        	        	        	        	       0	(  3  0  7)	  0  1
    115.4731	        	        	        	        	       0	(  2  1 10)	  0  1
    115.9711	        	        	        	        	       0	(  1  0 15)	  0  1
    116.6163	        	        	        	        	       0	(  2  2  0)	  0  1
    117.4344	        	        	        	        	       0	(  3  0  8)	  0  1
    118.1310	        	        	        	        	       0	(  2  2  2)	  0  1
    118.1739	        	        	        	        	       0	(  2  0 13)	  0  1
    119.9268	        	        	        	        	       0	(  0  0 16)	  0  1
    120.6406	        	        	        	        	       0	(  1  1 14)	  0  1
    122.8149	        	        	        	        	       0	(  2  2  4)	  0  1
    123.5970	        	        	        	        	       0	(  2  1 11)	  0  1
    124.0919	        	        	        	        	       0	(  3  0  9)	  0  1
    124.6803	        	        	        	        	       0	(  3  1  0)	  0  1
    125.0904	        	        	        	        	       0	(  3  1  1)	  0  1
    126.3334	        	        	        	        	       0	(  3  1  2)	  0  1
    128.3088	        	        	        	        	       0	(  1  0 16)	  0  1
    128.4509	        	        	        	        	       0	(  3  1  3)	  0  1
    129.0990	        	        	        	        	       0	(  2  0 14)	  0  1
    131.2516	        	        	        	        	       0	(  2  2  6)	  0  1
    131.5257	        	        	        	        	       0	(  3  1  4)	  0  1
    132.2291	        	        	        	        	       0	(  3  0 10)	  0  1
    133.5049	        	        	        	        	       0	(  2  1 12)	  0  1
    135.7109	        	        	        	        	       0	(  3  1  5)	  0  1
    141.3037	        	        	        	        	       0	(  3  1  6)	  0  1
    142.7023	        	        	        	        	       0	(  3  0 11)	  0  1
    143.2311	        	        	        	        	       0	(  2  0 15)	  0  1
    144.4688	        	        	        	        	       0	(  1  0 17)	  0  1
    145.4786	        	        	        	        	       0	(  2  2  8)	  0  1
    146.6530	        	        	        	        	       0	(  2  1 13)	  0  1
    148.9724	        	        	        	        	       0	(  3  1  7)	  0  1
    149.5601	        	        	        	        	       0	(  1  1 16)	  0  1
    153.9566	        	        	        	        	       0	(  0  0 18)	  0  1
    158.5684	        	        	        	        	       0	(  3  0 12)	  0  1
    158.8254	        	        	        	        	       0	(  4  0  0)	  0  1
    159.7813	        	        	        	        	       0	(  4  0  1)	  0  1
    160.9554	        	        	        	        	       0	(  3  1  8)	  0  1
    162.9562	        	        	        	        	       0	(  4  0  2)	  0  1
    169.6401	        	        	        	        	       0	(  2  0 16)	  0  1
    170.2859	        	        	        	        	       0	(  4  0  3)	  0  1
    174.0466	        	        	        	        	       0	(  2  1 14)	  0  1
