MSG Master    CELL:    5.90728   5.90728  23.21044   90.0000   90.0000  120.0000   SPGR: P 63/m m c             TEMP:    874.85
  1   1280     2.52000     0.00000    -0.12254     0.00000     0.00000    0
    98     0     2
       0.00000      10.00000
     125.00000     130.00000
 2Theta	Yobs	Ycal	Yobs-Ycal	Backg	Posr	(hkl)	K
      0.7700	    0.00	  475.67	-1744.01	  366.44
      0.8700	    0.00	  477.19	-1744.01	  367.97
      0.9700	   43.00	  478.70	-1744.01	  369.47
      1.0700	   31.00	  480.19	-1744.01	  370.96
      1.1700	   49.00	  481.66	-1744.01	  372.43
      1.2700	   46.00	  483.11	-1744.01	  373.89
      1.3700	   49.00	  484.55	-1744.01	  375.32
      1.4700	  109.00	  485.97	-1744.01	  376.74
      1.5700	  308.00	  487.38	-1744.01	  378.15
      1.6700	  456.00	  488.76	-1744.01	  379.54
      1.7700	  587.00	  490.13	-1744.01	  380.91
      1.8700	  702.00	  491.49	-1744.01	  382.26
      1.9700	  704.00	  492.83	-1744.01	  383.60
      2.0700	  771.00	  494.15	-1744.01	  384.92
      2.1700	  805.00	  495.45	-1744.01	  386.23
      2.2700	  760.00	  496.74	-1744.01	  387.52
      2.3700	  717.00	  498.02	-1744.01	  388.79
      2.4700	  735.00	  499.28	-1744.01	  390.05
      2.5700	  711.00	  500.52	-1744.01	  391.29
      2.6700	  642.00	  501.75	-1744.01	  392.52
      2.7700	  624.00	  502.96	-1744.01	  393.73
      2.8700	  623.00	  504.16	-1744.01	  394.93
      2.9700	  616.00	  505.34	-1744.01	  396.11
      3.0700	  610.00	  506.50	-1744.01	  397.28
      3.1700	  589.00	  507.65	-1744.01	  398.43
      3.2700	  666.00	  508.79	-1744.01	  399.56
      3.3700	  814.00	  509.91	-1744.01	  400.68
      3.4700	  859.00	  511.02	-1744.01	  401.79
      3.5700	  976.00	  512.11	-1744.01	  402.88
      3.6700	 1100.00	  513.18	-1744.01	  403.96
      3.7700	 1080.00	  514.25	-1744.01	  405.02
      3.8700	 1167.00	  515.30	-1744.01	  406.07
      3.9700	 1206.00	  516.33	-1744.01	  407.10
      4.0700	 1277.00	  517.35	-1744.01	  408.12
      4.1700	 1279.00	  518.35	-1744.01	  409.13
      4.2700	 1273.00	  519.35	-1744.01	  410.12
      4.3700	 1265.00	  520.32	-1744.01	  411.10
      4.4700	 1219.00	  521.29	-1744.01	  412.06
      4.5700	 1170.00	  522.24	-1744.01	  413.01
      4.6700	 1179.00	  523.17	-1744.01	  413.95
      4.7700	 1151.00	  524.10	-1744.01	  414.87
      4.8700	 1066.00	  525.01	-1744.01	  415.78
      4.9700	 1020.00	  525.90	-1744.01	  416.68
      5.0700	 1012.00	  526.78	-1744.01	  417.56
      5.1700	  993.00	  527.65	-1744.01	  418.43
      5.2700	 1013.00	  528.51	-1744.01	  419.28
      5.3700	  984.00	  529.35	-1744.01	  420.13
      5.4700	  915.00	  530.18	-1744.01	  420.96
      5.5700	  925.00	  531.00	-1744.01	  421.78
      5.6700	  901.00	  531.81	-1744.01	  422.58
      5.7700	  915.00	  532.60	-1744.01	  423.37
      5.8700	  888.00	  533.38	-1744.01	  424.15
      5.9700	  830.00	  534.15	-1744.01	  424.92
      6.0700	  830.00	  534.90	-1744.01	  425.68
      6.1700	  808.00	  535.65	-1744.01	  426.42
      6.2700	  790.00	  536.38	-1744.01	  427.15
      6.3700	  780.00	  537.10	-1744.01	  427.87
      6.4700	  765.00	  537.80	-1744.01	  428.58
      6.5700	  778.00	  538.50	-1744.01	  429.27
      6.6700	  746.00	  539.18	-1744.01	  429.95
      6.7700	  781.00	  539.85	-1744.01	  430.62
      6.8700	  716.00	  540.51	-1744.01	  431.28
      6.9700	  736.00	  541.16	-1744.01	  431.93
      7.0700	  737.00	  541.79	-1744.01	  432.57
      7.1700	  755.00	  542.42	-1744.01	  433.19
      7.2700	  680.00	  543.03	-1744.01	  433.81
      7.3700	  703.00	  543.64	-1744.01	  434.41
      7.4700	  656.00	  544.23	-1744.01	  435.00
      7.5700	  698.00	  544.81	-1744.01	  435.58
      7.6700	  666.00	  545.38	-1744.01	  436.15
      7.7700	  651.00	  545.93	-1744.01	  436.71
      7.8700	  693.00	  546.48	-1744.01	  437.26
      7.9700	  660.00	  547.02	-1744.01	  437.79
      8.0700	  661.00	  547.54	-1744.01	  438.32
      8.1700	  627.00	  548.06	-1744.01	  438.83
      8.2700	  614.00	  548.57	-1744.01	  439.34
      8.3700	  644.00	  549.06	-1744.01	  439.83
      8.4700	  618.00	  549.54	-1744.01	  440.32
      8.5700	  660.00	  550.02	-1744.01	  440.79
      8.6700	  620.00	  550.48	-1744.01	  441.26
      8.7700	  577.00	  550.94	-1744.01	  441.71
      8.8700	  603.00	  551.38	-1744.01	  442.15
      8.9700	  613.00	  551.81	-1744.01	  442.59
      9.0700	  582.00	  552.24	-1744.01	  443.01
      9.1700	  602.00	  552.65	-1744.01	  443.43
      9.2700	  613.00	  553.06	-1744.01	  443.83
      9.3700	  610.00	  553.45	-1744.01	  444.23
      9.4700	  598.00	  553.84	-1744.01	  444.61
      9.5700	  622.00	  554.21	-1744.01	  444.99
      9.6700	  617.00	  554.58	-1744.01	  445.35
      9.7700	  617.00	  554.94	-1744.01	  445.71
      9.8700	  573.00	  555.29	-1744.01	  446.06
      9.9700	  628.00	  555.62	-1744.01	  446.40
     10.0700	  577.00	  557.65	-1724.66	  446.73
     10.1700	  589.00	  558.14	-1713.15	  447.05
     10.2700	  595.00	  558.66	-1707.67	  447.36
     10.3700	  544.00	  559.22	-1759.23	  447.66
     10.4700	  633.00	  559.87	-1670.87	  447.96
     10.5700	  624.00	  560.63	-1680.64	  448.24
     10.6700	  603.00	  561.60	-1702.61	  448.52
     10.7700	  575.00	  562.86	-1731.87	  448.79
     10.8700	  627.00	  564.49	-1681.50	  449.05
     10.9700	  577.00	  566.52	-1733.53	  449.30
     11.0700	  569.00	  568.95	-1743.96	  449.54
     11.1700	  598.00	  571.79	-1717.80	  449.78
     11.2700	  535.00	  575.07	-1784.08	  450.00
     11.3700	  587.00	  578.86	-1735.87	  450.22
     11.4700	  584.00	  583.28	-1743.29	  450.43
     11.5700	  575.00	  588.52	-1757.53	  450.64
     11.6700	  610.00	  594.88	-1728.89	  450.83
     11.7700	  654.00	  602.75	-1692.76	  451.02
     11.8700	  610.00	  612.49	-1746.50	  451.20
     11.9700	  672.00	  623.97	-1695.98	  451.37
     12.0700	  653.00	  635.85	-1726.85	  451.53
     12.1700	  640.00	  644.77	-1748.78	  451.69
     12.2700	  715.00	  645.40	-1674.41	  451.84
     12.3700	  638.00	  634.02	-1740.03	  451.98
     12.4700	  601.00	  615.28	-1758.28	  452.11
     12.5700	  589.00	  597.57	-1752.57	  452.24
     12.6700	  630.00	  584.71	-1698.72	  452.36
     12.7700	  593.00	  576.68	-1727.69	  452.47
     12.8700	  508.00	  572.09	-1808.10	  452.57
     12.9700	  572.00	  569.51	-1741.52	  452.67
     13.0700	  547.00	  567.98	-1764.99	  452.76
     13.1700	  555.00	  566.99	-1756.00	  452.85
     13.2700	  573.00	  566.29	-1737.29	  452.92
     13.3700	  544.00	  565.76	-1765.77	  453.00
     13.4700	  576.00	  565.37	-1733.37	  453.06
     13.5700	  538.00	  565.05	-1771.06	  453.12
     13.6700	  546.00	  564.81	-1762.81	  453.17
     13.7700	  567.00	  564.60	-1741.61	  453.21
     13.8700	  563.00	  564.44	-1745.45	  453.25
     13.9700	  558.00	  564.30	-1750.31	  453.28
     14.0700	  563.00	  564.21	-1745.22	  453.31
     14.1700	  517.00	  564.10	-1791.11	  453.32
     14.2700	  556.00	  564.01	-1752.02	  453.34
     14.3700	  506.00	  563.92	-1801.93	  453.34
     14.4700	  559.00	  563.84	-1748.85	  453.34
     14.5700	  529.00	  563.77	-1778.78	  453.34
     14.6700	  562.00	  563.69	-1745.70	  453.33
     14.7700	  564.00	  563.62	-1743.63	  453.31
     14.8700	  563.00	  563.55	-1744.56	  453.29
     14.9700	  571.00	  563.48	-1736.48	  453.26
     15.0700	  562.00	  563.40	-1745.41	  453.22
     15.1700	  564.00	  563.33	-1743.33	  453.18
     15.2700	  536.00	  563.25	-1771.26	  453.14
     15.3700	  591.00	  563.17	-1716.18	  453.09
     15.4700	  583.00	  563.08	-1724.09	  453.03
     15.5700	  504.00	  563.00	-1803.01	  452.97
     15.6700	  560.00	  562.91	-1746.92	  452.90
     15.7700	  529.00	  562.82	-1777.83	  452.83
     15.8700	  509.00	  562.72	-1797.73	  452.75
     15.9700	  500.00	  562.62	-1806.63	  452.67
     16.0700	  555.00	  562.52	-1751.53	  452.58
     16.1700	  588.00	  562.41	-1718.42	  452.48
     16.2700	  567.00	  562.30	-1739.31	  452.39
     16.3700	  557.00	  562.18	-1749.19	  452.28
     16.4700	  551.00	  562.07	-1755.07	  452.18
     16.5700	  537.00	  561.94	-1768.95	  452.06
     16.6700	  531.00	  561.82	-1774.82	  451.94
     16.7700	  555.00	  561.69	-1750.69	  451.82
     16.8700	  573.00	  561.55	-1732.56	  451.70
     16.9700	  548.00	  561.41	-1757.42	  451.56
     17.0700	  558.00	  561.27	-1747.28	  451.43
     17.1700	  572.00	  561.12	-1733.13	  451.29
     17.2700	  544.00	  560.97	-1760.98	  451.14
     17.3700	  540.00	  560.82	-1764.83	  450.99
     17.4700	  513.00	  560.66	-1791.67	  450.84
     17.5700	  525.00	  560.50	-1779.51	  450.68
     17.6700	  586.00	  560.44	-1718.45	  450.52
     17.7700	  522.00	  560.28	-1782.28	  450.35
     17.8700	  545.00	  560.11	-1759.11	  450.18
     17.9700	  518.00	  559.93	-1785.94	  450.01
     18.0700	  522.00	  559.75	-1781.76	  449.83
     18.1700	  524.00	  559.68	-1779.68	  449.65
     18.2700	  524.00	  559.49	-1779.50	  449.46
     18.3700	  591.00	  559.31	-1712.31	  449.27
     18.4700	  510.00	  559.12	-1793.12	  449.08
     18.5700	  562.00	  558.92	-1740.93	  448.88
     18.6700	  552.00	  558.73	-1750.73	  448.68
     18.7700	  551.00	  558.53	-1751.53	  448.47
     18.8700	  543.00	  558.32	-1759.33	  448.26
     18.9700	  590.00	  558.12	-1712.12	  448.05
     19.0700	  533.00	  557.91	-1768.92	  447.83
     19.1700	  518.00	  557.70	-1783.70	  447.61
     19.2700	  529.00	  557.48	-1772.49	  447.39
     19.3700	  538.00	  557.26	-1763.27	  447.17
     19.4700	  525.00	  557.04	-1776.05	  446.94
     19.5700	  506.00	  556.82	-1794.83	  446.70
     19.6700	  552.00	  556.59	-1748.60	  446.47
     19.7700	  554.00	  556.40	-1746.41	  446.23
     19.8700	  537.00	  556.17	-1763.18	  445.99
     19.9700	  544.00	  555.94	-1755.95	  445.74
     20.0700	  533.00	  555.70	-1766.71	  445.49
     20.1700	  564.00	  555.47	-1735.47	  445.24
     20.2700	  575.00	  555.23	-1724.23	  444.99
     20.3700	  541.00	  554.99	-1757.99	  444.73
     20.4700	  543.00	  554.74	-1755.75	  444.47
     20.5700	  541.00	  554.50	-1757.51	  444.21
     20.6700	  576.00	  554.25	-1722.26	  443.94
     20.7700	  537.00	  554.00	-1761.01	  443.67
     20.8700	  568.00	  553.75	-1729.76	  443.40
     20.9700	  571.00	  553.50	-1726.51	  443.13
     21.0700	  562.00	  553.25	-1735.26	  442.85
     21.1700	  519.00	  553.00	-1778.01	  442.58
     21.2700	  571.00	  552.75	-1725.75	  442.29
     21.3700	  544.00	  552.49	-1752.50	  442.01
     21.4700	  554.00	  552.24	-1742.25	  441.72
     21.5700	  525.00	  551.98	-1770.99	  441.44
     21.6700	  573.00	  551.73	-1722.74	  441.15
     21.7700	  549.00	  551.48	-1746.48	  440.85
     21.8700	  580.00	  551.22	-1715.23	  440.56
     21.9700	  547.00	  550.97	-1747.98	  440.26
     22.0700	  561.00	  550.72	-1733.73	  439.96
     22.1700	  536.00	  550.48	-1758.48	  439.66
     22.2700	  541.00	  550.23	-1753.24	  439.36
     22.3700	  536.00	  550.14	-1758.15	  439.05
     22.4700	  566.00	  549.91	-1727.92	  438.74
     22.5700	  591.00	  549.69	-1702.69	  438.43
     22.6700	  545.00	  549.47	-1748.48	  438.12
     22.7700	  544.00	  549.21	-1749.22	  437.81
     22.8700	  583.00	  549.02	-1710.02	  437.49
     22.9700	  513.00	  548.83	-1779.84	  437.18
     23.0700	  521.00	  548.67	-1771.67	  436.86
     23.1700	  556.00	  548.52	-1736.53	  436.54
     23.2700	  548.00	  548.40	-1744.41	  436.22
     23.3700	  555.00	  548.32	-1737.33	  435.89
     23.4700	  564.00	  548.29	-1728.30	  435.57
     23.5700	  562.00	  548.32	-1730.33	  435.24
     23.6700	  555.00	  548.44	-1737.45	  434.91
     23.7700	  595.00	  548.69	-1697.70	  434.58
     23.8700	  492.00	  549.16	-1801.17	  434.25
     23.9700	  550.00	  550.00	-1744.01	  433.92
     24.0700	  618.00	  551.47	-1677.47	  433.59
     24.1700	  549.00	  553.95	-1748.96	  433.25
     24.2700	  570.00	  558.00	-1732.01	  432.91
     24.3700	  568.00	  564.19	-1740.20	  432.58
     24.4700	  587.00	  572.95	-1729.96	  432.24
     24.5700	  618.00	  584.20	-1710.21	  431.90
     24.6700	  625.00	  596.83	-1715.84	  431.56
     24.7700	  618.00	  608.01	-1734.02	  431.21
     24.8700	  640.00	  612.98	-1716.99	  430.87
     24.9700	  627.00	  607.37	-1724.38	  430.53
     25.0700	  607.00	  593.12	-1730.13	  430.18
     25.1700	  628.00	  577.36	-1693.37	  429.83
     25.2700	  616.00	  564.73	-1692.73	  429.49
     25.3700	  564.00	  556.18	-1736.18	  429.14
     25.4700	  581.00	  550.97	-1713.98	  428.79
     25.5700	  589.00	  547.94	-1702.95	  428.44
     25.6700	  569.00	  546.14	-1721.14	  428.09
     25.7700	  568.00	  544.97	-1720.98	  427.74
     25.8700	  562.00	  544.15	-1726.16	  427.38
     25.9700	  585.00	  543.55	-1702.56	  427.03
     26.0700	  574.00	  543.11	-1713.12	  426.68
     26.1700	  602.00	  542.80	-1684.81	  426.32
     26.2700	  539.00	  542.60	-1747.61	  425.97
     26.3700	  551.00	  542.51	-1735.52	  425.61
     26.4700	  570.00	  542.52	-1716.53	  425.25
     26.5700	  567.00	  542.65	-1719.66	  424.90
     26.6700	  571.00	  542.91	-1715.92	  424.54
     26.7700	  568.00	  543.33	-1719.33	  424.18
     26.8700	  556.00	  543.92	-1731.93	  423.82
     26.9700	  582.00	  544.75	-1706.76	  423.47
     27.0700	  576.00	  545.88	-1713.89	  423.11
     27.1700	  511.00	  547.43	-1780.44	  422.75
     27.2700	  549.00	  549.58	-1744.59	  422.39
     27.3700	  590.00	  552.73	-1706.73	  422.03
     27.4700	  556.00	  557.57	-1745.58	  421.67
     27.5700	  584.00	  565.44	-1725.45	  421.31
     27.6700	  609.00	  578.51	-1713.52	  420.95
     27.7700	  581.00	  599.88	-1762.89	  420.59
     27.8700	  581.00	  632.91	-1795.92	  420.23
     27.9700	  661.00	  679.43	-1762.43	  419.86
     28.0700	  685.00	  737.10	-1796.11	  419.50
     28.1700	  782.00	  796.76	-1758.77	  419.14
     28.2700	  955.00	  840.86	-1629.87	  418.78
     28.3700	  974.00	  848.84	-1618.85	  418.42
     28.4700	  885.00	  819.74	-1678.75	  418.06
     28.5700	  805.00	  783.27	-1722.28	  417.70
     28.6700	  711.00	  767.15	-1800.16	  417.34
     28.7700	  724.00	  777.98	-1797.99	  416.98
     28.8700	  779.00	  805.11	-1770.12	  416.62
     28.9700	  836.00	  825.97	-1733.98	  416.25
     29.0700	  847.00	  814.96	-1711.97	  415.89
     29.1700	  765.00	  765.52	-1744.53	  415.53
     29.2700	  688.00	  700.35	-1756.36	  415.17
     29.3700	  649.00	  642.92	-1737.93	  414.81
     29.4700	  625.00	  601.86	-1720.87	  414.45
     29.5700	  588.00	  576.12	-1732.13	  414.10
     29.6700	  584.00	  561.25	-1721.26	  413.74
     29.7700	  544.00	  552.81	-1752.82	  413.38
     29.8700	  578.00	  547.78	-1713.79	  413.02
     29.9700	  617.00	  544.62	-1671.62	  412.66
     30.0700	  604.00	  542.66	-1682.67	  412.30
     30.1700	  566.00	  541.78	-1719.79	  411.95
     30.2700	  586.00	  542.17	-1700.18	  411.59
     30.3700	  566.00	  544.41	-1722.42	  411.24
     30.4700	  561.00	  549.42	-1732.43	  410.88
     30.5700	  600.00	  558.34	-1702.35	  410.53
     30.6700	  601.00	  571.84	-1714.85	  410.17
     30.7700	  604.00	  589.20	-1729.21	  409.82
     30.8700	  607.00	  607.38	-1744.38	  409.46
     30.9700	  601.00	  620.51	-1763.52	  409.11
     31.0700	  616.00	  621.32	-1749.33	  408.76
     31.1700	  607.00	  607.37	-1744.38	  408.41
     31.2700	  605.00	  585.78	-1724.79	  408.06
     31.3700	  589.00	  565.31	-1720.31	  407.71
     31.4700	  529.00	  549.87	-1764.88	  407.36
     31.5700	  522.00	  539.78	-1761.79	  407.01
     31.6700	  545.00	  533.77	-1732.78	  406.66
     31.7700	  584.00	  530.31	-1690.32	  406.32
     31.8700	  527.00	  528.26	-1745.27	  405.97
     31.9700	  517.00	  526.95	-1753.96	  405.63
     32.0700	  552.00	  526.07	-1718.08	  405.28
     32.1700	  553.00	  525.48	-1716.49	  404.94
     32.2700	  514.00	  525.12	-1755.13	  404.60
     32.3700	  526.00	  524.97	-1742.98	  404.26
     32.4700	  538.00	  525.03	-1731.04	  403.91
     32.5700	  547.00	  525.30	-1722.31	  403.57
     32.6700	  554.00	  525.82	-1715.83	  403.24
     32.7700	  541.00	  526.63	-1729.64	  402.90
     32.8700	  492.00	  527.81	-1779.81	  402.56
     32.9700	  577.00	  529.47	-1696.47	  402.23
     33.0700	  558.00	  531.81	-1717.82	  401.89
     33.1700	  569.00	  535.23	-1710.24	  401.56
     33.2700	  531.00	  540.48	-1753.49	  401.23
     33.3700	  562.00	  549.07	-1731.08	  400.89
     33.4700	  590.00	  563.70	-1717.71	  400.56
     33.5700	  591.00	  588.50	-1741.51	  400.23
     33.6700	  588.00	  628.69	-1784.70	  399.91
     33.7700	  655.00	  688.23	-1777.24	  399.58
     33.8700	  793.00	  765.73	-1716.74	  399.25
     33.9700	  860.00	  849.91	-1733.92	  398.93
     34.0700	 1004.00	  917.58	-1657.59	  398.61
     34.1700	 1030.00	  937.95	-1651.96	  398.28
     34.2700	  956.00	  894.54	-1682.54	  397.96
     34.3700	  878.00	  809.15	-1675.16	  397.64
     34.4700	  735.00	  719.29	-1728.30	  397.32
     34.5700	  647.00	  646.59	-1743.60	  397.01
     34.6700	  575.00	  596.26	-1765.26	  396.69
     34.7700	  561.00	  564.99	-1748.00	  396.38
     34.8700	  564.00	  546.74	-1726.75	  396.06
     34.9700	  511.00	  536.09	-1769.10	  395.75
     35.0700	  539.00	  529.44	-1734.45	  395.44
     35.1700	  534.00	  524.87	-1734.88	  395.13
     35.2700	  528.00	  521.46	-1737.47	  394.82
     35.3700	  522.00	  518.78	-1740.78	  394.52
     35.4700	  529.00	  516.59	-1731.60	  394.21
     35.5700	  536.00	  514.77	-1722.78	  393.91
     35.6700	  512.00	  513.70	-1745.71	  393.61
     35.7700	  529.00	  512.36	-1727.36	  393.31
     35.8700	  551.00	  511.23	-1704.24	  393.01
     35.9700	  500.00	  510.22	-1754.23	  392.71
     36.0700	  542.00	  509.34	-1711.34	  392.41
     36.1700	  515.00	  508.54	-1737.55	  392.12
     36.2700	  536.00	  507.83	-1715.84	  391.82
     36.3700	  498.00	  507.19	-1753.20	  391.53
     36.4700	  511.00	  506.61	-1739.62	  391.24
     36.5700	  481.00	  506.09	-1769.10	  390.95
     36.6700	  475.00	  505.63	-1774.64	  390.67
     36.7700	  506.00	  505.24	-1743.24	  390.38
     36.8700	  471.00	  504.92	-1777.93	  390.10
     36.9700	  482.00	  504.72	-1766.73	  389.81
     37.0700	  503.00	  504.70	-1745.71	  389.53
     37.1700	  502.00	  504.99	-1747.00	  389.25
     37.2700	  513.00	  505.75	-1736.76	  388.98
     37.3700	  488.00	  507.16	-1763.17	  388.70
     37.4700	  524.00	  509.32	-1729.32	  388.42
     37.5700	  532.00	  512.08	-1724.09	  388.15
     37.6700	  507.00	  514.93	-1751.94	  387.88
     37.7700	  552.00	  517.13	-1709.14	  387.61
     37.8700	  509.00	  517.27	-1752.27	  387.34
     37.9700	  483.00	  515.24	-1776.25	  387.08
     38.0700	  527.00	  511.95	-1728.96	  386.81
     38.1700	  479.00	  508.49	-1773.50	  386.55
     38.2700	  527.00	  505.46	-1722.47	  386.29
     38.3700	  470.00	  503.07	-1777.08	  386.03
     38.4700	  490.00	  501.34	-1755.35	  385.77
     38.5700	  454.00	  500.12	-1790.13	  385.52
     38.6700	  481.00	  499.27	-1762.28	  385.26
     38.7700	  503.00	  498.64	-1739.65	  385.01
     38.8700	  486.00	  498.15	-1756.15	  384.76
     38.9700	  468.00	  497.73	-1773.74	  384.51
     39.0700	  497.00	  497.37	-1744.38	  384.26
     39.1700	  509.00	  497.04	-1732.05	  384.02
     39.2700	  479.00	  496.64	-1761.64	  383.77
     39.3700	  496.00	  496.36	-1744.36	  383.53
     39.4700	  503.00	  496.09	-1737.10	  383.29
     39.5700	  483.00	  495.84	-1756.85	  383.05
     39.6700	  492.00	  495.61	-1747.62	  382.82
     39.7700	  496.00	  495.39	-1743.40	  382.58
     39.8700	  509.00	  495.18	-1730.19	  382.35
     39.9700	  522.00	  494.99	-1716.99	  382.12
     40.0700	  506.00	  494.80	-1732.81	  381.89
     40.1700	  464.00	  494.53	-1774.54	  381.66
     40.2700	  453.00	  494.38	-1785.39	  381.44
     40.3700	  448.00	  494.24	-1790.25	  381.21
     40.4700	  484.00	  494.64	-1754.65	  380.99
     40.5700	  434.00	  494.54	-1804.55	  380.77
     40.6700	  487.00	  494.47	-1751.47	  380.56
     40.7700	  508.00	  494.41	-1730.42	  380.34
     40.8700	  493.00	  494.38	-1745.39	  380.12
     40.9700	  498.00	  494.39	-1740.40	  379.91
     41.0700	  510.00	  494.43	-1728.44	  379.70
     41.1700	  497.00	  494.52	-1741.52	  379.49
     41.2700	  451.00	  494.66	-1787.67	  379.29
     41.3700	  500.00	  494.87	-1738.88	  379.08
     41.4700	  491.00	  495.17	-1748.18	  378.88
     41.5700	  493.00	  495.60	-1746.61	  378.68
     41.6700	  470.00	  496.19	-1770.20	  378.48
     41.7700	  497.00	  497.04	-1744.05	  378.28
     41.8700	  457.00	  498.35	-1785.35	  378.09
     41.9700	  463.00	  500.51	-1781.52	  377.89
     42.0700	  491.00	  504.06	-1757.07	  377.70
     42.1700	  521.00	  510.17	-1733.18	  377.51
     42.2700	  493.00	  519.84	-1770.85	  377.33
     42.3700	  525.00	  534.24	-1753.24	  377.14
     42.4700	  528.00	  553.66	-1769.67	  376.96
     42.5700	  575.00	  576.67	-1745.68	  376.77
     42.6700	  577.00	  598.94	-1765.95	  376.60
     42.7700	  586.00	  613.54	-1771.55	  376.42
     42.8700	  568.00	  613.70	-1789.71	  376.24
     42.9700	  550.00	  599.02	-1793.03	  376.07
     43.0700	  522.00	  575.90	-1797.91	  375.90
     43.1700	  535.00	  552.26	-1761.27	  375.73
     43.2700	  465.00	  532.50	-1811.51	  375.56
     43.3700	  558.00	  518.01	-1704.01	  375.39
     43.4700	  446.00	  508.37	-1806.38	  375.23
     43.5700	  509.00	  502.40	-1737.41	  375.07
     43.6700	  534.00	  498.81	-1708.82	  374.90
     43.7700	  511.00	  496.61	-1729.61	  374.75
     43.8700	  494.00	  495.17	-1745.18	  374.59
     43.9700	  470.00	  494.15	-1768.16	  374.44
     44.0700	  540.00	  493.39	-1697.39	  374.28
     44.1700	  505.00	  492.78	-1731.79	  374.13
     44.2700	  537.00	  492.51	-1699.52	  373.98
     44.3700	  495.00	  492.12	-1741.13	  373.84
     44.4700	  502.00	  491.81	-1733.81	  373.69
     44.5700	  476.00	  491.55	-1759.56	  373.55
     44.6700	  437.00	  491.35	-1798.36	  373.41
     44.7700	  511.00	  491.19	-1724.20	  373.27
     44.8700	  510.00	  491.08	-1725.08	  373.13
     44.9700	  493.00	  490.99	-1742.00	  373.00
     45.0700	  503.00	  490.94	-1731.95	  372.87
     45.1700	  499.00	  490.92	-1735.93	  372.74
     45.2700	  508.00	  490.93	-1726.94	  372.61
     45.3700	  497.00	  490.97	-1737.98	  372.48
     45.4700	  461.00	  491.04	-1774.04	  372.35
     45.5700	  518.00	  491.13	-1717.14	  372.23
     45.6700	  533.00	  491.26	-1702.27	  372.11
     45.7700	  462.00	  491.41	-1773.42	  371.99
     45.8700	  475.00	  491.67	-1760.68	  371.87
     45.9700	  504.00	  491.90	-1731.91	  371.76
     46.0700	  501.00	  492.05	-1735.06	  371.65
     46.1700	  503.00	  492.37	-1733.38	  371.53
     46.2700	  514.00	  492.75	-1722.75	  371.42
     46.3700	  516.00	  493.17	-1721.17	  371.32
     46.4700	  505.00	  493.65	-1732.66	  371.21
     46.5700	  476.00	  494.22	-1762.22	  371.11
     46.6700	  482.00	  494.87	-1756.88	  371.01
     46.7700	  514.00	  495.65	-1725.66	  370.91
     46.8700	  529.00	  496.59	-1711.60	  370.81
     46.9700	  502.00	  497.78	-1739.79	  370.71
     47.0700	  493.00	  499.36	-1750.37	  370.62
     47.1700	  507.00	  501.62	-1738.63	  370.53
     47.2700	  518.00	  504.98	-1730.99	  370.44
     47.3700	  482.00	  510.06	-1772.07	  370.35
     47.4700	  533.00	  517.54	-1728.54	  370.26
     47.5700	  510.00	  527.93	-1761.94	  370.18
     47.6700	  579.00	  541.23	-1706.24	  370.09
     47.7700	  566.00	  556.44	-1734.45	  370.01
     47.8700	  575.00	  571.16	-1740.17	  369.93
     47.9700	  550.00	  581.61	-1775.62	  369.86
     48.0700	  559.00	  584.17	-1769.17	  369.78
     48.1700	  546.00	  578.27	-1776.28	  369.71
     48.2700	  559.00	  567.24	-1752.25	  369.64
     48.3700	  536.00	  555.72	-1763.73	  369.57
     48.4700	  552.00	  545.71	-1737.72	  369.50
     48.5700	  523.00	  538.93	-1759.94	  369.43
     48.6700	  506.00	  535.62	-1773.63	  369.37
     48.7700	  490.00	  535.46	-1789.47	  369.31
     48.8700	  540.00	  537.96	-1741.97	  369.25
     48.9700	  503.00	  542.77	-1783.78	  369.19
     49.0700	  513.00	  549.91	-1780.92	  369.13
     49.1700	  528.00	  559.94	-1775.95	  369.08
     49.2700	  603.00	  574.43	-1715.44	  369.03
     49.3700	  569.00	  596.59	-1771.60	  368.97
     49.4700	  577.00	  632.38	-1799.39	  368.93
     49.5700	  608.00	  691.45	-1827.46	  368.88
     49.6700	  702.00	  787.16	-1829.17	  368.83
     49.7700	  808.00	  934.36	-1870.36	  368.79
     49.8700	 1028.00	 1143.85	-1859.86	  368.75
     49.9700	 1406.00	 1414.45	-1752.45	  368.71
     50.0700	 1782.00	 1723.36	-1685.37	  368.67
     50.1700	 2042.00	 2018.29	-1720.30	  368.63
     50.2700	 2306.00	 2218.56	-1656.57	  368.60
     50.3700	 2269.00	 2246.37	-1721.38	  368.56
     50.4700	 2187.00	 2087.63	-1644.64	  368.53
     50.5700	 1836.00	 1808.94	-1716.95	  368.50
     50.6700	 1465.00	 1498.82	-1777.83	  368.47
     50.7700	 1122.00	 1219.28	-1841.29	  368.45
     50.8700	  854.00	 1000.21	-1890.21	  368.42
     50.9700	  767.00	  846.24	-1823.25	  368.40
     51.0700	  708.00	  748.08	-1784.09	  368.38
     51.1700	  655.00	  689.56	-1778.57	  368.36
     51.2700	  611.00	  654.38	-1787.39	  368.34
     51.3700	  597.00	  630.16	-1777.17	  368.33
     51.4700	  583.00	  610.21	-1771.21	  368.31
     51.5700	  550.00	  592.53	-1786.54	  368.30
     51.6700	  570.00	  577.22	-1751.22	  368.29
     51.7700	  562.00	  564.64	-1746.65	  368.28
     51.8700	  532.00	  554.94	-1766.95	  368.27
     51.9700	  609.00	  547.95	-1682.96	  368.27
     52.0700	  562.00	  543.33	-1725.33	  368.26
     52.1700	  604.00	  540.65	-1680.66	  368.26
     52.2700	  579.00	  539.60	-1704.61	  368.26
     52.3700	  543.00	  540.03	-1741.04	  368.26
     52.4700	  548.00	  542.05	-1738.06	  368.26
     52.5700	  591.00	  546.14	-1699.15	  368.27
     52.6700	  548.00	  553.38	-1749.39	  368.27
     52.7700	  606.00	  565.73	-1703.74	  368.28
     52.8700	  598.00	  586.16	-1732.17	  368.29
     52.9700	  636.00	  618.71	-1726.72	  368.30
     53.0700	  693.00	  667.74	-1718.75	  368.31
     53.1700	  699.00	  736.64	-1781.65	  368.32
     53.2700	  858.00	  825.79	-1711.80	  368.34
     53.3700	  946.00	  930.14	-1728.15	  368.35
     53.4700	 1099.00	 1037.01	-1682.02	  368.37
     53.5700	 1122.00	 1124.58	-1746.58	  368.39
     53.6700	 1169.00	 1166.31	-1741.32	  368.41
     53.7700	 1126.00	 1145.86	-1763.87	  368.43
     53.8700	 1092.00	 1071.24	-1723.25	  368.46
     53.9700	  886.00	  968.09	-1826.10	  368.48
     54.0700	  846.00	  861.33	-1759.34	  368.51
     54.1700	  761.00	  766.77	-1749.78	  368.54
     54.2700	  663.00	  691.67	-1772.67	  368.57
     54.3700	  622.00	  637.13	-1759.14	  368.60
     54.4700	  572.00	  600.48	-1772.49	  368.63
     54.5700	  583.00	  577.44	-1738.45	  368.67
     54.6700	  608.00	  563.75	-1699.76	  368.70
     54.7700	  599.00	  556.02	-1701.03	  368.74
     54.8700	  599.00	  551.97	-1696.98	  368.78
     54.9700	  556.00	  550.23	-1738.24	  368.82
     55.0700	  553.00	  550.10	-1741.11	  368.86
     55.1700	  566.00	  551.23	-1729.24	  368.90
     55.2700	  567.00	  553.51	-1730.52	  368.94
     55.3700	  548.00	  556.96	-1752.97	  368.99
     55.4700	  550.00	  561.70	-1755.71	  369.04
     55.5700	  555.00	  567.98	-1756.99	  369.08
     55.6700	  606.00	  576.31	-1714.32	  369.13
     55.7700	  564.00	  587.61	-1767.62	  369.18
     55.8700	  598.00	  603.68	-1749.69	  369.24
     55.9700	  624.00	  627.72	-1747.72	  369.29
     56.0700	  605.00	  665.16	-1804.17	  369.34
     56.1700	  662.00	  724.29	-1806.30	  369.40
     56.2700	  793.00	  816.20	-1767.21	  369.46
     56.3700	  925.00	  953.51	-1772.52	  369.51
     56.4700	 1170.00	 1146.83	-1720.84	  369.57
     56.5700	 1343.00	 1399.85	-1800.86	  369.63
     56.6700	 1642.00	 1703.43	-1805.43	  369.70
     56.7700	 1943.00	 2029.72	-1830.73	  369.76
     56.8700	 2333.00	 2327.65	-1738.65	  369.82
     56.9700	 2510.00	 2526.03	-1760.04	  369.89
     57.0700	 2541.00	 2560.21	-1763.22	  369.95
     57.1700	 2452.00	 2417.11	-1709.12	  370.02
     57.2700	 2117.00	 2147.53	-1774.54	  370.09
     57.3700	 1769.00	 1826.02	-1801.03	  370.16
     57.4700	 1512.00	 1512.68	-1744.68	  370.23
     57.5700	 1175.00	 1243.24	-1812.25	  370.30
     57.6700	  960.00	 1032.94	-1816.94	  370.38
     57.7700	  877.00	  882.22	-1749.23	  370.45
     57.8700	  811.00	  782.84	-1715.85	  370.53
     57.9700	  721.00	  723.46	-1746.46	  370.60
     58.0700	  696.00	  693.65	-1741.66	  370.68
     58.1700	  694.00	  686.04	-1736.05	  370.76
     58.2700	  708.00	  696.52	-1732.53	  370.84
     58.3700	  741.00	  723.34	-1726.35	  370.92
     58.4700	  816.00	  765.76	-1693.77	  371.00
     58.5700	  889.00	  822.56	-1677.57	  371.09
     58.6700	  989.00	  890.62	-1645.63	  371.17
     58.7700	 1005.00	  963.88	-1702.89	  371.26
     58.8700	 1127.00	 1034.29	-1651.30	  371.34
     58.9700	 1196.00	 1095.16	-1643.16	  371.43
     59.0700	 1236.00	 1142.72	-1650.73	  371.52
     59.1700	 1356.00	 1173.40	-1561.41	  371.60
     59.2700	 1292.00	 1182.92	-1634.92	  371.69
     59.3700	 1266.00	 1171.98	-1649.99	  371.78
     59.4700	 1242.00	 1149.93	-1651.94	  371.88
     59.5700	 1244.00	 1129.41	-1629.42	  371.97
     59.6700	 1257.00	 1119.73	-1606.73	  372.06
     59.7700	 1257.00	 1126.12	-1613.13	  372.15
     59.8700	 1161.00	 1152.71	-1735.71	  372.25
     59.9700	 1203.00	 1202.94	-1743.94	  372.35
     60.0700	 1408.00	 1275.75	-1611.76	  372.44
     60.1700	 1402.00	 1361.19	-1703.20	  372.54
     60.2700	 1497.00	 1439.07	-1686.08	  372.64
     60.3700	 1487.00	 1481.90	-1738.91	  372.74
     60.4700	 1462.00	 1466.32	-1748.33	  372.84
     60.5700	 1401.00	 1388.82	-1731.83	  372.94
     60.6700	 1359.00	 1267.91	-1652.91	  373.04
     60.7700	 1176.00	 1129.96	-1697.96	  373.14
     60.8700	  969.00	  996.66	-1771.67	  373.24
     60.9700	  857.00	  881.74	-1768.75	  373.35
     61.0700	  761.00	  791.94	-1774.95	  373.45
     61.1700	  693.00	  728.89	-1779.90	  373.55
     61.2700	  665.00	  691.32	-1770.33	  373.66
     61.3700	  679.00	  677.12	-1742.13	  373.77
     61.4700	  710.00	  685.02	-1719.03	  373.87
     61.5700	  701.00	  715.25	-1758.26	  373.98
     61.6700	  742.00	  769.08	-1771.08	  374.09
     61.7700	  859.00	  847.45	-1732.46	  374.20
     61.8700	  973.00	  949.10	-1720.11	  374.31
     61.9700	 1040.00	 1068.55	-1772.56	  374.42
     62.0700	 1125.00	 1194.42	-1813.43	  374.53
     62.1700	 1278.00	 1308.26	-1774.27	  374.64
     62.2700	 1268.00	 1385.81	-1861.82	  374.75
     62.3700	 1376.00	 1404.84	-1772.85	  374.86
     62.4700	 1261.00	 1358.53	-1841.54	  374.97
     62.5700	 1170.00	 1260.81	-1834.82	  375.09
     62.6700	 1135.00	 1136.21	-1745.21	  375.20
     62.7700	  936.00	 1007.16	-1815.17	  375.32
     62.8700	  841.00	  889.11	-1792.11	  375.43
     62.9700	  729.00	  790.55	-1805.56	  375.55
     63.0700	  723.00	  714.34	-1735.35	  375.66
     63.1700	  631.00	  659.32	-1772.33	  375.78
     63.2700	  638.00	  621.97	-1727.98	  375.89
     63.3700	  572.00	  598.15	-1770.15	  376.01
     63.4700	  610.00	  584.03	-1718.03	  376.13
     63.5700	  631.00	  576.87	-1689.88	  376.24
     63.6700	  614.00	  575.14	-1705.15	  376.36
     63.7700	  562.00	  578.42	-1760.43	  376.48
     63.8700	  589.00	  587.26	-1742.27	  376.60
     63.9700	  602.00	  602.84	-1744.85	  376.72
     64.0700	  656.00	  626.65	-1714.65	  376.84
     64.1700	  678.00	  659.94	-1725.95	  376.96
     64.2700	  750.00	  703.22	-1697.23	  377.08
     64.3700	  772.00	  755.40	-1727.41	  377.20
     64.4700	  840.00	  813.44	-1717.45	  377.32
     64.5700	  948.00	  871.68	-1667.69	  377.44
     64.6700	  981.00	  921.86	-1684.87	  377.56
     64.7700	  990.00	  954.89	-1708.90	  377.68
     64.8700	 1027.00	  964.39	-1681.40	  377.80
     64.9700	  954.00	  949.57	-1739.58	  377.92
     65.0700	  921.00	  914.97	-1737.98	  378.05
     65.1700	  880.00	  867.99	-1732.00	  378.17
     65.2700	  807.00	  817.41	-1754.42	  378.29
     65.3700	  802.00	  769.13	-1711.14	  378.41
     65.4700	  765.00	  726.58	-1705.59	  378.54
     65.5700	  644.00	  690.63	-1790.64	  378.66
     65.6700	  645.00	  660.77	-1759.78	  378.78
     65.7700	  613.00	  636.19	-1767.20	  378.90
     65.8700	  604.00	  616.31	-1756.32	  379.03
     65.9700	  575.00	  600.69	-1769.70	  379.15
     66.0700	  573.00	  588.86	-1759.87	  379.27
     66.1700	  569.00	  580.36	-1755.37	  379.40
     66.2700	  589.00	  574.76	-1729.77	  379.52
     66.3700	  567.00	  571.89	-1748.90	  379.64
     66.4700	  527.00	  571.27	-1788.28	  379.77
     66.5700	  566.00	  572.67	-1750.68	  379.89
     66.6700	  588.00	  576.19	-1732.20	  380.01
     66.7700	  573.00	  582.13	-1753.14	  380.14
     66.8700	  597.00	  591.20	-1738.21	  380.26
     66.9700	  557.00	  604.79	-1791.80	  380.38
     67.0700	  652.00	  625.27	-1717.28	  380.50
     67.1700	  651.00	  656.32	-1749.33	  380.63
     67.2700	  623.00	  702.85	-1823.86	  380.75
     67.3700	  770.00	  771.22	-1745.23	  380.87
     67.4700	  879.00	  868.31	-1733.32	  381.00
     67.5700	 1028.00	 1000.26	-1716.27	  381.12
     67.6700	 1139.00	 1170.56	-1775.57	  381.24
     67.7700	 1352.00	 1377.87	-1769.88	  381.36
     67.8700	 1620.00	 1613.78	-1737.79	  381.48
     67.9700	 1848.00	 1861.08	-1757.08	  381.61
     68.0700	 2104.00	 2092.44	-1732.45	  381.73
     68.1700	 2367.00	 2271.51	-1648.52	  381.85
     68.2700	 2418.00	 2360.35	-1686.36	  381.97
     68.3700	 2260.00	 2336.07	-1820.07	  382.09
     68.4700	 2242.00	 2205.26	-1707.27	  382.21
     68.5700	 1998.00	 1999.48	-1745.49	  382.33
     68.6700	 1777.00	 1757.72	-1724.73	  382.45
     68.7700	 1517.00	 1512.94	-1739.95	  382.57
     68.8700	 1283.00	 1288.03	-1749.04	  382.69
     68.9700	 1066.00	 1096.33	-1774.34	  382.81
     69.0700	  905.00	  942.96	-1781.96	  382.93
     69.1700	  819.00	  826.93	-1751.94	  383.05
     69.2700	  709.00	  743.37	-1778.38	  383.17
     69.3700	  731.00	  685.59	-1698.60	  383.28
     69.4700	  635.00	  646.84	-1755.84	  383.40
     69.5700	  645.00	  621.27	-1720.28	  383.52
     69.6700	  603.00	  604.25	-1745.26	  383.63
     69.7700	  569.00	  593.01	-1768.02	  383.75
     69.8700	  600.00	  585.37	-1729.38	  383.87
     69.9700	  558.00	  580.10	-1766.11	  383.98
     70.0700	  547.00	  576.50	-1773.51	  384.10
     70.1700	  596.00	  574.21	-1722.22	  384.21
     70.2700	  623.00	  573.03	-1694.04	  384.33
     70.3700	  602.00	  572.92	-1714.93	  384.44
     70.4700	  583.00	  573.92	-1734.93	  384.55
     70.5700	  572.00	  576.26	-1748.27	  384.66
     70.6700	  550.00	  580.30	-1774.31	  384.78
     70.7700	  545.00	  586.79	-1785.80	  384.89
     70.8700	  547.00	  597.83	-1794.83	  385.00
     70.9700	  613.00	  613.36	-1744.37	  385.11
     71.0700	  582.00	  636.91	-1798.92	  385.22
     71.1700	  669.00	  671.87	-1746.88	  385.33
     71.2700	  751.00	  722.31	-1715.32	  385.44
     71.3700	  792.00	  792.54	-1744.55	  385.54
     71.4700	  904.00	  886.26	-1726.26	  385.65
     71.5700	  996.00	 1005.53	-1753.54	  385.76
     71.6700	 1079.00	 1149.52	-1814.53	  385.86
     71.7700	 1350.00	 1313.31	-1707.32	  385.97
     71.8700	 1462.00	 1487.06	-1769.06	  386.07
     71.9700	 1584.00	 1655.12	-1815.13	  386.18
     72.0700	 1759.00	 1796.37	-1781.38	  386.28
     72.1700	 1868.00	 1886.77	-1762.78	  386.38
     72.2700	 1845.00	 1907.07	-1806.08	  386.48
     72.3700	 1854.00	 1852.44	-1742.45	  386.59
     72.4700	 1702.00	 1735.43	-1777.44	  386.69
     72.5700	 1592.00	 1578.74	-1730.74	  386.78
     72.6700	 1513.00	 1405.66	-1636.67	  386.88
     72.7700	 1284.00	 1234.87	-1694.88	  386.98
     72.8700	 1073.00	 1079.11	-1750.12	  387.08
     72.9700	  966.00	  945.79	-1723.80	  387.18
     73.0700	  845.00	  837.65	-1736.66	  387.27
     73.1700	  892.00	  754.04	-1606.04	  387.37
     73.2700	  731.00	  692.01	-1705.02	  387.46
     73.3700	  701.00	  647.54	-1690.55	  387.55
     73.4700	  656.00	  616.46	-1704.47	  387.64
     73.5700	  644.00	  595.03	-1695.04	  387.74
     73.6700	  596.00	  580.30	-1728.31	  387.83
     73.7700	  648.00	  569.57	-1665.58	  387.92
     73.8700	  613.00	  562.42	-1693.43	  388.00
     73.9700	  629.00	  557.39	-1672.40	  388.09
     74.0700	  559.00	  553.89	-1738.90	  388.18
     74.1700	  605.00	  551.57	-1690.58	  388.26
     74.2700	  601.00	  550.17	-1693.17	  388.35
     74.3700	  602.00	  549.48	-1691.49	  388.43
     74.4700	  585.00	  549.29	-1708.30	  388.52
     74.5700	  579.00	  549.38	-1714.38	  388.60
     74.6700	  637.00	  549.46	-1656.46	  388.68
     74.7700	  603.00	  549.25	-1690.25	  388.76
     74.8700	  628.00	  548.52	-1664.53	  388.84
     74.9700	  611.00	  547.21	-1680.22	  388.92
     75.0700	  606.00	  545.45	-1683.46	  388.99
     75.1700	  662.00	  543.52	-1625.52	  389.07
     75.2700	  585.00	  541.75	-1700.76	  389.14
     75.3700	  562.00	  540.53	-1722.54	  389.22
     75.4700	  549.00	  540.22	-1735.23	  389.29
     75.5700	  571.00	  541.23	-1714.24	  389.36
     75.6700	  566.00	  543.97	-1721.98	  389.43
     75.7700	  571.00	  548.90	-1721.91	  389.50
     75.8700	  555.00	  556.38	-1745.38	  389.57
     75.9700	  563.00	  566.83	-1747.84	  389.64
     76.0700	  628.00	  580.35	-1696.36	  389.70
     76.1700	  593.00	  596.80	-1747.81	  389.77
     76.2700	  626.00	  615.66	-1733.67	  389.83
     76.3700	  656.00	  635.94	-1723.95	  389.89
     76.4700	  630.00	  656.05	-1770.05	  389.95
     76.5700	  689.00	  674.11	-1729.12	  390.01
     76.6700	  665.00	  687.62	-1766.63	  390.07
     76.7700	  732.00	  694.25	-1706.26	  390.13
     76.8700	  731.00	  692.63	-1705.63	  390.19
     76.9700	  703.00	  683.04	-1724.04	  390.24
     77.0700	  657.00	  667.24	-1754.25	  390.29
     77.1700	  649.00	  647.67	-1742.68	  390.35
     77.2700	  624.00	  626.60	-1746.61	  390.40
     77.3700	  599.00	  605.98	-1750.99	  390.45
     77.4700	  555.00	  587.08	-1776.09	  390.50
     77.5700	  588.00	  570.67	-1726.68	  390.54
     77.6700	  588.00	  557.11	-1713.11	  390.59
     77.7700	  526.00	  546.37	-1764.38	  390.64
     77.8700	  519.00	  538.20	-1763.21	  390.68
     77.9700	  513.00	  532.19	-1763.20	  390.72
     78.0700	  540.00	  527.69	-1731.69	  390.76
     78.1700	  536.00	  524.68	-1732.69	  390.80
     78.2700	  520.00	  522.60	-1746.60	  390.84
     78.3700	  526.00	  521.16	-1739.17	  390.88
     78.4700	  512.00	  520.17	-1752.18	  390.91
     78.5700	  517.00	  519.48	-1746.49	  390.95
     78.6700	  511.00	  519.01	-1752.02	  390.98
     78.7700	  532.00	  518.71	-1730.72	  391.01
     78.8700	  491.00	  518.55	-1771.56	  391.04
     78.9700	  508.00	  518.53	-1754.54	  391.07
     79.0700	  493.00	  518.66	-1769.67	  391.10
     79.1700	  528.00	  518.95	-1734.96	  391.12
     79.2700	  489.00	  519.43	-1774.44	  391.15
     79.3700	  536.00	  520.14	-1728.15	  391.17
     79.4700	  519.00	  521.11	-1746.12	  391.19
     79.5700	  508.00	  522.39	-1758.40	  391.21
     79.6700	  526.00	  524.03	-1742.04	  391.23
     79.7700	  539.00	  526.09	-1731.10	  391.25
     79.8700	  530.00	  528.66	-1742.67	  391.26
     79.9700	  503.00	  531.82	-1772.83	  391.28
     80.0700	  548.00	  535.68	-1731.69	  391.29
     80.1700	  527.00	  540.37	-1757.38	  391.30
     80.2700	  535.00	  546.02	-1755.03	  391.31
     80.3700	  569.00	  552.81	-1727.81	  391.32
     80.4700	  563.00	  560.92	-1741.93	  391.32
     80.5700	  527.00	  570.37	-1787.38	  391.33
     80.6700	  571.00	  581.67	-1754.68	  391.33
     80.7700	  546.00	  594.57	-1792.58	  391.33
     80.8700	  651.00	  608.82	-1701.83	  391.33
     80.9700	  583.00	  623.87	-1784.88	  391.33
     81.0700	  620.00	  638.95	-1762.96	  391.33
     81.1700	  642.00	  653.12	-1755.13	  391.33
     81.2700	  665.00	  665.52	-1744.53	  391.32
     81.3700	  696.00	  675.46	-1723.47	  391.31
     81.4700	  746.00	  682.48	-1680.48	  391.30
     81.5700	  700.00	  686.30	-1730.31	  391.29
     81.6700	  682.00	  686.85	-1748.85	  391.28
     81.7700	  762.00	  684.18	-1666.19	  391.27
     81.8700	  718.00	  678.45	-1704.45	  391.25
     81.9700	  701.00	  669.84	-1712.84	  391.23
     82.0700	  668.00	  658.77	-1734.78	  391.21
     82.1700	  672.00	  645.94	-1717.94	  391.19
     82.2700	  662.00	  632.18	-1714.19	  391.17
     82.3700	  680.00	  618.26	-1682.27	  391.15
     82.4700	  611.00	  604.75	-1737.76	  391.12
     82.5700	  592.00	  592.02	-1744.03	  391.10
     82.6700	  658.00	  580.34	-1666.35	  391.07
     82.7700	  555.00	  569.94	-1758.95	  391.04
     82.8700	  537.00	  561.02	-1768.03	  391.00
     82.9700	  591.00	  553.74	-1706.75	  390.97
     83.0700	  543.00	  548.18	-1749.19	  390.94
     83.1700	  561.00	  544.37	-1727.38	  390.90
     83.2700	  527.00	  542.27	-1759.28	  390.86
     83.3700	  517.00	  541.80	-1768.81	  390.82
     83.4700	  512.00	  542.83	-1774.84	  390.78
     83.5700	  501.00	  545.17	-1788.18	  390.73
     83.6700	  519.00	  548.55	-1773.55	  390.69
     83.7700	  520.00	  552.56	-1776.57	  390.64
     83.8700	  543.00	  556.92	-1757.93	  390.59
     83.9700	  583.00	  561.04	-1722.05	  390.54
     84.0700	  534.00	  564.42	-1774.43	  390.49
     84.1700	  519.00	  566.50	-1791.51	  390.44
     84.2700	  589.00	  566.87	-1721.88	  390.38
     84.3700	  538.00	  565.37	-1771.38	  390.32
     84.4700	  547.00	  562.19	-1759.20	  390.26
     84.5700	  539.00	  557.73	-1762.74	  390.20
     84.6700	  550.00	  552.48	-1746.48	  390.14
     84.7700	  573.00	  546.90	-1717.91	  390.07
     84.8700	  500.00	  541.40	-1785.41	  390.01
     84.9700	  488.00	  536.25	-1792.26	  389.94
     85.0700	  525.00	  531.67	-1750.68	  389.87
     85.1700	  520.00	  527.77	-1751.78	  389.80
     85.2700	  518.00	  524.58	-1750.59	  389.73
     85.3700	  469.00	  522.08	-1797.09	  389.65
     85.4700	  484.00	  520.21	-1780.22	  389.58
     85.5700	  476.00	  518.89	-1786.90	  389.50
     85.6700	  498.00	  518.05	-1764.06	  389.42
     85.7700	  514.00	  517.62	-1747.62	  389.33
     85.8700	  513.00	  517.55	-1748.56	  389.25
     85.9700	  511.00	  517.85	-1750.86	  389.17
     86.0700	  509.00	  518.53	-1753.54	  389.08
     86.1700	  492.00	  519.67	-1771.68	  388.99
     86.2700	  540.00	  521.37	-1725.37	  388.90
     86.3700	  520.00	  523.74	-1747.75	  388.81
     86.4700	  512.00	  526.96	-1758.97	  388.71
     86.5700	  555.00	  531.18	-1720.19	  388.62
     86.6700	  568.00	  536.55	-1712.56	  388.52
     86.7700	  518.00	  543.17	-1769.18	  388.42
     86.8700	  521.00	  551.09	-1774.10	  388.32
     86.9700	  553.00	  560.25	-1751.26	  388.21
     87.0700	  544.00	  570.46	-1770.47	  388.11
     87.1700	  563.00	  581.40	-1762.40	  388.00
     87.2700	  538.00	  592.58	-1798.59	  387.89
     87.3700	  584.00	  603.37	-1763.38	  387.78
     87.4700	  613.00	  612.98	-1743.99	  387.67
     87.5700	  634.00	  620.54	-1730.55	  387.56
     87.6700	  611.00	  625.23	-1758.24	  387.44
     87.7700	  626.00	  626.52	-1744.52	  387.32
     87.8700	  650.00	  624.33	-1718.34	  387.20
     87.9700	  669.00	  619.11	-1694.12	  387.08
     88.0700	  588.00	  611.65	-1767.66	  386.96
     88.1700	  673.00	  602.88	-1673.89	  386.84
     88.2700	  602.00	  593.73	-1735.74	  386.71
     88.3700	  580.00	  584.61	-1748.62	  386.58
     88.4700	  553.00	  577.00	-1768.01	  386.45
     88.5700	  585.00	  571.02	-1730.03	  386.32
     88.6700	  561.00	  566.99	-1750.00	  386.19
     88.7700	  537.00	  565.08	-1772.09	  386.05
     88.8700	  601.00	  565.26	-1708.27	  385.92
     88.9700	  567.00	  567.36	-1744.37	  385.78
     89.0700	  607.00	  571.05	-1708.06	  385.64
     89.1700	  546.00	  575.87	-1773.88	  385.49
     89.2700	  616.00	  581.26	-1709.26	  385.35
     89.3700	  587.00	  586.54	-1743.55	  385.21
     89.4700	  600.00	  591.03	-1735.04	  385.06
     89.5700	  614.00	  594.03	-1724.04	  384.91
     89.6700	  623.00	  595.00	-1716.00	  384.76
     89.7700	  562.00	  593.67	-1775.68	  384.61
     89.8700	  611.00	  590.12	-1723.13	  384.45
     89.9700	  587.00	  584.72	-1741.73	  384.30
     90.0700	  588.00	  578.01	-1734.02	  384.14
     90.1700	  550.00	  570.55	-1764.56	  383.98
     90.2700	  549.00	  562.85	-1757.86	  383.82
     90.3700	  549.00	  555.34	-1750.34	  383.65
     90.4700	  507.00	  548.34	-1785.35	  383.49
     90.5700	  482.00	  542.08	-1804.09	  383.32
     90.6700	  512.00	  536.69	-1768.70	  383.16
     90.7700	  461.00	  532.23	-1815.23	  382.99
     90.8700	  512.00	  528.67	-1760.68	  382.81
     90.9700	  502.00	  525.97	-1767.97	  382.64
     91.0700	  509.00	  524.03	-1759.04	  382.47
     91.1700	  505.00	  522.78	-1761.79	  382.29
     91.2700	  539.00	  522.13	-1727.14	  382.11
     91.3700	  527.00	  522.02	-1739.03	  381.93
     91.4700	  480.00	  522.42	-1786.43	  381.75
     91.5700	  489.00	  523.35	-1778.36	  381.57
     91.6700	  530.00	  524.84	-1738.85	  381.38
     91.7700	  493.00	  526.98	-1777.99	  381.20
     91.8700	  509.00	  529.90	-1764.90	  381.01
     91.9700	  514.00	  533.72	-1763.73	  380.82
     92.0700	  493.00	  538.63	-1789.63	  380.63
     92.1700	  516.00	  544.78	-1772.79	  380.43
     92.2700	  508.00	  552.34	-1788.35	  380.24
     92.3700	  534.00	  561.44	-1771.44	  380.04
     92.4700	  559.00	  572.15	-1757.16	  379.85
     92.5700	  585.00	  584.49	-1743.50	  379.65
     92.6700	  612.00	  598.39	-1730.40	  379.45
     92.7700	  577.00	  613.66	-1780.67	  379.24
     92.8700	  614.00	  630.03	-1760.04	  379.04
     92.9700	  627.00	  647.08	-1764.09	  378.83
     93.0700	  671.00	  664.29	-1737.29	  378.63
     93.1700	  639.00	  681.05	-1786.06	  378.42
     93.2700	  686.00	  696.79	-1754.79	  378.21
     93.3700	  725.00	  711.04	-1730.04	  378.00
     93.4700	  679.00	  723.64	-1788.64	  377.78
     93.5700	  782.00	  734.75	-1696.76	  377.57
     93.6700	  778.00	  744.49	-1710.50	  377.35
     93.7700	  752.00	  753.94	-1745.95	  377.13
     93.8700	  784.00	  763.25	-1723.26	  376.91
     93.9700	  830.00	  772.71	-1686.72	  376.69
     94.0700	  829.00	  782.54	-1697.55	  376.47
     94.1700	  873.00	  792.93	-1663.94	  376.25
     94.2700	  865.00	  804.09	-1683.10	  376.02
     94.3700	  852.00	  816.25	-1708.26	  375.80
     94.4700	  845.00	  829.45	-1728.46	  375.57
     94.5700	  932.00	  843.51	-1655.52	  375.34
     94.6700	  860.00	  857.82	-1741.83	  375.11
     94.7700	  858.00	  871.38	-1757.39	  374.88
     94.8700	  902.00	  882.88	-1724.88	  374.64
     94.9700	  887.00	  890.73	-1747.74	  374.41
     95.0700	  938.00	  893.46	-1699.47	  374.17
     95.1700	  957.00	  889.97	-1676.97	  373.93
     95.2700	  901.00	  879.87	-1722.88	  373.70
     95.3700	  868.00	  863.69	-1739.70	  373.46
     95.4700	  832.00	  842.65	-1754.66	  373.21
     95.5700	  795.00	  818.46	-1767.47	  372.97
     95.6700	  779.00	  792.95	-1757.95	  372.73
     95.7700	  801.00	  767.94	-1710.94	  372.48
     95.8700	  750.00	  745.10	-1739.11	  372.23
     95.9700	  727.00	  725.97	-1742.98	  371.99
     96.0700	  701.00	  711.91	-1754.91	  371.74
     96.1700	  703.00	  704.10	-1745.11	  371.49
     96.2700	  677.00	  703.60	-1770.61	  371.24
     96.3700	  674.00	  711.26	-1781.27	  370.98
     96.4700	  728.00	  727.75	-1743.76	  370.73
     96.5700	  812.00	  753.53	-1685.54	  370.47
     96.6700	  806.00	  788.81	-1726.82	  370.22
     96.7700	  833.00	  833.47	-1744.48	  369.96
     96.8700	  895.00	  887.02	-1736.03	  369.70
     96.9700	  887.00	  948.51	-1805.52	  369.44
     97.0700	  988.00	 1016.48	-1772.49	  369.18
     97.1700	 1121.00	 1088.92	-1711.93	  368.92
     97.2700	 1060.00	 1163.23	-1847.24	  368.66
     97.3700	 1191.00	 1236.22	-1789.23	  368.39
     97.4700	 1370.00	 1304.13	-1678.14	  368.13
     97.5700	 1331.00	 1362.87	-1775.88	  367.86
     97.6700	 1389.00	 1408.31	-1763.32	  367.59
     97.7700	 1396.00	 1436.91	-1784.92	  367.33
     97.8700	 1466.00	 1446.42	-1724.43	  367.06
     97.9700	 1376.00	 1436.39	-1804.40	  366.79
     98.0700	 1413.00	 1408.29	-1739.30	  366.52
     98.1700	 1312.00	 1365.05	-1797.06	  366.24
     98.2700	 1203.00	 1310.45	-1851.46	  365.97
     98.3700	 1241.00	 1248.53	-1751.54	  365.70
     98.4700	 1220.00	 1183.21	-1707.22	  365.42
     98.5700	 1063.00	 1118.05	-1799.05	  365.15
     98.6700	 1072.00	 1056.12	-1728.13	  364.87
     98.7700	 1027.00	 1000.05	-1717.06	  364.59
     98.8700	  919.00	  951.98	-1776.99	  364.32
     98.9700	  928.00	  913.66	-1729.66	  364.04
     99.0700	  825.00	  886.42	-1805.43	  363.76
     99.1700	  845.00	  871.27	-1770.28	  363.48
     99.2700	  830.00	  868.92	-1782.92	  363.20
     99.3700	  848.00	  879.79	-1775.80	  362.91
     99.4700	  936.00	  904.07	-1712.07	  362.63
     99.5700	  952.00	  941.64	-1733.65	  362.35
     99.6700	  984.00	  992.15	-1752.16	  362.07
     99.7700	 1056.00	 1054.90	-1742.91	  361.78
     99.8700	 1152.00	 1128.86	-1720.87	  361.50
     99.9700	 1208.00	 1212.63	-1748.64	  361.21
    100.0700	 1330.00	 1304.23	-1718.24	  360.92
    100.1700	 1303.00	 1401.17	-1842.18	  360.64
    100.2700	 1539.00	 1500.42	-1705.42	  360.35
    100.3700	 1525.00	 1598.46	-1817.47	  360.06
    100.4700	 1752.00	 1691.50	-1683.51	  359.77
    100.5700	 1841.00	 1775.86	-1678.87	  359.49
    100.6700	 1914.00	 1848.38	-1678.39	  359.20
    100.7700	 1882.00	 1906.72	-1768.73	  358.91
    100.8700	 1923.00	 1949.40	-1770.40	  358.62
    100.9700	 1947.00	 1975.49	-1772.50	  358.33
    101.0700	 2015.00	 1984.45	-1713.46	  358.04
    101.1700	 1962.00	 1975.91	-1757.92	  357.74
    101.2700	 2025.00	 1949.92	-1668.93	  357.45
    101.3700	 1902.00	 1907.34	-1749.35	  357.16
    101.4700	 1840.00	 1850.20	-1754.20	  356.87
    101.5700	 1751.00	 1781.62	-1774.63	  356.58
    101.6700	 1714.00	 1705.59	-1735.60	  356.29
    101.7700	 1685.00	 1626.32	-1685.33	  355.99
    101.8700	 1611.00	 1547.72	-1680.72	  355.70
    101.9700	 1375.00	 1473.07	-1842.08	  355.41
    102.0700	 1420.00	 1404.83	-1728.84	  355.11
    102.1700	 1362.00	 1344.57	-1726.58	  354.82
    102.2700	 1289.00	 1293.03	-1748.04	  354.53
    102.3700	 1248.00	 1250.09	-1746.10	  354.23
    102.4700	 1189.00	 1214.96	-1769.97	  353.94
    102.5700	 1207.00	 1186.17	-1723.18	  353.65
    102.6700	 1144.00	 1161.82	-1761.83	  353.35
    102.7700	 1125.00	 1139.69	-1758.70	  353.06
    102.8700	 1173.00	 1117.55	-1688.56	  352.77
    102.9700	 1051.00	 1093.48	-1786.49	  352.47
    103.0700	 1041.00	 1066.15	-1769.16	  352.18
    103.1700	 1039.00	 1034.95	-1739.96	  351.89
    103.2700	 1006.00	 1000.01	-1738.02	  351.59
    103.3700	  943.00	  961.99	-1762.99	  351.30
    103.4700	  913.00	  921.85	-1752.86	  351.01
    103.5700	  915.00	  880.70	-1709.71	  350.72
    103.6700	  797.00	  839.61	-1786.62	  350.43
    103.7700	  819.00	  799.54	-1724.55	  350.13
    103.8700	  730.00	  761.33	-1775.34	  349.84
    103.9700	  766.00	  725.66	-1703.67	  349.55
    104.0700	  731.00	  693.02	-1706.03	  349.26
    104.1700	  658.00	  663.73	-1749.74	  348.97
    104.2700	  637.00	  637.95	-1744.95	  348.68
    104.3700	  675.00	  615.67	-1684.68	  348.39
    104.4700	  617.00	  596.78	-1723.79	  348.11
    104.5700	  581.00	  581.07	-1744.08	  347.82
    104.6700	  580.00	  568.24	-1732.25	  347.53
    104.7700	  554.00	  557.98	-1747.99	  347.24
    104.8700	  560.00	  549.95	-1733.96	  346.96
    104.9700	  571.00	  543.85	-1716.85	  346.67
    105.0700	  567.00	  539.36	-1716.37	  346.39
    105.1700	  511.00	  536.24	-1769.25	  346.10
    105.2700	  518.00	  534.26	-1760.27	  345.82
    105.3700	  601.00	  533.26	-1676.26	  345.54
    105.4700	  529.00	  533.09	-1748.09	  345.26
    105.5700	  534.00	  533.65	-1743.66	  344.98
    105.6700	  552.00	  534.90	-1726.91	  344.70
    105.7700	  529.00	  536.78	-1751.79	  344.42
    105.8700	  522.00	  539.31	-1761.32	  344.14
    105.9700	  552.00	  542.50	-1734.51	  343.86
    106.0700	  564.00	  546.39	-1726.40	  343.59
    106.1700	  532.00	  551.03	-1763.04	  343.31
    106.2700	  547.00	  556.45	-1753.46	  343.04
    106.3700	  582.00	  562.71	-1724.72	  342.76
    106.4700	  592.00	  569.80	-1721.81	  342.49
    106.5700	  569.00	  577.70	-1752.71	  342.22
    106.6700	  609.00	  586.33	-1721.33	  341.95
    106.7700	  543.00	  595.55	-1796.56	  341.68
    106.8700	  646.00	  605.20	-1703.21	  341.42
    106.9700	  608.00	  615.05	-1751.05	  341.15
    107.0700	  617.00	  624.80	-1751.81	  340.89
    107.1700	  614.00	  634.18	-1764.18	  340.62
    107.2700	  661.00	  642.84	-1725.85	  340.36
    107.3700	  643.00	  650.45	-1751.46	  340.10
    107.4700	  684.00	  656.74	-1716.75	  339.84
    107.5700	  680.00	  661.51	-1725.52	  339.59
    107.6700	  645.00	  664.70	-1763.71	  339.33
    107.7700	  670.00	  666.43	-1740.43	  339.08
    107.8700	  659.00	  666.92	-1751.93	  338.83
    107.9700	  639.00	  666.54	-1771.55	  338.58
    108.0700	  650.00	  665.67	-1759.68	  338.33
    108.1700	  682.00	  664.70	-1726.71	  338.08
    108.2700	  684.00	  663.96	-1723.97	  337.84
    108.3700	  640.00	  663.71	-1767.72	  337.59
    108.4700	  676.00	  664.12	-1732.13	  337.35
    108.5700	  673.00	  665.26	-1736.27	  337.11
    108.6700	  669.00	  667.09	-1742.10	  336.88
    108.7700	  668.00	  669.47	-1745.48	  336.64
    108.8700	  669.00	  672.17	-1747.18	  336.41
    108.9700	  681.00	  674.86	-1737.87	  336.17
    109.0700	  685.00	  677.16	-1736.16	  335.95
    109.1700	  705.00	  678.64	-1717.65	  335.72
    109.2700	  660.00	  678.91	-1762.91	  335.49
    109.3700	  672.00	  677.62	-1749.62	  335.27
    109.4700	  696.00	  674.55	-1722.56	  335.05
    109.5700	  666.00	  669.66	-1747.67	  334.83
    109.6700	  700.00	  663.01	-1707.02	  334.62
    109.7700	  662.00	  654.83	-1736.84	  334.40
    109.8700	  617.00	  645.43	-1772.44	  334.19
    109.9700	  665.00	  635.16	-1714.17	  333.98
    110.0700	  636.00	  624.37	-1732.38	  333.78
    110.1700	  625.00	  613.39	-1732.39	  333.57
    110.2700	  616.00	  602.51	-1730.52	  333.37
    110.3700	  588.00	  592.03	-1748.04	  333.18
    110.4700	  566.00	  582.16	-1760.17	  332.98
    110.5700	  585.00	  573.06	-1732.07	  332.79
    110.6700	  618.00	  564.87	-1690.88	  332.60
    110.7700	  583.00	  557.67	-1718.68	  332.41
    110.8700	  580.00	  551.50	-1715.51	  332.23
    110.9700	  538.00	  546.38	-1752.38	  332.04
    111.0700	  517.00	  542.27	-1769.28	  331.87
    111.1700	  542.00	  539.13	-1741.13	  331.69
    111.2700	  566.00	  536.88	-1714.89	  331.52
    111.3700	  561.00	  535.46	-1718.47	  331.35
    111.4700	  522.00	  534.77	-1756.78	  331.18
    111.5700	  507.00	  534.73	-1771.74	  331.02
    111.6700	  532.00	  535.24	-1747.25	  330.86
    111.7700	  579.00	  536.24	-1701.24	  330.70
    111.8700	  573.00	  537.63	-1708.64	  330.55
    111.9700	  550.00	  539.37	-1733.38	  330.40
    112.0700	  496.00	  541.39	-1789.39	  330.26
    112.1700	  586.00	  543.65	-1701.66	  330.11
    112.2700	  539.00	  546.13	-1751.14	  329.97
    112.3700	  549.00	  548.81	-1743.82	  329.84
    112.4700	  569.00	  551.70	-1726.71	  329.71
    112.5700	  598.00	  554.81	-1700.81	  329.58
    112.6700	  522.00	  558.17	-1780.18	  329.45
    112.7700	  599.00	  561.82	-1706.83	  329.33
    112.8700	  589.00	  565.84	-1720.84	  329.21
    112.9700	  552.00	  570.28	-1762.28	  329.10
    113.0700	  606.00	  575.24	-1713.24	  328.99
    113.1700	  565.00	  580.83	-1759.84	  328.89
    113.2700	  580.00	  587.20	-1751.21	  328.79
    113.3700	  626.00	  594.54	-1712.55	  328.69
    113.4700	  571.00	  603.08	-1776.09	  328.59
    113.5700	  600.00	  613.11	-1757.11	  328.51
    113.6700	  629.00	  625.00	-1740.01	  328.42
    113.7700	  616.00	  639.23	-1767.24	  328.34
    113.8700	  663.00	  656.38	-1737.38	  328.26
    113.9700	  712.00	  677.16	-1709.17	  328.19
    114.0700	  717.00	  702.45	-1729.45	  328.13
    114.1700	  778.00	  733.28	-1699.29	  328.06
    114.2700	  777.00	  770.89	-1737.90	  328.00
    114.3700	  821.00	  816.72	-1739.73	  327.95
    114.4700	  909.00	  872.39	-1707.39	  327.90
    114.5700	  915.00	  939.71	-1768.72	  327.86
    114.6700	 1056.00	 1020.67	-1708.68	  327.82
    114.7700	 1120.00	 1117.40	-1741.40	  327.78
    114.8700	 1296.00	 1232.08	-1680.09	  327.75
    114.9700	 1418.00	 1366.90	-1692.91	  327.73
    115.0700	 1608.00	 1523.94	-1659.95	  327.71
    115.1700	 1826.00	 1705.03	-1623.04	  327.69
    115.2700	 1935.00	 1911.73	-1720.74	  327.68
    115.3700	 2297.00	 2145.09	-1592.10	  327.68
    115.4700	 2495.00	 2405.57	-1654.58	  327.68
    115.5700	 2881.00	 2692.80	-1555.80	  327.68
    115.6700	 2982.00	 3005.52	-1767.52	  327.70
    115.7700	 3431.00	 3341.57	-1654.57	  327.71
    115.8700	 3789.00	 3697.73	-1652.73	  327.73
    115.9700	 4053.00	 4069.55	-1760.56	  327.76
    116.0700	 4410.00	 4451.50	-1785.50	  327.79
    116.1700	 4788.00	 4836.81	-1792.82	  327.83
    116.2700	 5024.00	 5217.77	-1937.78	  327.88
    116.3700	 5413.00	 5585.65	-1916.65	  327.93
    116.4700	 5933.00	 5930.72	-1741.73	  327.98
    116.5700	 6068.00	 6242.76	-1918.76	  328.04
    116.6700	 6502.00	 6511.32	-1753.32	  328.11
    116.7700	 6573.00	 6726.50	-1897.51	  328.18
    116.8700	 6720.00	 6879.62	-1903.63	  328.26
    116.9700	 6972.00	 6964.03	-1736.04	  328.35
    117.0700	 6828.00	 6976.03	-1892.04	  328.44
    117.1700	 6788.00	 6915.34	-1871.34	  328.54
    117.2700	 6918.00	 6785.07	-1611.08	  328.64
    117.3700	 6669.00	 6591.33	-1666.34	  328.75
    117.4700	 6313.00	 6342.51	-1773.52	  328.87
    117.5700	 6027.00	 6048.35	-1765.36	  328.99
    117.6700	 5611.00	 5719.21	-1852.22	  329.12
    117.7700	 5278.00	 5365.25	-1831.26	  329.26
    117.8700	 4787.00	 4996.08	-1953.09	  329.40
    117.9700	 4642.00	 4620.58	-1722.59	  329.55
    118.0700	 4302.00	 4246.56	-1688.57	  329.71
    118.1700	 4084.00	 3880.80	-1540.81	  329.87
    118.2700	 3696.00	 3528.83	-1576.84	  330.04
    118.3700	 3296.00	 3195.00	-1643.01	  330.22
    118.4700	 2998.00	 2882.68	-1628.68	  330.41
    118.5700	 2649.00	 2594.11	-1689.12	  330.60
    118.6700	 2449.00	 2330.64	-1625.65	  330.80
    118.7700	 2071.00	 2092.68	-1765.69	  331.00
    118.8700	 1866.00	 1879.93	-1757.94	  331.22
    118.9700	 1681.00	 1691.59	-1754.60	  331.44
    119.0700	 1522.00	 1526.36	-1748.37	  331.66
    119.1700	 1357.00	 1382.64	-1769.65	  331.90
    119.2700	 1231.00	 1258.54	-1771.55	  332.14
    119.3700	 1199.00	 1152.10	-1697.11	  332.39
    119.4700	 1070.00	 1061.34	-1735.35	  332.65
    119.5700	  925.00	  984.33	-1803.34	  332.92
    119.6700	  937.00	  919.23	-1726.24	  333.19
    119.7700	  807.00	  864.33	-1801.34	  333.48
    119.8700	  790.00	  818.11	-1772.12	  333.77
    119.9700	  790.00	  779.22	-1733.23	  334.06
    120.0700	  765.00	  746.49	-1725.50	  334.37
    120.1700	  681.00	  718.92	-1781.92	  334.69
    120.2700	  645.00	  695.65	-1794.66	  335.01
    120.3700	  627.00	  675.99	-1793.00	  335.34
    120.4700	  663.00	  659.35	-1740.36	  335.68
    120.5700	  636.00	  645.27	-1753.28	  336.03
    120.6700	  601.00	  633.36	-1776.37	  336.38
    120.7700	  588.00	  623.31	-1779.32	  336.75
    120.8700	  644.00	  614.86	-1714.87	  337.12
    120.9700	  581.00	  607.82	-1770.83	  337.51
    121.0700	  539.00	  602.02	-1807.03	  337.90
    121.1700	  607.00	  597.33	-1734.34	  338.30
    121.2700	  524.00	  593.64	-1813.65	  338.71
    121.3700	  528.00	  590.87	-1806.88	  339.13
    121.4700	  556.00	  588.94	-1776.94	  339.55
    121.5700	  543.00	  587.77	-1788.78	  339.99
    121.6700	  581.00	  587.32	-1750.33	  340.44
    121.7700	  555.00	  587.52	-1776.53	  340.89
    121.8700	  622.00	  588.32	-1710.33	  341.36
    121.9700	  532.00	  589.66	-1801.67	  341.83
    122.0700	  569.00	  591.49	-1766.49	  342.32
    122.1700	  615.00	  593.73	-1722.73	  342.81
    122.2700	  583.00	  596.31	-1757.32	  343.32
    122.3700	  609.00	  599.17	-1734.18	  343.83
    122.4700	  599.00	  602.21	-1747.22	  344.35
    122.5700	  629.00	  605.36	-1720.37	  344.89
    122.6700	  585.00	  608.51	-1767.52	  345.43
    122.7700	  581.00	  611.57	-1774.58	  345.98
    122.8700	  666.00	  614.45	-1692.46	  346.55
    122.9700	  635.00	  617.04	-1726.05	  347.12
    123.0700	  606.00	  619.26	-1757.27	  347.71
    123.1700	  691.00	  621.03	-1674.04	  348.30
    123.2700	  589.00	  622.29	-1777.30	  348.91
    123.3700	  684.00	  623.00	-1683.01	  349.53
    123.4700	  674.00	  623.15	-1693.16	  350.15
    123.5700	  640.00	  622.76	-1726.77	  350.79
    123.6700	  623.00	  621.82	-1742.83	  351.44
    123.7700	  622.00	  620.43	-1742.44	  352.10
    123.8700	  611.00	  618.62	-1751.63	  352.77
    123.9700	  627.00	  616.46	-1733.47	  353.45
    124.0700	  612.00	  614.00	-1746.01	  354.15
    124.1700	  621.00	  611.32	-1734.33	  354.85
    124.2700	  652.00	  608.47	-1700.48	  355.57
    124.3700	  602.00	  605.53	-1747.54	  356.29
    124.4700	  668.00	  602.54	-1678.54	  357.03
    124.5700	  611.00	  599.55	-1732.56	  357.78
    124.6700	  608.00	  596.62	-1732.63	  358.54
    124.7700	  575.00	  593.79	-1762.80	  359.32
    124.8700	  566.00	  591.08	-1769.09	  360.11
    124.9700	  575.00	  470.13	-1639.14	  360.90
    125.0700	  612.00	  470.94	-1744.01	  361.71
    125.1700	  634.00	  471.76	-1744.01	  362.54
    125.2700	  591.00	  472.60	-1744.01	  363.37
    125.3700	  579.00	  473.44	-1744.01	  364.22
    125.4700	  570.00	  474.30	-1744.01	  365.08
    125.5700	  575.00	  475.17	-1744.01	  365.95
    125.6700	  543.00	  476.06	-1744.01	  366.83
    125.7700	  533.00	  476.95	-1744.01	  367.73
    125.8700	  498.00	  477.86	-1744.01	  368.64
    125.9700	  549.00	  478.79	-1744.01	  369.56
    126.0700	  540.00	  479.72	-1744.01	  370.50
    126.1700	  554.00	  480.67	-1744.01	  371.45
    126.2700	  593.00	  481.63	-1744.01	  372.41
    126.3700	  568.00	  482.61	-1744.01	  373.38
    126.4700	  567.00	  483.60	-1744.01	  374.37
    126.5700	  532.00	  484.60	-1744.01	  375.37
    126.6700	  583.00	  485.61	-1744.01	  376.39
    126.7700	  569.00	  486.64	-1744.01	  377.42
    126.8700	  578.00	  487.68	-1744.01	  378.46
    126.9700	  614.00	  488.74	-1744.01	  379.51
    127.0700	  532.00	  489.81	-1744.01	  380.58
    127.1700	  568.00	  490.89	-1744.01	  381.67
    127.2700	  560.00	  491.99	-1744.01	  382.77
    127.3700	  627.00	  493.10	-1744.01	  383.88
    127.4700	  568.00	  494.23	-1744.01	  385.01
    127.5700	  623.00	  495.37	-1744.01	  386.15
    127.6700	  620.00	  496.53	-1744.01	  387.30
    127.7700	  609.00	  497.70	-1744.01	  388.47
    127.8700	  634.00	  498.88	-1744.01	  389.66
    127.9700	  624.00	  500.08	-1744.01	  390.85
    128.0700	  673.00	  501.30	-1744.01	  392.07
    128.1700	  692.00	  502.52	-1744.01	  393.30
    128.2700	  706.00	  503.77	-1744.01	  394.54
    128.3700	  664.00	  505.03	-1744.01	  395.80
    128.4700	  740.00	  506.30	-1744.01	  397.08
    128.5700	    0.00	  507.59	-1744.01	  398.36
    128.6700	    0.00	  508.90	-1744.01	  399.67
     12.3435	        	        	        	        	       0	(  0  0  2)	  0  1
     24.9601	        	        	        	        	       0	(  0  0  4)	  0  1
     28.3941	        	        	        	        	       0	(  1  0  0)	  0  1
     29.0936	        	        	        	        	       0	(  1  0  1)	  0  1
     31.1063	        	        	        	        	       0	(  1  0  2)	  0  1
     34.2247	        	        	        	        	       0	(  1  0  3)	  0  1
     37.8953	        	        	        	        	       0	(  0  0  6)	  0  1
     38.2144	        	        	        	        	       0	(  1  0  4)	  0  1
     42.8794	        	        	        	        	       0	(  1  0  5)	  0  1
     48.0801	        	        	        	        	       0	(  1  0  6)	  0  1
     50.3805	        	        	        	        	       0	(  1  1  0)	  0  1
     51.3574	        	        	        	        	       0	(  0  0  8)	  0  1
     52.1098	        	        	        	        	       0	(  1  1  2)	  0  1
     53.7292	        	        	        	        	       0	(  1  0  7)	  0  1
     57.0757	        	        	        	        	       0	(  1  1  4)	  0  1
     58.8990	        	        	        	        	       0	(  2  0  0)	  0  1
     59.2921	        	        	        	        	       0	(  2  0  1)	  0  1
     59.7803	        	        	        	        	       0	(  1  0  8)	  0  1
     60.4619	        	        	        	        	       0	(  2  0  2)	  0  1
     62.3825	        	        	        	        	       0	(  2  0  3)	  0  1
     64.7992	        	        	        	        	       0	(  1  1  6)	  0  1
     65.0168	        	        	        	        	       0	(  2  0  4)	  0  1
     65.6345	        	        	        	        	       0	(  0  0 10)	  0  1
     66.2198	        	        	        	        	       0	(  1  0  9)	  0  1
     68.3241	        	        	        	        	       0	(  2  0  5)	  0  1
     72.2676	        	        	        	        	       0	(  2  0  6)	  0  1
     73.0622	        	        	        	        	       0	(  1  0 10)	  0  1
     74.8771	        	        	        	        	       0	(  1  1  8)	  0  1
     76.8209	        	        	        	        	       0	(  2  0  7)	  0  1
     80.3504	        	        	        	        	       0	(  1  0 11)	  0  1
     81.1766	        	        	        	        	       0	(  0  0 12)	  0  1
     81.2069	        	        	        	        	       0	(  2  1  0)	  0  1
     81.5484	        	        	        	        	       0	(  2  1  1)	  0  1
     81.9740	        	        	        	        	       0	(  2  0  8)	  0  1
     82.5710	        	        	        	        	       0	(  2  1  2)	  0  1
     84.2703	        	        	        	        	       0	(  2  1  3)	  0  1
     86.6414	        	        	        	        	       0	(  2  1  4)	  0  1
     87.2040	        	        	        	        	       0	(  1  1 10)	  0  1
     87.7394	        	        	        	        	       0	(  2  0  9)	  0  1
     88.1610	        	        	        	        	       0	(  1  0 12)	  0  1
     89.6824	        	        	        	        	       0	(  2  1  5)	  0  1
     93.3993	        	        	        	        	       0	(  2  1  6)	  0  1
     94.1601	        	        	        	        	       0	(  2  0 10)	  0  1
     95.1498	        	        	        	        	       0	(  3  0  0)	  0  1
     95.4890	        	        	        	        	       0	(  3  0  1)	  0  1
     96.5079	        	        	        	        	       0	(  3  0  2)	  0  1
     96.6192	        	        	        	        	       0	(  1  0 13)	  0  1
     97.8125	        	        	        	        	       0	(  2  1  7)	  0  1
     98.2110	        	        	        	        	       0	(  3  0  3)	  0  1
     98.8064	        	        	        	        	       0	(  0  0 14)	  0  1
    100.6081	        	        	        	        	       0	(  3  0  4)	  0  1
    101.3238	        	        	        	        	       0	(  2  0 11)	  0  1
    102.1574	        	        	        	        	       0	(  1  1 12)	  0  1
    102.9661	        	        	        	        	       0	(  2  1  8)	  0  1
    103.7190	        	        	        	        	       0	(  3  0  5)	  0  1
    105.9307	        	        	        	        	       0	(  1  0 14)	  0  1
    107.5798	        	        	        	        	       0	(  3  0  6)	  0  1
    108.9434	        	        	        	        	       0	(  2  1  9)	  0  1
    109.3898	        	        	        	        	       0	(  2  0 12)	  0  1
    112.2540	        	        	        	        	       0	(  3  0  7)	  0  1
    115.8946	        	        	        	        	       0	(  2  1 10)	  0  1
    116.4579	        	        	        	        	       0	(  1  0 15)	  0  1
    116.9973	        	        	        	        	       0	(  2  2  0)	  0  1
    117.8534	        	        	        	        	       0	(  3  0  8)	  0  1
    118.5256	        	        	        	        	       0	(  2  2  2)	  0  1
    118.6516	        	        	        	        	       0	(  2  0 13)	  0  1
    120.4644	        	        	        	        	       0	(  0  0 16)	  0  1
    121.1542	        	        	        	        	       0	(  1  1 14)	  0  1
    123.2552	        	        	        	        	       0	(  2  2  4)	  0  1
    124.1003	        	        	        	        	       0	(  2  1 11)	  0  1
    124.5787	        	        	        	        	       0	(  3  0  9)	  0  1
    125.1295	        	        	        	        	       0	(  3  1  0)	  0  1
    125.5441	        	        	        	        	       0	(  3  1  1)	  0  1
    126.8011	        	        	        	        	       0	(  3  1  2)	  0  1
    128.9398	        	        	        	        	       0	(  1  0 16)	  0  1
    128.9438	        	        	        	        	       0	(  3  1  3)	  0  1
    129.7061	        	        	        	        	       0	(  2  0 14)	  0  1
    131.7930	        	        	        	        	       0	(  2  2  6)	  0  1
    132.0586	        	        	        	        	       0	(  3  1  4)	  0  1
    132.8214	        	        	        	        	       0	(  3  0 10)	  0  1
    134.1421	        	        	        	        	       0	(  2  1 12)	  0  1
    136.3066	        	        	        	        	       0	(  3  1  5)	  0  1
    142.0028	        	        	        	        	       0	(  3  1  6)	  0  1
    143.4930	        	        	        	        	       0	(  3  0 11)	  0  1
    144.1121	        	        	        	        	       0	(  2  0 15)	  0  1
    145.4320	        	        	        	        	       0	(  1  0 17)	  0  1
    146.2923	        	        	        	        	       0	(  2  2  8)	  0  1
    147.5838	        	        	        	        	       0	(  2  1 13)	  0  1
    149.8719	        	        	        	        	       0	(  3  1  7)	  0  1
    150.6641	        	        	        	        	       0	(  1  1 16)	  0  1
    155.3320	        	        	        	        	       0	(  0  0 18)	  0  1
    160.0326	        	        	        	        	       0	(  3  0 12)	  0  1
    160.1210	        	        	        	        	       0	(  4  0  0)	  0  1
    161.1455	        	        	        	        	       0	(  4  0  1)	  0  1
    162.5053	        	        	        	        	       0	(  3  1  8)	  0  1
    164.6114	        	        	        	        	       0	(  4  0  2)	  0  1
    173.6659	        	        	        	        	       0	(  2  0 16)	  0  1
    173.6944	        	        	        	        	       0	(  4  0  3)	  0  1
