MSG Master    CELL:    5.90443   5.90443  23.19111   90.0000   90.0000  120.0000   SPGR: P 63/m m c             TEMP:    835.65
  1   1280     2.52000     0.00000    -0.12559     0.00000     0.00000    0
    98     0     2
       0.00000      10.00000
     125.00000     130.00000
 2Theta	Yobs	Ycal	Yobs-Ycal	Backg	Posr	(hkl)	K
      0.7700	    0.00	  422.37	-1776.75	  316.78
      0.8700	    0.00	  424.62	-1776.75	  319.03
      0.9700	   38.00	  426.85	-1776.75	  321.25
      1.0700	   40.00	  429.05	-1776.75	  323.46
      1.1700	   47.00	  431.23	-1776.75	  325.64
      1.2700	   39.00	  433.39	-1776.75	  327.80
      1.3700	   35.00	  435.53	-1776.75	  329.93
      1.4700	   95.00	  437.64	-1776.75	  332.05
      1.5700	  295.00	  439.73	-1776.75	  334.14
      1.6700	  449.00	  441.80	-1776.75	  336.21
      1.7700	  540.00	  443.85	-1776.75	  338.25
      1.8700	  688.00	  445.87	-1776.75	  340.28
      1.9700	  711.00	  447.88	-1776.75	  342.28
      2.0700	  714.00	  449.86	-1776.75	  344.27
      2.1700	  770.00	  451.82	-1776.75	  346.23
      2.2700	  759.00	  453.76	-1776.75	  348.17
      2.3700	  727.00	  455.68	-1776.75	  350.09
      2.4700	  659.00	  457.58	-1776.75	  351.99
      2.5700	  717.00	  459.46	-1776.75	  353.86
      2.6700	  690.00	  461.31	-1776.75	  355.72
      2.7700	  635.00	  463.15	-1776.75	  357.55
      2.8700	  640.00	  464.96	-1776.75	  359.37
      2.9700	  599.00	  466.76	-1776.75	  361.16
      3.0700	  630.00	  468.53	-1776.75	  362.94
      3.1700	  606.00	  470.29	-1776.75	  364.69
      3.2700	  608.00	  472.02	-1776.75	  366.43
      3.3700	  777.00	  473.74	-1776.75	  368.14
      3.4700	  931.00	  475.43	-1776.75	  369.84
      3.5700	 1018.00	  477.11	-1776.75	  371.51
      3.6700	 1135.00	  478.76	-1776.75	  373.17
      3.7700	 1120.00	  480.40	-1776.75	  374.81
      3.8700	 1220.00	  482.02	-1776.75	  376.42
      3.9700	 1257.00	  483.62	-1776.75	  378.02
      4.0700	 1352.00	  485.19	-1776.75	  379.60
      4.1700	 1326.00	  486.75	-1776.75	  381.16
      4.2700	 1395.00	  488.30	-1776.75	  382.70
      4.3700	 1361.00	  489.82	-1776.75	  384.23
      4.4700	 1348.00	  491.32	-1776.75	  385.73
      4.5700	 1191.00	  492.81	-1776.75	  387.22
      4.6700	 1216.00	  494.28	-1776.75	  388.68
      4.7700	 1140.00	  495.73	-1776.75	  390.13
      4.8700	 1144.00	  497.16	-1776.75	  391.57
      4.9700	 1120.00	  498.57	-1776.75	  392.98
      5.0700	 1073.00	  499.97	-1776.75	  394.38
      5.1700	 1034.00	  501.35	-1776.75	  395.75
      5.2700	 1024.00	  502.71	-1776.75	  397.11
      5.3700	 1076.00	  504.05	-1776.75	  398.46
      5.4700	 1012.00	  505.38	-1776.75	  399.78
      5.5700	  991.00	  506.69	-1776.75	  401.09
      5.6700	  946.00	  507.98	-1776.75	  402.38
      5.7700	  866.00	  509.25	-1776.75	  403.66
      5.8700	  871.00	  510.51	-1776.75	  404.92
      5.9700	  863.00	  511.75	-1776.75	  406.16
      6.0700	  802.00	  512.97	-1776.75	  407.38
      6.1700	  954.00	  514.18	-1776.75	  408.59
      6.2700	  846.00	  515.37	-1776.75	  409.78
      6.3700	  851.00	  516.55	-1776.75	  410.96
      6.4700	  766.00	  517.71	-1776.75	  412.11
      6.5700	  821.00	  518.85	-1776.75	  413.26
      6.6700	  787.00	  519.98	-1776.75	  414.38
      6.7700	  780.00	  521.09	-1776.75	  415.49
      6.8700	  804.00	  522.18	-1776.75	  416.59
      6.9700	  711.00	  523.26	-1776.75	  417.67
      7.0700	  778.00	  524.33	-1776.75	  418.73
      7.1700	  747.00	  525.37	-1776.75	  419.78
      7.2700	  699.00	  526.41	-1776.75	  420.81
      7.3700	  686.00	  527.42	-1776.75	  421.83
      7.4700	  703.00	  528.43	-1776.75	  422.83
      7.5700	  725.00	  529.41	-1776.75	  423.82
      7.6700	  646.00	  530.39	-1776.75	  424.79
      7.7700	  689.00	  531.35	-1776.75	  425.75
      7.8700	  686.00	  532.29	-1776.75	  426.70
      7.9700	  671.00	  533.22	-1776.75	  427.62
      8.0700	  642.00	  534.13	-1776.75	  428.54
      8.1700	  633.00	  535.03	-1776.75	  429.44
      8.2700	  657.00	  535.92	-1776.75	  430.32
      8.3700	  624.00	  536.79	-1776.75	  431.19
      8.4700	  652.00	  537.64	-1776.75	  432.05
      8.5700	  640.00	  538.49	-1776.75	  432.89
      8.6700	  618.00	  539.32	-1776.75	  433.72
      8.7700	  611.00	  540.13	-1776.75	  434.54
      8.8700	  631.00	  540.93	-1776.75	  435.34
      8.9700	  631.00	  541.72	-1776.75	  436.13
      9.0700	  642.00	  542.50	-1776.75	  436.90
      9.1700	  633.00	  543.26	-1776.75	  437.67
      9.2700	  585.00	  544.01	-1776.75	  438.41
      9.3700	  592.00	  544.74	-1776.75	  439.15
      9.4700	  592.00	  545.46	-1776.75	  439.87
      9.5700	  595.00	  546.17	-1776.75	  440.58
      9.6700	  622.00	  546.87	-1776.75	  441.28
      9.7700	  633.00	  547.55	-1776.75	  441.96
      9.8700	  602.00	  548.22	-1776.75	  442.63
      9.9700	  628.00	  548.88	-1776.75	  443.29
     10.0700	  603.00	  551.59	-1725.34	  443.93
     10.1700	  615.00	  552.42	-1714.17	  444.57
     10.2700	  562.00	  553.27	-1768.02	  445.19
     10.3700	  603.00	  554.17	-1727.92	  445.80
     10.4700	  550.00	  555.15	-1781.90	  446.39
     10.5700	  594.00	  556.26	-1739.01	  446.98
     10.6700	  555.00	  557.57	-1779.32	  447.55
     10.7700	  592.00	  559.18	-1743.93	  448.11
     10.8700	  577.00	  561.17	-1760.92	  448.66
     10.9700	  586.00	  563.58	-1754.33	  449.20
     11.0700	  578.00	  566.42	-1765.17	  449.72
     11.1700	  561.00	  569.69	-1785.44	  450.24
     11.2700	  587.00	  573.42	-1763.17	  450.74
     11.3700	  592.00	  577.69	-1762.44	  451.23
     11.4700	  578.00	  582.62	-1781.37	  451.71
     11.5700	  581.00	  588.40	-1784.15	  452.18
     11.6700	  587.00	  595.34	-1785.09	  452.64
     11.7700	  582.00	  603.80	-1798.55	  453.09
     11.8700	  600.00	  614.12	-1790.87	  453.52
     11.9700	  649.00	  626.12	-1753.87	  453.95
     12.0700	  704.00	  638.49	-1711.24	  454.37
     12.1700	  679.00	  648.02	-1745.77	  454.77
     12.2700	  655.00	  649.50	-1771.25	  455.17
     12.3700	  698.00	  639.01	-1717.76	  455.55
     12.4700	  634.00	  620.49	-1763.24	  455.92
     12.5700	  618.00	  602.31	-1761.06	  456.29
     12.6700	  590.00	  588.73	-1775.48	  456.64
     12.7700	  585.00	  580.04	-1771.79	  456.98
     12.8700	  592.00	  575.00	-1759.75	  457.32
     12.9700	  559.00	  572.19	-1789.94	  457.64
     13.0700	  578.00	  570.61	-1769.36	  457.95
     13.1700	  587.00	  569.65	-1759.40	  458.26
     13.2700	  561.00	  569.05	-1784.80	  458.55
     13.3700	  592.00	  568.65	-1753.40	  458.84
     13.4700	  506.00	  568.39	-1839.14	  459.11
     13.5700	  582.00	  568.24	-1762.99	  459.38
     13.6700	  541.00	  568.15	-1803.90	  459.64
     13.7700	  594.00	  568.15	-1750.90	  459.88
     13.8700	  604.00	  568.16	-1740.91	  460.12
     13.9700	  585.00	  568.19	-1759.94	  460.35
     14.0700	  538.00	  568.24	-1806.99	  460.57
     14.1700	  560.00	  568.31	-1785.06	  460.78
     14.2700	  532.00	  568.40	-1813.15	  460.99
     14.3700	  548.00	  568.48	-1797.23	  461.18
     14.4700	  533.00	  568.58	-1812.33	  461.37
     14.5700	  545.00	  568.67	-1800.42	  461.54
     14.6700	  544.00	  568.77	-1801.52	  461.71
     14.7700	  529.00	  568.87	-1816.62	  461.87
     14.8700	  523.00	  568.96	-1822.71	  462.02
     14.9700	  626.00	  569.06	-1719.81	  462.17
     15.0700	  547.00	  569.15	-1798.90	  462.30
     15.1700	  622.00	  569.24	-1723.99	  462.43
     15.2700	  516.00	  569.32	-1830.07	  462.55
     15.3700	  526.00	  569.40	-1820.15	  462.66
     15.4700	  566.00	  569.47	-1780.22	  462.77
     15.5700	  529.00	  569.54	-1817.29	  462.86
     15.6700	  583.00	  569.60	-1763.35	  462.95
     15.7700	  551.00	  569.66	-1795.41	  463.03
     15.8700	  547.00	  569.71	-1799.46	  463.10
     15.9700	  575.00	  569.76	-1771.51	  463.17
     16.0700	  537.00	  569.80	-1809.55	  463.23
     16.1700	  571.00	  569.84	-1775.59	  463.28
     16.2700	  526.00	  569.87	-1820.62	  463.32
     16.3700	  562.00	  569.89	-1784.64	  463.36
     16.4700	  564.00	  569.91	-1782.66	  463.39
     16.5700	  535.00	  569.92	-1811.67	  463.41
     16.6700	  566.00	  569.92	-1780.67	  463.42
     16.7700	  590.00	  569.92	-1756.67	  463.43
     16.8700	  569.00	  569.91	-1777.66	  463.43
     16.9700	  547.00	  569.90	-1799.65	  463.43
     17.0700	  541.00	  569.88	-1805.63	  463.42
     17.1700	  567.00	  569.86	-1779.61	  463.40
     17.2700	  576.00	  569.83	-1770.58	  463.37
     17.3700	  518.00	  569.90	-1828.65	  463.34
     17.4700	  527.00	  569.86	-1819.61	  463.31
     17.5700	  570.00	  569.81	-1776.56	  463.26
     17.6700	  529.00	  569.76	-1817.51	  463.21
     17.7700	  565.00	  569.71	-1781.46	  463.15
     17.8700	  541.00	  569.75	-1805.50	  463.09
     17.9700	  558.00	  569.68	-1788.43	  463.02
     18.0700	  548.00	  569.61	-1798.36	  462.95
     18.1700	  567.00	  569.53	-1779.28	  462.87
     18.2700	  557.00	  569.45	-1789.20	  462.78
     18.3700	  540.00	  569.36	-1806.11	  462.69
     18.4700	  576.00	  569.27	-1770.02	  462.59
     18.5700	  535.00	  569.17	-1810.92	  462.49
     18.6700	  533.00	  569.06	-1812.81	  462.38
     18.7700	  552.00	  568.95	-1793.70	  462.26
     18.8700	  581.00	  568.84	-1764.59	  462.14
     18.9700	  544.00	  568.72	-1801.47	  462.02
     19.0700	  558.00	  568.60	-1787.35	  461.89
     19.1700	  568.00	  568.47	-1777.22	  461.75
     19.2700	  560.00	  568.34	-1785.09	  461.61
     19.3700	  561.00	  568.20	-1783.95	  461.46
     19.4700	  586.00	  568.10	-1758.85	  461.31
     19.5700	  520.00	  567.95	-1824.70	  461.15
     19.6700	  550.00	  567.80	-1794.55	  460.99
     19.7700	  597.00	  567.65	-1747.40	  460.83
     19.8700	  530.00	  567.49	-1814.24	  460.66
     19.9700	  606.00	  567.33	-1738.08	  460.48
     20.0700	  546.00	  567.16	-1797.91	  460.30
     20.1700	  547.00	  566.99	-1796.74	  460.11
     20.2700	  588.00	  566.82	-1755.57	  459.92
     20.3700	  560.00	  566.64	-1783.39	  459.73
     20.4700	  523.00	  566.46	-1820.21	  459.53
     20.5700	  506.00	  566.27	-1837.02	  459.33
     20.6700	  535.00	  566.09	-1807.84	  459.12
     20.7700	  573.00	  565.90	-1769.65	  458.91
     20.8700	  542.00	  565.70	-1800.45	  458.69
     20.9700	  535.00	  565.51	-1807.26	  458.47
     21.0700	  538.00	  565.31	-1804.06	  458.24
     21.1700	  533.00	  565.11	-1808.86	  458.02
     21.2700	  580.00	  564.91	-1761.66	  457.78
     21.3700	  542.00	  564.70	-1799.45	  457.55
     21.4700	  551.00	  564.49	-1790.24	  457.31
     21.5700	  555.00	  564.29	-1786.04	  457.06
     21.6700	  571.00	  564.08	-1769.83	  456.81
     21.7700	  550.00	  563.87	-1790.62	  456.56
     21.8700	  613.00	  563.66	-1727.41	  456.31
     21.9700	  582.00	  563.45	-1758.20	  456.05
     22.0700	  560.00	  563.40	-1780.15	  455.78
     22.1700	  555.00	  563.19	-1784.94	  455.52
     22.2700	  511.00	  562.99	-1828.74	  455.25
     22.3700	  545.00	  562.79	-1794.54	  454.98
     22.4700	  528.00	  562.59	-1811.34	  454.70
     22.5700	  607.00	  562.40	-1732.15	  454.42
     22.6700	  607.00	  562.22	-1731.97	  454.14
     22.7700	  612.00	  562.04	-1726.79	  453.85
     22.8700	  564.00	  561.88	-1774.63	  453.56
     22.9700	  537.00	  561.73	-1801.48	  453.27
     23.0700	  548.00	  561.59	-1790.34	  452.97
     23.1700	  563.00	  561.44	-1775.19	  452.68
     23.2700	  536.00	  561.35	-1802.10	  452.37
     23.3700	  531.00	  561.30	-1807.05	  452.07
     23.4700	  526.00	  561.30	-1812.05	  451.76
     23.5700	  584.00	  561.37	-1754.12	  451.45
     23.6700	  555.00	  561.52	-1783.27	  451.14
     23.7700	  553.00	  561.81	-1785.56	  450.83
     23.8700	  515.00	  562.32	-1824.07	  450.51
     23.9700	  552.00	  563.18	-1787.93	  450.19
     24.0700	  592.00	  564.64	-1749.39	  449.87
     24.1700	  627.00	  567.08	-1716.83	  449.54
     24.2700	  550.00	  571.00	-1797.75	  449.21
     24.3700	  620.00	  576.98	-1733.73	  448.88
     24.4700	  580.00	  585.45	-1782.20	  448.55
     24.5700	  692.00	  596.36	-1681.11	  448.21
     24.6700	  607.00	  608.79	-1778.54	  447.88
     24.7700	  687.00	  620.28	-1710.03	  447.54
     24.8700	  652.00	  626.52	-1751.27	  447.20
     24.9700	  685.00	  622.95	-1714.70	  446.85
     25.0700	  630.00	  610.09	-1756.84	  446.51
     25.1700	  581.00	  594.40	-1790.15	  446.16
     25.2700	  586.00	  581.09	-1771.84	  445.81
     25.3700	  597.00	  571.67	-1751.42	  445.46
     25.4700	  575.00	  565.71	-1767.46	  445.11
     25.5700	  621.00	  562.15	-1717.90	  444.75
     25.6700	  574.00	  560.02	-1762.77	  444.39
     25.7700	  584.00	  558.66	-1751.41	  444.03
     25.8700	  560.00	  557.73	-1774.48	  443.67
     25.9700	  579.00	  557.05	-1754.80	  443.31
     26.0700	  579.00	  556.56	-1754.31	  442.95
     26.1700	  531.00	  556.21	-1801.96	  442.58
     26.2700	  578.00	  555.98	-1754.73	  442.21
     26.3700	  550.00	  555.87	-1782.62	  441.85
     26.4700	  623.00	  555.88	-1709.63	  441.48
     26.5700	  623.00	  556.00	-1709.75	  441.10
     26.6700	  593.00	  556.26	-1740.01	  440.73
     26.7700	  634.00	  556.68	-1699.43	  440.36
     26.8700	  559.00	  557.29	-1775.04	  439.98
     26.9700	  589.00	  558.14	-1745.89	  439.61
     27.0700	  591.00	  559.29	-1745.04	  439.23
     27.1700	  588.00	  560.87	-1749.62	  438.85
     27.2700	  617.00	  563.06	-1722.81	  438.47
     27.3700	  561.00	  566.23	-1781.98	  438.09
     27.4700	  608.00	  571.06	-1739.81	  437.71
     27.5700	  634.00	  578.77	-1721.52	  437.32
     27.6700	  599.00	  591.36	-1769.11	  436.94
     27.7700	  590.00	  611.66	-1798.41	  436.55
     27.8700	  638.00	  642.75	-1781.50	  436.17
     27.9700	  671.00	  686.30	-1792.05	  435.78
     28.0700	  759.00	  740.40	-1758.15	  435.39
     28.1700	  847.00	  797.18	-1726.93	  435.00
     28.2700	  952.00	  841.36	-1666.11	  434.61
     28.3700	  912.00	  854.02	-1718.77	  434.22
     28.4700	  901.00	  831.43	-1707.18	  433.83
     28.5700	  776.00	  798.49	-1799.24	  433.44
     28.6700	  750.00	  782.03	-1808.78	  433.05
     28.7700	  728.00	  790.13	-1838.88	  432.66
     28.8700	  799.00	  814.49	-1792.24	  432.26
     28.9700	  860.00	  835.29	-1752.04	  431.87
     29.0700	  842.00	  828.34	-1763.09	  431.47
     29.1700	  797.00	  784.38	-1764.13	  431.08
     29.2700	  732.00	  722.05	-1766.80	  430.68
     29.3700	  646.00	  664.62	-1795.37	  430.29
     29.4700	  599.00	  621.93	-1799.68	  429.89
     29.5700	  630.00	  594.16	-1740.91	  429.50
     29.6700	  655.00	  577.57	-1699.32	  429.10
     29.7700	  609.00	  567.95	-1735.70	  428.70
     29.8700	  583.00	  562.22	-1755.97	  428.31
     29.9700	  588.00	  558.64	-1747.39	  427.91
     30.0700	  579.00	  556.45	-1754.20	  427.51
     30.1700	  603.00	  555.42	-1729.17	  427.12
     30.2700	  604.00	  555.74	-1728.49	  426.72
     30.3700	  598.00	  557.95	-1736.70	  426.32
     30.4700	  639.00	  562.94	-1700.69	  425.92
     30.5700	  596.00	  571.80	-1752.55	  425.53
     30.6700	  596.00	  585.27	-1766.02	  425.13
     30.7700	  647.00	  602.74	-1732.49	  424.73
     30.8700	  620.00	  621.44	-1778.19	  424.33
     30.9700	  640.00	  635.85	-1772.60	  423.94
     31.0700	  635.00	  638.70	-1780.45	  423.54
     31.1700	  614.00	  626.40	-1789.15	  423.14
     31.2700	  606.00	  604.90	-1775.65	  422.75
     31.3700	  596.00	  583.30	-1764.05	  422.35
     31.4700	  609.00	  566.33	-1734.08	  421.95
     31.5700	  590.00	  554.77	-1741.52	  421.56
     31.6700	  593.00	  547.62	-1731.37	  421.16
     31.7700	  552.00	  543.39	-1768.14	  420.77
     31.8700	  576.00	  540.86	-1741.61	  420.37
     31.9700	  580.00	  539.25	-1736.00	  419.98
     32.0700	  558.00	  538.16	-1756.91	  419.59
     32.1700	  596.00	  537.41	-1718.16	  419.19
     32.2700	  555.00	  536.93	-1758.68	  418.80
     32.3700	  549.00	  536.69	-1764.44	  418.41
     32.4700	  529.00	  536.66	-1784.41	  418.02
     32.5700	  537.00	  536.87	-1776.62	  417.62
     32.6700	  536.00	  537.33	-1778.08	  417.23
     32.7700	  541.00	  538.11	-1773.86	  416.84
     32.8700	  578.00	  539.25	-1738.00	  416.45
     32.9700	  579.00	  540.89	-1738.64	  416.07
     33.0700	  560.00	  543.22	-1759.97	  415.68
     33.1700	  585.00	  546.64	-1738.39	  415.29
     33.2700	  540.00	  551.81	-1788.56	  414.90
     33.3700	  551.00	  560.15	-1785.90	  414.52
     33.4700	  552.00	  574.08	-1798.83	  414.13
     33.5700	  573.00	  597.41	-1801.16	  413.75
     33.6700	  648.00	  634.84	-1763.59	  413.37
     33.7700	  666.00	  690.27	-1801.02	  412.98
     33.8700	  756.00	  763.13	-1783.88	  412.60
     33.9700	  946.00	  844.33	-1675.08	  412.22
     34.0700	  949.00	  913.78	-1741.53	  411.84
     34.1700	  995.00	  942.93	-1724.68	  411.46
     34.2700	  955.00	  911.87	-1733.62	  411.09
     34.3700	  900.00	  834.72	-1711.47	  410.71
     34.4700	  776.00	  746.79	-1747.54	  410.33
     34.5700	  691.00	  672.06	-1757.81	  409.96
     34.6700	  652.00	  618.04	-1742.79	  409.59
     34.7700	  568.00	  583.08	-1791.82	  409.21
     34.8700	  596.00	  561.96	-1742.71	  408.84
     34.9700	  550.00	  549.42	-1776.17	  408.47
     35.0700	  540.00	  541.62	-1778.37	  408.10
     35.1700	  537.00	  536.35	-1776.10	  407.73
     35.2700	  499.00	  532.47	-1810.22	  407.37
     35.3700	  543.00	  529.92	-1763.67	  407.00
     35.4700	  489.00	  527.46	-1815.21	  406.64
     35.5700	  510.00	  525.42	-1792.17	  406.27
     35.6700	  523.00	  523.70	-1777.45	  405.91
     35.7700	  515.00	  522.22	-1783.97	  405.55
     35.8700	  484.00	  520.92	-1813.67	  405.19
     35.9700	  502.00	  519.79	-1794.54	  404.84
     36.0700	  544.00	  518.78	-1751.53	  404.48
     36.1700	  535.00	  517.87	-1759.62	  404.12
     36.2700	  531.00	  517.03	-1762.78	  403.77
     36.3700	  542.00	  516.29	-1751.04	  403.42
     36.4700	  496.00	  515.62	-1796.37	  403.07
     36.5700	  501.00	  515.02	-1790.77	  402.72
     36.6700	  517.00	  514.48	-1774.23	  402.37
     36.7700	  514.00	  514.02	-1776.77	  402.02
     36.8700	  453.00	  513.63	-1837.38	  401.68
     36.9700	  486.00	  513.37	-1804.12	  401.33
     37.0700	  497.00	  513.29	-1793.04	  400.99
     37.1700	  514.00	  513.51	-1776.26	  400.65
     37.2700	  506.00	  514.19	-1784.94	  400.31
     37.3700	  509.00	  515.52	-1783.27	  399.97
     37.4700	  511.00	  517.81	-1783.56	  399.64
     37.5700	  527.00	  520.64	-1770.39	  399.30
     37.6700	  553.00	  523.75	-1747.50	  398.97
     37.7700	  553.00	  526.28	-1750.03	  398.64
     37.8700	  562.00	  527.10	-1741.85	  398.31
     37.9700	  557.00	  525.56	-1745.31	  397.98
     38.0700	  520.00	  522.27	-1779.02	  397.65
     38.1700	  487.00	  518.46	-1808.21	  397.33
     38.2700	  552.00	  514.92	-1739.67	  397.00
     38.3700	  534.00	  511.99	-1754.74	  396.68
     38.4700	  473.00	  509.79	-1813.54	  396.36
     38.5700	  518.00	  508.20	-1766.95	  396.04
     38.6700	  494.00	  507.07	-1789.82	  395.73
     38.7700	  465.00	  506.24	-1817.99	  395.41
     38.8700	  510.00	  505.60	-1772.35	  395.10
     38.9700	  477.00	  505.07	-1804.82	  394.79
     39.0700	  470.00	  504.60	-1811.35	  394.48
     39.1700	  498.00	  504.18	-1782.93	  394.17
     39.2700	  489.00	  503.80	-1791.55	  393.87
     39.3700	  452.00	  503.33	-1828.08	  393.56
     39.4700	  453.00	  502.99	-1826.74	  393.26
     39.5700	  463.00	  502.66	-1816.41	  392.96
     39.6700	  504.00	  502.36	-1775.11	  392.66
     39.7700	  493.00	  502.07	-1785.82	  392.36
     39.8700	  479.00	  501.79	-1799.54	  392.07
     39.9700	  497.00	  501.53	-1781.28	  391.78
     40.0700	  533.00	  501.28	-1745.03	  391.49
     40.1700	  437.00	  501.58	-1841.33	  391.20
     40.2700	  496.00	  501.36	-1782.11	  390.91
     40.3700	  519.00	  501.06	-1758.81	  390.62
     40.4700	  505.00	  500.88	-1772.63	  390.34
     40.5700	  481.00	  500.72	-1796.47	  390.06
     40.6700	  496.00	  500.62	-1781.37	  389.78
     40.7700	  491.00	  500.51	-1786.26	  389.50
     40.8700	  490.00	  500.41	-1787.16	  389.23
     40.9700	  508.00	  500.35	-1769.10	  388.95
     41.0700	  473.00	  500.33	-1804.08	  388.68
     41.1700	  542.00	  500.35	-1735.10	  388.41
     41.2700	  488.00	  500.42	-1789.17	  388.15
     41.3700	  471.00	  500.57	-1806.32	  387.88
     41.4700	  511.00	  500.79	-1766.54	  387.62
     41.5700	  478.00	  501.13	-1799.88	  387.35
     41.6700	  501.00	  501.69	-1777.44	  387.09
     41.7700	  477.00	  502.42	-1802.17	  386.84
     41.8700	  545.00	  503.61	-1735.36	  386.58
     41.9700	  482.00	  505.54	-1800.29	  386.33
     42.0700	  507.00	  508.60	-1778.35	  386.08
     42.1700	  505.00	  513.70	-1785.45	  385.83
     42.2700	  539.00	  521.90	-1759.65	  385.58
     42.3700	  522.00	  534.23	-1788.98	  385.33
     42.4700	  567.00	  551.17	-1760.92	  385.09
     42.5700	  511.00	  571.79	-1837.54	  384.85
     42.6700	  571.00	  593.14	-1798.89	  384.61
     42.7700	  582.00	  609.01	-1803.76	  384.37
     42.8700	  574.00	  613.10	-1815.85	  384.14
     42.9700	  553.00	  602.84	-1826.59	  383.91
     43.0700	  604.00	  582.91	-1755.66	  383.68
     43.1700	  488.00	  560.66	-1849.41	  383.45
     43.2700	  514.00	  540.99	-1803.74	  383.22
     43.3700	  523.00	  525.85	-1779.60	  383.00
     43.4700	  528.00	  515.32	-1764.07	  382.77
     43.5700	  469.00	  508.52	-1816.27	  382.55
     43.6700	  489.00	  504.31	-1792.06	  382.34
     43.7700	  504.00	  501.69	-1774.44	  382.12
     43.8700	  489.00	  499.99	-1787.74	  381.91
     43.9700	  476.00	  498.80	-1799.55	  381.70
     44.0700	  516.00	  498.12	-1758.87	  381.49
     44.1700	  525.00	  497.42	-1749.17	  381.28
     44.2700	  504.00	  496.86	-1769.61	  381.07
     44.3700	  465.00	  496.39	-1808.14	  380.87
     44.4700	  505.00	  496.01	-1767.76	  380.67
     44.5700	  536.00	  495.69	-1736.44	  380.47
     44.6700	  445.00	  495.43	-1827.18	  380.27
     44.7700	  503.00	  495.22	-1768.97	  380.08
     44.8700	  494.00	  495.05	-1777.80	  379.89
     44.9700	  491.00	  494.91	-1780.66	  379.70
     45.0700	  497.00	  494.81	-1774.56	  379.51
     45.1700	  467.00	  494.75	-1804.50	  379.32
     45.2700	  463.00	  494.71	-1808.46	  379.14
     45.3700	  496.00	  494.70	-1775.45	  378.96
     45.4700	  484.00	  494.73	-1787.48	  378.78
     45.5700	  521.00	  494.86	-1750.61	  378.60
     45.6700	  517.00	  494.95	-1754.70	  378.43
     45.7700	  534.00	  495.11	-1737.86	  378.26
     45.8700	  478.00	  495.27	-1794.02	  378.08
     45.9700	  484.00	  495.48	-1788.23	  377.92
     46.0700	  485.00	  495.72	-1787.47	  377.75
     46.1700	  487.00	  496.01	-1785.76	  377.59
     46.2700	  554.00	  496.34	-1719.09	  377.42
     46.3700	  522.00	  496.74	-1751.49	  377.26
     46.4700	  479.00	  497.06	-1794.81	  377.11
     46.5700	  501.00	  497.61	-1773.36	  376.95
     46.6700	  500.00	  498.26	-1775.01	  376.80
     46.7700	  487.00	  499.03	-1788.78	  376.65
     46.8700	  465.00	  499.96	-1811.71	  376.50
     46.9700	  510.00	  501.14	-1767.89	  376.35
     47.0700	  558.00	  502.69	-1721.44	  376.21
     47.1700	  531.00	  504.87	-1750.62	  376.07
     47.2700	  495.00	  508.06	-1789.81	  375.93
     47.3700	  534.00	  512.84	-1755.59	  375.79
     47.4700	  508.00	  519.85	-1788.60	  375.65
     47.5700	  552.00	  529.66	-1754.41	  375.52
     47.6700	  533.00	  542.44	-1786.19	  375.39
     47.7700	  536.00	  557.54	-1798.29	  375.26
     47.8700	  584.00	  573.03	-1765.78	  375.13
     47.9700	  571.00	  585.53	-1791.28	  375.00
     48.0700	  565.00	  591.52	-1803.27	  374.88
     48.1700	  621.00	  588.32	-1744.07	  374.76
     48.2700	  586.00	  578.55	-1769.30	  374.64
     48.3700	  533.00	  566.49	-1810.24	  374.53
     48.4700	  551.00	  555.54	-1781.29	  374.41
     48.5700	  526.00	  547.48	-1798.23	  374.30
     48.6700	  487.00	  542.92	-1832.67	  374.19
     48.7700	  481.00	  541.74	-1837.49	  374.08
     48.8700	  478.00	  543.52	-1842.27	  373.98
     48.9700	  476.00	  547.91	-1848.66	  373.87
     49.0700	  517.00	  554.81	-1814.56	  373.77
     49.1700	  547.00	  564.70	-1794.45	  373.67
     49.2700	  563.00	  578.96	-1792.71	  373.57
     49.3700	  587.00	  600.48	-1790.23	  373.48
     49.4700	  571.00	  634.58	-1840.33	  373.38
     49.5700	  637.00	  689.87	-1829.62	  373.29
     49.6700	  724.00	  778.33	-1831.08	  373.20
     49.7700	  846.00	  913.56	-1844.31	  373.12
     49.8700	 1012.00	 1106.38	-1871.13	  373.03
     49.9700	 1260.00	 1357.94	-1874.69	  372.95
     50.0700	 1591.00	 1651.36	-1837.11	  372.87
     50.1700	 1984.00	 1943.76	-1736.51	  372.79
     50.2700	 2305.00	 2163.61	-1635.36	  372.71
     50.3700	 2338.00	 2232.25	-1671.00	  372.64
     50.4700	 2218.00	 2118.28	-1677.03	  372.57
     50.5700	 1940.00	 1870.35	-1707.10	  372.50
     50.6700	 1521.00	 1572.23	-1827.98	  372.43
     50.7700	 1177.00	 1290.48	-1890.23	  372.36
     50.8700	  882.00	 1060.01	-1954.76	  372.30
     50.9700	  742.00	  891.25	-1926.00	  372.23
     51.0700	  758.00	  778.86	-1797.61	  372.17
     51.1700	  648.00	  709.33	-1838.08	  372.12
     51.2700	  639.00	  667.41	-1805.16	  372.06
     51.3700	  642.00	  640.15	-1774.90	  372.00
     51.4700	  584.00	  619.24	-1811.99	  371.95
     51.5700	  611.00	  601.22	-1766.97	  371.90
     51.6700	  552.00	  585.49	-1810.24	  371.85
     51.7700	  562.00	  572.29	-1787.04	  371.81
     51.8700	  558.00	  561.80	-1780.55	  371.76
     51.9700	  580.00	  553.95	-1750.70	  371.72
     52.0700	  593.00	  548.49	-1732.24	  371.68
     52.1700	  544.00	  545.08	-1777.83	  371.64
     52.2700	  572.00	  543.41	-1748.16	  371.60
     52.3700	  557.00	  543.29	-1763.04	  371.57
     52.4700	  588.00	  544.74	-1733.49	  371.54
     52.5700	  572.00	  548.13	-1752.88	  371.51
     52.6700	  544.00	  554.31	-1787.06	  371.48
     52.7700	  561.00	  564.85	-1780.60	  371.45
     52.8700	  570.00	  582.25	-1789.00	  371.42
     52.9700	  611.00	  609.95	-1775.70	  371.40
     53.0700	  659.00	  651.93	-1769.68	  371.38
     53.1700	  691.00	  711.71	-1797.46	  371.36
     53.2700	  861.00	  790.69	-1706.44	  371.34
     53.3700	  950.00	  886.16	-1712.91	  371.32
     53.4700	 1076.00	  989.21	-1689.96	  371.31
     53.5700	 1115.00	 1082.56	-1744.31	  371.30
     53.6700	 1131.00	 1142.04	-1787.79	  371.29
     53.7700	 1163.00	 1146.47	-1760.22	  371.28
     53.8700	 1146.00	 1093.82	-1724.57	  371.27
     53.9700	  996.00	 1003.53	-1784.28	  371.27
     54.0700	  873.00	  900.83	-1804.58	  371.26
     54.1700	  820.00	  804.23	-1760.98	  371.26
     54.2700	  687.00	  723.60	-1813.35	  371.26
     54.3700	  668.00	  662.25	-1771.00	  371.26
     54.4700	  602.00	  619.09	-1793.84	  371.27
     54.5700	  580.00	  590.77	-1787.52	  371.27
     54.6700	  610.00	  573.26	-1740.01	  371.28
     54.7700	  613.00	  563.01	-1726.76	  371.29
     54.8700	  557.00	  557.37	-1777.12	  371.30
     54.9700	  553.00	  554.66	-1778.41	  371.31
     55.0700	  581.00	  553.91	-1749.66	  371.32
     55.1700	  550.00	  554.62	-1781.37	  371.34
     55.2700	  601.00	  556.60	-1732.35	  371.36
     55.3700	  566.00	  559.81	-1770.56	  371.38
     55.4700	  570.00	  564.34	-1771.09	  371.40
     55.5700	  573.00	  570.42	-1774.17	  371.42
     55.6700	  633.00	  578.49	-1722.24	  371.44
     55.7700	  602.00	  589.38	-1764.13	  371.47
     55.8700	  631.00	  604.65	-1750.40	  371.50
     55.9700	  628.00	  627.08	-1775.83	  371.52
     56.0700	  642.00	  661.36	-1796.11	  371.55
     56.1700	  713.00	  714.67	-1778.42	  371.59
     56.2700	  738.00	  796.78	-1835.53	  371.62
     56.3700	  851.00	  919.10	-1844.85	  371.65
     56.4700	 1022.00	 1092.07	-1846.82	  371.69
     56.5700	 1272.00	 1320.95	-1825.70	  371.73
     56.6700	 1529.00	 1600.84	-1848.59	  371.77
     56.7700	 1857.00	 1911.15	-1830.90	  371.81
     56.8700	 2270.00	 2210.85	-1717.60	  371.85
     56.9700	 2454.00	 2437.46	-1760.21	  371.89
     57.0700	 2463.00	 2523.85	-1837.60	  371.94
     57.1700	 2512.00	 2438.64	-1703.39	  371.99
     57.2700	 2197.00	 2212.84	-1792.59	  372.03
     57.3700	 1836.00	 1914.53	-1855.28	  372.08
     57.4700	 1597.00	 1606.80	-1786.55	  372.13
     57.5700	 1261.00	 1330.75	-1846.50	  372.19
     57.6700	 1094.00	 1106.67	-1789.42	  372.24
     57.7700	  916.00	  939.61	-1800.36	  372.30
     57.8700	  797.00	  824.68	-1804.43	  372.35
     57.9700	  756.00	  752.26	-1773.01	  372.41
     58.0700	  782.00	  712.27	-1707.02	  372.47
     58.1700	  730.00	  696.65	-1743.40	  372.53
     58.2700	  716.00	  700.29	-1761.04	  372.59
     58.3700	  716.00	  720.54	-1781.29	  372.66
     58.4700	  757.00	  756.13	-1775.88	  372.72
     58.5700	  892.00	  805.84	-1690.59	  372.79
     58.6700	  891.00	  867.09	-1752.84	  372.85
     58.7700	  942.00	  934.80	-1769.55	  372.92
     58.8700	 1093.00	 1001.65	-1685.40	  372.99
     58.9700	 1074.00	 1060.74	-1763.49	  373.06
     59.0700	 1209.00	 1108.12	-1675.87	  373.13
     59.1700	 1297.00	 1141.04	-1620.79	  373.21
     59.2700	 1302.00	 1155.85	-1630.60	  373.28
     59.3700	 1311.00	 1151.73	-1617.48	  373.36
     59.4700	 1321.00	 1135.57	-1591.32	  373.43
     59.5700	 1186.00	 1119.27	-1710.02	  373.51
     59.6700	 1207.00	 1112.98	-1682.73	  373.59
     59.7700	 1187.00	 1122.25	-1712.00	  373.67
     59.8700	 1187.00	 1150.03	-1739.78	  373.75
     59.9700	 1247.00	 1198.92	-1728.67	  373.84
     60.0700	 1318.00	 1269.03	-1727.78	  373.92
     60.1700	 1350.00	 1353.61	-1780.36	  374.00
     60.2700	 1514.00	 1436.24	-1698.99	  374.09
     60.3700	 1598.00	 1491.76	-1670.51	  374.18
     60.4700	 1593.00	 1494.75	-1678.50	  374.26
     60.5700	 1435.00	 1434.98	-1776.73	  374.35
     60.6700	 1384.00	 1325.15	-1717.90	  374.44
     60.7700	 1281.00	 1190.48	-1686.23	  374.53
     60.8700	 1057.00	 1054.36	-1774.11	  374.63
     60.9700	  928.00	  932.60	-1781.35	  374.72
     61.0700	  784.00	  833.82	-1826.57	  374.81
     61.1700	  740.00	  761.20	-1797.95	  374.91
     61.2700	  737.00	  714.45	-1754.20	  375.00
     61.3700	  705.00	  691.84	-1763.59	  375.10
     61.4700	  671.00	  691.81	-1797.56	  375.20
     61.5700	  728.00	  713.96	-1762.71	  375.30
     61.6700	  711.00	  758.95	-1824.70	  375.39
     61.7700	  812.00	  827.56	-1792.31	  375.49
     61.8700	  901.00	  919.06	-1794.81	  375.60
     61.9700	  950.00	 1029.46	-1856.21	  375.70
     62.0700	 1136.00	 1149.83	-1790.58	  375.80
     62.1700	 1251.00	 1264.84	-1790.59	  375.90
     62.2700	 1242.00	 1352.89	-1887.64	  376.01
     62.3700	 1341.00	 1390.96	-1826.71	  376.11
     62.4700	 1312.00	 1366.55	-1831.30	  376.22
     62.5700	 1197.00	 1286.82	-1866.57	  376.32
     62.6700	 1131.00	 1173.17	-1818.92	  376.43
     62.7700	  958.00	 1048.43	-1867.18	  376.54
     62.8700	  863.00	  929.56	-1843.31	  376.65
     62.9700	  801.00	  826.76	-1802.51	  376.76
     63.0700	  730.00	  744.45	-1791.20	  376.87
     63.1700	  635.00	  682.96	-1824.71	  376.98
     63.2700	  659.00	  639.77	-1757.52	  377.09
     63.3700	  621.00	  611.22	-1766.97	  377.20
     63.4700	  574.00	  593.59	-1796.34	  377.31
     63.5700	  611.00	  583.90	-1749.65	  377.43
     63.6700	  616.00	  580.29	-1741.04	  377.54
     63.7700	  563.00	  581.98	-1795.73	  377.66
     63.8700	  602.00	  589.25	-1764.00	  377.77
     63.9700	  617.00	  602.94	-1762.69	  377.89
     64.0700	  622.00	  624.48	-1779.23	  378.00
     64.1700	  694.00	  655.18	-1737.93	  378.12
     64.2700	  751.00	  695.81	-1721.56	  378.24
     64.3700	  785.00	  745.93	-1737.68	  378.35
     64.4700	  883.00	  803.29	-1697.04	  378.47
     64.5700	  865.00	  863.24	-1774.99	  378.59
     64.6700	  931.00	  918.44	-1764.19	  378.71
     64.7700	 1001.00	  959.92	-1735.67	  378.83
     64.8700	 1061.00	  979.35	-1695.10	  378.95
     64.9700	 1027.00	  973.61	-1723.36	  379.07
     65.0700	  945.00	  945.38	-1777.13	  379.19
     65.1700	  905.00	  901.56	-1773.31	  379.31
     65.2700	  877.00	  850.56	-1750.31	  379.43
     65.3700	  796.00	  799.21	-1779.96	  379.55
     65.4700	  738.00	  753.12	-1791.87	  379.67
     65.5700	  704.00	  713.72	-1786.47	  379.80
     65.6700	  702.00	  680.90	-1755.65	  379.92
     65.7700	  653.00	  653.76	-1777.51	  380.04
     65.8700	  614.00	  631.54	-1794.29	  380.16
     65.9700	  566.00	  613.73	-1824.48	  380.29
     66.0700	  562.00	  600.19	-1814.94	  380.41
     66.1700	  569.00	  589.91	-1797.66	  380.53
     66.2700	  555.00	  582.75	-1804.50	  380.66
     66.3700	  578.00	  578.35	-1777.10	  380.78
     66.4700	  607.00	  576.45	-1746.20	  380.91
     66.5700	  522.00	  576.86	-1831.61	  381.03
     66.6700	  587.00	  579.54	-1769.29	  381.16
     66.7700	  586.00	  584.75	-1775.50	  381.28
     66.8700	  571.00	  592.89	-1798.64	  381.41
     66.9700	  583.00	  605.19	-1798.94	  381.53
     67.0700	  614.00	  623.63	-1786.38	  381.66
     67.1700	  618.00	  651.28	-1810.03	  381.78
     67.2700	  664.00	  692.47	-1805.22	  381.91
     67.3700	  704.00	  752.85	-1825.60	  382.03
     67.4700	  833.00	  838.71	-1782.46	  382.16
     67.5700	  911.00	  956.15	-1821.90	  382.28
     67.6700	 1135.00	 1109.37	-1751.12	  382.41
     67.7700	 1265.00	 1298.81	-1810.56	  382.53
     67.8700	 1453.00	 1519.08	-1842.83	  382.66
     67.9700	 1748.00	 1757.22	-1785.97	  382.78
     68.0700	 2034.00	 1991.22	-1733.97	  382.91
     68.1700	 2258.00	 2189.41	-1708.16	  383.03
     68.2700	 2275.00	 2314.60	-1816.35	  383.16
     68.3700	 2340.00	 2336.95	-1773.70	  383.28
     68.4700	 2300.00	 2250.45	-1727.20	  383.41
     68.5700	 2015.00	 2077.17	-1838.92	  383.53
     68.6700	 1841.00	 1853.47	-1789.22	  383.66
     68.7700	 1628.00	 1614.18	-1762.93	  383.78
     68.8700	 1358.00	 1385.22	-1803.97	  383.91
     68.9700	 1183.00	 1183.03	-1776.78	  384.03
     69.0700	  994.00	 1015.72	-1798.47	  384.15
     69.1700	  904.00	  884.95	-1757.70	  384.28
     69.2700	  808.00	  787.75	-1756.50	  384.40
     69.3700	  751.00	  718.54	-1744.29	  384.52
     69.4700	  675.00	  670.95	-1772.70	  384.65
     69.5700	  638.00	  638.96	-1777.71	  384.77
     69.6700	  611.00	  617.67	-1783.42	  384.89
     69.7700	  599.00	  603.45	-1781.20	  385.01
     69.8700	  615.00	  593.85	-1755.60	  385.13
     69.9700	  579.00	  587.25	-1785.00	  385.25
     70.0700	  613.00	  582.74	-1746.49	  385.38
     70.1700	  573.00	  579.58	-1783.33	  385.50
     70.2700	  563.00	  577.88	-1791.63	  385.62
     70.3700	  606.00	  578.32	-1749.07	  385.74
     70.4700	  616.00	  578.96	-1739.71	  385.86
     70.5700	  583.00	  580.92	-1774.67	  385.97
     70.6700	  607.00	  584.54	-1754.29	  386.09
     70.7700	  575.00	  590.43	-1792.18	  386.21
     70.8700	  573.00	  599.58	-1803.33	  386.33
     70.9700	  623.00	  613.57	-1767.32	  386.44
     71.0700	  602.00	  634.64	-1809.39	  386.56
     71.1700	  665.00	  665.85	-1777.60	  386.68
     71.2700	  699.00	  710.90	-1788.65	  386.79
     71.3700	  755.00	  773.91	-1795.66	  386.91
     71.4700	  815.00	  858.69	-1820.44	  387.02
     71.5700	  910.00	  967.93	-1834.68	  387.14
     71.6700	 1101.00	 1102.02	-1777.77	  387.25
     71.7700	 1239.00	 1257.92	-1795.67	  387.36
     71.8700	 1442.00	 1428.21	-1762.96	  387.47
     71.9700	 1642.00	 1600.19	-1734.94	  387.59
     72.0700	 1729.00	 1755.52	-1803.27	  387.70
     72.1700	 1767.00	 1871.33	-1881.08	  387.81
     72.2700	 1810.00	 1925.30	-1892.05	  387.92
     72.3700	 1890.00	 1905.16	-1791.91	  388.02
     72.4700	 1793.00	 1815.65	-1799.40	  388.13
     72.5700	 1588.00	 1675.66	-1864.41	  388.24
     72.6700	 1564.00	 1508.73	-1721.48	  388.35
     72.7700	 1344.00	 1335.65	-1768.40	  388.45
     72.8700	 1202.00	 1171.65	-1746.40	  388.56
     72.9700	 1016.00	 1026.43	-1787.18	  388.66
     73.0700	  993.00	  904.82	-1688.57	  388.76
     73.1700	  839.00	  807.80	-1745.55	  388.87
     73.2700	  821.00	  733.65	-1689.40	  388.97
     73.3700	  739.00	  679.01	-1716.76	  389.07
     73.4700	  668.00	  639.90	-1748.65	  389.17
     73.5700	  610.00	  612.43	-1779.18	  389.27
     73.6700	  633.00	  593.29	-1737.04	  389.37
     73.7700	  612.00	  579.91	-1744.66	  389.47
     73.8700	  595.00	  570.47	-1752.22	  389.56
     73.9700	  558.00	  563.71	-1782.46	  389.66
     74.0700	  547.00	  558.32	-1788.07	  389.75
     74.1700	  584.00	  554.85	-1747.60	  389.85
     74.2700	  630.00	  552.46	-1699.21	  389.94
     74.3700	  581.00	  550.90	-1746.65	  390.03
     74.4700	  640.00	  549.98	-1686.73	  390.13
     74.5700	  574.00	  549.48	-1752.23	  390.22
     74.6700	  647.00	  549.17	-1678.92	  390.31
     74.7700	  606.00	  548.82	-1719.57	  390.39
     74.8700	  662.00	  548.17	-1662.92	  390.48
     74.9700	  649.00	  547.10	-1674.85	  390.57
     75.0700	  641.00	  545.62	-1681.37	  390.65
     75.1700	  692.00	  543.92	-1628.67	  390.74
     75.2700	  601.00	  542.27	-1718.02	  390.82
     75.3700	  611.00	  541.00	-1706.75	  390.90
     75.4700	  633.00	  540.45	-1684.20	  390.98
     75.5700	  560.00	  540.98	-1757.73	  391.06
     75.6700	  577.00	  542.97	-1742.72	  391.14
     75.7700	  582.00	  546.84	-1741.59	  391.22
     75.8700	  598.00	  553.00	-1731.75	  391.29
     75.9700	  619.00	  561.78	-1719.53	  391.37
     76.0700	  592.00	  573.36	-1758.11	  391.44
     76.1700	  633.00	  587.85	-1731.60	  391.52
     76.2700	  624.00	  604.88	-1757.63	  391.59
     76.3700	  615.00	  623.75	-1785.50	  391.66
     76.4700	  618.00	  643.31	-1802.06	  391.73
     76.5700	  673.00	  661.88	-1765.63	  391.80
     76.6700	  685.00	  677.24	-1768.99	  391.86
     76.7700	  666.00	  687.24	-1797.99	  391.93
     76.8700	  725.00	  689.90	-1741.65	  391.99
     76.9700	  683.00	  684.63	-1778.38	  392.06
     77.0700	  667.00	  672.43	-1782.18	  392.12
     77.1700	  648.00	  655.35	-1784.10	  392.18
     77.2700	  637.00	  635.73	-1775.48	  392.24
     77.3700	  599.00	  615.56	-1793.31	  392.30
     77.4700	  563.00	  596.37	-1810.12	  392.35
     77.5700	  587.00	  579.14	-1768.89	  392.41
     77.6700	  590.00	  564.44	-1751.19	  392.46
     77.7700	  525.00	  552.45	-1804.20	  392.51
     77.8700	  552.00	  542.99	-1767.74	  392.57
     77.9700	  562.00	  535.87	-1750.62	  392.62
     78.0700	  508.00	  530.66	-1799.41	  392.66
     78.1700	  487.00	  526.92	-1816.67	  392.71
     78.2700	  536.00	  524.07	-1764.82	  392.76
     78.3700	  523.00	  522.25	-1776.00	  392.80
     78.4700	  506.00	  520.98	-1791.73	  392.84
     78.5700	  551.00	  520.10	-1745.85	  392.88
     78.6700	  483.00	  519.49	-1813.24	  392.92
     78.7700	  548.00	  519.08	-1747.83	  392.96
     78.8700	  524.00	  518.83	-1771.58	  393.00
     78.9700	  508.00	  518.73	-1787.48	  393.04
     79.0700	  566.00	  518.76	-1729.51	  393.07
     79.1700	  514.00	  518.95	-1781.70	  393.10
     79.2700	  498.00	  519.30	-1798.05	  393.13
     79.3700	  506.00	  519.85	-1790.60	  393.16
     79.4700	  490.00	  520.63	-1807.38	  393.19
     79.5700	  506.00	  521.69	-1792.44	  393.22
     79.6700	  509.00	  523.08	-1790.83	  393.24
     79.7700	  512.00	  524.86	-1789.61	  393.26
     79.8700	  500.00	  527.12	-1803.87	  393.29
     79.9700	  544.00	  529.95	-1762.70	  393.31
     80.0700	  532.00	  533.47	-1778.22	  393.32
     80.1700	  477.00	  537.81	-1837.56	  393.34
     80.2700	  536.00	  543.12	-1783.87	  393.36
     80.3700	  542.00	  549.55	-1784.30	  393.37
     80.4700	  523.00	  557.27	-1811.02	  393.38
     80.5700	  587.00	  566.46	-1756.21	  393.39
     80.6700	  580.00	  577.25	-1774.00	  393.40
     80.7700	  605.00	  589.48	-1761.23	  393.41
     80.8700	  562.00	  603.40	-1818.15	  393.41
     80.9700	  622.00	  618.42	-1773.18	  393.42
     81.0700	  636.00	  633.90	-1774.65	  393.42
     81.1700	  703.00	  649.00	-1722.75	  393.42
     81.2700	  640.00	  662.83	-1799.58	  393.42
     81.3700	  762.00	  674.65	-1689.40	  393.42
     81.4700	  679.00	  683.89	-1781.64	  393.41
     81.5700	  695.00	  690.20	-1771.95	  393.41
     81.6700	  698.00	  693.40	-1772.15	  393.40
     81.7700	  707.00	  693.46	-1763.21	  393.39
     81.8700	  706.00	  690.42	-1761.17	  393.38
     81.9700	  725.00	  684.35	-1736.10	  393.36
     82.0700	  725.00	  675.42	-1727.17	  393.35
     82.1700	  715.00	  664.09	-1725.84	  393.33
     82.2700	  678.00	  651.09	-1749.84	  393.31
     82.3700	  629.00	  637.23	-1784.98	  393.29
     82.4700	  612.00	  623.19	-1787.94	  393.27
     82.5700	  641.00	  609.47	-1745.22	  393.25
     82.6700	  603.00	  596.42	-1770.17	  393.22
     82.7700	  620.00	  584.33	-1741.08	  393.19
     82.8700	  600.00	  573.48	-1750.23	  393.16
     82.9700	  600.00	  564.13	-1740.88	  393.13
     83.0700	  566.00	  556.45	-1767.20	  393.10
     83.1700	  585.00	  550.52	-1742.27	  393.06
     83.2700	  543.00	  546.36	-1780.11	  393.03
     83.3700	  537.00	  543.89	-1783.64	  392.99
     83.4700	  562.00	  543.01	-1757.76	  392.95
     83.5700	  533.00	  543.55	-1787.30	  392.91
     83.6700	  496.00	  545.28	-1826.03	  392.86
     83.7700	  503.00	  547.90	-1821.65	  392.82
     83.8700	  523.00	  551.07	-1804.82	  392.77
     83.9700	  514.00	  554.38	-1817.13	  392.72
     84.0700	  518.00	  557.35	-1816.10	  392.67
     84.1700	  544.00	  559.43	-1792.18	  392.62
     84.2700	  561.00	  560.29	-1776.04	  392.56
     84.3700	  559.00	  559.68	-1777.43	  392.51
     84.4700	  539.00	  557.57	-1795.32	  392.45
     84.5700	  518.00	  554.21	-1812.96	  392.39
     84.6700	  534.00	  549.99	-1792.74	  392.32
     84.7700	  500.00	  545.32	-1822.07	  392.26
     84.8700	  527.00	  540.56	-1790.31	  392.19
     84.9700	  543.00	  535.99	-1769.74	  392.12
     85.0700	  475.00	  531.82	-1833.57	  392.05
     85.1700	  538.00	  528.18	-1766.93	  391.98
     85.2700	  474.00	  525.13	-1827.88	  391.91
     85.3700	  561.00	  522.68	-1738.43	  391.83
     85.4700	  498.00	  520.81	-1799.56	  391.75
     85.5700	  507.00	  519.45	-1789.20	  391.67
     85.6700	  484.00	  518.56	-1811.31	  391.59
     85.7700	  491.00	  518.07	-1803.82	  391.51
     85.8700	  501.00	  517.96	-1793.71	  391.42
     85.9700	  482.00	  518.20	-1812.95	  391.34
     86.0700	  493.00	  518.81	-1802.56	  391.25
     86.1700	  527.00	  519.85	-1769.60	  391.15
     86.2700	  543.00	  521.39	-1755.14	  391.06
     86.3700	  499.00	  523.56	-1801.31	  390.97
     86.4700	  495.00	  526.48	-1808.23	  390.87
     86.5700	  540.00	  530.32	-1767.07	  390.77
     86.6700	  547.00	  535.24	-1764.99	  390.67
     86.7700	  512.00	  541.35	-1806.10	  390.57
     86.8700	  606.00	  548.74	-1719.49	  390.46
     86.9700	  554.00	  557.41	-1780.16	  390.35
     87.0700	  543.00	  567.26	-1801.01	  390.24
     87.1700	  569.00	  578.07	-1785.82	  390.13
     87.2700	  580.00	  589.44	-1786.19	  390.02
     87.3700	  632.00	  600.85	-1745.60	  389.91
     87.4700	  618.00	  611.58	-1770.33	  389.79
     87.5700	  614.00	  620.81	-1783.56	  389.67
     87.6700	  661.00	  627.64	-1743.39	  389.55
     87.7700	  666.00	  631.31	-1742.06	  389.43
     87.8700	  648.00	  631.40	-1760.15	  389.30
     87.9700	  609.00	  628.00	-1795.75	  389.18
     88.0700	  565.00	  621.68	-1833.43	  389.05
     88.1700	  600.00	  613.31	-1790.06	  388.92
     88.2700	  625.00	  603.84	-1755.59	  388.78
     88.3700	  572.00	  594.15	-1798.90	  388.65
     88.4700	  553.00	  585.00	-1808.75	  388.51
     88.5700	  549.00	  577.00	-1804.75	  388.38
     88.6700	  561.00	  570.58	-1786.33	  388.24
     88.7700	  538.00	  565.60	-1804.35	  388.09
     88.8700	  572.00	  562.99	-1767.74	  387.95
     88.9700	  562.00	  562.27	-1777.02	  387.80
     89.0700	  541.00	  563.25	-1799.00	  387.66
     89.1700	  603.00	  565.58	-1739.33	  387.51
     89.2700	  562.00	  568.85	-1783.60	  387.35
     89.3700	  577.00	  572.54	-1772.29	  387.20
     89.4700	  578.00	  576.06	-1774.81	  387.04
     89.5700	  574.00	  578.84	-1781.59	  386.89
     89.6700	  575.00	  580.33	-1782.08	  386.73
     89.7700	  588.00	  580.15	-1768.90	  386.56
     89.8700	  613.00	  578.20	-1741.95	  386.40
     89.9700	  596.00	  574.63	-1755.38	  386.24
     90.0700	  546.00	  569.79	-1800.54	  386.07
     90.1700	  520.00	  564.10	-1820.85	  385.90
     90.2700	  557.00	  558.01	-1777.76	  385.73
     90.3700	  567.00	  551.90	-1761.65	  385.55
     90.4700	  508.00	  546.05	-1814.80	  385.38
     90.5700	  521.00	  540.69	-1796.44	  385.20
     90.6700	  474.00	  535.97	-1838.72	  385.02
     90.7700	  560.00	  531.97	-1748.72	  384.84
     90.8700	  539.00	  528.72	-1766.47	  384.66
     90.9700	  506.00	  526.19	-1796.94	  384.48
     91.0700	  457.00	  524.34	-1844.09	  384.29
     91.1700	  465.00	  523.11	-1834.86	  384.10
     91.2700	  523.00	  522.44	-1776.19	  383.91
     91.3700	  504.00	  522.28	-1795.03	  383.72
     91.4700	  493.00	  522.62	-1806.37	  383.53
     91.5700	  534.00	  523.46	-1766.21	  383.33
     91.6700	  517.00	  524.83	-1784.58	  383.13
     91.7700	  515.00	  526.81	-1788.56	  382.93
     91.8700	  493.00	  529.51	-1813.26	  382.73
     91.9700	  496.00	  533.07	-1813.82	  382.53
     92.0700	  548.00	  537.63	-1766.38	  382.33
     92.1700	  544.00	  543.37	-1776.12	  382.12
     92.2700	  523.00	  550.45	-1804.20	  381.91
     92.3700	  563.00	  559.00	-1772.75	  381.70
     92.4700	  610.00	  569.12	-1735.87	  381.49
     92.5700	  520.00	  580.86	-1837.61	  381.28
     92.6700	  556.00	  594.17	-1814.92	  381.06
     92.7700	  618.00	  608.94	-1767.69	  380.84
     92.8700	  629.00	  624.92	-1772.67	  380.62
     92.9700	  614.00	  641.79	-1804.54	  380.40
     93.0700	  635.00	  659.07	-1800.82	  380.18
     93.1700	  666.00	  676.22	-1786.97	  379.96
     93.2700	  676.00	  692.62	-1793.37	  379.73
     93.3700	  661.00	  707.75	-1823.50	  379.50
     93.4700	  708.00	  721.28	-1790.03	  379.27
     93.5700	  734.00	  733.23	-1775.98	  379.04
     93.6700	  764.00	  743.93	-1756.68	  378.81
     93.7700	  761.00	  753.93	-1769.68	  378.58
     93.8700	  752.00	  763.79	-1788.54	  378.34
     93.9700	  814.00	  773.94	-1736.69	  378.10
     94.0700	  808.00	  784.30	-1753.05	  377.86
     94.1700	  858.00	  795.58	-1714.33	  377.62
     94.2700	  853.00	  807.46	-1731.21	  377.38
     94.3700	  827.00	  819.92	-1769.67	  377.13
     94.4700	  882.00	  832.94	-1727.69	  376.89
     94.5700	  854.00	  846.40	-1769.15	  376.64
     94.6700	  922.00	  859.98	-1714.73	  376.39
     94.7700	  886.00	  873.02	-1763.77	  376.14
     94.8700	  865.00	  884.53	-1796.28	  375.89
     94.9700	  921.00	  893.24	-1748.99	  375.64
     95.0700	  868.00	  897.73	-1806.48	  375.38
     95.1700	  874.00	  896.78	-1799.53	  375.12
     95.2700	  941.00	  889.66	-1725.41	  374.87
     95.3700	  820.00	  876.42	-1833.17	  374.61
     95.4700	  894.00	  857.89	-1740.64	  374.34
     95.5700	  833.00	  835.49	-1779.24	  374.08
     95.6700	  830.00	  810.93	-1757.68	  373.82
     95.7700	  789.00	  786.00	-1773.75	  373.55
     95.8700	  756.00	  762.36	-1783.11	  373.29
     95.9700	  764.00	  741.56	-1754.31	  373.02
     96.0700	  722.00	  725.00	-1779.75	  372.75
     96.1700	  699.00	  713.91	-1791.66	  372.48
     96.2700	  735.00	  709.38	-1751.13	  372.20
     96.3700	  704.00	  712.33	-1785.08	  371.93
     96.4700	  717.00	  723.53	-1783.28	  371.65
     96.5700	  764.00	  743.56	-1756.31	  371.38
     96.6700	  772.00	  772.77	-1777.52	  371.10
     96.7700	  855.00	  811.25	-1733.00	  370.82
     96.8700	  859.00	  858.77	-1776.52	  370.54
     96.9700	  928.00	  914.70	-1763.45	  370.26
     97.0700	  968.00	  977.98	-1786.73	  369.98
     97.1700	  992.00	 1047.02	-1831.77	  369.69
     97.2700	 1075.00	 1119.69	-1821.44	  369.41
     97.3700	 1212.00	 1193.30	-1758.05	  369.12
     97.4700	 1207.00	 1264.54	-1834.29	  368.83
     97.5700	 1320.00	 1329.67	-1786.42	  368.54
     97.6700	 1380.00	 1384.59	-1781.34	  368.25
     97.7700	 1427.00	 1425.33	-1775.08	  367.96
     97.8700	 1426.00	 1448.72	-1799.47	  367.67
     97.9700	 1385.00	 1452.97	-1844.72	  367.38
     98.0700	 1458.00	 1438.17	-1756.92	  367.08
     98.1700	 1375.00	 1406.20	-1807.95	  366.79
     98.2700	 1270.00	 1360.23	-1866.98	  366.49
     98.3700	 1231.00	 1304.10	-1849.85	  366.19
     98.4700	 1178.00	 1241.80	-1840.55	  365.89
     98.5700	 1205.00	 1177.07	-1748.82	  365.59
     98.6700	 1073.00	 1113.30	-1817.05	  365.29
     98.7700	  993.00	 1053.41	-1837.16	  364.99
     98.8700	  944.00	  999.80	-1832.55	  364.69
     98.9700	  927.00	  954.48	-1804.23	  364.39
     99.0700	  948.00	  918.99	-1747.74	  364.08
     99.1700	  869.00	  894.55	-1802.30	  363.78
     99.2700	  879.00	  882.06	-1779.81	  363.47
     99.3700	  841.00	  882.09	-1817.84	  363.17
     99.4700	  870.00	  894.97	-1801.72	  362.86
     99.5700	  910.00	  920.75	-1787.50	  362.55
     99.6700	  928.00	  959.24	-1807.99	  362.24
     99.7700	  992.00	 1009.95	-1794.70	  361.93
     99.8700	 1040.00	 1072.13	-1808.88	  361.62
     99.9700	 1166.00	 1144.63	-1755.38	  361.31
    100.0700	 1285.00	 1225.94	-1717.69	  361.00
    100.1700	 1374.00	 1314.08	-1716.83	  360.69
    100.2700	 1366.00	 1406.54	-1817.29	  360.37
    100.3700	 1519.00	 1500.32	-1758.07	  360.06
    100.4700	 1646.00	 1592.09	-1722.84	  359.74
    100.5700	 1684.00	 1678.31	-1771.06	  359.43
    100.6700	 1742.00	 1755.71	-1790.46	  359.11
    100.7700	 1844.00	 1821.65	-1754.40	  358.80
    100.8700	 1874.00	 1874.28	-1777.03	  358.48
    100.9700	 2018.00	 1912.47	-1671.22	  358.17
    101.0700	 1826.00	 1935.52	-1886.27	  357.85
    101.1700	 1992.00	 1942.92	-1727.67	  357.53
    101.2700	 1980.00	 1934.28	-1731.03	  357.21
    101.3700	 1858.00	 1909.54	-1828.29	  356.90
    101.4700	 1913.00	 1869.45	-1733.20	  356.58
    101.5700	 1756.00	 1815.85	-1836.60	  356.26
    101.6700	 1743.00	 1751.66	-1785.41	  355.94
    101.7700	 1705.00	 1680.58	-1752.33	  355.62
    101.8700	 1580.00	 1606.50	-1803.25	  355.30
    101.9700	 1520.00	 1533.08	-1789.83	  354.98
    102.0700	 1501.00	 1463.33	-1739.08	  354.66
    102.1700	 1425.00	 1399.50	-1751.25	  354.34
    102.2700	 1353.00	 1342.99	-1766.74	  354.02
    102.3700	 1364.00	 1294.41	-1707.16	  353.70
    102.4700	 1253.00	 1253.62	-1777.37	  353.38
    102.5700	 1184.00	 1219.80	-1812.55	  353.06
    102.6700	 1180.00	 1191.57	-1788.32	  352.74
    102.7700	 1190.00	 1167.04	-1753.79	  352.42
    102.8700	 1116.00	 1144.15	-1804.90	  352.10
    102.9700	 1091.00	 1120.83	-1806.58	  351.78
    103.0700	 1100.00	 1095.36	-1772.11	  351.46
    103.1700	 1055.00	 1066.60	-1788.35	  351.14
    103.2700	 1033.00	 1034.12	-1777.87	  350.82
    103.3700	  993.00	  998.17	-1781.92	  350.50
    103.4700	  945.00	  959.47	-1791.22	  350.18
    103.5700	  917.00	  919.00	-1778.75	  349.87
    103.6700	  881.00	  877.81	-1773.56	  349.55
    103.7700	  827.00	  836.91	-1786.66	  349.23
    103.8700	  855.00	  797.21	-1718.96	  348.91
    103.9700	  697.00	  759.48	-1839.23	  348.59
    104.0700	  817.00	  724.33	-1684.08	  348.28
    104.1700	  685.00	  692.20	-1783.95	  347.96
    104.2700	  679.00	  663.38	-1761.13	  347.65
    104.3700	  631.00	  637.99	-1783.74	  347.33
    104.4700	  602.00	  616.04	-1790.79	  347.02
    104.5700	  646.00	  597.39	-1728.14	  346.70
    104.6700	  598.00	  581.83	-1760.58	  346.39
    104.7700	  575.00	  569.10	-1770.85	  346.08
    104.8700	  582.00	  558.89	-1753.64	  345.76
    104.9700	  541.00	  550.89	-1786.64	  345.45
    105.0700	  620.00	  544.79	-1701.54	  345.14
    105.1700	  566.00	  540.31	-1751.06	  344.83
    105.2700	  531.00	  537.21	-1782.96	  344.52
    105.3700	  514.00	  535.29	-1798.04	  344.21
    105.4700	  533.00	  534.38	-1778.13	  343.91
    105.5700	  526.00	  534.34	-1785.09	  343.60
    105.6700	  568.00	  535.10	-1743.85	  343.30
    105.7700	  558.00	  536.59	-1755.34	  342.99
    105.8700	  543.00	  538.77	-1772.52	  342.69
    105.9700	  553.00	  541.63	-1765.38	  342.39
    106.0700	  530.00	  545.20	-1791.95	  342.09
    106.1700	  570.00	  549.50	-1756.25	  341.79
    106.2700	  547.00	  554.56	-1784.31	  341.49
    106.3700	  588.00	  560.43	-1749.18	  341.19
    106.4700	  572.00	  567.12	-1771.87	  340.90
    106.5700	  595.00	  574.63	-1756.38	  340.60
    106.6700	  538.00	  582.90	-1821.65	  340.31
    106.7700	  557.00	  591.86	-1811.61	  340.02
    106.8700	  625.00	  601.37	-1753.12	  339.73
    106.9700	  634.00	  611.23	-1753.98	  339.44
    107.0700	  628.00	  621.20	-1769.95	  339.15
    107.1700	  608.00	  630.99	-1799.74	  338.86
    107.2700	  627.00	  640.28	-1790.03	  338.58
    107.3700	  681.00	  648.73	-1744.48	  338.30
    107.4700	  686.00	  655.99	-1746.74	  338.02
    107.5700	  704.00	  661.78	-1734.53	  337.74
    107.6700	  678.00	  665.94	-1764.69	  337.46
    107.7700	  655.00	  668.43	-1790.18	  337.19
    107.8700	  682.00	  669.37	-1764.12	  336.91
    107.9700	  670.00	  669.02	-1775.77	  336.64
    108.0700	  668.00	  667.75	-1776.50	  336.37
    108.1700	  632.00	  665.97	-1810.72	  336.10
    108.2700	  612.00	  664.07	-1828.82	  335.84
    108.3700	  647.00	  662.39	-1792.14	  335.57
    108.4700	  664.00	  661.20	-1773.95	  335.31
    108.5700	  633.00	  660.66	-1804.41	  335.05
    108.6700	  703.00	  660.87	-1734.62	  334.80
    108.7700	  687.00	  661.81	-1751.56	  334.54
    108.8700	  662.00	  663.35	-1778.10	  334.29
    108.9700	  637.00	  665.29	-1805.04	  334.04
    109.0700	  664.00	  667.33	-1780.08	  333.79
    109.1700	  652.00	  669.12	-1793.87	  333.55
    109.2700	  668.00	  670.27	-1779.02	  333.30
    109.3700	  732.00	  670.39	-1715.14	  333.06
    109.4700	  651.00	  669.16	-1794.91	  332.83
    109.5700	  657.00	  666.34	-1786.09	  332.59
    109.6700	  694.00	  661.86	-1744.61	  332.36
    109.7700	  654.00	  655.78	-1778.53	  332.13
    109.8700	  683.00	  648.29	-1742.04	  331.90
    109.9700	  657.00	  639.65	-1759.40	  331.68
    110.0700	  665.00	  630.18	-1741.93	  331.46
    110.1700	  622.00	  620.21	-1774.96	  331.24
    110.2700	  600.00	  610.05	-1786.80	  331.02
    110.3700	  615.00	  599.99	-1761.74	  330.81
    110.4700	  646.00	  590.25	-1721.00	  330.60
    110.5700	  624.00	  581.08	-1733.83	  330.40
    110.6700	  590.00	  572.61	-1759.36	  330.19
    110.7700	  616.00	  564.99	-1725.74	  329.99
    110.8700	  553.00	  558.28	-1782.03	  329.80
    110.9700	  577.00	  552.56	-1752.31	  329.61
    111.0700	  596.00	  547.81	-1728.56	  329.42
    111.1700	  522.00	  544.04	-1798.79	  329.23
    111.2700	  520.00	  541.20	-1797.95	  329.05
    111.3700	  594.00	  539.23	-1721.98	  328.87
    111.4700	  531.00	  538.06	-1783.81	  328.69
    111.5700	  537.00	  537.61	-1777.36	  328.52
    111.6700	  519.00	  537.81	-1795.56	  328.35
    111.7700	  534.00	  538.56	-1781.31	  328.19
    111.8700	  562.00	  539.79	-1754.54	  328.03
    111.9700	  562.00	  541.42	-1756.17	  327.87
    112.0700	  569.00	  543.40	-1751.15	  327.72
    112.1700	  576.00	  545.67	-1746.42	  327.57
    112.2700	  552.00	  548.19	-1772.94	  327.42
    112.3700	  499.00	  550.93	-1828.68	  327.28
    112.4700	  512.00	  553.87	-1818.62	  327.15
    112.5700	  601.00	  557.04	-1732.79	  327.01
    112.6700	  583.00	  560.43	-1754.18	  326.89
    112.7700	  569.00	  564.10	-1771.85	  326.76
    112.8700	  524.00	  568.10	-1820.85	  326.64
    112.9700	  548.00	  572.49	-1801.24	  326.53
    113.0700	  571.00	  577.35	-1783.10	  326.42
    113.1700	  556.00	  582.79	-1803.54	  326.31
    113.2700	  634.00	  588.95	-1731.70	  326.21
    113.3700	  562.00	  595.97	-1810.72	  326.11
    113.4700	  572.00	  604.07	-1808.82	  326.02
    113.5700	  601.00	  613.51	-1789.26	  325.93
    113.6700	  618.00	  624.60	-1783.35	  325.85
    113.7700	  648.00	  637.75	-1766.50	  325.77
    113.8700	  613.00	  653.47	-1817.22	  325.70
    113.9700	  680.00	  672.37	-1769.12	  325.63
    114.0700	  738.00	  695.21	-1733.96	  325.57
    114.1700	  768.00	  722.90	-1731.65	  325.51
    114.2700	  769.00	  756.51	-1764.26	  325.46
    114.3700	  830.00	  797.30	-1744.05	  325.41
    114.4700	  848.00	  846.73	-1775.48	  325.37
    114.5700	  895.00	  906.43	-1788.18	  325.33
    114.6700	 1005.00	  978.20	-1749.95	  325.30
    114.7700	 1048.00	 1063.98	-1792.73	  325.28
    114.8700	 1200.00	 1165.87	-1742.62	  325.26
    114.9700	 1341.00	 1285.93	-1721.68	  325.24
    115.0700	 1447.00	 1426.23	-1755.98	  325.24
    115.1700	 1612.00	 1588.69	-1753.44	  325.23
    115.2700	 1845.00	 1775.02	-1706.77	  325.24
    115.3700	 2061.00	 1986.59	-1702.34	  325.25
    115.4700	 2390.00	 2224.20	-1610.95	  325.26
    115.5700	 2575.00	 2488.09	-1689.84	  325.28
    115.6700	 2915.00	 2777.67	-1639.42	  325.31
    115.7700	 3141.00	 3091.60	-1727.35	  325.34
    115.8700	 3604.00	 3427.59	-1600.34	  325.38
    115.9700	 3812.00	 3782.21	-1746.96	  325.43
    116.0700	 4163.00	 4151.04	-1764.79	  325.48
    116.1700	 4479.00	 4528.47	-1826.22	  325.54
    116.2700	 4839.00	 4907.92	-1845.67	  325.60
    116.3700	 5107.00	 5281.77	-1951.52	  325.68
    116.4700	 5598.00	 5641.31	-1820.06	  325.75
    116.5700	 5671.00	 5977.05	-2082.80	  325.84
    116.6700	 6227.00	 6278.95	-1828.70	  325.93
    116.7700	 6477.00	 6536.92	-1836.67	  326.03
    116.8700	 6776.00	 6741.40	-1742.15	  326.14
    116.9700	 6734.00	 6884.03	-1926.78	  326.25
    117.0700	 6839.00	 6958.69	-1896.44	  326.37
    117.1700	 7107.00	 6962.15	-1631.90	  326.50
    117.2700	 6840.00	 6894.57	-1831.32	  326.63
    117.3700	 6798.00	 6759.37	-1738.12	  326.77
    117.4700	 6595.00	 6562.85	-1744.60	  326.92
    117.5700	 6265.00	 6313.44	-1825.19	  327.08
    117.6700	 6049.00	 6020.79	-1748.54	  327.24
    117.7700	 5575.00	 5694.93	-1896.68	  327.41
    117.8700	 5181.00	 5345.69	-1941.44	  327.59
    117.9700	 4741.00	 4982.44	-2018.19	  327.78
    118.0700	 4545.00	 4613.62	-1845.37	  327.97
    118.1700	 4241.00	 4246.73	-1782.48	  328.17
    118.2700	 4009.00	 3888.09	-1655.84	  328.38
    118.3700	 3739.00	 3542.91	-1580.66	  328.60
    118.4700	 3451.00	 3215.41	-1541.16	  328.83
    118.5700	 3078.00	 2908.70	-1607.45	  329.06
    118.6700	 2662.00	 2624.95	-1739.70	  329.31
    118.7700	 2391.00	 2365.32	-1751.07	  329.56
    118.8700	 2129.00	 2130.21	-1777.96	  329.82
    118.9700	 1937.00	 1919.41	-1759.16	  330.09
    119.0700	 1808.00	 1732.13	-1700.88	  330.36
    119.1700	 1498.00	 1567.20	-1845.95	  330.65
    119.2700	 1368.00	 1423.07	-1831.82	  330.94
    119.3700	 1328.00	 1297.98	-1746.73	  331.25
    119.4700	 1170.00	 1190.13	-1796.88	  331.56
    119.5700	 1083.00	 1097.63	-1791.38	  331.88
    119.6700	 1087.00	 1018.67	-1708.42	  332.21
    119.7700	 1008.00	  951.48	-1720.23	  332.55
    119.8700	  913.00	  894.44	-1758.19	  332.89
    119.9700	  836.00	  846.08	-1786.83	  333.25
    120.0700	  781.00	  805.11	-1800.86	  333.62
    120.1700	  785.00	  770.39	-1762.14	  333.99
    120.2700	  712.00	  740.94	-1805.69	  334.38
    120.3700	  730.00	  715.92	-1762.67	  334.78
    120.4700	  703.00	  694.65	-1768.40	  335.18
    120.5700	  648.00	  676.55	-1805.30	  335.60
    120.6700	  659.00	  661.14	-1778.89	  336.02
    120.7700	  620.00	  648.05	-1804.80	  336.46
    120.8700	  631.00	  636.94	-1782.69	  336.90
    120.9700	  556.00	  627.57	-1848.32	  337.35
    121.0700	  600.00	  619.73	-1796.48	  337.82
    121.1700	  560.00	  613.23	-1829.98	  338.30
    121.2700	  577.00	  607.96	-1807.71	  338.78
    121.3700	  554.00	  603.77	-1826.52	  339.28
    121.4700	  579.00	  600.58	-1798.33	  339.78
    121.5700	  553.00	  598.30	-1822.05	  340.30
    121.6700	  630.00	  596.85	-1743.60	  340.83
    121.7700	  585.00	  596.17	-1787.92	  341.37
    121.8700	  589.00	  596.19	-1783.94	  341.92
    121.9700	  573.00	  596.84	-1800.59	  342.48
    122.0700	  601.00	  598.07	-1773.82	  343.05
    122.1700	  622.00	  599.80	-1754.55	  343.63
    122.2700	  572.00	  601.96	-1806.71	  344.23
    122.3700	  608.00	  604.48	-1773.23	  344.83
    122.4700	  592.00	  607.28	-1792.03	  345.45
    122.5700	  618.00	  610.27	-1769.02	  346.08
    122.6700	  649.00	  613.37	-1741.12	  346.72
    122.7700	  624.00	  616.47	-1769.22	  347.37
    122.8700	  620.00	  619.48	-1776.23	  348.04
    122.9700	  637.00	  622.30	-1762.05	  348.71
    123.0700	  617.00	  624.82	-1784.57	  349.40
    123.1700	  623.00	  626.97	-1780.72	  350.10
    123.2700	  621.00	  628.65	-1784.40	  350.81
    123.3700	  613.00	  629.82	-1793.57	  351.54
    123.4700	  633.00	  630.44	-1774.19	  352.27
    123.5700	  680.00	  630.49	-1727.24	  353.02
    123.6700	  657.00	  629.98	-1749.73	  353.78
    123.7700	  626.00	  628.96	-1779.71	  354.56
    123.8700	  625.00	  627.46	-1779.21	  355.35
    123.9700	  651.00	  625.55	-1751.30	  356.15
    124.0700	  615.00	  623.30	-1785.05	  356.96
    124.1700	  650.00	  620.74	-1747.49	  357.78
    124.2700	  625.00	  617.99	-1769.74	  358.62
    124.3700	  620.00	  615.10	-1771.85	  359.48
    124.4700	  569.00	  612.12	-1819.87	  360.34
    124.5700	  609.00	  609.12	-1776.87	  361.22
    124.6700	  618.00	  606.13	-1764.88	  362.11
    124.7700	  614.00	  603.21	-1765.96	  363.02
    124.8700	  578.00	  600.41	-1799.16	  363.94
    124.9700	  565.00	  470.47	-1682.22	  364.87
    125.0700	  623.00	  471.41	-1776.75	  365.82
    125.1700	  587.00	  472.38	-1776.75	  366.78
    125.2700	  607.00	  473.35	-1776.75	  367.76
    125.3700	  571.00	  474.34	-1776.75	  368.75
    125.4700	  537.00	  475.35	-1776.75	  369.75
    125.5700	  530.00	  476.37	-1776.75	  370.77
    125.6700	  573.00	  477.40	-1776.75	  371.81
    125.7700	  573.00	  478.45	-1776.75	  372.86
    125.8700	  572.00	  479.51	-1776.75	  373.92
    125.9700	  562.00	  480.59	-1776.75	  375.00
    126.0700	  559.00	  481.68	-1776.75	  376.09
    126.1700	  527.00	  482.79	-1776.75	  377.20
    126.2700	  543.00	  483.91	-1776.75	  378.32
    126.3700	  538.00	  485.05	-1776.75	  379.46
    126.4700	  590.00	  486.21	-1776.75	  380.61
    126.5700	  562.00	  487.38	-1776.75	  381.78
    126.6700	  566.00	  488.56	-1776.75	  382.97
    126.7700	  574.00	  489.76	-1776.75	  384.17
    126.8700	  566.00	  490.98	-1776.75	  385.39
    126.9700	  534.00	  492.21	-1776.75	  386.62
    127.0700	  560.00	  493.46	-1776.75	  387.87
    127.1700	  553.00	  494.72	-1776.75	  389.13
    127.2700	  557.00	  496.01	-1776.75	  390.41
    127.3700	  588.00	  497.30	-1776.75	  391.71
    127.4700	  573.00	  498.62	-1776.75	  393.02
    127.5700	  571.00	  499.95	-1776.75	  394.35
    127.6700	  561.00	  501.29	-1776.75	  395.70
    127.7700	  626.00	  502.66	-1776.75	  397.07
    127.8700	  593.00	  504.04	-1776.75	  398.45
    127.9700	  608.00	  505.44	-1776.75	  399.84
    128.0700	  604.00	  506.85	-1776.75	  401.26
    128.1700	  633.00	  508.29	-1776.75	  402.69
    128.2700	  610.00	  509.74	-1776.75	  404.14
    128.3700	  702.00	  511.20	-1776.75	  405.61
    128.4700	  677.00	  512.69	-1776.75	  407.09
    128.5700	    0.00	  514.19	-1776.75	  408.60
    128.6700	    0.00	  515.71	-1776.75	  410.12
     12.3509	        	        	        	        	       0	(  0  0  2)	  0  1
     24.9784	        	        	        	        	       0	(  0  0  4)	  0  1
     28.4050	        	        	        	        	       0	(  1  0  0)	  0  1
     29.1054	        	        	        	        	       0	(  1  0  1)	  0  1
     31.1206	        	        	        	        	       0	(  1  0  2)	  0  1
     34.2425	        	        	        	        	       0	(  1  0  3)	  0  1
     37.9253	        	        	        	        	       0	(  0  0  6)	  0  1
     38.2368	        	        	        	        	       0	(  1  0  4)	  0  1
     42.9069	        	        	        	        	       0	(  1  0  5)	  0  1
     48.1134	        	        	        	        	       0	(  1  0  6)	  0  1
     50.4036	        	        	        	        	       0	(  1  1  0)	  0  1
     51.4006	        	        	        	        	       0	(  0  0  8)	  0  1
     52.1351	        	        	        	        	       0	(  1  1  2)	  0  1
     53.7688	        	        	        	        	       0	(  1  0  7)	  0  1
     57.1073	        	        	        	        	       0	(  1  1  4)	  0  1
     58.9272	        	        	        	        	       0	(  2  0  0)	  0  1
     59.3209	        	        	        	        	       0	(  2  0  1)	  0  1
     59.8268	        	        	        	        	       0	(  1  0  8)	  0  1
     60.4923	        	        	        	        	       0	(  2  0  2)	  0  1
     62.4154	        	        	        	        	       0	(  2  0  3)	  0  1
     64.8408	        	        	        	        	       0	(  1  1  6)	  0  1
     65.0533	        	        	        	        	       0	(  2  0  4)	  0  1
     65.6934	        	        	        	        	       0	(  0  0 10)	  0  1
     66.2740	        	        	        	        	       0	(  1  0  9)	  0  1
     68.3651	        	        	        	        	       0	(  2  0  5)	  0  1
     72.3140	        	        	        	        	       0	(  2  0  6)	  0  1
     73.1252	        	        	        	        	       0	(  1  0 10)	  0  1
     74.9323	        	        	        	        	       0	(  1  1  8)	  0  1
     76.8738	        	        	        	        	       0	(  2  0  7)	  0  1
     80.4235	        	        	        	        	       0	(  1  0 11)	  0  1
     81.2514	        	        	        	        	       0	(  2  1  0)	  0  1
     81.2559	        	        	        	        	       0	(  0  0 12)	  0  1
     81.5933	        	        	        	        	       0	(  2  1  1)	  0  1
     82.0345	        	        	        	        	       0	(  2  0  8)	  0  1
     82.6176	        	        	        	        	       0	(  2  1  2)	  0  1
     84.3195	        	        	        	        	       0	(  2  1  3)	  0  1
     86.6945	        	        	        	        	       0	(  2  1  4)	  0  1
     87.2776	        	        	        	        	       0	(  1  1 10)	  0  1
     87.8090	        	        	        	        	       0	(  2  0  9)	  0  1
     88.2461	        	        	        	        	       0	(  1  0 12)	  0  1
     89.7404	        	        	        	        	       0	(  2  1  5)	  0  1
     93.4637	        	        	        	        	       0	(  2  1  6)	  0  1
     94.2407	        	        	        	        	       0	(  2  0 10)	  0  1
     95.2074	        	        	        	        	       0	(  3  0  0)	  0  1
     95.5472	        	        	        	        	       0	(  3  0  1)	  0  1
     96.5679	        	        	        	        	       0	(  3  0  2)	  0  1
     96.7191	        	        	        	        	       0	(  1  0 13)	  0  1
     97.8848	        	        	        	        	       0	(  2  1  7)	  0  1
     98.2741	        	        	        	        	       0	(  3  0  3)	  0  1
     98.9155	        	        	        	        	       0	(  0  0 14)	  0  1
    100.6757	        	        	        	        	       0	(  3  0  4)	  0  1
    101.4179	        	        	        	        	       0	(  2  0 11)	  0  1
    102.2583	        	        	        	        	       0	(  1  1 12)	  0  1
    103.0484	        	        	        	        	       0	(  2  1  8)	  0  1
    103.7927	        	        	        	        	       0	(  3  0  5)	  0  1
    106.0499	        	        	        	        	       0	(  1  0 14)	  0  1
    107.6614	        	        	        	        	       0	(  3  0  6)	  0  1
    109.0385	        	        	        	        	       0	(  2  1  9)	  0  1
    109.5016	        	        	        	        	       0	(  2  0 12)	  0  1
    112.3462	        	        	        	        	       0	(  3  0  7)	  0  1
    116.0068	        	        	        	        	       0	(  2  1 10)	  0  1
    116.6047	        	        	        	        	       0	(  1  0 15)	  0  1
    117.0847	        	        	        	        	       0	(  2  2  0)	  0  1
    117.9597	        	        	        	        	       0	(  3  0  8)	  0  1
    118.6169	        	        	        	        	       0	(  2  2  2)	  0  1
    118.7882	        	        	        	        	       0	(  2  0 13)	  0  1
    120.6296	        	        	        	        	       0	(  0  0 16)	  0  1
    121.3045	        	        	        	        	       0	(  1  1 14)	  0  1
    123.3594	        	        	        	        	       0	(  2  2  4)	  0  1
    124.2368	        	        	        	        	       0	(  2  1 11)	  0  1
    124.7049	        	        	        	        	       0	(  3  0  9)	  0  1
    125.2333	        	        	        	        	       0	(  3  1  0)	  0  1
    125.6491	        	        	        	        	       0	(  3  1  1)	  0  1
    126.9100	        	        	        	        	       0	(  3  1  2)	  0  1
    129.0597	        	        	        	        	       0	(  3  1  3)	  0  1
    129.1320	        	        	        	        	       0	(  1  0 16)	  0  1
    129.8825	        	        	        	        	       0	(  2  0 14)	  0  1
    131.9256	        	        	        	        	       0	(  2  2  6)	  0  1
    132.1856	        	        	        	        	       0	(  3  1  4)	  0  1
    132.9782	        	        	        	        	       0	(  3  0 10)	  0  1
    134.3185	        	        	        	        	       0	(  2  1 12)	  0  1
    136.4507	        	        	        	        	       0	(  3  1  5)	  0  1
    142.1753	        	        	        	        	       0	(  3  1  6)	  0  1
    143.7076	        	        	        	        	       0	(  3  0 11)	  0  1
    144.3734	        	        	        	        	       0	(  2  0 15)	  0  1
    145.7309	        	        	        	        	       0	(  1  0 17)	  0  1
    146.5007	        	        	        	        	       0	(  2  2  8)	  0  1
    147.8484	        	        	        	        	       0	(  2  1 13)	  0  1
    150.0994	        	        	        	        	       0	(  3  1  7)	  0  1
    151.0005	        	        	        	        	       0	(  1  1 16)	  0  1
    155.7736	        	        	        	        	       0	(  0  0 18)	  0  1
    160.4379	        	        	        	        	       0	(  4  0  0)	  0  1
    160.4514	        	        	        	        	       0	(  3  0 12)	  0  1
    161.4814	        	        	        	        	       0	(  4  0  1)	  0  1
    162.9203	        	        	        	        	       0	(  3  1  8)	  0  1
    165.0302	        	        	        	        	       0	(  4  0  2)	  0  1
    174.8418	        	        	        	        	       0	(  4  0  3)	  0  1
    175.5274	        	        	        	        	       0	(  2  0 16)	  0  1
