MSG Master    CELL:    5.91792   5.91792  23.26033   90.0000   90.0000  120.0000   SPGR: P 63/m m c             TEMP:   1041.75
  1   1280     2.52000     0.00000    -0.12602     0.00000     0.00000    0
    99     0     2
       0.00000      10.00000
     125.00000     130.00000
 2Theta	Yobs	Ycal	Yobs-Ycal	Backg	Posr	(hkl)	K
      0.7700	    0.00	  522.30	-1813.50	  405.83
      0.8700	    0.00	  523.35	-1813.50	  406.87
      0.9700	   46.00	  524.38	-1813.50	  407.90
      1.0700	   54.00	  525.39	-1813.50	  408.92
      1.1700	   44.00	  526.39	-1813.50	  409.92
      1.2700	   50.00	  527.38	-1813.50	  410.91
      1.3700	   53.00	  528.36	-1813.50	  411.88
      1.4700	  102.00	  529.32	-1813.50	  412.85
      1.5700	  280.00	  530.27	-1813.50	  413.80
      1.6700	  434.00	  531.21	-1813.50	  414.73
      1.7700	  550.00	  532.13	-1813.50	  415.66
      1.8700	  643.00	  533.04	-1813.50	  416.57
      1.9700	  715.00	  533.94	-1813.50	  417.46
      2.0700	  771.00	  534.82	-1813.50	  418.35
      2.1700	  761.00	  535.69	-1813.50	  419.22
      2.2700	  741.00	  536.55	-1813.50	  420.08
      2.3700	  727.00	  537.40	-1813.50	  420.93
      2.4700	  721.00	  538.24	-1813.50	  421.76
      2.5700	  669.00	  539.06	-1813.50	  422.58
      2.6700	  679.00	  539.87	-1813.50	  423.39
      2.7700	  645.00	  540.67	-1813.50	  424.19
      2.8700	  680.00	  541.45	-1813.50	  424.98
      2.9700	  620.00	  542.23	-1813.50	  425.75
      3.0700	  584.00	  542.99	-1813.50	  426.51
      3.1700	  541.00	  543.74	-1813.50	  427.26
      3.2700	  633.00	  544.48	-1813.50	  428.00
      3.3700	  692.00	  545.20	-1813.50	  428.73
      3.4700	  763.00	  545.92	-1813.50	  429.44
      3.5700	  791.00	  546.62	-1813.50	  430.15
      3.6700	  854.00	  547.32	-1813.50	  430.84
      3.7700	  865.00	  548.00	-1813.50	  431.52
      3.8700	  956.00	  548.67	-1813.50	  432.19
      3.9700	 1031.00	  549.33	-1813.50	  432.85
      4.0700	 1039.00	  549.97	-1813.50	  433.50
      4.1700	 1113.00	  550.61	-1813.50	  434.14
      4.2700	 1123.00	  551.24	-1813.50	  434.76
      4.3700	 1091.00	  551.85	-1813.50	  435.38
      4.4700	 1058.00	  552.46	-1813.50	  435.98
      4.5700	 1058.00	  553.05	-1813.50	  436.57
      4.6700	 1022.00	  553.63	-1813.50	  437.16
      4.7700	  961.00	  554.20	-1813.50	  437.73
      4.8700	  927.00	  554.77	-1813.50	  438.29
      4.9700	  963.00	  555.32	-1813.50	  438.84
      5.0700	  943.00	  555.86	-1813.50	  439.38
      5.1700	  910.00	  556.39	-1813.50	  439.91
      5.2700	  867.00	  556.91	-1813.50	  440.44
      5.3700	  847.00	  557.42	-1813.50	  440.95
      5.4700	  867.00	  557.92	-1813.50	  441.45
      5.5700	  853.00	  558.41	-1813.50	  441.94
      5.6700	  866.00	  558.89	-1813.50	  442.42
      5.7700	  825.00	  559.37	-1813.50	  442.89
      5.8700	  792.00	  559.83	-1813.50	  443.35
      5.9700	  808.00	  560.28	-1813.50	  443.80
      6.0700	  786.00	  560.72	-1813.50	  444.25
      6.1700	  786.00	  561.15	-1813.50	  444.68
      6.2700	  782.00	  561.58	-1813.50	  445.10
      6.3700	  776.00	  561.99	-1813.50	  445.52
      6.4700	  748.00	  562.40	-1813.50	  445.92
      6.5700	  733.00	  562.79	-1813.50	  446.32
      6.6700	  735.00	  563.18	-1813.50	  446.70
      6.7700	  673.00	  563.56	-1813.50	  447.08
      6.8700	  704.00	  563.92	-1813.50	  447.45
      6.9700	  683.00	  564.28	-1813.50	  447.81
      7.0700	  723.00	  564.64	-1813.50	  448.16
      7.1700	  675.00	  564.98	-1813.50	  448.50
      7.2700	  680.00	  565.31	-1813.50	  448.84
      7.3700	  679.00	  565.64	-1813.50	  449.16
      7.4700	  701.00	  565.95	-1813.50	  449.48
      7.5700	  658.00	  566.26	-1813.50	  449.78
      7.6700	  710.00	  566.56	-1813.50	  450.08
      7.7700	  688.00	  566.85	-1813.50	  450.37
      7.8700	  618.00	  567.13	-1813.50	  450.66
      7.9700	  662.00	  567.41	-1813.50	  450.93
      8.0700	  652.00	  567.67	-1813.50	  451.20
      8.1700	  674.00	  567.93	-1813.50	  451.46
      8.2700	  615.00	  568.18	-1813.50	  451.71
      8.3700	  624.00	  568.42	-1813.50	  451.95
      8.4700	  619.00	  568.66	-1813.50	  452.18
      8.5700	  622.00	  568.89	-1813.50	  452.41
      8.6700	  621.00	  569.10	-1813.50	  452.63
      8.7700	  568.00	  569.32	-1813.50	  452.84
      8.8700	  593.00	  569.52	-1813.50	  453.04
      8.9700	  621.00	  569.72	-1813.50	  453.24
      9.0700	  592.00	  569.90	-1813.50	  453.43
      9.1700	  613.00	  570.09	-1813.50	  453.61
      9.2700	  607.00	  570.26	-1813.50	  453.78
      9.3700	  586.00	  570.43	-1813.50	  453.95
      9.4700	  590.00	  570.59	-1813.50	  454.11
      9.5700	  590.00	  570.74	-1813.50	  454.26
      9.6700	  605.00	  570.88	-1813.50	  454.41
      9.7700	  582.00	  571.02	-1813.50	  454.55
      9.8700	  570.00	  571.15	-1813.50	  454.68
      9.9700	  600.00	  571.28	-1813.50	  454.80
     10.0700	  615.00	  572.04	-1770.54	  454.92
     10.1700	  616.00	  572.22	-1769.72	  455.03
     10.2700	  563.00	  572.40	-1822.90	  455.13
     10.3700	  569.00	  572.60	-1817.10	  455.23
     10.4700	  543.00	  572.83	-1843.33	  455.32
     10.5700	  583.00	  573.15	-1803.65	  455.41
     10.6700	  634.00	  573.65	-1753.15	  455.48
     10.7700	  605.00	  574.44	-1782.94	  455.55
     10.8700	  591.00	  575.58	-1798.08	  455.62
     10.9700	  579.00	  577.08	-1811.58	  455.68
     11.0700	  553.00	  578.89	-1839.39	  455.73
     11.1700	  623.00	  581.01	-1771.51	  455.78
     11.2700	  610.00	  583.45	-1786.95	  455.82
     11.3700	  558.00	  586.30	-1841.80	  455.85
     11.4700	  633.00	  589.66	-1770.16	  455.88
     11.5700	  601.00	  593.71	-1806.21	  455.90
     11.6700	  597.00	  598.77	-1815.27	  455.92
     11.7700	  621.00	  605.38	-1797.88	  455.93
     11.8700	  638.00	  614.49	-1789.99	  455.93
     11.9700	  653.00	  627.07	-1787.57	  455.93
     12.0700	  673.00	  642.20	-1782.70	  455.93
     12.1700	  696.00	  654.05	-1771.55	  455.91
     12.2700	  698.00	  652.31	-1767.81	  455.90
     12.3700	  651.00	  632.77	-1795.27	  455.87
     12.4700	  611.00	  607.87	-1810.37	  455.84
     12.5700	  599.00	  589.93	-1804.43	  455.81
     12.6700	  613.00	  580.75	-1781.25	  455.77
     12.7700	  550.00	  576.96	-1840.46	  455.73
     12.8700	  554.00	  575.40	-1834.90	  455.68
     12.9700	  579.00	  574.59	-1809.09	  455.62
     13.0700	  533.00	  574.05	-1854.55	  455.56
     13.1700	  552.00	  573.65	-1835.15	  455.50
     13.2700	  597.00	  573.32	-1789.82	  455.43
     13.3700	  570.00	  573.05	-1816.55	  455.35
     13.4700	  566.00	  572.82	-1820.32	  455.27
     13.5700	  542.00	  572.61	-1844.11	  455.19
     13.6700	  537.00	  572.43	-1848.93	  455.10
     13.7700	  506.00	  572.25	-1879.75	  455.00
     13.8700	  534.00	  572.09	-1851.59	  454.90
     13.9700	  530.00	  571.93	-1855.43	  454.80
     14.0700	  588.00	  571.77	-1797.27	  454.69
     14.1700	  575.00	  571.62	-1810.12	  454.58
     14.2700	  519.00	  571.47	-1865.97	  454.46
     14.3700	  537.00	  571.31	-1847.81	  454.34
     14.4700	  533.00	  571.16	-1851.66	  454.22
     14.5700	  566.00	  571.01	-1818.51	  454.09
     14.6700	  593.00	  570.85	-1791.35	  453.95
     14.7700	  569.00	  570.70	-1815.20	  453.81
     14.8700	  536.00	  570.54	-1848.04	  453.67
     14.9700	  505.00	  570.37	-1878.87	  453.52
     15.0700	  566.00	  570.21	-1817.71	  453.37
     15.1700	  514.00	  570.04	-1869.54	  453.22
     15.2700	  568.00	  569.87	-1815.37	  453.06
     15.3700	  580.00	  569.70	-1803.20	  452.90
     15.4700	  568.00	  569.53	-1815.03	  452.73
     15.5700	  594.00	  569.35	-1788.85	  452.56
     15.6700	  626.00	  569.17	-1756.67	  452.39
     15.7700	  574.00	  568.98	-1808.48	  452.21
     15.8700	  582.00	  568.79	-1800.29	  452.03
     15.9700	  579.00	  568.60	-1803.10	  451.84
     16.0700	  542.00	  568.41	-1839.91	  451.65
     16.1700	  555.00	  568.21	-1826.71	  451.46
     16.2700	  555.00	  568.01	-1826.51	  451.27
     16.3700	  558.00	  567.81	-1823.31	  451.07
     16.4700	  574.00	  567.60	-1807.10	  450.86
     16.5700	  560.00	  567.42	-1820.92	  450.66
     16.6700	  600.00	  567.20	-1780.70	  450.45
     16.7700	  583.00	  566.99	-1797.49	  450.24
     16.8700	  540.00	  566.77	-1840.27	  450.02
     16.9700	  541.00	  566.55	-1839.05	  449.80
     17.0700	  548.00	  566.33	-1831.83	  449.58
     17.1700	  545.00	  566.10	-1834.60	  449.36
     17.2700	  544.00	  565.87	-1835.37	  449.13
     17.3700	  571.00	  565.64	-1808.14	  448.90
     17.4700	  553.00	  565.40	-1825.90	  448.66
     17.5700	  542.00	  565.17	-1836.67	  448.43
     17.6700	  568.00	  564.92	-1810.42	  448.19
     17.7700	  587.00	  564.79	-1791.29	  447.95
     17.8700	  537.00	  564.55	-1841.05	  447.70
     17.9700	  599.00	  564.30	-1778.80	  447.45
     18.0700	  518.00	  564.05	-1859.55	  447.20
     18.1700	  543.00	  563.80	-1834.30	  446.95
     18.2700	  580.00	  563.55	-1797.05	  446.69
     18.3700	  558.00	  563.29	-1818.79	  446.43
     18.4700	  547.00	  563.03	-1829.53	  446.17
     18.5700	  585.00	  562.77	-1791.27	  445.91
     18.6700	  480.00	  562.51	-1896.01	  445.65
     18.7700	  558.00	  562.24	-1817.74	  445.38
     18.8700	  569.00	  562.07	-1806.57	  445.11
     18.9700	  586.00	  561.80	-1789.30	  444.83
     19.0700	  507.00	  561.53	-1868.03	  444.56
     19.1700	  597.00	  561.26	-1777.76	  444.28
     19.2700	  583.00	  560.99	-1791.49	  444.00
     19.3700	  562.00	  560.72	-1812.22	  443.72
     19.4700	  556.00	  560.44	-1817.94	  443.44
     19.5700	  547.00	  560.16	-1826.66	  443.15
     19.6700	  582.00	  559.88	-1791.38	  442.86
     19.7700	  535.00	  559.60	-1838.10	  442.57
     19.8700	  511.00	  559.32	-1861.82	  442.28
     19.9700	  564.00	  559.03	-1808.53	  441.99
     20.0700	  562.00	  558.74	-1810.24	  441.69
     20.1700	  587.00	  558.46	-1784.96	  441.40
     20.2700	  551.00	  558.14	-1820.64	  441.10
     20.3700	  558.00	  557.85	-1813.35	  440.80
     20.4700	  548.00	  557.56	-1823.06	  440.49
     20.5700	  541.00	  557.27	-1829.77	  440.19
     20.6700	  548.00	  556.98	-1822.48	  439.88
     20.7700	  586.00	  556.68	-1784.18	  439.58
     20.8700	  579.00	  556.39	-1790.89	  439.27
     20.9700	  526.00	  556.13	-1843.63	  438.96
     21.0700	  549.00	  555.83	-1820.33	  438.64
     21.1700	  564.00	  555.54	-1805.04	  438.33
     21.2700	  616.00	  555.24	-1752.74	  438.01
     21.3700	  551.00	  554.95	-1817.45	  437.70
     21.4700	  568.00	  554.65	-1800.15	  437.38
     21.5700	  569.00	  554.35	-1798.85	  437.06
     21.6700	  591.00	  554.05	-1776.55	  436.74
     21.7700	  578.00	  553.76	-1789.26	  436.42
     21.8700	  563.00	  553.46	-1803.96	  436.09
     21.9700	  560.00	  553.17	-1806.67	  435.77
     22.0700	  548.00	  552.87	-1818.37	  435.44
     22.1700	  543.00	  552.58	-1823.08	  435.12
     22.2700	  528.00	  552.29	-1837.79	  434.79
     22.3700	  553.00	  552.00	-1812.50	  434.46
     22.4700	  550.00	  551.71	-1815.21	  434.13
     22.5700	  528.00	  551.43	-1836.93	  433.80
     22.6700	  581.00	  551.15	-1783.65	  433.47
     22.7700	  538.00	  550.87	-1826.37	  433.14
     22.8700	  538.00	  550.60	-1826.10	  432.80
     22.9700	  573.00	  550.34	-1790.84	  432.47
     23.0700	  569.00	  550.09	-1794.59	  432.13
     23.1700	  554.00	  549.85	-1809.35	  431.80
     23.2700	  574.00	  549.62	-1789.12	  431.46
     23.3700	  550.00	  549.42	-1812.92	  431.12
     23.4700	  538.00	  549.24	-1824.74	  430.78
     23.5700	  553.00	  549.09	-1809.59	  430.44
     23.6700	  542.00	  548.99	-1820.49	  430.11
     23.7700	  513.00	  548.97	-1849.47	  429.76
     23.8700	  546.00	  549.23	-1816.73	  429.42
     23.9700	  562.00	  549.70	-1801.20	  429.08
     24.0700	  539.00	  550.87	-1825.37	  428.74
     24.1700	  566.00	  553.34	-1800.84	  428.40
     24.2700	  550.00	  557.93	-1821.43	  428.05
     24.3700	  557.00	  565.52	-1822.02	  427.71
     24.4700	  588.00	  577.23	-1802.73	  427.37
     24.5700	  590.00	  593.85	-1817.35	  427.02
     24.6700	  601.00	  613.52	-1826.02	  426.68
     24.7700	  621.00	  628.90	-1821.40	  426.33
     24.8700	  633.00	  628.69	-1809.19	  425.99
     24.9700	  557.00	  609.22	-1865.72	  425.64
     25.0700	  606.00	  583.44	-1790.94	  425.30
     25.1700	  590.00	  563.88	-1787.38	  424.95
     25.2700	  599.00	  553.17	-1767.67	  424.60
     25.3700	  562.00	  548.44	-1799.94	  424.26
     25.4700	  540.00	  546.44	-1819.94	  423.91
     25.5700	  543.00	  545.42	-1815.92	  423.56
     25.6700	  583.00	  544.75	-1775.25	  423.22
     25.7700	  539.00	  544.27	-1818.77	  422.87
     25.8700	  571.00	  543.90	-1786.40	  422.52
     25.9700	  538.00	  543.63	-1819.13	  422.17
     26.0700	  520.00	  543.43	-1836.93	  421.83
     26.1700	  559.00	  543.30	-1797.80	  421.48
     26.2700	  501.00	  543.25	-1855.75	  421.13
     26.3700	  574.00	  543.28	-1782.78	  420.79
     26.4700	  552.00	  543.39	-1804.89	  420.44
     26.5700	  596.00	  543.61	-1761.11	  420.09
     26.6700	  588.00	  543.94	-1769.44	  419.75
     26.7700	  533.00	  544.42	-1824.92	  419.40
     26.8700	  551.00	  545.08	-1807.58	  419.05
     26.9700	  548.00	  545.99	-1811.49	  418.71
     27.0700	  576.00	  547.21	-1784.71	  418.36
     27.1700	  575.00	  548.91	-1787.41	  418.02
     27.2700	  549.00	  551.34	-1815.84	  417.67
     27.3700	  582.00	  555.02	-1786.52	  417.33
     27.4700	  571.00	  560.95	-1803.45	  416.98
     27.5700	  555.00	  570.88	-1829.38	  416.64
     27.6700	  535.00	  587.57	-1866.07	  416.30
     27.7700	  573.00	  614.55	-1855.05	  415.95
     27.8700	  619.00	  654.79	-1849.29	  415.61
     27.9700	  662.00	  708.38	-1859.88	  415.27
     28.0700	  775.00	  769.44	-1807.94	  414.93
     28.1700	  930.00	  823.52	-1707.02	  414.58
     28.2700	  987.00	  848.64	-1675.14	  414.24
     28.3700	  968.00	  830.69	-1676.19	  413.90
     28.4700	  836.00	  789.02	-1766.52	  413.56
     28.5700	  669.00	  759.00	-1903.50	  413.22
     28.6700	  713.00	  758.14	-1858.64	  412.88
     28.7700	  715.00	  782.73	-1881.23	  412.55
     28.8700	  817.00	  813.15	-1809.65	  412.21
     28.9700	  864.00	  820.36	-1769.86	  411.87
     29.0700	  833.00	  784.04	-1764.54	  411.54
     29.1700	  709.00	  718.26	-1822.76	  411.20
     29.2700	  579.00	  653.69	-1888.19	  410.87
     29.3700	  601.00	  606.11	-1818.61	  410.53
     29.4700	  600.00	  576.80	-1790.30	  410.20
     29.5700	  623.00	  560.69	-1751.19	  409.87
     29.6700	  637.00	  552.11	-1728.61	  409.54
     29.7700	  618.00	  547.25	-1742.75	  409.21
     29.8700	  616.00	  544.23	-1741.73	  408.88
     29.9700	  599.00	  542.27	-1756.77	  408.55
     30.0700	  596.00	  541.18	-1758.68	  408.22
     30.1700	  585.00	  541.09	-1769.59	  407.89
     30.2700	  582.00	  542.51	-1774.01	  407.56
     30.3700	  553.00	  546.49	-1806.99	  407.24
     30.4700	  549.00	  554.67	-1819.17	  406.91
     30.5700	  595.00	  568.85	-1787.35	  406.59
     30.6700	  582.00	  589.76	-1821.26	  406.27
     30.7700	  619.00	  615.08	-1809.58	  405.95
     30.8700	  590.00	  637.98	-1861.48	  405.63
     30.9700	  574.00	  647.51	-1887.01	  405.31
     31.0700	  622.00	  635.24	-1826.74	  404.99
     31.1700	  627.00	  607.19	-1793.69	  404.67
     31.2700	  566.00	  577.99	-1825.49	  404.35
     31.3700	  527.00	  556.05	-1842.55	  404.04
     31.4700	  522.00	  542.53	-1834.03	  403.73
     31.5700	  586.00	  535.25	-1762.75	  403.41
     31.6700	  510.00	  531.50	-1835.00	  403.10
     31.7700	  529.00	  529.43	-1813.93	  402.79
     31.8700	  516.00	  528.12	-1825.62	  402.48
     31.9700	  575.00	  527.19	-1765.69	  402.17
     32.0700	  520.00	  526.51	-1820.01	  401.86
     32.1700	  553.00	  526.02	-1786.52	  401.56
     32.2700	  523.00	  525.69	-1816.19	  401.25
     32.3700	  587.00	  525.51	-1752.01	  400.95
     32.4700	  589.00	  525.48	-1749.98	  400.65
     32.5700	  566.00	  525.61	-1773.11	  400.35
     32.6700	  502.00	  525.92	-1837.42	  400.05
     32.7700	  549.00	  526.47	-1790.97	  399.75
     32.8700	  536.00	  527.29	-1804.79	  399.45
     32.9700	  592.00	  528.51	-1750.01	  399.16
     33.0700	  547.00	  530.30	-1796.80	  398.86
     33.1700	  526.00	  533.06	-1820.56	  398.57
     33.2700	  579.00	  537.69	-1772.19	  398.28
     33.3700	  526.00	  546.23	-1833.73	  397.99
     33.4700	  542.00	  562.77	-1834.27	  397.70
     33.5700	  616.00	  594.05	-1791.55	  397.41
     33.6700	  619.00	  648.42	-1842.92	  397.12
     33.7700	  766.00	  730.84	-1778.34	  396.84
     33.8700	  866.00	  834.22	-1781.72	  396.56
     33.9700	  973.00	  932.60	-1773.10	  396.27
     34.0700	 1061.00	  983.33	-1735.83	  395.99
     34.1700	 1018.00	  950.38	-1745.88	  395.71
     34.2700	  888.00	  849.07	-1774.57	  395.44
     34.3700	  791.00	  734.20	-1756.70	  395.16
     34.4700	  635.00	  643.31	-1821.81	  394.89
     34.5700	  533.00	  585.66	-1866.16	  394.61
     34.6700	  584.00	  554.52	-1784.02	  394.34
     34.7700	  537.00	  539.08	-1815.58	  394.07
     34.8700	  527.00	  531.19	-1817.69	  393.80
     34.9700	  548.00	  526.56	-1792.06	  393.54
     35.0700	  547.00	  523.40	-1789.90	  393.27
     35.1700	  483.00	  521.01	-1851.51	  393.01
     35.2700	  523.00	  519.11	-1809.61	  392.75
     35.3700	  510.00	  517.57	-1821.07	  392.49
     35.4700	  532.00	  516.28	-1797.78	  392.23
     35.5700	  516.00	  515.21	-1812.71	  391.97
     35.6700	  582.00	  514.27	-1745.77	  391.72
     35.7700	  495.00	  513.95	-1832.45	  391.46
     35.8700	  514.00	  513.23	-1812.73	  391.21
     35.9700	  486.00	  512.58	-1840.08	  390.96
     36.0700	  497.00	  512.00	-1828.50	  390.71
     36.1700	  529.00	  511.47	-1795.97	  390.46
     36.2700	  532.00	  510.99	-1792.49	  390.22
     36.3700	  523.00	  510.55	-1801.05	  389.97
     36.4700	  557.00	  510.14	-1766.64	  389.73
     36.5700	  483.00	  509.78	-1840.28	  389.49
     36.6700	  538.00	  509.44	-1784.94	  389.25
     36.7700	  527.00	  509.15	-1795.65	  389.01
     36.8700	  554.00	  508.91	-1768.41	  388.78
     36.9700	  506.00	  508.76	-1816.26	  388.55
     37.0700	  484.00	  508.79	-1838.29	  388.31
     37.1700	  518.00	  509.21	-1804.71	  388.08
     37.2700	  495.00	  510.37	-1828.87	  387.86
     37.3700	  509.00	  512.68	-1817.18	  387.63
     37.4700	  505.00	  516.37	-1824.87	  387.40
     37.5700	  533.00	  521.01	-1801.51	  387.18
     37.6700	  512.00	  525.35	-1826.85	  386.96
     37.7700	  516.00	  527.67	-1825.17	  386.74
     37.8700	  507.00	  527.06	-1833.56	  386.52
     37.9700	  499.00	  524.39	-1838.89	  386.31
     38.0700	  490.00	  520.81	-1844.31	  386.09
     38.1700	  534.00	  516.78	-1796.28	  385.88
     38.2700	  516.00	  512.82	-1810.32	  385.67
     38.3700	  526.00	  509.55	-1797.05	  385.46
     38.4700	  484.00	  507.19	-1836.69	  385.25
     38.5700	  477.00	  505.66	-1842.16	  385.05
     38.6700	  518.00	  504.73	-1800.23	  384.85
     38.7700	  511.00	  504.15	-1806.65	  384.65
     38.8700	  524.00	  503.65	-1793.15	  384.45
     38.9700	  498.00	  503.33	-1818.83	  384.25
     39.0700	  539.00	  503.06	-1777.56	  384.05
     39.1700	  506.00	  502.81	-1810.31	  383.86
     39.2700	  478.00	  502.50	-1838.00	  383.67
     39.3700	  509.00	  502.29	-1806.79	  383.48
     39.4700	  475.00	  502.09	-1840.59	  383.29
     39.5700	  514.00	  501.90	-1801.40	  383.10
     39.6700	  555.00	  501.73	-1760.23	  382.92
     39.7700	  505.00	  501.56	-1810.06	  382.74
     39.8700	  517.00	  501.51	-1798.01	  382.55
     39.9700	  569.00	  501.37	-1745.87	  382.38
     40.0700	  493.00	  501.23	-1821.73	  382.20
     40.1700	  499.00	  501.10	-1815.60	  382.02
     40.2700	  469.00	  500.99	-1845.49	  381.85
     40.3700	  519.00	  500.88	-1795.38	  381.68
     40.4700	  469.00	  500.79	-1845.29	  381.51
     40.5700	  494.00	  500.71	-1820.21	  381.34
     40.6700	  493.00	  500.64	-1821.14	  381.18
     40.7700	  518.00	  500.59	-1796.09	  381.01
     40.8700	  532.00	  500.57	-1782.07	  380.85
     40.9700	  460.00	  500.56	-1854.06	  380.69
     41.0700	  509.00	  500.59	-1805.09	  380.53
     41.1700	  479.00	  500.61	-1835.11	  380.38
     41.2700	  536.00	  500.72	-1778.22	  380.22
     41.3700	  480.00	  500.88	-1834.38	  380.07
     41.4700	  499.00	  501.11	-1815.61	  379.92
     41.5700	  494.00	  501.44	-1820.94	  379.77
     41.6700	  536.00	  502.34	-1779.84	  379.63
     41.7700	  511.00	  503.07	-1805.57	  379.48
     41.8700	  485.00	  504.28	-1832.78	  379.34
     41.9700	  474.00	  506.55	-1846.05	  379.20
     42.0700	  473.00	  511.14	-1851.64	  379.06
     42.1700	  481.00	  520.02	-1852.52	  378.93
     42.2700	  537.00	  535.97	-1812.47	  378.79
     42.3700	  578.00	  561.06	-1796.56	  378.66
     42.4700	  586.00	  594.31	-1821.81	  378.53
     42.5700	  578.00	  629.37	-1864.87	  378.40
     42.6700	  584.00	  654.16	-1883.66	  378.27
     42.7700	  587.00	  656.42	-1882.92	  378.15
     42.8700	  581.00	  633.94	-1866.44	  378.03
     42.9700	  535.00	  598.40	-1876.90	  377.90
     43.0700	  504.00	  563.52	-1873.02	  377.79
     43.1700	  510.00	  536.85	-1840.35	  377.67
     43.2700	  536.00	  519.86	-1797.36	  377.55
     43.3700	  497.00	  510.47	-1826.97	  377.44
     43.4700	  507.00	  505.74	-1812.24	  377.33
     43.5700	  468.00	  503.37	-1848.87	  377.22
     43.6700	  462.00	  502.26	-1853.76	  377.11
     43.7700	  494.00	  501.43	-1820.93	  377.01
     43.8700	  482.00	  500.84	-1832.34	  376.90
     43.9700	  539.00	  500.39	-1774.89	  376.80
     44.0700	  495.00	  500.04	-1818.54	  376.70
     44.1700	  495.00	  499.77	-1818.27	  376.60
     44.2700	  506.00	  499.56	-1807.06	  376.51
     44.3700	  497.00	  499.43	-1815.93	  376.42
     44.4700	  477.00	  499.19	-1835.69	  376.32
     44.5700	  525.00	  499.11	-1787.61	  376.23
     44.6700	  460.00	  499.05	-1852.55	  376.15
     44.7700	  518.00	  499.03	-1794.53	  376.06
     44.8700	  522.00	  499.03	-1790.53	  375.98
     44.9700	  520.00	  499.05	-1792.55	  375.89
     45.0700	  468.00	  499.10	-1844.60	  375.81
     45.1700	  497.00	  499.35	-1815.85	  375.73
     45.2700	  508.00	  499.44	-1804.94	  375.66
     45.3700	  515.00	  499.55	-1798.05	  375.58
     45.4700	  517.00	  499.69	-1796.19	  375.51
     45.5700	  522.00	  499.84	-1791.34	  375.44
     45.6700	  507.00	  500.03	-1806.53	  375.37
     45.7700	  493.00	  500.24	-1820.74	  375.30
     45.8700	  489.00	  500.47	-1824.97	  375.24
     45.9700	  513.00	  500.74	-1801.24	  375.18
     46.0700	  501.00	  501.04	-1813.54	  375.11
     46.1700	  495.00	  501.38	-1819.88	  375.05
     46.2700	  493.00	  501.77	-1822.27	  375.00
     46.3700	  535.00	  502.20	-1780.70	  374.94
     46.4700	  505.00	  502.68	-1811.18	  374.89
     46.5700	  490.00	  503.23	-1826.73	  374.84
     46.6700	  498.00	  503.86	-1819.36	  374.79
     46.7700	  446.00	  504.60	-1872.10	  374.74
     46.8700	  480.00	  505.47	-1838.97	  374.69
     46.9700	  496.00	  506.58	-1824.08	  374.65
     47.0700	  545.00	  508.13	-1776.63	  374.60
     47.1700	  510.00	  510.57	-1814.07	  374.56
     47.2700	  507.00	  514.74	-1821.24	  374.52
     47.3700	  509.00	  521.84	-1826.34	  374.49
     47.4700	  535.00	  533.26	-1811.76	  374.45
     47.5700	  529.00	  549.52	-1834.02	  374.42
     47.6700	  622.00	  569.49	-1760.99	  374.39
     47.7700	  576.00	  589.41	-1826.91	  374.36
     47.8700	  580.00	  603.23	-1836.73	  374.33
     47.9700	  591.00	  605.39	-1827.89	  374.30
     48.0700	  599.00	  595.41	-1809.91	  374.28
     48.1700	  562.00	  578.87	-1830.37	  374.26
     48.2700	  553.00	  562.27	-1822.77	  374.24
     48.3700	  561.00	  549.66	-1802.16	  374.22
     48.4700	  507.00	  542.42	-1848.92	  374.20
     48.5700	  543.00	  540.05	-1810.55	  374.18
     48.6700	  489.00	  541.34	-1865.84	  374.17
     48.7700	  507.00	  545.23	-1851.73	  374.16
     48.8700	  484.00	  551.17	-1880.67	  374.15
     48.9700	  534.00	  559.18	-1838.68	  374.14
     49.0700	  569.00	  569.96	-1814.46	  374.13
     49.1700	  544.00	  585.20	-1854.70	  374.13
     49.2700	  660.00	  608.38	-1761.88	  374.13
     49.3700	  674.00	  645.99	-1785.49	  374.12
     49.4700	  723.00	  708.85	-1799.35	  374.12
     49.5700	  823.00	  812.28	-1802.78	  374.13
     49.6700	  942.00	  974.05	-1845.55	  374.13
     49.7700	 1118.00	 1206.91	-1902.41	  374.14
     49.8700	 1434.00	 1510.52	-1890.02	  374.14
     49.9700	 1756.00	 1859.33	-1916.83	  374.15
     50.0700	 2194.00	 2193.15	-1812.65	  374.16
     50.1700	 2593.00	 2419.17	-1639.67	  374.18
     50.2700	 2428.00	 2448.11	-1833.61	  374.19
     50.3700	 2301.00	 2264.54	-1777.04	  374.20
     50.4700	 1960.00	 1945.74	-1799.24	  374.22
     50.5700	 1509.00	 1593.49	-1897.99	  374.24
     50.6700	 1105.00	 1278.54	-1987.04	  374.26
     50.7700	  858.00	 1034.15	-1989.65	  374.28
     50.8700	  733.00	  865.42	-1945.92	  374.31
     50.9700	  650.00	  759.93	-1923.43	  374.33
     51.0700	  627.00	  698.06	-1884.56	  374.36
     51.1700	  650.00	  660.69	-1824.19	  374.39
     51.2700	  615.00	  634.06	-1832.56	  374.42
     51.3700	  603.00	  611.56	-1822.06	  374.45
     51.4700	  580.00	  591.81	-1825.31	  374.49
     51.5700	  531.00	  575.33	-1857.83	  374.52
     51.6700	  575.00	  562.58	-1801.08	  374.56
     51.7700	  509.00	  553.41	-1857.91	  374.60
     51.8700	  559.00	  547.12	-1801.62	  374.64
     51.9700	  540.00	  542.88	-1816.38	  374.68
     52.0700	  542.00	  540.00	-1811.50	  374.72
     52.1700	  575.00	  538.11	-1776.61	  374.76
     52.2700	  557.00	  537.06	-1793.56	  374.81
     52.3700	  547.00	  536.89	-1803.39	  374.86
     52.4700	  561.00	  538.07	-1790.57	  374.91
     52.5700	  585.00	  540.91	-1769.41	  374.96
     52.6700	  543.00	  547.27	-1817.77	  375.01
     52.7700	  543.00	  560.42	-1830.92	  375.06
     52.8700	  647.00	  585.97	-1752.47	  375.12
     52.9700	  710.00	  631.60	-1735.10	  375.17
     53.0700	  785.00	  705.06	-1733.56	  375.23
     53.1700	  871.00	  809.81	-1752.31	  375.29
     53.2700	  982.00	  939.41	-1770.91	  375.35
     53.3700	 1118.00	 1073.42	-1768.92	  375.41
     53.4700	 1093.00	 1177.80	-1898.30	  375.48
     53.5700	 1156.00	 1215.42	-1872.92	  375.54
     53.6700	 1121.00	 1169.51	-1862.01	  375.61
     53.7700	  949.00	 1059.49	-1923.99	  375.68
     53.8700	  921.00	  924.00	-1816.50	  375.75
     53.9700	  725.00	  796.27	-1884.77	  375.82
     54.0700	  669.00	  695.10	-1839.60	  375.89
     54.1700	  581.00	  625.48	-1857.98	  375.96
     54.2700	  572.00	  583.08	-1824.58	  376.04
     54.3700	  609.00	  559.80	-1764.30	  376.11
     54.4700	  578.00	  548.08	-1783.58	  376.19
     54.5700	  557.00	  542.55	-1799.05	  376.27
     54.6700	  571.00	  540.15	-1782.65	  376.35
     54.7700	  552.00	  539.38	-1800.88	  376.43
     54.8700	  517.00	  539.60	-1836.10	  376.51
     54.9700	  567.00	  540.57	-1787.07	  376.60
     55.0700	  559.00	  542.23	-1796.73	  376.68
     55.1700	  535.00	  544.59	-1823.09	  376.77
     55.2700	  548.00	  547.69	-1813.19	  376.86
     55.3700	  540.00	  551.66	-1825.16	  376.95
     55.4700	  545.00	  556.71	-1825.21	  377.04
     55.5700	  552.00	  563.15	-1824.65	  377.13
     55.6700	  641.00	  571.68	-1744.18	  377.22
     55.7700	  546.00	  583.74	-1851.24	  377.31
     55.8700	  612.00	  602.24	-1803.74	  377.41
     55.9700	  602.00	  632.77	-1844.27	  377.51
     56.0700	  634.00	  685.01	-1864.51	  377.60
     56.1700	  741.00	  773.51	-1846.01	  377.70
     56.2700	  817.00	  916.54	-1913.04	  377.80
     56.3700	 1067.00	 1131.39	-1877.89	  377.90
     56.4700	 1353.00	 1426.00	-1886.50	  378.00
     56.5700	 1767.00	 1788.72	-1835.22	  378.11
     56.6700	 2156.00	 2179.35	-1836.85	  378.21
     56.7700	 2340.00	 2525.86	-1999.36	  378.32
     56.8700	 2628.00	 2734.20	-1919.70	  378.42
     56.9700	 2683.00	 2729.74	-1860.24	  378.53
     57.0700	 2453.00	 2513.82	-1874.32	  378.64
     57.1700	 2173.00	 2164.02	-1804.52	  378.75
     57.2700	 1738.00	 1775.23	-1850.73	  378.86
     57.3700	 1321.00	 1418.40	-1910.90	  378.97
     57.4700	 1121.00	 1131.91	-1824.41	  379.08
     57.5700	  888.00	  926.24	-1851.74	  379.20
     57.6700	  804.00	  793.03	-1802.53	  379.31
     57.7700	  713.00	  715.38	-1815.88	  379.43
     57.8700	  691.00	  676.38	-1798.88	  379.55
     57.9700	  667.00	  663.63	-1810.13	  379.66
     58.0700	  682.00	  670.18	-1801.68	  379.78
     58.1700	  733.00	  693.45	-1773.95	  379.90
     58.2700	  785.00	  733.25	-1761.75	  380.02
     58.3700	  850.00	  789.91	-1753.41	  380.14
     58.4700	  971.00	  862.46	-1704.96	  380.27
     58.5700	 1069.00	  947.01	-1691.51	  380.39
     58.6700	 1234.00	 1035.88	-1615.38	  380.51
     58.7700	 1441.00	 1119.30	-1491.80	  380.64
     58.8700	 1490.00	 1189.79	-1513.29	  380.76
     58.9700	 1613.00	 1243.00	-1443.50	  380.89
     59.0700	 1629.00	 1273.87	-1458.37	  381.02
     59.1700	 1532.00	 1277.20	-1558.70	  381.15
     59.2700	 1530.00	 1255.42	-1538.92	  381.28
     59.3700	 1405.00	 1220.76	-1629.26	  381.41
     59.4700	 1233.00	 1187.19	-1767.69	  381.54
     59.5700	 1247.00	 1164.10	-1730.60	  381.67
     59.6700	 1180.00	 1157.88	-1791.38	  381.80
     59.7700	 1073.00	 1175.77	-1916.27	  381.94
     59.8700	 1188.00	 1223.79	-1849.29	  382.07
     59.9700	 1314.00	 1300.36	-1799.86	  382.21
     60.0700	 1429.00	 1392.00	-1776.50	  382.34
     60.1700	 1582.00	 1472.79	-1704.29	  382.48
     60.2700	 1570.00	 1509.94	-1753.44	  382.61
     60.3700	 1564.00	 1479.40	-1728.90	  382.75
     60.4700	 1574.00	 1382.85	-1622.35	  382.89
     60.5700	 1314.00	 1244.85	-1744.35	  383.03
     60.6700	 1090.00	 1094.86	-1818.36	  383.17
     60.7700	  996.00	  955.46	-1772.96	  383.31
     60.8700	  827.00	  840.09	-1826.59	  383.45
     60.9700	  708.00	  754.12	-1859.62	  383.59
     61.0700	  659.00	  697.23	-1851.73	  383.73
     61.1700	  634.00	  666.44	-1845.94	  383.88
     61.2700	  642.00	  658.88	-1830.38	  384.02
     61.3700	  633.00	  673.70	-1854.20	  384.16
     61.4700	  641.00	  712.60	-1885.10	  384.31
     61.5700	  682.00	  778.74	-1910.24	  384.45
     61.6700	  783.00	  874.49	-1904.99	  384.60
     61.7700	  934.00	  998.52	-1878.02	  384.75
     61.8700	 1073.00	 1142.89	-1883.39	  384.89
     61.9700	 1198.00	 1291.12	-1906.62	  385.04
     62.0700	 1349.00	 1417.72	-1882.22	  385.19
     62.1700	 1437.00	 1491.97	-1868.47	  385.34
     62.2700	 1385.00	 1490.51	-1919.01	  385.49
     62.3700	 1339.00	 1413.22	-1887.72	  385.63
     62.4700	 1240.00	 1283.43	-1856.93	  385.78
     62.5700	 1125.00	 1131.94	-1820.44	  385.93
     62.6700	  954.00	  984.15	-1843.65	  386.09
     62.7700	  767.00	  856.21	-1902.71	  386.24
     62.8700	  696.00	  755.58	-1873.08	  386.39
     62.9700	  646.00	  682.71	-1850.21	  386.54
     63.0700	  617.00	  633.67	-1830.17	  386.69
     63.1700	  583.00	  602.69	-1833.19	  386.84
     63.2700	  562.00	  584.16	-1835.66	  387.00
     63.3700	  526.00	  573.76	-1861.26	  387.15
     63.4700	  552.00	  568.76	-1830.26	  387.30
     63.5700	  575.00	  567.97	-1806.47	  387.46
     63.6700	  587.00	  571.51	-1798.01	  387.61
     63.7700	  581.00	  580.57	-1813.07	  387.77
     63.8700	  630.00	  597.16	-1780.66	  387.92
     63.9700	  659.00	  623.60	-1778.10	  388.08
     64.0700	  676.00	  661.72	-1799.22	  388.23
     64.1700	  722.00	  711.93	-1803.43	  388.39
     64.2700	  799.00	  772.09	-1786.59	  388.54
     64.3700	  842.00	  836.88	-1808.38	  388.70
     64.4700	  947.00	  897.33	-1763.83	  388.85
     64.5700	  990.00	  942.36	-1765.86	  389.01
     64.6700	 1028.00	  962.05	-1747.55	  389.17
     64.7700	 1000.00	  952.15	-1765.65	  389.32
     64.8700	  980.00	  917.55	-1751.05	  389.48
     64.9700	  983.00	  866.53	-1697.03	  389.64
     65.0700	  868.00	  809.26	-1754.76	  389.79
     65.1700	  784.00	  754.28	-1783.78	  389.95
     65.2700	  733.00	  706.81	-1787.31	  390.11
     65.3700	  725.00	  668.50	-1757.00	  390.27
     65.4700	  637.00	  638.58	-1815.08	  390.42
     65.5700	  615.00	  615.38	-1813.88	  390.58
     65.6700	  593.00	  597.38	-1817.88	  390.74
     65.7700	  597.00	  583.57	-1800.07	  390.90
     65.8700	  568.00	  573.24	-1818.74	  391.05
     65.9700	  571.00	  565.90	-1808.40	  391.21
     66.0700	  583.00	  561.15	-1791.65	  391.37
     66.1700	  535.00	  558.59	-1837.09	  391.53
     66.2700	  569.00	  557.85	-1802.35	  391.68
     66.3700	  522.00	  558.60	-1850.10	  391.84
     66.4700	  538.00	  560.64	-1836.14	  392.00
     66.5700	  538.00	  563.96	-1839.46	  392.16
     66.6700	  563.00	  568.82	-1819.32	  392.31
     66.7700	  561.00	  576.00	-1828.50	  392.47
     66.8700	  518.00	  586.75	-1882.25	  392.63
     66.9700	  619.00	  603.69	-1798.19	  392.79
     67.0700	  558.00	  631.00	-1886.50	  392.94
     67.1700	  646.00	  674.81	-1842.31	  393.10
     67.2700	  755.00	  743.27	-1801.77	  393.26
     67.3700	  838.00	  845.50	-1821.00	  393.41
     67.4700	  943.00	  990.18	-1860.68	  393.57
     67.5700	 1169.00	 1181.40	-1825.90	  393.73
     67.6700	 1418.00	 1416.17	-1811.67	  393.88
     67.7700	 1705.00	 1680.87	-1789.37	  394.04
     67.8700	 2013.00	 1949.58	-1750.08	  394.19
     67.9700	 2273.00	 2184.29	-1724.79	  394.35
     68.0700	 2395.00	 2339.81	-1758.31	  394.50
     68.1700	 2409.00	 2377.97	-1782.47	  394.66
     68.2700	 2310.00	 2288.18	-1791.68	  394.81
     68.3700	 2094.00	 2094.58	-1814.08	  394.97
     68.4700	 1904.00	 1840.77	-1750.27	  395.12
     68.5700	 1571.00	 1570.09	-1812.59	  395.28
     68.6700	 1263.00	 1315.81	-1866.31	  395.43
     68.7700	  985.00	 1098.61	-1927.11	  395.58
     68.8700	  909.00	  927.40	-1831.90	  395.74
     68.9700	  754.00	  801.83	-1861.33	  395.89
     69.0700	  712.00	  715.27	-1816.77	  396.04
     69.1700	  658.00	  658.69	-1814.19	  396.19
     69.2700	  664.00	  623.16	-1772.66	  396.34
     69.3700	  637.00	  601.32	-1777.82	  396.49
     69.4700	  618.00	  587.87	-1783.37	  396.65
     69.5700	  597.00	  579.39	-1795.89	  396.80
     69.6700	  610.00	  573.81	-1777.31	  396.95
     69.7700	  561.00	  570.00	-1822.50	  397.09
     69.8700	  540.00	  567.37	-1840.87	  397.24
     69.9700	  551.00	  565.61	-1828.11	  397.39
     70.0700	  542.00	  564.57	-1836.07	  397.54
     70.1700	  570.00	  564.20	-1807.70	  397.69
     70.2700	  550.00	  564.51	-1828.01	  397.83
     70.3700	  614.00	  565.53	-1765.03	  397.98
     70.4700	  536.00	  567.48	-1844.98	  398.13
     70.5700	  563.00	  570.71	-1821.21	  398.27
     70.6700	  587.00	  575.96	-1802.46	  398.42
     70.7700	  577.00	  584.48	-1820.98	  398.56
     70.8700	  597.00	  598.38	-1814.88	  398.70
     70.9700	  630.00	  620.91	-1804.41	  398.85
     71.0700	  650.00	  656.56	-1820.06	  398.99
     71.1700	  652.00	  711.88	-1873.38	  399.13
     71.2700	  769.00	  791.20	-1835.70	  399.27
     71.3700	  894.00	  900.63	-1820.13	  399.41
     71.4700	 1016.00	 1042.60	-1840.10	  399.55
     71.5700	 1195.00	 1214.69	-1833.19	  399.69
     71.6700	 1350.00	 1407.90	-1871.40	  399.83
     71.7700	 1541.00	 1605.71	-1878.21	  399.97
     71.8700	 1801.00	 1784.32	-1796.82	  400.11
     71.9700	 1890.00	 1915.02	-1838.52	  400.24
     72.0700	 1895.00	 1971.11	-1889.61	  400.38
     72.1700	 1943.00	 1939.39	-1809.89	  400.51
     72.2700	 1789.00	 1827.32	-1851.82	  400.65
     72.3700	 1670.00	 1660.10	-1803.60	  400.78
     72.4700	 1599.00	 1466.34	-1680.84	  400.92
     72.5700	 1429.00	 1271.43	-1655.93	  401.05
     72.6700	 1274.00	 1093.68	-1633.18	  401.18
     72.7700	 1086.00	  943.82	-1671.32	  401.31
     72.8700	  962.00	  825.67	-1677.17	  401.44
     72.9700	  944.00	  737.80	-1607.30	  401.57
     73.0700	  839.00	  675.65	-1650.15	  401.70
     73.1700	  767.00	  633.40	-1679.90	  401.82
     73.2700	  775.00	  605.45	-1643.95	  401.95
     73.3700	  685.00	  587.18	-1715.68	  402.08
     73.4700	  597.00	  575.17	-1791.67	  402.20
     73.5700	  570.00	  567.16	-1810.66	  402.32
     73.6700	  629.00	  561.72	-1746.22	  402.45
     73.7700	  576.00	  558.03	-1795.53	  402.57
     73.8700	  625.00	  555.60	-1744.10	  402.69
     73.9700	  609.00	  554.15	-1758.65	  402.81
     74.0700	  585.00	  553.51	-1782.01	  402.93
     74.1700	  573.00	  553.51	-1794.01	  403.05
     74.2700	  506.00	  553.96	-1861.46	  403.17
     74.3700	  621.00	  554.66	-1747.16	  403.28
     74.4700	  637.00	  555.34	-1731.84	  403.40
     74.5700	  623.00	  555.71	-1746.21	  403.51
     74.6700	  634.00	  555.53	-1735.03	  403.63
     74.7700	  630.00	  554.69	-1738.19	  403.74
     74.8700	  596.00	  553.25	-1770.75	  403.85
     74.9700	  574.00	  551.42	-1790.92	  403.96
     75.0700	  658.00	  549.58	-1705.08	  404.07
     75.1700	  570.00	  548.03	-1791.53	  404.18
     75.2700	  558.00	  547.11	-1802.61	  404.29
     75.3700	  578.00	  547.19	-1782.69	  404.39
     75.4700	  538.00	  548.62	-1824.12	  404.50
     75.5700	  541.00	  552.01	-1824.51	  404.60
     75.6700	  563.00	  557.82	-1808.32	  404.71
     75.7700	  626.00	  566.48	-1753.98	  404.81
     75.8700	  597.00	  578.60	-1795.10	  404.91
     75.9700	  646.00	  594.20	-1761.70	  405.01
     76.0700	  613.00	  612.94	-1813.44	  405.11
     76.1700	  609.00	  633.93	-1838.43	  405.20
     76.2700	  690.00	  655.60	-1779.10	  405.30
     76.3700	  660.00	  675.73	-1829.23	  405.40
     76.4700	  697.00	  691.66	-1808.16	  405.49
     76.5700	  654.00	  700.73	-1860.23	  405.58
     76.6700	  721.00	  701.13	-1793.63	  405.68
     76.7700	  682.00	  692.76	-1824.26	  405.77
     76.8700	  703.00	  677.27	-1787.77	  405.85
     76.9700	  681.00	  657.28	-1789.78	  405.94
     77.0700	  627.00	  635.28	-1821.78	  406.03
     77.1700	  564.00	  613.90	-1863.40	  406.12
     77.2700	  559.00	  594.58	-1849.08	  406.20
     77.3700	  554.00	  578.28	-1837.78	  406.28
     77.4700	  549.00	  565.33	-1829.83	  406.36
     77.5700	  538.00	  555.60	-1831.10	  406.45
     77.6700	  466.00	  548.65	-1896.15	  406.52
     77.7700	  522.00	  543.90	-1835.40	  406.60
     77.8700	  517.00	  540.78	-1837.28	  406.68
     77.9700	  542.00	  538.80	-1810.30	  406.76
     78.0700	  572.00	  537.55	-1779.05	  406.83
     78.1700	  522.00	  536.79	-1828.29	  406.90
     78.2700	  535.00	  536.32	-1814.82	  406.97
     78.3700	  547.00	  536.04	-1802.54	  407.04
     78.4700	  539.00	  535.88	-1810.38	  407.11
     78.5700	  489.00	  535.83	-1860.33	  407.18
     78.6700	  479.00	  535.86	-1870.36	  407.25
     78.7700	  572.00	  535.99	-1777.49	  407.31
     78.8700	  569.00	  536.21	-1780.71	  407.37
     78.9700	  518.00	  536.57	-1832.07	  407.44
     79.0700	  523.00	  537.10	-1827.60	  407.50
     79.1700	  479.00	  537.83	-1872.33	  407.56
     79.2700	  485.00	  538.85	-1867.35	  407.61
     79.3700	  519.00	  540.01	-1834.51	  407.67
     79.4700	  521.00	  541.78	-1834.28	  407.73
     79.5700	  489.00	  544.03	-1868.53	  407.78
     79.6700	  528.00	  546.86	-1832.36	  407.83
     79.7700	  557.00	  550.37	-1806.87	  407.88
     79.8700	  562.00	  554.70	-1806.20	  407.93
     79.9700	  532.00	  560.01	-1841.51	  407.98
     80.0700	  541.00	  566.49	-1838.99	  408.03
     80.1700	  579.00	  574.38	-1808.88	  408.07
     80.2700	  526.00	  583.96	-1871.46	  408.11
     80.3700	  575.00	  595.46	-1833.96	  408.16
     80.4700	  581.00	  609.03	-1841.53	  408.20
     80.5700	  580.00	  624.55	-1858.05	  408.23
     80.6700	  602.00	  641.62	-1853.12	  408.27
     80.7700	  649.00	  659.46	-1823.96	  408.31
     80.8700	  627.00	  676.97	-1863.47	  408.34
     80.9700	  671.00	  692.81	-1835.31	  408.37
     81.0700	  670.00	  705.68	-1849.18	  408.41
     81.1700	  724.00	  714.54	-1804.04	  408.44
     81.2700	  739.00	  718.77	-1793.27	  408.46
     81.3700	  799.00	  718.07	-1732.57	  408.49
     81.4700	  783.00	  712.63	-1743.13	  408.52
     81.5700	  749.00	  703.05	-1767.55	  408.54
     81.6700	  806.00	  690.21	-1697.71	  408.56
     81.7700	  697.00	  675.04	-1791.54	  408.58
     81.8700	  663.00	  658.49	-1808.99	  408.60
     81.9700	  661.00	  641.48	-1793.98	  408.62
     82.0700	  672.00	  625.02	-1766.52	  408.63
     82.1700	  663.00	  609.76	-1760.26	  408.65
     82.2700	  657.00	  596.16	-1752.66	  408.66
     82.3700	  637.00	  584.46	-1760.96	  408.67
     82.4700	  582.00	  574.70	-1806.20	  408.68
     82.5700	  626.00	  566.84	-1754.34	  408.69
     82.6700	  601.00	  560.82	-1773.32	  408.69
     82.7700	  523.00	  556.50	-1847.00	  408.70
     82.8700	  541.00	  553.77	-1826.27	  408.70
     82.9700	  587.00	  552.51	-1779.01	  408.70
     83.0700	  532.00	  552.64	-1834.14	  408.70
     83.1700	  554.00	  554.06	-1813.56	  408.70
     83.2700	  608.00	  556.68	-1762.18	  408.69
     83.3700	  562.00	  560.35	-1811.85	  408.69
     83.4700	  546.00	  564.88	-1832.38	  408.68
     83.5700	  534.00	  569.97	-1849.47	  408.67
     83.6700	  601.00	  575.23	-1787.73	  408.66
     83.7700	  565.00	  580.17	-1828.67	  408.65
     83.8700	  528.00	  584.24	-1869.74	  408.64
     83.9700	  528.00	  586.87	-1872.37	  408.62
     84.0700	  554.00	  587.65	-1847.15	  408.60
     84.1700	  573.00	  586.39	-1826.89	  408.58
     84.2700	  550.00	  583.27	-1846.77	  408.56
     84.3700	  563.00	  578.73	-1829.23	  408.54
     84.4700	  562.00	  573.29	-1824.79	  408.52
     84.5700	  577.00	  567.48	-1803.98	  408.49
     84.6700	  554.00	  561.74	-1821.24	  408.46
     84.7700	  560.00	  556.41	-1809.91	  408.44
     84.8700	  520.00	  551.71	-1845.21	  408.40
     84.9700	  524.00	  547.76	-1837.26	  408.37
     85.0700	  536.00	  544.61	-1822.11	  408.34
     85.1700	  498.00	  542.21	-1857.71	  408.30
     85.2700	  522.00	  540.50	-1832.00	  408.26
     85.3700	  498.00	  539.38	-1854.88	  408.22
     85.4700	  547.00	  538.75	-1805.25	  408.18
     85.5700	  498.00	  538.53	-1854.03	  408.14
     85.6700	  503.00	  538.66	-1849.16	  408.10
     85.7700	  514.00	  539.10	-1838.60	  408.05
     85.8700	  512.00	  539.85	-1841.35	  408.00
     85.9700	  531.00	  540.91	-1823.41	  407.95
     86.0700	  545.00	  542.36	-1810.86	  407.90
     86.1700	  509.00	  544.26	-1848.76	  407.85
     86.2700	  538.00	  546.74	-1822.24	  407.79
     86.3700	  562.00	  549.93	-1801.43	  407.73
     86.4700	  557.00	  553.97	-1810.47	  407.68
     86.5700	  531.00	  559.03	-1841.53	  407.62
     86.6700	  537.00	  565.18	-1841.68	  407.55
     86.7700	  553.00	  572.15	-1832.65	  407.49
     86.8700	  567.00	  580.39	-1826.89	  407.42
     86.9700	  575.00	  589.32	-1827.82	  407.36
     87.0700	  621.00	  598.45	-1790.95	  407.29
     87.1700	  641.00	  607.17	-1779.67	  407.22
     87.2700	  615.00	  614.71	-1813.21	  407.14
     87.3700	  648.00	  620.29	-1785.79	  407.07
     87.4700	  624.00	  623.21	-1812.71	  406.99
     87.5700	  649.00	  623.08	-1787.58	  406.91
     87.6700	  632.00	  619.93	-1801.43	  406.84
     87.7700	  649.00	  614.26	-1778.76	  406.75
     87.8700	  636.00	  606.84	-1784.34	  406.67
     87.9700	  569.00	  598.57	-1843.07	  406.59
     88.0700	  650.00	  590.32	-1753.82	  406.50
     88.1700	  611.00	  582.84	-1785.34	  406.41
     88.2700	  597.00	  576.74	-1793.24	  406.32
     88.3700	  591.00	  572.46	-1794.96	  406.23
     88.4700	  556.00	  570.25	-1827.75	  406.13
     88.5700	  562.00	  570.19	-1821.69	  406.04
     88.6700	  557.00	  572.16	-1828.66	  405.94
     88.7700	  581.00	  575.90	-1808.40	  405.84
     88.8700	  643.00	  581.03	-1751.53	  405.74
     88.9700	  580.00	  587.04	-1820.54	  405.64
     89.0700	  592.00	  593.34	-1814.84	  405.53
     89.1700	  629.00	  599.25	-1783.75	  405.43
     89.2700	  658.00	  604.10	-1759.60	  405.32
     89.3700	  597.00	  607.24	-1823.74	  405.21
     89.4700	  603.00	  608.20	-1818.70	  405.10
     89.5700	  580.00	  606.80	-1840.30	  404.99
     89.6700	  602.00	  603.18	-1814.68	  404.87
     89.7700	  580.00	  597.78	-1831.28	  404.76
     89.8700	  615.00	  591.14	-1789.64	  404.64
     89.9700	  554.00	  583.86	-1843.36	  404.52
     90.0700	  562.00	  576.45	-1827.95	  404.40
     90.1700	  533.00	  569.34	-1849.84	  404.27
     90.2700	  562.00	  562.83	-1814.33	  404.15
     90.3700	  512.00	  557.15	-1858.65	  404.02
     90.4700	  487.00	  552.38	-1878.88	  403.89
     90.5700	  561.00	  548.55	-1801.05	  403.76
     90.6700	  510.00	  545.59	-1849.09	  403.63
     90.7700	  489.00	  543.43	-1867.93	  403.49
     90.8700	  508.00	  541.94	-1847.44	  403.36
     90.9700	  506.00	  541.03	-1848.53	  403.22
     91.0700	  503.00	  540.60	-1851.10	  403.08
     91.1700	  528.00	  540.59	-1826.09	  402.94
     91.2700	  517.00	  540.98	-1837.48	  402.80
     91.3700	  503.00	  541.78	-1852.28	  402.66
     91.4700	  489.00	  543.06	-1867.56	  402.51
     91.5700	  507.00	  544.91	-1851.41	  402.36
     91.6700	  520.00	  547.47	-1840.97	  402.21
     91.7700	  533.00	  550.92	-1831.42	  402.06
     91.8700	  536.00	  555.24	-1832.74	  401.91
     91.9700	  570.00	  561.05	-1804.55	  401.76
     92.0700	  547.00	  568.32	-1834.82	  401.60
     92.1700	  595.00	  577.20	-1795.70	  401.44
     92.2700	  588.00	  587.75	-1813.25	  401.28
     92.3700	  577.00	  599.97	-1836.47	  401.12
     92.4700	  598.00	  613.71	-1829.21	  400.96
     92.5700	  645.00	  628.72	-1797.22	  400.80
     92.6700	  658.00	  644.62	-1800.12	  400.63
     92.7700	  742.00	  660.89	-1732.39	  400.47
     92.8700	  728.00	  676.93	-1762.43	  400.30
     92.9700	  691.00	  692.07	-1814.57	  400.13
     93.0700	  761.00	  705.73	-1758.23	  399.95
     93.1700	  767.00	  717.54	-1764.04	  399.78
     93.2700	  737.00	  727.49	-1803.99	  399.61
     93.3700	  799.00	  735.93	-1750.43	  399.43
     93.4700	  853.00	  743.47	-1703.97	  399.25
     93.5700	  847.00	  750.83	-1717.33	  399.07
     93.6700	  858.00	  758.66	-1714.16	  398.89
     93.7700	  881.00	  767.51	-1700.01	  398.71
     93.8700	  903.00	  777.85	-1688.35	  398.52
     93.9700	  860.00	  790.04	-1743.54	  398.33
     94.0700	  874.00	  804.37	-1743.87	  398.15
     94.1700	  813.00	  820.89	-1821.39	  397.96
     94.2700	  890.00	  839.40	-1762.90	  397.77
     94.3700	  839.00	  859.28	-1833.78	  397.58
     94.4700	  889.00	  879.46	-1803.96	  397.38
     94.5700	  899.00	  898.48	-1812.98	  397.19
     94.6700	  946.00	  914.51	-1782.01	  396.99
     94.7700	  903.00	  925.60	-1836.10	  396.79
     94.8700	  956.00	  930.01	-1787.51	  396.59
     94.9700	  908.00	  926.57	-1832.07	  396.39
     95.0700	  891.00	  915.09	-1837.59	  396.19
     95.1700	  860.00	  896.35	-1849.85	  395.98
     95.2700	  833.00	  871.93	-1852.43	  395.78
     95.3700	  891.00	  843.83	-1766.33	  395.57
     95.4700	  791.00	  814.13	-1836.63	  395.36
     95.5700	  759.00	  784.86	-1839.36	  395.15
     95.6700	  773.00	  757.87	-1798.37	  394.94
     95.7700	  727.00	  734.84	-1821.34	  394.73
     95.8700	  691.00	  717.26	-1839.76	  394.52
     95.9700	  690.00	  706.45	-1829.95	  394.30
     96.0700	  675.00	  703.56	-1842.06	  394.09
     96.1700	  675.00	  709.59	-1848.09	  393.87
     96.2700	  668.00	  725.36	-1870.86	  393.65
     96.3700	  715.00	  751.43	-1849.93	  393.43
     96.4700	  735.00	  788.10	-1866.60	  393.21
     96.5700	  867.00	  835.26	-1781.76	  392.98
     96.6700	  878.00	  892.28	-1827.78	  392.76
     96.7700	  936.00	  957.97	-1835.47	  392.53
     96.8700	 1100.00	 1030.43	-1743.93	  392.31
     96.9700	 1044.00	 1107.05	-1876.55	  392.08
     97.0700	 1141.00	 1184.53	-1857.03	  391.85
     97.1700	 1217.00	 1258.94	-1855.44	  391.62
     97.2700	 1350.00	 1325.83	-1789.33	  391.39
     97.3700	 1346.00	 1380.64	-1848.14	  391.15
     97.4700	 1378.00	 1419.11	-1854.61	  390.92
     97.5700	 1366.00	 1438.08	-1885.58	  390.68
     97.6700	 1458.00	 1436.07	-1791.57	  390.45
     97.7700	 1390.00	 1413.73	-1837.23	  390.21
     97.8700	 1371.00	 1373.50	-1816.00	  389.97
     97.9700	 1345.00	 1319.19	-1787.69	  389.73
     98.0700	 1251.00	 1255.08	-1817.58	  389.49
     98.1700	 1161.00	 1185.58	-1838.08	  389.25
     98.2700	 1153.00	 1114.85	-1775.35	  389.01
     98.3700	 1024.00	 1046.56	-1836.06	  388.76
     98.4700	  970.00	  983.86	-1827.36	  388.52
     98.5700	  919.00	  929.28	-1823.78	  388.27
     98.6700	  931.00	  884.80	-1767.30	  388.02
     98.7700	  858.00	  851.94	-1807.44	  387.77
     98.8700	  781.00	  831.76	-1864.26	  387.52
     98.9700	  826.00	  825.02	-1812.52	  387.27
     99.0700	  813.00	  832.19	-1832.69	  387.02
     99.1700	  784.00	  853.55	-1883.05	  386.77
     99.2700	  887.00	  889.15	-1815.65	  386.52
     99.3700	  873.00	  938.85	-1879.35	  386.26
     99.4700	  922.00	 1002.22	-1893.72	  386.01
     99.5700	 1064.00	 1078.54	-1828.04	  385.75
     99.6700	 1136.00	 1166.60	-1844.10	  385.50
     99.7700	 1208.00	 1264.67	-1870.17	  385.24
     99.8700	 1336.00	 1370.43	-1847.93	  384.98
     99.9700	 1404.00	 1480.81	-1890.31	  384.72
    100.0700	 1548.00	 1592.10	-1857.60	  384.46
    100.1700	 1755.00	 1700.02	-1758.52	  384.20
    100.2700	 1850.00	 1800.01	-1763.51	  383.94
    100.3700	 1922.00	 1887.87	-1779.37	  383.68
    100.4700	 2006.00	 1960.05	-1767.55	  383.41
    100.5700	 2030.00	 2014.02	-1797.52	  383.15
    100.6700	 2093.00	 2048.16	-1768.66	  382.89
    100.7700	 2147.00	 2061.47	-1727.97	  382.62
    100.8700	 2102.00	 2053.50	-1765.00	  382.35
    100.9700	 2067.00	 2024.36	-1770.86	  382.09
    101.0700	 2045.00	 1975.15	-1743.65	  381.82
    101.1700	 1848.00	 1908.22	-1873.72	  381.55
    101.2700	 1914.00	 1827.30	-1726.80	  381.29
    101.3700	 1805.00	 1737.05	-1745.55	  381.02
    101.4700	 1673.00	 1642.58	-1783.08	  380.75
    101.5700	 1559.00	 1548.69	-1803.19	  380.48
    101.6700	 1535.00	 1459.63	-1738.13	  380.21
    101.7700	 1405.00	 1378.68	-1787.18	  379.94
    101.8700	 1259.00	 1308.06	-1862.56	  379.67
    101.9700	 1277.00	 1248.92	-1785.42	  379.39
    102.0700	 1244.00	 1201.29	-1770.79	  379.12
    102.1700	 1159.00	 1164.28	-1818.78	  378.85
    102.2700	 1106.00	 1136.15	-1843.65	  378.58
    102.3700	 1124.00	 1114.51	-1804.01	  378.30
    102.4700	 1123.00	 1096.64	-1787.14	  378.03
    102.5700	 1080.00	 1079.70	-1813.20	  377.76
    102.6700	 1098.00	 1061.21	-1776.71	  377.48
    102.7700	 1009.00	 1039.31	-1843.81	  377.21
    102.8700	 1030.00	 1012.99	-1796.49	  376.93
    102.9700	  966.00	  982.09	-1829.59	  376.66
    103.0700	  937.00	  947.16	-1823.66	  376.38
    103.1700	  891.00	  909.20	-1831.70	  376.11
    103.2700	  863.00	  869.46	-1819.96	  375.83
    103.3700	  826.00	  829.21	-1816.71	  375.55
    103.4700	  781.00	  789.67	-1822.17	  375.28
    103.5700	  751.00	  751.93	-1814.43	  375.00
    103.6700	  729.00	  716.84	-1801.34	  374.73
    103.7700	  660.00	  685.06	-1838.56	  374.45
    103.8700	  607.00	  656.97	-1863.47	  374.17
    103.9700	  628.00	  632.77	-1818.27	  373.90
    104.0700	  615.00	  612.44	-1810.94	  373.62
    104.1700	  576.00	  595.80	-1833.30	  373.35
    104.2700	  598.00	  582.56	-1798.06	  373.07
    104.3700	  554.00	  572.36	-1831.86	  372.79
    104.4700	  567.00	  564.81	-1811.31	  372.52
    104.5700	  527.00	  559.50	-1846.00	  372.24
    104.6700	  564.00	  556.06	-1805.56	  371.97
    104.7700	  499.00	  554.15	-1868.65	  371.69
    104.8700	  532.00	  553.45	-1834.95	  371.42
    104.9700	  531.00	  553.73	-1836.23	  371.14
    105.0700	  539.00	  554.75	-1829.25	  370.87
    105.1700	  602.00	  556.35	-1767.85	  370.59
    105.2700	  537.00	  558.41	-1834.91	  370.32
    105.3700	  517.00	  560.84	-1857.34	  370.05
    105.4700	  554.00	  563.56	-1823.06	  369.77
    105.5700	  549.00	  566.61	-1831.11	  369.50
    105.6700	  584.00	  570.02	-1799.52	  369.23
    105.7700	  497.00	  573.85	-1890.35	  368.96
    105.8700	  536.00	  578.22	-1855.72	  368.69
    105.9700	  548.00	  583.26	-1848.76	  368.41
    106.0700	  548.00	  589.07	-1854.57	  368.14
    106.1700	  553.00	  595.72	-1856.22	  367.87
    106.2700	  557.00	  603.26	-1859.76	  367.61
    106.3700	  616.00	  611.64	-1809.14	  367.34
    106.4700	  575.00	  620.75	-1859.25	  367.07
    106.5700	  630.00	  630.42	-1813.92	  366.80
    106.6700	  655.00	  640.37	-1798.87	  366.54
    106.7700	  627.00	  650.29	-1836.79	  366.27
    106.8700	  618.00	  659.81	-1855.31	  366.00
    106.9700	  641.00	  668.51	-1841.01	  365.74
    107.0700	  690.00	  676.01	-1799.51	  365.48
    107.1700	  675.00	  681.95	-1820.45	  365.22
    107.2700	  714.00	  686.10	-1785.60	  364.95
    107.3700	  678.00	  688.37	-1823.87	  364.69
    107.4700	  648.00	  688.85	-1854.35	  364.43
    107.5700	  695.00	  687.84	-1806.34	  364.17
    107.6700	  710.00	  685.73	-1789.23	  363.92
    107.7700	  653.00	  682.98	-1843.48	  363.66
    107.8700	  694.00	  680.07	-1799.57	  363.40
    107.9700	  661.00	  677.40	-1829.90	  363.15
    108.0700	  688.00	  675.30	-1800.80	  362.90
    108.1700	  630.00	  673.99	-1857.49	  362.65
    108.2700	  744.00	  673.58	-1743.08	  362.39
    108.3700	  647.00	  674.02	-1840.52	  362.14
    108.4700	  670.00	  675.16	-1818.66	  361.90
    108.5700	  685.00	  676.75	-1805.25	  361.65
    108.6700	  669.00	  678.43	-1822.93	  361.40
    108.7700	  683.00	  679.79	-1810.29	  361.16
    108.8700	  735.00	  680.40	-1758.90	  360.92
    108.9700	  711.00	  679.84	-1782.34	  360.67
    109.0700	  662.00	  677.80	-1829.30	  360.43
    109.1700	  676.00	  674.10	-1811.60	  360.20
    109.2700	  662.00	  668.67	-1820.17	  359.96
    109.3700	  624.00	  661.64	-1851.14	  359.72
    109.4700	  649.00	  653.23	-1817.73	  359.49
    109.5700	  627.00	  643.75	-1830.25	  359.26
    109.6700	  603.00	  633.54	-1844.04	  359.03
    109.7700	  638.00	  622.96	-1798.46	  358.80
    109.8700	  630.00	  612.35	-1795.85	  358.57
    109.9700	  611.00	  602.03	-1804.53	  358.35
    110.0700	  580.00	  592.26	-1825.76	  358.12
    110.1700	  604.00	  583.25	-1792.75	  357.90
    110.2700	  573.00	  575.16	-1815.66	  357.68
    110.3700	  564.00	  568.09	-1817.59	  357.46
    110.4700	  565.00	  562.09	-1810.59	  357.25
    110.5700	  523.00	  557.16	-1847.66	  357.04
    110.6700	  552.00	  553.25	-1814.75	  356.82
    110.7700	  555.00	  550.31	-1808.81	  356.61
    110.8700	  542.00	  548.25	-1819.75	  356.41
    110.9700	  555.00	  546.98	-1805.48	  356.20
    111.0700	  520.00	  546.39	-1839.89	  356.00
    111.1700	  519.00	  546.40	-1840.90	  355.80
    111.2700	  536.00	  546.92	-1824.42	  355.60
    111.3700	  560.00	  547.86	-1801.36	  355.40
    111.4700	  533.00	  549.18	-1829.68	  355.21
    111.5700	  560.00	  550.81	-1804.31	  355.02
    111.6700	  561.00	  552.71	-1805.21	  354.83
    111.7700	  514.00	  554.86	-1854.36	  354.64
    111.8700	  545.00	  557.23	-1825.73	  354.46
    111.9700	  539.00	  559.82	-1834.32	  354.28
    112.0700	  586.00	  562.63	-1790.13	  354.10
    112.1700	  544.00	  565.66	-1835.16	  353.92
    112.2700	  614.00	  568.95	-1768.45	  353.75
    112.3700	  574.00	  572.51	-1812.01	  353.58
    112.4700	  609.00	  576.38	-1780.88	  353.41
    112.5700	  616.00	  580.62	-1778.12	  353.24
    112.6700	  663.00	  585.29	-1735.79	  353.08
    112.7700	  645.00	  590.47	-1758.97	  352.92
    112.8700	  631.00	  596.28	-1778.78	  352.77
    112.9700	  674.00	  602.84	-1742.34	  352.61
    113.0700	  698.00	  610.36	-1725.86	  352.46
    113.1700	  713.00	  619.07	-1719.57	  352.31
    113.2700	  725.00	  629.26	-1717.76	  352.17
    113.3700	  801.00	  641.33	-1653.83	  352.03
    113.4700	  769.00	  655.77	-1700.27	  351.89
    113.5700	  895.00	  673.17	-1591.67	  351.76
    113.6700	  853.00	  694.31	-1654.81	  351.62
    113.7700	  919.00	  720.10	-1614.60	  351.50
    113.8700	  946.00	  751.64	-1619.14	  351.37
    113.9700	 1002.00	  790.24	-1601.74	  351.25
    114.0700	 1135.00	  837.40	-1515.90	  351.13
    114.1700	 1159.00	  894.84	-1549.34	  351.02
    114.2700	 1165.00	  964.51	-1613.01	  350.91
    114.3700	 1288.00	 1048.48	-1573.98	  350.80
    114.4700	 1351.00	 1148.98	-1611.48	  350.70
    114.5700	 1479.00	 1268.28	-1602.78	  350.60
    114.6700	 1511.00	 1408.67	-1711.17	  350.50
    114.7700	 1707.00	 1572.29	-1678.79	  350.41
    114.8700	 1906.00	 1761.04	-1668.54	  350.32
    114.9700	 2052.00	 1976.41	-1737.91	  350.23
    115.0700	 2325.00	 2219.31	-1707.81	  350.15
    115.1700	 2483.00	 2490.05	-1820.55	  350.08
    115.2700	 2740.00	 2788.11	-1861.61	  350.00
    115.3700	 3115.00	 3111.92	-1810.42	  349.93
    115.4700	 3342.00	 3458.87	-1930.37	  349.87
    115.5700	 3688.00	 3825.15	-1950.65	  349.81
    115.6700	 3880.00	 4205.87	-2139.37	  349.75
    115.7700	 4482.00	 4594.94	-1926.44	  349.70
    115.8700	 4694.00	 4984.96	-2104.46	  349.65
    115.9700	 4994.00	 5367.50	-2187.00	  349.61
    116.0700	 5477.00	 5733.06	-2069.56	  349.57
    116.1700	 5730.00	 6071.45	-2154.95	  349.54
    116.2700	 6246.00	 6372.04	-1939.54	  349.51
    116.3700	 6445.00	 6624.13	-1992.63	  349.48
    116.4700	 6706.00	 6817.86	-1925.36	  349.46
    116.5700	 6902.00	 6944.98	-1856.48	  349.44
    116.6700	 7254.00	 6999.84	-1559.34	  349.43
    116.7700	 7076.00	 6980.01	-1717.51	  349.43
    116.8700	 7101.00	 6886.64	-1599.14	  349.43
    116.9700	 6842.00	 6724.34	-1695.84	  349.43
    117.0700	 6638.00	 6500.57	-1676.07	  349.44
    117.1700	 6459.00	 6224.66	-1579.16	  349.45
    117.2700	 5904.00	 5907.00	-1816.50	  349.47
    117.3700	 5354.00	 5558.29	-2017.79	  349.49
    117.4700	 5088.00	 5188.91	-1914.41	  349.52
    117.5700	 4878.00	 4808.57	-1744.07	  349.55
    117.6700	 4702.00	 4425.92	-1537.42	  349.59
    117.7700	 4241.00	 4048.48	-1620.98	  349.64
    117.8700	 3823.00	 3682.74	-1673.24	  349.69
    117.9700	 3549.00	 3333.88	-1598.38	  349.74
    118.0700	 3037.00	 3005.98	-1782.48	  349.80
    118.1700	 2760.00	 2701.82	-1755.32	  349.87
    118.2700	 2386.00	 2423.17	-1850.67	  349.94
    118.3700	 2147.00	 2170.91	-1837.41	  350.02
    118.4700	 1895.00	 1945.07	-1863.57	  350.10
    118.5700	 1579.00	 1745.00	-1979.50	  350.19
    118.6700	 1412.00	 1569.47	-1970.97	  350.28
    118.7700	 1297.00	 1416.83	-1933.33	  350.38
    118.8700	 1115.00	 1285.23	-1983.73	  350.49
    118.9700	 1076.00	 1172.62	-1910.12	  350.60
    119.0700	 1028.00	 1076.91	-1862.41	  350.72
    119.1700	  910.00	  996.02	-1899.52	  350.84
    119.2700	  867.00	  927.97	-1874.47	  350.97
    119.3700	  833.00	  870.94	-1851.44	  351.11
    119.4700	  769.00	  823.27	-1867.77	  351.25
    119.5700	  717.00	  783.50	-1880.00	  351.40
    119.6700	  704.00	  750.34	-1859.84	  351.56
    119.7700	  602.00	  722.68	-1934.18	  351.72
    119.8700	  629.00	  699.60	-1884.10	  351.89
    119.9700	  684.00	  680.31	-1809.81	  352.07
    120.0700	  569.00	  664.18	-1908.68	  352.25
    120.1700	  599.00	  650.66	-1865.16	  352.44
    120.2700	  604.00	  639.34	-1848.84	  352.63
    120.3700	  624.00	  629.85	-1819.35	  352.83
    120.4700	  578.00	  621.94	-1857.44	  353.04
    120.5700	  625.00	  615.36	-1803.86	  353.26
    120.6700	  545.00	  609.94	-1878.44	  353.48
    120.7700	  604.00	  605.55	-1815.05	  353.71
    120.8700	  577.00	  602.08	-1838.57	  353.95
    120.9700	  593.00	  599.43	-1819.93	  354.19
    121.0700	  546.00	  597.53	-1865.03	  354.45
    121.1700	  564.00	  596.35	-1845.85	  354.71
    121.2700	  586.00	  595.81	-1823.31	  354.97
    121.3700	  543.00	  595.88	-1866.38	  355.25
    121.4700	  564.00	  596.51	-1846.01	  355.53
    121.5700	  525.00	  597.65	-1886.15	  355.82
    121.6700	  544.00	  599.26	-1868.76	  356.11
    121.7700	  538.00	  601.28	-1876.78	  356.42
    121.8700	  558.00	  603.63	-1859.13	  356.73
    121.9700	  627.00	  606.26	-1792.76	  357.05
    122.0700	  609.00	  609.09	-1813.59	  357.38
    122.1700	  641.00	  612.02	-1784.52	  357.71
    122.2700	  646.00	  614.95	-1782.45	  358.06
    122.3700	  665.00	  617.81	-1766.31	  358.41
    122.4700	  617.00	  620.48	-1816.98	  358.77
    122.5700	  616.00	  622.86	-1820.36	  359.14
    122.6700	  611.00	  624.86	-1827.36	  359.51
    122.7700	  662.00	  626.39	-1777.89	  359.90
    122.8700	  659.00	  627.41	-1781.91	  360.29
    122.9700	  661.00	  627.85	-1780.35	  360.69
    123.0700	  688.00	  627.72	-1753.22	  361.10
    123.1700	  671.00	  627.01	-1769.51	  361.52
    123.2700	  640.00	  625.76	-1799.26	  361.95
    123.3700	  671.00	  624.01	-1766.51	  362.39
    123.4700	  640.00	  621.83	-1795.33	  362.83
    123.5700	  647.00	  619.29	-1785.79	  363.29
    123.6700	  635.00	  616.44	-1794.94	  363.75
    123.7700	  573.00	  613.37	-1853.87	  364.22
    123.8700	  622.00	  610.14	-1801.64	  364.70
    123.9700	  599.00	  606.83	-1821.33	  365.19
    124.0700	  623.00	  603.48	-1793.98	  365.69
    124.1700	  610.00	  600.15	-1803.65	  366.20
    124.2700	  579.00	  596.89	-1831.39	  366.72
    124.3700	  612.00	  593.75	-1795.25	  367.25
    124.4700	  633.00	  590.74	-1771.24	  367.79
    124.5700	  635.00	  587.90	-1766.40	  368.34
    124.6700	  566.00	  585.25	-1832.75	  368.89
    124.7700	  618.00	  582.80	-1778.30	  369.46
    124.8700	  598.00	  580.55	-1796.05	  370.04
    124.9700	  586.00	  487.10	-1714.60	  370.62
    125.0700	  600.00	  487.70	-1813.50	  371.22
    125.1700	  558.00	  488.30	-1813.50	  371.83
    125.2700	  573.00	  488.92	-1813.50	  372.44
    125.3700	  577.00	  489.55	-1813.50	  373.07
    125.4700	  544.00	  490.18	-1813.50	  373.71
    125.5700	  562.00	  490.83	-1813.50	  374.36
    125.6700	  596.00	  491.49	-1813.50	  375.02
    125.7700	  600.00	  492.16	-1813.50	  375.68
    125.8700	  597.00	  492.84	-1813.50	  376.36
    125.9700	  578.00	  493.53	-1813.50	  377.05
    126.0700	  561.00	  494.23	-1813.50	  377.75
    126.1700	  564.00	  494.94	-1813.50	  378.47
    126.2700	  564.00	  495.66	-1813.50	  379.19
    126.3700	  614.00	  496.40	-1813.50	  379.92
    126.4700	  579.00	  497.14	-1813.50	  380.67
    126.5700	  616.00	  497.90	-1813.50	  381.42
    126.6700	  592.00	  498.67	-1813.50	  382.19
    126.7700	  659.00	  499.44	-1813.50	  382.97
    126.8700	  599.00	  500.23	-1813.50	  383.76
    126.9700	  608.00	  501.04	-1813.50	  384.56
    127.0700	  596.00	  501.85	-1813.50	  385.37
    127.1700	  649.00	  502.67	-1813.50	  386.20
    127.2700	  593.00	  503.51	-1813.50	  387.04
    127.3700	  691.00	  504.36	-1813.50	  387.88
    127.4700	  685.00	  505.22	-1813.50	  388.74
    127.5700	  681.00	  506.09	-1813.50	  389.62
    127.6700	  638.00	  506.97	-1813.50	  390.50
    127.7700	  653.00	  507.87	-1813.50	  391.40
    127.8700	  689.00	  508.78	-1813.50	  392.30
    127.9700	  671.00	  509.70	-1813.50	  393.22
    128.0700	  722.00	  510.63	-1813.50	  394.16
    128.1700	  727.00	  511.58	-1813.50	  395.10
    128.2700	  734.00	  512.54	-1813.50	  396.06
    128.3700	  779.00	  513.51	-1813.50	  397.03
    128.4700	  781.00	  514.49	-1813.50	  398.02
    128.5700	    0.00	  515.49	-1813.50	  399.01
    128.6700	    0.00	  516.50	-1813.50	  400.02
     12.3131	        	        	        	        	       0	(  0  0  2)	  0  1
     24.9020	        	        	        	        	       0	(  0  0  4)	  0  1
     28.3382	        	        	        	        	       0	(  1  0  0)	  0  1
     29.0358	        	        	        	        	       0	(  1  0  1)	  0  1
     31.0434	        	        	        	        	       0	(  1  0  2)	  0  1
     34.1537	        	        	        	        	       0	(  1  0  3)	  0  1
     37.8072	        	        	        	        	       0	(  0  0  6)	  0  1
     38.1333	        	        	        	        	       0	(  1  0  4)	  0  1
     42.7861	        	        	        	        	       0	(  1  0  5)	  0  1
     47.9732	        	        	        	        	       0	(  1  0  6)	  0  1
     50.2798	        	        	        	        	       0	(  1  1  0)	  0  1
     51.2355	        	        	        	        	       0	(  0  0  8)	  0  1
     52.0040	        	        	        	        	       0	(  1  1  2)	  0  1
     53.6069	        	        	        	        	       0	(  1  0  7)	  0  1
     56.9554	        	        	        	        	       0	(  1  1  4)	  0  1
     58.7788	        	        	        	        	       0	(  2  0  0)	  0  1
     59.1707	        	        	        	        	       0	(  2  0  1)	  0  1
     59.6408	        	        	        	        	       0	(  1  0  8)	  0  1
     60.3369	        	        	        	        	       0	(  2  0  2)	  0  1
     62.2516	        	        	        	        	       0	(  2  0  3)	  0  1
     64.6554	        	        	        	        	       0	(  1  1  6)	  0  1
     64.8775	        	        	        	        	       0	(  2  0  4)	  0  1
     65.4722	        	        	        	        	       0	(  0  0 10)	  0  1
     66.0610	        	        	        	        	       0	(  1  0  9)	  0  1
     68.1741	        	        	        	        	       0	(  2  0  5)	  0  1
     72.1045	        	        	        	        	       0	(  2  0  6)	  0  1
     72.8814	        	        	        	        	       0	(  1  0 10)	  0  1
     74.7000	        	        	        	        	       0	(  1  1  8)	  0  1
     76.6419	        	        	        	        	       0	(  2  0  7)	  0  1
     80.1440	        	        	        	        	       0	(  1  0 11)	  0  1
     80.9624	        	        	        	        	       0	(  0  0 12)	  0  1
     81.0264	        	        	        	        	       0	(  2  1  0)	  0  1
     81.3665	        	        	        	        	       0	(  2  1  1)	  0  1
     81.7760	        	        	        	        	       0	(  2  0  8)	  0  1
     82.3852	        	        	        	        	       0	(  2  1  2)	  0  1
     84.0779	        	        	        	        	       0	(  2  1  3)	  0  1
     86.4395	        	        	        	        	       0	(  2  1  4)	  0  1
     86.9806	        	        	        	        	       0	(  1  1 10)	  0  1
     87.5186	        	        	        	        	       0	(  2  0  9)	  0  1
     87.9241	        	        	        	        	       0	(  1  0 12)	  0  1
     89.4678	        	        	        	        	       0	(  2  1  5)	  0  1
     93.1683	        	        	        	        	       0	(  2  1  6)	  0  1
     93.9113	        	        	        	        	       0	(  2  0 10)	  0  1
     94.9204	        	        	        	        	       0	(  3  0  0)	  0  1
     95.2580	        	        	        	        	       0	(  3  0  1)	  0  1
     96.2722	        	        	        	        	       0	(  3  0  2)	  0  1
     96.3444	        	        	        	        	       0	(  1  0 13)	  0  1
     97.5608	        	        	        	        	       0	(  2  1  7)	  0  1
     97.9670	        	        	        	        	       0	(  3  0  3)	  0  1
     98.5160	        	        	        	        	       0	(  0  0 14)	  0  1
    100.3522	        	        	        	        	       0	(  3  0  4)	  0  1
    101.0398	        	        	        	        	       0	(  2  0 11)	  0  1
    101.8641	        	        	        	        	       0	(  1  1 12)	  0  1
    102.6881	        	        	        	        	       0	(  2  1  8)	  0  1
    103.4467	        	        	        	        	       0	(  3  0  5)	  0  1
    105.6064	        	        	        	        	       0	(  1  0 14)	  0  1
    107.2857	        	        	        	        	       0	(  3  0  6)	  0  1
    108.6310	        	        	        	        	       0	(  2  1  9)	  0  1
    109.0595	        	        	        	        	       0	(  2  0 12)	  0  1
    111.9309	        	        	        	        	       0	(  3  0  7)	  0  1
    115.5359	        	        	        	        	       0	(  2  1 10)	  0  1
    116.0632	        	        	        	        	       0	(  1  0 15)	  0  1
    116.6573	        	        	        	        	       0	(  2  2  0)	  0  1
    117.4909	        	        	        	        	       0	(  3  0  8)	  0  1
    118.1742	        	        	        	        	       0	(  2  2  2)	  0  1
    118.2558	        	        	        	        	       0	(  2  0 13)	  0  1
    120.0316	        	        	        	        	       0	(  0  0 16)	  0  1
    120.7321	        	        	        	        	       0	(  1  1 14)	  0  1
    122.8656	        	        	        	        	       0	(  2  2  4)	  0  1
    123.6745	        	        	        	        	       0	(  2  1 11)	  0  1
    124.1601	        	        	        	        	       0	(  3  0  9)	  0  1
    124.7290	        	        	        	        	       0	(  3  1  0)	  0  1
    125.1398	        	        	        	        	       0	(  3  1  1)	  0  1
    126.3849	        	        	        	        	       0	(  3  1  2)	  0  1
    128.4290	        	        	        	        	       0	(  1  0 16)	  0  1
    128.5063	        	        	        	        	       0	(  3  1  3)	  0  1
    129.2050	        	        	        	        	       0	(  2  0 14)	  0  1
    131.3181	        	        	        	        	       0	(  2  2  6)	  0  1
    131.5871	        	        	        	        	       0	(  3  1  4)	  0  1
    132.3150	        	        	        	        	       0	(  3  0 10)	  0  1
    133.6057	        	        	        	        	       0	(  2  1 12)	  0  1
    135.7816	        	        	        	        	       0	(  3  1  5)	  0  1
    141.3893	        	        	        	        	       0	(  3  1  6)	  0  1
    142.8204	        	        	        	        	       0	(  3  0 11)	  0  1
    143.3869	        	        	        	        	       0	(  2  0 15)	  0  1
    144.6528	        	        	        	        	       0	(  1  0 17)	  0  1
    145.5856	        	        	        	        	       0	(  2  2  8)	  0  1
    146.8034	        	        	        	        	       0	(  2  1 13)	  0  1
    149.0860	        	        	        	        	       0	(  3  1  7)	  0  1
    149.7607	        	        	        	        	       0	(  1  1 16)	  0  1
    154.2234	        	        	        	        	       0	(  0  0 18)	  0  1
    158.7897	        	        	        	        	       0	(  3  0 12)	  0  1
    158.9662	        	        	        	        	       0	(  4  0  0)	  0  1
    159.9297	        	        	        	        	       0	(  4  0  1)	  0  1
    161.1538	        	        	        	        	       0	(  3  1  8)	  0  1
    163.1358	        	        	        	        	       0	(  4  0  2)	  0  1
    170.2479	        	        	        	        	       0	(  2  0 16)	  0  1
    170.6161	        	        	        	        	       0	(  4  0  3)	  0  1
    175.0473	        	        	        	        	       0	(  2  1 14)	  0  1
