MSG Master    CELL:    5.91930   5.91930  23.27472   90.0000   90.0000  120.0000   SPGR: P 63/m m c             TEMP:   1074.85
  1   1280     2.52000     0.00000    -0.12307     0.00000     0.00000    0
    99     0     2
       0.00000      10.00000
     125.00000     130.00000
 2Theta	Yobs	Ycal	Yobs-Ycal	Backg	Posr	(hkl)	K
      0.7700	    0.00	  548.81	-1763.25	  430.50
      0.8700	    0.00	  549.59	-1763.25	  431.27
      0.9700	   30.00	  550.35	-1763.25	  432.04
      1.0700	   52.00	  551.10	-1763.25	  432.79
      1.1700	   35.00	  551.85	-1763.25	  433.53
      1.2700	   50.00	  552.58	-1763.25	  434.26
      1.3700	   47.00	  553.29	-1763.25	  434.98
      1.4700	   98.00	  554.00	-1763.25	  435.69
      1.5700	  293.00	  554.70	-1763.25	  436.39
      1.6700	  443.00	  555.38	-1763.25	  437.07
      1.7700	  594.00	  556.06	-1763.25	  437.75
      1.8700	  661.00	  556.72	-1763.25	  438.41
      1.9700	  709.00	  557.37	-1763.25	  439.06
      2.0700	  771.00	  558.01	-1763.25	  439.70
      2.1700	  818.00	  558.64	-1763.25	  440.33
      2.2700	  782.00	  559.26	-1763.25	  440.95
      2.3700	  738.00	  559.87	-1763.25	  441.56
      2.4700	  713.00	  560.47	-1763.25	  442.16
      2.5700	  697.00	  561.06	-1763.25	  442.75
      2.6700	  660.00	  561.64	-1763.25	  443.33
      2.7700	  671.00	  562.20	-1763.25	  443.89
      2.8700	  669.00	  562.76	-1763.25	  444.45
      2.9700	  636.00	  563.31	-1763.25	  445.00
      3.0700	  635.00	  563.85	-1763.25	  445.54
      3.1700	  599.00	  564.37	-1763.25	  446.06
      3.2700	  637.00	  564.89	-1763.25	  446.58
      3.3700	  659.00	  565.40	-1763.25	  447.09
      3.4700	  734.00	  565.89	-1763.25	  447.58
      3.5700	  786.00	  566.38	-1763.25	  448.07
      3.6700	  827.00	  566.86	-1763.25	  448.55
      3.7700	 1017.00	  567.33	-1763.25	  449.02
      3.8700	  971.00	  567.79	-1763.25	  449.48
      3.9700	 1037.00	  568.24	-1763.25	  449.92
      4.0700	 1083.00	  568.68	-1763.25	  450.36
      4.1700	 1100.00	  569.11	-1763.25	  450.80
      4.2700	 1122.00	  569.53	-1763.25	  451.22
      4.3700	 1067.00	  569.94	-1763.25	  451.63
      4.4700	 1088.00	  570.34	-1763.25	  452.03
      4.5700	 1085.00	  570.74	-1763.25	  452.43
      4.6700	 1043.00	  571.12	-1763.25	  452.81
      4.7700	 1010.00	  571.50	-1763.25	  453.19
      4.8700	 1001.00	  571.87	-1763.25	  453.55
      4.9700	 1011.00	  572.22	-1763.25	  453.91
      5.0700	  931.00	  572.57	-1763.25	  454.26
      5.1700	  892.00	  572.92	-1763.25	  454.60
      5.2700	  861.00	  573.25	-1763.25	  454.94
      5.3700	  907.00	  573.57	-1763.25	  455.26
      5.4700	  897.00	  573.89	-1763.25	  455.58
      5.5700	  840.00	  574.20	-1763.25	  455.89
      5.6700	  869.00	  574.50	-1763.25	  456.18
      5.7700	  858.00	  574.79	-1763.25	  456.48
      5.8700	  871.00	  575.07	-1763.25	  456.76
      5.9700	  852.00	  575.34	-1763.25	  457.03
      6.0700	  819.00	  575.61	-1763.25	  457.30
      6.1700	  811.00	  575.87	-1763.25	  457.56
      6.2700	  762.00	  576.12	-1763.25	  457.81
      6.3700	  745.00	  576.36	-1763.25	  458.05
      6.4700	  761.00	  576.60	-1763.25	  458.29
      6.5700	  746.00	  576.83	-1763.25	  458.52
      6.6700	  732.00	  577.05	-1763.25	  458.74
      6.7700	  704.00	  577.26	-1763.25	  458.95
      6.8700	  688.00	  577.46	-1763.25	  459.15
      6.9700	  761.00	  577.66	-1763.25	  459.35
      7.0700	  726.00	  577.85	-1763.25	  459.54
      7.1700	  670.00	  578.03	-1763.25	  459.72
      7.2700	  701.00	  578.21	-1763.25	  459.90
      7.3700	  635.00	  578.38	-1763.25	  460.07
      7.4700	  644.00	  578.54	-1763.25	  460.23
      7.5700	  636.00	  578.69	-1763.25	  460.38
      7.6700	  637.00	  578.84	-1763.25	  460.53
      7.7700	  637.00	  578.98	-1763.25	  460.67
      7.8700	  662.00	  579.12	-1763.25	  460.80
      7.9700	  607.00	  579.24	-1763.25	  460.93
      8.0700	  643.00	  579.36	-1763.25	  461.05
      8.1700	  675.00	  579.47	-1763.25	  461.16
      8.2700	  624.00	  579.58	-1763.25	  461.27
      8.3700	  653.00	  579.68	-1763.25	  461.37
      8.4700	  612.00	  579.77	-1763.25	  461.46
      8.5700	  653.00	  579.86	-1763.25	  461.55
      8.6700	  593.00	  579.94	-1763.25	  461.63
      8.7700	  666.00	  580.02	-1763.25	  461.71
      8.8700	  588.00	  580.08	-1763.25	  461.77
      8.9700	  611.00	  580.15	-1763.25	  461.83
      9.0700	  638.00	  580.20	-1763.25	  461.89
      9.1700	  617.00	  580.25	-1763.25	  461.94
      9.2700	  607.00	  580.29	-1763.25	  461.98
      9.3700	  536.00	  580.33	-1763.25	  462.02
      9.4700	  650.00	  580.36	-1763.25	  462.05
      9.5700	  592.00	  580.39	-1763.25	  462.08
      9.6700	  637.00	  580.41	-1763.25	  462.10
      9.7700	  559.00	  580.42	-1763.25	  462.11
      9.8700	  621.00	  580.43	-1763.25	  462.12
      9.9700	  631.00	  580.43	-1763.25	  462.12
     10.0700	  635.00	  581.15	-1709.40	  462.12
     10.1700	  553.00	  581.22	-1791.47	  462.11
     10.2700	  619.00	  581.30	-1725.55	  462.09
     10.3700	  575.00	  581.40	-1769.65	  462.07
     10.4700	  585.00	  581.55	-1759.80	  462.05
     10.5700	  632.00	  581.80	-1713.05	  462.02
     10.6700	  572.00	  582.23	-1773.48	  461.98
     10.7700	  589.00	  582.97	-1757.22	  461.94
     10.8700	  594.00	  584.06	-1753.31	  461.90
     10.9700	  597.00	  585.52	-1751.77	  461.85
     11.0700	  628.00	  587.30	-1722.55	  461.79
     11.1700	  585.00	  589.39	-1767.64	  461.73
     11.2700	  597.00	  591.83	-1758.08	  461.66
     11.3700	  631.00	  594.69	-1726.94	  461.59
     11.4700	  575.00	  598.10	-1786.35	  461.51
     11.5700	  637.00	  602.23	-1728.48	  461.43
     11.6700	  617.00	  607.42	-1753.67	  461.35
     11.7700	  579.00	  614.23	-1798.48	  461.26
     11.8700	  632.00	  623.55	-1754.80	  461.16
     11.9700	  648.00	  636.11	-1751.36	  461.06
     12.0700	  672.00	  650.57	-1741.82	  460.96
     12.1700	  700.00	  661.09	-1724.34	  460.85
     12.2700	  697.00	  658.22	-1724.47	  460.74
     12.3700	  652.00	  638.83	-1750.08	  460.62
     12.4700	  623.00	  614.88	-1755.13	  460.50
     12.5700	  581.00	  597.43	-1779.68	  460.37
     12.6700	  682.00	  588.07	-1669.32	  460.24
     12.7700	  569.00	  583.91	-1778.16	  460.11
     12.8700	  576.00	  582.05	-1769.30	  459.97
     12.9700	  602.00	  581.02	-1742.27	  459.82
     13.0700	  582.00	  580.31	-1761.56	  459.68
     13.1700	  592.00	  579.76	-1751.01	  459.53
     13.2700	  543.00	  579.31	-1799.56	  459.37
     13.3700	  569.00	  578.92	-1773.17	  459.21
     13.4700	  599.00	  578.58	-1742.83	  459.05
     13.5700	  553.00	  578.27	-1788.52	  458.88
     13.6700	  549.00	  577.98	-1792.23	  458.71
     13.7700	  587.00	  577.71	-1753.96	  458.54
     13.8700	  554.00	  577.46	-1786.71	  458.36
     13.9700	  536.00	  577.21	-1804.46	  458.18
     14.0700	  542.00	  576.97	-1798.22	  457.99
     14.1700	  566.00	  576.73	-1773.98	  457.81
     14.2700	  570.00	  576.49	-1769.74	  457.61
     14.3700	  550.00	  576.26	-1789.51	  457.42
     14.4700	  545.00	  576.03	-1794.28	  457.22
     14.5700	  574.00	  575.80	-1765.05	  457.02
     14.6700	  542.00	  575.57	-1796.82	  456.81
     14.7700	  547.00	  575.34	-1791.59	  456.60
     14.8700	  559.00	  575.11	-1779.36	  456.39
     14.9700	  581.00	  574.88	-1757.13	  456.18
     15.0700	  567.00	  574.64	-1770.89	  455.96
     15.1700	  577.00	  574.41	-1760.66	  455.73
     15.2700	  593.00	  574.17	-1744.42	  455.51
     15.3700	  556.00	  573.93	-1781.18	  455.28
     15.4700	  588.00	  573.69	-1748.94	  455.05
     15.5700	  556.00	  573.44	-1780.69	  454.82
     15.6700	  552.00	  573.20	-1784.45	  454.58
     15.7700	  560.00	  572.95	-1776.20	  454.34
     15.8700	  586.00	  572.70	-1749.95	  454.10
     15.9700	  566.00	  572.45	-1769.70	  453.86
     16.0700	  573.00	  572.19	-1762.44	  453.61
     16.1700	  572.00	  571.94	-1763.19	  453.36
     16.2700	  507.00	  571.71	-1827.96	  453.10
     16.3700	  567.00	  571.45	-1767.70	  452.85
     16.4700	  547.00	  571.18	-1787.43	  452.59
     16.5700	  575.00	  570.92	-1759.17	  452.33
     16.6700	  609.00	  570.65	-1724.90	  452.07
     16.7700	  540.00	  570.38	-1793.63	  451.80
     16.8700	  606.00	  570.11	-1727.36	  451.53
     16.9700	  592.00	  569.84	-1741.09	  451.26
     17.0700	  568.00	  569.56	-1764.81	  450.99
     17.1700	  599.00	  569.29	-1733.54	  450.71
     17.2700	  601.00	  569.01	-1731.26	  450.44
     17.3700	  542.00	  568.73	-1789.98	  450.16
     17.4700	  568.00	  568.44	-1763.69	  449.88
     17.5700	  574.00	  568.16	-1757.41	  449.59
     17.6700	  563.00	  567.87	-1768.12	  449.31
     17.7700	  499.00	  567.58	-1831.83	  449.02
     17.8700	  528.00	  567.29	-1802.54	  448.73
     17.9700	  580.00	  567.10	-1750.35	  448.44
     18.0700	  538.00	  566.81	-1792.06	  448.14
     18.1700	  562.00	  566.51	-1767.76	  447.85
     18.2700	  565.00	  566.22	-1764.47	  447.55
     18.3700	  562.00	  565.92	-1767.17	  447.25
     18.4700	  566.00	  565.62	-1762.87	  446.95
     18.5700	  503.00	  565.32	-1825.57	  446.64
     18.6700	  589.00	  565.02	-1739.27	  446.34
     18.7700	  566.00	  564.72	-1761.97	  446.03
     18.8700	  552.00	  564.49	-1775.74	  445.72
     18.9700	  542.00	  564.19	-1785.44	  445.41
     19.0700	  552.00	  563.88	-1775.13	  445.10
     19.1700	  541.00	  563.57	-1785.82	  444.79
     19.2700	  548.00	  563.26	-1778.51	  444.48
     19.3700	  608.00	  562.96	-1718.21	  444.16
     19.4700	  559.00	  562.64	-1766.89	  443.84
     19.5700	  555.00	  562.33	-1770.58	  443.52
     19.6700	  560.00	  562.02	-1765.27	  443.20
     19.7700	  575.00	  561.71	-1749.96	  442.88
     19.8700	  535.00	  561.39	-1789.64	  442.56
     19.9700	  548.00	  561.08	-1776.33	  442.23
     20.0700	  555.00	  560.76	-1769.01	  441.91
     20.1700	  551.00	  560.44	-1772.69	  441.58
     20.2700	  564.00	  560.12	-1759.37	  441.25
     20.3700	  576.00	  559.81	-1747.06	  440.93
     20.4700	  559.00	  559.49	-1763.74	  440.60
     20.5700	  513.00	  559.14	-1809.39	  440.26
     20.6700	  548.00	  558.82	-1774.07	  439.93
     20.7700	  520.00	  558.50	-1801.75	  439.60
     20.8700	  535.00	  558.18	-1786.43	  439.26
     20.9700	  546.00	  557.90	-1775.15	  438.93
     21.0700	  527.00	  557.58	-1793.83	  438.59
     21.1700	  537.00	  557.26	-1783.51	  438.26
     21.2700	  533.00	  556.94	-1787.19	  437.92
     21.3700	  543.00	  556.62	-1776.87	  437.58
     21.4700	  561.00	  556.30	-1758.55	  437.24
     21.5700	  564.00	  555.99	-1755.24	  436.90
     21.6700	  544.00	  555.67	-1774.92	  436.56
     21.7700	  560.00	  555.35	-1758.60	  436.22
     21.8700	  550.00	  555.04	-1768.29	  435.87
     21.9700	  553.00	  554.73	-1764.98	  435.53
     22.0700	  517.00	  554.42	-1800.67	  435.19
     22.1700	  557.00	  554.11	-1760.36	  434.84
     22.2700	  609.00	  553.80	-1708.05	  434.50
     22.3700	  561.00	  553.50	-1755.75	  434.15
     22.4700	  562.00	  553.20	-1754.45	  433.80
     22.5700	  566.00	  552.91	-1750.16	  433.46
     22.6700	  592.00	  552.62	-1723.87	  433.11
     22.7700	  564.00	  552.34	-1751.59	  432.76
     22.8700	  568.00	  552.06	-1747.31	  432.41
     22.9700	  539.00	  551.80	-1776.05	  432.07
     23.0700	  555.00	  551.55	-1759.80	  431.72
     23.1700	  603.00	  551.31	-1711.56	  431.37
     23.2700	  564.00	  551.09	-1750.34	  431.02
     23.3700	  594.00	  550.90	-1720.15	  430.67
     23.4700	  519.00	  550.74	-1794.99	  430.32
     23.5700	  522.00	  550.63	-1791.88	  429.97
     23.6700	  562.00	  550.58	-1751.83	  429.62
     23.7700	  550.00	  550.77	-1764.02	  429.27
     23.8700	  563.00	  551.03	-1751.28	  428.92
     23.9700	  589.00	  551.73	-1725.98	  428.57
     24.0700	  572.00	  553.28	-1744.53	  428.22
     24.1700	  541.00	  556.36	-1778.61	  427.86
     24.2700	  574.00	  561.84	-1751.09	  427.51
     24.3700	  581.00	  570.68	-1752.93	  427.16
     24.4700	  560.00	  583.97	-1787.22	  426.81
     24.5700	  576.00	  602.06	-1789.31	  426.46
     24.6700	  653.00	  622.18	-1732.43	  426.11
     24.7700	  608.00	  636.25	-1791.50	  425.76
     24.8700	  613.00	  633.27	-1783.52	  425.41
     24.9700	  616.00	  611.75	-1759.00	  425.06
     25.0700	  614.00	  585.61	-1734.86	  424.71
     25.1700	  582.00	  566.18	-1747.43	  424.36
     25.2700	  524.00	  555.35	-1794.60	  424.01
     25.3700	  528.00	  550.34	-1785.59	  423.66
     25.4700	  554.00	  548.08	-1757.33	  423.31
     25.5700	  534.00	  546.88	-1776.13	  422.96
     25.6700	  576.00	  546.09	-1733.34	  422.61
     25.7700	  620.00	  545.50	-1688.75	  422.26
     25.8700	  575.00	  545.05	-1733.30	  421.91
     25.9700	  549.00	  544.70	-1758.95	  421.56
     26.0700	  522.00	  544.44	-1785.69	  421.21
     26.1700	  548.00	  544.25	-1759.50	  420.87
     26.2700	  575.00	  544.13	-1732.38	  420.52
     26.3700	  539.00	  544.09	-1768.34	  420.17
     26.4700	  551.00	  544.14	-1756.39	  419.83
     26.5700	  571.00	  544.27	-1736.52	  419.48
     26.6700	  551.00	  544.52	-1756.77	  419.14
     26.7700	  527.00	  544.90	-1781.15	  418.79
     26.8700	  526.00	  545.45	-1782.70	  418.45
     26.9700	  578.00	  546.22	-1731.47	  418.10
     27.0700	  552.00	  547.29	-1758.54	  417.76
     27.1700	  500.00	  548.77	-1812.02	  417.42
     27.2700	  569.00	  550.93	-1745.18	  417.08
     27.3700	  542.00	  554.24	-1775.49	  416.73
     27.4700	  592.00	  559.65	-1730.90	  416.39
     27.5700	  541.00	  568.84	-1791.09	  416.05
     27.6700	  596.00	  584.51	-1751.76	  415.72
     27.7700	  607.00	  610.10	-1766.35	  415.38
     27.8700	  608.00	  648.63	-1803.88	  415.04
     27.9700	  669.00	  700.27	-1794.52	  414.70
     28.0700	  760.00	  759.24	-1762.49	  414.37
     28.1700	  926.00	  810.99	-1648.24	  414.03
     28.2700	  924.00	  833.54	-1672.79	  413.70
     28.3700	  952.00	  813.38	-1624.63	  413.36
     28.4700	  826.00	  770.65	-1707.90	  413.03
     28.5700	  705.00	  739.96	-1798.21	  412.70
     28.6700	  676.00	  737.57	-1824.82	  412.36
     28.7700	  729.00	  759.38	-1793.63	  412.03
     28.8700	  858.00	  786.42	-1691.67	  411.71
     28.9700	  802.00	  791.56	-1752.81	  411.38
     29.0700	  762.00	  756.96	-1758.21	  411.05
     29.1700	  702.00	  696.85	-1758.10	  410.72
     29.2700	  657.00	  639.00	-1745.25	  410.40
     29.3700	  593.00	  597.02	-1767.27	  410.07
     29.4700	  556.00	  571.54	-1778.79	  409.75
     29.5700	  571.00	  557.71	-1749.96	  409.43
     29.6700	  615.00	  550.40	-1698.65	  409.10
     29.7700	  646.00	  546.26	-1663.51	  408.78
     29.8700	  599.00	  543.68	-1707.93	  408.46
     29.9700	  619.00	  542.04	-1686.29	  408.14
     30.0700	  582.00	  541.18	-1722.43	  407.83
     30.1700	  559.00	  541.27	-1745.52	  407.51
     30.2700	  562.00	  542.83	-1744.08	  407.20
     30.3700	  569.00	  546.88	-1741.13	  406.88
     30.4700	  536.00	  555.03	-1782.28	  406.57
     30.5700	  581.00	  568.96	-1751.21	  406.26
     30.6700	  570.00	  589.20	-1782.45	  405.95
     30.7700	  610.00	  613.33	-1766.58	  405.64
     30.8700	  572.00	  634.57	-1825.82	  405.33
     30.9700	  639.00	  642.45	-1766.70	  405.02
     31.0700	  621.00	  629.57	-1771.82	  404.72
     31.1700	  603.00	  602.60	-1762.85	  404.41
     31.2700	  581.00	  575.23	-1757.48	  404.11
     31.3700	  528.00	  554.94	-1790.19	  403.81
     31.4700	  529.00	  542.57	-1776.82	  403.51
     31.5700	  520.00	  535.95	-1779.20	  403.21
     31.6700	  551.00	  532.54	-1744.79	  402.91
     31.7700	  548.00	  530.66	-1745.91	  402.61
     31.8700	  545.00	  529.47	-1747.72	  402.32
     31.9700	  543.00	  528.64	-1748.89	  402.02
     32.0700	  550.00	  528.04	-1741.29	  401.73
     32.1700	  577.00	  527.63	-1713.88	  401.44
     32.2700	  557.00	  527.37	-1733.62	  401.15
     32.3700	  540.00	  527.27	-1750.52	  400.86
     32.4700	  564.00	  527.31	-1726.56	  400.57
     32.5700	  547.00	  527.53	-1743.78	  400.29
     32.6700	  550.00	  527.94	-1741.19	  400.00
     32.7700	  584.00	  528.60	-1707.85	  399.72
     32.8700	  555.00	  529.56	-1737.81	  399.44
     32.9700	  548.00	  530.94	-1746.19	  399.16
     33.0700	  524.00	  532.95	-1772.20	  398.88
     33.1700	  539.00	  536.04	-1760.29	  398.60
     33.2700	  550.00	  541.23	-1754.48	  398.33
     33.3700	  603.00	  550.78	-1711.03	  398.05
     33.4700	  560.00	  569.07	-1772.32	  397.78
     33.5700	  632.00	  603.08	-1734.33	  397.51
     33.6700	  619.00	  661.13	-1805.38	  397.24
     33.7700	  780.00	  747.20	-1730.45	  396.97
     33.8700	  919.00	  852.46	-1696.71	  396.71
     33.9700	 1008.00	  949.08	-1704.33	  396.44
     34.0700	 1033.00	  993.64	-1723.89	  396.18
     34.1700	 1014.00	  952.91	-1702.16	  395.92
     34.2700	  936.00	  847.60	-1674.85	  395.66
     34.3700	  706.00	  732.85	-1790.10	  395.40
     34.4700	  658.00	  643.58	-1748.83	  395.14
     34.5700	  623.00	  587.37	-1727.62	  394.89
     34.6700	  574.00	  556.98	-1746.23	  394.63
     34.7700	  535.00	  541.78	-1770.03	  394.38
     34.8700	  533.00	  533.91	-1764.16	  394.13
     34.9700	  535.00	  529.23	-1757.48	  393.88
     35.0700	  539.00	  526.00	-1750.25	  393.64
     35.1700	  505.00	  523.57	-1781.82	  393.39
     35.2700	  518.00	  521.66	-1766.91	  393.15
     35.3700	  497.00	  520.09	-1786.34	  392.91
     35.4700	  518.00	  518.79	-1764.04	  392.67
     35.5700	  491.00	  517.69	-1789.94	  392.43
     35.6700	  558.00	  516.74	-1721.99	  392.19
     35.7700	  527.00	  515.92	-1752.17	  391.95
     35.8700	  521.00	  515.19	-1757.44	  391.72
     35.9700	  539.00	  515.02	-1739.27	  391.49
     36.0700	  533.00	  514.45	-1744.70	  391.26
     36.1700	  521.00	  513.93	-1756.18	  391.03
     36.2700	  500.00	  513.46	-1776.71	  390.80
     36.3700	  519.00	  513.03	-1757.28	  390.58
     36.4700	  561.00	  512.64	-1714.89	  390.36
     36.5700	  457.00	  512.29	-1818.54	  390.13
     36.6700	  504.00	  511.98	-1771.23	  389.92
     36.7700	  523.00	  511.72	-1751.97	  389.70
     36.8700	  512.00	  511.52	-1762.77	  389.48
     36.9700	  518.00	  511.45	-1756.70	  389.27
     37.0700	  519.00	  511.62	-1755.87	  389.05
     37.1700	  486.00	  512.28	-1789.53	  388.84
     37.2700	  525.00	  513.80	-1752.05	  388.64
     37.3700	  510.00	  516.56	-1769.81	  388.43
     37.4700	  519.00	  520.56	-1764.81	  388.22
     37.5700	  497.00	  525.12	-1791.37	  388.02
     37.6700	  546.00	  528.70	-1745.95	  387.82
     37.7700	  563.00	  529.60	-1729.85	  387.62
     37.8700	  531.00	  527.41	-1759.66	  387.42
     37.9700	  545.00	  523.60	-1741.85	  387.22
     38.0700	  458.00	  519.56	-1824.81	  387.03
     38.1700	  499.00	  515.87	-1780.12	  386.84
     38.2700	  494.00	  512.80	-1782.05	  386.65
     38.3700	  518.00	  510.52	-1755.77	  386.46
     38.4700	  547.00	  508.96	-1725.21	  386.27
     38.5700	  510.00	  507.95	-1761.20	  386.08
     38.6700	  539.00	  507.30	-1731.55	  385.90
     38.7700	  546.00	  506.77	-1724.02	  385.72
     38.8700	  501.00	  506.45	-1768.70	  385.54
     38.9700	  507.00	  506.18	-1762.43	  385.36
     39.0700	  497.00	  505.94	-1772.19	  385.19
     39.1700	  525.00	  505.73	-1743.98	  385.01
     39.2700	  476.00	  505.45	-1792.70	  384.84
     39.3700	  467.00	  505.27	-1801.52	  384.67
     39.4700	  516.00	  505.09	-1752.34	  384.50
     39.5700	  528.00	  504.93	-1740.18	  384.33
     39.6700	  481.00	  504.90	-1787.15	  384.17
     39.7700	  461.00	  504.76	-1807.01	  384.01
     39.8700	  501.00	  504.63	-1766.88	  383.85
     39.9700	  532.00	  504.51	-1735.76	  383.69
     40.0700	  506.00	  504.39	-1761.64	  383.53
     40.1700	  519.00	  504.29	-1748.54	  383.37
     40.2700	  496.00	  504.20	-1771.45	  383.22
     40.3700	  464.00	  504.12	-1803.37	  383.07
     40.4700	  495.00	  504.05	-1772.30	  382.92
     40.5700	  515.00	  504.00	-1752.25	  382.77
     40.6700	  490.00	  503.97	-1777.22	  382.63
     40.7700	  501.00	  503.95	-1766.20	  382.48
     40.8700	  484.00	  503.96	-1783.21	  382.34
     40.9700	  501.00	  503.99	-1766.24	  382.20
     41.0700	  514.00	  504.06	-1753.31	  382.06
     41.1700	  478.00	  504.16	-1789.41	  381.93
     41.2700	  526.00	  504.28	-1741.53	  381.79
     41.3700	  485.00	  504.50	-1782.75	  381.66
     41.4700	  497.00	  504.80	-1771.05	  381.53
     41.5700	  493.00	  505.64	-1775.89	  381.40
     41.6700	  498.00	  506.23	-1771.48	  381.27
     41.7700	  516.00	  507.13	-1754.38	  381.15
     41.8700	  523.00	  508.62	-1748.87	  381.02
     41.9700	  522.00	  511.42	-1752.67	  380.90
     42.0700	  562.00	  516.88	-1718.13	  380.78
     42.1700	  518.00	  527.20	-1772.45	  380.67
     42.2700	  514.00	  545.08	-1794.33	  380.55
     42.3700	  501.00	  571.95	-1834.20	  380.44
     42.4700	  578.00	  605.99	-1791.24	  380.32
     42.5700	  540.00	  639.86	-1863.11	  380.21
     42.6700	  634.00	  661.34	-1790.59	  380.11
     42.7700	  609.00	  659.31	-1813.56	  380.00
     42.8700	  572.00	  633.91	-1825.16	  379.90
     42.9700	  577.00	  597.99	-1784.24	  379.79
     43.0700	  559.00	  564.24	-1768.49	  379.69
     43.1700	  539.00	  538.99	-1763.24	  379.59
     43.2700	  503.00	  523.03	-1783.28	  379.50
     43.3700	  474.00	  514.19	-1803.44	  379.40
     43.4700	  508.00	  509.67	-1764.92	  379.31
     43.5700	  497.00	  507.35	-1773.60	  379.22
     43.6700	  525.00	  506.04	-1744.29	  379.13
     43.7700	  540.00	  505.37	-1728.62	  379.04
     43.8700	  462.00	  504.76	-1806.01	  378.96
     43.9700	  527.00	  504.30	-1740.55	  378.87
     44.0700	  492.00	  503.94	-1775.19	  378.79
     44.1700	  494.00	  503.70	-1772.95	  378.71
     44.2700	  478.00	  503.49	-1788.74	  378.63
     44.3700	  531.00	  503.33	-1735.58	  378.56
     44.4700	  503.00	  503.21	-1763.46	  378.48
     44.5700	  491.00	  503.00	-1775.25	  378.41
     44.6700	  536.00	  502.95	-1730.20	  378.34
     44.7700	  485.00	  502.92	-1781.17	  378.27
     44.8700	  507.00	  502.93	-1759.18	  378.20
     44.9700	  515.00	  502.95	-1751.20	  378.14
     45.0700	  504.00	  503.00	-1762.25	  378.08
     45.1700	  520.00	  503.08	-1746.33	  378.01
     45.2700	  533.00	  503.35	-1733.60	  377.96
     45.3700	  521.00	  503.47	-1745.72	  377.90
     45.4700	  556.00	  503.61	-1710.86	  377.84
     45.5700	  519.00	  503.77	-1748.02	  377.79
     45.6700	  474.00	  503.96	-1793.21	  377.74
     45.7700	  493.00	  504.17	-1774.42	  377.68
     45.8700	  477.00	  504.41	-1790.66	  377.64
     45.9700	  500.00	  504.69	-1767.94	  377.59
     46.0700	  493.00	  504.99	-1775.24	  377.54
     46.1700	  515.00	  505.34	-1753.59	  377.50
     46.2700	  465.00	  505.73	-1803.98	  377.46
     46.3700	  493.00	  506.16	-1776.41	  377.42
     46.4700	  504.00	  506.66	-1765.91	  377.38
     46.5700	  497.00	  507.22	-1773.47	  377.35
     46.6700	  508.00	  507.87	-1763.12	  377.31
     46.7700	  540.00	  508.63	-1731.88	  377.28
     46.8700	  515.00	  509.54	-1757.79	  377.25
     46.9700	  487.00	  510.74	-1786.99	  377.22
     47.0700	  515.00	  512.47	-1760.72	  377.19
     47.1700	  463.00	  515.27	-1815.52	  377.17
     47.2700	  491.00	  519.98	-1792.23	  377.14
     47.3700	  516.00	  527.87	-1775.12	  377.12
     47.4700	  529.00	  539.98	-1774.23	  377.10
     47.5700	  529.00	  556.58	-1790.83	  377.08
     47.6700	  538.00	  576.04	-1801.29	  377.06
     47.7700	  595.00	  594.27	-1762.52	  377.05
     47.8700	  613.00	  605.36	-1755.61	  377.03
     47.9700	  670.00	  604.72	-1697.97	  377.02
     48.0700	  573.00	  593.34	-1783.59	  377.01
     48.1700	  588.00	  577.03	-1752.28	  377.00
     48.2700	  518.00	  561.58	-1806.83	  377.00
     48.3700	  558.00	  550.26	-1755.51	  376.99
     48.4700	  537.00	  543.97	-1770.22	  376.99
     48.5700	  536.00	  542.09	-1769.34	  376.99
     48.6700	  560.00	  543.49	-1746.74	  376.99
     48.7700	  533.00	  547.24	-1777.49	  376.99
     48.8700	  517.00	  552.88	-1799.13	  376.99
     48.9700	  560.00	  560.49	-1763.74	  377.00
     49.0700	  595.00	  570.76	-1739.01	  377.00
     49.1700	  599.00	  585.36	-1749.61	  377.01
     49.2700	  584.00	  607.80	-1787.05	  377.02
     49.3700	  669.00	  644.69	-1738.94	  377.03
     49.4700	  679.00	  707.19	-1791.44	  377.05
     49.5700	  783.00	  811.56	-1791.81	  377.06
     49.6700	  904.00	  975.29	-1834.54	  377.08
     49.7700	 1184.00	 1212.27	-1791.52	  377.09
     49.8700	 1440.00	 1520.89	-1844.14	  377.11
     49.9700	 1817.00	 1872.69	-1818.94	  377.13
     50.0700	 2213.00	 2203.18	-1753.43	  377.16
     50.1700	 2521.00	 2415.94	-1658.19	  377.18
     50.2700	 2476.00	 2424.10	-1711.35	  377.21
     50.3700	 2281.00	 2221.69	-1703.94	  377.23
     50.4700	 1970.00	 1893.56	-1686.81	  377.26
     50.5700	 1484.00	 1541.64	-1820.89	  377.29
     50.6700	 1006.00	 1233.92	-1991.17	  377.32
     50.7700	  838.00	 1000.33	-1925.58	  377.36
     50.8700	  656.00	  842.81	-1950.06	  377.39
     50.9700	  621.00	  746.53	-1888.78	  377.43
     51.0700	  615.00	  690.69	-1838.94	  377.47
     51.1700	  633.00	  656.35	-1786.60	  377.51
     51.2700	  572.00	  630.97	-1822.22	  377.55
     51.3700	  578.00	  609.31	-1794.56	  377.59
     51.4700	  592.00	  590.57	-1761.82	  377.63
     51.5700	  597.00	  575.24	-1741.49	  377.68
     51.6700	  592.00	  563.58	-1734.83	  377.72
     51.7700	  526.00	  555.31	-1792.56	  377.77
     51.8700	  526.00	  549.72	-1786.97	  377.82
     51.9700	  565.00	  546.06	-1744.31	  377.87
     52.0700	  540.00	  543.73	-1766.98	  377.93
     52.1700	  527.00	  542.40	-1778.65	  377.98
     52.2700	  545.00	  542.18	-1760.43	  378.03
     52.3700	  586.00	  542.72	-1719.97	  378.09
     52.4700	  598.00	  544.65	-1709.90	  378.15
     52.5700	  581.00	  548.94	-1731.19	  378.21
     52.6700	  583.00	  557.73	-1737.98	  378.27
     52.7700	  626.00	  574.95	-1712.20	  378.33
     52.8700	  647.00	  606.75	-1723.00	  378.39
     52.9700	  719.00	  660.82	-1705.07	  378.46
     53.0700	  812.00	  743.67	-1694.92	  378.52
     53.1700	  873.00	  856.20	-1746.45	  378.59
     53.2700	 1021.00	  988.53	-1730.78	  378.66
     53.3700	 1162.00	 1116.97	-1718.22	  378.73
     53.4700	 1203.00	 1206.08	-1766.33	  378.80
     53.5700	 1189.00	 1222.08	-1796.33	  378.87
     53.6700	 1052.00	 1157.39	-1868.64	  378.95
     53.7700	  966.00	 1038.59	-1835.84	  379.02
     53.8700	  885.00	  903.81	-1782.06	  379.10
     53.9700	  725.00	  782.07	-1820.32	  379.18
     54.0700	  681.00	  688.14	-1770.39	  379.26
     54.1700	  641.00	  624.50	-1746.75	  379.34
     54.2700	  573.00	  585.98	-1776.23	  379.42
     54.3700	  598.00	  564.77	-1730.02	  379.50
     54.4700	  573.00	  553.88	-1744.13	  379.58
     54.5700	  556.00	  548.61	-1755.86	  379.67
     54.6700	  564.00	  546.21	-1745.46	  379.75
     54.7700	  555.00	  545.38	-1753.63	  379.84
     54.8700	  568.00	  545.53	-1740.78	  379.93
     54.9700	  542.00	  546.46	-1767.71	  380.02
     55.0700	  536.00	  548.08	-1775.33	  380.11
     55.1700	  588.00	  550.43	-1725.68	  380.20
     55.2700	  526.00	  553.55	-1790.80	  380.29
     55.3700	  572.00	  557.60	-1748.84	  380.39
     55.4700	  576.00	  562.72	-1749.97	  380.48
     55.5700	  563.00	  569.35	-1769.60	  380.58
     55.6700	  587.00	  578.23	-1754.48	  380.68
     55.7700	  571.00	  590.98	-1783.23	  380.78
     55.8700	  570.00	  610.81	-1804.06	  380.88
     55.9700	  615.00	  643.81	-1792.06	  380.98
     56.0700	  671.00	  700.19	-1792.44	  381.08
     56.1700	  754.00	  794.93	-1804.18	  381.18
     56.2700	  869.00	  946.01	-1840.26	  381.28
     56.3700	 1081.00	 1169.28	-1851.53	  381.39
     56.4700	 1442.00	 1469.93	-1791.18	  381.49
     56.5700	 1726.00	 1832.38	-1869.63	  381.60
     56.6700	 2149.00	 2212.51	-1826.76	  381.71
     56.7700	 2471.00	 2535.32	-1827.57	  381.82
     56.8700	 2504.00	 2708.47	-1967.72	  381.93
     56.9700	 2651.00	 2668.01	-1780.26	  382.04
     57.0700	 2356.00	 2429.56	-1836.81	  382.15
     57.1700	 2028.00	 2075.70	-1810.95	  382.26
     57.2700	 1712.00	 1696.89	-1748.14	  382.37
     57.3700	 1309.00	 1357.16	-1811.41	  382.49
     57.4700	 1009.00	 1089.03	-1843.28	  382.60
     57.5700	  819.00	  899.23	-1843.48	  382.72
     57.6700	  798.00	  777.70	-1742.95	  382.84
     57.7700	  743.00	  707.61	-1727.86	  382.95
     57.8700	  731.00	  672.96	-1705.21	  383.07
     57.9700	  691.00	  662.46	-1734.71	  383.19
     58.0700	  752.00	  670.08	-1681.33	  383.31
     58.1700	  699.00	  693.78	-1758.03	  383.43
     58.2700	  784.00	  733.59	-1712.84	  383.55
     58.3700	  864.00	  789.78	-1689.03	  383.68
     58.4700	  962.00	  861.13	-1662.38	  383.80
     58.5700	 1055.00	  943.40	-1651.65	  383.92
     58.6700	 1136.00	 1028.72	-1655.97	  384.05
     58.7700	 1369.00	 1107.72	-1501.97	  384.18
     58.8700	 1456.00	 1173.77	-1481.02	  384.30
     58.9700	 1617.00	 1223.13	-1369.38	  384.43
     59.0700	 1542.00	 1250.84	-1472.09	  384.56
     59.1700	 1543.00	 1252.29	-1472.54	  384.69
     59.2700	 1455.00	 1230.71	-1538.96	  384.81
     59.3700	 1371.00	 1197.99	-1590.24	  384.94
     59.4700	 1234.00	 1166.69	-1695.94	  385.08
     59.5700	 1193.00	 1145.46	-1715.71	  385.21
     59.6700	 1189.00	 1141.68	-1715.93	  385.34
     59.7700	 1190.00	 1163.97	-1737.22	  385.47
     59.8700	 1197.00	 1218.04	-1784.29	  385.60
     59.9700	 1337.00	 1300.38	-1726.63	  385.74
     60.0700	 1442.00	 1395.03	-1716.28	  385.87
     60.1700	 1553.00	 1474.16	-1684.41	  386.01
     60.2700	 1558.00	 1504.71	-1709.96	  386.14
     60.3700	 1507.00	 1465.46	-1721.71	  386.28
     60.4700	 1449.00	 1362.11	-1676.36	  386.42
     60.5700	 1269.00	 1221.22	-1715.47	  386.55
     60.6700	 1109.00	 1071.88	-1726.13	  386.69
     60.7700	  985.00	  935.68	-1713.93	  386.83
     60.8700	  826.00	  824.84	-1762.09	  386.97
     60.9700	  713.00	  743.71	-1793.96	  387.11
     61.0700	  613.00	  691.29	-1841.54	  387.25
     61.1700	  676.00	  664.26	-1751.51	  387.39
     61.2700	  658.00	  659.84	-1765.09	  387.53
     61.3700	  644.00	  677.41	-1796.66	  387.67
     61.4700	  651.00	  718.85	-1831.10	  387.81
     61.5700	  738.00	  787.29	-1812.54	  387.96
     61.6700	  805.00	  884.69	-1842.94	  388.10
     61.7700	  928.00	 1008.96	-1844.21	  388.24
     61.8700	 1015.00	 1151.18	-1899.43	  388.39
     61.9700	 1238.00	 1293.95	-1819.20	  388.53
     62.0700	 1358.00	 1411.18	-1816.43	  388.67
     62.1700	 1352.00	 1473.03	-1884.28	  388.82
     62.2700	 1391.00	 1459.45	-1831.70	  388.96
     62.3700	 1297.00	 1374.44	-1840.69	  389.11
     62.4700	 1155.00	 1243.00	-1851.25	  389.25
     62.5700	 1049.00	 1094.90	-1809.15	  389.40
     62.6700	  907.00	  953.54	-1809.79	  389.55
     62.7700	  744.00	  833.25	-1852.50	  389.69
     62.8700	  638.00	  740.08	-1865.33	  389.84
     62.9700	  653.00	  673.55	-1783.80	  389.99
     63.0700	  628.00	  629.38	-1764.63	  390.14
     63.1700	  566.00	  601.85	-1799.10	  390.28
     63.2700	  565.00	  585.64	-1783.89	  390.43
     63.3700	  603.00	  576.83	-1737.07	  390.58
     63.4700	  562.00	  573.04	-1774.29	  390.73
     63.5700	  589.00	  573.39	-1747.64	  390.88
     63.6700	  582.00	  578.26	-1759.51	  391.03
     63.7700	  563.00	  588.99	-1789.24	  391.17
     63.8700	  620.00	  607.63	-1750.88	  391.32
     63.9700	  673.00	  636.37	-1726.62	  391.47
     64.0700	  741.00	  676.73	-1698.98	  391.62
     64.1700	  775.00	  728.62	-1716.87	  391.77
     64.2700	  843.00	  789.34	-1709.59	  391.92
     64.3700	  924.00	  852.95	-1692.20	  392.07
     64.4700	 1007.00	  910.30	-1666.55	  392.22
     64.5700	 1004.00	  950.52	-1709.77	  392.37
     64.6700	  987.00	  964.41	-1740.66	  392.52
     64.7700	  996.00	  950.95	-1718.20	  392.67
     64.8700	  956.00	  914.50	-1721.75	  392.82
     64.9700	  966.00	  863.85	-1661.10	  392.97
     65.0700	  855.00	  808.55	-1716.80	  393.12
     65.1700	  796.00	  756.22	-1723.47	  393.27
     65.2700	  709.00	  711.16	-1765.41	  393.42
     65.3700	  661.00	  674.42	-1776.67	  393.57
     65.4700	  576.00	  645.10	-1832.35	  393.72
     65.5700	  609.00	  621.85	-1776.10	  393.87
     65.6700	  624.00	  603.62	-1742.87	  394.02
     65.7700	  548.00	  589.61	-1804.86	  394.17
     65.8700	  595.00	  579.24	-1747.49	  394.32
     65.9700	  533.00	  571.99	-1802.24	  394.47
     66.0700	  545.00	  567.44	-1785.69	  394.62
     66.1700	  561.00	  565.14	-1767.39	  394.77
     66.2700	  557.00	  564.69	-1770.94	  394.92
     66.3700	  560.00	  565.77	-1769.02	  395.07
     66.4700	  580.00	  568.17	-1751.42	  395.22
     66.5700	  563.00	  571.95	-1772.20	  395.37
     66.6700	  560.00	  577.54	-1780.79	  395.52
     66.7700	  594.00	  585.61	-1754.86	  395.67
     66.8700	  544.00	  597.95	-1817.20	  395.82
     66.9700	  632.00	  617.48	-1748.73	  395.97
     67.0700	  626.00	  648.89	-1786.14	  396.12
     67.1700	  647.00	  698.92	-1815.17	  396.26
     67.2700	  801.00	  776.17	-1738.42	  396.41
     67.3700	  901.00	  890.01	-1752.26	  396.56
     67.4700	 1035.00	 1048.33	-1776.58	  396.71
     67.5700	 1272.00	 1253.84	-1745.09	  396.86
     67.6700	 1517.00	 1501.54	-1747.79	  397.00
     67.7700	 1748.00	 1774.80	-1790.05	  397.15
     67.8700	 2067.00	 2044.54	-1740.79	  397.30
     67.9700	 2340.00	 2269.89	-1693.14	  397.44
     68.0700	 2485.00	 2404.82	-1683.07	  397.59
     68.1700	 2388.00	 2414.91	-1790.16	  397.73
     68.2700	 2442.00	 2297.36	-1618.61	  397.88
     68.3700	 2045.00	 2082.89	-1801.14	  398.02
     68.4700	 1857.00	 1817.22	-1723.47	  398.17
     68.5700	 1528.00	 1542.65	-1777.90	  398.31
     68.6700	 1332.00	 1290.33	-1721.58	  398.45
     68.7700	 1024.00	 1078.34	-1817.59	  398.60
     68.8700	  856.00	  913.59	-1820.84	  398.74
     68.9700	  772.00	  794.14	-1785.39	  398.88
     69.0700	  710.00	  712.56	-1765.81	  399.02
     69.1700	  666.00	  659.61	-1756.86	  399.17
     69.2700	  640.00	  626.44	-1749.69	  399.31
     69.3700	  589.00	  606.02	-1780.27	  399.45
     69.4700	  592.00	  593.36	-1764.61	  399.59
     69.5700	  573.00	  585.28	-1775.53	  399.73
     69.6700	  598.00	  579.92	-1745.17	  399.87
     69.7700	  592.00	  576.23	-1747.48	  400.01
     69.8700	  525.00	  573.68	-1811.93	  400.14
     69.9700	  579.00	  572.00	-1756.25	  400.28
     70.0700	  557.00	  571.06	-1777.31	  400.42
     70.1700	  556.00	  570.81	-1778.06	  400.55
     70.2700	  577.00	  571.28	-1757.53	  400.69
     70.3700	  514.00	  572.54	-1821.79	  400.83
     70.4700	  571.00	  574.83	-1767.08	  400.96
     70.5700	  565.00	  578.62	-1776.87	  401.09
     70.6700	  549.00	  584.76	-1799.01	  401.23
     70.7700	  580.00	  594.73	-1777.98	  401.36
     70.8700	  604.00	  610.94	-1770.19	  401.49
     70.9700	  593.00	  636.94	-1807.19	  401.62
     71.0700	  620.00	  677.56	-1820.81	  401.76
     71.1700	  755.00	  738.60	-1746.85	  401.89
     71.2700	  806.00	  825.95	-1783.20	  402.02
     71.3700	  965.00	  944.19	-1742.44	  402.14
     71.4700	 1032.00	 1095.38	-1826.63	  402.27
     71.5700	 1286.00	 1273.88	-1751.13	  402.40
     71.6700	 1395.00	 1469.61	-1837.86	  402.53
     71.7700	 1663.00	 1664.20	-1764.45	  402.65
     71.8700	 1791.00	 1832.50	-1804.75	  402.78
     71.9700	 1928.00	 1945.56	-1780.81	  402.90
     72.0700	 1907.00	 1979.16	-1835.41	  403.03
     72.1700	 1938.00	 1925.20	-1750.45	  403.15
     72.2700	 1813.00	 1796.81	-1747.06	  403.27
     72.3700	 1664.00	 1620.01	-1719.26	  403.39
     72.4700	 1478.00	 1424.17	-1709.42	  403.52
     72.5700	 1319.00	 1232.36	-1676.61	  403.64
     72.6700	 1167.00	 1060.87	-1657.12	  403.75
     72.7700	 1125.00	  918.57	-1556.82	  403.87
     72.8700	  911.00	  807.84	-1660.09	  403.99
     72.9700	  851.00	  726.41	-1638.66	  404.11
     73.0700	  790.00	  669.34	-1642.59	  404.22
     73.1700	  740.00	  630.84	-1654.09	  404.34
     73.2700	  738.00	  605.51	-1630.76	  404.45
     73.3700	  673.00	  589.00	-1679.25	  404.56
     73.4700	  614.00	  578.16	-1727.41	  404.68
     73.5700	  600.00	  570.93	-1734.18	  404.79
     73.6700	  638.00	  566.03	-1691.28	  404.90
     73.7700	  589.00	  562.73	-1736.98	  405.01
     73.8700	  559.00	  560.61	-1764.86	  405.12
     73.9700	  599.00	  559.44	-1723.69	  405.22
     74.0700	  618.00	  559.03	-1704.28	  405.33
     74.1700	  572.00	  559.22	-1750.47	  405.44
     74.2700	  648.00	  559.80	-1675.05	  405.54
     74.3700	  604.00	  560.55	-1719.80	  405.65
     74.4700	  575.00	  561.16	-1749.41	  405.75
     74.5700	  665.00	  561.36	-1659.61	  405.85
     74.6700	  614.00	  560.91	-1710.16	  405.95
     74.7700	  654.00	  559.76	-1669.01	  406.05
     74.8700	  655.00	  558.05	-1666.30	  406.15
     74.9700	  569.00	  556.06	-1750.31	  406.25
     75.0700	  600.00	  554.13	-1717.38	  406.34
     75.1700	  613.00	  552.56	-1702.81	  406.44
     75.2700	  541.00	  551.77	-1774.02	  406.53
     75.3700	  544.00	  552.04	-1771.29	  406.63
     75.4700	  555.00	  553.90	-1762.15	  406.72
     75.5700	  568.00	  557.76	-1753.01	  406.81
     75.6700	  558.00	  564.04	-1769.29	  406.90
     75.7700	  601.00	  573.37	-1735.62	  406.99
     75.8700	  580.00	  585.98	-1769.23	  407.08
     75.9700	  613.00	  601.84	-1752.09	  407.16
     76.0700	  610.00	  620.47	-1773.72	  407.25
     76.1700	  675.00	  640.81	-1729.06	  407.33
     76.2700	  627.00	  661.19	-1797.44	  407.42
     76.3700	  668.00	  679.37	-1774.62	  407.50
     76.4700	  700.00	  692.74	-1755.99	  407.58
     76.5700	  688.00	  698.92	-1774.17	  407.66
     76.6700	  692.00	  696.64	-1767.89	  407.74
     76.7700	  707.00	  686.34	-1742.59	  407.82
     76.8700	  706.00	  669.98	-1727.23	  407.89
     76.9700	  647.00	  649.96	-1766.21	  407.97
     77.0700	  646.00	  629.09	-1746.34	  408.04
     77.1700	  561.00	  609.15	-1811.40	  408.11
     77.2700	  568.00	  591.48	-1786.73	  408.18
     77.3700	  571.00	  576.80	-1769.05	  408.25
     77.4700	  535.00	  565.30	-1793.55	  408.32
     77.5700	  564.00	  556.75	-1756.00	  408.39
     77.6700	  558.00	  550.69	-1755.94	  408.46
     77.7700	  537.00	  546.58	-1772.83	  408.52
     77.8700	  544.00	  543.88	-1763.13	  408.59
     77.9700	  521.00	  542.16	-1784.41	  408.65
     78.0700	  529.00	  541.07	-1775.32	  408.71
     78.1700	  503.00	  540.39	-1800.64	  408.77
     78.2700	  553.00	  539.97	-1750.22	  408.83
     78.3700	  487.00	  539.72	-1815.97	  408.88
     78.4700	  529.00	  539.59	-1773.84	  408.94
     78.5700	  525.00	  539.56	-1777.81	  409.00
     78.6700	  498.00	  539.62	-1804.87	  409.05
     78.7700	  520.00	  539.78	-1783.03	  409.10
     78.8700	  501.00	  540.06	-1802.31	  409.15
     78.9700	  511.00	  540.49	-1792.74	  409.20
     79.0700	  482.00	  541.11	-1822.36	  409.25
     79.1700	  491.00	  541.98	-1814.23	  409.29
     79.2700	  513.00	  543.14	-1793.39	  409.34
     79.3700	  521.00	  544.49	-1786.74	  409.38
     79.4700	  540.00	  546.44	-1769.69	  409.42
     79.5700	  584.00	  548.89	-1728.14	  409.47
     79.6700	  544.00	  551.91	-1771.16	  409.51
     79.7700	  578.00	  555.63	-1740.88	  409.54
     79.8700	  516.00	  560.16	-1807.41	  409.58
     79.9700	  560.00	  565.71	-1768.96	  409.61
     80.0700	  534.00	  572.50	-1801.75	  409.65
     80.1700	  551.00	  580.82	-1793.07	  409.68
     80.2700	  523.00	  591.03	-1831.28	  409.71
     80.3700	  578.00	  603.39	-1788.64	  409.74
     80.4700	  628.00	  618.04	-1753.29	  409.77
     80.5700	  672.00	  634.85	-1726.10	  409.80
     80.6700	  652.00	  653.34	-1764.59	  409.82
     80.7700	  660.00	  672.64	-1775.89	  409.84
     80.8700	  658.00	  691.52	-1796.77	  409.87
     80.9700	  713.00	  708.56	-1758.81	  409.89
     81.0700	  735.00	  722.41	-1750.66	  409.91
     81.1700	  735.00	  731.98	-1760.23	  409.92
     81.2700	  725.00	  736.60	-1774.85	  409.94
     81.3700	  752.00	  735.94	-1747.19	  409.95
     81.4700	  764.00	  730.19	-1729.44	  409.97
     81.5700	  805.00	  719.97	-1678.22	  409.98
     81.6700	  748.00	  706.14	-1721.39	  409.99
     81.7700	  776.00	  689.68	-1676.93	  410.00
     81.8700	  704.00	  671.67	-1730.92	  410.00
     81.9700	  753.00	  653.19	-1663.44	  410.01
     82.0700	  688.00	  635.34	-1710.59	  410.01
     82.1700	  668.00	  618.85	-1714.10	  410.02
     82.2700	  655.00	  604.17	-1712.42	  410.02
     82.3700	  656.00	  591.54	-1698.79	  410.02
     82.4700	  611.00	  580.98	-1733.23	  410.01
     82.5700	  575.00	  572.43	-1760.68	  410.01
     82.6700	  579.00	  565.81	-1750.06	  410.00
     82.7700	  609.00	  560.97	-1715.22	  410.00
     82.8700	  610.00	  557.76	-1711.01	  409.99
     82.9700	  567.00	  556.06	-1752.31	  409.98
     83.0700	  559.00	  555.74	-1759.99	  409.97
     83.1700	  518.00	  556.70	-1801.95	  409.95
     83.2700	  514.00	  558.81	-1808.06	  409.94
     83.3700	  540.00	  561.92	-1785.17	  409.92
     83.4700	  545.00	  565.81	-1784.06	  409.90
     83.5700	  531.00	  570.18	-1802.43	  409.88
     83.6700	  566.00	  574.65	-1771.90	  409.86
     83.7700	  521.00	  578.76	-1821.01	  409.84
     83.8700	  552.00	  582.01	-1793.26	  409.81
     83.9700	  528.00	  583.91	-1819.17	  409.79
     84.0700	  577.00	  584.12	-1770.37	  409.76
     84.1700	  555.00	  582.56	-1790.81	  409.73
     84.2700	  586.00	  579.43	-1756.68	  409.70
     84.3700	  588.00	  575.15	-1750.40	  409.67
     84.4700	  575.00	  570.20	-1758.45	  409.63
     84.5700	  566.00	  565.03	-1762.28	  409.60
     84.6700	  529.00	  560.00	-1794.25	  409.56
     84.7700	  554.00	  555.38	-1764.63	  409.52
     84.8700	  521.00	  551.36	-1793.61	  409.48
     84.9700	  509.00	  548.03	-1802.28	  409.44
     85.0700	  518.00	  545.38	-1790.63	  409.39
     85.1700	  500.00	  543.38	-1806.63	  409.35
     85.2700	  547.00	  541.95	-1758.20	  409.30
     85.3700	  505.00	  541.01	-1799.26	  409.25
     85.4700	  542.00	  540.47	-1761.72	  409.20
     85.5700	  557.00	  540.27	-1746.52	  409.15
     85.6700	  518.00	  540.36	-1785.61	  409.10
     85.7700	  512.00	  540.72	-1791.97	  409.04
     85.8700	  545.00	  541.36	-1759.61	  408.98
     85.9700	  545.00	  542.34	-1760.59	  408.92
     86.0700	  548.00	  543.73	-1758.98	  408.86
     86.1700	  512.00	  545.63	-1796.88	  408.80
     86.2700	  551.00	  548.18	-1760.43	  408.74
     86.3700	  508.00	  551.53	-1806.78	  408.67
     86.4700	  548.00	  555.81	-1771.06	  408.60
     86.5700	  549.00	  561.15	-1775.40	  408.54
     86.6700	  627.00	  567.59	-1703.84	  408.47
     86.7700	  559.00	  574.76	-1779.01	  408.39
     86.8700	  568.00	  583.08	-1778.33	  408.32
     86.9700	  584.00	  591.88	-1771.13	  408.24
     87.0700	  618.00	  600.63	-1745.88	  408.17
     87.1700	  646.00	  608.68	-1725.93	  408.09
     87.2700	  623.00	  615.29	-1755.54	  408.01
     87.3700	  669.00	  619.71	-1713.96	  407.93
     87.4700	  674.00	  621.39	-1710.64	  407.84
     87.5700	  648.00	  620.09	-1735.34	  407.76
     87.6700	  579.00	  616.06	-1800.31	  407.67
     87.7700	  644.00	  609.88	-1729.13	  407.58
     87.8700	  631.00	  602.34	-1734.59	  407.49
     87.9700	  626.00	  594.28	-1731.53	  407.40
     88.0700	  568.00	  586.47	-1781.72	  407.31
     88.1700	  590.00	  579.54	-1752.79	  407.21
     88.2700	  602.00	  574.00	-1735.25	  407.11
     88.3700	  613.00	  570.18	-1720.43	  407.01
     88.4700	  568.00	  568.25	-1763.50	  406.91
     88.5700	  580.00	  568.21	-1751.46	  406.81
     88.6700	  605.00	  569.93	-1728.18	  406.71
     88.7700	  587.00	  573.13	-1749.38	  406.60
     88.8700	  550.00	  577.44	-1790.69	  406.50
     88.9700	  605.00	  582.40	-1740.65	  406.39
     89.0700	  622.00	  587.49	-1728.74	  406.28
     89.1700	  581.00	  592.12	-1774.37	  406.17
     89.2700	  602.00	  595.73	-1756.98	  406.05
     89.3700	  585.00	  597.80	-1776.05	  405.94
     89.4700	  608.00	  597.99	-1753.24	  405.82
     89.5700	  571.00	  596.24	-1788.49	  405.70
     89.6700	  547.00	  592.73	-1808.98	  405.58
     89.7700	  574.00	  587.88	-1777.13	  405.46
     89.8700	  561.00	  582.16	-1784.41	  405.34
     89.9700	  550.00	  576.03	-1789.28	  405.22
     90.0700	  569.00	  569.93	-1764.18	  405.09
     90.1700	  548.00	  564.15	-1779.40	  404.96
     90.2700	  548.00	  558.96	-1774.21	  404.83
     90.3700	  505.00	  554.48	-1812.73	  404.70
     90.4700	  535.00	  550.78	-1779.03	  404.57
     90.5700	  508.00	  547.85	-1803.10	  404.43
     90.6700	  533.00	  545.65	-1775.90	  404.30
     90.7700	  554.00	  544.08	-1753.33	  404.16
     90.8700	  542.00	  543.07	-1764.32	  404.02
     90.9700	  532.00	  542.52	-1773.77	  403.88
     91.0700	  553.00	  542.38	-1752.63	  403.74
     91.1700	  508.00	  542.62	-1797.87	  403.60
     91.2700	  531.00	  543.23	-1775.48	  403.45
     91.3700	  532.00	  544.26	-1775.51	  403.30
     91.4700	  528.00	  545.80	-1781.05	  403.15
     91.5700	  543.00	  547.96	-1768.21	  403.01
     91.6700	  514.00	  550.90	-1800.15	  402.85
     91.7700	  556.00	  554.82	-1762.07	  402.70
     91.8700	  545.00	  559.91	-1778.16	  402.55
     91.9700	  517.00	  566.18	-1812.43	  402.39
     92.0700	  583.00	  574.22	-1754.47	  402.23
     92.1700	  572.00	  583.96	-1775.21	  402.07
     92.2700	  566.00	  595.45	-1792.70	  401.91
     92.3700	  572.00	  608.64	-1799.89	  401.75
     92.4700	  624.00	  623.35	-1762.60	  401.59
     92.5700	  619.00	  639.27	-1783.52	  401.42
     92.6700	  655.00	  655.97	-1764.22	  401.26
     92.7700	  691.00	  672.86	-1745.11	  401.09
     92.8700	  701.00	  689.29	-1751.54	  400.92
     92.9700	  732.00	  704.54	-1735.79	  400.75
     93.0700	  738.00	  718.05	-1743.30	  400.58
     93.1700	  756.00	  729.49	-1736.74	  400.40
     93.2700	  787.00	  738.94	-1715.19	  400.23
     93.3700	  818.00	  746.81	-1692.06	  400.05
     93.4700	  806.00	  753.73	-1710.98	  399.87
     93.5700	  818.00	  760.37	-1705.62	  399.69
     93.6700	  857.00	  767.35	-1673.60	  399.51
     93.7700	  860.00	  775.21	-1678.46	  399.33
     93.8700	  819.00	  784.41	-1728.66	  399.15
     93.9700	  880.00	  795.40	-1678.65	  398.96
     94.0700	  882.00	  808.51	-1689.76	  398.77
     94.1700	  839.00	  823.84	-1748.09	  398.59
     94.2700	  852.00	  841.13	-1752.38	  398.40
     94.3700	  895.00	  859.71	-1727.96	  398.21
     94.4700	  881.00	  878.44	-1760.69	  398.02
     94.5700	  894.00	  895.78	-1765.03	  397.82
     94.6700	  969.00	  909.90	-1704.15	  397.63
     94.7700	  892.00	  918.90	-1790.15	  397.43
     94.8700	  937.00	  921.14	-1747.39	  397.23
     94.9700	  885.00	  915.70	-1793.95	  397.04
     95.0700	  877.00	  902.62	-1788.87	  396.84
     95.1700	  882.00	  882.88	-1764.13	  396.64
     95.2700	  851.00	  858.15	-1770.40	  396.43
     95.3700	  782.00	  830.41	-1811.66	  396.23
     95.4700	  787.00	  801.75	-1778.00	  396.03
     95.5700	  791.00	  774.10	-1746.35	  395.82
     95.6700	  739.00	  749.29	-1773.54	  395.61
     95.7700	  633.00	  728.94	-1859.19	  395.40
     95.8700	  693.00	  714.54	-1784.79	  395.19
     95.9700	  690.00	  707.35	-1780.60	  394.98
     96.0700	  638.00	  708.50	-1833.75	  394.77
     96.1700	  697.00	  718.94	-1785.19	  394.56
     96.2700	  697.00	  739.40	-1805.65	  394.34
     96.3700	  744.00	  770.37	-1789.62	  394.13
     96.4700	  798.00	  811.97	-1777.22	  393.91
     96.5700	  793.00	  863.94	-1834.19	  393.69
     96.6700	  843.00	  925.41	-1845.66	  393.48
     96.7700	  988.00	  994.89	-1770.14	  393.26
     96.8700	 1040.00	 1070.24	-1793.49	  393.04
     96.9700	 1141.00	 1148.53	-1770.78	  392.81
     97.0700	 1207.00	 1226.19	-1782.44	  392.59
     97.1700	 1292.00	 1299.02	-1770.27	  392.37
     97.2700	 1352.00	 1362.44	-1773.69	  392.14
     97.3700	 1443.00	 1411.90	-1732.15	  391.91
     97.4700	 1433.00	 1443.41	-1773.66	  391.69
     97.5700	 1472.00	 1454.37	-1745.62	  391.46
     97.6700	 1396.00	 1444.12	-1811.37	  391.23
     97.7700	 1314.00	 1414.07	-1863.32	  391.00
     97.8700	 1366.00	 1367.29	-1764.54	  390.77
     97.9700	 1330.00	 1307.83	-1741.08	  390.54
     98.0700	 1276.00	 1240.13	-1727.38	  390.30
     98.1700	 1193.00	 1168.55	-1738.80	  390.07
     98.2700	 1156.00	 1097.08	-1704.33	  389.84
     98.3700	 1016.00	 1029.21	-1776.46	  389.60
     98.4700	  918.00	  967.90	-1813.15	  389.36
     98.5700	  879.00	  915.49	-1799.74	  389.13
     98.6700	  902.00	  873.80	-1735.05	  388.89
     98.7700	  838.00	  844.21	-1769.46	  388.65
     98.8700	  797.00	  827.66	-1793.91	  388.41
     98.9700	  812.00	  824.80	-1776.05	  388.17
     99.0700	  823.00	  836.05	-1776.30	  387.93
     99.1700	  869.00	  861.61	-1755.86	  387.68
     99.2700	  832.00	  901.50	-1832.75	  387.44
     99.3700	  959.00	  955.51	-1759.76	  387.20
     99.4700	 1031.00	 1023.12	-1755.37	  386.95
     99.5700	 1012.00	 1103.47	-1854.72	  386.71
     99.6700	 1190.00	 1195.22	-1768.47	  386.46
     99.7700	 1252.00	 1296.40	-1807.65	  386.22
     99.8700	 1492.00	 1404.45	-1675.70	  385.97
     99.9700	 1535.00	 1516.00	-1744.25	  385.72
    100.0700	 1659.00	 1627.10	-1731.35	  385.47
    100.1700	 1747.00	 1733.27	-1749.52	  385.23
    100.2700	 1892.00	 1829.93	-1701.18	  384.98
    100.3700	 1940.00	 1912.97	-1736.22	  384.73
    100.4700	 2025.00	 1979.03	-1717.28	  384.48
    100.5700	 2048.00	 2025.81	-1741.06	  384.22
    100.6700	 2093.00	 2051.76	-1722.01	  383.97
    100.7700	 2137.00	 2056.04	-1682.29	  383.72
    100.8700	 2033.00	 2038.41	-1768.66	  383.47
    100.9700	 2028.00	 1999.51	-1734.76	  383.22
    101.0700	 1928.00	 1941.18	-1776.43	  382.96
    101.1700	 1930.00	 1866.68	-1699.93	  382.71
    101.2700	 1838.00	 1780.48	-1705.73	  382.45
    101.3700	 1734.00	 1687.67	-1716.92	  382.20
    101.4700	 1582.00	 1593.39	-1774.64	  381.95
    101.5700	 1472.00	 1502.21	-1793.46	  381.69
    101.6700	 1441.00	 1417.88	-1740.13	  381.43
    101.7700	 1324.00	 1343.14	-1782.39	  381.18
    101.8700	 1284.00	 1279.59	-1758.84	  380.92
    101.9700	 1236.00	 1227.76	-1755.01	  380.67
    102.0700	 1194.00	 1187.13	-1756.38	  380.41
    102.1700	 1114.00	 1156.30	-1805.55	  380.15
    102.2700	 1113.00	 1133.14	-1783.39	  379.90
    102.3700	 1076.00	 1115.01	-1802.26	  379.64
    102.4700	 1164.00	 1099.05	-1698.30	  379.38
    102.5700	 1034.00	 1082.54	-1811.79	  379.12
    102.6700	 1092.00	 1063.23	-1734.48	  378.87
    102.7700	 1000.00	 1039.65	-1802.90	  378.61
    102.8700	  986.00	 1011.23	-1788.48	  378.35
    102.9700	 1017.00	  978.21	-1724.46	  378.09
    103.0700	  898.00	  941.43	-1806.68	  377.84
    103.1700	  861.00	  902.06	-1804.31	  377.58
    103.2700	  851.00	  861.42	-1773.67	  377.32
    103.3700	  832.00	  820.80	-1752.05	  377.06
    103.4700	  785.00	  781.38	-1759.63	  376.81
    103.5700	  753.00	  744.16	-1754.41	  376.55
    103.6700	  747.00	  709.94	-1726.19	  376.29
    103.7700	  630.00	  679.24	-1812.49	  376.03
    103.8700	  600.00	  652.38	-1815.63	  375.78
    103.9700	  669.00	  629.44	-1723.69	  375.52
    104.0700	  621.00	  610.33	-1752.58	  375.26
    104.1700	  651.00	  594.83	-1707.08	  375.01
    104.2700	  582.00	  582.58	-1763.83	  374.75
    104.3700	  572.00	  573.21	-1764.46	  374.50
    104.4700	  519.00	  566.31	-1810.56	  374.24
    104.5700	  520.00	  561.49	-1804.74	  373.99
    104.6700	  561.00	  558.36	-1760.61	  373.73
    104.7700	  547.00	  556.61	-1772.86	  373.48
    104.8700	  544.00	  555.94	-1775.19	  373.22
    104.9700	  532.00	  556.12	-1787.37	  372.97
    105.0700	  577.00	  556.93	-1743.18	  372.72
    105.1700	  543.00	  558.28	-1778.53	  372.46
    105.2700	  530.00	  560.03	-1793.28	  372.21
    105.3700	  521.00	  562.11	-1804.36	  371.96
    105.4700	  559.00	  564.53	-1768.78	  371.71
    105.5700	  578.00	  567.31	-1752.56	  371.46
    105.6700	  575.00	  570.51	-1758.76	  371.21
    105.7700	  541.00	  574.24	-1796.49	  370.96
    105.8700	  559.00	  578.61	-1782.86	  370.71
    105.9700	  594.00	  583.74	-1752.99	  370.47
    106.0700	  538.00	  589.72	-1814.97	  370.22
    106.1700	  598.00	  596.60	-1761.85	  369.97
    106.2700	  575.00	  604.36	-1792.61	  369.73
    106.3700	  566.00	  612.93	-1810.18	  369.48
    106.4700	  597.00	  622.17	-1788.42	  369.24
    106.5700	  599.00	  631.87	-1796.12	  369.00
    106.6700	  637.00	  641.73	-1767.98	  368.75
    106.7700	  622.00	  651.44	-1792.69	  368.51
    106.8700	  643.00	  660.60	-1780.85	  368.27
    106.9700	  638.00	  668.85	-1794.10	  368.04
    107.0700	  641.00	  675.80	-1798.05	  367.80
    107.1700	  717.00	  681.17	-1727.42	  367.56
    107.2700	  672.00	  684.79	-1776.04	  367.33
    107.3700	  631.00	  686.67	-1818.92	  367.09
    107.4700	  713.00	  686.96	-1737.21	  366.86
    107.5700	  665.00	  685.99	-1784.24	  366.62
    107.6700	  663.00	  684.17	-1784.42	  366.39
    107.7700	  655.00	  681.95	-1790.20	  366.16
    107.8700	  655.00	  679.74	-1787.99	  365.94
    107.9700	  721.00	  677.88	-1720.13	  365.71
    108.0700	  709.00	  676.64	-1730.89	  365.48
    108.1700	  703.00	  676.14	-1736.39	  365.26
    108.2700	  700.00	  676.41	-1739.66	  365.04
    108.3700	  719.00	  677.35	-1721.60	  364.81
    108.4700	  676.00	  678.75	-1766.00	  364.59
    108.5700	  668.00	  680.31	-1775.56	  364.37
    108.6700	  708.00	  681.64	-1736.89	  364.16
    108.7700	  666.00	  682.33	-1779.58	  363.94
    108.8700	  665.00	  681.99	-1780.24	  363.73
    108.9700	  692.00	  680.26	-1751.51	  363.52
    109.0700	  684.00	  676.94	-1756.19	  363.30
    109.1700	  626.00	  671.94	-1809.19	  363.10
    109.2700	  685.00	  665.33	-1743.58	  362.89
    109.3700	  620.00	  657.30	-1800.55	  362.68
    109.4700	  659.00	  648.14	-1752.39	  362.48
    109.5700	  666.00	  638.18	-1735.43	  362.28
    109.6700	  676.00	  627.76	-1715.01	  362.08
    109.7700	  612.00	  617.23	-1768.48	  361.88
    109.8700	  603.00	  606.90	-1767.15	  361.68
    109.9700	  616.00	  597.02	-1744.27	  361.49
    110.0700	  557.00	  587.83	-1794.08	  361.30
    110.1700	  563.00	  579.49	-1779.74	  361.11
    110.2700	  592.00	  572.11	-1743.36	  360.92
    110.3700	  536.00	  565.76	-1793.01	  360.73
    110.4700	  584.00	  560.45	-1739.70	  360.55
    110.5700	  578.00	  556.15	-1741.40	  360.37
    110.6700	  515.00	  552.82	-1801.07	  360.19
    110.7700	  537.00	  550.37	-1776.62	  360.01
    110.8700	  533.00	  548.71	-1778.96	  359.84
    110.9700	  538.00	  547.76	-1773.01	  359.66
    111.0700	  530.00	  547.42	-1780.67	  359.49
    111.1700	  569.00	  547.60	-1741.85	  359.33
    111.2700	  528.00	  548.23	-1783.48	  359.16
    111.3700	  531.00	  549.24	-1781.49	  359.00
    111.4700	  575.00	  550.57	-1738.82	  358.84
    111.5700	  564.00	  552.18	-1751.43	  358.68
    111.6700	  541.00	  554.03	-1776.28	  358.53
    111.7700	  570.00	  556.11	-1749.36	  358.37
    111.8700	  550.00	  558.39	-1771.64	  358.23
    111.9700	  585.00	  560.88	-1739.13	  358.08
    112.0700	  540.00	  563.58	-1786.83	  357.93
    112.1700	  538.00	  566.50	-1791.75	  357.79
    112.2700	  583.00	  569.66	-1749.91	  357.65
    112.3700	  599.00	  573.10	-1737.35	  357.52
    112.4700	  613.00	  576.84	-1727.09	  357.39
    112.5700	  562.00	  580.95	-1782.20	  357.26
    112.6700	  607.00	  585.48	-1741.73	  357.13
    112.7700	  664.00	  590.53	-1689.78	  357.01
    112.8700	  666.00	  596.21	-1693.46	  356.89
    112.9700	  655.00	  602.66	-1710.91	  356.77
    113.0700	  709.00	  610.07	-1664.32	  356.66
    113.1700	  686.00	  618.69	-1695.94	  356.54
    113.2700	  651.00	  628.84	-1741.09	  356.44
    113.3700	  751.00	  640.93	-1653.18	  356.33
    113.4700	  790.00	  655.45	-1628.70	  356.23
    113.5700	  811.00	  673.05	-1625.30	  356.13
    113.6700	  900.00	  694.53	-1557.78	  356.04
    113.7700	  960.00	  720.84	-1524.09	  355.95
    113.8700	  934.00	  753.14	-1582.39	  355.86
    113.9700	  932.00	  792.79	-1624.04	  355.78
    114.0700	 1006.00	  841.35	-1598.60	  355.70
    114.1700	 1054.00	  900.62	-1609.87	  355.62
    114.2700	 1133.00	  972.60	-1602.85	  355.55
    114.3700	 1233.00	 1059.44	-1589.69	  355.48
    114.4700	 1333.00	 1163.42	-1593.67	  355.42
    114.5700	 1427.00	 1286.83	-1623.08	  355.36
    114.6700	 1611.00	 1431.97	-1584.22	  355.30
    114.7700	 1744.00	 1601.00	-1620.25	  355.25
    114.8700	 1914.00	 1795.70	-1644.95	  355.20
    114.9700	 2040.00	 2017.47	-1740.72	  355.15
    115.0700	 2412.00	 2267.05	-1618.30	  355.11
    115.1700	 2614.00	 2544.51	-1693.76	  355.07
    115.2700	 2874.00	 2849.04	-1738.29	  355.04
    115.3700	 3086.00	 3178.71	-1855.96	  355.01
    115.4700	 3540.00	 3530.51	-1753.76	  354.99
    115.5700	 3697.00	 3900.20	-1966.45	  354.97
    115.6700	 4068.00	 4282.41	-1977.66	  354.95
    115.7700	 4365.00	 4670.56	-2068.81	  354.94
    115.8700	 4810.00	 5056.78	-2010.03	  354.93
    115.9700	 5038.00	 5432.17	-2157.42	  354.93
    116.0700	 5625.00	 5786.89	-1925.14	  354.93
    116.1700	 5949.00	 6110.49	-1924.74	  354.94
    116.2700	 6294.00	 6392.30	-1861.55	  354.95
    116.3700	 6633.00	 6621.83	-1752.08	  354.97
    116.4700	 6714.00	 6789.79	-1839.04	  354.99
    116.5700	 6880.00	 6888.85	-1772.10	  355.02
    116.6700	 7053.00	 6914.61	-1624.86	  355.05
    116.7700	 6916.00	 6866.04	-1713.29	  355.08
    116.8700	 6818.00	 6745.68	-1690.93	  355.12
    116.9700	 6620.00	 6559.33	-1702.58	  355.17
    117.0700	 6359.00	 6315.29	-1719.54	  355.22
    117.1700	 6144.00	 6023.39	-1642.64	  355.27
    117.2700	 5693.00	 5694.14	-1764.39	  355.34
    117.3700	 5219.00	 5338.19	-1882.44	  355.40
    117.4700	 4998.00	 4965.67	-1730.92	  355.47
    117.5700	 4525.00	 4585.94	-1824.19	  355.55
    117.6700	 4340.00	 4207.24	-1630.49	  355.63
    117.7700	 3899.00	 3836.64	-1700.89	  355.72
    117.8700	 3629.00	 3480.16	-1614.41	  355.81
    117.9700	 3271.00	 3142.50	-1634.75	  355.91
    118.0700	 3051.00	 2827.24	-1539.49	  356.01
    118.1700	 2612.00	 2536.72	-1687.97	  356.12
    118.2700	 2289.00	 2272.26	-1746.51	  356.24
    118.3700	 1984.00	 2034.36	-1813.61	  356.36
    118.4700	 1750.00	 1822.70	-1835.95	  356.49
    118.5700	 1561.00	 1636.35	-1838.60	  356.62
    118.6700	 1383.00	 1473.85	-1854.10	  356.76
    118.7700	 1224.00	 1333.39	-1872.64	  356.90
    118.8700	 1130.00	 1212.98	-1846.23	  357.05
    118.9700	 1008.00	 1110.52	-1865.77	  357.21
    119.0700	  959.00	 1023.90	-1828.15	  357.37
    119.1700	  906.00	  951.04	-1808.29	  357.54
    119.2700	  849.00	  890.03	-1804.28	  357.72
    119.3700	  757.00	  839.11	-1845.36	  357.90
    119.4700	  752.00	  796.70	-1807.95	  358.09
    119.5700	  669.00	  761.42	-1855.67	  358.28
    119.6700	  702.00	  732.09	-1793.34	  358.48
    119.7700	  644.00	  707.68	-1826.93	  358.69
    119.8700	  629.00	  687.36	-1821.61	  358.91
    119.9700	  557.00	  670.41	-1876.66	  359.13
    120.0700	  636.00	  656.27	-1783.52	  359.35
    120.1700	  584.00	  644.45	-1823.70	  359.59
    120.2700	  558.00	  634.59	-1839.84	  359.83
    120.3700	  569.00	  626.38	-1820.63	  360.08
    120.4700	  606.00	  619.59	-1776.84	  360.33
    120.5700	  551.00	  614.02	-1826.27	  360.60
    120.6700	  577.00	  609.52	-1795.77	  360.86
    120.7700	  557.00	  605.98	-1812.23	  361.14
    120.8700	  589.00	  603.31	-1777.56	  361.42
    120.9700	  592.00	  601.43	-1772.68	  361.71
    121.0700	  596.00	  600.29	-1767.54	  362.01
    121.1700	  526.00	  599.83	-1837.08	  362.32
    121.2700	  531.00	  600.01	-1832.26	  362.63
    121.3700	  554.00	  600.78	-1810.03	  362.95
    121.4700	  590.00	  602.10	-1775.35	  363.28
    121.5700	  584.00	  603.92	-1783.17	  363.61
    121.6700	  586.00	  606.17	-1783.42	  363.96
    121.7700	  640.00	  608.80	-1732.05	  364.31
    121.8700	  593.00	  611.72	-1781.97	  364.67
    121.9700	  614.00	  614.87	-1764.12	  365.03
    122.0700	  653.00	  618.16	-1728.41	  365.41
    122.1700	  638.00	  621.48	-1746.73	  365.79
    122.2700	  611.00	  624.74	-1776.99	  366.18
    122.3700	  629.00	  627.83	-1762.08	  366.58
    122.4700	  658.00	  630.63	-1735.88	  366.99
    122.5700	  672.00	  633.06	-1724.31	  367.40
    122.6700	  652.00	  635.02	-1746.27	  367.83
    122.7700	  672.00	  636.44	-1727.69	  368.26
    122.8700	  662.00	  637.26	-1738.51	  368.70
    122.9700	  666.00	  637.45	-1734.70	  369.15
    123.0700	  590.00	  637.01	-1810.26	  369.61
    123.1700	  695.00	  635.97	-1704.22	  370.07
    123.2700	  668.00	  634.36	-1729.61	  370.55
    123.3700	  619.00	  632.25	-1776.50	  371.03
    123.4700	  666.00	  629.70	-1726.95	  371.53
    123.5700	  674.00	  626.80	-1716.05	  372.03
    123.6700	  662.00	  623.62	-1724.87	  372.54
    123.7700	  627.00	  620.23	-1756.48	  373.06
    123.8700	  652.00	  616.71	-1727.96	  373.59
    123.9700	  653.00	  613.14	-1723.39	  374.12
    124.0700	  639.00	  609.56	-1733.81	  374.67
    124.1700	  630.00	  606.05	-1739.30	  375.23
    124.2700	  642.00	  602.64	-1723.89	  375.80
    124.3700	  592.00	  599.37	-1770.62	  376.37
    124.4700	  606.00	  596.29	-1753.54	  376.96
    124.5700	  565.00	  593.41	-1791.66	  377.55
    124.6700	  600.00	  590.75	-1754.00	  378.16
    124.7700	  594.00	  588.33	-1757.58	  378.77
    124.8700	  591.00	  586.16	-1758.41	  379.39
    124.9700	  622.00	  498.34	-1639.59	  380.03
    125.0700	  571.00	  498.98	-1763.25	  380.67
    125.1700	  534.00	  499.64	-1763.25	  381.33
    125.2700	  561.00	  500.30	-1763.25	  381.99
    125.3700	  556.00	  500.98	-1763.25	  382.67
    125.4700	  510.00	  501.66	-1763.25	  383.35
    125.5700	  549.00	  502.36	-1763.25	  384.05
    125.6700	  532.00	  503.06	-1763.25	  384.75
    125.7700	  531.00	  503.78	-1763.25	  385.47
    125.8700	  543.00	  504.51	-1763.25	  386.19
    125.9700	  597.00	  505.24	-1763.25	  386.93
    126.0700	  579.00	  505.99	-1763.25	  387.68
    126.1700	  542.00	  506.75	-1763.25	  388.44
    126.2700	  578.00	  507.52	-1763.25	  389.21
    126.3700	  604.00	  508.30	-1763.25	  389.99
    126.4700	  535.00	  509.09	-1763.25	  390.78
    126.5700	  633.00	  509.89	-1763.25	  391.58
    126.6700	  642.00	  510.71	-1763.25	  392.40
    126.7700	  599.00	  511.53	-1763.25	  393.22
    126.8700	  607.00	  512.37	-1763.25	  394.06
    126.9700	  631.00	  513.22	-1763.25	  394.91
    127.0700	  626.00	  514.08	-1763.25	  395.77
    127.1700	  667.00	  514.95	-1763.25	  396.64
    127.2700	  644.00	  515.83	-1763.25	  397.52
    127.3700	  663.00	  516.73	-1763.25	  398.42
    127.4700	  621.00	  517.63	-1763.25	  399.32
    127.5700	  658.00	  518.55	-1763.25	  400.24
    127.6700	  662.00	  519.48	-1763.25	  401.17
    127.7700	  701.00	  520.42	-1763.25	  402.11
    127.8700	  744.00	  521.38	-1763.25	  403.07
    127.9700	  714.00	  522.34	-1763.25	  404.03
    128.0700	  762.00	  523.32	-1763.25	  405.01
    128.1700	  742.00	  524.31	-1763.25	  406.00
    128.2700	  797.00	  525.32	-1763.25	  407.01
    128.3700	  794.00	  526.33	-1763.25	  408.02
    128.4700	  801.00	  527.36	-1763.25	  409.05
    128.5700	    0.00	  528.40	-1763.25	  410.09
    128.6700	    0.00	  529.46	-1763.25	  411.15
     12.3085	        	        	        	        	       0	(  0  0  2)	  0  1
     24.8895	        	        	        	        	       0	(  0  0  4)	  0  1
     28.3344	        	        	        	        	       0	(  1  0  0)	  0  1
     29.0314	        	        	        	        	       0	(  1  0  1)	  0  1
     31.0370	        	        	        	        	       0	(  1  0  2)	  0  1
     34.1445	        	        	        	        	       0	(  1  0  3)	  0  1
     37.7862	        	        	        	        	       0	(  0  0  6)	  0  1
     38.1205	        	        	        	        	       0	(  1  0  4)	  0  1
     42.7694	        	        	        	        	       0	(  1  0  5)	  0  1
     47.9521	        	        	        	        	       0	(  1  0  6)	  0  1
     50.2703	        	        	        	        	       0	(  1  1  0)	  0  1
     51.2049	        	        	        	        	       0	(  0  0  8)	  0  1
     51.9928	        	        	        	        	       0	(  1  1  2)	  0  1
     53.5810	        	        	        	        	       0	(  1  0  7)	  0  1
     56.9391	        	        	        	        	       0	(  1  1  4)	  0  1
     58.7668	        	        	        	        	       0	(  2  0  0)	  0  1
     59.1583	        	        	        	        	       0	(  2  0  1)	  0  1
     59.6098	        	        	        	        	       0	(  1  0  8)	  0  1
     60.3233	        	        	        	        	       0	(  2  0  2)	  0  1
     62.2359	        	        	        	        	       0	(  2  0  3)	  0  1
     64.6314	        	        	        	        	       0	(  1  1  6)	  0  1
     64.8592	        	        	        	        	       0	(  2  0  4)	  0  1
     65.4303	        	        	        	        	       0	(  0  0 10)	  0  1
     66.0243	        	        	        	        	       0	(  1  0  9)	  0  1
     68.1523	        	        	        	        	       0	(  2  0  5)	  0  1
     72.0785	        	        	        	        	       0	(  2  0  6)	  0  1
     72.8383	        	        	        	        	       0	(  1  0 10)	  0  1
     74.6659	        	        	        	        	       0	(  1  1  8)	  0  1
     76.6112	        	        	        	        	       0	(  2  0  7)	  0  1
     80.0935	        	        	        	        	       0	(  1  0 11)	  0  1
     80.9057	        	        	        	        	       0	(  0  0 12)	  0  1
     81.0067	        	        	        	        	       0	(  2  1  0)	  0  1
     81.3464	        	        	        	        	       0	(  2  1  1)	  0  1
     81.7397	        	        	        	        	       0	(  2  0  8)	  0  1
     82.3639	        	        	        	        	       0	(  2  1  2)	  0  1
     84.0546	        	        	        	        	       0	(  2  1  3)	  0  1
     86.4134	        	        	        	        	       0	(  2  1  4)	  0  1
     86.9330	        	        	        	        	       0	(  1  1 10)	  0  1
     87.4756	        	        	        	        	       0	(  2  0  9)	  0  1
     87.8649	        	        	        	        	       0	(  1  0 12)	  0  1
     89.4381	        	        	        	        	       0	(  2  1  5)	  0  1
     93.1341	        	        	        	        	       0	(  2  1  6)	  0  1
     93.8605	        	        	        	        	       0	(  2  0 10)	  0  1
     94.8945	        	        	        	        	       0	(  3  0  0)	  0  1
     95.2317	        	        	        	        	       0	(  3  0  1)	  0  1
     96.2445	        	        	        	        	       0	(  3  0  2)	  0  1
     96.2747	        	        	        	        	       0	(  1  0 13)	  0  1
     97.5210	        	        	        	        	       0	(  2  1  7)	  0  1
     97.9372	        	        	        	        	       0	(  3  0  3)	  0  1
     98.4380	        	        	        	        	       0	(  0  0 14)	  0  1
    100.3192	        	        	        	        	       0	(  3  0  4)	  0  1
    100.9793	        	        	        	        	       0	(  2  0 11)	  0  1
    101.7971	        	        	        	        	       0	(  1  1 12)	  0  1
    102.6413	        	        	        	        	       0	(  2  1  8)	  0  1
    103.4096	        	        	        	        	       0	(  3  0  5)	  0  1
    105.5228	        	        	        	        	       0	(  1  0 14)	  0  1
    107.2430	        	        	        	        	       0	(  3  0  6)	  0  1
    108.5754	        	        	        	        	       0	(  2  1  9)	  0  1
    108.9866	        	        	        	        	       0	(  2  0 12)	  0  1
    111.8812	        	        	        	        	       0	(  3  0  7)	  0  1
    115.4688	        	        	        	        	       0	(  2  1 10)	  0  1
    115.9602	        	        	        	        	       0	(  1  0 15)	  0  1
    116.6173	        	        	        	        	       0	(  2  2  0)	  0  1
    117.4319	        	        	        	        	       0	(  3  0  8)	  0  1
    118.1318	        	        	        	        	       0	(  2  2  2)	  0  1
    118.1658	        	        	        	        	       0	(  2  0 13)	  0  1
    119.9137	        	        	        	        	       0	(  0  0 16)	  0  1
    120.6307	        	        	        	        	       0	(  1  1 14)	  0  1
    122.8150	        	        	        	        	       0	(  2  2  4)	  0  1
    123.5911	        	        	        	        	       0	(  2  1 11)	  0  1
    124.0882	        	        	        	        	       0	(  3  0  9)	  0  1
    124.6813	        	        	        	        	       0	(  3  1  0)	  0  1
    125.0914	        	        	        	        	       0	(  3  1  1)	  0  1
    126.3342	        	        	        	        	       0	(  3  1  2)	  0  1
    128.2942	        	        	        	        	       0	(  1  0 16)	  0  1
    128.4514	        	        	        	        	       0	(  3  1  3)	  0  1
    129.0880	        	        	        	        	       0	(  2  0 14)	  0  1
    131.2503	        	        	        	        	       0	(  2  2  6)	  0  1
    131.5256	        	        	        	        	       0	(  3  1  4)	  0  1
    132.2236	        	        	        	        	       0	(  3  0 10)	  0  1
    133.4964	        	        	        	        	       0	(  2  1 12)	  0  1
    135.7102	        	        	        	        	       0	(  3  1  5)	  0  1
    141.3019	        	        	        	        	       0	(  3  1  6)	  0  1
    142.6938	        	        	        	        	       0	(  3  0 11)	  0  1
    143.2141	        	        	        	        	       0	(  2  0 15)	  0  1
    144.4460	        	        	        	        	       0	(  1  0 17)	  0  1
    145.4742	        	        	        	        	       0	(  2  2  8)	  0  1
    146.6392	        	        	        	        	       0	(  2  1 13)	  0  1
    148.9689	        	        	        	        	       0	(  3  1  7)	  0  1
    149.5368	        	        	        	        	       0	(  1  1 16)	  0  1
    153.9222	        	        	        	        	       0	(  0  0 18)	  0  1
    158.5504	        	        	        	        	       0	(  3  0 12)	  0  1
    158.8264	        	        	        	        	       0	(  4  0  0)	  0  1
    159.7821	        	        	        	        	       0	(  4  0  1)	  0  1
    160.9469	        	        	        	        	       0	(  3  1  8)	  0  1
    162.9565	        	        	        	        	       0	(  4  0  2)	  0  1
    169.5725	        	        	        	        	       0	(  2  0 16)	  0  1
    170.2844	        	        	        	        	       0	(  4  0  3)	  0  1
    173.9563	        	        	        	        	       0	(  2  1 14)	  0  1
