MSG Master    CELL:    5.91333   5.91333  23.23365   90.0000   90.0000  120.0000   SPGR: P 63/m m c             TEMP:    968.15
  1   1280     2.52000     0.00000    -0.12741     0.00000     0.00000    0
    98     0     2
       0.00000      10.00000
     125.00000     130.00000
 2Theta	Yobs	Ycal	Yobs-Ycal	Backg	Posr	(hkl)	K
      0.7700	    0.00	  509.61	-1836.75	  398.21
      0.8700	    0.00	  510.76	-1836.75	  399.36
      0.9700	   42.00	  511.90	-1836.75	  400.50
      1.0700	   39.00	  513.02	-1836.75	  401.62
      1.1700	   42.00	  514.13	-1836.75	  402.73
      1.2700	   48.00	  515.22	-1836.75	  403.82
      1.3700	   45.00	  516.30	-1836.75	  404.90
      1.4700	   91.00	  517.37	-1836.75	  405.97
      1.5700	  288.00	  518.42	-1836.75	  407.02
      1.6700	  455.00	  519.46	-1836.75	  408.06
      1.7700	  592.00	  520.48	-1836.75	  409.08
      1.8700	  663.00	  521.50	-1836.75	  410.10
      1.9700	  724.00	  522.49	-1836.75	  411.09
      2.0700	  781.00	  523.48	-1836.75	  412.08
      2.1700	  823.00	  524.45	-1836.75	  413.05
      2.2700	  753.00	  525.41	-1836.75	  414.01
      2.3700	  688.00	  526.35	-1836.75	  414.95
      2.4700	  695.00	  527.28	-1836.75	  415.88
      2.5700	  651.00	  528.20	-1836.75	  416.80
      2.6700	  627.00	  529.11	-1836.75	  417.71
      2.7700	  709.00	  530.00	-1836.75	  418.60
      2.8700	  648.00	  530.88	-1836.75	  419.48
      2.9700	  617.00	  531.75	-1836.75	  420.35
      3.0700	  577.00	  532.60	-1836.75	  421.20
      3.1700	  589.00	  533.44	-1836.75	  422.04
      3.2700	  665.00	  534.27	-1836.75	  422.87
      3.3700	  717.00	  535.09	-1836.75	  423.69
      3.4700	  742.00	  535.90	-1836.75	  424.50
      3.5700	  858.00	  536.69	-1836.75	  425.29
      3.6700	  848.00	  537.47	-1836.75	  426.07
      3.7700	  925.00	  538.24	-1836.75	  426.84
      3.8700	  944.00	  539.00	-1836.75	  427.60
      3.9700	  974.00	  539.75	-1836.75	  428.35
      4.0700	 1040.00	  540.48	-1836.75	  429.08
      4.1700	 1095.00	  541.20	-1836.75	  429.80
      4.2700	 1109.00	  541.91	-1836.75	  430.51
      4.3700	 1074.00	  542.61	-1836.75	  431.21
      4.4700	 1019.00	  543.30	-1836.75	  431.90
      4.5700	 1058.00	  543.98	-1836.75	  432.58
      4.6700	  961.00	  544.64	-1836.75	  433.24
      4.7700	  957.00	  545.30	-1836.75	  433.90
      4.8700	  927.00	  545.94	-1836.75	  434.54
      4.9700	  925.00	  546.57	-1836.75	  435.17
      5.0700	  975.00	  547.20	-1836.75	  435.80
      5.1700	  921.00	  547.81	-1836.75	  436.41
      5.2700	  816.00	  548.41	-1836.75	  437.01
      5.3700	  893.00	  549.00	-1836.75	  437.60
      5.4700	  837.00	  549.58	-1836.75	  438.18
      5.5700	  823.00	  550.14	-1836.75	  438.74
      5.6700	  855.00	  550.70	-1836.75	  439.30
      5.7700	  805.00	  551.25	-1836.75	  439.85
      5.8700	  806.00	  551.79	-1836.75	  440.39
      5.9700	  784.00	  552.31	-1836.75	  440.91
      6.0700	  824.00	  552.83	-1836.75	  441.43
      6.1700	  786.00	  553.34	-1836.75	  441.94
      6.2700	  712.00	  553.83	-1836.75	  442.43
      6.3700	  764.00	  554.32	-1836.75	  442.92
      6.4700	  724.00	  554.80	-1836.75	  443.40
      6.5700	  791.00	  555.27	-1836.75	  443.87
      6.6700	  715.00	  555.72	-1836.75	  444.32
      6.7700	  760.00	  556.17	-1836.75	  444.77
      6.8700	  726.00	  556.61	-1836.75	  445.21
      6.9700	  722.00	  557.04	-1836.75	  445.64
      7.0700	  743.00	  557.46	-1836.75	  446.06
      7.1700	  649.00	  557.87	-1836.75	  446.47
      7.2700	  712.00	  558.27	-1836.75	  446.87
      7.3700	  651.00	  558.66	-1836.75	  447.26
      7.4700	  698.00	  559.05	-1836.75	  447.65
      7.5700	  646.00	  559.42	-1836.75	  448.02
      7.6700	  663.00	  559.79	-1836.75	  448.39
      7.7700	  607.00	  560.14	-1836.75	  448.74
      7.8700	  641.00	  560.49	-1836.75	  449.09
      7.9700	  650.00	  560.83	-1836.75	  449.43
      8.0700	  643.00	  561.16	-1836.75	  449.76
      8.1700	  652.00	  561.48	-1836.75	  450.08
      8.2700	  643.00	  561.79	-1836.75	  450.39
      8.3700	  624.00	  562.10	-1836.75	  450.70
      8.4700	  626.00	  562.40	-1836.75	  451.00
      8.5700	  627.00	  562.68	-1836.75	  451.28
      8.6700	  613.00	  562.96	-1836.75	  451.56
      8.7700	  593.00	  563.23	-1836.75	  451.83
      8.8700	  610.00	  563.50	-1836.75	  452.10
      8.9700	  654.00	  563.75	-1836.75	  452.35
      9.0700	  579.00	  564.00	-1836.75	  452.60
      9.1700	  576.00	  564.24	-1836.75	  452.84
      9.2700	  584.00	  564.47	-1836.75	  453.07
      9.3700	  619.00	  564.70	-1836.75	  453.30
      9.4700	  570.00	  564.91	-1836.75	  453.51
      9.5700	  562.00	  565.12	-1836.75	  453.72
      9.6700	  566.00	  565.32	-1836.75	  453.92
      9.7700	  597.00	  565.52	-1836.75	  454.12
      9.8700	  622.00	  565.70	-1836.75	  454.30
      9.9700	  603.00	  565.88	-1836.75	  454.48
     10.0700	  612.00	  566.77	-1791.52	  454.65
     10.1700	  601.00	  567.00	-1802.75	  454.82
     10.2700	  563.00	  567.24	-1840.99	  454.97
     10.3700	  597.00	  567.50	-1807.25	  455.12
     10.4700	  573.00	  567.79	-1831.54	  455.26
     10.5700	  633.00	  568.17	-1771.92	  455.40
     10.6700	  590.00	  568.71	-1815.46	  455.53
     10.7700	  556.00	  569.54	-1850.29	  455.65
     10.8700	  588.00	  570.72	-1819.47	  455.77
     10.9700	  571.00	  572.28	-1838.03	  455.87
     11.0700	  561.00	  574.17	-1849.92	  455.98
     11.1700	  583.00	  576.38	-1830.13	  456.07
     11.2700	  613.00	  578.92	-1802.67	  456.16
     11.3700	  597.00	  581.87	-1821.62	  456.24
     11.4700	  592.00	  585.34	-1830.09	  456.32
     11.5700	  601.00	  589.50	-1825.25	  456.39
     11.6700	  565.00	  594.65	-1866.40	  456.45
     11.7700	  619.00	  601.31	-1819.06	  456.51
     11.8700	  645.00	  610.38	-1802.13	  456.56
     11.9700	  670.00	  622.81	-1789.56	  456.60
     12.0700	  729.00	  637.95	-1745.70	  456.64
     12.1700	  702.00	  650.65	-1785.40	  456.67
     12.2700	  674.00	  651.09	-1813.84	  456.70
     12.3700	  643.00	  633.45	-1827.20	  456.72
     12.4700	  635.00	  608.31	-1810.06	  456.73
     12.5700	  585.00	  588.93	-1840.68	  456.74
     12.6700	  589.00	  578.38	-1826.13	  456.75
     12.7700	  556.00	  573.81	-1854.56	  456.74
     12.8700	  572.00	  571.93	-1836.68	  456.74
     12.9700	  592.00	  571.00	-1815.75	  456.72
     13.0700	  579.00	  570.41	-1828.16	  456.70
     13.1700	  529.00	  569.99	-1877.74	  456.68
     13.2700	  544.00	  569.67	-1862.42	  456.65
     13.3700	  527.00	  569.41	-1879.16	  456.61
     13.4700	  540.00	  569.19	-1865.94	  456.57
     13.5700	  570.00	  569.00	-1835.75	  456.53
     13.6700	  577.00	  568.84	-1828.59	  456.48
     13.7700	  573.00	  568.69	-1832.44	  456.42
     13.8700	  518.00	  568.55	-1887.30	  456.36
     13.9700	  550.00	  568.42	-1855.17	  456.29
     14.0700	  570.00	  568.30	-1835.05	  456.22
     14.1700	  535.00	  568.17	-1869.93	  456.14
     14.2700	  568.00	  568.05	-1836.80	  456.06
     14.3700	  546.00	  567.93	-1858.68	  455.98
     14.4700	  541.00	  567.81	-1863.56	  455.89
     14.5700	  535.00	  567.69	-1869.44	  455.79
     14.6700	  551.00	  567.57	-1853.32	  455.69
     14.7700	  602.00	  567.44	-1802.19	  455.59
     14.8700	  548.00	  567.31	-1856.06	  455.48
     14.9700	  542.00	  567.18	-1861.93	  455.37
     15.0700	  511.00	  567.05	-1892.80	  455.25
     15.1700	  496.00	  566.92	-1907.67	  455.13
     15.2700	  565.00	  566.78	-1838.53	  455.00
     15.3700	  555.00	  566.64	-1848.39	  454.87
     15.4700	  541.00	  566.49	-1862.24	  454.74
     15.5700	  560.00	  566.34	-1843.09	  454.60
     15.6700	  553.00	  566.19	-1849.94	  454.45
     15.7700	  562.00	  566.04	-1840.79	  454.31
     15.8700	  523.00	  565.88	-1879.63	  454.16
     15.9700	  508.00	  565.72	-1894.47	  454.00
     16.0700	  568.00	  565.55	-1834.30	  453.84
     16.1700	  537.00	  565.38	-1865.13	  453.68
     16.2700	  575.00	  565.21	-1826.96	  453.51
     16.3700	  575.00	  565.04	-1826.79	  453.34
     16.4700	  554.00	  564.88	-1847.63	  453.17
     16.5700	  555.00	  564.70	-1846.45	  452.99
     16.6700	  561.00	  564.52	-1840.27	  452.81
     16.7700	  554.00	  564.33	-1847.08	  452.62
     16.8700	  582.00	  564.14	-1818.89	  452.43
     16.9700	  528.00	  563.94	-1872.69	  452.24
     17.0700	  560.00	  563.75	-1840.50	  452.05
     17.1700	  561.00	  563.55	-1839.30	  451.85
     17.2700	  550.00	  563.34	-1850.09	  451.65
     17.3700	  581.00	  563.14	-1818.89	  451.44
     17.4700	  564.00	  562.92	-1835.67	  451.23
     17.5700	  567.00	  562.71	-1832.46	  451.02
     17.6700	  542.00	  562.50	-1857.25	  450.80
     17.7700	  553.00	  562.28	-1846.03	  450.59
     17.8700	  573.00	  562.16	-1825.91	  450.36
     17.9700	  532.00	  561.94	-1866.69	  450.14
     18.0700	  558.00	  561.71	-1840.46	  449.91
     18.1700	  560.00	  561.49	-1838.24	  449.68
     18.2700	  550.00	  561.25	-1848.00	  449.45
     18.3700	  543.00	  561.02	-1854.77	  449.21
     18.4700	  516.00	  560.78	-1881.53	  448.97
     18.5700	  546.00	  560.55	-1851.30	  448.73
     18.6700	  558.00	  560.30	-1839.05	  448.49
     18.7700	  564.00	  560.06	-1832.81	  448.24
     18.8700	  567.00	  559.91	-1829.66	  447.99
     18.9700	  567.00	  559.66	-1829.41	  447.74
     19.0700	  595.00	  559.41	-1801.16	  447.48
     19.1700	  562.00	  559.16	-1833.91	  447.23
     19.2700	  588.00	  558.91	-1807.66	  446.97
     19.3700	  530.00	  558.65	-1865.40	  446.70
     19.4700	  542.00	  558.39	-1853.14	  446.44
     19.5700	  546.00	  558.13	-1848.88	  446.17
     19.6700	  570.00	  557.87	-1824.62	  445.90
     19.7700	  575.00	  557.61	-1819.36	  445.63
     19.8700	  541.00	  557.34	-1853.09	  445.36
     19.9700	  534.00	  557.08	-1859.83	  445.08
     20.0700	  580.00	  556.81	-1813.56	  444.80
     20.1700	  537.00	  556.54	-1856.29	  444.52
     20.2700	  548.00	  556.27	-1845.02	  444.24
     20.3700	  551.00	  555.97	-1841.72	  443.96
     20.4700	  556.00	  555.69	-1836.44	  443.67
     20.5700	  534.00	  555.42	-1858.17	  443.38
     20.6700	  541.00	  555.14	-1850.89	  443.09
     20.7700	  502.00	  554.86	-1889.61	  442.80
     20.8700	  524.00	  554.58	-1867.33	  442.50
     20.9700	  549.00	  554.34	-1842.09	  442.21
     21.0700	  527.00	  554.06	-1863.81	  441.91
     21.1700	  551.00	  553.78	-1839.53	  441.61
     21.2700	  535.00	  553.50	-1855.25	  441.31
     21.3700	  576.00	  553.21	-1813.96	  441.01
     21.4700	  568.00	  552.93	-1821.68	  440.70
     21.5700	  521.00	  552.65	-1868.40	  440.40
     21.6700	  519.00	  552.37	-1870.12	  440.09
     21.7700	  547.00	  552.09	-1841.84	  439.78
     21.8700	  561.00	  551.80	-1827.55	  439.47
     21.9700	  547.00	  551.52	-1841.27	  439.16
     22.0700	  531.00	  551.24	-1856.99	  438.84
     22.1700	  550.00	  550.97	-1837.72	  438.53
     22.2700	  545.00	  550.69	-1842.44	  438.21
     22.3700	  547.00	  550.41	-1840.16	  437.90
     22.4700	  582.00	  550.14	-1804.89	  437.58
     22.5700	  550.00	  549.88	-1836.63	  437.26
     22.6700	  560.00	  549.61	-1826.36	  436.94
     22.7700	  553.00	  549.35	-1833.10	  436.61
     22.8700	  494.00	  549.10	-1891.85	  436.29
     22.9700	  573.00	  548.86	-1812.61	  435.97
     23.0700	  571.00	  548.62	-1814.37	  435.64
     23.1700	  562.00	  548.40	-1823.15	  435.31
     23.2700	  532.00	  548.20	-1852.95	  434.98
     23.3700	  540.00	  548.02	-1844.77	  434.66
     23.4700	  548.00	  547.86	-1836.61	  434.33
     23.5700	  554.00	  547.75	-1830.50	  434.00
     23.6700	  545.00	  547.69	-1839.44	  433.66
     23.7700	  564.00	  547.71	-1820.46	  433.33
     23.8700	  549.00	  548.01	-1835.76	  433.00
     23.9700	  557.00	  548.51	-1828.26	  432.67
     24.0700	  576.00	  549.67	-1810.42	  432.33
     24.1700	  595.00	  552.11	-1793.86	  432.00
     24.2700	  547.00	  556.69	-1846.44	  431.66
     24.3700	  588.00	  564.38	-1813.13	  431.32
     24.4700	  605.00	  576.37	-1808.12	  430.98
     24.5700	  622.00	  593.69	-1808.44	  430.65
     24.6700	  623.00	  615.28	-1829.03	  430.31
     24.7700	  655.00	  634.85	-1816.60	  429.97
     24.8700	  629.00	  640.58	-1848.33	  429.63
     24.9700	  645.00	  624.27	-1816.02	  429.29
     25.0700	  574.00	  595.84	-1858.59	  428.95
     25.1700	  625.00	  571.26	-1783.01	  428.61
     25.2700	  587.00	  556.37	-1806.12	  428.27
     25.3700	  611.00	  549.27	-1775.02	  427.92
     25.4700	  608.00	  546.23	-1774.98	  427.58
     25.5700	  559.00	  544.78	-1822.53	  427.24
     25.6700	  529.00	  543.90	-1851.65	  426.90
     25.7700	  563.00	  543.29	-1817.04	  426.55
     25.8700	  588.00	  542.82	-1791.57	  426.21
     25.9700	  533.00	  542.47	-1846.22	  425.87
     26.0700	  566.00	  542.22	-1812.97	  425.52
     26.1700	  553.00	  542.04	-1825.79	  425.18
     26.2700	  546.00	  541.95	-1832.70	  424.84
     26.3700	  594.00	  541.93	-1784.68	  424.49
     26.4700	  542.00	  542.01	-1836.76	  424.15
     26.5700	  547.00	  542.17	-1831.92	  423.80
     26.6700	  543.00	  542.46	-1836.21	  423.46
     26.7700	  599.00	  542.88	-1780.63	  423.12
     26.8700	  523.00	  543.48	-1857.23	  422.77
     26.9700	  565.00	  544.31	-1816.06	  422.43
     27.0700	  534.00	  545.43	-1848.18	  422.08
     27.1700	  580.00	  546.98	-1803.73	  421.74
     27.2700	  605.00	  549.17	-1780.92	  421.40
     27.3700	  574.00	  552.47	-1815.22	  421.05
     27.4700	  560.00	  557.72	-1834.47	  420.71
     27.5700	  555.00	  566.50	-1848.25	  420.36
     27.6700	  592.00	  581.35	-1826.10	  420.02
     27.7700	  560.00	  605.71	-1882.46	  419.68
     27.8700	  588.00	  642.91	-1891.66	  419.34
     27.9700	  631.00	  693.97	-1899.72	  418.99
     28.0700	  762.00	  754.57	-1829.32	  418.65
     28.1700	  853.00	  812.09	-1795.84	  418.31
     28.2700	  976.00	  845.37	-1706.12	  417.97
     28.3700	  974.00	  835.97	-1698.72	  417.63
     28.4700	  867.00	  795.57	-1765.32	  417.29
     28.5700	  727.00	  760.15	-1869.90	  416.95
     28.6700	  672.00	  752.30	-1917.05	  416.61
     28.7700	  737.00	  772.43	-1872.18	  416.27
     28.8700	  792.00	  803.91	-1848.66	  415.93
     28.9700	  833.00	  818.92	-1822.67	  415.59
     29.0700	  862.00	  792.69	-1767.44	  415.25
     29.1700	  723.00	  731.06	-1844.81	  414.92
     29.2700	  660.00	  664.54	-1841.29	  414.58
     29.3700	  611.00	  612.99	-1838.74	  414.24
     29.4700	  591.00	  580.11	-1825.86	  413.91
     29.5700	  612.00	  561.70	-1786.45	  413.57
     29.6700	  619.00	  551.92	-1769.67	  413.24
     29.7700	  601.00	  546.48	-1782.23	  412.90
     29.8700	  586.00	  543.15	-1793.90	  412.57
     29.9700	  628.00	  540.98	-1749.73	  412.24
     30.0700	  576.00	  539.68	-1800.43	  411.91
     30.1700	  566.00	  539.28	-1810.03	  411.58
     30.2700	  578.00	  540.18	-1798.93	  411.25
     30.3700	  567.00	  543.24	-1812.99	  410.92
     30.4700	  594.00	  549.88	-1792.63	  410.59
     30.5700	  547.00	  561.88	-1851.63	  410.26
     30.6700	  561.00	  580.30	-1856.05	  409.94
     30.7700	  559.00	  603.83	-1881.58	  409.61
     30.8700	  574.00	  627.10	-1889.85	  409.29
     30.9700	  593.00	  640.43	-1884.18	  408.96
     31.0700	  616.00	  634.10	-1854.85	  408.64
     31.1700	  585.00	  609.84	-1861.59	  408.32
     31.2700	  584.00	  581.18	-1833.93	  408.00
     31.3700	  552.00	  558.08	-1842.83	  407.68
     31.4700	  600.00	  543.16	-1779.91	  407.36
     31.5700	  525.00	  534.86	-1846.61	  407.04
     31.6700	  580.00	  530.57	-1787.32	  406.72
     31.7700	  574.00	  528.25	-1791.00	  406.40
     31.8700	  545.00	  526.83	-1818.58	  406.09
     31.9700	  542.00	  525.85	-1820.60	  405.77
     32.0700	  533.00	  525.14	-1828.89	  405.46
     32.1700	  539.00	  524.62	-1822.37	  405.15
     32.2700	  531.00	  524.27	-1830.02	  404.84
     32.3700	  513.00	  524.07	-1847.82	  404.53
     32.4700	  554.00	  524.02	-1806.77	  404.22
     32.5700	  565.00	  524.12	-1795.87	  403.91
     32.6700	  536.00	  524.41	-1825.16	  403.61
     32.7700	  541.00	  524.92	-1820.67	  403.30
     32.8700	  507.00	  525.70	-1855.45	  403.00
     32.9700	  525.00	  526.84	-1838.59	  402.70
     33.0700	  535.00	  528.50	-1830.25	  402.39
     33.1700	  551.00	  531.01	-1816.76	  402.09
     33.2700	  528.00	  535.10	-1843.85	  401.79
     33.3700	  528.00	  542.39	-1851.14	  401.50
     33.4700	  565.00	  556.35	-1828.10	  401.20
     33.5700	  568.00	  582.93	-1851.68	  400.90
     33.6700	  633.00	  630.29	-1834.04	  400.61
     33.7700	  720.00	  705.05	-1821.80	  400.32
     33.8700	  769.00	  804.45	-1872.20	  400.03
     33.9700	 1048.00	  908.43	-1697.18	  399.74
     34.0700	 1084.00	  978.34	-1731.09	  399.45
     34.1700	 1077.00	  971.93	-1731.68	  399.16
     34.2700	 1030.00	  885.94	-1692.69	  398.88
     34.3700	  759.00	  769.54	-1847.29	  398.59
     34.4700	  718.00	  668.81	-1787.56	  398.31
     34.5700	  639.00	  600.60	-1798.35	  398.03
     34.6700	  613.00	  561.82	-1785.57	  397.75
     34.7700	  549.00	  542.11	-1829.86	  397.47
     34.8700	  548.00	  532.19	-1820.94	  397.19
     34.9700	  560.00	  526.63	-1803.38	  396.92
     35.0700	  500.00	  522.99	-1859.74	  396.64
     35.1700	  515.00	  520.31	-1842.06	  396.37
     35.2700	  514.00	  518.21	-1840.96	  396.10
     35.3700	  510.00	  516.51	-1843.26	  395.83
     35.4700	  518.00	  515.12	-1833.87	  395.56
     35.5700	  513.00	  513.93	-1837.68	  395.29
     35.6700	  509.00	  512.92	-1840.67	  395.03
     35.7700	  514.00	  512.03	-1834.78	  394.76
     35.8700	  484.00	  511.74	-1864.49	  394.50
     35.9700	  498.00	  511.05	-1849.80	  394.24
     36.0700	  536.00	  510.42	-1811.17	  393.98
     36.1700	  499.00	  509.86	-1847.61	  393.72
     36.2700	  538.00	  509.34	-1808.09	  393.47
     36.3700	  515.00	  508.87	-1830.62	  393.21
     36.4700	  517.00	  508.44	-1828.19	  392.96
     36.5700	  555.00	  508.04	-1789.79	  392.71
     36.6700	  465.00	  507.68	-1879.43	  392.46
     36.7700	  492.00	  507.36	-1852.11	  392.21
     36.8700	  481.00	  507.08	-1862.83	  391.97
     36.9700	  542.00	  506.88	-1801.63	  391.72
     37.0700	  482.00	  506.81	-1861.56	  391.48
     37.1700	  506.00	  507.04	-1837.79	  391.24
     37.2700	  486.00	  507.85	-1858.60	  391.00
     37.3700	  506.00	  509.63	-1840.38	  390.76
     37.4700	  527.00	  512.70	-1822.45	  390.52
     37.5700	  527.00	  516.91	-1826.66	  390.29
     37.6700	  501.00	  521.32	-1857.07	  390.06
     37.7700	  513.00	  524.29	-1848.04	  389.83
     37.8700	  512.00	  524.35	-1849.10	  389.60
     37.9700	  495.00	  521.75	-1863.50	  389.37
     38.0700	  438.00	  517.97	-1916.72	  389.14
     38.1700	  536.00	  513.98	-1814.73	  388.92
     38.2700	  496.00	  510.27	-1851.02	  388.70
     38.3700	  478.00	  507.25	-1866.00	  388.48
     38.4700	  508.00	  505.06	-1833.81	  388.26
     38.5700	  541.00	  503.60	-1799.35	  388.04
     38.6700	  496.00	  502.68	-1843.43	  387.82
     38.7700	  525.00	  502.08	-1813.83	  387.61
     38.8700	  478.00	  501.67	-1860.42	  387.40
     38.9700	  483.00	  501.23	-1854.98	  387.19
     39.0700	  524.00	  500.95	-1813.70	  386.98
     39.1700	  493.00	  500.69	-1844.44	  386.77
     39.2700	  491.00	  500.46	-1846.21	  386.57
     39.3700	  465.00	  500.15	-1871.90	  386.37
     39.4700	  511.00	  499.94	-1825.69	  386.17
     39.5700	  484.00	  499.74	-1852.49	  385.97
     39.6700	  491.00	  499.55	-1845.30	  385.77
     39.7700	  513.00	  499.37	-1823.12	  385.57
     39.8700	  502.00	  499.33	-1834.08	  385.38
     39.9700	  474.00	  499.17	-1861.92	  385.19
     40.0700	  471.00	  499.02	-1864.77	  385.00
     40.1700	  460.00	  498.88	-1875.63	  384.81
     40.2700	  500.00	  498.76	-1835.51	  384.62
     40.3700	  471.00	  498.64	-1864.39	  384.44
     40.4700	  490.00	  498.54	-1845.29	  384.26
     40.5700	  533.00	  498.45	-1802.20	  384.08
     40.6700	  516.00	  498.37	-1819.12	  383.90
     40.7700	  479.00	  498.32	-1856.07	  383.72
     40.8700	  514.00	  498.28	-1821.03	  383.54
     40.9700	  485.00	  498.27	-1850.02	  383.37
     41.0700	  495.00	  498.29	-1840.04	  383.20
     41.1700	  501.00	  498.34	-1834.09	  383.03
     41.2700	  497.00	  498.41	-1838.16	  382.86
     41.3700	  521.00	  498.56	-1814.31	  382.70
     41.4700	  525.00	  498.79	-1810.54	  382.53
     41.5700	  490.00	  499.11	-1845.86	  382.37
     41.6700	  536.00	  500.00	-1800.75	  382.21
     41.7700	  500.00	  500.68	-1837.43	  382.05
     41.8700	  511.00	  501.75	-1827.50	  381.90
     41.9700	  528.00	  503.68	-1812.43	  381.74
     42.0700	  495.00	  507.42	-1849.17	  381.59
     42.1700	  511.00	  514.85	-1840.60	  381.44
     42.2700	  521.00	  528.51	-1844.26	  381.29
     42.3700	  498.00	  551.13	-1889.88	  381.14
     42.4700	  589.00	  583.26	-1831.01	  381.00
     42.5700	  559.00	  620.74	-1898.49	  380.85
     42.6700	  597.00	  653.37	-1893.12	  380.71
     42.7700	  617.00	  667.10	-1886.85	  380.57
     42.8700	  567.00	  653.74	-1923.49	  380.43
     42.9700	  559.00	  620.13	-1897.88	  380.30
     43.0700	  522.00	  581.48	-1896.23	  380.16
     43.1700	  510.00	  548.82	-1875.57	  380.03
     43.2700	  563.00	  526.21	-1799.96	  379.90
     43.3700	  520.00	  512.84	-1829.59	  379.77
     43.4700	  484.00	  505.77	-1858.52	  379.65
     43.5700	  479.00	  502.22	-1859.97	  379.52
     43.6700	  499.00	  500.52	-1838.27	  379.40
     43.7700	  490.00	  499.39	-1846.14	  379.28
     43.8700	  525.00	  498.61	-1810.36	  379.16
     43.9700	  495.00	  498.03	-1839.78	  379.05
     44.0700	  480.00	  497.57	-1854.32	  378.93
     44.1700	  575.00	  497.22	-1758.97	  378.82
     44.2700	  502.00	  496.93	-1831.68	  378.71
     44.3700	  505.00	  496.74	-1828.49	  378.60
     44.4700	  502.00	  496.57	-1831.32	  378.49
     44.5700	  463.00	  496.31	-1870.06	  378.39
     44.6700	  483.00	  496.21	-1849.96	  378.28
     44.7700	  491.00	  496.14	-1841.89	  378.18
     44.8700	  465.00	  496.10	-1867.85	  378.08
     44.9700	  506.00	  496.08	-1826.83	  377.98
     45.0700	  506.00	  496.09	-1826.84	  377.89
     45.1700	  509.00	  496.12	-1823.87	  377.79
     45.2700	  519.00	  496.36	-1814.11	  377.70
     45.3700	  529.00	  496.44	-1804.19	  377.61
     45.4700	  506.00	  496.54	-1827.29	  377.52
     45.5700	  515.00	  496.66	-1818.41	  377.43
     45.6700	  553.00	  496.81	-1780.56	  377.35
     45.7700	  516.00	  496.98	-1817.73	  377.27
     45.8700	  488.00	  497.18	-1845.93	  377.19
     45.9700	  503.00	  497.41	-1831.16	  377.11
     46.0700	  452.00	  497.66	-1882.41	  377.03
     46.1700	  471.00	  497.96	-1863.71	  376.95
     46.2700	  490.00	  498.29	-1845.04	  376.88
     46.3700	  525.00	  498.67	-1810.42	  376.81
     46.4700	  490.00	  499.10	-1845.85	  376.74
     46.5700	  508.00	  499.58	-1828.33	  376.67
     46.6700	  508.00	  500.14	-1828.89	  376.60
     46.7700	  500.00	  500.78	-1837.53	  376.54
     46.8700	  490.00	  501.53	-1848.28	  376.48
     46.9700	  514.00	  502.45	-1825.20	  376.42
     47.0700	  501.00	  503.71	-1839.46	  376.36
     47.1700	  508.00	  505.52	-1834.27	  376.30
     47.2700	  493.00	  508.48	-1852.23	  376.24
     47.3700	  579.00	  513.46	-1771.21	  376.19
     47.4700	  546.00	  521.68	-1812.43	  376.14
     47.5700	  541.00	  533.96	-1829.71	  376.09
     47.6700	  557.00	  550.19	-1829.94	  376.04
     47.7700	  578.00	  568.28	-1827.03	  376.00
     47.8700	  557.00	  583.85	-1863.60	  375.95
     47.9700	  575.00	  591.42	-1853.17	  375.91
     48.0700	  595.00	  587.91	-1829.66	  375.87
     48.1700	  544.00	  575.87	-1868.62	  375.83
     48.2700	  535.00	  561.09	-1862.84	  375.79
     48.3700	  559.00	  548.29	-1826.04	  375.75
     48.4700	  552.00	  539.81	-1824.56	  375.72
     48.5700	  469.00	  535.96	-1903.71	  375.69
     48.6700	  562.00	  535.98	-1810.73	  375.66
     48.7700	  504.00	  538.82	-1871.57	  375.63
     48.8700	  492.00	  543.81	-1888.56	  375.60
     48.9700	  531.00	  550.76	-1856.51	  375.58
     49.0700	  593.00	  560.05	-1803.80	  375.55
     49.1700	  602.00	  572.88	-1807.63	  375.53
     49.2700	  565.00	  591.81	-1863.56	  375.51
     49.3700	  622.00	  621.89	-1836.64	  375.49
     49.4700	  723.00	  671.96	-1785.71	  375.48
     49.5700	  740.00	  755.58	-1852.33	  375.46
     49.6700	  878.00	  890.22	-1848.97	  375.45
     49.7700	  999.00	 1091.37	-1929.12	  375.44
     49.8700	 1259.00	 1365.88	-1943.63	  375.43
     49.9700	 1670.00	 1699.80	-1866.55	  375.42
     50.0700	 2046.00	 2047.80	-1838.55	  375.41
     50.1700	 2381.00	 2328.81	-1784.56	  375.41
     50.2700	 2548.00	 2444.76	-1733.51	  375.41
     50.3700	 2457.00	 2342.67	-1722.42	  375.40
     50.4700	 2108.00	 2066.97	-1795.72	  375.40
     50.5700	 1692.00	 1719.04	-1863.79	  375.41
     50.6700	 1221.00	 1384.79	-2000.54	  375.41
     50.7700	  893.00	 1111.84	-2055.59	  375.41
     50.8700	  726.00	  915.33	-2026.08	  375.42
     50.9700	  633.00	  788.61	-1992.36	  375.43
     51.0700	  606.00	  713.92	-1944.67	  375.44
     51.1700	  625.00	  671.04	-1882.79	  375.45
     51.2700	  603.00	  643.32	-1877.07	  375.46
     51.3700	  582.00	  620.67	-1875.42	  375.48
     51.4700	  635.00	  599.83	-1801.58	  375.49
     51.5700	  542.00	  581.20	-1875.95	  375.51
     51.6700	  503.00	  565.84	-1899.59	  375.53
     51.7700	  533.00	  554.23	-1857.98	  375.55
     51.8700	  545.00	  546.08	-1837.83	  375.57
     51.9700	  562.00	  540.63	-1815.38	  375.60
     52.0700	  545.00	  537.07	-1828.82	  375.62
     52.1700	  511.00	  534.82	-1860.57	  375.65
     52.2700	  514.00	  533.54	-1856.29	  375.68
     52.3700	  538.00	  533.38	-1832.13	  375.71
     52.4700	  537.00	  534.00	-1833.75	  375.74
     52.5700	  566.00	  536.08	-1806.83	  375.77
     52.6700	  527.00	  540.74	-1850.49	  375.81
     52.7700	  549.00	  550.37	-1838.12	  375.84
     52.8700	  629.00	  569.33	-1777.08	  375.88
     52.9700	  665.00	  604.35	-1776.10	  375.92
     53.0700	  666.00	  663.56	-1834.31	  375.96
     53.1700	  828.00	  753.44	-1762.19	  376.00
     53.2700	  947.00	  873.68	-1763.43	  376.04
     53.3700	 1049.00	 1012.03	-1799.78	  376.09
     53.4700	 1103.00	 1141.55	-1875.30	  376.13
     53.5700	 1136.00	 1224.32	-1925.07	  376.18
     53.6700	 1182.00	 1227.71	-1882.46	  376.23
     53.7700	 1117.00	 1149.66	-1869.41	  376.28
     53.8700	  890.00	 1021.48	-1968.23	  376.33
     53.9700	  815.00	  882.37	-1904.12	  376.38
     54.0700	  737.00	  760.40	-1860.15	  376.44
     54.1700	  683.00	  668.72	-1822.47	  376.49
     54.2700	  639.00	  608.16	-1805.91	  376.55
     54.3700	  558.00	  572.38	-1851.13	  376.61
     54.4700	  533.00	  553.18	-1856.93	  376.67
     54.5700	  581.00	  543.57	-1799.32	  376.73
     54.6700	  528.00	  539.04	-1847.79	  376.79
     54.7700	  519.00	  537.09	-1854.84	  376.85
     54.8700	  558.00	  536.57	-1815.32	  376.92
     54.9700	  557.00	  536.99	-1816.74	  376.99
     55.0700	  545.00	  538.17	-1829.92	  377.05
     55.1700	  541.00	  540.07	-1835.82	  377.12
     55.2700	  541.00	  542.72	-1838.47	  377.19
     55.3700	  532.00	  546.20	-1850.95	  377.26
     55.4700	  532.00	  550.68	-1855.43	  377.33
     55.5700	  574.00	  556.37	-1819.12	  377.41
     55.6700	  628.00	  563.78	-1772.53	  377.48
     55.7700	  529.00	  573.93	-1881.68	  377.56
     55.8700	  582.00	  588.87	-1843.62	  377.63
     55.9700	  578.00	  612.72	-1871.47	  377.71
     56.0700	  590.00	  652.92	-1899.67	  377.79
     56.1700	  644.00	  721.51	-1914.26	  377.87
     56.2700	  758.00	  835.09	-1913.84	  377.95
     56.3700	  896.00	 1012.03	-1952.78	  378.04
     56.4700	 1225.00	 1266.04	-1877.79	  378.12
     56.5700	 1480.00	 1596.50	-1953.25	  378.20
     56.6700	 1953.00	 1978.93	-1862.68	  378.29
     56.7700	 2268.00	 2357.92	-1926.67	  378.38
     56.8700	 2593.00	 2648.57	-1892.32	  378.47
     56.9700	 2666.00	 2759.50	-1930.25	  378.56
     57.0700	 2507.00	 2647.68	-1977.43	  378.65
     57.1700	 2308.00	 2356.09	-1884.84	  378.74
     57.2700	 1930.00	 1977.78	-1884.53	  378.83
     57.3700	 1635.00	 1598.23	-1799.98	  378.92
     57.4700	 1235.00	 1272.22	-1873.97	  379.02
     57.5700	  995.00	 1023.91	-1865.66	  379.11
     57.6700	  831.00	  853.66	-1859.41	  379.21
     57.7700	  803.00	  748.11	-1781.86	  379.31
     57.8700	  691.00	  689.77	-1835.52	  379.40
     57.9700	  693.00	  663.63	-1807.38	  379.50
     58.0700	  671.00	  659.92	-1825.67	  379.60
     58.1700	  699.00	  673.89	-1811.64	  379.71
     58.2700	  720.00	  704.28	-1821.03	  379.81
     58.3700	  786.00	  751.26	-1802.01	  379.91
     58.4700	  868.00	  814.64	-1783.39	  380.01
     58.5700	  995.00	  892.17	-1733.92	  380.12
     58.6700	 1081.00	  978.09	-1733.84	  380.23
     58.7700	 1357.00	 1063.33	-1543.08	  380.33
     58.8700	 1424.00	 1138.86	-1551.61	  380.44
     58.9700	 1569.00	 1199.14	-1466.89	  380.55
     59.0700	 1663.00	 1239.98	-1413.73	  380.66
     59.1700	 1603.00	 1255.72	-1489.47	  380.77
     59.2700	 1505.00	 1244.39	-1576.14	  380.88
     59.3700	 1430.00	 1214.26	-1621.01	  380.99
     59.4700	 1331.00	 1180.02	-1685.77	  381.10
     59.5700	 1177.00	 1153.77	-1813.52	  381.22
     59.6700	 1131.00	 1142.40	-1848.15	  381.33
     59.7700	 1171.00	 1150.99	-1816.74	  381.44
     59.8700	 1166.00	 1185.43	-1856.18	  381.56
     59.9700	 1249.00	 1248.27	-1836.02	  381.68
     60.0700	 1417.00	 1332.71	-1752.46	  381.79
     60.1700	 1497.00	 1419.91	-1759.66	  381.91
     60.2700	 1640.00	 1480.42	-1677.17	  382.03
     60.3700	 1564.00	 1484.31	-1757.06	  382.15
     60.4700	 1474.00	 1419.43	-1782.18	  382.27
     60.5700	 1317.00	 1300.25	-1820.00	  382.39
     60.6700	 1139.00	 1155.25	-1853.00	  382.51
     60.7700	 1031.00	 1010.65	-1816.40	  382.63
     60.8700	  876.00	  884.09	-1844.84	  382.75
     60.9700	  772.00	  784.58	-1849.33	  382.88
     61.0700	  663.00	  714.32	-1888.07	  383.00
     61.1700	  649.00	  671.30	-1859.05	  383.12
     61.2700	  657.00	  652.34	-1832.09	  383.25
     61.3700	  604.00	  655.42	-1888.17	  383.37
     61.4700	  703.00	  680.94	-1814.69	  383.50
     61.5700	  686.00	  731.46	-1882.21	  383.63
     61.6700	  761.00	  810.10	-1885.85	  383.75
     61.7700	  822.00	  917.92	-1932.67	  383.88
     61.8700	 1011.00	 1050.94	-1876.69	  384.01
     61.9700	 1125.00	 1197.70	-1909.45	  384.14
     62.0700	 1313.00	 1337.90	-1861.65	  384.27
     62.1700	 1329.00	 1443.21	-1950.96	  384.39
     62.2700	 1448.00	 1484.60	-1873.35	  384.52
     62.3700	 1372.00	 1447.95	-1912.70	  384.66
     62.4700	 1281.00	 1344.82	-1900.57	  384.79
     62.5700	 1161.00	 1203.64	-1879.39	  384.92
     62.6700	  988.00	 1053.26	-1902.01	  385.05
     62.7700	  883.00	  914.72	-1868.47	  385.18
     62.8700	  708.00	  799.96	-1928.71	  385.31
     62.9700	  669.00	  712.99	-1880.74	  385.45
     63.0700	  594.00	  652.04	-1894.79	  385.58
     63.1700	  578.00	  612.16	-1870.91	  385.71
     63.2700	  558.00	  587.58	-1866.33	  385.85
     63.3700	  550.00	  573.24	-1859.99	  385.98
     63.4700	  569.00	  565.58	-1833.33	  386.11
     63.5700	  571.00	  562.57	-1828.32	  386.25
     63.6700	  522.00	  563.62	-1878.37	  386.38
     63.7700	  556.00	  569.34	-1850.09	  386.52
     63.8700	  569.00	  581.29	-1849.04	  386.66
     63.9700	  599.00	  601.69	-1839.44	  386.79
     64.0700	  703.00	  632.82	-1766.57	  386.93
     64.1700	  665.00	  676.19	-1847.94	  387.06
     64.2700	  809.00	  731.46	-1759.21	  387.20
     64.3700	  848.00	  795.50	-1784.25	  387.34
     64.4700	  929.00	  861.81	-1769.56	  387.47
     64.5700	  994.00	  920.41	-1763.16	  387.61
     64.6700	  991.00	  959.93	-1805.68	  387.75
     64.7700	 1044.00	  971.80	-1764.55	  387.89
     64.8700	 1018.00	  954.07	-1772.82	  388.02
     64.9700	  947.00	  913.36	-1803.11	  388.16
     65.0700	  903.00	  858.86	-1792.61	  388.30
     65.1700	  828.00	  800.76	-1809.51	  388.44
     65.2700	  804.00	  746.94	-1779.69	  388.57
     65.3700	  695.00	  701.52	-1843.27	  388.71
     65.4700	  712.00	  665.24	-1789.99	  388.85
     65.5700	  665.00	  636.74	-1808.49	  388.99
     65.6700	  665.00	  614.16	-1785.91	  389.13
     65.7700	  585.00	  596.20	-1847.95	  389.27
     65.8700	  586.00	  582.07	-1832.82	  389.40
     65.9700	  563.00	  571.30	-1845.05	  389.54
     66.0700	  561.00	  563.56	-1839.31	  389.68
     66.1700	  582.00	  558.54	-1813.29	  389.82
     66.2700	  565.00	  555.87	-1827.62	  389.96
     66.3700	  570.00	  555.21	-1821.96	  390.10
     66.4700	  560.00	  556.20	-1832.95	  390.23
     66.5700	  521.00	  558.66	-1874.42	  390.37
     66.6700	  497.00	  562.64	-1902.39	  390.51
     66.7700	  570.00	  568.62	-1835.37	  390.65
     66.8700	  600.00	  577.35	-1814.10	  390.79
     66.9700	  558.00	  590.82	-1869.57	  390.92
     67.0700	  598.00	  612.26	-1851.01	  391.06
     67.1700	  618.00	  646.75	-1865.50	  391.20
     67.2700	  665.00	  701.50	-1873.25	  391.34
     67.3700	  730.00	  785.56	-1892.31	  391.47
     67.4700	  893.00	  908.42	-1852.17	  391.61
     67.5700	 1010.00	 1077.69	-1904.44	  391.75
     67.6700	 1240.00	 1295.46	-1892.21	  391.88
     67.7700	 1551.00	 1554.80	-1840.55	  392.02
     67.8700	 1806.00	 1837.13	-1867.88	  392.15
     67.9700	 2161.00	 2110.74	-1786.49	  392.29
     68.0700	 2389.00	 2332.56	-1780.31	  392.43
     68.1700	 2611.00	 2455.74	-1681.49	  392.56
     68.2700	 2426.00	 2448.27	-1859.02	  392.70
     68.3700	 2418.00	 2312.22	-1730.97	  392.83
     68.4700	 2092.00	 2082.46	-1827.21	  392.97
     68.5700	 1805.00	 1806.13	-1837.88	  393.10
     68.6700	 1556.00	 1525.39	-1806.14	  393.23
     68.7700	 1248.00	 1270.44	-1859.19	  393.37
     68.8700	 1047.00	 1058.53	-1848.28	  393.50
     68.9700	  853.00	  895.23	-1878.98	  393.63
     69.0700	  740.00	  777.71	-1874.46	  393.77
     69.1700	  687.00	  697.95	-1847.70	  393.90
     69.2700	  636.00	  646.41	-1847.16	  394.03
     69.3700	  590.00	  614.22	-1860.97	  394.16
     69.4700	  609.00	  594.40	-1822.15	  394.29
     69.5700	  587.00	  582.06	-1831.81	  394.42
     69.6700	  624.00	  574.14	-1786.89	  394.55
     69.7700	  591.00	  568.85	-1814.60	  394.68
     69.8700	  570.00	  565.18	-1831.93	  394.81
     69.9700	  575.00	  562.65	-1824.40	  394.94
     70.0700	  578.00	  560.98	-1819.73	  395.07
     70.1700	  610.00	  560.05	-1786.80	  395.19
     70.2700	  501.00	  559.83	-1895.58	  395.32
     70.3700	  535.00	  560.31	-1862.06	  395.45
     70.4700	  563.00	  561.62	-1835.37	  395.57
     70.5700	  572.00	  563.98	-1828.73	  395.70
     70.6700	  557.00	  567.89	-1847.64	  395.82
     70.7700	  580.00	  574.23	-1830.98	  395.95
     70.8700	  588.00	  584.53	-1833.28	  396.07
     70.9700	  585.00	  601.29	-1853.04	  396.19
     71.0700	  645.00	  628.20	-1819.95	  396.31
     71.1700	  664.00	  670.24	-1842.99	  396.44
     71.2700	  798.00	  734.29	-1773.04	  396.56
     71.3700	  845.00	  824.65	-1816.40	  396.68
     71.4700	  919.00	  946.88	-1864.63	  396.80
     71.5700	 1050.00	 1102.21	-1888.96	  396.92
     71.6700	 1254.00	 1286.36	-1869.11	  397.03
     71.7700	 1436.00	 1488.06	-1888.81	  397.15
     71.8700	 1627.00	 1688.32	-1898.07	  397.27
     71.9700	 1830.00	 1861.11	-1867.86	  397.38
     72.0700	 1923.00	 1976.73	-1890.48	  397.50
     72.1700	 1986.00	 2010.40	-1861.15	  397.62
     72.2700	 1956.00	 1954.14	-1834.89	  397.73
     72.3700	 1752.00	 1821.11	-1905.86	  397.84
     72.4700	 1730.00	 1639.53	-1746.28	  397.95
     72.5700	 1575.00	 1438.17	-1699.92	  398.07
     72.6700	 1338.00	 1241.22	-1739.97	  398.18
     72.7700	 1187.00	 1065.30	-1715.05	  398.29
     72.8700	 1072.00	  919.40	-1684.15	  398.40
     72.9700	  981.00	  805.90	-1661.65	  398.51
     73.0700	  892.00	  722.35	-1667.10	  398.61
     73.1700	  790.00	  663.66	-1710.41	  398.72
     73.2700	  787.00	  623.88	-1673.63	  398.83
     73.3700	  714.00	  597.52	-1720.27	  398.93
     73.4700	  685.00	  580.18	-1731.93	  399.03
     73.5700	  610.00	  568.72	-1795.47	  399.14
     73.6700	  588.00	  561.05	-1809.80	  399.24
     73.7700	  610.00	  555.91	-1782.66	  399.34
     73.8700	  579.00	  552.57	-1810.32	  399.44
     73.9700	  584.00	  550.64	-1803.39	  399.54
     74.0700	  569.00	  549.86	-1817.61	  399.64
     74.1700	  546.00	  550.05	-1840.80	  399.74
     74.2700	  572.00	  551.02	-1815.77	  399.83
     74.3700	  570.00	  552.51	-1819.26	  399.93
     74.4700	  620.00	  554.19	-1770.94	  400.02
     74.5700	  589.00	  555.67	-1803.42	  400.12
     74.6700	  598.00	  556.52	-1795.27	  400.21
     74.7700	  608.00	  556.38	-1785.13	  400.30
     74.8700	  630.00	  555.11	-1761.86	  400.39
     74.9700	  635.00	  552.89	-1754.64	  400.48
     75.0700	  575.00	  550.10	-1811.85	  400.57
     75.1700	  598.00	  547.16	-1785.91	  400.66
     75.2700	  593.00	  544.62	-1788.37	  400.74
     75.3700	  540.00	  542.87	-1839.62	  400.83
     75.4700	  552.00	  542.37	-1827.12	  400.91
     75.5700	  543.00	  543.52	-1837.27	  401.00
     75.6700	  539.00	  546.92	-1844.67	  401.08
     75.7700	  519.00	  553.03	-1870.78	  401.16
     75.8700	  582.00	  562.23	-1816.98	  401.24
     75.9700	  583.00	  575.05	-1828.80	  401.32
     76.0700	  604.00	  591.39	-1824.14	  401.39
     76.1700	  610.00	  610.80	-1837.55	  401.47
     76.2700	  604.00	  632.23	-1864.98	  401.55
     76.3700	  703.00	  653.96	-1787.71	  401.62
     76.4700	  667.00	  673.66	-1843.41	  401.69
     76.5700	  639.00	  688.61	-1886.36	  401.76
     76.6700	  704.00	  696.21	-1828.96	  401.83
     76.7700	  694.00	  694.91	-1837.66	  401.90
     76.8700	  656.00	  684.95	-1865.70	  401.97
     76.9700	  663.00	  668.24	-1841.99	  402.04
     77.0700	  646.00	  647.47	-1838.22	  402.10
     77.1700	  584.00	  625.13	-1877.88	  402.17
     77.2700	  575.00	  603.73	-1865.48	  402.23
     77.3700	  613.00	  584.60	-1808.35	  402.29
     77.4700	  573.00	  568.58	-1832.33	  402.35
     77.5700	  536.00	  555.94	-1856.69	  402.41
     77.6700	  506.00	  546.49	-1877.24	  402.47
     77.7700	  476.00	  539.76	-1900.51	  402.52
     77.8700	  540.00	  535.16	-1831.91	  402.58
     77.9700	  493.00	  532.13	-1875.88	  402.63
     78.0700	  530.00	  530.19	-1836.94	  402.68
     78.1700	  531.00	  528.96	-1834.71	  402.74
     78.2700	  530.00	  528.18	-1834.93	  402.78
     78.3700	  511.00	  527.70	-1853.45	  402.83
     78.4700	  533.00	  527.40	-1831.15	  402.88
     78.5700	  525.00	  527.22	-1838.97	  402.93
     78.6700	  515.00	  527.15	-1848.90	  402.97
     78.7700	  509.00	  527.16	-1854.91	  403.01
     78.8700	  522.00	  527.28	-1842.03	  403.05
     78.9700	  520.00	  527.50	-1844.25	  403.09
     79.0700	  517.00	  527.85	-1847.60	  403.13
     79.1700	  507.00	  528.39	-1858.14	  403.17
     79.2700	  531.00	  529.15	-1834.90	  403.20
     79.3700	  490.00	  530.20	-1876.95	  403.24
     79.4700	  572.00	  531.43	-1796.18	  403.27
     79.5700	  541.00	  533.29	-1829.04	  403.30
     79.6700	  533.00	  535.67	-1839.42	  403.33
     79.7700	  522.00	  538.69	-1853.44	  403.36
     79.8700	  523.00	  542.47	-1856.22	  403.39
     79.9700	  506.00	  547.16	-1877.91	  403.41
     80.0700	  564.00	  552.94	-1825.69	  403.44
     80.1700	  534.00	  560.00	-1862.75	  403.46
     80.2700	  524.00	  568.60	-1881.35	  403.48
     80.3700	  525.00	  578.99	-1890.74	  403.50
     80.4700	  548.00	  591.39	-1880.14	  403.52
     80.5700	  580.00	  605.88	-1862.63	  403.53
     80.6700	  641.00	  622.32	-1818.07	  403.55
     80.7700	  579.00	  640.22	-1897.97	  403.56
     80.8700	  646.00	  658.73	-1849.48	  403.57
     80.9700	  640.00	  676.66	-1873.41	  403.58
     81.0700	  662.00	  692.67	-1867.42	  403.59
     81.1700	  696.00	  705.51	-1846.26	  403.60
     81.2700	  745.00	  714.24	-1805.99	  403.60
     81.3700	  714.00	  718.29	-1841.04	  403.61
     81.4700	  749.00	  717.48	-1805.23	  403.61
     81.5700	  768.00	  712.04	-1780.79	  403.61
     81.6700	  737.00	  702.58	-1802.33	  403.61
     81.7700	  739.00	  689.88	-1787.63	  403.61
     81.8700	  700.00	  674.76	-1811.51	  403.60
     81.9700	  684.00	  658.08	-1810.83	  403.60
     82.0700	  736.00	  640.74	-1741.49	  403.59
     82.1700	  657.00	  623.75	-1803.50	  403.58
     82.2700	  677.00	  607.81	-1767.56	  403.57
     82.3700	  640.00	  593.42	-1790.17	  403.56
     82.4700	  639.00	  580.84	-1778.59	  403.54
     82.5700	  598.00	  570.17	-1808.92	  403.53
     82.6700	  583.00	  561.42	-1815.17	  403.51
     82.7700	  577.00	  554.60	-1814.35	  403.49
     82.8700	  577.00	  549.57	-1809.32	  403.47
     82.9700	  554.00	  546.25	-1829.00	  403.45
     83.0700	  538.00	  544.51	-1843.26	  403.42
     83.1700	  575.00	  544.27	-1806.02	  403.40
     83.2700	  541.00	  545.40	-1841.15	  403.37
     83.3700	  522.00	  547.80	-1862.55	  403.34
     83.4700	  560.00	  551.28	-1828.03	  403.31
     83.5700	  555.00	  555.61	-1837.36	  403.28
     83.6700	  533.00	  560.47	-1864.22	  403.24
     83.7700	  558.00	  565.44	-1844.19	  403.21
     83.8700	  510.00	  570.04	-1896.79	  403.17
     83.9700	  594.00	  573.70	-1816.45	  403.13
     84.0700	  517.00	  575.89	-1895.64	  403.09
     84.1700	  509.00	  576.22	-1903.97	  403.05
     84.2700	  541.00	  574.58	-1870.33	  403.00
     84.3700	  575.00	  571.20	-1832.95	  402.95
     84.4700	  550.00	  566.51	-1853.26	  402.91
     84.5700	  538.00	  561.06	-1859.81	  402.86
     84.6700	  533.00	  555.33	-1859.08	  402.81
     84.7700	  552.00	  549.73	-1834.48	  402.75
     84.8700	  543.00	  544.58	-1838.33	  402.70
     84.9700	  545.00	  540.06	-1831.81	  402.64
     85.0700	  560.00	  536.29	-1813.04	  402.58
     85.1700	  493.00	  533.27	-1877.02	  402.52
     85.2700	  505.00	  530.97	-1862.72	  402.46
     85.3700	  503.00	  529.31	-1863.06	  402.40
     85.4700	  530.00	  528.18	-1834.93	  402.33
     85.5700	  495.00	  527.51	-1869.26	  402.26
     85.6700	  518.00	  527.20	-1845.95	  402.19
     85.7700	  509.00	  527.20	-1854.95	  402.12
     85.8700	  521.00	  527.49	-1843.24	  402.05
     85.9700	  489.00	  528.06	-1875.81	  401.98
     86.0700	  536.00	  528.95	-1829.70	  401.90
     86.1700	  498.00	  530.22	-1868.97	  401.82
     86.2700	  508.00	  531.96	-1860.71	  401.74
     86.3700	  500.00	  534.29	-1871.04	  401.66
     86.4700	  525.00	  537.35	-1849.10	  401.58
     86.5700	  529.00	  541.28	-1849.03	  401.49
     86.6700	  540.00	  546.21	-1842.96	  401.41
     86.7700	  588.00	  552.21	-1800.96	  401.32
     86.8700	  587.00	  558.96	-1808.71	  401.23
     86.9700	  637.00	  566.96	-1766.71	  401.13
     87.0700	  613.00	  575.61	-1799.36	  401.04
     87.1700	  628.00	  584.45	-1793.20	  400.94
     87.2700	  646.00	  592.89	-1783.64	  400.85
     87.3700	  623.00	  600.23	-1813.98	  400.75
     87.4700	  606.00	  605.71	-1836.46	  400.65
     87.5700	  652.00	  608.67	-1793.42	  400.54
     87.6700	  632.00	  608.74	-1813.49	  400.44
     87.7700	  563.00	  605.94	-1879.69	  400.33
     87.8700	  554.00	  600.73	-1883.48	  400.22
     87.9700	  570.00	  593.85	-1860.60	  400.11
     88.0700	  623.00	  586.18	-1799.93	  400.00
     88.1700	  622.00	  578.54	-1793.29	  399.89
     88.2700	  585.00	  571.69	-1823.44	  399.77
     88.3700	  591.00	  566.22	-1811.97	  399.65
     88.4700	  566.00	  562.59	-1833.34	  399.53
     88.5700	  544.00	  561.05	-1853.80	  399.41
     88.6700	  571.00	  561.68	-1827.43	  399.29
     88.7700	  567.00	  564.38	-1834.13	  399.16
     88.8700	  561.00	  568.89	-1844.64	  399.04
     88.9700	  591.00	  574.79	-1820.54	  398.91
     89.0700	  557.00	  581.55	-1861.30	  398.78
     89.1700	  637.00	  588.53	-1788.28	  398.65
     89.2700	  588.00	  595.01	-1843.76	  398.51
     89.3700	  605.00	  600.24	-1831.99	  398.38
     89.4700	  635.00	  603.54	-1805.29	  398.24
     89.5700	  567.00	  604.41	-1874.16	  398.10
     89.6700	  591.00	  602.67	-1848.42	  397.96
     89.7700	  610.00	  598.51	-1825.26	  397.82
     89.8700	  565.00	  592.40	-1864.15	  397.67
     89.9700	  544.00	  584.99	-1877.74	  397.53
     90.0700	  572.00	  576.89	-1841.64	  397.38
     90.1700	  535.00	  568.67	-1870.42	  397.23
     90.2700	  541.00	  560.80	-1856.55	  397.08
     90.3700	  543.00	  553.62	-1847.37	  396.93
     90.4700	  543.00	  547.33	-1841.08	  396.77
     90.5700	  546.00	  542.06	-1832.81	  396.61
     90.6700	  512.00	  537.81	-1862.56	  396.46
     90.7700	  483.00	  534.52	-1888.27	  396.30
     90.8700	  510.00	  532.09	-1858.84	  396.13
     90.9700	  495.00	  530.39	-1872.14	  395.97
     91.0700	  494.00	  529.31	-1872.06	  395.80
     91.1700	  477.00	  528.74	-1888.49	  395.64
     91.2700	  514.00	  528.62	-1851.37	  395.47
     91.3700	  510.00	  528.90	-1855.65	  395.30
     91.4700	  523.00	  529.60	-1843.35	  395.12
     91.5700	  499.00	  530.76	-1868.51	  394.95
     91.6700	  544.00	  532.47	-1825.22	  394.77
     91.7700	  525.00	  534.86	-1846.61	  394.60
     91.8700	  488.00	  538.08	-1886.83	  394.42
     91.9700	  516.00	  542.08	-1862.83	  394.24
     92.0700	  543.00	  547.51	-1841.26	  394.05
     92.1700	  532.00	  554.31	-1859.06	  393.87
     92.2700	  482.00	  562.60	-1917.35	  393.68
     92.3700	  562.00	  572.47	-1847.22	  393.50
     92.4700	  598.00	  583.89	-1822.64	  393.31
     92.5700	  597.00	  596.78	-1836.53	  393.11
     92.6700	  625.00	  610.89	-1822.64	  392.92
     92.7700	  647.00	  625.89	-1815.64	  392.73
     92.8700	  631.00	  641.33	-1847.08	  392.53
     92.9700	  704.00	  656.68	-1789.43	  392.33
     93.0700	  777.00	  671.34	-1731.09	  392.13
     93.1700	  743.00	  684.80	-1778.55	  391.93
     93.2700	  751.00	  696.74	-1782.49	  391.73
     93.3700	  780.00	  707.16	-1763.91	  391.53
     93.4700	  780.00	  716.39	-1773.14	  391.32
     93.5700	  784.00	  724.99	-1777.74	  391.11
     93.6700	  780.00	  733.60	-1790.35	  390.90
     93.7700	  817.00	  742.81	-1762.56	  390.69
     93.8700	  809.00	  753.07	-1780.82	  390.48
     93.9700	  808.00	  764.74	-1793.49	  390.27
     94.0700	  855.00	  778.10	-1759.85	  390.05
     94.1700	  837.00	  793.34	-1793.09	  389.83
     94.2700	  881.00	  810.49	-1766.24	  389.62
     94.3700	  818.00	  829.33	-1848.08	  389.40
     94.4700	  879.00	  849.25	-1807.00	  389.17
     94.5700	  860.00	  869.22	-1845.97	  388.95
     94.6700	  888.00	  887.79	-1836.54	  388.73
     94.7700	  919.00	  903.21	-1820.96	  388.50
     94.8700	  895.00	  913.60	-1855.35	  388.27
     94.9700	  937.00	  917.26	-1817.01	  388.04
     95.0700	  883.00	  913.13	-1866.88	  387.81
     95.1700	  837.00	  901.06	-1900.81	  387.58
     95.2700	  880.00	  881.90	-1838.65	  387.35
     95.3700	  793.00	  857.23	-1900.98	  387.11
     95.4700	  779.00	  829.04	-1886.79	  386.87
     95.5700	  764.00	  799.40	-1872.15	  386.64
     95.6700	  759.00	  770.32	-1848.07	  386.40
     95.7700	  693.00	  743.61	-1887.36	  386.16
     95.8700	  694.00	  720.94	-1863.69	  385.91
     95.9700	  661.00	  703.77	-1879.52	  385.67
     96.0700	  666.00	  693.44	-1864.19	  385.43
     96.1700	  642.00	  691.09	-1885.84	  385.18
     96.2700	  704.00	  697.72	-1830.47	  384.93
     96.3700	  697.00	  714.16	-1853.91	  384.68
     96.4700	  678.00	  741.01	-1899.76	  384.43
     96.5700	  770.00	  778.59	-1845.34	  384.18
     96.6700	  824.00	  826.85	-1839.60	  383.93
     96.7700	  859.00	  885.21	-1862.96	  383.67
     96.8700	  982.00	  952.53	-1807.28	  383.42
     96.9700	 1041.00	 1026.93	-1822.68	  383.16
     97.0700	 1114.00	 1105.86	-1828.61	  382.90
     97.1700	 1200.00	 1186.01	-1822.76	  382.64
     97.2700	 1242.00	 1263.42	-1858.17	  382.38
     97.3700	 1302.00	 1333.59	-1868.34	  382.12
     97.4700	 1453.00	 1391.81	-1775.56	  381.85
     97.5700	 1355.00	 1433.66	-1915.41	  381.59
     97.6700	 1468.00	 1455.67	-1824.42	  381.32
     97.7700	 1479.00	 1456.10	-1813.85	  381.06
     97.8700	 1460.00	 1435.32	-1812.07	  380.79
     97.9700	 1366.00	 1395.69	-1866.44	  380.52
     98.0700	 1317.00	 1340.92	-1860.67	  380.25
     98.1700	 1249.00	 1275.47	-1863.22	  379.98
     98.2700	 1182.00	 1203.91	-1858.66	  379.71
     98.3700	 1062.00	 1130.56	-1905.31	  379.43
     98.4700	 1075.00	 1059.32	-1821.07	  379.16
     98.5700	  983.00	  993.48	-1847.23	  378.88
     98.6700	  894.00	  935.70	-1878.45	  378.60
     98.7700	  835.00	  888.10	-1889.85	  378.33
     98.8700	  836.00	  852.22	-1852.97	  378.05
     98.9700	  735.00	  829.20	-1930.95	  377.77
     99.0700	  757.00	  819.78	-1899.53	  377.49
     99.1700	  797.00	  824.44	-1864.19	  377.20
     99.2700	  847.00	  843.42	-1833.17	  376.92
     99.3700	  842.00	  876.77	-1871.52	  376.64
     99.4700	  897.00	  924.33	-1864.08	  376.35
     99.5700	  924.00	  985.67	-1898.42	  376.07
     99.6700	 1073.00	 1060.07	-1823.82	  375.78
     99.7700	 1071.00	 1146.43	-1912.18	  375.49
     99.8700	 1184.00	 1243.11	-1895.86	  375.20
     99.9700	 1351.00	 1347.91	-1833.66	  374.92
    100.0700	 1456.00	 1457.96	-1838.71	  374.63
    100.1700	 1559.00	 1569.73	-1847.48	  374.33
    100.2700	 1664.00	 1679.13	-1851.88	  374.04
    100.3700	 1793.00	 1781.81	-1825.56	  373.75
    100.4700	 1890.00	 1873.60	-1820.35	  373.46
    100.5700	 2017.00	 1951.00	-1770.75	  373.16
    100.6700	 2055.00	 2011.38	-1793.13	  372.87
    100.7700	 2145.00	 2053.03	-1744.78	  372.57
    100.8700	 2085.00	 2074.78	-1826.53	  372.28
    100.9700	 2170.00	 2075.85	-1742.60	  371.98
    101.0700	 2138.00	 2055.91	-1754.66	  371.68
    101.1700	 2088.00	 2015.41	-1764.16	  371.38
    101.2700	 1991.00	 1956.00	-1801.75	  371.09
    101.3700	 1874.00	 1880.78	-1843.53	  370.79
    101.4700	 1890.00	 1794.05	-1740.80	  370.49
    101.5700	 1724.00	 1700.79	-1813.54	  370.19
    101.6700	 1562.00	 1606.02	-1880.77	  369.89
    101.7700	 1543.00	 1514.23	-1807.98	  369.58
    101.8700	 1447.00	 1429.11	-1818.86	  369.28
    101.9700	 1340.00	 1353.34	-1850.09	  368.98
    102.0700	 1278.00	 1288.49	-1847.24	  368.68
    102.1700	 1295.00	 1235.07	-1776.82	  368.37
    102.2700	 1228.00	 1192.52	-1801.27	  368.07
    102.3700	 1183.00	 1159.44	-1813.19	  367.77
    102.4700	 1138.00	 1133.68	-1832.43	  367.46
    102.5700	 1078.00	 1112.62	-1871.37	  367.16
    102.6700	 1124.00	 1093.45	-1806.20	  366.85
    102.7700	 1073.00	 1073.54	-1837.29	  366.55
    102.8700	 1021.00	 1050.82	-1866.57	  366.24
    102.9700	 1001.00	 1024.02	-1859.77	  365.93
    103.0700	  986.00	  992.72	-1843.47	  365.63
    103.1700	  925.00	  957.30	-1869.05	  365.32
    103.2700	  867.00	  918.63	-1888.38	  365.01
    103.3700	  853.00	  877.90	-1861.65	  364.71
    103.4700	  851.00	  836.38	-1822.13	  364.40
    103.5700	  820.00	  795.32	-1812.07	  364.09
    103.6700	  780.00	  755.83	-1812.58	  363.79
    103.7700	  732.00	  718.84	-1823.59	  363.48
    103.8700	  701.00	  685.05	-1820.80	  363.17
    103.9700	  641.00	  654.94	-1850.69	  362.86
    104.0700	  668.00	  628.76	-1797.51	  362.56
    104.1700	  644.00	  606.53	-1799.28	  362.25
    104.2700	  593.00	  588.13	-1831.88	  361.94
    104.3700	  559.00	  573.29	-1851.04	  361.63
    104.4700	  533.00	  561.66	-1865.41	  361.33
    104.5700	  524.00	  552.86	-1865.61	  361.02
    104.6700	  513.00	  546.48	-1870.23	  360.71
    104.7700	  526.00	  542.13	-1852.88	  360.41
    104.8700	  527.00	  539.46	-1849.21	  360.10
    104.9700	  557.00	  538.16	-1817.91	  359.79
    105.0700	  569.00	  537.95	-1805.70	  359.49
    105.1700	  468.00	  538.60	-1907.35	  359.18
    105.2700	  533.00	  539.93	-1843.68	  358.88
    105.3700	  593.00	  541.82	-1785.57	  358.57
    105.4700	  508.00	  544.16	-1872.91	  358.27
    105.5700	  550.00	  546.88	-1833.63	  357.96
    105.6700	  516.00	  549.95	-1870.70	  357.66
    105.7700	  508.00	  553.39	-1882.14	  357.35
    105.8700	  501.00	  557.26	-1893.01	  357.05
    105.9700	  549.00	  561.64	-1849.39	  356.75
    106.0700	  536.00	  566.62	-1867.37	  356.45
    106.1700	  519.00	  572.31	-1890.06	  356.15
    106.2700	  534.00	  578.80	-1881.55	  355.84
    106.3700	  579.00	  586.12	-1843.87	  355.54
    106.4700	  565.00	  594.26	-1866.01	  355.24
    106.5700	  604.00	  603.12	-1835.87	  354.95
    106.6700	  601.00	  612.55	-1848.30	  354.65
    106.7700	  588.00	  622.32	-1871.07	  354.35
    106.8700	  589.00	  632.12	-1879.87	  354.05
    106.9700	  636.00	  641.61	-1842.36	  353.76
    107.0700	  654.00	  650.40	-1833.15	  353.46
    107.1700	  653.00	  658.08	-1841.83	  353.17
    107.2700	  658.00	  664.31	-1843.06	  352.87
    107.3700	  663.00	  668.80	-1842.55	  352.58
    107.4700	  658.00	  671.43	-1850.18	  352.29
    107.5700	  655.00	  672.24	-1853.99	  352.00
    107.6700	  639.00	  671.48	-1869.23	  351.71
    107.7700	  683.00	  669.51	-1823.26	  351.42
    107.8700	  669.00	  666.78	-1834.53	  351.13
    107.9700	  671.00	  663.77	-1829.52	  350.85
    108.0700	  610.00	  660.92	-1887.67	  350.56
    108.1700	  643.00	  658.60	-1852.35	  350.28
    108.2700	  687.00	  657.07	-1806.82	  349.99
    108.3700	  646.00	  656.47	-1847.22	  349.71
    108.4700	  648.00	  656.83	-1845.58	  349.43
    108.5700	  665.00	  658.04	-1829.79	  349.15
    108.6700	  650.00	  659.89	-1846.64	  348.88
    108.7700	  671.00	  662.05	-1827.80	  348.60
    108.8700	  687.00	  664.12	-1813.87	  348.32
    108.9700	  653.00	  665.67	-1849.42	  348.05
    109.0700	  706.00	  666.24	-1796.99	  347.78
    109.1700	  706.00	  665.45	-1796.20	  347.51
    109.2700	  657.00	  663.02	-1842.77	  347.24
    109.3700	  648.00	  658.82	-1847.57	  346.97
    109.4700	  654.00	  652.85	-1835.60	  346.71
    109.5700	  617.00	  645.28	-1865.03	  346.44
    109.6700	  637.00	  636.39	-1836.14	  346.18
    109.7700	  679.00	  626.51	-1784.26	  345.92
    109.8700	  618.00	  616.00	-1834.75	  345.66
    109.9700	  606.00	  605.22	-1835.97	  345.40
    110.0700	  604.00	  594.52	-1827.27	  345.15
    110.1700	  616.00	  584.19	-1804.94	  344.89
    110.2700	  588.00	  574.49	-1823.24	  344.64
    110.3700	  563.00	  565.61	-1839.36	  344.39
    110.4700	  567.00	  557.70	-1827.45	  344.14
    110.5700	  553.00	  550.84	-1834.59	  343.90
    110.6700	  494.00	  545.06	-1887.81	  343.65
    110.7700	  586.00	  540.36	-1791.11	  343.41
    110.8700	  500.00	  536.69	-1873.44	  343.17
    110.9700	  555.00	  533.97	-1815.72	  342.93
    111.0700	  551.00	  532.13	-1817.88	  342.70
    111.1700	  554.00	  531.06	-1813.81	  342.47
    111.2700	  489.00	  530.66	-1878.41	  342.24
    111.3700	  549.00	  530.85	-1818.60	  342.01
    111.4700	  527.00	  531.53	-1841.28	  341.78
    111.5700	  509.00	  532.63	-1860.38	  341.56
    111.6700	  534.00	  534.09	-1836.84	  341.34
    111.7700	  527.00	  535.86	-1845.61	  341.12
    111.8700	  509.00	  537.90	-1865.65	  340.90
    111.9700	  512.00	  540.18	-1864.93	  340.69
    112.0700	  501.00	  542.69	-1878.44	  340.48
    112.1700	  556.00	  545.42	-1826.17	  340.27
    112.2700	  523.00	  548.37	-1862.12	  340.06
    112.3700	  557.00	  551.56	-1831.31	  339.86
    112.4700	  604.00	  555.02	-1787.77	  339.66
    112.5700	  558.00	  558.77	-1837.52	  339.46
    112.6700	  578.00	  562.88	-1821.63	  339.27
    112.7700	  593.00	  567.39	-1811.14	  339.08
    112.8700	  628.00	  572.40	-1781.15	  338.89
    112.9700	  604.00	  577.99	-1810.74	  338.70
    113.0700	  666.00	  584.31	-1755.06	  338.52
    113.1700	  654.00	  591.52	-1774.27	  338.34
    113.2700	  707.00	  599.85	-1729.60	  338.17
    113.3700	  712.00	  609.58	-1734.33	  337.99
    113.4700	  738.00	  621.07	-1719.82	  337.82
    113.5700	  834.00	  634.79	-1637.54	  337.66
    113.6700	  797.00	  651.30	-1691.05	  337.49
    113.7700	  905.00	  671.33	-1603.08	  337.33
    113.8700	  868.00	  695.76	-1664.51	  337.18
    113.9700	  887.00	  725.63	-1675.38	  337.02
    114.0700	  977.00	  762.21	-1621.96	  336.87
    114.1700	 1025.00	  806.97	-1618.72	  336.73
    114.2700	 1016.00	  861.61	-1682.36	  336.58
    114.3700	 1100.00	  928.01	-1664.76	  336.45
    114.4700	 1232.00	 1008.27	-1613.02	  336.31
    114.5700	 1256.00	 1104.63	-1685.38	  336.18
    114.6700	 1396.00	 1219.45	-1660.20	  336.05
    114.7700	 1631.00	 1355.07	-1560.82	  335.93
    114.8700	 1709.00	 1513.78	-1641.53	  335.81
    114.9700	 1845.00	 1697.61	-1689.36	  335.69
    115.0700	 2051.00	 1908.31	-1694.06	  335.58
    115.1700	 2214.00	 2147.16	-1769.91	  335.47
    115.2700	 2562.00	 2414.70	-1689.45	  335.37
    115.3700	 2641.00	 2710.73	-1906.48	  335.26
    115.4700	 2978.00	 3034.03	-1892.78	  335.17
    115.5700	 3344.00	 3382.43	-1875.18	  335.08
    115.6700	 3600.00	 3752.60	-1989.35	  334.99
    115.7700	 3861.00	 4139.91	-2115.66	  334.91
    115.8700	 4230.00	 4538.53	-2145.28	  334.83
    115.9700	 4620.00	 4941.34	-2158.09	  334.75
    116.0700	 5101.00	 5340.17	-2075.92	  334.68
    116.1700	 5550.00	 5725.78	-2012.53	  334.62
    116.2700	 5761.00	 6087.89	-2163.64	  334.56
    116.3700	 6108.00	 6415.65	-2144.40	  334.50
    116.4700	 6593.00	 6698.02	-1941.77	  334.45
    116.5700	 6800.00	 6924.48	-1961.23	  334.40
    116.6700	 7107.00	 7085.77	-1815.52	  334.36
    116.7700	 7107.00	 7174.82	-1904.57	  334.32
    116.8700	 7347.00	 7187.63	-1677.38	  334.29
    116.9700	 7339.00	 7123.80	-1621.55	  334.26
    117.0700	 7039.00	 6986.58	-1784.33	  334.24
    117.1700	 6935.00	 6782.38	-1684.13	  334.22
    117.2700	 6678.00	 6520.06	-1678.81	  334.21
    117.3700	 6282.00	 6209.96	-1764.71	  334.20
    117.4700	 5712.00	 5863.08	-1987.83	  334.20
    117.5700	 5595.00	 5490.22	-1731.97	  334.20
    117.6700	 5059.00	 5101.62	-1879.37	  334.21
    117.7700	 4776.00	 4706.75	-1767.50	  334.22
    117.8700	 4519.00	 4313.99	-1631.74	  334.24
    117.9700	 4130.00	 3930.56	-1637.31	  334.27
    118.0700	 3774.00	 3562.33	-1625.08	  334.30
    118.1700	 3364.00	 3213.93	-1686.68	  334.33
    118.2700	 2987.00	 2888.91	-1738.66	  334.38
    118.3700	 2623.00	 2589.60	-1803.35	  334.42
    118.4700	 2353.00	 2317.32	-1801.07	  334.48
    118.5700	 2007.00	 2072.40	-1902.15	  334.53
    118.6700	 1740.00	 1854.40	-1951.15	  334.60
    118.7700	 1566.00	 1662.35	-1933.10	  334.67
    118.8700	 1399.00	 1494.72	-1932.47	  334.75
    118.9700	 1174.00	 1349.70	-2012.45	  334.83
    119.0700	 1123.00	 1225.20	-1938.95	  334.92
    119.1700	 1035.00	 1119.06	-1920.81	  335.01
    119.2700	 1006.00	 1029.12	-1859.87	  335.11
    119.3700	  860.00	  953.30	-1930.05	  335.22
    119.4700	  778.00	  889.65	-1948.40	  335.33
    119.5700	  824.00	  836.37	-1849.12	  335.45
    119.6700	  734.00	  791.85	-1894.60	  335.58
    119.7700	  706.00	  754.70	-1885.45	  335.71
    119.8700	  658.00	  723.69	-1902.44	  335.85
    119.9700	  666.00	  697.81	-1868.56	  336.00
    120.0700	  593.00	  676.18	-1919.93	  336.15
    120.1700	  599.00	  658.08	-1895.83	  336.31
    120.2700	  573.00	  642.92	-1906.67	  336.48
    120.3700	  608.00	  630.22	-1858.97	  336.65
    120.4700	  542.00	  619.59	-1914.34	  336.83
    120.5700	  531.00	  610.72	-1916.47	  337.02
    120.6700	  571.00	  603.35	-1869.10	  337.21
    120.7700	  562.00	  597.29	-1872.04	  337.41
    120.8700	  536.00	  592.38	-1893.13	  337.62
    120.9700	  586.00	  588.49	-1839.24	  337.84
    121.0700	  549.00	  585.53	-1873.28	  338.06
    121.1700	  547.00	  583.41	-1873.16	  338.29
    121.2700	  543.00	  582.08	-1875.83	  338.53
    121.3700	  599.00	  581.48	-1819.23	  338.78
    121.4700	  539.00	  581.55	-1879.30	  339.03
    121.5700	  543.00	  582.26	-1876.01	  339.29
    121.6700	  578.00	  583.55	-1842.30	  339.56
    121.7700	  522.00	  585.38	-1900.13	  339.84
    121.8700	  545.00	  587.68	-1879.43	  340.12
    121.9700	  570.00	  590.38	-1857.13	  340.41
    122.0700	  577.00	  593.40	-1853.15	  340.71
    122.1700	  611.00	  596.69	-1822.44	  341.02
    122.2700	  578.00	  600.13	-1858.88	  341.34
    122.3700	  603.00	  603.62	-1837.37	  341.66
    122.4700	  559.00	  607.06	-1884.81	  341.99
    122.5700	  658.00	  610.33	-1789.08	  342.34
    122.6700	  627.00	  613.33	-1823.08	  342.69
    122.7700	  639.00	  615.94	-1813.69	  343.04
    122.8700	  615.00	  618.07	-1839.82	  343.41
    122.9700	  657.00	  619.62	-1799.37	  343.79
    123.0700	  649.00	  620.53	-1808.28	  344.17
    123.1700	  622.00	  620.78	-1835.53	  344.56
    123.2700	  634.00	  620.35	-1823.10	  344.96
    123.3700	  676.00	  619.26	-1780.01	  345.37
    123.4700	  668.00	  617.57	-1786.32	  345.79
    123.5700	  646.00	  615.32	-1806.07	  346.22
    123.6700	  611.00	  612.60	-1838.35	  346.66
    123.7700	  631.00	  609.48	-1815.23	  347.11
    123.8700	  646.00	  606.04	-1796.79	  347.56
    123.9700	  579.00	  602.37	-1860.12	  348.03
    124.0700	  593.00	  598.54	-1842.29	  348.50
    124.1700	  612.00	  594.63	-1819.38	  348.98
    124.2700	  651.00	  590.71	-1776.46	  349.48
    124.3700	  580.00	  586.82	-1843.57	  349.98
    124.4700	  652.00	  583.03	-1767.78	  350.49
    124.5700	  573.00	  579.38	-1843.13	  351.02
    124.6700	  625.00	  575.90	-1787.65	  351.55
    124.7700	  585.00	  572.61	-1824.36	  352.09
    124.8700	  587.00	  569.54	-1819.29	  352.64
    124.9700	  608.00	  464.61	-1693.36	  353.21
    125.0700	  583.00	  465.18	-1836.75	  353.78
    125.1700	  598.00	  465.76	-1836.75	  354.36
    125.2700	  533.00	  466.35	-1836.75	  354.95
    125.3700	  540.00	  466.96	-1836.75	  355.56
    125.4700	  556.00	  467.57	-1836.75	  356.17
    125.5700	  554.00	  468.19	-1836.75	  356.79
    125.6700	  561.00	  468.83	-1836.75	  357.43
    125.7700	  552.00	  469.48	-1836.75	  358.08
    125.8700	  563.00	  470.13	-1836.75	  358.73
    125.9700	  562.00	  470.80	-1836.75	  359.40
    126.0700	  594.00	  471.48	-1836.75	  360.08
    126.1700	  581.00	  472.17	-1836.75	  360.77
    126.2700	  580.00	  472.87	-1836.75	  361.47
    126.3700	  537.00	  473.58	-1836.75	  362.18
    126.4700	  566.00	  474.30	-1836.75	  362.90
    126.5700	  560.00	  475.03	-1836.75	  363.63
    126.6700	  547.00	  475.78	-1836.75	  364.38
    126.7700	  533.00	  476.53	-1836.75	  365.13
    126.8700	  597.00	  477.30	-1836.75	  365.90
    126.9700	  590.00	  478.08	-1836.75	  366.68
    127.0700	  571.00	  478.87	-1836.75	  367.47
    127.1700	  597.00	  479.68	-1836.75	  368.28
    127.2700	  601.00	  480.49	-1836.75	  369.09
    127.3700	  625.00	  481.32	-1836.75	  369.92
    127.4700	  628.00	  482.16	-1836.75	  370.76
    127.5700	  611.00	  483.01	-1836.75	  371.61
    127.6700	  608.00	  483.87	-1836.75	  372.47
    127.7700	  609.00	  484.75	-1836.75	  373.35
    127.8700	  669.00	  485.63	-1836.75	  374.23
    127.9700	  679.00	  486.54	-1836.75	  375.14
    128.0700	  664.00	  487.45	-1836.75	  376.05
    128.1700	  649.00	  488.37	-1836.75	  376.97
    128.2700	  693.00	  489.31	-1836.75	  377.91
    128.3700	  785.00	  490.26	-1836.75	  378.86
    128.4700	  761.00	  491.23	-1836.75	  379.83
    128.5700	    0.00	  492.20	-1836.75	  380.80
    128.6700	    0.00	  493.19	-1836.75	  381.79
     12.3261	        	        	        	        	       0	(  0  0  2)	  0  1
     24.9298	        	        	        	        	       0	(  0  0  4)	  0  1
     28.3593	        	        	        	        	       0	(  1  0  0)	  0  1
     29.0581	        	        	        	        	       0	(  1  0  1)	  0  1
     31.0687	        	        	        	        	       0	(  1  0  2)	  0  1
     34.1838	        	        	        	        	       0	(  1  0  3)	  0  1
     37.8510	        	        	        	        	       0	(  0  0  6)	  0  1
     38.1692	        	        	        	        	       0	(  1  0  4)	  0  1
     42.8289	        	        	        	        	       0	(  1  0  5)	  0  1
     48.0236	        	        	        	        	       0	(  1  0  6)	  0  1
     50.3202	        	        	        	        	       0	(  1  1  0)	  0  1
     51.2974	        	        	        	        	       0	(  0  0  8)	  0  1
     52.0474	        	        	        	        	       0	(  1  1  2)	  0  1
     53.6658	        	        	        	        	       0	(  1  0  7)	  0  1
     57.0071	        	        	        	        	       0	(  1  1  4)	  0  1
     58.8276	        	        	        	        	       0	(  2  0  0)	  0  1
     59.2202	        	        	        	        	       0	(  2  0  1)	  0  1
     59.7091	        	        	        	        	       0	(  1  0  8)	  0  1
     60.3885	        	        	        	        	       0	(  2  0  2)	  0  1
     62.3065	        	        	        	        	       0	(  2  0  3)	  0  1
     64.7203	        	        	        	        	       0	(  1  1  6)	  0  1
     64.9372	        	        	        	        	       0	(  2  0  4)	  0  1
     65.5556	        	        	        	        	       0	(  0  0 10)	  0  1
     66.1397	        	        	        	        	       0	(  1  0  9)	  0  1
     68.2398	        	        	        	        	       0	(  2  0  5)	  0  1
     72.1774	        	        	        	        	       0	(  2  0  6)	  0  1
     72.9720	        	        	        	        	       0	(  1  0 10)	  0  1
     74.7833	        	        	        	        	       0	(  1  1  8)	  0  1
     76.7236	        	        	        	        	       0	(  2  0  7)	  0  1
     80.2483	        	        	        	        	       0	(  1  0 11)	  0  1
     81.0736	        	        	        	        	       0	(  0  0 12)	  0  1
     81.1011	        	        	        	        	       0	(  2  1  0)	  0  1
     81.4420	        	        	        	        	       0	(  2  1  1)	  0  1
     81.8680	        	        	        	        	       0	(  2  0  8)	  0  1
     82.4628	        	        	        	        	       0	(  2  1  2)	  0  1
     84.1591	        	        	        	        	       0	(  2  1  3)	  0  1
     86.5258	        	        	        	        	       0	(  2  1  4)	  0  1
     87.0888	        	        	        	        	       0	(  1  1 10)	  0  1
     87.6228	        	        	        	        	       0	(  2  0  9)	  0  1
     88.0447	        	        	        	        	       0	(  1  0 12)	  0  1
     89.5609	        	        	        	        	       0	(  2  1  5)	  0  1
     93.2702	        	        	        	        	       0	(  2  1  6)	  0  1
     94.0305	        	        	        	        	       0	(  2  0 10)	  0  1
     95.0161	        	        	        	        	       0	(  3  0  0)	  0  1
     95.3546	        	        	        	        	       0	(  3  0  1)	  0  1
     96.3712	        	        	        	        	       0	(  3  0  2)	  0  1
     96.4853	        	        	        	        	       0	(  1  0 13)	  0  1
     97.6736	        	        	        	        	       0	(  2  1  7)	  0  1
     98.0704	        	        	        	        	       0	(  3  0  3)	  0  1
     98.6678	        	        	        	        	       0	(  0  0 14)	  0  1
    100.4618	        	        	        	        	       0	(  3  0  4)	  0  1
    101.1775	        	        	        	        	       0	(  2  0 11)	  0  1
    102.0095	        	        	        	        	       0	(  1  1 12)	  0  1
    102.8146	        	        	        	        	       0	(  2  1  8)	  0  1
    103.5647	        	        	        	        	       0	(  3  0  5)	  0  1
    105.7736	        	        	        	        	       0	(  1  0 14)	  0  1
    107.4148	        	        	        	        	       0	(  3  0  6)	  0  1
    108.7752	        	        	        	        	       0	(  2  1  9)	  0  1
    109.2215	        	        	        	        	       0	(  2  0 12)	  0  1
    112.0748	        	        	        	        	       0	(  3  0  7)	  0  1
    115.7039	        	        	        	        	       0	(  2  1 10)	  0  1
    116.2677	        	        	        	        	       0	(  1  0 15)	  0  1
    116.8004	        	        	        	        	       0	(  2  2  0)	  0  1
    117.6546	        	        	        	        	       0	(  3  0  8)	  0  1
    118.3229	        	        	        	        	       0	(  2  2  2)	  0  1
    118.4519	        	        	        	        	       0	(  2  0 13)	  0  1
    120.2592	        	        	        	        	       0	(  0  0 16)	  0  1
    120.9450	        	        	        	        	       0	(  1  1 14)	  0  1
    123.0328	        	        	        	        	       0	(  2  2  4)	  0  1
    123.8764	        	        	        	        	       0	(  2  1 11)	  0  1
    124.3517	        	        	        	        	       0	(  3  0  9)	  0  1
    124.8981	        	        	        	        	       0	(  3  1  0)	  0  1
    125.3107	        	        	        	        	       0	(  3  1  1)	  0  1
    126.5615	        	        	        	        	       0	(  3  1  2)	  0  1
    128.6947	        	        	        	        	       0	(  1  0 16)	  0  1
    128.6929	        	        	        	        	       0	(  3  1  3)	  0  1
    129.4554	        	        	        	        	       0	(  2  0 14)	  0  1
    131.5262	        	        	        	        	       0	(  2  2  6)	  0  1
    131.7897	        	        	        	        	       0	(  3  1  4)	  0  1
    132.5498	        	        	        	        	       0	(  3  0 10)	  0  1
    133.8629	        	        	        	        	       0	(  2  1 12)	  0  1
    136.0092	        	        	        	        	       0	(  3  1  5)	  0  1
    141.6579	        	        	        	        	       0	(  3  1  6)	  0  1
    143.1358	        	        	        	        	       0	(  3  0 11)	  0  1
    143.7517	        	        	        	        	       0	(  2  0 15)	  0  1
    145.0592	        	        	        	        	       0	(  1  0 17)	  0  1
    145.9022	        	        	        	        	       0	(  2  2  8)	  0  1
    147.1811	        	        	        	        	       0	(  2  1 13)	  0  1
    149.4333	        	        	        	        	       0	(  3  1  7)	  0  1
    150.2210	        	        	        	        	       0	(  1  1 16)	  0  1
    154.8065	        	        	        	        	       0	(  0  0 18)	  0  1
    159.3742	        	        	        	        	       0	(  3  0 12)	  0  1
    159.4521	        	        	        	        	       0	(  4  0  0)	  0  1
    160.4411	        	        	        	        	       0	(  4  0  1)	  0  1
    161.7510	        	        	        	        	       0	(  3  1  8)	  0  1
    163.7534	        	        	        	        	       0	(  4  0  2)	  0  1
    171.8127	        	        	        	        	       0	(  2  0 16)	  0  1
    171.8025	        	        	        	        	       0	(  4  0  3)	  0  1
