MSG Master    CELL:    5.91940   5.91940  23.27202   90.0000   90.0000  120.0000   SPGR: P 63/m m c             TEMP:   1074.85
  1   1280     2.52000     0.00000    -0.12579     0.00000     0.00000    0
    99     0     2
       0.00000      10.00000
     125.00000     130.00000
 2Theta	Yobs	Ycal	Yobs-Ycal	Backg	Posr	(hkl)	K
      0.7700	    0.00	  528.43	-1775.50	  410.87
      0.8700	    0.00	  529.40	-1775.50	  411.85
      0.9700	   44.00	  530.36	-1775.50	  412.81
      1.0700	   52.00	  531.31	-1775.50	  413.76
      1.1700	   43.00	  532.24	-1775.50	  414.69
      1.2700	   40.00	  533.16	-1775.50	  415.61
      1.3700	   31.00	  534.07	-1775.50	  416.52
      1.4700	   97.00	  534.97	-1775.50	  417.42
      1.5700	  318.00	  535.85	-1775.50	  418.30
      1.6700	  484.00	  536.72	-1775.50	  419.17
      1.7700	  539.00	  537.58	-1775.50	  420.03
      1.8700	  664.00	  538.42	-1775.50	  420.87
      1.9700	  713.00	  539.26	-1775.50	  421.70
      2.0700	  773.00	  540.08	-1775.50	  422.53
      2.1700	  785.00	  540.88	-1775.50	  423.33
      2.2700	  790.00	  541.68	-1775.50	  424.13
      2.3700	  779.00	  542.47	-1775.50	  424.91
      2.4700	  700.00	  543.24	-1775.50	  425.69
      2.5700	  657.00	  544.00	-1775.50	  426.45
      2.6700	  657.00	  544.75	-1775.50	  427.20
      2.7700	  672.00	  545.48	-1775.50	  427.93
      2.8700	  640.00	  546.21	-1775.50	  428.66
      2.9700	  616.00	  546.92	-1775.50	  429.37
      3.0700	  587.00	  547.62	-1775.50	  430.07
      3.1700	  620.00	  548.32	-1775.50	  430.76
      3.2700	  664.00	  548.99	-1775.50	  431.44
      3.3700	  641.00	  549.66	-1775.50	  432.11
      3.4700	  740.00	  550.32	-1775.50	  432.77
      3.5700	  823.00	  550.97	-1775.50	  433.41
      3.6700	  863.00	  551.60	-1775.50	  434.05
      3.7700	  915.00	  552.23	-1775.50	  434.67
      3.8700	 1001.00	  552.84	-1775.50	  435.29
      3.9700	  979.00	  553.44	-1775.50	  435.89
      4.0700	 1084.00	  554.03	-1775.50	  436.48
      4.1700	 1091.00	  554.61	-1775.50	  437.06
      4.2700	 1113.00	  555.19	-1775.50	  437.63
      4.3700	 1084.00	  555.75	-1775.50	  438.19
      4.4700	 1086.00	  556.30	-1775.50	  438.74
      4.5700	 1015.00	  556.84	-1775.50	  439.28
      4.6700	  998.00	  557.37	-1775.50	  439.81
      4.7700	  980.00	  557.88	-1775.50	  440.33
      4.8700	  986.00	  558.39	-1775.50	  440.84
      4.9700	  978.00	  558.89	-1775.50	  441.34
      5.0700	  931.00	  559.38	-1775.50	  441.83
      5.1700	  897.00	  559.86	-1775.50	  442.31
      5.2700	  880.00	  560.33	-1775.50	  442.78
      5.3700	  887.00	  560.79	-1775.50	  443.24
      5.4700	  948.00	  561.24	-1775.50	  443.69
      5.5700	  841.00	  561.68	-1775.50	  444.13
      5.6700	  841.00	  562.12	-1775.50	  444.56
      5.7700	  823.00	  562.54	-1775.50	  444.99
      5.8700	  830.00	  562.95	-1775.50	  445.40
      5.9700	  793.00	  563.35	-1775.50	  445.80
      6.0700	  781.00	  563.75	-1775.50	  446.20
      6.1700	  779.00	  564.13	-1775.50	  446.58
      6.2700	  807.00	  564.51	-1775.50	  446.96
      6.3700	  755.00	  564.88	-1775.50	  447.33
      6.4700	  772.00	  565.24	-1775.50	  447.69
      6.5700	  740.00	  565.59	-1775.50	  448.04
      6.6700	  745.00	  565.93	-1775.50	  448.38
      6.7700	  708.00	  566.26	-1775.50	  448.71
      6.8700	  716.00	  566.58	-1775.50	  449.03
      6.9700	  744.00	  566.90	-1775.50	  449.35
      7.0700	  684.00	  567.21	-1775.50	  449.65
      7.1700	  747.00	  567.50	-1775.50	  449.95
      7.2700	  675.00	  567.79	-1775.50	  450.24
      7.3700	  742.00	  568.08	-1775.50	  450.52
      7.4700	  685.00	  568.35	-1775.50	  450.80
      7.5700	  662.00	  568.62	-1775.50	  451.06
      7.6700	  673.00	  568.87	-1775.50	  451.32
      7.7700	  659.00	  569.12	-1775.50	  451.57
      7.8700	  610.00	  569.36	-1775.50	  451.81
      7.9700	  634.00	  569.60	-1775.50	  452.05
      8.0700	  646.00	  569.82	-1775.50	  452.27
      8.1700	  644.00	  570.04	-1775.50	  452.49
      8.2700	  640.00	  570.25	-1775.50	  452.70
      8.3700	  683.00	  570.46	-1775.50	  452.90
      8.4700	  619.00	  570.65	-1775.50	  453.10
      8.5700	  612.00	  570.84	-1775.50	  453.29
      8.6700	  631.00	  571.02	-1775.50	  453.47
      8.7700	  612.00	  571.19	-1775.50	  453.64
      8.8700	  642.00	  571.36	-1775.50	  453.81
      8.9700	  652.00	  571.52	-1775.50	  453.97
      9.0700	  596.00	  571.67	-1775.50	  454.12
      9.1700	  670.00	  571.82	-1775.50	  454.26
      9.2700	  640.00	  571.95	-1775.50	  454.40
      9.3700	  624.00	  572.08	-1775.50	  454.53
      9.4700	  583.00	  572.21	-1775.50	  454.66
      9.5700	  605.00	  572.32	-1775.50	  454.77
      9.6700	  630.00	  572.44	-1775.50	  454.88
      9.7700	  594.00	  572.54	-1775.50	  454.99
      9.8700	  630.00	  572.64	-1775.50	  455.08
      9.9700	  617.00	  572.73	-1775.50	  455.18
     10.0700	  606.00	  573.63	-1743.13	  455.26
     10.1700	  592.00	  573.80	-1757.30	  455.34
     10.2700	  574.00	  573.98	-1775.48	  455.41
     10.3700	  602.00	  574.19	-1747.69	  455.47
     10.4700	  567.00	  574.45	-1782.95	  455.53
     10.5700	  618.00	  574.82	-1732.32	  455.58
     10.6700	  615.00	  575.39	-1735.89	  455.63
     10.7700	  593.00	  576.27	-1758.77	  455.67
     10.8700	  579.00	  577.53	-1774.03	  455.71
     10.9700	  593.00	  579.16	-1761.66	  455.73
     11.0700	  540.00	  581.14	-1816.64	  455.76
     11.1700	  586.00	  583.45	-1772.95	  455.77
     11.2700	  606.00	  586.14	-1755.64	  455.78
     11.3700	  609.00	  589.27	-1755.77	  455.79
     11.4700	  581.00	  592.98	-1787.48	  455.79
     11.5700	  608.00	  597.47	-1764.97	  455.78
     11.6700	  614.00	  603.08	-1764.58	  455.77
     11.7700	  617.00	  610.41	-1768.91	  455.75
     11.8700	  653.00	  620.33	-1742.83	  455.73
     11.9700	  654.00	  633.41	-1754.91	  455.70
     12.0700	  634.00	  648.07	-1789.57	  455.67
     12.1700	  696.00	  658.38	-1737.88	  455.63
     12.2700	  655.00	  655.11	-1775.61	  455.59
     12.3700	  671.00	  635.44	-1739.94	  455.54
     12.4700	  627.00	  611.29	-1759.79	  455.48
     12.5700	  578.00	  593.47	-1790.97	  455.42
     12.6700	  583.00	  583.66	-1776.16	  455.36
     12.7700	  542.00	  579.15	-1812.65	  455.29
     12.8700	  588.00	  577.10	-1764.60	  455.21
     12.9700	  532.00	  576.00	-1819.50	  455.14
     13.0700	  626.00	  575.27	-1724.77	  455.05
     13.1700	  574.00	  574.72	-1776.22	  454.96
     13.2700	  564.00	  574.28	-1785.78	  454.87
     13.3700	  577.00	  573.92	-1772.42	  454.77
     13.4700	  583.00	  573.61	-1766.11	  454.67
     13.5700	  616.00	  573.34	-1732.84	  454.56
     13.6700	  585.00	  573.09	-1763.59	  454.45
     13.7700	  574.00	  572.87	-1774.37	  454.34
     13.8700	  523.00	  572.66	-1825.16	  454.22
     13.9700	  614.00	  572.46	-1733.96	  454.09
     14.0700	  540.00	  572.26	-1807.76	  453.96
     14.1700	  566.00	  572.07	-1781.57	  453.83
     14.2700	  562.00	  571.89	-1785.39	  453.69
     14.3700	  574.00	  571.70	-1773.20	  453.55
     14.4700	  536.00	  571.52	-1811.02	  453.41
     14.5700	  554.00	  571.34	-1792.84	  453.26
     14.6700	  533.00	  571.16	-1813.66	  453.10
     14.7700	  549.00	  570.97	-1797.47	  452.95
     14.8700	  568.00	  570.79	-1778.29	  452.79
     14.9700	  573.00	  570.60	-1773.10	  452.62
     15.0700	  501.00	  570.42	-1844.92	  452.45
     15.1700	  594.00	  570.23	-1751.73	  452.28
     15.2700	  586.00	  570.04	-1759.54	  452.10
     15.3700	  583.00	  569.84	-1762.34	  451.92
     15.4700	  539.00	  569.65	-1806.15	  451.74
     15.5700	  579.00	  569.45	-1765.95	  451.55
     15.6700	  557.00	  569.25	-1787.75	  451.36
     15.7700	  577.00	  569.05	-1767.55	  451.17
     15.8700	  554.00	  568.84	-1790.34	  450.97
     15.9700	  536.00	  568.63	-1808.13	  450.77
     16.0700	  547.00	  568.45	-1796.95	  450.57
     16.1700	  575.00	  568.23	-1768.73	  450.36
     16.2700	  550.00	  568.02	-1793.52	  450.15
     16.3700	  539.00	  567.80	-1804.30	  449.94
     16.4700	  538.00	  567.58	-1805.08	  449.72
     16.5700	  525.00	  567.35	-1817.85	  449.50
     16.6700	  555.00	  567.13	-1787.63	  449.28
     16.7700	  564.00	  566.90	-1778.40	  449.05
     16.8700	  559.00	  566.66	-1783.16	  448.82
     16.9700	  550.00	  566.43	-1791.93	  448.59
     17.0700	  553.00	  566.19	-1788.69	  448.36
     17.1700	  532.00	  565.95	-1809.45	  448.12
     17.2700	  561.00	  565.71	-1780.21	  447.88
     17.3700	  570.00	  565.47	-1770.97	  447.64
     17.4700	  564.00	  565.22	-1776.72	  447.39
     17.5700	  552.00	  564.97	-1788.47	  447.15
     17.6700	  568.00	  564.72	-1772.22	  446.89
     17.7700	  543.00	  564.46	-1796.96	  446.64
     17.8700	  534.00	  564.21	-1805.71	  446.39
     17.9700	  528.00	  564.05	-1811.55	  446.13
     18.0700	  553.00	  563.79	-1786.29	  445.87
     18.1700	  531.00	  563.53	-1808.03	  445.60
     18.2700	  561.00	  563.27	-1777.77	  445.34
     18.3700	  559.00	  563.00	-1779.50	  445.07
     18.4700	  534.00	  562.73	-1804.23	  444.80
     18.5700	  547.00	  562.46	-1790.96	  444.53
     18.6700	  544.00	  562.19	-1793.69	  444.25
     18.7700	  552.00	  561.92	-1785.42	  443.98
     18.8700	  557.00	  561.73	-1780.23	  443.70
     18.9700	  571.00	  561.45	-1765.95	  443.42
     19.0700	  591.00	  561.17	-1745.67	  443.14
     19.1700	  563.00	  560.89	-1773.39	  442.85
     19.2700	  556.00	  560.61	-1780.11	  442.56
     19.3700	  510.00	  560.33	-1825.83	  442.28
     19.4700	  521.00	  560.05	-1814.55	  441.99
     19.5700	  532.00	  559.76	-1803.26	  441.69
     19.6700	  556.00	  559.47	-1778.97	  441.40
     19.7700	  569.00	  559.19	-1765.69	  441.10
     19.8700	  547.00	  558.90	-1787.40	  440.81
     19.9700	  575.00	  558.61	-1759.11	  440.51
     20.0700	  533.00	  558.31	-1800.81	  440.21
     20.1700	  544.00	  558.02	-1789.52	  439.90
     20.2700	  564.00	  557.73	-1769.23	  439.60
     20.3700	  538.00	  557.43	-1794.93	  439.29
     20.4700	  544.00	  557.14	-1788.64	  438.99
     20.5700	  610.00	  556.84	-1722.34	  438.68
     20.6700	  591.00	  556.54	-1741.04	  438.37
     20.7700	  575.00	  556.24	-1756.74	  438.06
     20.8700	  591.00	  555.95	-1740.45	  437.74
     20.9700	  555.00	  555.65	-1776.15	  437.43
     21.0700	  570.00	  555.35	-1760.85	  437.11
     21.1700	  524.00	  555.05	-1806.55	  436.80
     21.2700	  562.00	  554.75	-1768.25	  436.48
     21.3700	  580.00	  554.46	-1749.96	  436.16
     21.4700	  538.00	  554.16	-1791.66	  435.84
     21.5700	  572.00	  553.86	-1757.36	  435.52
     21.6700	  558.00	  553.56	-1771.06	  435.19
     21.7700	  551.00	  553.26	-1777.76	  434.87
     21.8700	  582.00	  552.97	-1746.47	  434.54
     21.9700	  565.00	  552.67	-1763.17	  434.22
     22.0700	  561.00	  552.38	-1766.88	  433.89
     22.1700	  561.00	  552.09	-1766.59	  433.56
     22.2700	  533.00	  551.80	-1794.30	  433.24
     22.3700	  554.00	  551.52	-1773.02	  432.91
     22.4700	  596.00	  551.23	-1730.73	  432.58
     22.5700	  586.00	  550.96	-1740.46	  432.24
     22.6700	  581.00	  550.68	-1745.18	  431.91
     22.7700	  581.00	  550.42	-1744.92	  431.58
     22.8700	  550.00	  550.16	-1775.66	  431.25
     22.9700	  542.00	  549.91	-1783.41	  430.91
     23.0700	  505.00	  549.67	-1820.17	  430.58
     23.1700	  550.00	  549.45	-1774.95	  430.24
     23.2700	  524.00	  549.25	-1800.75	  429.91
     23.3700	  533.00	  549.07	-1791.57	  429.57
     23.4700	  554.00	  548.92	-1770.42	  429.23
     23.5700	  515.00	  548.82	-1809.32	  428.89
     23.6700	  537.00	  548.92	-1787.42	  428.56
     23.7700	  521.00	  549.00	-1803.50	  428.22
     23.8700	  555.00	  549.27	-1769.77	  427.88
     23.9700	  593.00	  549.96	-1732.46	  427.54
     24.0700	  551.00	  551.44	-1775.94	  427.20
     24.1700	  525.00	  554.33	-1804.83	  426.86
     24.2700	  576.00	  559.38	-1758.88	  426.52
     24.3700	  590.00	  567.47	-1752.97	  426.18
     24.4700	  585.00	  579.49	-1769.99	  425.84
     24.5700	  623.00	  595.60	-1748.10	  425.50
     24.6700	  642.00	  613.24	-1746.74	  425.15
     24.7700	  618.00	  625.42	-1782.92	  424.81
     24.8700	  696.00	  622.78	-1702.28	  424.47
     24.9700	  583.00	  604.02	-1796.52	  424.13
     25.0700	  656.00	  581.05	-1700.55	  423.79
     25.1700	  575.00	  563.64	-1764.14	  423.44
     25.2700	  586.00	  553.62	-1743.12	  423.10
     25.3700	  553.00	  548.79	-1771.29	  422.76
     25.4700	  566.00	  546.54	-1756.04	  422.42
     25.5700	  544.00	  545.34	-1776.84	  422.08
     25.6700	  529.00	  544.55	-1791.05	  421.73
     25.7700	  578.00	  543.98	-1741.48	  421.39
     25.8700	  534.00	  543.54	-1785.04	  421.05
     25.9700	  567.00	  543.20	-1751.70	  420.71
     26.0700	  522.00	  542.95	-1796.45	  420.37
     26.1700	  541.00	  542.77	-1777.27	  420.03
     26.2700	  561.00	  542.67	-1757.17	  419.68
     26.3700	  562.00	  542.65	-1756.15	  419.34
     26.4700	  555.00	  542.71	-1763.21	  419.00
     26.5700	  553.00	  542.87	-1765.37	  418.66
     26.6700	  611.00	  543.15	-1707.65	  418.32
     26.7700	  560.00	  543.56	-1759.06	  417.98
     26.8700	  508.00	  544.14	-1811.64	  417.64
     26.9700	  494.00	  544.96	-1826.46	  417.30
     27.0700	  566.00	  546.07	-1755.57	  416.96
     27.1700	  515.00	  547.63	-1808.13	  416.63
     27.2700	  564.00	  549.89	-1761.39	  416.29
     27.3700	  591.00	  553.35	-1737.85	  415.95
     27.4700	  575.00	  559.00	-1759.50	  415.61
     27.5700	  502.00	  568.60	-1842.10	  415.28
     27.6700	  656.00	  584.90	-1704.40	  414.94
     27.7700	  564.00	  611.44	-1822.94	  414.61
     27.8700	  624.00	  651.22	-1802.72	  414.27
     27.9700	  690.00	  704.24	-1789.74	  413.94
     28.0700	  750.00	  764.33	-1789.83	  413.60
     28.1700	  875.00	  816.41	-1716.91	  413.27
     28.2700	  983.00	  838.02	-1630.52	  412.94
     28.3700	  919.00	  816.25	-1672.75	  412.60
     28.4700	  752.00	  772.58	-1796.08	  412.27
     28.5700	  689.00	  741.78	-1828.28	  411.94
     28.6700	  674.00	  739.59	-1841.09	  411.61
     28.7700	  719.00	  761.33	-1817.83	  411.28
     28.8700	  793.00	  787.63	-1770.13	  410.96
     28.9700	  785.00	  791.39	-1781.89	  410.63
     29.0700	  783.00	  755.57	-1748.07	  410.30
     29.1700	  721.00	  695.17	-1749.67	  409.98
     29.2700	  632.00	  637.58	-1781.08	  409.65
     29.3700	  656.00	  595.86	-1715.36	  409.33
     29.4700	  593.00	  570.47	-1752.97	  409.00
     29.5700	  582.00	  556.60	-1750.10	  408.68
     29.6700	  627.00	  549.21	-1697.71	  408.36
     29.7700	  566.00	  544.98	-1754.48	  408.04
     29.8700	  572.00	  542.31	-1745.81	  407.72
     29.9700	  569.00	  540.58	-1747.08	  407.40
     30.0700	  575.00	  539.63	-1740.13	  407.08
     30.1700	  593.00	  539.59	-1722.09	  406.77
     30.2700	  601.00	  540.92	-1715.42	  406.45
     30.3700	  516.00	  544.55	-1804.05	  406.14
     30.4700	  590.00	  551.87	-1737.37	  405.82
     30.5700	  582.00	  564.32	-1757.82	  405.51
     30.6700	  543.00	  582.24	-1814.74	  405.20
     30.7700	  599.00	  603.37	-1779.87	  404.89
     30.8700	  635.00	  621.68	-1762.18	  404.58
     30.9700	  637.00	  628.07	-1766.57	  404.27
     31.0700	  596.00	  616.26	-1795.76	  403.96
     31.1700	  591.00	  592.42	-1776.92	  403.66
     31.2700	  574.00	  568.44	-1769.94	  403.35
     31.3700	  564.00	  550.63	-1762.13	  403.05
     31.4700	  521.00	  539.69	-1794.19	  402.75
     31.5700	  564.00	  533.76	-1745.26	  402.44
     31.6700	  574.00	  530.67	-1732.17	  402.14
     31.7700	  553.00	  528.95	-1751.45	  401.85
     31.8700	  559.00	  527.86	-1744.36	  401.55
     31.9700	  543.00	  527.10	-1759.60	  401.25
     32.0700	  559.00	  526.57	-1743.07	  400.96
     32.1700	  563.00	  526.21	-1738.71	  400.66
     32.2700	  582.00	  526.01	-1719.51	  400.37
     32.3700	  550.00	  525.95	-1751.45	  400.08
     32.4700	  532.00	  526.06	-1769.56	  399.79
     32.5700	  504.00	  526.34	-1797.84	  399.50
     32.6700	  579.00	  526.82	-1723.32	  399.21
     32.7700	  538.00	  527.55	-1765.05	  398.93
     32.8700	  510.00	  528.61	-1794.11	  398.64
     32.9700	  546.00	  530.13	-1759.63	  398.36
     33.0700	  501.00	  532.31	-1806.81	  398.08
     33.1700	  579.00	  535.67	-1732.17	  397.80
     33.2700	  560.00	  541.28	-1756.78	  397.52
     33.3700	  556.00	  551.53	-1771.03	  397.24
     33.4700	  564.00	  570.89	-1782.39	  396.97
     33.5700	  586.00	  606.41	-1795.91	  396.69
     33.6700	  656.00	  666.05	-1785.55	  396.42
     33.7700	  721.00	  753.18	-1807.68	  396.15
     33.8700	  829.00	  858.22	-1804.72	  395.88
     33.9700	 1044.00	  953.20	-1684.70	  395.61
     34.0700	 1093.00	  995.28	-1677.78	  395.34
     34.1700	 1022.00	  952.81	-1706.31	  395.08
     34.2700	  937.00	  847.54	-1686.04	  394.82
     34.3700	  768.00	  733.65	-1741.15	  394.55
     34.4700	  633.00	  644.85	-1787.35	  394.29
     34.5700	  588.00	  588.41	-1775.91	  394.03
     34.6700	  579.00	  557.46	-1753.96	  393.78
     34.7700	  551.00	  541.72	-1766.22	  393.52
     34.8700	  520.00	  533.46	-1788.96	  393.27
     34.9700	  525.00	  528.53	-1779.03	  393.01
     35.0700	  501.00	  525.13	-1799.63	  392.76
     35.1700	  519.00	  522.59	-1779.09	  392.51
     35.2700	  521.00	  520.57	-1775.07	  392.26
     35.3700	  514.00	  518.92	-1780.42	  392.02
     35.4700	  542.00	  517.55	-1751.05	  391.77
     35.5700	  522.00	  516.40	-1769.90	  391.53
     35.6700	  511.00	  515.40	-1779.91	  391.29
     35.7700	  528.00	  514.54	-1762.04	  391.05
     35.8700	  522.00	  513.78	-1767.28	  390.81
     35.9700	  533.00	  513.57	-1756.07	  390.58
     36.0700	  536.00	  512.97	-1752.47	  390.34
     36.1700	  528.00	  512.43	-1759.93	  390.11
     36.2700	  474.00	  511.94	-1813.44	  389.88
     36.3700	  502.00	  511.49	-1784.99	  389.65
     36.4700	  502.00	  511.09	-1784.59	  389.42
     36.5700	  534.00	  510.72	-1752.22	  389.19
     36.6700	  492.00	  510.39	-1793.89	  388.97
     36.7700	  505.00	  510.11	-1780.61	  388.75
     36.8700	  515.00	  509.90	-1770.40	  388.53
     36.9700	  536.00	  509.80	-1749.30	  388.31
     37.0700	  477.00	  509.94	-1808.44	  388.09
     37.1700	  501.00	  510.51	-1785.01	  387.88
     37.2700	  503.00	  511.85	-1784.35	  387.66
     37.3700	  528.00	  514.25	-1761.75	  387.45
     37.4700	  510.00	  517.71	-1783.21	  387.24
     37.5700	  498.00	  521.62	-1799.12	  387.03
     37.6700	  513.00	  524.69	-1787.19	  386.83
     37.7700	  509.00	  525.44	-1791.94	  386.62
     37.8700	  479.00	  523.52	-1820.02	  386.42
     37.9700	  508.00	  520.14	-1787.64	  386.22
     38.0700	  526.00	  516.54	-1766.04	  386.02
     38.1700	  536.00	  513.22	-1752.72	  385.82
     38.2700	  488.00	  510.47	-1797.97	  385.63
     38.3700	  492.00	  508.43	-1791.93	  385.43
     38.4700	  514.00	  507.02	-1768.52	  385.24
     38.5700	  514.00	  506.09	-1767.59	  385.05
     38.6700	  512.00	  505.38	-1768.88	  384.86
     38.7700	  512.00	  504.96	-1768.46	  384.68
     38.8700	  505.00	  504.64	-1775.14	  384.49
     38.9700	  501.00	  504.37	-1778.87	  384.31
     39.0700	  461.00	  504.13	-1818.63	  384.13
     39.1700	  513.00	  503.83	-1766.33	  383.95
     39.2700	  517.00	  503.63	-1762.13	  383.77
     39.3700	  481.00	  503.44	-1797.94	  383.60
     39.4700	  493.00	  503.39	-1785.89	  383.43
     39.5700	  519.00	  503.22	-1759.72	  383.25
     39.6700	  522.00	  503.07	-1756.57	  383.08
     39.7700	  464.00	  502.92	-1814.42	  382.92
     39.8700	  531.00	  502.78	-1747.28	  382.75
     39.9700	  476.00	  502.65	-1802.15	  382.59
     40.0700	  538.00	  502.53	-1740.03	  382.43
     40.1700	  539.00	  502.42	-1738.92	  382.27
     40.2700	  514.00	  502.32	-1763.82	  382.11
     40.3700	  504.00	  502.24	-1773.74	  381.95
     40.4700	  477.00	  502.16	-1800.66	  381.80
     40.5700	  443.00	  502.10	-1834.60	  381.65
     40.6700	  483.00	  502.06	-1794.56	  381.49
     40.7700	  524.00	  502.03	-1753.53	  381.35
     40.8700	  516.00	  502.03	-1761.53	  381.20
     40.9700	  499.00	  502.05	-1778.55	  381.05
     41.0700	  470.00	  502.10	-1807.60	  380.91
     41.1700	  511.00	  502.19	-1766.69	  380.77
     41.2700	  502.00	  502.30	-1775.80	  380.63
     41.3700	  511.00	  502.50	-1767.00	  380.50
     41.4700	  483.00	  503.22	-1795.72	  380.36
     41.5700	  535.00	  503.61	-1744.11	  380.23
     41.6700	  477.00	  504.17	-1802.67	  380.10
     41.7700	  535.00	  505.02	-1745.52	  379.97
     41.8700	  524.00	  506.45	-1757.95	  379.84
     41.9700	  486.00	  509.09	-1798.59	  379.71
     42.0700	  478.00	  514.16	-1811.66	  379.59
     42.1700	  536.00	  523.59	-1763.09	  379.47
     42.2700	  513.00	  539.63	-1802.13	  379.35
     42.3700	  513.00	  563.39	-1825.89	  379.23
     42.4700	  602.00	  593.18	-1766.68	  379.11
     42.5700	  609.00	  622.60	-1789.10	  379.00
     42.6700	  549.00	  641.24	-1867.74	  378.89
     42.7700	  579.00	  639.26	-1835.76	  378.78
     42.8700	  538.00	  617.12	-1854.62	  378.67
     42.9700	  535.00	  585.83	-1826.33	  378.56
     43.0700	  541.00	  556.29	-1790.79	  378.46
     43.1700	  563.00	  533.97	-1746.47	  378.36
     43.2700	  474.00	  519.65	-1821.15	  378.26
     43.3700	  491.00	  511.56	-1796.06	  378.16
     43.4700	  484.00	  507.33	-1798.83	  378.06
     43.5700	  511.00	  505.12	-1769.62	  377.96
     43.6700	  506.00	  504.05	-1773.55	  377.87
     43.7700	  530.00	  503.24	-1748.74	  377.78
     43.8700	  509.00	  502.65	-1769.15	  377.69
     43.9700	  532.00	  502.25	-1745.75	  377.60
     44.0700	  511.00	  501.91	-1766.41	  377.52
     44.1700	  558.00	  501.65	-1719.15	  377.44
     44.2700	  448.00	  501.44	-1828.94	  377.35
     44.3700	  484.00	  501.29	-1792.79	  377.27
     44.4700	  515.00	  501.17	-1761.67	  377.20
     44.5700	  530.00	  501.10	-1746.60	  377.12
     44.6700	  483.00	  500.92	-1793.42	  377.05
     44.7700	  510.00	  500.90	-1766.40	  376.97
     44.8700	  507.00	  500.91	-1769.41	  376.90
     44.9700	  486.00	  500.94	-1790.44	  376.83
     45.0700	  519.00	  500.99	-1757.49	  376.77
     45.1700	  467.00	  501.25	-1809.75	  376.70
     45.2700	  486.00	  501.35	-1790.85	  376.64
     45.3700	  525.00	  501.47	-1751.97	  376.58
     45.4700	  516.00	  501.61	-1761.11	  376.52
     45.5700	  526.00	  501.78	-1751.28	  376.46
     45.6700	  481.00	  501.97	-1796.47	  376.41
     45.7700	  518.00	  502.19	-1759.69	  376.35
     45.8700	  469.00	  502.44	-1808.94	  376.30
     45.9700	  511.00	  502.72	-1767.22	  376.25
     46.0700	  476.00	  503.04	-1802.54	  376.20
     46.1700	  521.00	  503.39	-1757.89	  376.16
     46.2700	  490.00	  503.79	-1789.29	  376.11
     46.3700	  499.00	  504.25	-1780.75	  376.07
     46.4700	  527.00	  504.76	-1753.26	  376.03
     46.5700	  511.00	  505.35	-1769.85	  375.99
     46.6700	  518.00	  506.03	-1763.53	  375.95
     46.7700	  471.00	  506.83	-1811.33	  375.92
     46.8700	  513.00	  507.82	-1770.32	  375.89
     46.9700	  531.00	  509.11	-1753.61	  375.85
     47.0700	  532.00	  511.02	-1754.52	  375.82
     47.1700	  491.00	  514.13	-1798.63	  375.80
     47.2700	  524.00	  519.26	-1770.76	  375.77
     47.3700	  524.00	  527.72	-1779.22	  375.74
     47.4700	  510.00	  540.63	-1806.13	  375.72
     47.5700	  589.00	  558.16	-1744.66	  375.70
     47.6700	  590.00	  578.59	-1764.09	  375.68
     47.7700	  585.00	  597.65	-1788.15	  375.66
     47.8700	  569.00	  609.26	-1815.76	  375.65
     47.9700	  576.00	  608.54	-1808.04	  375.63
     48.0700	  608.00	  596.52	-1764.02	  375.62
     48.1700	  575.00	  579.27	-1779.77	  375.61
     48.2700	  544.00	  562.81	-1794.31	  375.60
     48.3700	  532.00	  550.53	-1794.03	  375.60
     48.4700	  506.00	  543.43	-1812.93	  375.59
     48.5700	  481.00	  540.94	-1835.44	  375.59
     48.6700	  557.00	  541.91	-1760.41	  375.58
     48.7700	  516.00	  545.38	-1804.88	  375.58
     48.8700	  535.00	  550.83	-1791.33	  375.59
     48.9700	  543.00	  558.30	-1790.80	  375.59
     49.0700	  534.00	  568.46	-1809.96	  375.59
     49.1700	  564.00	  583.00	-1794.50	  375.60
     49.2700	  628.00	  605.41	-1752.91	  375.61
     49.3700	  632.00	  642.34	-1785.84	  375.62
     49.4700	  698.00	  705.17	-1782.67	  375.63
     49.5700	  752.00	  808.91	-1832.41	  375.64
     49.6700	  895.00	  971.50	-1852.00	  375.66
     49.7700	 1140.00	 1205.68	-1841.18	  375.67
     49.8700	 1409.00	 1509.11	-1875.61	  375.69
     49.9700	 1864.00	 1852.78	-1764.28	  375.71
     50.0700	 2174.00	 2172.52	-1774.02	  375.73
     50.1700	 2499.00	 2373.85	-1650.35	  375.75
     50.2700	 2355.00	 2373.78	-1794.28	  375.78
     50.3700	 2195.00	 2170.28	-1750.78	  375.80
     50.4700	 1851.00	 1848.06	-1772.56	  375.83
     50.5700	 1399.00	 1505.70	-1882.20	  375.86
     50.6700	 1081.00	 1207.93	-1902.43	  375.89
     50.7700	  773.00	  982.82	-1985.32	  375.92
     50.8700	  729.00	  831.51	-1878.01	  375.96
     50.9700	  685.00	  739.35	-1829.85	  375.99
     51.0700	  604.00	  686.07	-1857.57	  376.03
     51.1700	  627.00	  653.28	-1801.78	  376.07
     51.2700	  561.00	  628.83	-1843.33	  376.11
     51.3700	  631.00	  607.70	-1752.20	  376.15
     51.4700	  582.00	  589.22	-1782.72	  376.19
     51.5700	  578.00	  573.97	-1771.47	  376.24
     51.6700	  568.00	  562.29	-1769.79	  376.28
     51.7700	  550.00	  553.97	-1779.47	  376.33
     51.8700	  584.00	  548.35	-1739.85	  376.38
     51.9700	  508.00	  544.73	-1812.23	  376.43
     52.0700	  562.00	  542.50	-1756.00	  376.48
     52.1700	  572.00	  541.56	-1745.06	  376.53
     52.2700	  542.00	  541.33	-1774.83	  376.59
     52.3700	  564.00	  542.16	-1753.66	  376.64
     52.4700	  591.00	  544.46	-1728.96	  376.70
     52.5700	  620.00	  549.30	-1704.80	  376.76
     52.6700	  551.00	  558.87	-1783.37	  376.82
     52.7700	  608.00	  577.14	-1744.64	  376.88
     52.8700	  631.00	  610.19	-1754.69	  376.94
     52.9700	  701.00	  665.42	-1739.92	  377.01
     53.0700	  775.00	  748.96	-1749.46	  377.07
     53.1700	  891.00	  861.36	-1745.86	  377.14
     53.2700	 1051.00	  992.87	-1717.37	  377.21
     53.3700	 1137.00	 1120.44	-1758.94	  377.28
     53.4700	 1176.00	 1209.37	-1808.87	  377.35
     53.5700	 1179.00	 1226.26	-1822.76	  377.42
     53.6700	 1152.00	 1163.22	-1786.72	  377.50
     53.7700	  993.00	 1046.07	-1828.57	  377.57
     53.8700	  858.00	  912.29	-1829.79	  377.65
     53.9700	  780.00	  790.52	-1786.02	  377.72
     54.0700	  717.00	  695.53	-1754.03	  377.80
     54.1700	  632.00	  630.23	-1773.73	  377.88
     54.2700	  609.00	  589.99	-1756.49	  377.96
     54.3700	  599.00	  567.39	-1743.89	  378.05
     54.4700	  604.00	  555.56	-1727.06	  378.13
     54.5700	  550.00	  549.68	-1775.18	  378.22
     54.6700	  559.00	  546.91	-1763.41	  378.30
     54.7700	  555.00	  545.88	-1766.38	  378.39
     54.8700	  564.00	  545.94	-1757.44	  378.48
     54.9700	  536.00	  546.84	-1786.34	  378.57
     55.0700	  552.00	  548.49	-1771.99	  378.66
     55.1700	  538.00	  550.93	-1788.43	  378.75
     55.2700	  559.00	  554.17	-1770.67	  378.84
     55.3700	  532.00	  558.37	-1801.87	  378.94
     55.4700	  610.00	  563.75	-1729.25	  379.03
     55.5700	  589.00	  570.72	-1757.22	  379.13
     55.6700	  557.00	  580.12	-1798.62	  379.23
     55.7700	  557.00	  593.62	-1812.12	  379.33
     55.8700	  629.00	  614.64	-1761.14	  379.43
     55.9700	  628.00	  649.45	-1796.95	  379.53
     56.0700	  645.00	  708.49	-1838.99	  379.63
     56.1700	  751.00	  806.69	-1831.19	  379.73
     56.2700	  883.00	  961.78	-1854.28	  379.84
     56.3700	 1108.00	 1188.91	-1856.41	  379.94
     56.4700	 1485.00	 1492.28	-1782.78	  380.05
     56.5700	 1785.00	 1855.62	-1846.12	  380.16
     56.6700	 2202.00	 2234.31	-1807.81	  380.26
     56.7700	 2588.00	 2553.49	-1740.99	  380.37
     56.8700	 2639.00	 2721.57	-1858.07	  380.48
     56.9700	 2567.00	 2676.38	-1884.88	  380.59
     57.0700	 2408.00	 2435.34	-1802.84	  380.71
     57.1700	 2079.00	 2081.30	-1777.80	  380.82
     57.2700	 1699.00	 1703.52	-1780.02	  380.93
     57.3700	 1280.00	 1364.77	-1860.27	  381.05
     57.4700	 1021.00	 1096.83	-1851.33	  381.16
     57.5700	  896.00	  906.32	-1785.82	  381.28
     57.6700	  782.00	  783.59	-1777.09	  381.40
     57.7700	  650.00	  712.19	-1837.69	  381.52
     57.8700	  699.00	  676.42	-1752.92	  381.64
     57.9700	  694.00	  665.09	-1746.59	  381.76
     58.0700	  662.00	  672.10	-1785.60	  381.88
     58.1700	  717.00	  695.30	-1753.80	  382.00
     58.2700	  776.00	  734.54	-1734.04	  382.12
     58.3700	  785.00	  789.92	-1780.42	  382.24
     58.4700	  928.00	  860.00	-1707.50	  382.37
     58.5700	 1004.00	  940.40	-1711.90	  382.49
     58.6700	 1232.00	 1023.22	-1566.72	  382.62
     58.7700	 1331.00	 1099.29	-1543.79	  382.75
     58.8700	 1416.00	 1162.35	-1521.85	  382.87
     58.9700	 1558.00	 1208.94	-1426.44	  383.00
     59.0700	 1499.00	 1234.43	-1510.93	  383.13
     59.1700	 1541.00	 1234.78	-1469.28	  383.26
     59.2700	 1398.00	 1213.75	-1591.25	  383.39
     59.3700	 1381.00	 1183.37	-1577.87	  383.52
     59.4700	 1277.00	 1155.96	-1654.46	  383.65
     59.5700	 1132.00	 1139.79	-1783.29	  383.79
     59.6700	 1132.00	 1141.72	-1785.22	  383.92
     59.7700	 1203.00	 1169.69	-1742.19	  384.05
     59.8700	 1253.00	 1228.78	-1751.28	  384.19
     59.9700	 1354.00	 1314.84	-1736.34	  384.32
     60.0700	 1470.00	 1411.48	-1716.98	  384.46
     60.1700	 1630.00	 1490.49	-1635.99	  384.59
     60.2700	 1611.00	 1518.94	-1683.44	  384.73
     60.3700	 1539.00	 1476.49	-1712.99	  384.87
     60.4700	 1422.00	 1370.03	-1723.53	  385.00
     60.5700	 1190.00	 1226.77	-1812.27	  385.14
     60.6700	 1065.00	 1075.93	-1786.43	  385.28
     60.7700	  948.00	  938.81	-1766.31	  385.42
     60.8700	  836.00	  827.41	-1766.91	  385.56
     60.9700	  753.00	  745.99	-1768.49	  385.70
     61.0700	  686.00	  693.46	-1782.96	  385.84
     61.1700	  682.00	  666.54	-1760.04	  385.98
     61.2700	  658.00	  662.46	-1779.96	  386.13
     61.3700	  673.00	  680.60	-1783.10	  386.27
     61.4700	  735.00	  722.74	-1763.24	  386.41
     61.5700	  754.00	  791.80	-1813.30	  386.55
     61.6700	  813.00	  889.48	-1851.98	  386.70
     61.7700	  921.00	 1013.42	-1867.92	  386.84
     61.8700	 1115.00	 1154.51	-1815.01	  386.99
     61.9700	 1266.00	 1295.28	-1804.78	  387.13
     62.0700	 1319.00	 1409.84	-1866.34	  387.28
     62.1700	 1332.00	 1468.83	-1912.33	  387.42
     62.2700	 1319.00	 1453.01	-1909.51	  387.57
     62.3700	 1288.00	 1367.11	-1854.61	  387.71
     62.4700	 1200.00	 1236.21	-1811.71	  387.86
     62.5700	 1017.00	 1089.56	-1848.06	  388.01
     62.6700	  925.00	  949.96	-1800.46	  388.15
     62.7700	  746.00	  831.27	-1860.77	  388.30
     62.8700	  628.00	  739.27	-1886.77	  388.45
     62.9700	  632.00	  673.48	-1816.98	  388.60
     63.0700	  614.00	  629.71	-1791.21	  388.75
     63.1700	  616.00	  602.36	-1761.86	  388.89
     63.2700	  591.00	  586.28	-1770.78	  389.04
     63.3700	  580.00	  577.62	-1773.12	  389.19
     63.4700	  572.00	  574.12	-1777.62	  389.34
     63.5700	  582.00	  574.97	-1768.47	  389.49
     63.6700	  640.00	  580.62	-1716.12	  389.64
     63.7700	  568.00	  592.54	-1800.04	  389.79
     63.8700	  582.00	  612.84	-1806.34	  389.94
     63.9700	  672.00	  643.76	-1747.26	  390.09
     64.0700	  723.00	  686.80	-1739.30	  390.24
     64.1700	  757.00	  741.73	-1760.23	  390.39
     64.2700	  872.00	  805.62	-1709.12	  390.54
     64.3700	  922.00	  872.25	-1725.75	  390.69
     64.4700	 1046.00	  931.93	-1661.43	  390.84
     64.5700	 1025.00	  972.85	-1723.35	  390.99
     64.6700	 1072.00	  986.84	-1690.34	  391.14
     64.7700	 1013.00	  971.54	-1734.04	  391.29
     64.8700	  957.00	  932.20	-1750.70	  391.44
     64.9700	  898.00	  878.14	-1755.64	  391.59
     65.0700	  863.00	  819.37	-1731.87	  391.74
     65.1700	  803.00	  763.91	-1736.41	  391.90
     65.2700	  761.00	  716.24	-1730.74	  392.05
     65.3700	  656.00	  677.54	-1797.04	  392.20
     65.4700	  668.00	  646.94	-1754.44	  392.35
     65.5700	  637.00	  622.98	-1761.48	  392.50
     65.6700	  590.00	  604.42	-1789.92	  392.65
     65.7700	  592.00	  590.32	-1773.82	  392.80
     65.8700	  551.00	  579.96	-1804.46	  392.95
     65.9700	  546.00	  572.76	-1802.26	  393.10
     66.0700	  526.00	  568.23	-1817.73	  393.25
     66.1700	  521.00	  565.94	-1820.44	  393.40
     66.2700	  546.00	  565.52	-1795.02	  393.55
     66.3700	  551.00	  566.64	-1791.14	  393.70
     66.4700	  505.00	  569.16	-1839.66	  393.85
     66.5700	  578.00	  573.22	-1770.72	  394.00
     66.6700	  546.00	  579.01	-1808.51	  394.15
     66.7700	  579.00	  587.53	-1784.03	  394.29
     66.8700	  597.00	  600.54	-1779.04	  394.44
     66.9700	  557.00	  621.06	-1839.56	  394.59
     67.0700	  654.00	  653.84	-1775.34	  394.74
     67.1700	  684.00	  705.67	-1797.17	  394.89
     67.2700	  730.00	  785.09	-1830.59	  395.04
     67.3700	  897.00	  901.32	-1779.82	  395.18
     67.4700	 1096.00	 1061.60	-1741.10	  395.33
     67.5700	 1205.00	 1268.68	-1839.18	  395.48
     67.6700	 1547.00	 1516.96	-1745.46	  395.62
     67.7700	 1801.00	 1789.60	-1764.10	  395.77
     67.8700	 2120.00	 2057.81	-1713.31	  395.92
     67.9700	 2342.00	 2280.80	-1714.30	  396.06
     68.0700	 2489.00	 2413.00	-1699.50	  396.21
     68.1700	 2382.00	 2420.61	-1814.11	  396.35
     68.2700	 2287.00	 2301.47	-1789.97	  396.50
     68.3700	 2060.00	 2086.65	-1802.15	  396.64
     68.4700	 1870.00	 1821.74	-1727.24	  396.78
     68.5700	 1613.00	 1548.19	-1710.69	  396.93
     68.6700	 1246.00	 1296.55	-1826.05	  397.07
     68.7700	 1073.00	 1084.88	-1787.38	  397.21
     68.8700	  910.00	  919.85	-1785.35	  397.35
     68.9700	  734.00	  799.64	-1841.14	  397.49
     69.0700	  716.00	  717.11	-1776.61	  397.64
     69.1700	  630.00	  663.18	-1808.68	  397.78
     69.2700	  667.00	  629.17	-1737.67	  397.92
     69.3700	  640.00	  608.08	-1743.58	  398.06
     69.4700	  612.00	  594.92	-1758.42	  398.19
     69.5700	  567.00	  586.48	-1794.98	  398.33
     69.6700	  595.00	  580.86	-1761.36	  398.47
     69.7700	  589.00	  577.00	-1763.50	  398.61
     69.8700	  574.00	  574.33	-1775.83	  398.74
     69.9700	  578.00	  572.57	-1770.07	  398.88
     70.0700	  597.00	  571.60	-1750.10	  399.02
     70.1700	  591.00	  571.36	-1755.86	  399.15
     70.2700	  574.00	  571.85	-1773.35	  399.29
     70.3700	  617.00	  573.19	-1731.69	  399.42
     70.4700	  605.00	  575.63	-1746.13	  399.55
     70.5700	  554.00	  579.65	-1801.15	  399.68
     70.6700	  603.00	  586.14	-1758.64	  399.82
     70.7700	  588.00	  596.64	-1784.14	  399.95
     70.8700	  599.00	  613.57	-1790.07	  400.08
     70.9700	  636.00	  640.53	-1780.03	  400.21
     71.0700	  641.00	  682.30	-1816.80	  400.34
     71.1700	  736.00	  744.60	-1784.10	  400.46
     71.2700	  799.00	  833.16	-1809.66	  400.59
     71.3700	  919.00	  953.11	-1809.61	  400.72
     71.4700	 1092.00	 1103.80	-1787.30	  400.84
     71.5700	 1199.00	 1281.88	-1858.38	  400.97
     71.6700	 1416.00	 1476.55	-1836.05	  401.09
     71.7700	 1671.00	 1669.60	-1774.10	  401.22
     71.8700	 1816.00	 1836.09	-1795.59	  401.34
     71.9700	 1867.00	 1947.44	-1855.94	  401.46
     72.0700	 1989.00	 1979.66	-1766.16	  401.58
     72.1700	 1919.00	 1925.01	-1781.51	  401.70
     72.2700	 1822.00	 1796.62	-1750.12	  401.82
     72.3700	 1693.00	 1620.43	-1702.93	  401.94
     72.4700	 1444.00	 1425.48	-1756.98	  402.06
     72.5700	 1337.00	 1234.48	-1672.98	  402.18
     72.6700	 1163.00	 1063.42	-1675.92	  402.29
     72.7700	 1072.00	  921.11	-1624.61	  402.41
     72.8700	  920.00	  810.03	-1665.53	  402.52
     72.9700	  879.00	  728.07	-1624.57	  402.64
     73.0700	  770.00	  670.45	-1675.95	  402.75
     73.1700	  708.00	  631.45	-1698.95	  402.86
     73.2700	  714.00	  605.72	-1667.22	  402.97
     73.3700	  646.00	  588.92	-1718.42	  403.08
     73.4700	  619.00	  577.86	-1734.36	  403.19
     73.5700	  599.00	  570.43	-1746.93	  403.30
     73.6700	  609.00	  565.33	-1731.83	  403.41
     73.7700	  611.00	  561.79	-1726.29	  403.51
     73.8700	  593.00	  559.39	-1741.89	  403.62
     73.9700	  624.00	  557.85	-1709.35	  403.72
     74.0700	  629.00	  557.02	-1703.52	  403.82
     74.1700	  653.00	  556.74	-1679.24	  403.92
     74.2700	  577.00	  556.83	-1755.33	  404.03
     74.3700	  607.00	  557.11	-1725.61	  404.13
     74.4700	  637.00	  557.34	-1695.84	  404.22
     74.5700	  614.00	  557.29	-1718.79	  404.32
     74.6700	  593.00	  556.77	-1739.27	  404.42
     74.7700	  597.00	  555.73	-1734.23	  404.51
     74.8700	  607.00	  554.31	-1722.81	  404.61
     74.9700	  588.00	  552.72	-1740.22	  404.70
     75.0700	  625.00	  551.25	-1701.75	  404.79
     75.1700	  587.00	  550.14	-1738.64	  404.88
     75.2700	  619.00	  549.83	-1706.33	  404.97
     75.3700	  589.00	  550.60	-1737.10	  405.06
     75.4700	  551.00	  552.96	-1777.46	  405.15
     75.5700	  589.00	  557.26	-1743.76	  405.24
     75.6700	  533.00	  564.24	-1806.74	  405.32
     75.7700	  587.00	  574.26	-1762.76	  405.40
     75.8700	  626.00	  587.65	-1737.15	  405.49
     75.9700	  571.00	  604.39	-1808.89	  405.57
     76.0700	  607.00	  623.96	-1792.46	  405.65
     76.1700	  612.00	  645.27	-1808.77	  405.73
     76.2700	  694.00	  666.59	-1748.09	  405.81
     76.3700	  692.00	  685.58	-1769.08	  405.88
     76.4700	  665.00	  699.53	-1810.03	  405.96
     76.5700	  738.00	  705.98	-1743.48	  406.03
     76.6700	  686.00	  703.56	-1793.06	  406.11
     76.7700	  667.00	  692.77	-1801.27	  406.18
     76.8700	  651.00	  675.65	-1800.15	  406.25
     76.9700	  629.00	  654.70	-1801.20	  406.32
     77.0700	  625.00	  632.85	-1783.35	  406.38
     77.1700	  605.00	  611.93	-1782.43	  406.45
     77.2700	  585.00	  593.34	-1783.84	  406.52
     77.3700	  557.00	  577.84	-1796.34	  406.58
     77.4700	  541.00	  565.63	-1800.13	  406.64
     77.5700	  520.00	  556.50	-1812.00	  406.70
     77.6700	  527.00	  549.98	-1798.48	  406.76
     77.7700	  524.00	  545.51	-1797.01	  406.82
     77.8700	  541.00	  542.55	-1777.05	  406.88
     77.9700	  534.00	  540.64	-1782.14	  406.94
     78.0700	  527.00	  539.41	-1787.91	  406.99
     78.1700	  535.00	  538.63	-1779.13	  407.04
     78.2700	  547.00	  538.13	-1766.63	  407.09
     78.3700	  497.00	  537.82	-1816.32	  407.14
     78.4700	  549.00	  537.63	-1764.13	  407.19
     78.5700	  509.00	  537.56	-1804.06	  407.24
     78.6700	  496.00	  537.58	-1817.08	  407.29
     78.7700	  537.00	  537.71	-1776.21	  407.33
     78.8700	  551.00	  537.97	-1762.47	  407.37
     78.9700	  488.00	  538.39	-1825.89	  407.42
     79.0700	  565.00	  539.01	-1749.51	  407.46
     79.1700	  510.00	  539.89	-1805.39	  407.50
     79.2700	  534.00	  541.08	-1782.58	  407.53
     79.3700	  528.00	  542.45	-1789.95	  407.57
     79.4700	  537.00	  544.44	-1782.94	  407.60
     79.5700	  511.00	  546.91	-1811.41	  407.64
     79.6700	  538.00	  549.94	-1787.44	  407.67
     79.7700	  544.00	  553.62	-1785.12	  407.70
     79.8700	  532.00	  558.05	-1801.55	  407.73
     79.9700	  566.00	  563.36	-1772.86	  407.75
     80.0700	  557.00	  569.77	-1788.27	  407.78
     80.1700	  609.00	  577.51	-1744.01	  407.80
     80.2700	  557.00	  586.89	-1805.39	  407.83
     80.3700	  542.00	  598.18	-1831.68	  407.85
     80.4700	  579.00	  611.52	-1808.02	  407.87
     80.5700	  613.00	  626.79	-1789.29	  407.88
     80.6700	  662.00	  643.56	-1757.06	  407.90
     80.7700	  611.00	  661.03	-1825.53	  407.91
     80.8700	  603.00	  678.09	-1850.59	  407.93
     80.9700	  724.00	  693.42	-1744.92	  407.94
     81.0700	  659.00	  705.81	-1822.31	  407.95
     81.1700	  709.00	  714.30	-1780.80	  407.96
     81.2700	  743.00	  718.28	-1750.78	  407.96
     81.3700	  762.00	  717.50	-1731.00	  407.97
     81.4700	  751.00	  712.16	-1736.66	  407.97
     81.5700	  817.00	  702.80	-1661.30	  407.98
     81.6700	  727.00	  690.18	-1738.68	  407.98
     81.7700	  733.00	  675.19	-1717.69	  407.98
     81.8700	  744.00	  658.76	-1690.26	  407.97
     81.9700	  665.00	  641.90	-1752.40	  407.97
     82.0700	  647.00	  625.56	-1754.06	  407.96
     82.1700	  680.00	  610.37	-1705.87	  407.96
     82.2700	  636.00	  596.91	-1736.41	  407.95
     82.3700	  590.00	  585.32	-1770.82	  407.94
     82.4700	  593.00	  575.66	-1758.16	  407.92
     82.5700	  581.00	  567.92	-1762.42	  407.91
     82.6700	  569.00	  561.99	-1768.49	  407.89
     82.7700	  538.00	  557.83	-1795.33	  407.88
     82.8700	  593.00	  555.30	-1737.80	  407.86
     82.9700	  552.00	  554.33	-1777.83	  407.84
     83.0700	  523.00	  554.82	-1807.32	  407.82
     83.1700	  518.00	  556.69	-1814.19	  407.79
     83.2700	  565.00	  559.83	-1770.33	  407.77
     83.3700	  555.00	  564.07	-1784.57	  407.74
     83.4700	  532.00	  569.17	-1812.67	  407.71
     83.5700	  551.00	  574.77	-1799.27	  407.68
     83.6700	  542.00	  580.42	-1813.92	  407.65
     83.7700	  564.00	  585.58	-1797.08	  407.61
     83.8700	  573.00	  589.62	-1792.12	  407.58
     83.9700	  529.00	  591.96	-1838.46	  407.54
     84.0700	  621.00	  592.20	-1746.70	  407.50
     84.1700	  598.00	  590.25	-1767.75	  407.46
     84.2700	  592.00	  586.38	-1769.88	  407.42
     84.3700	  559.00	  581.11	-1797.61	  407.38
     84.4700	  561.00	  575.03	-1789.53	  407.33
     84.5700	  536.00	  568.69	-1808.19	  407.28
     84.6700	  529.00	  562.53	-1809.03	  407.23
     84.7700	  551.00	  556.89	-1781.39	  407.18
     84.8700	  541.00	  551.97	-1786.47	  407.13
     84.9700	  553.00	  547.88	-1770.38	  407.08
     85.0700	  516.00	  544.63	-1804.13	  407.02
     85.1700	  531.00	  542.18	-1786.68	  406.96
     85.2700	  527.00	  540.41	-1788.91	  406.90
     85.3700	  540.00	  539.23	-1774.73	  406.84
     85.4700	  510.00	  538.54	-1804.04	  406.78
     85.5700	  525.00	  538.24	-1788.74	  406.72
     85.6700	  561.00	  538.29	-1752.79	  406.65
     85.7700	  565.00	  538.66	-1749.16	  406.58
     85.8700	  470.00	  539.37	-1844.87	  406.51
     85.9700	  521.00	  540.47	-1794.97	  406.44
     86.0700	  548.00	  542.03	-1769.53	  406.37
     86.1700	  516.00	  544.19	-1803.69	  406.29
     86.2700	  508.00	  547.09	-1814.59	  406.22
     86.3700	  532.00	  550.89	-1794.39	  406.14
     86.4700	  566.00	  555.75	-1765.25	  406.06
     86.5700	  549.00	  561.78	-1788.28	  405.98
     86.6700	  556.00	  569.05	-1788.55	  405.90
     86.7700	  585.00	  577.46	-1767.96	  405.81
     86.8700	  580.00	  586.47	-1781.97	  405.72
     86.9700	  606.00	  596.32	-1765.82	  405.64
     87.0700	  610.00	  606.13	-1771.63	  405.55
     87.1700	  609.00	  615.16	-1781.66	  405.45
     87.2700	  650.00	  622.58	-1748.08	  405.36
     87.3700	  666.00	  627.58	-1737.08	  405.27
     87.4700	  643.00	  629.50	-1762.00	  405.17
     87.5700	  651.00	  628.11	-1752.61	  405.07
     87.6700	  695.00	  623.64	-1704.14	  404.97
     87.7700	  610.00	  616.76	-1782.26	  404.87
     87.8700	  647.00	  608.32	-1736.82	  404.77
     87.9700	  606.00	  599.27	-1768.77	  404.66
     88.0700	  575.00	  590.44	-1790.94	  404.55
     88.1700	  634.00	  582.54	-1724.04	  404.44
     88.2700	  593.00	  576.14	-1758.64	  404.33
     88.3700	  587.00	  571.58	-1760.08	  404.22
     88.4700	  603.00	  569.06	-1741.56	  404.11
     88.5700	  568.00	  568.58	-1776.08	  403.99
     88.6700	  632.00	  570.00	-1713.50	  403.88
     88.7700	  555.00	  573.03	-1793.53	  403.76
     88.8700	  599.00	  577.28	-1753.78	  403.64
     88.9700	  555.00	  582.24	-1802.74	  403.51
     89.0700	  655.00	  587.37	-1707.87	  403.39
     89.1700	  624.00	  592.05	-1743.55	  403.26
     89.2700	  599.00	  595.67	-1772.17	  403.14
     89.3700	  593.00	  597.71	-1780.21	  403.01
     89.4700	  579.00	  597.80	-1794.30	  402.88
     89.5700	  565.00	  595.89	-1806.39	  402.75
     89.6700	  573.00	  592.18	-1794.68	  402.61
     89.7700	  518.00	  587.08	-1844.58	  402.48
     89.8700	  580.00	  581.09	-1776.59	  402.34
     89.9700	  559.00	  574.71	-1791.21	  402.20
     90.0700	  580.00	  568.34	-1763.84	  402.06
     90.1700	  521.00	  562.33	-1816.83	  401.92
     90.2700	  534.00	  556.92	-1798.42	  401.78
     90.3700	  504.00	  552.25	-1823.75	  401.63
     90.4700	  518.00	  548.39	-1805.89	  401.48
     90.5700	  513.00	  545.33	-1807.83	  401.34
     90.6700	  516.00	  543.02	-1802.52	  401.19
     90.7700	  541.00	  541.37	-1775.88	  401.03
     90.8700	  511.00	  540.30	-1804.80	  400.88
     90.9700	  518.00	  539.72	-1797.22	  400.73
     91.0700	  504.00	  539.57	-1811.07	  400.57
     91.1700	  556.00	  539.81	-1759.31	  400.41
     91.2700	  512.00	  540.45	-1803.95	  400.25
     91.3700	  544.00	  541.54	-1773.04	  400.09
     91.4700	  519.00	  543.15	-1799.65	  399.93
     91.5700	  508.00	  545.42	-1812.92	  399.76
     91.6700	  516.00	  548.51	-1808.01	  399.60
     91.7700	  535.00	  552.61	-1793.11	  399.43
     91.8700	  563.00	  557.93	-1770.43	  399.26
     91.9700	  551.00	  564.69	-1789.19	  399.09
     92.0700	  556.00	  572.84	-1792.34	  398.92
     92.1700	  564.00	  582.97	-1794.47	  398.75
     92.2700	  598.00	  594.91	-1772.41	  398.57
     92.3700	  523.00	  608.61	-1861.11	  398.39
     92.4700	  614.00	  623.90	-1785.40	  398.22
     92.5700	  609.00	  640.47	-1806.97	  398.04
     92.6700	  640.00	  657.87	-1793.37	  397.86
     92.7700	  699.00	  675.52	-1752.02	  397.67
     92.8700	  708.00	  692.74	-1760.24	  397.49
     92.9700	  756.00	  708.81	-1728.31	  397.30
     93.0700	  714.00	  723.14	-1784.64	  397.12
     93.1700	  709.00	  735.37	-1801.87	  396.93
     93.2700	  766.00	  745.58	-1755.08	  396.74
     93.3700	  830.00	  754.16	-1699.66	  396.55
     93.4700	  826.00	  761.71	-1711.21	  396.36
     93.5700	  844.00	  768.87	-1700.37	  396.16
     93.6700	  894.00	  776.19	-1657.69	  395.97
     93.7700	  833.00	  784.18	-1726.68	  395.77
     93.8700	  883.00	  793.26	-1685.76	  395.57
     93.9700	  855.00	  803.86	-1724.36	  395.37
     94.0700	  837.00	  816.30	-1754.80	  395.17
     94.1700	  831.00	  830.72	-1775.22	  394.97
     94.2700	  850.00	  846.92	-1772.42	  394.77
     94.3700	  879.00	  864.25	-1760.75	  394.56
     94.4700	  840.00	  881.64	-1817.14	  394.36
     94.5700	  939.00	  897.58	-1734.08	  394.15
     94.6700	  932.00	  910.26	-1753.76	  393.94
     94.7700	  881.00	  917.84	-1812.34	  393.73
     94.8700	  922.00	  918.76	-1772.26	  393.52
     94.9700	  930.00	  912.14	-1757.64	  393.31
     95.0700	  906.00	  898.10	-1767.60	  393.10
     95.1700	  869.00	  877.65	-1784.15	  392.88
     95.2700	  835.00	  852.49	-1792.99	  392.66
     95.3700	  796.00	  824.59	-1804.09	  392.45
     95.4700	  768.00	  795.99	-1803.49	  392.23
     95.5700	  783.00	  768.61	-1761.11	  392.01
     95.6700	  757.00	  744.22	-1762.72	  391.79
     95.7700	  705.00	  724.42	-1794.92	  391.57
     95.8700	  679.00	  710.60	-1807.10	  391.34
     95.9700	  634.00	  704.02	-1845.52	  391.12
     96.0700	  674.00	  705.76	-1807.26	  390.89
     96.1700	  699.00	  716.70	-1793.20	  390.67
     96.2700	  773.00	  737.55	-1740.05	  390.44
     96.3700	  770.00	  768.74	-1774.24	  390.21
     96.4700	  798.00	  810.37	-1787.87	  389.98
     96.5700	  868.00	  862.13	-1769.63	  389.75
     96.6700	  965.00	  923.15	-1733.65	  389.52
     96.7700	  973.00	  991.97	-1794.47	  389.29
     96.8700	  989.00	 1066.44	-1852.94	  389.05
     96.9700	 1125.00	 1143.69	-1794.19	  388.82
     97.0700	 1188.00	 1220.20	-1807.70	  388.58
     97.1700	 1243.00	 1291.84	-1824.34	  388.34
     97.2700	 1288.00	 1354.13	-1841.63	  388.11
     97.3700	 1426.00	 1402.57	-1752.07	  387.87
     97.4700	 1409.00	 1433.27	-1799.77	  387.63
     97.5700	 1441.00	 1443.67	-1778.17	  387.39
     97.6700	 1381.00	 1433.18	-1827.68	  387.15
     97.7700	 1416.00	 1403.25	-1762.75	  386.90
     97.8700	 1341.00	 1356.93	-1791.43	  386.66
     97.9700	 1288.00	 1298.30	-1785.80	  386.42
     98.0700	 1261.00	 1231.68	-1746.18	  386.17
     98.1700	 1162.00	 1161.44	-1774.94	  385.93
     98.2700	 1115.00	 1091.44	-1751.94	  385.68
     98.3700	 1009.00	 1025.10	-1791.60	  385.43
     98.4700	  974.00	  965.31	-1766.81	  385.18
     98.5700	  899.00	  914.36	-1790.86	  384.94
     98.6700	  876.00	  874.08	-1773.58	  384.69
     98.7700	  758.00	  845.79	-1863.29	  384.44
     98.8700	  779.00	  830.49	-1826.99	  384.19
     98.9700	  755.00	  828.85	-1849.35	  383.93
     99.0700	  867.00	  841.29	-1749.79	  383.68
     99.1700	  874.00	  868.04	-1769.54	  383.43
     99.2700	  846.00	  909.14	-1838.64	  383.18
     99.3700	  953.00	  964.35	-1786.85	  382.92
     99.4700	 1008.00	 1033.16	-1800.66	  382.67
     99.5700	 1130.00	 1114.65	-1760.15	  382.41
     99.6700	 1283.00	 1207.44	-1699.94	  382.16
     99.7700	 1324.00	 1309.57	-1761.07	  381.90
     99.8700	 1409.00	 1418.39	-1784.89	  381.64
     99.9700	 1576.00	 1530.53	-1730.03	  381.38
    100.0700	 1661.00	 1641.98	-1756.48	  381.13
    100.1700	 1858.00	 1748.25	-1665.75	  380.87
    100.2700	 1918.00	 1844.82	-1702.32	  380.61
    100.3700	 1915.00	 1927.64	-1788.14	  380.35
    100.4700	 1900.00	 1993.44	-1868.94	  380.09
    100.5700	 2181.00	 2040.00	-1634.50	  379.83
    100.6700	 2018.00	 2065.85	-1823.35	  379.57
    100.7700	 2050.00	 2070.16	-1795.66	  379.31
    100.8700	 2056.00	 2052.65	-1772.15	  379.05
    100.9700	 2042.00	 2013.87	-1747.37	  378.79
    101.0700	 1932.00	 1955.57	-1799.07	  378.53
    101.1700	 1823.00	 1880.90	-1833.40	  378.27
    101.2700	 1818.00	 1794.22	-1751.72	  378.00
    101.3700	 1740.00	 1700.60	-1736.10	  377.74
    101.4700	 1599.00	 1605.14	-1781.64	  377.48
    101.5700	 1550.00	 1512.44	-1737.94	  377.22
    101.6700	 1417.00	 1426.29	-1784.79	  376.96
    101.7700	 1427.00	 1349.41	-1697.91	  376.69
    101.8700	 1329.00	 1283.46	-1729.96	  376.43
    101.9700	 1183.00	 1229.04	-1821.54	  376.17
    102.0700	 1149.00	 1185.75	-1812.25	  375.90
    102.1700	 1140.00	 1152.29	-1787.79	  375.64
    102.2700	 1175.00	 1126.63	-1727.13	  375.38
    102.3700	 1085.00	 1106.24	-1796.74	  375.12
    102.4700	 1091.00	 1088.36	-1772.86	  374.85
    102.5700	 1121.00	 1070.34	-1724.84	  374.59
    102.6700	 1004.00	 1049.99	-1821.49	  374.33
    102.7700	 1030.00	 1025.85	-1771.35	  374.07
    102.8700	  957.00	  997.32	-1815.82	  373.80
    102.9700	  939.00	  964.58	-1801.08	  373.54
    103.0700	  980.00	  928.41	-1723.91	  373.28
    103.1700	  881.00	  889.90	-1784.40	  373.02
    103.2700	  881.00	  850.26	-1744.76	  372.76
    103.3700	  795.00	  810.73	-1791.23	  372.50
    103.4700	  776.00	  772.40	-1771.90	  372.23
    103.5700	  747.00	  736.22	-1764.72	  371.97
    103.6700	  677.00	  702.93	-1801.43	  371.71
    103.7700	  691.00	  673.02	-1757.52	  371.45
    103.8700	  609.00	  646.81	-1813.31	  371.20
    103.9700	  593.00	  624.37	-1806.87	  370.94
    104.0700	  591.00	  605.62	-1790.12	  370.68
    104.1700	  584.00	  590.33	-1781.83	  370.42
    104.2700	  624.00	  578.20	-1729.70	  370.16
    104.3700	  566.00	  568.85	-1778.35	  369.91
    104.4700	  575.00	  561.89	-1762.39	  369.65
    104.5700	  551.00	  556.96	-1781.46	  369.39
    104.6700	  528.00	  553.69	-1801.19	  369.14
    104.7700	  555.00	  551.78	-1772.28	  368.88
    104.8700	  610.00	  550.94	-1716.44	  368.63
    104.9700	  546.00	  550.99	-1780.49	  368.38
    105.0700	  540.00	  551.73	-1787.23	  368.13
    105.1700	  528.00	  553.03	-1800.53	  367.87
    105.2700	  528.00	  554.80	-1802.30	  367.62
    105.3700	  553.00	  557.01	-1779.51	  367.37
    105.4700	  538.00	  559.65	-1797.15	  367.13
    105.5700	  519.00	  562.74	-1819.24	  366.88
    105.6700	  579.00	  566.36	-1762.86	  366.63
    105.7700	  544.00	  570.61	-1802.11	  366.38
    105.8700	  522.00	  575.60	-1829.10	  366.14
    105.9700	  612.00	  581.43	-1744.93	  365.90
    106.0700	  595.00	  588.20	-1768.70	  365.65
    106.1700	  550.00	  595.91	-1821.41	  365.41
    106.2700	  610.00	  604.56	-1770.06	  365.17
    106.3700	  601.00	  614.05	-1788.55	  364.93
    106.4700	  605.00	  624.22	-1794.72	  364.69
    106.5700	  635.00	  634.82	-1775.32	  364.45
    106.6700	  652.00	  645.56	-1769.06	  364.22
    106.7700	  626.00	  656.08	-1805.58	  363.98
    106.8700	  652.00	  665.97	-1789.47	  363.75
    106.9700	  660.00	  674.82	-1790.32	  363.52
    107.0700	  655.00	  682.25	-1802.75	  363.29
    107.1700	  676.00	  687.94	-1787.44	  363.06
    107.2700	  640.00	  691.73	-1827.23	  362.83
    107.3700	  656.00	  693.60	-1813.10	  362.60
    107.4700	  693.00	  693.75	-1776.25	  362.38
    107.5700	  680.00	  692.52	-1788.02	  362.16
    107.6700	  700.00	  690.35	-1765.85	  361.93
    107.7700	  682.00	  687.72	-1781.22	  361.71
    107.8700	  719.00	  685.07	-1741.57	  361.50
    107.9700	  686.00	  682.77	-1772.27	  361.28
    108.0700	  693.00	  681.09	-1763.59	  361.06
    108.1700	  683.00	  680.21	-1772.71	  360.85
    108.2700	  655.00	  680.14	-1800.64	  360.64
    108.3700	  676.00	  680.81	-1780.31	  360.43
    108.4700	  689.00	  682.00	-1768.50	  360.22
    108.5700	  657.00	  683.40	-1801.90	  360.02
    108.6700	  694.00	  684.64	-1766.14	  359.81
    108.7700	  708.00	  685.28	-1752.78	  359.61
    108.8700	  703.00	  684.89	-1757.39	  359.41
    108.9700	  700.00	  683.14	-1758.64	  359.21
    109.0700	  651.00	  679.76	-1804.26	  359.02
    109.1700	  659.00	  674.66	-1791.16	  358.82
    109.2700	  643.00	  667.90	-1800.40	  358.63
    109.3700	  633.00	  659.68	-1802.18	  358.44
    109.4700	  628.00	  650.28	-1797.78	  358.26
    109.5700	  642.00	  640.03	-1773.53	  358.07
    109.6700	  659.00	  629.29	-1745.79	  357.89
    109.7700	  666.00	  618.42	-1727.92	  357.71
    109.8700	  598.00	  607.71	-1785.21	  357.53
    109.9700	  618.00	  597.46	-1754.96	  357.36
    110.0700	  619.00	  587.90	-1744.40	  357.18
    110.1700	  599.00	  579.18	-1755.68	  357.01
    110.2700	  553.00	  571.45	-1793.95	  356.84
    110.3700	  581.00	  564.75	-1759.25	  356.68
    110.4700	  563.00	  559.13	-1771.63	  356.52
    110.5700	  528.00	  554.55	-1802.05	  356.36
    110.6700	  556.00	  550.96	-1770.46	  356.20
    110.7700	  548.00	  548.30	-1775.80	  356.05
    110.8700	  559.00	  546.46	-1762.96	  355.89
    110.9700	  557.00	  545.36	-1763.86	  355.75
    111.0700	  532.00	  544.91	-1788.41	  355.60
    111.1700	  521.00	  545.00	-1799.50	  355.46
    111.2700	  484.00	  545.57	-1837.07	  355.32
    111.3700	  532.00	  546.54	-1790.04	  355.18
    111.4700	  568.00	  547.85	-1755.35	  355.05
    111.5700	  600.00	  549.46	-1724.96	  354.92
    111.6700	  550.00	  551.32	-1776.82	  354.79
    111.7700	  572.00	  553.42	-1756.92	  354.67
    111.8700	  583.00	  555.74	-1748.24	  354.54
    111.9700	  577.00	  558.26	-1756.76	  354.43
    112.0700	  570.00	  561.00	-1766.50	  354.31
    112.1700	  548.00	  563.97	-1791.47	  354.20
    112.2700	  557.00	  567.19	-1785.69	  354.09
    112.3700	  585.00	  570.68	-1761.18	  353.99
    112.4700	  554.00	  574.49	-1795.99	  353.89
    112.5700	  606.00	  578.67	-1748.17	  353.79
    112.6700	  595.00	  583.29	-1763.79	  353.70
    112.7700	  621.00	  588.43	-1742.93	  353.61
    112.8700	  633.00	  594.21	-1736.71	  353.52
    112.9700	  634.00	  600.78	-1742.28	  353.44
    113.0700	  672.00	  608.34	-1711.84	  353.36
    113.1700	  714.00	  617.12	-1678.62	  353.29
    113.2700	  732.00	  627.45	-1670.95	  353.22
    113.3700	  719.00	  639.76	-1696.26	  353.15
    113.4700	  763.00	  654.55	-1667.05	  353.09
    113.5700	  827.00	  672.48	-1620.98	  353.03
    113.6700	  794.00	  694.36	-1675.86	  352.97
    113.7700	  880.00	  721.15	-1616.65	  352.92
    113.8700	  921.00	  754.03	-1608.53	  352.88
    113.9700	  920.00	  794.36	-1649.86	  352.84
    114.0700	  986.00	  843.76	-1633.26	  352.80
    114.1700	 1015.00	  904.03	-1664.53	  352.76
    114.2700	 1124.00	  977.18	-1628.68	  352.73
    114.3700	 1266.00	 1065.38	-1574.88	  352.71
    114.4700	 1307.00	 1170.91	-1639.41	  352.69
    114.5700	 1417.00	 1296.11	-1654.61	  352.67
    114.6700	 1589.00	 1443.28	-1629.78	  352.66
    114.7700	 1749.00	 1614.52	-1641.02	  352.66
    114.8700	 1873.00	 1811.63	-1714.13	  352.65
    114.9700	 2185.00	 2035.95	-1626.45	  352.66
    115.0700	 2401.00	 2288.24	-1662.74	  352.66
    115.1700	 2562.00	 2568.53	-1782.03	  352.68
    115.2700	 2825.00	 2875.88	-1826.38	  352.69
    115.3700	 3235.00	 3208.33	-1748.83	  352.72
    115.4700	 3373.00	 3562.73	-1965.23	  352.74
    115.5700	 3797.00	 3934.86	-1913.36	  352.78
    115.6700	 4166.00	 4319.26	-1928.76	  352.81
    115.7700	 4467.00	 4709.16	-2017.66	  352.86
    115.8700	 4763.00	 5096.64	-2109.14	  352.90
    115.9700	 5179.00	 5472.67	-2069.17	  352.96
    116.0700	 5616.00	 5827.43	-1986.93	  353.01
    116.1700	 5994.00	 6150.41	-1931.91	  353.08
    116.2700	 6383.00	 6430.78	-1823.28	  353.15
    116.3700	 6649.00	 6658.13	-1784.63	  353.22
    116.4700	 6868.00	 6823.19	-1730.69	  353.30
    116.5700	 6926.00	 6918.83	-1768.33	  353.39
    116.6700	 7021.00	 6940.76	-1695.26	  353.48
    116.7700	 7102.00	 6888.18	-1561.68	  353.58
    116.8700	 6983.00	 6763.85	-1556.35	  353.68
    116.9700	 6699.00	 6573.80	-1650.30	  353.79
    117.0700	 6392.00	 6326.41	-1709.91	  353.90
    117.1700	 6031.00	 6031.60	-1776.10	  354.02
    117.2700	 5507.00	 5700.03	-1968.53	  354.15
    117.3700	 5258.00	 5342.31	-1859.81	  354.28
    117.4700	 4912.00	 4968.61	-1832.11	  354.42
    117.5700	 4648.00	 4588.14	-1715.64	  354.57
    117.6700	 4234.00	 4209.07	-1750.57	  354.72
    117.7700	 3962.00	 3838.54	-1652.04	  354.88
    117.8700	 3630.00	 3482.41	-1627.91	  355.04
    117.9700	 3333.00	 3145.38	-1587.88	  355.21
    118.0700	 2999.00	 2830.83	-1607.33	  355.39
    118.1700	 2517.00	 2541.04	-1799.54	  355.57
    118.2700	 2260.00	 2277.35	-1792.85	  355.76
    118.3700	 2006.00	 2040.18	-1809.68	  355.96
    118.4700	 1766.00	 1829.17	-1838.67	  356.16
    118.5700	 1571.00	 1643.33	-1847.83	  356.37
    118.6700	 1399.00	 1481.17	-1857.67	  356.59
    118.7700	 1348.00	 1340.95	-1768.45	  356.81
    118.8700	 1131.00	 1220.64	-1865.14	  357.04
    118.9700	 1055.00	 1118.18	-1838.68	  357.28
    119.0700	  975.00	 1031.43	-1831.93	  357.52
    119.1700	  872.00	  958.35	-1861.85	  357.77
    119.2700	  848.00	  897.05	-1824.55	  358.03
    119.3700	  867.00	  845.79	-1754.29	  358.30
    119.4700	  757.00	  803.02	-1821.52	  358.57
    119.5700	  719.00	  767.36	-1823.86	  358.85
    119.6700	  687.00	  737.63	-1826.13	  359.14
    119.7700	  651.00	  712.85	-1837.35	  359.44
    119.8700	  652.00	  692.16	-1815.66	  359.74
    119.9700	  625.00	  674.88	-1825.38	  360.05
    120.0700	  580.00	  660.43	-1855.93	  360.37
    120.1700	  579.00	  648.34	-1844.84	  360.70
    120.2700	  581.00	  638.23	-1832.73	  361.03
    120.3700	  552.00	  629.80	-1853.30	  361.38
    120.4700	  539.00	  622.80	-1859.30	  361.73
    120.5700	  567.00	  617.04	-1825.54	  362.09
    120.6700	  607.00	  612.36	-1780.86	  362.45
    120.7700	  537.00	  608.64	-1847.14	  362.83
    120.8700	  593.00	  605.79	-1788.29	  363.21
    120.9700	  552.00	  603.73	-1827.23	  363.60
    121.0700	  581.00	  602.39	-1796.89	  364.00
    121.1700	  632.00	  601.73	-1745.23	  364.41
    121.2700	  619.00	  601.69	-1758.19	  364.83
    121.3700	  563.00	  602.23	-1814.73	  365.25
    121.4700	  578.00	  603.31	-1800.81	  365.69
    121.5700	  602.00	  604.88	-1778.38	  366.13
    121.6700	  615.00	  606.87	-1767.37	  366.58
    121.7700	  607.00	  609.25	-1777.75	  367.04
    121.8700	  628.00	  611.91	-1759.41	  367.51
    121.9700	  616.00	  614.82	-1774.32	  367.99
    122.0700	  588.00	  617.88	-1805.38	  368.48
    122.1700	  636.00	  621.01	-1760.51	  368.97
    122.2700	  605.00	  624.10	-1794.60	  369.48
    122.3700	  636.00	  627.07	-1766.57	  370.00
    122.4700	  644.00	  629.81	-1761.31	  370.52
    122.5700	  607.00	  632.22	-1800.72	  371.05
    122.6700	  628.00	  634.22	-1781.72	  371.60
    122.7700	  677.00	  635.74	-1734.24	  372.15
    122.8700	  654.00	  636.74	-1758.24	  372.71
    122.9700	  642.00	  637.18	-1770.68	  373.29
    123.0700	  619.00	  637.05	-1793.55	  373.87
    123.1700	  664.00	  636.37	-1747.88	  374.46
    123.2700	  660.00	  635.19	-1750.69	  375.06
    123.3700	  661.00	  633.55	-1748.05	  375.68
    123.4700	  634.00	  631.50	-1773.00	  376.30
    123.5700	  658.00	  629.13	-1746.63	  376.93
    123.6700	  652.00	  626.48	-1749.98	  377.57
    123.7700	  652.00	  623.64	-1747.14	  378.23
    123.8700	  635.00	  620.66	-1761.16	  378.89
    123.9700	  649.00	  617.62	-1744.12	  379.57
    124.0700	  655.00	  614.55	-1735.05	  380.25
    124.1700	  614.00	  611.53	-1773.03	  380.95
    124.2700	  646.00	  608.58	-1738.08	  381.65
    124.3700	  591.00	  605.75	-1790.25	  382.37
    124.4700	  601.00	  603.06	-1777.56	  383.10
    124.5700	  582.00	  600.55	-1794.05	  383.84
    124.6700	  613.00	  598.22	-1760.72	  384.59
    124.7700	  625.00	  596.10	-1746.60	  385.35
    124.8700	  617.00	  594.19	-1752.69	  386.12
    124.9700	  563.00	  504.45	-1716.95	  386.90
    125.0700	  611.00	  505.25	-1775.50	  387.70
    125.1700	  553.00	  506.06	-1775.50	  388.50
    125.2700	  579.00	  506.87	-1775.50	  389.32
    125.3700	  598.00	  507.70	-1775.50	  390.15
    125.4700	  561.00	  508.54	-1775.50	  390.99
    125.5700	  561.00	  509.40	-1775.50	  391.85
    125.6700	  565.00	  510.26	-1775.50	  392.71
    125.7700	  550.00	  511.14	-1775.50	  393.59
    125.8700	  525.00	  512.03	-1775.50	  394.47
    125.9700	  617.00	  512.93	-1775.50	  395.38
    126.0700	  579.00	  513.84	-1775.50	  396.29
    126.1700	  575.00	  514.76	-1775.50	  397.21
    126.2700	  596.00	  515.70	-1775.50	  398.15
    126.3700	  608.00	  516.65	-1775.50	  399.10
    126.4700	  606.00	  517.61	-1775.50	  400.06
    126.5700	  597.00	  518.59	-1775.50	  401.04
    126.6700	  573.00	  519.58	-1775.50	  402.03
    126.7700	  623.00	  520.58	-1775.50	  403.03
    126.8700	  591.00	  521.59	-1775.50	  404.04
    126.9700	  649.00	  522.62	-1775.50	  405.07
    127.0700	  659.00	  523.66	-1775.50	  406.11
    127.1700	  635.00	  524.71	-1775.50	  407.16
    127.2700	  656.00	  525.77	-1775.50	  408.22
    127.3700	  659.00	  526.85	-1775.50	  409.30
    127.4700	  679.00	  527.95	-1775.50	  410.39
    127.5700	  754.00	  529.05	-1775.50	  411.50
    127.6700	  717.00	  530.17	-1775.50	  412.62
    127.7700	  721.00	  531.30	-1775.50	  413.75
    127.8700	  721.00	  532.45	-1775.50	  414.90
    127.9700	  757.00	  533.61	-1775.50	  416.06
    128.0700	  765.00	  534.78	-1775.50	  417.23
    128.1700	  744.00	  535.97	-1775.50	  418.42
    128.2700	  791.00	  537.17	-1775.50	  419.62
    128.3700	  760.00	  538.39	-1775.50	  420.84
    128.4700	  752.00	  539.62	-1775.50	  422.07
    128.5700	    0.00	  540.87	-1775.50	  423.32
    128.6700	    1.00	  542.13	-1775.50	  424.58
     12.3071	        	        	        	        	       0	(  0  0  2)	  0  1
     24.8894	        	        	        	        	       0	(  0  0  4)	  0  1
     28.3312	        	        	        	        	       0	(  1  0  0)	  0  1
     29.0283	        	        	        	        	       0	(  1  0  1)	  0  1
     31.0344	        	        	        	        	       0	(  1  0  2)	  0  1
     34.1425	        	        	        	        	       0	(  1  0  3)	  0  1
     37.7877	        	        	        	        	       0	(  0  0  6)	  0  1
     38.1192	        	        	        	        	       0	(  1  0  4)	  0  1
     42.7689	        	        	        	        	       0	(  1  0  5)	  0  1
     47.9525	        	        	        	        	       0	(  1  0  6)	  0  1
     50.2667	        	        	        	        	       0	(  1  1  0)	  0  1
     51.2080	        	        	        	        	       0	(  0  0  8)	  0  1
     51.9895	        	        	        	        	       0	(  1  1  2)	  0  1
     53.5823	        	        	        	        	       0	(  1  0  7)	  0  1
     56.9369	        	        	        	        	       0	(  1  1  4)	  0  1
     58.7630	        	        	        	        	       0	(  2  0  0)	  0  1
     59.1546	        	        	        	        	       0	(  2  0  1)	  0  1
     59.6120	        	        	        	        	       0	(  1  0  8)	  0  1
     60.3198	        	        	        	        	       0	(  2  0  2)	  0  1
     62.2329	        	        	        	        	       0	(  2  0  3)	  0  1
     64.6308	        	        	        	        	       0	(  1  1  6)	  0  1
     64.8567	        	        	        	        	       0	(  2  0  4)	  0  1
     65.4353	        	        	        	        	       0	(  0  0 10)	  0  1
     66.0276	        	        	        	        	       0	(  1  0  9)	  0  1
     68.1505	        	        	        	        	       0	(  2  0  5)	  0  1
     72.0775	        	        	        	        	       0	(  2  0  6)	  0  1
     72.8427	        	        	        	        	       0	(  1  0 10)	  0  1
     74.6672	        	        	        	        	       0	(  1  1  8)	  0  1
     76.6110	        	        	        	        	       0	(  2  0  7)	  0  1
     80.0992	        	        	        	        	       0	(  1  0 11)	  0  1
     80.9133	        	        	        	        	       0	(  0  0 12)	  0  1
     81.0023	        	        	        	        	       0	(  2  1  0)	  0  1
     81.3421	        	        	        	        	       0	(  2  1  1)	  0  1
     81.7406	        	        	        	        	       0	(  2  0  8)	  0  1
     82.3598	        	        	        	        	       0	(  2  1  2)	  0  1
     84.0509	        	        	        	        	       0	(  2  1  3)	  0  1
     86.4102	        	        	        	        	       0	(  2  1  4)	  0  1
     86.9367	        	        	        	        	       0	(  1  1 10)	  0  1
     87.4777	        	        	        	        	       0	(  2  0  9)	  0  1
     87.8722	        	        	        	        	       0	(  1  0 12)	  0  1
     89.4355	        	        	        	        	       0	(  2  1  5)	  0  1
     93.1323	        	        	        	        	       0	(  2  1  6)	  0  1
     93.8639	        	        	        	        	       0	(  2  0 10)	  0  1
     94.8896	        	        	        	        	       0	(  3  0  0)	  0  1
     95.2269	        	        	        	        	       0	(  3  0  1)	  0  1
     96.2400	        	        	        	        	       0	(  3  0  2)	  0  1
     96.2837	        	        	        	        	       0	(  1  0 13)	  0  1
     97.5201	        	        	        	        	       0	(  2  1  7)	  0  1
     97.9330	        	        	        	        	       0	(  3  0  3)	  0  1
     98.4492	        	        	        	        	       0	(  0  0 14)	  0  1
    100.3155	        	        	        	        	       0	(  3  0  4)	  0  1
    100.9844	        	        	        	        	       0	(  2  0 11)	  0  1
    101.8041	        	        	        	        	       0	(  1  1 12)	  0  1
    102.6415	        	        	        	        	       0	(  2  1  8)	  0  1
    103.4065	        	        	        	        	       0	(  3  0  5)	  0  1
    105.5343	        	        	        	        	       0	(  1  0 14)	  0  1
    107.2408	        	        	        	        	       0	(  3  0  6)	  0  1
    108.5770	        	        	        	        	       0	(  2  1  9)	  0  1
    108.9937	        	        	        	        	       0	(  2  0 12)	  0  1
    111.8800	        	        	        	        	       0	(  3  0  7)	  0  1
    115.4721	        	        	        	        	       0	(  2  1 10)	  0  1
    115.9749	        	        	        	        	       0	(  1  0 15)	  0  1
    116.6114	        	        	        	        	       0	(  2  2  0)	  0  1
    117.4319	        	        	        	        	       0	(  3  0  8)	  0  1
    118.1262	        	        	        	        	       0	(  2  2  2)	  0  1
    118.1756	        	        	        	        	       0	(  2  0 13)	  0  1
    119.9319	        	        	        	        	       0	(  0  0 16)	  0  1
    120.6433	        	        	        	        	       0	(  1  1 14)	  0  1
    122.8103	        	        	        	        	       0	(  2  2  4)	  0  1
    123.5966	        	        	        	        	       0	(  2  1 11)	  0  1
    124.0898	        	        	        	        	       0	(  3  0  9)	  0  1
    124.6749	        	        	        	        	       0	(  3  1  0)	  0  1
    125.0850	        	        	        	        	       0	(  3  1  1)	  0  1
    126.3280	        	        	        	        	       0	(  3  1  2)	  0  1
    128.3143	        	        	        	        	       0	(  1  0 16)	  0  1
    128.4455	        	        	        	        	       0	(  3  1  3)	  0  1
    129.1019	        	        	        	        	       0	(  2  0 14)	  0  1
    131.2472	        	        	        	        	       0	(  2  2  6)	  0  1
    131.5203	        	        	        	        	       0	(  3  1  4)	  0  1
    132.2276	        	        	        	        	       0	(  3  0 10)	  0  1
    133.5054	        	        	        	        	       0	(  2  1 12)	  0  1
    135.7056	        	        	        	        	       0	(  3  1  5)	  0  1
    141.2983	        	        	        	        	       0	(  3  1  6)	  0  1
    142.7017	        	        	        	        	       0	(  3  0 11)	  0  1
    143.2364	        	        	        	        	       0	(  2  0 15)	  0  1
    144.4782	        	        	        	        	       0	(  1  0 17)	  0  1
    145.4745	        	        	        	        	       0	(  2  2  8)	  0  1
    146.6553	        	        	        	        	       0	(  2  1 13)	  0  1
    148.9669	        	        	        	        	       0	(  3  1  7)	  0  1
    149.5686	        	        	        	        	       0	(  1  1 16)	  0  1
    153.9719	        	        	        	        	       0	(  0  0 18)	  0  1
    158.5699	        	        	        	        	       0	(  3  0 12)	  0  1
    158.8131	        	        	        	        	       0	(  4  0  0)	  0  1
    159.7686	        	        	        	        	       0	(  4  0  1)	  0  1
    160.9487	        	        	        	        	       0	(  3  1  8)	  0  1
    162.9418	        	        	        	        	       0	(  4  0  2)	  0  1
    169.6661	        	        	        	        	       0	(  2  0 16)	  0  1
    170.2629	        	        	        	        	       0	(  4  0  3)	  0  1
    174.0730	        	        	        	        	       0	(  2  1 14)	  0  1
