MSG Master    CELL:    5.89191   5.89191  23.15695   90.0000   90.0000  120.0000   SPGR: P 63/m m c             TEMP:    668.75
  2   1280     2.52000     0.00000    -0.09756     0.00000     0.00000    0
    96    96     0     0     2
       0.00000      10.00000
     125.00000     130.00000
 2Theta	Yobs	Ycal	Yobs-Ycal	Backg	Posr	(hkl)	K
      0.7700	    0.00	  703.29	-1864.38	  582.27
      0.8700	    0.00	  702.77	-1864.38	  581.74
      0.9700	   44.00	  702.25	-1864.38	  581.22
      1.0700	   43.00	  701.72	-1864.38	  580.70
      1.1700	   40.00	  701.20	-1864.38	  580.17
      1.2700	   43.00	  700.67	-1864.38	  579.64
      1.3700	   36.00	  700.14	-1864.38	  579.11
      1.4700	  102.00	  699.61	-1864.38	  578.58
      1.5700	  281.00	  699.08	-1864.38	  578.05
      1.6700	  478.00	  698.54	-1864.38	  577.52
      1.7700	  591.00	  698.01	-1864.38	  576.98
      1.8700	  654.00	  697.47	-1864.38	  576.44
      1.9700	  777.00	  696.93	-1864.38	  575.90
      2.0700	  784.00	  696.39	-1864.38	  575.37
      2.1700	  790.00	  695.85	-1864.38	  574.82
      2.2700	  761.00	  695.31	-1864.38	  574.28
      2.3700	  753.00	  694.77	-1864.38	  573.74
      2.4700	  729.00	  694.22	-1864.38	  573.19
      2.5700	  747.00	  693.68	-1864.38	  572.65
      2.6700	  681.00	  693.13	-1864.38	  572.10
      2.7700	  668.00	  692.58	-1864.38	  571.55
      2.8700	  697.00	  692.03	-1864.38	  571.00
      2.9700	  590.00	  691.48	-1864.38	  570.45
      3.0700	  628.00	  690.93	-1864.38	  569.90
      3.1700	  608.00	  690.38	-1864.38	  569.35
      3.2700	  695.00	  689.82	-1864.38	  568.79
      3.3700	  855.00	  689.27	-1864.38	  568.24
      3.4700	 1031.00	  688.71	-1864.38	  567.68
      3.5700	 1097.00	  688.15	-1864.38	  567.13
      3.6700	 1328.00	  687.60	-1864.38	  566.57
      3.7700	 1364.00	  687.04	-1864.38	  566.01
      3.8700	 1422.00	  686.48	-1864.38	  565.45
      3.9700	 1444.00	  685.92	-1864.38	  564.89
      4.0700	 1613.00	  685.36	-1864.38	  564.33
      4.1700	 1530.00	  684.79	-1864.38	  563.77
      4.2700	 1618.00	  684.23	-1864.38	  563.20
      4.3700	 1610.00	  683.67	-1864.38	  562.64
      4.4700	 1496.00	  683.10	-1864.38	  562.07
      4.5700	 1513.00	  682.54	-1864.38	  561.51
      4.6700	 1400.00	  681.97	-1864.38	  560.94
      4.7700	 1323.00	  681.40	-1864.38	  560.38
      4.8700	 1377.00	  680.84	-1864.38	  559.81
      4.9700	 1303.00	  680.27	-1864.38	  559.24
      5.0700	 1246.00	  679.70	-1864.38	  558.67
      5.1700	 1233.00	  679.13	-1864.38	  558.10
      5.2700	 1144.00	  678.56	-1864.38	  557.53
      5.3700	 1191.00	  677.99	-1864.38	  556.96
      5.4700	 1083.00	  677.42	-1864.38	  556.39
      5.5700	 1016.00	  676.85	-1864.38	  555.82
      5.6700	 1069.00	  676.28	-1864.38	  555.25
      5.7700	 1088.00	  675.70	-1864.38	  554.68
      5.8700	  997.00	  675.13	-1864.38	  554.10
      5.9700	  956.00	  674.56	-1864.38	  553.53
      6.0700	 1015.00	  673.98	-1864.38	  552.96
      6.1700	  942.00	  673.41	-1864.38	  552.38
      6.2700	  998.00	  672.84	-1864.38	  551.81
      6.3700	  933.00	  672.26	-1864.38	  551.23
      6.4700	  920.00	  671.69	-1864.38	  550.66
      6.5700	  922.00	  671.11	-1864.38	  550.08
      6.6700	  936.00	  670.53	-1864.38	  549.51
      6.7700	  903.00	  669.96	-1864.38	  548.93
      6.8700	  901.00	  669.38	-1864.38	  548.35
      6.9700	  800.00	  668.81	-1864.38	  547.78
      7.0700	  827.00	  668.23	-1864.38	  547.20
      7.1700	  852.00	  667.65	-1864.38	  546.62
      7.2700	  799.00	  667.07	-1864.38	  546.05
      7.3700	  799.00	  666.50	-1864.38	  545.47
      7.4700	  828.00	  665.92	-1864.38	  544.89
      7.5700	  783.00	  665.34	-1864.38	  544.31
      7.6700	  773.00	  664.77	-1864.38	  543.74
      7.7700	  792.00	  664.19	-1864.38	  543.16
      7.8700	  730.00	  663.61	-1864.38	  542.58
      7.9700	  728.00	  663.03	-1864.38	  542.00
      8.0700	  749.00	  662.46	-1864.38	  541.43
      8.1700	  744.00	  661.88	-1864.38	  540.85
      8.2700	  773.00	  661.30	-1864.38	  540.27
      8.3700	  779.00	  660.72	-1864.38	  539.69
      8.4700	  730.00	  660.15	-1864.38	  539.12
      8.5700	  696.00	  659.57	-1864.38	  538.54
      8.6700	  735.00	  658.99	-1864.38	  537.96
      8.7700	  760.00	  658.41	-1864.38	  537.39
      8.8700	  700.00	  657.84	-1864.38	  536.81
      8.9700	  708.00	  657.26	-1864.38	  536.23
      9.0700	  671.00	  656.68	-1864.38	  535.66
      9.1700	  741.00	  656.11	-1864.38	  535.08
      9.2700	  738.00	  655.53	-1864.38	  534.50
      9.3700	  683.00	  654.95	-1864.38	  533.93
      9.4700	  748.00	  654.38	-1864.38	  533.35
      9.5700	  695.00	  653.80	-1864.38	  532.78
      9.6700	  663.00	  653.23	-1864.38	  532.20
      9.7700	  682.00	  652.65	-1864.38	  531.63
      9.8700	  681.00	  652.08	-1864.38	  531.05
      9.9700	  654.00	  651.50	-1864.38	  530.48
     10.0700	  661.00	  653.18	-1856.56	  529.90
     10.1700	  647.00	  652.86	-1870.24	  529.33
     10.2700	  627.00	  652.60	-1889.97	  528.76
     10.3700	  686.00	  652.40	-1830.78	  528.18
     10.4700	  589.00	  652.31	-1927.69	  527.61
     10.5700	  645.00	  652.38	-1871.76	  527.04
     10.6700	  732.00	  652.67	-1785.05	  526.47
     10.7700	  682.00	  653.29	-1835.67	  525.90
     10.8700	  670.00	  654.33	-1848.70	  525.33
     10.9700	  673.00	  655.86	-1847.24	  524.76
     11.0700	  693.00	  657.93	-1829.31	  524.19
     11.1700	  692.00	  660.55	-1832.93	  523.62
     11.2700	  671.00	  663.74	-1857.12	  523.05
     11.3700	  666.00	  667.57	-1865.95	  522.48
     11.4700	  687.00	  672.17	-1849.55	  521.91
     11.5700	  694.00	  677.71	-1848.09	  521.35
     11.6700	  717.00	  684.47	-1831.85	  520.78
     11.7700	  730.00	  692.78	-1827.16	  520.22
     11.8700	  727.00	  702.89	-1840.27	  519.65
     11.9700	  762.00	  714.69	-1817.07	  519.09
     12.0700	  802.00	  727.20	-1789.58	  518.52
     12.1700	  799.00	  737.94	-1803.31	  517.96
     12.2700	  758.00	  742.50	-1848.88	  517.40
     12.3700	  790.00	  735.97	-1810.35	  516.84
     12.4700	  732.00	  718.38	-1850.76	  516.28
     12.5700	  682.00	  696.88	-1879.26	  515.72
     12.6700	  676.00	  678.13	-1866.51	  515.16
     12.7700	  628.00	  664.31	-1900.69	  514.60
     12.8700	  629.00	  654.95	-1890.33	  514.04
     12.9700	  622.00	  648.86	-1891.24	  513.48
     13.0700	  611.00	  644.85	-1898.23	  512.93
     13.1700	  601.00	  642.06	-1905.44	  512.37
     13.2700	  623.00	  639.96	-1881.33	  511.82
     13.3700	  691.00	  638.27	-1811.65	  511.26
     13.4700	  652.00	  636.84	-1849.22	  510.71
     13.5700	  608.00	  635.60	-1891.98	  510.16
     13.6700	  629.00	  634.50	-1869.88	  509.61
     13.7700	  609.00	  633.49	-1888.87	  509.06
     13.8700	  647.00	  632.57	-1849.95	  508.51
     13.9700	  620.00	  631.71	-1876.09	  507.96
     14.0700	  638.00	  630.90	-1857.27	  507.41
     14.1700	  638.00	  630.12	-1856.50	  506.87
     14.2700	  639.00	  629.38	-1854.76	  506.32
     14.3700	  657.00	  628.67	-1836.05	  505.78
     14.4700	  607.00	  627.98	-1885.36	  505.23
     14.5700	  631.00	  627.31	-1860.69	  504.69
     14.6700	  618.00	  626.65	-1873.03	  504.15
     14.7700	  606.00	  626.01	-1884.39	  503.61
     14.8700	  585.00	  625.39	-1904.76	  503.07
     14.9700	  574.00	  624.77	-1915.15	  502.53
     15.0700	  647.00	  624.16	-1841.54	  501.99
     15.1700	  596.00	  623.56	-1891.94	  501.46
     15.2700	  594.00	  622.97	-1893.34	  500.92
     15.3700	  602.00	  622.38	-1884.76	  500.39
     15.4700	  603.00	  621.80	-1883.18	  499.85
     15.5700	  610.00	  621.22	-1875.60	  499.32
     15.6700	  589.00	  620.65	-1896.03	  498.79
     15.7700	  612.00	  620.09	-1872.46	  498.26
     15.8700	  575.00	  619.52	-1908.90	  497.73
     15.9700	  584.00	  618.97	-1899.34	  497.20
     16.0700	  618.00	  618.41	-1864.79	  496.68
     16.1700	  606.00	  617.86	-1876.24	  496.15
     16.2700	  677.00	  617.31	-1804.69	  495.63
     16.3700	  581.00	  616.77	-1900.15	  495.11
     16.4700	  644.00	  616.23	-1836.61	  494.58
     16.5700	  576.00	  615.69	-1904.07	  494.06
     16.6700	  616.00	  615.15	-1863.53	  493.54
     16.7700	  611.00	  614.62	-1868.00	  493.03
     16.8700	  621.00	  614.09	-1857.46	  492.51
     16.9700	  592.00	  613.56	-1885.94	  491.99
     17.0700	  604.00	  613.03	-1873.41	  491.48
     17.1700	  582.00	  612.51	-1894.88	  490.97
     17.2700	  594.00	  611.98	-1882.36	  490.46
     17.3700	  608.00	  611.46	-1867.84	  489.94
     17.4700	  636.00	  610.94	-1839.32	  489.44
     17.5700	  593.00	  610.43	-1881.81	  488.93
     17.6700	  596.00	  609.91	-1878.29	  488.42
     17.7700	  605.00	  609.40	-1868.78	  487.92
     17.8700	  613.00	  608.89	-1860.27	  487.41
     17.9700	  595.00	  608.38	-1877.76	  486.91
     18.0700	  622.00	  607.88	-1850.25	  486.41
     18.1700	  587.00	  607.37	-1884.75	  485.91
     18.2700	  604.00	  606.87	-1867.25	  485.41
     18.3700	  609.00	  607.35	-1862.73	  484.91
     18.4700	  560.00	  607.47	-1911.85	  484.42
     18.5700	  599.00	  607.01	-1872.39	  483.92
     18.6700	  609.00	  606.55	-1861.92	  483.43
     18.7700	  586.00	  606.09	-1884.46	  482.94
     18.8700	  631.00	  605.63	-1839.01	  482.45
     18.9700	  599.00	  605.18	-1870.55	  481.96
     19.0700	  595.00	  604.73	-1874.10	  481.47
     19.1700	  633.00	  604.28	-1835.66	  480.99
     19.2700	  567.00	  603.83	-1901.21	  480.50
     19.3700	  573.00	  603.39	-1894.77	  480.02
     19.4700	  619.00	  602.96	-1848.33	  479.54
     19.5700	  594.00	  602.52	-1872.90	  479.06
     19.6700	  561.00	  602.09	-1905.47	  478.58
     19.7700	  570.00	  601.72	-1896.10	  478.11
     19.8700	  594.00	  601.30	-1871.68	  477.63
     19.9700	  614.00	  600.88	-1851.26	  477.16
     20.0700	  581.00	  600.46	-1883.84	  476.68
     20.1700	  557.00	  600.05	-1907.43	  476.21
     20.2700	  590.00	  599.65	-1874.02	  475.74
     20.3700	  544.00	  599.24	-1919.62	  475.28
     20.4700	  603.00	  598.84	-1860.22	  474.81
     20.5700	  619.00	  598.45	-1843.83	  474.34
     20.6700	  550.00	  598.06	-1912.44	  473.88
     20.7700	  608.00	  597.68	-1854.06	  473.42
     20.8700	  592.00	  597.30	-1869.68	  472.96
     20.9700	  552.00	  596.93	-1909.30	  472.50
     21.0700	  543.00	  596.56	-1917.94	  472.04
     21.1700	  592.00	  596.20	-1868.57	  471.59
     21.2700	  592.00	  595.84	-1868.22	  471.13
     21.3700	  601.00	  595.49	-1858.87	  470.68
     21.4700	  589.00	  595.15	-1870.53	  470.23
     21.5700	  572.00	  594.82	-1887.19	  469.78
     21.6700	  590.00	  594.49	-1868.87	  469.34
     21.7700	  579.00	  594.17	-1879.55	  468.89
     21.8700	  599.00	  593.86	-1859.24	  468.45
     21.9700	  609.00	  593.56	-1848.94	  468.00
     22.0700	  593.00	  593.45	-1864.83	  467.56
     22.1700	  631.00	  593.18	-1826.56	  467.12
     22.2700	  600.00	  592.92	-1857.29	  466.68
     22.3700	  592.00	  592.67	-1865.04	  466.25
     22.4700	  633.00	  592.43	-1823.81	  465.81
     22.5700	  619.00	  592.21	-1837.59	  465.38
     22.6700	  643.00	  592.01	-1813.39	  464.95
     22.7700	  622.00	  591.83	-1834.21	  464.52
     22.8700	  570.00	  591.67	-1886.05	  464.09
     22.9700	  623.00	  591.54	-1832.92	  463.67
     23.0700	  572.00	  591.44	-1883.81	  463.24
     23.1700	  610.00	  591.37	-1845.75	  462.82
     23.2700	  628.00	  591.34	-1827.72	  462.40
     23.3700	  591.00	  591.37	-1864.74	  461.98
     23.4700	  592.00	  591.45	-1863.83	  461.56
     23.5700	  608.00	  591.61	-1847.99	  461.15
     23.6700	  618.00	  591.86	-1838.24	  460.73
     23.7700	  558.00	  592.26	-1898.64	  460.32
     23.8700	  585.00	  592.85	-1872.22	  459.91
     23.9700	  625.00	  593.74	-1833.11	  459.50
     24.0700	  603.00	  595.09	-1856.46	  459.09
     24.1700	  602.00	  597.10	-1859.48	  458.68
     24.2700	  648.00	  600.27	-1816.65	  458.28
     24.3700	  611.00	  604.98	-1858.36	  457.88
     24.4700	  627.00	  611.61	-1848.98	  457.48
     24.5700	  617.00	  620.27	-1867.65	  457.08
     24.6700	  684.00	  630.58	-1810.96	  456.68
     24.7700	  711.00	  641.27	-1794.64	  456.29
     24.8700	  700.00	  649.86	-1814.24	  455.89
     24.9700	  674.00	  652.75	-1843.13	  455.50
     25.0700	  704.00	  647.48	-1807.86	  455.11
     25.1700	  670.00	  636.35	-1830.73	  454.72
     25.2700	  625.00	  624.35	-1863.73	  454.34
     25.3700	  623.00	  614.61	-1855.99	  453.95
     25.4700	  569.00	  607.89	-1903.27	  453.57
     25.5700	  658.00	  603.79	-1810.17	  453.19
     25.6700	  617.00	  601.63	-1849.01	  452.81
     25.7700	  586.00	  600.75	-1879.12	  452.43
     25.8700	  587.00	  600.69	-1878.07	  452.05
     25.9700	  654.00	  601.20	-1811.58	  451.68
     26.0700	  646.00	  602.16	-1820.53	  451.30
     26.1700	  621.00	  603.51	-1846.89	  450.93
     26.2700	  633.00	  605.27	-1836.65	  450.57
     26.3700	  623.00	  607.46	-1848.84	  450.20
     26.4700	  644.00	  610.13	-1830.51	  449.83
     26.5700	  635.00	  613.37	-1842.75	  449.47
     26.6700	  625.00	  617.28	-1856.66	  449.11
     26.7700	  581.00	  622.00	-1905.38	  448.75
     26.8700	  650.00	  627.74	-1842.12	  448.39
     26.9700	  653.00	  634.75	-1846.13	  448.03
     27.0700	  696.00	  643.42	-1811.80	  447.68
     27.1700	  709.00	  654.27	-1809.65	  447.32
     27.2700	  664.00	  668.17	-1868.54	  446.97
     27.3700	  722.00	  686.59	-1828.97	  446.62
     27.4700	  706.00	  712.52	-1870.89	  446.28
     27.5700	  741.00	  751.98	-1875.36	  445.93
     27.6700	  722.00	  816.73	-1959.10	  445.59
     27.7700	  794.00	  927.38	-1997.75	  445.24
     27.8700	  900.00	 1115.21	-2079.59	  444.90
     27.9700	 1160.00	 1417.44	-2121.82	  444.56
     28.0700	 1551.00	 1859.89	-2173.27	  444.23
     28.1700	 2300.00	 2427.27	-1991.65	  443.89
     28.2700	 3288.00	 3026.51	-1602.89	  443.56
     28.3700	 3935.00	 3464.83	-1394.21	  443.23
     28.4700	 3917.00	 3504.63	-1452.00	  442.90
     28.5700	 3363.00	 3113.21	-1614.59	  442.57
     28.6700	 2468.00	 2601.52	-1997.90	  442.24
     28.7700	 1905.00	 2264.61	-2223.99	  441.92
     28.8700	 1971.00	 2182.13	-2075.51	  441.60
     28.9700	 2327.00	 2275.25	-1812.63	  441.28
     29.0700	 2490.00	 2376.75	-1751.13	  440.96
     29.1700	 2424.00	 2305.15	-1745.53	  440.64
     29.2700	 2095.00	 2003.74	-1773.11	  440.33
     29.3700	 1636.00	 1606.23	-1834.61	  440.01
     29.4700	 1254.00	 1257.42	-1867.79	  439.70
     29.5700	  962.00	 1010.16	-1912.54	  439.39
     29.6700	  911.00	  857.43	-1810.81	  439.08
     29.7700	  746.00	  770.34	-1888.72	  438.78
     29.8700	  777.00	  720.91	-1808.29	  438.47
     29.9700	  701.00	  690.83	-1854.21	  438.17
     30.0700	  688.00	  670.71	-1847.09	  437.87
     30.1700	  680.00	  656.43	-1840.81	  437.57
     30.2700	  704.00	  646.34	-1806.72	  437.27
     30.3700	  630.00	  640.03	-1874.41	  436.98
     30.4700	  717.00	  637.89	-1785.27	  436.68
     30.5700	  708.00	  641.04	-1797.42	  436.39
     30.6700	  650.00	  650.99	-1865.36	  436.10
     30.7700	  678.00	  668.66	-1855.04	  435.81
     30.8700	  696.00	  692.95	-1861.33	  435.53
     30.9700	  748.00	  719.23	-1835.61	  435.24
     31.0700	  730.00	  738.65	-1873.02	  434.96
     31.1700	  735.00	  739.84	-1869.22	  434.68
     31.2700	  698.00	  718.09	-1884.47	  434.40
     31.3700	  685.00	  683.51	-1862.89	  434.12
     31.4700	  622.00	  649.90	-1892.28	  433.85
     31.5700	  638.00	  623.92	-1850.30	  433.57
     31.6700	  640.00	  606.40	-1830.78	  433.30
     31.7700	  635.00	  595.54	-1824.91	  433.03
     31.8700	  631.00	  588.98	-1822.36	  432.76
     31.9700	  623.00	  584.88	-1826.26	  432.50
     32.0700	  596.00	  582.12	-1850.49	  432.23
     32.1700	  604.00	  580.12	-1840.50	  431.97
     32.2700	  608.00	  578.65	-1835.03	  431.71
     32.3700	  604.00	  577.58	-1837.95	  431.45
     32.4700	  636.00	  576.85	-1805.23	  431.19
     32.5700	  579.00	  576.45	-1861.83	  430.93
     32.6700	  627.00	  576.42	-1813.79	  430.68
     32.7700	  591.00	  576.70	-1850.08	  430.43
     32.8700	  632.00	  577.39	-1809.77	  430.18
     32.9700	  629.00	  578.56	-1813.93	  429.93
     33.0700	  611.00	  580.34	-1833.72	  429.68
     33.1700	  588.00	  582.98	-1859.36	  429.43
     33.2700	  592.00	  586.91	-1859.29	  429.19
     33.3700	  570.00	  592.99	-1887.37	  428.95
     33.4700	  666.00	  602.86	-1801.24	  428.71
     33.5700	  636.00	  619.34	-1847.72	  428.47
     33.6700	  642.00	  646.73	-1869.11	  428.23
     33.7700	  626.00	  690.29	-1928.66	  428.00
     33.8700	  759.00	  754.09	-1859.47	  427.77
     33.9700	  875.00	  837.06	-1826.44	  427.53
     34.0700	  959.00	  928.47	-1833.84	  427.30
     34.1700	 1109.00	 1005.36	-1760.74	  427.08
     34.2700	 1112.00	 1035.82	-1788.20	  426.85
     34.3700	 1126.00	  998.74	-1737.12	  426.63
     34.4700	  957.00	  911.24	-1818.62	  426.40
     34.5700	  818.00	  812.60	-1858.98	  426.18
     34.6700	  734.00	  728.94	-1859.32	  425.96
     34.7700	  650.00	  668.30	-1882.68	  425.74
     34.8700	  613.00	  628.83	-1880.21	  425.53
     34.9700	  600.00	  604.85	-1869.23	  425.31
     35.0700	  622.00	  590.54	-1832.91	  425.10
     35.1700	  629.00	  581.65	-1817.03	  424.89
     35.2700	  603.00	  575.67	-1837.05	  424.68
     35.3700	  585.00	  571.32	-1850.70	  424.47
     35.4700	  568.00	  567.96	-1864.34	  424.27
     35.5700	  547.00	  565.27	-1882.65	  424.06
     35.6700	  581.00	  563.08	-1846.45	  423.86
     35.7700	  551.00	  561.26	-1874.63	  423.66
     35.8700	  569.00	  559.73	-1855.11	  423.46
     35.9700	  597.00	  558.44	-1825.82	  423.27
     36.0700	  531.00	  557.35	-1890.73	  423.07
     36.1700	  532.00	  556.42	-1888.80	  422.88
     36.2700	  516.00	  555.63	-1904.01	  422.68
     36.3700	  555.00	  555.47	-1864.85	  422.49
     36.4700	  524.00	  554.93	-1895.31	  422.30
     36.5700	  517.00	  554.50	-1901.88	  422.12
     36.6700	  546.00	  554.19	-1872.57	  421.93
     36.7700	  545.00	  554.00	-1873.38	  421.75
     36.8700	  549.00	  554.15	-1869.53	  421.56
     36.9700	  573.00	  554.28	-1845.66	  421.38
     37.0700	  531.00	  554.65	-1888.03	  421.20
     37.1700	  563.00	  555.35	-1856.73	  421.03
     37.2700	  541.00	  556.61	-1879.99	  420.85
     37.3700	  506.00	  558.71	-1917.08	  420.68
     37.4700	  527.00	  562.07	-1899.44	  420.50
     37.5700	  575.00	  567.27	-1856.64	  420.33
     37.6700	  572.00	  574.96	-1867.33	  420.16
     37.7700	  578.00	  585.63	-1872.01	  420.00
     37.8700	  602.00	  599.22	-1861.60	  419.83
     37.9700	  643.00	  614.68	-1836.06	  419.67
     38.0700	  633.00	  629.80	-1861.18	  419.50
     38.1700	  649.00	  641.16	-1856.54	  419.34
     38.2700	  663.00	  644.23	-1845.61	  419.18
     38.3700	  638.00	  636.08	-1862.45	  419.02
     38.4700	  564.00	  619.42	-1919.79	  418.87
     38.5700	  613.00	  600.49	-1851.87	  418.71
     38.6700	  667.00	  582.93	-1780.31	  418.56
     38.7700	  593.00	  570.23	-1841.60	  418.41
     38.8700	  569.00	  561.44	-1856.82	  418.25
     38.9700	  544.00	  555.76	-1876.14	  418.11
     39.0700	  576.00	  552.20	-1840.58	  417.96
     39.1700	  537.00	  549.93	-1877.31	  417.81
     39.2700	  543.00	  548.40	-1869.78	  417.67
     39.3700	  545.00	  547.29	-1866.67	  417.53
     39.4700	  555.00	  546.42	-1855.80	  417.38
     39.5700	  539.00	  545.73	-1871.10	  417.24
     39.6700	  555.00	  545.15	-1854.53	  417.11
     39.7700	  559.00	  544.66	-1850.04	  416.97
     39.8700	  550.00	  544.25	-1858.63	  416.83
     39.9700	  561.00	  543.32	-1846.70	  416.70
     40.0700	  530.00	  543.03	-1877.40	  416.57
     40.1700	  538.00	  542.78	-1869.15	  416.44
     40.2700	  515.00	  542.57	-1891.94	  416.31
     40.3700	  551.00	  542.94	-1856.32	  416.18
     40.4700	  476.00	  542.80	-1931.18	  416.05
     40.5700	  574.00	  542.70	-1833.08	  415.93
     40.6700	  528.00	  542.63	-1879.00	  415.81
     40.7700	  496.00	  542.58	-1910.96	  415.68
     40.8700	  528.00	  542.58	-1878.96	  415.56
     40.9700	  505.00	  542.61	-1901.98	  415.44
     41.0700	  514.00	  542.68	-1893.06	  415.33
     41.1700	  512.00	  542.79	-1895.17	  415.21
     41.2700	  535.00	  543.02	-1872.40	  415.09
     41.3700	  492.00	  543.26	-1915.64	  414.98
     41.4700	  556.00	  543.58	-1851.96	  414.87
     41.5700	  531.00	  543.99	-1877.37	  414.76
     41.6700	  574.00	  544.54	-1834.92	  414.65
     41.7700	  533.00	  545.28	-1876.66	  414.54
     41.8700	  541.00	  546.29	-1869.67	  414.44
     41.9700	  544.00	  547.76	-1868.14	  414.33
     42.0700	  542.00	  550.00	-1872.38	  414.23
     42.1700	  565.00	  553.56	-1852.94	  414.12
     42.2700	  547.00	  559.22	-1876.60	  414.02
     42.3700	  554.00	  567.99	-1878.37	  413.92
     42.4700	  577.00	  580.80	-1868.18	  413.83
     42.5700	  583.00	  598.03	-1879.41	  413.73
     42.6700	  595.00	  618.74	-1888.12	  413.63
     42.7700	  613.00	  640.24	-1891.62	  413.54
     42.8700	  641.00	  656.75	-1880.13	  413.45
     42.9700	  656.00	  661.99	-1870.37	  413.35
     43.0700	  610.00	  653.07	-1907.44	  413.26
     43.1700	  590.00	  633.97	-1908.35	  413.17
     43.2700	  515.00	  611.80	-1961.17	  413.09
     43.3700	  580.00	  591.83	-1876.20	  413.00
     43.4700	  550.00	  575.83	-1890.21	  412.92
     43.5700	  553.00	  564.35	-1875.73	  412.83
     43.6700	  560.00	  556.69	-1861.07	  412.75
     43.7700	  548.00	  551.83	-1868.21	  412.67
     43.8700	  532.00	  548.79	-1881.16	  412.59
     43.9700	  559.00	  546.84	-1852.22	  412.51
     44.0700	  553.00	  545.53	-1856.90	  412.43
     44.1700	  549.00	  544.59	-1859.96	  412.36
     44.2700	  554.00	  543.88	-1854.26	  412.28
     44.3700	  557.00	  543.34	-1850.72	  412.21
     44.4700	  528.00	  543.13	-1879.51	  412.13
     44.5700	  525.00	  542.80	-1882.18	  412.06
     44.6700	  545.00	  542.55	-1861.93	  411.99
     44.7700	  536.00	  542.36	-1870.74	  411.92
     44.8700	  535.00	  542.23	-1871.61	  411.86
     44.9700	  540.00	  542.16	-1866.54	  411.79
     45.0700	  575.00	  542.12	-1831.49	  411.72
     45.1700	  569.00	  542.11	-1837.49	  411.66
     45.2700	  604.00	  542.14	-1802.52	  411.60
     45.3700	  548.00	  542.20	-1858.58	  411.54
     45.4700	  562.00	  542.39	-1844.77	  411.47
     45.5700	  583.00	  542.52	-1823.90	  411.41
     45.6700	  552.00	  542.68	-1855.06	  411.36
     45.7700	  594.00	  542.88	-1813.26	  411.30
     45.8700	  578.00	  543.11	-1829.49	  411.24
     45.9700	  568.00	  543.38	-1839.76	  411.19
     46.0700	  542.00	  543.69	-1866.07	  411.13
     46.1700	  547.00	  544.13	-1861.51	  411.08
     46.2700	  546.00	  544.53	-1862.91	  411.03
     46.3700	  549.00	  545.00	-1860.38	  410.98
     46.4700	  515.00	  545.53	-1894.90	  410.93
     46.5700	  562.00	  545.95	-1848.33	  410.88
     46.6700	  560.00	  546.65	-1851.03	  410.83
     46.7700	  574.00	  547.46	-1837.84	  410.79
     46.8700	  564.00	  548.41	-1848.79	  410.74
     46.9700	  532.00	  549.56	-1881.94	  410.70
     47.0700	  523.00	  550.99	-1892.37	  410.65
     47.1700	  495.00	  552.87	-1922.25	  410.61
     47.2700	  566.00	  555.47	-1853.85	  410.57
     47.3700	  572.00	  559.23	-1851.60	  410.53
     47.4700	  594.00	  564.70	-1835.08	  410.49
     47.5700	  571.00	  572.57	-1865.95	  410.45
     47.6700	  581.00	  583.37	-1866.75	  410.42
     47.7700	  585.00	  597.28	-1876.66	  410.38
     47.8700	  600.00	  613.68	-1878.06	  410.34
     47.9700	  608.00	  630.71	-1887.08	  410.31
     48.0700	  663.00	  644.96	-1846.34	  410.28
     48.1700	  583.00	  652.66	-1934.04	  410.24
     48.2700	  689.00	  650.40	-1825.78	  410.21
     48.3700	  611.00	  640.32	-1893.70	  410.18
     48.4700	  580.00	  626.78	-1911.16	  410.15
     48.5700	  627.00	  613.69	-1851.07	  410.12
     48.6700	  543.00	  603.24	-1924.62	  410.10
     48.7700	  610.00	  596.30	-1850.68	  410.07
     48.8700	  621.00	  592.92	-1836.29	  410.04
     48.9700	  575.00	  592.71	-1882.09	  410.02
     49.0700	  610.00	  595.24	-1849.61	  410.00
     49.1700	  535.00	  600.22	-1929.60	  409.97
     49.2700	  601.00	  607.74	-1871.12	  409.95
     49.3700	  609.00	  618.55	-1873.93	  409.93
     49.4700	  602.00	  634.63	-1897.01	  409.91
     49.5700	  624.00	  660.24	-1900.62	  409.89
     49.6700	  685.00	  703.57	-1882.95	  409.87
     49.7700	  796.00	  778.25	-1846.63	  409.85
     49.8700	  811.00	  903.33	-1956.71	  409.83
     49.9700	 1078.00	 1099.47	-1885.85	  409.82
     50.0700	 1308.00	 1379.93	-1936.31	  409.80
     50.1700	 1759.00	 1737.83	-1843.21	  409.79
     50.2700	 2272.00	 2132.46	-1724.84	  409.77
     50.3700	 2695.00	 2481.50	-1650.88	  409.76
     50.4700	 2804.00	 2673.15	-1733.52	  409.75
     50.5700	 2620.00	 2624.77	-1869.15	  409.74
     50.6700	 2373.00	 2356.69	-1848.07	  409.73
     50.7700	 2002.00	 1977.01	-1839.39	  409.72
     50.8700	 1438.00	 1593.44	-2019.82	  409.71
     50.9700	 1158.00	 1271.32	-1977.69	  409.70
     51.0700	  905.00	 1035.33	-1994.71	  409.69
     51.1700	  820.00	  881.33	-1925.70	  409.68
     51.2700	  727.00	  790.04	-1927.42	  409.68
     51.3700	  713.00	  738.54	-1889.92	  409.67
     51.4700	  666.00	  707.70	-1906.07	  409.67
     51.5700	  632.00	  685.38	-1917.76	  409.66
     51.6700	  680.00	  666.28	-1850.66	  409.66
     51.7700	  619.00	  649.38	-1894.76	  409.65
     51.8700	  593.00	  634.92	-1906.30	  409.65
     51.9700	  634.00	  623.21	-1853.59	  409.65
     52.0700	  636.00	  614.30	-1842.68	  409.65
     52.1700	  605.00	  607.99	-1867.37	  409.65
     52.2700	  620.00	  603.95	-1848.32	  409.65
     52.3700	  670.00	  601.87	-1796.25	  409.65
     52.4700	  649.00	  601.58	-1816.96	  409.65
     52.5700	  599.00	  603.13	-1868.51	  409.65
     52.6700	  602.00	  606.89	-1869.26	  409.66
     52.7700	  620.00	  613.67	-1858.05	  409.66
     52.8700	  620.00	  624.96	-1869.34	  409.66
     52.9700	  677.00	  643.03	-1830.41	  409.67
     53.0700	  680.00	  670.93	-1855.31	  409.67
     53.1700	  696.00	  712.11	-1880.49	  409.68
     53.2700	  790.00	  769.64	-1844.02	  409.69
     53.3700	  819.00	  844.95	-1890.33	  409.69
     53.4700	  993.00	  936.00	-1807.38	  409.70
     53.5700	 1055.00	 1035.76	-1845.14	  409.71
     53.6700	 1184.00	 1129.91	-1810.29	  409.72
     53.7700	 1206.00	 1196.96	-1855.33	  409.73
     53.8700	 1293.00	 1215.23	-1786.60	  409.73
     53.9700	 1209.00	 1177.55	-1832.93	  409.74
     54.0700	 1137.00	 1097.81	-1825.19	  409.76
     54.1700	  968.00	  999.60	-1895.98	  409.77
     54.2700	  930.00	  902.35	-1836.73	  409.78
     54.3700	  806.00	  817.44	-1875.82	  409.79
     54.4700	  748.00	  749.70	-1866.07	  409.80
     54.5700	  691.00	  699.51	-1872.89	  409.81
     54.6700	  666.00	  664.69	-1863.07	  409.83
     54.7700	  683.00	  641.83	-1823.21	  409.84
     54.8700	  657.00	  627.55	-1834.93	  409.86
     54.9700	  623.00	  619.04	-1860.42	  409.87
     55.0700	  663.00	  614.30	-1815.68	  409.89
     55.1700	  593.00	  612.09	-1883.47	  409.90
     55.2700	  610.00	  611.67	-1866.05	  409.92
     55.3700	  605.00	  612.70	-1872.08	  409.93
     55.4700	  619.00	  615.04	-1860.42	  409.95
     55.5700	  611.00	  618.71	-1872.08	  409.97
     55.6700	  632.00	  623.84	-1856.22	  409.98
     55.7700	  635.00	  630.76	-1860.14	  410.00
     55.8700	  655.00	  640.08	-1849.46	  410.02
     55.9700	  700.00	  652.94	-1817.32	  410.04
     56.0700	  647.00	  671.47	-1888.85	  410.06
     56.1700	  693.00	  699.41	-1870.78	  410.07
     56.2700	  774.00	  742.82	-1833.20	  410.09
     56.3700	  835.00	  810.50	-1839.88	  410.11
     56.4700	  929.00	  913.76	-1849.14	  410.13
     56.5700	 1021.00	 1064.56	-1907.94	  410.15
     56.6700	 1232.00	 1272.00	-1904.37	  410.17
     56.7700	 1556.00	 1537.32	-1845.70	  410.19
     56.8700	 1834.00	 1848.31	-1878.69	  410.22
     56.9700	 2166.00	 2173.91	-1872.29	  410.24
     57.0700	 2518.00	 2459.86	-1806.24	  410.26
     57.1700	 2697.00	 2634.74	-1802.12	  410.28
     57.2700	 2630.00	 2640.16	-1874.54	  410.30
     57.3700	 2474.00	 2473.99	-1864.37	  410.32
     57.4700	 2164.00	 2192.78	-1893.15	  410.35
     57.5700	 1744.00	 1869.44	-1989.82	  410.37
     57.6700	 1407.00	 1559.67	-2017.05	  410.39
     57.7700	 1197.00	 1295.40	-1962.78	  410.42
     57.8700	 1010.00	 1089.76	-1944.14	  410.44
     57.9700	  948.00	  942.27	-1858.65	  410.46
     58.0700	  835.00	  844.88	-1874.25	  410.49
     58.1700	  755.00	  786.98	-1896.35	  410.51
     58.2700	  771.00	  759.24	-1852.62	  410.53
     58.3700	  752.00	  755.44	-1867.81	  410.56
     58.4700	  745.00	  772.43	-1891.81	  410.58
     58.5700	  848.00	  809.10	-1825.48	  410.61
     58.6700	  830.00	  864.63	-1899.01	  410.63
     58.7700	  927.00	  936.72	-1874.09	  410.66
     58.8700	  993.00	 1019.85	-1891.23	  410.68
     58.9700	 1121.00	 1104.60	-1847.98	  410.70
     59.0700	 1181.00	 1179.41	-1862.79	  410.73
     59.1700	 1202.00	 1236.01	-1898.39	  410.75
     59.2700	 1262.00	 1272.00	-1874.38	  410.78
     59.3700	 1330.00	 1286.41	-1820.79	  410.80
     59.4700	 1230.00	 1277.41	-1911.79	  410.83
     59.5700	 1292.00	 1248.02	-1820.40	  410.86
     59.6700	 1220.00	 1209.55	-1853.93	  410.88
     59.7700	 1126.00	 1176.03	-1914.41	  410.91
     59.8700	 1148.00	 1158.09	-1874.47	  410.93
     59.9700	 1168.00	 1162.42	-1858.79	  410.96
     60.0700	 1257.00	 1193.92	-1801.29	  410.98
     60.1700	 1291.00	 1255.19	-1828.56	  411.01
     60.2700	 1378.00	 1342.76	-1829.14	  411.03
     60.3700	 1435.00	 1443.83	-1873.21	  411.06
     60.4700	 1594.00	 1535.14	-1805.52	  411.08
     60.5700	 1634.00	 1586.47	-1816.85	  411.11
     60.6700	 1477.00	 1572.81	-1960.18	  411.13
     60.7700	 1501.00	 1490.96	-1854.34	  411.16
     60.8700	 1419.00	 1361.61	-1806.99	  411.19
     60.9700	 1269.00	 1213.68	-1809.06	  411.21
     61.0700	 1160.00	 1070.90	-1775.28	  411.24
     61.1700	  942.00	  948.24	-1870.62	  411.26
     61.2700	  864.00	  852.94	-1853.32	  411.29
     61.3700	  789.00	  786.55	-1861.93	  411.31
     61.4700	  772.00	  747.35	-1839.72	  411.34
     61.5700	  795.00	  732.77	-1802.15	  411.36
     61.6700	  820.00	  741.21	-1785.59	  411.39
     61.7700	  830.00	  772.77	-1807.15	  411.41
     61.8700	  828.00	  828.75	-1865.13	  411.43
     61.9700	  939.00	  910.27	-1835.64	  411.46
     62.0700	 1128.00	 1016.14	-1752.52	  411.48
     62.1700	 1181.00	 1140.92	-1824.30	  411.51
     62.2700	 1333.00	 1273.00	-1804.38	  411.53
     62.3700	 1453.00	 1393.43	-1804.81	  411.55
     62.4700	 1472.00	 1477.11	-1869.49	  411.58
     62.5700	 1468.00	 1500.51	-1896.88	  411.60
     62.6700	 1471.00	 1455.49	-1848.87	  411.62
     62.7700	 1304.00	 1355.71	-1916.09	  411.65
     62.8700	 1143.00	 1226.55	-1947.93	  411.67
     62.9700	 1065.00	 1091.70	-1891.08	  411.69
     63.0700	  932.00	  967.78	-1900.16	  411.72
     63.1700	  818.00	  863.98	-1910.36	  411.74
     63.2700	  703.00	  783.61	-1944.99	  411.76
     63.3700	  681.00	  725.68	-1909.06	  411.78
     63.4700	  656.00	  686.67	-1895.05	  411.80
     63.5700	  626.00	  662.30	-1900.68	  411.82
     63.6700	  661.00	  648.63	-1852.01	  411.85
     63.7700	  632.00	  642.95	-1875.33	  411.87
     63.8700	  618.00	  643.79	-1890.17	  411.89
     63.9700	  659.00	  651.02	-1856.40	  411.91
     64.0700	  713.00	  665.61	-1816.99	  411.93
     64.1700	  661.00	  689.35	-1892.72	  411.95
     64.2700	  724.00	  724.40	-1864.78	  411.97
     64.3700	  806.00	  772.81	-1831.19	  411.99
     64.4700	  875.00	  835.65	-1825.03	  412.00
     64.5700	  958.00	  912.27	-1818.65	  412.02
     64.6700	 1019.00	  999.27	-1844.65	  412.04
     64.7700	 1096.00	 1089.15	-1857.53	  412.06
     64.8700	 1275.00	 1172.19	-1761.57	  412.08
     64.9700	 1208.00	 1234.45	-1890.82	  412.09
     65.0700	 1259.00	 1264.82	-1870.20	  412.11
     65.1700	 1257.00	 1258.05	-1865.43	  412.13
     65.2700	 1161.00	 1216.41	-1919.79	  412.14
     65.3700	 1154.00	 1149.18	-1859.56	  412.16
     65.4700	 1016.00	 1069.21	-1917.59	  412.17
     65.5700	  943.00	  987.60	-1908.98	  412.19
     65.6700	  908.00	  912.17	-1868.55	  412.20
     65.7700	  823.00	  846.63	-1888.01	  412.22
     65.8700	  772.00	  791.97	-1884.35	  412.23
     65.9700	  738.00	  747.86	-1874.24	  412.24
     66.0700	  751.00	  713.36	-1826.74	  412.26
     66.1700	  651.00	  687.21	-1900.59	  412.27
     66.2700	  686.00	  668.03	-1846.41	  412.28
     66.3700	  657.00	  654.29	-1861.67	  412.29
     66.4700	  645.00	  644.92	-1864.30	  412.30
     66.5700	  599.00	  639.05	-1904.43	  412.32
     66.6700	  632.00	  636.25	-1868.63	  412.33
     66.7700	  631.00	  636.05	-1869.43	  412.34
     66.8700	  683.00	  638.32	-1819.70	  412.35
     66.9700	  618.00	  643.37	-1889.75	  412.35
     67.0700	  622.00	  651.88	-1894.25	  412.36
     67.1700	  627.00	  665.19	-1902.57	  412.37
     67.2700	  654.00	  685.59	-1895.97	  412.38
     67.3700	  724.00	  716.57	-1856.95	  412.39
     67.4700	  733.00	  762.97	-1894.35	  412.39
     67.5700	  828.00	  830.85	-1867.23	  412.40
     67.6700	  893.00	  926.92	-1898.30	  412.40
     67.7700	 1077.00	 1057.35	-1844.73	  412.41
     67.8700	 1188.00	 1225.98	-1902.36	  412.41
     67.9700	 1430.00	 1432.17	-1866.55	  412.42
     68.0700	 1755.00	 1668.92	-1778.29	  412.42
     68.1700	 1914.00	 1920.93	-1871.31	  412.42
     68.2700	 2121.00	 2163.15	-1906.53	  412.43
     68.3700	 2351.00	 2360.75	-1874.13	  412.43
     68.4700	 2500.00	 2474.78	-1839.16	  412.43
     68.5700	 2431.00	 2477.22	-1910.60	  412.43
     68.6700	 2346.00	 2367.42	-1885.80	  412.43
     68.7700	 2132.00	 2172.43	-1904.80	  412.43
     68.8700	 1938.00	 1931.20	-1857.58	  412.43
     68.9700	 1672.00	 1678.90	-1871.28	  412.43
     69.0700	 1429.00	 1441.12	-1876.50	  412.42
     69.1700	 1213.00	 1233.47	-1884.85	  412.42
     69.2700	 1018.00	 1063.25	-1909.62	  412.42
     69.3700	  888.00	  931.25	-1907.63	  412.41
     69.4700	  853.00	  833.79	-1845.17	  412.41
     69.5700	  806.00	  764.76	-1823.14	  412.40
     69.6700	  770.00	  717.44	-1811.81	  412.40
     69.7700	  735.00	  685.62	-1815.00	  412.39
     69.8700	  650.00	  664.39	-1878.76	  412.38
     69.9700	  683.00	  650.11	-1831.49	  412.37
     70.0700	  664.00	  640.36	-1840.74	  412.37
     70.1700	  649.00	  633.60	-1848.98	  412.36
     70.2700	  645.00	  628.91	-1848.28	  412.35
     70.3700	  632.00	  625.78	-1858.16	  412.34
     70.4700	  588.00	  623.95	-1900.33	  412.33
     70.5700	  627.00	  623.33	-1860.71	  412.31
     70.6700	  672.00	  623.94	-1816.31	  412.30
     70.7700	  655.00	  625.95	-1835.33	  412.29
     70.8700	  659.00	  629.57	-1834.95	  412.27
     70.9700	  621.00	  635.82	-1879.20	  412.26
     71.0700	  693.00	  645.59	-1816.97	  412.24
     71.1700	  687.00	  660.54	-1837.92	  412.23
     71.2700	  697.00	  683.00	-1850.38	  412.21
     71.3700	  688.00	  716.06	-1892.44	  412.19
     71.4700	  813.00	  763.44	-1814.82	  412.18
     71.5700	  863.00	  829.11	-1830.48	  412.16
     71.6700	  949.00	  916.65	-1832.02	  412.14
     71.7700	  986.00	 1028.39	-1906.77	  412.12
     71.8700	 1189.00	 1165.09	-1840.47	  412.10
     71.9700	 1305.00	 1321.60	-1880.98	  412.07
     72.0700	 1557.00	 1490.87	-1798.25	  412.05
     72.1700	 1699.00	 1659.88	-1825.26	  412.03
     72.2700	 1707.00	 1810.10	-1967.48	  412.00
     72.3700	 1932.00	 1918.79	-1851.17	  411.98
     72.4700	 1942.00	 1964.69	-1887.07	  411.95
     72.5700	 1899.00	 1937.31	-1902.69	  411.93
     72.6700	 1795.00	 1842.95	-1912.32	  411.90
     72.7700	 1653.00	 1700.93	-1912.30	  411.87
     72.8700	 1557.00	 1534.33	-1841.71	  411.84
     72.9700	 1328.00	 1363.06	-1899.44	  411.81
     73.0700	 1208.00	 1201.59	-1857.96	  411.78
     73.1700	 1059.00	 1058.95	-1864.33	  411.75
     73.2700	  898.00	  939.64	-1906.02	  411.72
     73.3700	  879.00	  844.51	-1829.89	  411.69
     73.4700	  799.00	  771.80	-1837.18	  411.66
     73.5700	  737.00	  718.23	-1845.61	  411.62
     73.6700	  732.00	  679.90	-1812.28	  411.59
     73.7700	  670.00	  653.04	-1847.42	  411.55
     73.8700	  599.00	  634.46	-1899.84	  411.51
     73.9700	  606.00	  621.67	-1880.05	  411.48
     74.0700	  601.00	  612.91	-1876.29	  411.44
     74.1700	  580.00	  606.45	-1890.82	  411.40
     74.2700	  673.00	  602.61	-1793.99	  411.36
     74.3700	  630.00	  600.38	-1834.76	  411.32
     74.4700	  652.00	  599.41	-1811.79	  411.28
     74.5700	  577.00	  599.45	-1886.83	  411.23
     74.6700	  602.00	  600.21	-1862.59	  411.19
     74.7700	  652.00	  601.39	-1813.76	  411.15
     74.8700	  656.00	  602.59	-1810.97	  411.10
     74.9700	  644.00	  603.38	-1823.76	  411.06
     75.0700	  710.00	  603.38	-1757.76	  411.01
     75.1700	  648.00	  602.36	-1818.74	  410.96
     75.2700	  712.00	  600.44	-1752.81	  410.91
     75.3700	  669.00	  597.98	-1793.36	  410.86
     75.4700	  674.00	  595.48	-1785.86	  410.81
     75.5700	  666.00	  593.67	-1792.05	  410.76
     75.6700	  704.00	  593.08	-1753.46	  410.71
     75.7700	  650.00	  594.36	-1808.74	  410.66
     75.8700	  623.00	  598.16	-1839.54	  410.60
     75.9700	  655.00	  605.17	-1814.54	  410.55
     76.0700	  614.00	  616.04	-1866.42	  410.49
     76.1700	  640.00	  631.34	-1855.72	  410.44
     76.2700	  638.00	  651.29	-1877.66	  410.38
     76.3700	  695.00	  676.02	-1845.40	  410.32
     76.4700	  677.00	  704.91	-1892.29	  410.26
     76.5700	  719.00	  736.76	-1882.14	  410.20
     76.6700	  742.00	  769.65	-1892.03	  410.14
     76.7700	  815.00	  800.79	-1850.17	  410.08
     76.8700	  783.00	  826.65	-1908.03	  410.02
     76.9700	  884.00	  843.37	-1823.75	  409.96
     77.0700	  837.00	  847.86	-1875.24	  409.89
     77.1700	  839.00	  839.12	-1864.50	  409.83
     77.2700	  773.00	  818.81	-1910.19	  409.76
     77.3700	  807.00	  790.33	-1847.71	  409.69
     77.4700	  749.00	  757.53	-1872.91	  409.63
     77.5700	  747.00	  723.73	-1841.11	  409.56
     77.6700	  667.00	  691.43	-1888.81	  409.49
     77.7700	  645.00	  662.32	-1881.70	  409.42
     77.8700	  566.00	  637.32	-1935.70	  409.34
     77.9700	  605.00	  616.78	-1876.16	  409.27
     78.0700	  572.00	  600.33	-1892.71	  409.20
     78.1700	  593.00	  587.94	-1859.32	  409.12
     78.2700	  524.00	  578.77	-1919.15	  409.05
     78.3700	  565.00	  572.16	-1871.53	  408.97
     78.4700	  537.00	  567.47	-1894.85	  408.89
     78.5700	  575.00	  564.13	-1853.51	  408.82
     78.6700	  582.00	  561.85	-1844.22	  408.74
     78.7700	  579.00	  560.27	-1845.64	  408.66
     78.8700	  569.00	  559.19	-1854.57	  408.58
     78.9700	  545.00	  558.49	-1877.87	  408.50
     79.0700	  584.00	  558.09	-1838.46	  408.41
     79.1700	  589.00	  557.95	-1833.33	  408.33
     79.2700	  556.00	  558.06	-1866.44	  408.24
     79.3700	  525.00	  558.45	-1897.83	  408.16
     79.4700	  592.00	  559.13	-1831.51	  408.07
     79.5700	  551.00	  560.16	-1873.54	  407.98
     79.6700	  570.00	  561.61	-1855.98	  407.90
     79.7700	  583.00	  563.57	-1844.95	  407.81
     79.8700	  529.00	  566.22	-1901.60	  407.72
     79.9700	  578.00	  569.76	-1856.14	  407.63
     80.0700	  572.00	  574.53	-1866.91	  407.53
     80.1700	  608.00	  580.95	-1837.33	  407.44
     80.2700	  608.00	  589.61	-1845.99	  407.35
     80.3700	  620.00	  601.20	-1845.58	  407.25
     80.4700	  615.00	  616.53	-1865.91	  407.16
     80.5700	  647.00	  636.46	-1853.83	  407.06
     80.6700	  699.00	  661.56	-1826.94	  406.96
     80.7700	  707.00	  692.87	-1850.25	  406.86
     80.8700	  748.00	  730.42	-1846.79	  406.76
     80.9700	  791.00	  773.78	-1847.16	  406.66
     81.0700	  858.00	  821.78	-1828.16	  406.56
     81.1700	  872.00	  872.26	-1864.64	  406.46
     81.2700	  916.00	  922.12	-1870.50	  406.35
     81.3700	  933.00	  967.56	-1898.94	  406.25
     81.4700	  980.00	 1004.72	-1889.10	  406.15
     81.5700	 1025.00	 1030.58	-1869.96	  406.04
     81.6700	 1057.00	 1043.54	-1850.92	  405.93
     81.7700	 1073.00	 1043.45	-1834.83	  405.82
     81.8700	 1081.00	 1031.26	-1814.64	  405.72
     81.9700	  985.00	 1008.87	-1888.24	  405.61
     82.0700	 1042.00	  978.76	-1801.14	  405.49
     82.1700	  900.00	  943.53	-1907.91	  405.38
     82.2700	  917.00	  905.52	-1852.90	  405.27
     82.3700	  854.00	  866.77	-1877.15	  405.16
     82.4700	  777.00	  829.07	-1916.45	  405.04
     82.5700	  789.00	  793.73	-1869.11	  404.93
     82.6700	  709.00	  761.44	-1916.82	  404.81
     82.7700	  748.00	  732.32	-1848.70	  404.69
     82.8700	  724.00	  706.10	-1846.48	  404.57
     82.9700	  658.00	  682.53	-1888.91	  404.46
     83.0700	  639.00	  661.50	-1886.88	  404.34
     83.1700	  616.00	  643.06	-1891.44	  404.21
     83.2700	  657.00	  627.33	-1834.71	  404.09
     83.3700	  595.00	  614.41	-1883.78	  403.97
     83.4700	  603.00	  604.32	-1865.70	  403.85
     83.5700	  586.00	  597.05	-1875.43	  403.72
     83.6700	  572.00	  592.49	-1884.86	  403.60
     83.7700	  547.00	  590.42	-1907.80	  403.47
     83.8700	  558.00	  590.56	-1896.94	  403.34
     83.9700	  578.00	  592.50	-1878.88	  403.21
     84.0700	  576.00	  595.73	-1884.11	  403.09
     84.1700	  612.00	  599.65	-1852.03	  402.96
     84.2700	  574.00	  603.58	-1893.96	  402.82
     84.3700	  593.00	  606.79	-1878.17	  402.69
     84.4700	  613.00	  608.51	-1859.89	  402.56
     84.5700	  582.00	  608.28	-1890.66	  402.43
     84.6700	  649.00	  606.04	-1821.42	  402.29
     84.7700	  596.00	  601.89	-1870.27	  402.16
     84.8700	  527.00	  596.31	-1933.69	  402.02
     84.9700	  647.00	  589.88	-1807.26	  401.88
     85.0700	  636.00	  583.17	-1811.55	  401.75
     85.1700	  605.00	  576.66	-1836.03	  401.61
     85.2700	  528.00	  570.71	-1907.09	  401.47
     85.3700	  561.00	  565.60	-1868.98	  401.33
     85.4700	  503.00	  561.50	-1922.88	  401.19
     85.5700	  526.00	  558.52	-1896.90	  401.04
     85.6700	  579.00	  556.69	-1842.07	  400.90
     85.7700	  537.00	  556.02	-1883.40	  400.76
     85.8700	  585.00	  556.48	-1835.86	  400.61
     85.9700	  573.00	  558.05	-1849.42	  400.47
     86.0700	  511.00	  560.67	-1914.05	  400.32
     86.1700	  593.00	  564.31	-1835.69	  400.17
     86.2700	  559.00	  568.90	-1874.28	  400.03
     86.3700	  570.00	  574.38	-1868.76	  399.88
     86.4700	  587.00	  580.63	-1858.01	  399.73
     86.5700	  620.00	  587.52	-1831.89	  399.58
     86.6700	  572.00	  594.91	-1887.29	  399.43
     86.7700	  567.00	  602.60	-1899.98	  399.28
     86.8700	  606.00	  610.42	-1868.80	  399.12
     86.9700	  590.00	  618.27	-1892.65	  398.97
     87.0700	  625.00	  626.17	-1865.55	  398.81
     87.1700	  621.00	  634.31	-1877.68	  398.66
     87.2700	  612.00	  642.87	-1895.24	  398.50
     87.3700	  612.00	  651.97	-1904.35	  398.35
     87.4700	  699.00	  661.56	-1826.93	  398.19
     87.5700	  643.00	  671.32	-1892.70	  398.03
     87.6700	  724.00	  680.70	-1821.08	  397.87
     87.7700	  646.00	  688.90	-1907.28	  397.71
     87.8700	  745.00	  694.95	-1814.33	  397.55
     87.9700	  672.00	  697.90	-1890.28	  397.39
     88.0700	  736.00	  697.08	-1825.46	  397.23
     88.1700	  738.00	  692.35	-1818.73	  397.07
     88.2700	  665.00	  684.14	-1883.52	  396.90
     88.3700	  616.00	  673.26	-1921.64	  396.74
     88.4700	  635.00	  660.73	-1890.11	  396.58
     88.5700	  644.00	  647.54	-1867.92	  396.41
     88.6700	  687.00	  634.58	-1811.96	  396.24
     88.7700	  612.00	  622.58	-1874.96	  396.08
     88.8700	  618.00	  611.66	-1858.04	  395.91
     88.9700	  611.00	  603.12	-1856.50	  395.74
     89.0700	  626.00	  596.72	-1835.10	  395.57
     89.1700	  594.00	  592.48	-1862.85	  395.40
     89.2700	  605.00	  590.27	-1849.65	  395.23
     89.3700	  618.00	  589.85	-1836.23	  395.06
     89.4700	  599.00	  590.84	-1856.22	  394.89
     89.5700	  628.00	  592.78	-1829.16	  394.72
     89.6700	  642.00	  595.13	-1817.51	  394.55
     89.7700	  617.00	  597.32	-1844.70	  394.37
     89.8700	  655.00	  598.81	-1808.18	  394.20
     89.9700	  635.00	  599.11	-1828.48	  394.02
     90.0700	  656.00	  597.95	-1806.33	  393.85
     90.1700	  584.00	  595.32	-1875.69	  393.67
     90.2700	  613.00	  591.40	-1842.77	  393.50
     90.3700	  558.00	  586.54	-1892.91	  393.32
     90.4700	  588.00	  581.12	-1857.50	  393.14
     90.5700	  565.00	  575.52	-1874.90	  392.96
     90.6700	  563.00	  570.03	-1871.41	  392.79
     90.7700	  586.00	  564.91	-1843.29	  392.61
     90.8700	  561.00	  560.31	-1863.69	  392.43
     90.9700	  585.00	  556.35	-1835.73	  392.25
     91.0700	  535.00	  553.09	-1882.46	  392.07
     91.1700	  572.00	  550.51	-1842.89	  391.88
     91.2700	  533.00	  548.61	-1879.99	  391.70
     91.3700	  528.00	  547.33	-1883.71	  391.52
     91.4700	  531.00	  546.62	-1880.00	  391.34
     91.5700	  516.00	  546.46	-1894.84	  391.15
     91.6700	  547.00	  546.81	-1864.19	  390.97
     91.7700	  499.00	  547.69	-1913.07	  390.79
     91.8700	  536.00	  549.15	-1877.53	  390.60
     91.9700	  579.00	  551.28	-1836.65	  390.42
     92.0700	  503.00	  554.19	-1915.57	  390.23
     92.1700	  533.00	  558.06	-1889.44	  390.04
     92.2700	  572.00	  563.08	-1855.46	  389.86
     92.3700	  565.00	  569.46	-1868.84	  389.67
     92.4700	  601.00	  577.44	-1840.82	  389.48
     92.5700	  609.00	  587.22	-1842.60	  389.30
     92.6700	  569.00	  598.96	-1894.34	  389.11
     92.7700	  595.00	  612.79	-1882.16	  388.92
     92.8700	  640.00	  628.70	-1853.08	  388.73
     92.9700	  622.00	  646.62	-1889.00	  388.54
     93.0700	  611.00	  666.32	-1919.70	  388.35
     93.1700	  699.00	  687.44	-1852.82	  388.16
     93.2700	  623.00	  709.43	-1950.81	  387.97
     93.3700	  686.00	  731.63	-1910.01	  387.78
     93.4700	  703.00	  753.21	-1914.59	  387.59
     93.5700	  697.00	  773.34	-1940.72	  387.40
     93.6700	  731.00	  791.32	-1924.70	  387.21
     93.7700	  748.00	  806.77	-1923.15	  387.02
     93.8700	  785.00	  819.78	-1899.16	  386.82
     93.9700	  856.00	  830.81	-1839.18	  386.63
     94.0700	  849.00	  840.52	-1855.90	  386.44
     94.1700	  800.00	  849.57	-1913.95	  386.25
     94.2700	  847.00	  858.46	-1875.84	  386.05
     94.3700	  854.00	  867.17	-1877.55	  385.86
     94.4700	  876.00	  876.57	-1864.94	  385.67
     94.5700	  872.00	  886.51	-1878.88	  385.48
     94.6700	  877.00	  897.21	-1884.59	  385.28
     94.7700	  913.00	  908.88	-1860.26	  385.09
     94.8700	  921.00	  921.50	-1864.88	  384.89
     94.9700	  970.00	  934.75	-1829.13	  384.70
     95.0700	 1002.00	  947.85	-1810.23	  384.51
     95.1700	  962.00	  959.60	-1861.98	  384.31
     95.2700	  980.00	  968.47	-1852.85	  384.12
     95.3700	  964.00	  972.81	-1873.19	  383.92
     95.4700	  952.00	  971.15	-1883.53	  383.73
     95.5700	  956.00	  962.64	-1871.02	  383.53
     95.6700	  930.00	  947.29	-1881.67	  383.34
     95.7700	  941.00	  925.99	-1849.37	  383.14
     95.8700	  948.00	  900.30	-1816.68	  382.95
     95.9700	  850.00	  872.16	-1886.54	  382.75
     96.0700	  823.00	  843.59	-1884.96	  382.56
     96.1700	  844.00	  816.54	-1836.92	  382.37
     96.2700	  830.00	  792.84	-1827.22	  382.17
     96.3700	  785.00	  774.12	-1853.50	  381.98
     96.4700	  821.00	  761.79	-1805.17	  381.78
     96.5700	  767.00	  757.06	-1854.44	  381.59
     96.6700	  794.00	  760.92	-1831.30	  381.39
     96.7700	  773.00	  774.14	-1865.52	  381.20
     96.8700	  799.00	  797.24	-1862.61	  381.00
     96.9700	  827.00	  830.48	-1867.86	  380.81
     97.0700	  866.00	  873.85	-1872.23	  380.62
     97.1700	  942.00	  926.98	-1849.36	  380.42
     97.2700	 1043.00	  989.08	-1810.46	  380.23
     97.3700	 1043.00	 1058.88	-1880.26	  380.03
     97.4700	 1110.00	 1134.56	-1888.94	  379.84
     97.5700	 1209.00	 1213.75	-1869.12	  379.65
     97.6700	 1287.00	 1293.44	-1870.82	  379.46
     97.7700	 1332.00	 1370.01	-1902.39	  379.26
     97.8700	 1462.00	 1439.33	-1841.71	  379.07
     97.9700	 1432.00	 1497.00	-1929.38	  378.88
     98.0700	 1545.00	 1538.82	-1858.20	  378.69
     98.1700	 1525.00	 1561.54	-1900.91	  378.49
     98.2700	 1574.00	 1563.47	-1853.85	  378.30
     98.3700	 1563.00	 1544.96	-1846.34	  378.11
     98.4700	 1493.00	 1508.25	-1879.63	  377.92
     98.5700	 1473.00	 1456.83	-1848.21	  377.73
     98.6700	 1451.00	 1394.83	-1808.21	  377.54
     98.7700	 1303.00	 1326.45	-1887.83	  377.35
     98.8700	 1228.00	 1255.67	-1892.05	  377.16
     98.9700	 1190.00	 1186.02	-1860.40	  376.97
     99.0700	 1164.00	 1120.57	-1820.94	  376.79
     99.1700	 1069.00	 1061.86	-1857.24	  376.60
     99.2700	  954.00	 1012.04	-1922.42	  376.41
     99.3700	  998.00	  972.82	-1839.20	  376.22
     99.4700	  966.00	  945.54	-1843.92	  376.04
     99.5700	  902.00	  931.18	-1893.56	  375.85
     99.6700	  959.00	  930.40	-1835.77	  375.67
     99.7700	  960.00	  943.57	-1847.95	  375.48
     99.8700	  957.00	  970.78	-1878.16	  375.30
     99.9700	 1117.00	 1011.81	-1759.19	  375.11
    100.0700	 1052.00	 1066.15	-1878.53	  374.93
    100.1700	 1140.00	 1132.91	-1857.29	  374.75
    100.2700	 1221.00	 1210.84	-1854.22	  374.57
    100.3700	 1303.00	 1298.23	-1859.61	  374.39
    100.4700	 1388.00	 1392.87	-1869.24	  374.21
    100.5700	 1529.00	 1492.00	-1827.38	  374.03
    100.6700	 1603.00	 1592.38	-1853.76	  373.85
    100.7700	 1688.00	 1690.26	-1866.64	  373.67
    100.8700	 1764.00	 1781.96	-1882.34	  373.49
    100.9700	 1814.00	 1863.78	-1914.16	  373.31
    101.0700	 1913.00	 1932.73	-1884.11	  373.14
    101.1700	 1905.00	 1986.70	-1946.08	  372.96
    101.2700	 1962.00	 2024.40	-1926.78	  372.79
    101.3700	 2024.00	 2045.07	-1885.45	  372.61
    101.4700	 2111.00	 2048.35	-1801.72	  372.44
    101.5700	 2089.00	 2034.10	-1809.48	  372.27
    101.6700	 2017.00	 2002.80	-1850.18	  372.10
    101.7700	 1981.00	 1955.80	-1839.18	  371.93
    101.8700	 2007.00	 1895.51	-1752.89	  371.76
    101.9700	 1768.00	 1825.37	-1921.74	  371.59
    102.0700	 1864.00	 1749.37	-1749.74	  371.42
    102.1700	 1730.00	 1671.55	-1805.93	  371.26
    102.2700	 1670.00	 1595.51	-1789.89	  371.09
    102.3700	 1556.00	 1524.13	-1832.51	  370.93
    102.4700	 1509.00	 1459.49	-1814.86	  370.77
    102.5700	 1399.00	 1402.78	-1868.16	  370.60
    102.6700	 1361.00	 1354.43	-1857.81	  370.44
    102.7700	 1324.00	 1314.10	-1854.48	  370.28
    102.8700	 1260.00	 1280.84	-1885.22	  370.12
    102.9700	 1234.00	 1253.13	-1883.51	  369.97
    103.0700	 1151.00	 1229.06	-1942.44	  369.81
    103.1700	 1132.00	 1206.48	-1938.86	  369.65
    103.2700	 1203.00	 1183.28	-1844.66	  369.50
    103.3700	 1138.00	 1157.71	-1884.09	  369.35
    103.4700	 1127.00	 1128.60	-1865.98	  369.20
    103.5700	 1026.00	 1095.53	-1933.91	  369.05
    103.6700	 1073.00	 1058.74	-1850.12	  368.90
    103.7700	  952.00	 1018.97	-1931.35	  368.75
    103.8700	  988.00	  977.24	-1853.61	  368.60
    103.9700	  930.00	  934.64	-1869.02	  368.46
    104.0700	  872.00	  892.23	-1884.61	  368.31
    104.1700	  884.00	  850.94	-1831.32	  368.17
    104.2700	  795.00	  811.58	-1880.96	  368.03
    104.3700	  791.00	  774.79	-1848.17	  367.89
    104.4700	  785.00	  741.03	-1820.41	  367.75
    104.5700	  758.00	  710.62	-1816.99	  367.62
    104.6700	  654.00	  683.68	-1894.06	  367.48
    104.7700	  690.00	  660.25	-1834.63	  367.35
    104.8700	  691.00	  640.20	-1813.57	  367.22
    104.9700	  641.00	  623.33	-1846.71	  367.09
    105.0700	  628.00	  609.38	-1845.76	  366.96
    105.1700	  633.00	  598.04	-1829.42	  366.83
    105.2700	  615.00	  589.01	-1838.39	  366.71
    105.3700	  632.00	  581.97	-1814.35	  366.58
    105.4700	  606.00	  576.61	-1834.99	  366.46
    105.5700	  551.00	  572.78	-1886.16	  366.34
    105.6700	  602.00	  570.23	-1832.60	  366.22
    105.7700	  547.00	  568.80	-1886.18	  366.10
    105.8700	  524.00	  568.41	-1908.78	  365.99
    105.9700	  584.00	  568.97	-1849.35	  365.88
    106.0700	  566.00	  570.46	-1868.84	  365.77
    106.1700	  583.00	  572.86	-1854.24	  365.66
    106.2700	  560.00	  576.26	-1880.64	  365.55
    106.3700	  558.00	  580.68	-1887.05	  365.44
    106.4700	  574.00	  586.17	-1876.55	  365.34
    106.5700	  590.00	  592.80	-1867.18	  365.24
    106.6700	  601.00	  600.63	-1864.00	  365.14
    106.7700	  600.00	  609.65	-1874.03	  365.04
    106.8700	  607.00	  619.87	-1877.25	  364.94
    106.9700	  681.00	  631.21	-1814.59	  364.85
    107.0700	  635.00	  643.55	-1872.93	  364.76
    107.1700	  665.00	  656.72	-1856.09	  364.67
    107.2700	  652.00	  670.46	-1882.83	  364.58
    107.3700	  679.00	  684.47	-1869.84	  364.50
    107.4700	  720.00	  698.38	-1842.76	  364.42
    107.5700	  693.00	  711.79	-1883.16	  364.33
    107.6700	  707.00	  724.23	-1881.61	  364.26
    107.7700	  764.00	  735.26	-1835.63	  364.18
    107.8700	  737.00	  744.47	-1871.85	  364.11
    107.9700	  765.00	  751.54	-1850.92	  364.03
    108.0700	  715.00	  756.34	-1905.72	  363.97
    108.1700	  766.00	  758.88	-1857.26	  363.90
    108.2700	  697.00	  759.45	-1926.83	  363.83
    108.3700	  727.00	  758.43	-1895.80	  363.77
    108.4700	  729.00	  756.28	-1891.66	  363.71
    108.5700	  766.00	  753.52	-1851.90	  363.66
    108.6700	  722.00	  750.61	-1892.99	  363.60
    108.7700	  732.00	  747.91	-1880.29	  363.55
    108.8700	  713.00	  745.73	-1897.10	  363.50
    108.9700	  708.00	  744.21	-1900.59	  363.45
    109.0700	  750.00	  743.44	-1857.82	  363.41
    109.1700	  703.00	  743.33	-1904.71	  363.37
    109.2700	  761.00	  743.72	-1847.10	  363.33
    109.3700	  702.00	  744.32	-1906.70	  363.29
    109.4700	  741.00	  744.78	-1868.15	  363.26
    109.5700	  726.00	  744.67	-1883.04	  363.23
    109.6700	  746.00	  743.57	-1861.95	  363.20
    109.7700	  712.00	  741.13	-1893.51	  363.18
    109.8700	  695.00	  737.09	-1906.46	  363.16
    109.9700	  690.00	  731.32	-1905.70	  363.14
    110.0700	  708.00	  723.88	-1880.26	  363.12
    110.1700	  775.00	  714.94	-1804.32	  363.11
    110.2700	  700.00	  704.78	-1869.16	  363.10
    110.3700	  672.00	  693.72	-1886.10	  363.09
    110.4700	  680.00	  682.13	-1866.50	  363.09
    110.5700	  658.00	  670.32	-1876.70	  363.08
    110.6700	  707.00	  658.60	-1815.98	  363.09
    110.7700	  622.00	  647.23	-1889.61	  363.09
    110.8700	  647.00	  636.43	-1853.81	  363.10
    110.9700	  666.00	  626.40	-1824.78	  363.11
    111.0700	  601.00	  617.26	-1880.63	  363.13
    111.1700	  618.00	  609.11	-1855.48	  363.14
    111.2700	  604.00	  602.01	-1862.38	  363.17
    111.3700	  601.00	  595.98	-1859.36	  363.19
    111.4700	  588.00	  591.02	-1867.40	  363.22
    111.5700	  583.00	  587.09	-1868.47	  363.25
    111.6700	  577.00	  584.13	-1871.51	  363.28
    111.7700	  542.00	  582.06	-1904.44	  363.32
    111.8700	  576.00	  580.81	-1869.18	  363.36
    111.9700	  579.00	  580.27	-1865.64	  363.41
    112.0700	  569.00	  580.35	-1875.73	  363.46
    112.1700	  596.00	  580.96	-1849.33	  363.51
    112.2700	  561.00	  582.00	-1885.38	  363.57
    112.3700	  610.00	  583.41	-1837.78	  363.62
    112.4700	  550.00	  585.09	-1899.47	  363.69
    112.5700	  594.00	  586.99	-1857.37	  363.75
    112.6700	  594.00	  589.06	-1859.43	  363.83
    112.7700	  574.00	  591.26	-1881.64	  363.90
    112.8700	  606.00	  593.59	-1851.96	  363.98
    112.9700	  549.00	  596.04	-1911.41	  364.06
    113.0700	  630.00	  598.63	-1833.01	  364.15
    113.1700	  565.00	  601.41	-1900.79	  364.24
    113.2700	  601.00	  604.42	-1867.80	  364.33
    113.3700	  598.00	  607.73	-1874.11	  364.43
    113.4700	  594.00	  611.41	-1881.78	  364.53
    113.5700	  639.00	  615.54	-1840.92	  364.63
    113.6700	  613.00	  620.26	-1871.63	  364.74
    113.7700	  605.00	  625.68	-1885.06	  364.86
    113.8700	  619.00	  632.01	-1877.38	  364.98
    113.9700	  665.00	  639.44	-1838.81	  365.10
    114.0700	  636.00	  648.28	-1876.65	  365.22
    114.1700	  676.00	  658.88	-1847.26	  365.36
    114.2700	  683.00	  671.70	-1853.08	  365.49
    114.3700	  687.00	  687.33	-1864.71	  365.63
    114.4700	  685.00	  706.47	-1885.85	  365.77
    114.5700	  702.00	  730.00	-1892.38	  365.92
    114.6700	  811.00	  759.00	-1812.38	  366.07
    114.7700	  831.00	  794.74	-1828.11	  366.23
    114.8700	  840.00	  838.71	-1863.09	  366.39
    114.9700	  891.00	  892.64	-1866.02	  366.56
    115.0700	  975.00	  958.47	-1847.85	  366.73
    115.1700	 1025.00	 1038.37	-1877.74	  366.90
    115.2700	 1152.00	 1134.66	-1847.04	  367.08
    115.3700	 1288.00	 1249.79	-1826.17	  367.27
    115.4700	 1494.00	 1386.21	-1756.59	  367.46
    115.5700	 1603.00	 1546.31	-1807.68	  367.65
    115.6700	 1916.00	 1732.29	-1680.66	  367.85
    115.7700	 2028.00	 1946.05	-1782.43	  368.05
    115.8700	 2339.00	 2188.94	-1714.32	  368.26
    115.9700	 2612.00	 2461.67	-1714.04	  368.48
    116.0700	 2983.00	 2764.06	-1645.44	  368.69
    116.1700	 3296.00	 3095.08	-1663.46	  368.92
    116.2700	 3579.00	 3452.61	-1737.99	  369.15
    116.3700	 3901.00	 3833.22	-1796.60	  369.38
    116.4700	 4376.00	 4232.27	-1720.65	  369.62
    116.5700	 4696.00	 4643.75	-1812.13	  369.86
    116.6700	 5106.00	 5060.61	-1818.98	  370.11
    116.7700	 5351.00	 5474.50	-1987.88	  370.37
    116.8700	 5703.00	 5875.89	-2037.27	  370.62
    116.9700	 6088.00	 6254.43	-2030.81	  370.89
    117.0700	 6456.00	 6599.10	-2007.48	  371.16
    117.1700	 6730.00	 6898.81	-2033.19	  371.43
    117.2700	 6887.00	 7142.90	-2120.27	  371.72
    117.3700	 7076.00	 7321.80	-2110.18	  372.00
    117.4700	 7273.00	 7428.15	-2019.53	  372.29
    117.5700	 7194.00	 7457.51	-2127.89	  372.59
    117.6700	 7328.00	 7408.95	-1945.33	  372.89
    117.7700	 7197.00	 7285.12	-1952.50	  373.20
    117.8700	 6973.00	 7091.92	-1983.30	  373.52
    117.9700	 6620.00	 6837.82	-2082.20	  373.84
    118.0700	 6580.00	 6532.95	-1817.33	  374.16
    118.1700	 6046.00	 6188.15	-2006.52	  374.49
    118.2700	 5723.00	 5814.31	-1955.69	  374.83
    118.3700	 5485.00	 5422.02	-1801.40	  375.17
    118.4700	 5059.00	 5021.01	-1826.39	  375.52
    118.5700	 4786.00	 4620.08	-1698.46	  375.88
    118.6700	 4290.00	 4226.70	-1801.08	  376.24
    118.7700	 3991.00	 3847.16	-1720.54	  376.61
    118.8700	 3564.00	 3486.56	-1786.94	  376.98
    118.9700	 3245.00	 3148.70	-1768.08	  377.36
    119.0700	 2944.00	 2836.26	-1756.64	  377.74
    119.1700	 2655.00	 2550.71	-1760.09	  378.14
    119.2700	 2414.00	 2292.62	-1743.00	  378.53
    119.3700	 2222.00	 2061.80	-1704.18	  378.94
    119.4700	 2015.00	 1857.39	-1706.77	  379.35
    119.5700	 1813.00	 1678.02	-1729.40	  379.76
    119.6700	 1604.00	 1521.90	-1782.27	  380.19
    119.7700	 1448.00	 1387.00	-1803.38	  380.62
    119.8700	 1332.00	 1271.23	-1803.61	  381.05
    119.9700	 1211.00	 1172.42	-1825.79	  381.50
    120.0700	 1147.00	 1088.46	-1805.84	  381.95
    120.1700	 1111.00	 1017.36	-1770.74	  382.40
    120.2700	  995.00	  957.26	-1826.64	  382.87
    120.3700	  989.00	  906.54	-1781.92	  383.34
    120.4700	  923.00	  863.74	-1805.12	  383.81
    120.5700	  877.00	  827.61	-1814.98	  384.29
    120.6700	  784.00	  797.07	-1877.45	  384.78
    120.7700	  761.00	  771.24	-1874.62	  385.28
    120.8700	  722.00	  749.37	-1891.75	  385.79
    120.9700	  737.00	  730.85	-1858.23	  386.30
    121.0700	  760.00	  715.19	-1819.57	  386.81
    121.1700	  719.00	  701.99	-1847.37	  387.34
    121.2700	  663.00	  690.91	-1892.29	  387.87
    121.3700	  700.00	  681.70	-1846.08	  388.41
    121.4700	  650.00	  674.14	-1888.52	  388.96
    121.5700	  634.00	  668.06	-1898.44	  389.51
    121.6700	  667.00	  663.32	-1860.70	  390.07
    121.7700	  642.00	  659.80	-1882.17	  390.64
    121.8700	  661.00	  657.40	-1860.77	  391.22
    121.9700	  678.00	  656.03	-1842.41	  391.80
    122.0700	  699.00	  655.64	-1821.02	  392.39
    122.1700	  657.00	  656.14	-1863.51	  392.99
    122.2700	  632.00	  657.47	-1889.84	  393.60
    122.3700	  615.00	  659.56	-1908.94	  394.21
    122.4700	  690.00	  662.36	-1836.74	  394.83
    122.5700	  630.00	  665.80	-1900.17	  395.46
    122.6700	  672.00	  669.79	-1862.17	  396.10
    122.7700	  679.00	  674.27	-1859.65	  396.74
    122.8700	  653.00	  679.15	-1890.53	  397.40
    122.9700	  652.00	  684.33	-1896.71	  398.06
    123.0700	  694.00	  689.72	-1860.10	  398.73
    123.1700	  686.00	  695.22	-1873.60	  399.40
    123.2700	  690.00	  700.71	-1875.08	  400.09
    123.3700	  695.00	  706.07	-1875.45	  400.78
    123.4700	  669.00	  711.20	-1906.58	  401.48
    123.5700	  702.00	  715.98	-1878.36	  402.19
    123.6700	  720.00	  720.32	-1864.69	  402.91
    123.7700	  695.00	  724.12	-1893.50	  403.64
    123.8700	  645.00	  727.34	-1946.72	  404.37
    123.9700	  675.00	  729.94	-1919.32	  405.12
    124.0700	  758.00	  731.91	-1838.29	  405.87
    124.1700	  709.00	  733.27	-1888.65	  406.63
    124.2700	  719.00	  734.07	-1879.45	  407.40
    124.3700	  732.00	  734.34	-1866.71	  408.18
    124.4700	  744.00	  734.19	-1854.57	  408.96
    124.5700	  696.00	  733.67	-1902.05	  409.76
    124.6700	  732.00	  732.84	-1865.22	  410.56
    124.7700	  719.00	  731.77	-1877.15	  411.38
    124.8700	  701.00	  730.51	-1893.89	  412.20
    124.9700	  702.00	  534.06	-1696.43	  413.03
    125.0700	  700.00	  534.90	-1864.38	  413.87
    125.1700	  692.00	  535.74	-1864.38	  414.72
    125.2700	  714.00	  536.60	-1864.38	  415.57
    125.3700	  713.00	  537.47	-1864.38	  416.44
    125.4700	  689.00	  538.35	-1864.38	  417.32
    125.5700	  708.00	  539.23	-1864.38	  418.20
    125.6700	  649.00	  540.13	-1864.38	  419.10
    125.7700	  674.00	  541.03	-1864.38	  420.00
    125.8700	  683.00	  541.95	-1864.38	  420.92
    125.9700	  652.00	  542.87	-1864.38	  421.84
    126.0700	  615.00	  543.80	-1864.38	  422.77
    126.1700	  601.00	  544.75	-1864.38	  423.72
    126.2700	  619.00	  545.70	-1864.38	  424.67
    126.3700	  670.00	  546.66	-1864.38	  425.63
    126.4700	  637.00	  547.63	-1864.38	  426.60
    126.5700	  615.00	  548.61	-1864.38	  427.59
    126.6700	  573.00	  549.61	-1864.38	  428.58
    126.7700	  639.00	  550.61	-1864.38	  429.58
    126.8700	  620.00	  551.62	-1864.38	  430.59
    126.9700	  628.00	  552.64	-1864.38	  431.61
    127.0700	  600.00	  553.67	-1864.38	  432.64
    127.1700	  652.00	  554.71	-1864.38	  433.69
    127.2700	  636.00	  555.77	-1864.38	  434.74
    127.3700	  572.00	  556.83	-1864.38	  435.80
    127.4700	  623.00	  557.90	-1864.38	  436.87
    127.5700	  595.00	  558.99	-1864.38	  437.96
    127.6700	  592.00	  560.08	-1864.38	  439.05
    127.7700	  652.00	  561.18	-1864.38	  440.16
    127.8700	  558.00	  562.30	-1864.38	  441.27
    127.9700	  625.00	  563.42	-1864.38	  442.40
    128.0700	  607.00	  564.56	-1864.38	  443.53
    128.1700	  654.00	  565.71	-1864.38	  444.68
    128.2700	  587.00	  566.87	-1864.38	  445.84
    128.3700	  638.00	  568.03	-1864.38	  447.01
    128.4700	  660.00	  569.21	-1864.38	  448.19
    128.5700	    0.00	  570.40	-1864.38	  449.38
    128.6700	    0.00	  571.61	-1864.38	  450.58
     12.3974	        	        	        	        	       0	(  0  0  2)	  0  1
     12.3974	        	        	        	        	    -466	(  0  0  2)	  0  1
     25.0440	        	        	        	        	       0	(  0  0  4)	  0  1
     25.0440	        	        	        	        	    -466	(  0  0  4)	  0  1
     28.4950	        	        	        	        	       0	(  1  0  0)	  0  1
     28.4950	        	        	        	        	    -466	(  1  0  0)	  0  1
     29.1960	        	        	        	        	       0	(  1  0  1)	  0  1
     29.1960	        	        	        	        	    -466	(  1  0  1)	  0  1
     31.2133	        	        	        	        	       0	(  1  0  2)	  0  1
     31.2133	        	        	        	        	    -466	(  1  0  2)	  0  1
     34.3388	        	        	        	        	       0	(  1  0  3)	  0  1
     34.3388	        	        	        	        	    -466	(  1  0  3)	  0  1
     38.0115	        	        	        	        	       0	(  0  0  6)	  0  1
     38.0115	        	        	        	        	    -466	(  0  0  6)	  0  1
     38.3382	        	        	        	        	       0	(  1  0  4)	  0  1
     38.3382	        	        	        	        	    -466	(  1  0  4)	  0  1
     43.0148	        	        	        	        	       0	(  1  0  5)	  0  1
     43.0148	        	        	        	        	    -466	(  1  0  5)	  0  1
     48.2291	        	        	        	        	       0	(  1  0  6)	  0  1
     48.2291	        	        	        	        	    -466	(  1  0  6)	  0  1
     50.5465	        	        	        	        	       0	(  1  1  0)	  0  1
     50.5465	        	        	        	        	    -466	(  1  1  0)	  0  1
     51.5101	        	        	        	        	       0	(  0  0  8)	  0  1
     51.5101	        	        	        	        	    -466	(  0  0  8)	  0  1
     52.2803	        	        	        	        	       0	(  1  1  2)	  0  1
     52.2803	        	        	        	        	    -466	(  1  1  2)	  0  1
     53.8938	        	        	        	        	       0	(  1  0  7)	  0  1
     53.8938	        	        	        	        	    -466	(  1  0  7)	  0  1
     57.2599	        	        	        	        	       0	(  1  1  4)	  0  1
     57.2599	        	        	        	        	    -466	(  1  1  4)	  0  1
     59.0932	        	        	        	        	       0	(  2  0  0)	  0  1
     59.0932	        	        	        	        	    -466	(  2  0  0)	  0  1
     59.4874	        	        	        	        	       0	(  2  0  1)	  0  1
     59.4874	        	        	        	        	    -466	(  2  0  1)	  0  1
     59.9627	        	        	        	        	       0	(  1  0  8)	  0  1
     59.9627	        	        	        	        	    -466	(  1  0  8)	  0  1
     60.6606	        	        	        	        	       0	(  2  0  2)	  0  1
     60.6606	        	        	        	        	    -466	(  2  0  2)	  0  1
     62.5869	        	        	        	        	       0	(  2  0  3)	  0  1
     62.5869	        	        	        	        	    -466	(  2  0  3)	  0  1
     65.0064	        	        	        	        	       0	(  1  1  6)	  0  1
     65.0064	        	        	        	        	    -466	(  1  1  6)	  0  1
     65.2292	        	        	        	        	       0	(  2  0  4)	  0  1
     65.2292	        	        	        	        	    -466	(  2  0  4)	  0  1
     65.8307	        	        	        	        	       0	(  0  0 10)	  0  1
     65.8307	        	        	        	        	    -466	(  0  0 10)	  0  1
     66.4225	        	        	        	        	       0	(  1  0  9)	  0  1
     66.4225	        	        	        	        	    -466	(  1  0  9)	  0  1
     68.5471	        	        	        	        	       0	(  2  0  5)	  0  1
     68.5471	        	        	        	        	    -466	(  2  0  5)	  0  1
     72.5038	        	        	        	        	       0	(  2  0  6)	  0  1
     72.5038	        	        	        	        	    -466	(  2  0  6)	  0  1
     73.2882	        	        	        	        	       0	(  1  0 10)	  0  1
     73.2882	        	        	        	        	    -466	(  1  0 10)	  0  1
     75.1182	        	        	        	        	       0	(  1  1  8)	  0  1
     75.1182	        	        	        	        	    -466	(  1  1  8)	  0  1
     77.0734	        	        	        	        	       0	(  2  0  7)	  0  1
     77.0734	        	        	        	        	    -466	(  2  0  7)	  0  1
     80.6038	        	        	        	        	       0	(  1  0 11)	  0  1
     80.6038	        	        	        	        	    -466	(  1  0 11)	  0  1
     81.4292	        	        	        	        	       0	(  0  0 12)	  0  1
     81.4292	        	        	        	        	    -466	(  0  0 12)	  0  1
     81.4889	        	        	        	        	       0	(  2  1  0)	  0  1
     81.4889	        	        	        	        	    -466	(  2  1  0)	  0  1
     81.8317	        	        	        	        	       0	(  2  1  1)	  0  1
     81.8317	        	        	        	        	    -466	(  2  1  1)	  0  1
     82.2465	        	        	        	        	       0	(  2  0  8)	  0  1
     82.2465	        	        	        	        	    -466	(  2  0  8)	  0  1
     82.8584	        	        	        	        	       0	(  2  1  2)	  0  1
     82.8584	        	        	        	        	    -466	(  2  1  2)	  0  1
     84.5647	        	        	        	        	       0	(  2  1  3)	  0  1
     84.5647	        	        	        	        	    -466	(  2  1  3)	  0  1
     86.9459	        	        	        	        	       0	(  2  1  4)	  0  1
     86.9459	        	        	        	        	    -466	(  2  1  4)	  0  1
     87.4944	        	        	        	        	       0	(  1  1 10)	  0  1
     87.4944	        	        	        	        	    -466	(  1  1 10)	  0  1
     88.0363	        	        	        	        	       0	(  2  0  9)	  0  1
     88.0363	        	        	        	        	    -466	(  2  0  9)	  0  1
     88.4474	        	        	        	        	       0	(  1  0 12)	  0  1
     88.4474	        	        	        	        	    -466	(  1  0 12)	  0  1
     90.0006	        	        	        	        	       0	(  2  1  5)	  0  1
     90.0006	        	        	        	        	    -466	(  2  1  5)	  0  1
     93.7353	        	        	        	        	       0	(  2  1  6)	  0  1
     93.7353	        	        	        	        	    -466	(  2  1  6)	  0  1
     94.4875	        	        	        	        	       0	(  2  0 10)	  0  1
     94.4875	        	        	        	        	    -466	(  2  0 10)	  0  1
     95.5030	        	        	        	        	       0	(  3  0  0)	  0  1
     95.5030	        	        	        	        	    -466	(  3  0  0)	  0  1
     95.8440	        	        	        	        	       0	(  3  0  1)	  0  1
     95.8440	        	        	        	        	    -466	(  3  0  1)	  0  1
     96.8683	        	        	        	        	       0	(  3  0  2)	  0  1
     96.8683	        	        	        	        	    -466	(  3  0  2)	  0  1
     96.9467	        	        	        	        	       0	(  1  0 13)	  0  1
     96.9467	        	        	        	        	    -466	(  1  0 13)	  0  1
     98.1715	        	        	        	        	       0	(  2  1  7)	  0  1
     98.1715	        	        	        	        	    -466	(  2  1  7)	  0  1
     98.5806	        	        	        	        	       0	(  3  0  3)	  0  1
     98.5806	        	        	        	        	    -466	(  3  0  3)	  0  1
     99.1415	        	        	        	        	       0	(  0  0 14)	  0  1
     99.1415	        	        	        	        	    -466	(  0  0 14)	  0  1
    100.9913	        	        	        	        	       0	(  3  0  4)	  0  1
    100.9913	        	        	        	        	    -466	(  3  0  4)	  0  1
    101.6900	        	        	        	        	       0	(  2  0 11)	  0  1
    101.6900	        	        	        	        	    -466	(  2  0 11)	  0  1
    102.5243	        	        	        	        	       0	(  1  1 12)	  0  1
    102.5243	        	        	        	        	    -466	(  1  1 12)	  0  1
    103.3550	        	        	        	        	       0	(  2  1  8)	  0  1
    103.3550	        	        	        	        	    -466	(  2  1  8)	  0  1
    104.1211	        	        	        	        	       0	(  3  0  5)	  0  1
    104.1211	        	        	        	        	    -466	(  3  0  5)	  0  1
    106.3124	        	        	        	        	       0	(  1  0 14)	  0  1
    106.3124	        	        	        	        	    -466	(  1  0 14)	  0  1
    108.0072	        	        	        	        	       0	(  3  0  6)	  0  1
    108.0072	        	        	        	        	    -466	(  3  0  6)	  0  1
    109.3716	        	        	        	        	       0	(  2  1  9)	  0  1
    109.3716	        	        	        	        	    -466	(  2  1  9)	  0  1
    109.8080	        	        	        	        	       0	(  2  0 12)	  0  1
    109.8080	        	        	        	        	    -466	(  2  0 12)	  0  1
    112.7158	        	        	        	        	       0	(  3  0  7)	  0  1
    112.7158	        	        	        	        	    -466	(  3  0  7)	  0  1
    116.3771	        	        	        	        	       0	(  2  1 10)	  0  1
    116.3771	        	        	        	        	    -466	(  2  1 10)	  0  1
    116.9174	        	        	        	        	       0	(  1  0 15)	  0  1
    116.9174	        	        	        	        	    -466	(  1  0 15)	  0  1
    117.5128	        	        	        	        	       0	(  2  2  0)	  0  1
    117.5128	        	        	        	        	    -466	(  2  2  0)	  0  1
    118.3627	        	        	        	        	       0	(  3  0  8)	  0  1
    118.3627	        	        	        	        	    -466	(  3  0  8)	  0  1
    119.0553	        	        	        	        	       0	(  2  2  2)	  0  1
    119.0553	        	        	        	        	    -466	(  2  2  2)	  0  1
    119.1445	        	        	        	        	       0	(  2  0 13)	  0  1
    119.1445	        	        	        	        	    -466	(  2  0 13)	  0  1
    120.9551	        	        	        	        	       0	(  0  0 16)	  0  1
    120.9551	        	        	        	        	    -466	(  0  0 16)	  0  1
    121.6662	        	        	        	        	       0	(  1  1 14)	  0  1
    121.6662	        	        	        	        	    -466	(  1  1 14)	  0  1
    123.8336	        	        	        	        	       0	(  2  2  4)	  0  1
    123.8336	        	        	        	        	    -466	(  2  2  4)	  0  1
    124.6630	        	        	        	        	       0	(  2  1 11)	  0  1
    124.6630	        	        	        	        	    -466	(  2  1 11)	  0  1
    125.1569	        	        	        	        	       0	(  3  0  9)	  0  1
    125.1569	        	        	        	        	    -466	(  3  0  9)	  0  1
    125.7345	        	        	        	        	       0	(  3  1  0)	  0  1
    125.7345	        	        	        	        	    -466	(  3  1  0)	  0  1
    126.1541	        	        	        	        	       0	(  3  1  1)	  0  1
    126.1541	        	        	        	        	    -466	(  3  1  1)	  0  1
    127.4266	        	        	        	        	       0	(  3  1  2)	  0  1
    127.4266	        	        	        	        	    -466	(  3  1  2)	  0  1
    129.5290	        	        	        	        	       0	(  1  0 16)	  0  1
    129.5290	        	        	        	        	    -466	(  1  0 16)	  0  1
    129.5976	        	        	        	        	       0	(  3  1  3)	  0  1
    129.5976	        	        	        	        	    -466	(  3  1  3)	  0  1
    130.3215	        	        	        	        	       0	(  2  0 14)	  0  1
    130.3215	        	        	        	        	    -466	(  2  0 14)	  0  1
    132.4825	        	        	        	        	       0	(  2  2  6)	  0  1
    132.4825	        	        	        	        	    -466	(  2  2  6)	  0  1
    132.7579	        	        	        	        	       0	(  3  1  4)	  0  1
    132.7579	        	        	        	        	    -466	(  3  1  4)	  0  1
    133.5098	        	        	        	        	       0	(  3  0 10)	  0  1
    133.5098	        	        	        	        	    -466	(  3  0 10)	  0  1
    134.8400	        	        	        	        	       0	(  2  1 12)	  0  1
    134.8400	        	        	        	        	    -466	(  2  1 12)	  0  1
    137.0781	        	        	        	        	       0	(  3  1  5)	  0  1
    137.0781	        	        	        	        	    -466	(  3  1  5)	  0  1
    142.8966	        	        	        	        	       0	(  3  1  6)	  0  1
    142.8966	        	        	        	        	    -466	(  3  1  6)	  0  1
    144.3967	        	        	        	        	       0	(  3  0 11)	  0  1
    144.3967	        	        	        	        	    -466	(  3  0 11)	  0  1
    144.9960	        	        	        	        	       0	(  2  0 15)	  0  1
    144.9960	        	        	        	        	    -466	(  2  0 15)	  0  1
    146.3293	        	        	        	        	       0	(  1  0 17)	  0  1
    146.3293	        	        	        	        	    -466	(  1  0 17)	  0  1
    147.2983	        	        	        	        	       0	(  2  2  8)	  0  1
    147.2983	        	        	        	        	    -466	(  2  2  8)	  0  1
    148.5921	        	        	        	        	       0	(  2  1 13)	  0  1
    148.5921	        	        	        	        	    -466	(  2  1 13)	  0  1
    151.0126	        	        	        	        	       0	(  3  1  7)	  0  1
    151.0126	        	        	        	        	    -466	(  3  1  7)	  0  1
    151.7494	        	        	        	        	       0	(  1  1 16)	  0  1
    151.7494	        	        	        	        	    -466	(  1  1 16)	  0  1
    156.6054	        	        	        	        	       0	(  0  0 18)	  0  1
    156.6054	        	        	        	        	    -466	(  0  0 18)	  0  1
    161.7525	        	        	        	        	       0	(  3  0 12)	  0  1
    161.7525	        	        	        	        	    -466	(  3  0 12)	  0  1
    161.9431	        	        	        	        	       0	(  4  0  0)	  0  1
    161.9431	        	        	        	        	    -466	(  4  0  0)	  0  1
    163.0782	        	        	        	        	       0	(  4  0  1)	  0  1
    163.0782	        	        	        	        	    -466	(  4  0  1)	  0  1
    164.5614	        	        	        	        	       0	(  3  1  8)	  0  1
    164.5614	        	        	        	        	    -466	(  3  1  8)	  0  1
    167.0537	        	        	        	        	       0	(  4  0  2)	  0  1
    167.0537	        	        	        	        	    -466	(  4  0  2)	  0  1
