MSG Master    CELL:    5.91905   5.91905  23.26966   90.0000   90.0000  120.0000   SPGR: P 63/m m c             TEMP:   1074.85
  1   1280     2.52000     0.00000    -0.12765     0.00000     0.00000    0
    99     0     2
       0.00000      10.00000
     125.00000     130.00000
 2Theta	Yobs	Ycal	Yobs-Ycal	Backg	Posr	(hkl)	K
      0.7700	    0.00	  548.81	-1762.75	  430.00
      0.8700	    0.00	  549.51	-1762.75	  430.70
      0.9700	   41.00	  550.20	-1762.75	  431.38
      1.0700	   48.00	  550.88	-1762.75	  432.06
      1.1700	   28.00	  551.54	-1762.75	  432.73
      1.2700	   42.00	  552.20	-1762.75	  433.39
      1.3700	   33.00	  552.85	-1762.75	  434.03
      1.4700	   81.00	  553.48	-1762.75	  434.67
      1.5700	  265.00	  554.11	-1762.75	  435.29
      1.6700	  455.00	  554.72	-1762.75	  435.91
      1.7700	  573.00	  555.33	-1762.75	  436.51
      1.8700	  679.00	  555.92	-1762.75	  437.11
      1.9700	  753.00	  556.51	-1762.75	  437.69
      2.0700	  769.00	  557.08	-1762.75	  438.27
      2.1700	  786.00	  557.65	-1762.75	  438.83
      2.2700	  729.00	  558.20	-1762.75	  439.39
      2.3700	  759.00	  558.75	-1762.75	  439.93
      2.4700	  686.00	  559.28	-1762.75	  440.47
      2.5700	  675.00	  559.81	-1762.75	  440.99
      2.6700	  695.00	  560.32	-1762.75	  441.51
      2.7700	  705.00	  560.83	-1762.75	  442.01
      2.8700	  618.00	  561.33	-1762.75	  442.51
      2.9700	  624.00	  561.81	-1762.75	  443.00
      3.0700	  585.00	  562.29	-1762.75	  443.48
      3.1700	  571.00	  562.76	-1762.75	  443.95
      3.2700	  639.00	  563.22	-1762.75	  444.41
      3.3700	  635.00	  563.67	-1762.75	  444.86
      3.4700	  744.00	  564.12	-1762.75	  445.30
      3.5700	  779.00	  564.55	-1762.75	  445.73
      3.6700	  842.00	  564.97	-1762.75	  446.16
      3.7700	  926.00	  565.39	-1762.75	  446.57
      3.8700	  940.00	  565.79	-1762.75	  446.98
      3.9700	  994.00	  566.19	-1762.75	  447.38
      4.0700	 1052.00	  566.58	-1762.75	  447.77
      4.1700	 1058.00	  566.96	-1762.75	  448.15
      4.2700	 1039.00	  567.33	-1762.75	  448.52
      4.3700	 1082.00	  567.70	-1762.75	  448.88
      4.4700	 1055.00	  568.05	-1762.75	  449.24
      4.5700	 1069.00	  568.40	-1762.75	  449.59
      4.6700	  976.00	  568.74	-1762.75	  449.92
      4.7700	  974.00	  569.07	-1762.75	  450.25
      4.8700	  932.00	  569.39	-1762.75	  450.58
      4.9700	  959.00	  569.71	-1762.75	  450.89
      5.0700	  974.00	  570.01	-1762.75	  451.20
      5.1700	  949.00	  570.31	-1762.75	  451.50
      5.2700	  903.00	  570.60	-1762.75	  451.79
      5.3700	  928.00	  570.88	-1762.75	  452.07
      5.4700	  893.00	  571.16	-1762.75	  452.34
      5.5700	  846.00	  571.43	-1762.75	  452.61
      5.6700	  823.00	  571.69	-1762.75	  452.87
      5.7700	  815.00	  571.94	-1762.75	  453.12
      5.8700	  875.00	  572.18	-1762.75	  453.37
      5.9700	  789.00	  572.42	-1762.75	  453.61
      6.0700	  827.00	  572.65	-1762.75	  453.84
      6.1700	  769.00	  572.87	-1762.75	  454.06
      6.2700	  813.00	  573.09	-1762.75	  454.27
      6.3700	  772.00	  573.30	-1762.75	  454.48
      6.4700	  801.00	  573.50	-1762.75	  454.68
      6.5700	  775.00	  573.69	-1762.75	  454.88
      6.6700	  646.00	  573.88	-1762.75	  455.06
      6.7700	  734.00	  574.06	-1762.75	  455.24
      6.8700	  747.00	  574.23	-1762.75	  455.42
      6.9700	  710.00	  574.40	-1762.75	  455.58
      7.0700	  736.00	  574.56	-1762.75	  455.74
      7.1700	  740.00	  574.71	-1762.75	  455.89
      7.2700	  713.00	  574.85	-1762.75	  456.04
      7.3700	  700.00	  574.99	-1762.75	  456.18
      7.4700	  657.00	  575.13	-1762.75	  456.31
      7.5700	  661.00	  575.25	-1762.75	  456.44
      7.6700	  656.00	  575.37	-1762.75	  456.56
      7.7700	  683.00	  575.49	-1762.75	  456.67
      7.8700	  688.00	  575.59	-1762.75	  456.78
      7.9700	  631.00	  575.69	-1762.75	  456.88
      8.0700	  685.00	  575.79	-1762.75	  456.97
      8.1700	  602.00	  575.88	-1762.75	  457.06
      8.2700	  663.00	  575.96	-1762.75	  457.14
      8.3700	  675.00	  576.04	-1762.75	  457.22
      8.4700	  635.00	  576.11	-1762.75	  457.29
      8.5700	  653.00	  576.17	-1762.75	  457.36
      8.6700	  648.00	  576.23	-1762.75	  457.41
      8.7700	  628.00	  576.28	-1762.75	  457.47
      8.8700	  590.00	  576.33	-1762.75	  457.51
      8.9700	  609.00	  576.37	-1762.75	  457.55
      9.0700	  659.00	  576.40	-1762.75	  457.59
      9.1700	  576.00	  576.43	-1762.75	  457.62
      9.2700	  635.00	  576.46	-1762.75	  457.64
      9.3700	  629.00	  576.48	-1762.75	  457.66
      9.4700	  654.00	  576.49	-1762.75	  457.68
      9.5700	  556.00	  576.50	-1762.75	  457.68
      9.6700	  624.00	  576.50	-1762.75	  457.69
      9.7700	  599.00	  576.50	-1762.75	  457.68
      9.8700	  552.00	  576.49	-1762.75	  457.68
      9.9700	  613.00	  576.48	-1762.75	  457.66
     10.0700	  566.00	  577.12	-1773.87	  457.64
     10.1700	  615.00	  577.16	-1724.91	  457.62
     10.2700	  587.00	  577.22	-1752.97	  457.59
     10.3700	  612.00	  577.29	-1728.04	  457.56
     10.4700	  541.00	  577.41	-1799.16	  457.52
     10.5700	  619.00	  577.62	-1721.37	  457.48
     10.6700	  594.00	  578.01	-1746.76	  457.43
     10.7700	  562.00	  578.70	-1779.45	  457.37
     10.8700	  591.00	  579.75	-1751.50	  457.32
     10.9700	  537.00	  581.14	-1806.89	  457.25
     11.0700	  542.00	  582.85	-1803.60	  457.19
     11.1700	  576.00	  584.85	-1771.60	  457.11
     11.2700	  566.00	  587.19	-1783.94	  457.04
     11.3700	  574.00	  589.94	-1778.69	  456.96
     11.4700	  628.00	  593.21	-1727.96	  456.87
     11.5700	  588.00	  597.19	-1771.94	  456.78
     11.6700	  619.00	  602.19	-1745.94	  456.69
     11.7700	  619.00	  608.78	-1752.53	  456.59
     11.8700	  596.00	  617.89	-1784.64	  456.49
     11.9700	  651.00	  630.36	-1742.11	  456.38
     12.0700	  664.00	  644.96	-1743.71	  456.27
     12.1700	  668.00	  655.68	-1750.43	  456.15
     12.2700	  659.00	  652.63	-1756.38	  456.03
     12.3700	  659.00	  632.74	-1736.49	  455.91
     12.4700	  620.00	  608.65	-1751.40	  455.78
     12.5700	  610.00	  591.55	-1744.30	  455.65
     12.6700	  617.00	  582.74	-1728.49	  455.52
     12.7700	  580.00	  578.99	-1761.74	  455.38
     12.8700	  539.00	  577.36	-1801.11	  455.23
     12.9700	  573.00	  576.45	-1766.20	  455.09
     13.0700	  534.00	  575.81	-1804.56	  454.94
     13.1700	  538.00	  575.31	-1800.06	  454.78
     13.2700	  568.00	  574.89	-1769.64	  454.63
     13.3700	  560.00	  574.53	-1777.28	  454.46
     13.4700	  569.00	  574.21	-1767.96	  454.30
     13.5700	  557.00	  573.91	-1779.66	  454.13
     13.6700	  579.00	  573.64	-1757.39	  453.96
     13.7700	  578.00	  573.38	-1758.13	  453.78
     13.8700	  555.00	  573.13	-1780.88	  453.61
     13.9700	  530.00	  572.89	-1805.64	  453.42
     14.0700	  597.00	  572.66	-1738.41	  453.24
     14.1700	  625.00	  572.43	-1710.18	  453.05
     14.2700	  576.00	  572.20	-1758.95	  452.86
     14.3700	  555.00	  571.97	-1779.72	  452.66
     14.4700	  571.00	  571.75	-1763.50	  452.47
     14.5700	  576.00	  571.52	-1758.27	  452.26
     14.6700	  594.00	  571.30	-1740.05	  452.06
     14.7700	  539.00	  571.07	-1794.82	  451.85
     14.8700	  573.00	  570.84	-1760.59	  451.64
     14.9700	  591.00	  570.62	-1742.37	  451.43
     15.0700	  594.00	  570.39	-1739.14	  451.21
     15.1700	  567.00	  570.15	-1765.90	  451.00
     15.2700	  556.00	  569.92	-1776.67	  450.77
     15.3700	  584.00	  569.69	-1748.44	  450.55
     15.4700	  609.00	  569.45	-1723.20	  450.32
     15.5700	  567.00	  569.21	-1764.96	  450.09
     15.6700	  529.00	  568.97	-1802.72	  449.86
     15.7700	  565.00	  568.73	-1766.48	  449.63
     15.8700	  559.00	  568.49	-1772.24	  449.39
     15.9700	  642.00	  568.24	-1688.99	  449.15
     16.0700	  550.00	  567.99	-1780.74	  448.91
     16.1700	  552.00	  567.74	-1778.49	  448.66
     16.2700	  534.00	  567.49	-1796.24	  448.41
     16.3700	  582.00	  567.24	-1747.99	  448.16
     16.4700	  597.00	  567.01	-1732.76	  447.91
     16.5700	  537.00	  566.75	-1792.50	  447.66
     16.6700	  560.00	  566.49	-1769.24	  447.40
     16.7700	  570.00	  566.23	-1758.98	  447.14
     16.8700	  574.00	  565.96	-1754.71	  446.88
     16.9700	  556.00	  565.70	-1772.45	  446.62
     17.0700	  556.00	  565.43	-1772.18	  446.35
     17.1700	  528.00	  565.16	-1799.91	  446.09
     17.2700	  474.00	  564.89	-1853.64	  445.82
     17.3700	  559.00	  564.62	-1768.37	  445.54
     17.4700	  535.00	  564.34	-1792.09	  445.27
     17.5700	  576.00	  564.07	-1750.82	  445.00
     17.6700	  609.00	  563.79	-1717.54	  444.72
     17.7700	  555.00	  563.51	-1771.26	  444.44
     17.8700	  539.00	  563.33	-1787.08	  444.16
     17.9700	  609.00	  563.05	-1716.80	  443.88
     18.0700	  532.00	  562.77	-1793.52	  443.59
     18.1700	  590.00	  562.49	-1735.24	  443.31
     18.2700	  570.00	  562.20	-1754.95	  443.02
     18.3700	  565.00	  561.91	-1759.66	  442.73
     18.4700	  553.00	  561.62	-1771.37	  442.44
     18.5700	  566.00	  561.33	-1758.08	  442.14
     18.6700	  563.00	  561.04	-1760.79	  441.85
     18.7700	  584.00	  560.75	-1739.50	  441.55
     18.8700	  576.00	  560.54	-1747.29	  441.26
     18.9700	  549.00	  560.25	-1774.00	  440.96
     19.0700	  545.00	  559.95	-1777.70	  440.66
     19.1700	  578.00	  559.66	-1744.41	  440.36
     19.2700	  514.00	  559.36	-1808.11	  440.05
     19.3700	  565.00	  559.06	-1756.81	  439.75
     19.4700	  600.00	  558.76	-1721.51	  439.44
     19.5700	  556.00	  558.46	-1765.21	  439.14
     19.6700	  567.00	  558.16	-1753.91	  438.83
     19.7700	  566.00	  557.86	-1754.61	  438.52
     19.8700	  549.00	  557.56	-1771.31	  438.21
     19.9700	  594.00	  557.26	-1726.01	  437.90
     20.0700	  563.00	  556.95	-1756.70	  437.58
     20.1700	  549.00	  556.65	-1770.40	  437.27
     20.2700	  564.00	  556.34	-1755.09	  436.95
     20.3700	  565.00	  556.01	-1753.76	  436.64
     20.4700	  588.00	  555.71	-1730.46	  436.32
     20.5700	  543.00	  555.40	-1775.15	  436.00
     20.6700	  517.00	  555.10	-1800.85	  435.68
     20.7700	  575.00	  554.79	-1742.54	  435.36
     20.8700	  541.00	  554.48	-1776.23	  435.04
     20.9700	  545.00	  554.21	-1771.96	  434.72
     21.0700	  543.00	  553.91	-1773.66	  434.40
     21.1700	  556.00	  553.60	-1760.35	  434.08
     21.2700	  542.00	  553.30	-1774.05	  433.75
     21.3700	  522.00	  552.99	-1793.74	  433.43
     21.4700	  536.00	  552.69	-1779.44	  433.10
     21.5700	  554.00	  552.39	-1761.14	  432.78
     21.6700	  565.00	  552.09	-1749.84	  432.45
     21.7700	  569.00	  551.78	-1745.53	  432.12
     21.8700	  524.00	  551.48	-1790.23	  431.79
     21.9700	  601.00	  551.19	-1712.94	  431.47
     22.0700	  554.00	  550.89	-1759.64	  431.14
     22.1700	  543.00	  550.60	-1770.35	  430.81
     22.2700	  587.00	  550.30	-1726.05	  430.48
     22.3700	  538.00	  550.02	-1774.77	  430.15
     22.4700	  579.00	  549.73	-1733.48	  429.82
     22.5700	  549.00	  549.45	-1763.20	  429.48
     22.6700	  569.00	  549.18	-1742.93	  429.15
     22.7700	  535.00	  548.91	-1776.66	  428.82
     22.8700	  530.00	  548.65	-1781.40	  428.49
     22.9700	  550.00	  548.39	-1761.14	  428.15
     23.0700	  567.00	  548.15	-1743.90	  427.82
     23.1700	  558.00	  547.93	-1752.68	  427.49
     23.2700	  562.00	  547.72	-1748.47	  427.15
     23.3700	  509.00	  547.54	-1801.29	  426.82
     23.4700	  547.00	  547.38	-1763.13	  426.49
     23.5700	  535.00	  547.27	-1775.02	  426.15
     23.6700	  518.00	  547.22	-1791.97	  425.82
     23.7700	  531.00	  547.27	-1779.02	  425.48
     23.8700	  504.00	  547.64	-1806.39	  425.15
     23.9700	  532.00	  548.30	-1779.05	  424.82
     24.0700	  531.00	  549.82	-1781.57	  424.48
     24.1700	  556.00	  552.91	-1759.66	  424.15
     24.2700	  527.00	  558.45	-1794.20	  423.81
     24.3700	  597.00	  567.47	-1733.22	  423.48
     24.4700	  616.00	  581.19	-1727.94	  423.14
     24.5700	  577.00	  600.19	-1785.94	  422.81
     24.6700	  603.00	  621.76	-1781.51	  422.47
     24.7700	  599.00	  637.18	-1800.93	  422.14
     24.8700	  644.00	  634.31	-1753.06	  421.80
     24.9700	  589.00	  611.32	-1785.07	  421.47
     25.0700	  598.00	  583.40	-1748.15	  421.14
     25.1700	  567.00	  562.96	-1758.71	  420.80
     25.2700	  586.00	  551.93	-1728.68	  420.47
     25.3700	  552.00	  547.04	-1757.79	  420.14
     25.4700	  550.00	  544.93	-1757.68	  419.80
     25.5700	  588.00	  543.83	-1718.58	  419.47
     25.6700	  549.00	  543.11	-1756.86	  419.14
     25.7700	  542.00	  542.58	-1763.32	  418.81
     25.8700	  605.00	  542.17	-1699.92	  418.48
     25.9700	  584.00	  541.87	-1720.62	  418.14
     26.0700	  590.00	  541.65	-1714.40	  417.81
     26.1700	  590.00	  541.51	-1714.26	  417.48
     26.2700	  533.00	  541.44	-1771.19	  417.15
     26.3700	  519.00	  541.45	-1785.20	  416.82
     26.4700	  552.00	  541.55	-1752.30	  416.49
     26.5700	  578.00	  541.74	-1726.49	  416.17
     26.6700	  515.00	  542.05	-1789.80	  415.84
     26.7700	  535.00	  542.50	-1770.25	  415.51
     26.8700	  536.00	  543.13	-1769.88	  415.18
     26.9700	  525.00	  544.00	-1781.75	  414.86
     27.0700	  570.00	  545.19	-1737.94	  414.53
     27.1700	  551.00	  546.83	-1758.58	  414.20
     27.2700	  609.00	  549.19	-1702.94	  413.88
     27.3700	  558.00	  552.81	-1757.56	  413.56
     27.4700	  598.00	  558.70	-1723.45	  413.23
     27.5700	  528.00	  568.68	-1803.43	  412.91
     27.6700	  575.00	  585.59	-1773.34	  412.59
     27.7700	  533.00	  613.04	-1842.79	  412.27
     27.8700	  624.00	  654.05	-1792.80	  411.95
     27.9700	  672.00	  708.58	-1799.33	  411.63
     28.0700	  769.00	  770.20	-1763.95	  411.31
     28.1700	  922.00	  823.42	-1664.17	  410.99
     28.2700	  938.00	  845.24	-1669.99	  410.67
     28.3700	  889.00	  822.52	-1696.27	  410.35
     28.4700	  829.00	  777.28	-1711.03	  410.04
     28.5700	  702.00	  745.11	-1805.86	  409.72
     28.6700	  695.00	  742.20	-1809.95	  409.41
     28.7700	  744.00	  763.90	-1782.65	  409.10
     28.8700	  760.00	  790.49	-1793.24	  408.78
     28.9700	  803.00	  794.19	-1753.94	  408.47
     29.0700	  812.00	  757.53	-1708.28	  408.16
     29.1700	  702.00	  695.91	-1756.66	  407.85
     29.2700	  695.00	  637.36	-1705.11	  407.54
     29.3700	  597.00	  595.18	-1760.93	  407.23
     29.4700	  581.00	  569.68	-1751.43	  406.93
     29.5700	  554.00	  555.88	-1764.63	  406.62
     29.6700	  600.00	  548.58	-1711.33	  406.32
     29.7700	  587.00	  544.43	-1720.18	  406.01
     29.8700	  588.00	  541.84	-1716.59	  405.71
     29.9700	  601.00	  540.21	-1701.96	  405.41
     30.0700	  594.00	  539.38	-1708.13	  405.11
     30.1700	  556.00	  539.53	-1746.28	  404.81
     30.2700	  602.00	  541.23	-1701.98	  404.51
     30.3700	  566.00	  545.58	-1742.33	  404.21
     30.4700	  570.00	  554.29	-1747.04	  403.92
     30.5700	  519.00	  569.16	-1812.91	  403.62
     30.6700	  556.00	  590.74	-1797.49	  403.33
     30.7700	  603.00	  616.40	-1776.15	  403.03
     30.8700	  657.00	  638.82	-1744.57	  402.74
     30.9700	  589.00	  646.77	-1820.52	  402.45
     31.0700	  619.00	  632.58	-1776.33	  402.16
     31.1700	  654.00	  603.74	-1712.49	  401.88
     31.2700	  564.00	  574.90	-1773.65	  401.59
     31.3700	  547.00	  553.70	-1769.45	  401.30
     31.4700	  517.00	  540.90	-1786.65	  401.02
     31.5700	  537.00	  534.13	-1759.88	  400.74
     31.6700	  558.00	  530.66	-1735.41	  400.45
     31.7700	  514.00	  528.74	-1777.49	  400.17
     31.8700	  564.00	  527.52	-1726.27	  399.89
     31.9700	  555.00	  526.67	-1734.42	  399.62
     32.0700	  546.00	  526.05	-1742.80	  399.34
     32.1700	  556.00	  525.61	-1732.36	  399.06
     32.2700	  512.00	  525.32	-1776.07	  398.79
     32.3700	  545.00	  525.18	-1742.93	  398.52
     32.4700	  550.00	  525.19	-1737.94	  398.25
     32.5700	  537.00	  525.37	-1751.12	  397.98
     32.6700	  562.00	  525.72	-1726.47	  397.71
     32.7700	  553.00	  526.30	-1736.05	  397.44
     32.8700	  555.00	  527.17	-1734.92	  397.18
     32.9700	  537.00	  528.44	-1754.19	  396.91
     33.0700	  556.00	  530.29	-1737.04	  396.65
     33.1700	  547.00	  533.14	-1748.89	  396.39
     33.2700	  515.00	  537.98	-1785.73	  396.13
     33.3700	  590.00	  546.93	-1719.68	  395.87
     33.4700	  567.00	  564.28	-1760.03	  395.61
     33.5700	  593.00	  596.85	-1766.60	  395.36
     33.6700	  631.00	  652.79	-1784.54	  395.10
     33.7700	  770.00	  736.11	-1728.86	  394.85
     33.8700	  926.00	  838.15	-1674.90	  394.60
     33.9700	  965.00	  931.54	-1729.29	  394.35
     34.0700	 1021.00	  973.65	-1715.40	  394.10
     34.1700	  999.00	  932.61	-1696.36	  393.85
     34.2700	  874.00	  829.65	-1718.40	  393.61
     34.3700	  748.00	  718.75	-1733.50	  393.36
     34.4700	  669.00	  633.35	-1727.10	  393.12
     34.5700	  594.00	  580.27	-1749.02	  392.88
     34.6700	  570.00	  551.99	-1744.74	  392.64
     34.7700	  551.00	  538.02	-1749.77	  392.41
     34.8700	  515.00	  530.83	-1778.58	  392.17
     34.9700	  524.00	  526.54	-1765.29	  391.94
     35.0700	  499.00	  523.58	-1787.33	  391.70
     35.1700	  493.00	  521.34	-1791.09	  391.47
     35.2700	  494.00	  519.56	-1788.31	  391.24
     35.3700	  522.00	  518.11	-1758.86	  391.02
     35.4700	  534.00	  516.92	-1745.67	  390.79
     35.5700	  543.00	  515.90	-1735.65	  390.56
     35.6700	  553.00	  515.02	-1724.77	  390.34
     35.7700	  532.00	  514.26	-1745.01	  390.12
     35.8700	  535.00	  514.07	-1741.82	  389.90
     35.9700	  507.00	  513.48	-1769.23	  389.68
     36.0700	  548.00	  512.95	-1727.70	  389.47
     36.1700	  479.00	  512.47	-1796.22	  389.25
     36.2700	  519.00	  512.04	-1755.79	  389.04
     36.3700	  529.00	  511.64	-1745.39	  388.83
     36.4700	  507.00	  511.29	-1767.04	  388.62
     36.5700	  514.00	  510.97	-1759.72	  388.41
     36.6700	  488.00	  510.68	-1785.43	  388.20
     36.7700	  466.00	  510.44	-1807.19	  388.00
     36.8700	  501.00	  510.27	-1772.02	  387.80
     36.9700	  472.00	  510.20	-1800.95	  387.60
     37.0700	  522.00	  510.37	-1751.12	  387.40
     37.1700	  522.00	  511.01	-1751.76	  387.20
     37.2700	  491.00	  512.51	-1784.26	  387.00
     37.3700	  543.00	  515.32	-1735.07	  386.81
     37.4700	  530.00	  519.55	-1752.30	  386.62
     37.5700	  516.00	  524.63	-1771.38	  386.43
     37.6700	  559.00	  529.11	-1732.86	  386.24
     37.7700	  512.00	  531.22	-1781.97	  386.05
     37.8700	  506.00	  530.31	-1787.06	  385.86
     37.9700	  540.00	  527.49	-1750.24	  385.68
     38.0700	  484.00	  523.74	-1802.49	  385.50
     38.1700	  501.00	  519.43	-1781.18	  385.32
     38.2700	  510.00	  515.19	-1767.94	  385.14
     38.3700	  484.00	  511.69	-1790.44	  384.96
     38.4700	  532.00	  509.21	-1739.96	  384.79
     38.5700	  528.00	  507.64	-1742.39	  384.61
     38.6700	  507.00	  506.70	-1762.45	  384.44
     38.7700	  466.00	  506.14	-1802.89	  384.27
     38.8700	  510.00	  505.66	-1758.41	  384.11
     38.9700	  493.00	  505.37	-1775.12	  383.94
     39.0700	  525.00	  505.12	-1742.87	  383.78
     39.1700	  504.00	  504.90	-1763.65	  383.61
     39.2700	  521.00	  504.62	-1746.37	  383.45
     39.3700	  514.00	  504.44	-1753.19	  383.29
     39.4700	  506.00	  504.27	-1761.02	  383.14
     39.5700	  505.00	  504.12	-1761.87	  382.98
     39.6700	  495.00	  503.97	-1771.72	  382.83
     39.7700	  463.00	  503.95	-1803.70	  382.68
     39.8700	  535.00	  503.83	-1731.58	  382.53
     39.9700	  506.00	  503.71	-1760.46	  382.38
     40.0700	  475.00	  503.61	-1791.36	  382.23
     40.1700	  481.00	  503.52	-1785.27	  382.09
     40.2700	  525.00	  503.43	-1741.18	  381.94
     40.3700	  472.00	  503.36	-1794.11	  381.80
     40.4700	  525.00	  503.30	-1741.05	  381.67
     40.5700	  490.00	  503.26	-1776.01	  381.53
     40.6700	  476.00	  503.23	-1789.98	  381.39
     40.7700	  486.00	  503.23	-1779.98	  381.26
     40.8700	  491.00	  503.24	-1774.99	  381.13
     40.9700	  516.00	  503.28	-1750.03	  381.00
     41.0700	  490.00	  503.36	-1776.11	  380.87
     41.1700	  484.00	  503.43	-1782.18	  380.74
     41.2700	  491.00	  503.60	-1775.35	  380.62
     41.3700	  495.00	  503.82	-1771.57	  380.50
     41.4700	  519.00	  504.12	-1747.87	  380.38
     41.5700	  491.00	  504.54	-1776.29	  380.26
     41.6700	  463.00	  505.54	-1805.29	  380.14
     41.7700	  498.00	  506.42	-1771.17	  380.02
     41.8700	  512.00	  507.89	-1758.64	  379.91
     41.9700	  498.00	  510.66	-1775.41	  379.80
     42.0700	  478.00	  516.13	-1800.88	  379.69
     42.1700	  519.00	  526.65	-1770.40	  379.58
     42.2700	  536.00	  545.18	-1771.93	  379.47
     42.3700	  544.00	  573.44	-1792.19	  379.37
     42.4700	  555.00	  609.65	-1817.40	  379.27
     42.5700	  588.00	  646.03	-1820.78	  379.17
     42.6700	  588.00	  669.51	-1844.26	  379.07
     42.7700	  621.00	  667.66	-1809.41	  378.97
     42.8700	  548.00	  640.73	-1855.48	  378.88
     42.9700	  507.00	  602.36	-1858.11	  378.78
     43.0700	  534.00	  566.34	-1795.09	  378.69
     43.1700	  527.00	  539.56	-1775.31	  378.60
     43.2700	  554.00	  522.84	-1731.58	  378.51
     43.3700	  453.00	  513.73	-1823.48	  378.43
     43.4700	  515.00	  509.16	-1756.91	  378.34
     43.5700	  497.00	  506.85	-1772.60	  378.26
     43.6700	  502.00	  505.56	-1766.31	  378.18
     43.7700	  523.00	  504.91	-1744.66	  378.10
     43.8700	  508.00	  504.32	-1759.07	  378.02
     43.9700	  523.00	  503.87	-1743.62	  377.95
     44.0700	  472.00	  503.52	-1794.27	  377.87
     44.1700	  501.00	  503.26	-1765.01	  377.80
     44.2700	  495.00	  503.09	-1770.84	  377.73
     44.3700	  487.00	  502.94	-1778.69	  377.66
     44.4700	  524.00	  502.71	-1741.46	  377.60
     44.5700	  519.00	  502.64	-1746.39	  377.53
     44.6700	  531.00	  502.60	-1734.35	  377.47
     44.7700	  532.00	  502.59	-1733.34	  377.41
     44.8700	  487.00	  502.60	-1778.35	  377.35
     44.9700	  508.00	  502.64	-1757.39	  377.29
     45.0700	  538.00	  502.70	-1727.45	  377.24
     45.1700	  525.00	  502.78	-1740.53	  377.18
     45.2700	  492.00	  503.06	-1773.81	  377.13
     45.3700	  503.00	  503.19	-1762.94	  377.08
     45.4700	  511.00	  503.34	-1755.09	  377.03
     45.5700	  509.00	  503.51	-1757.26	  376.98
     45.6700	  496.00	  503.71	-1770.46	  376.94
     45.7700	  557.00	  503.93	-1709.68	  376.89
     45.8700	  490.00	  504.18	-1776.93	  376.85
     45.9700	  516.00	  504.46	-1751.21	  376.81
     46.0700	  481.00	  504.78	-1786.53	  376.77
     46.1700	  492.00	  505.13	-1775.88	  376.74
     46.2700	  463.00	  505.53	-1805.28	  376.70
     46.3700	  519.00	  505.97	-1749.72	  376.67
     46.4700	  513.00	  506.47	-1756.22	  376.64
     46.5700	  531.00	  507.04	-1738.79	  376.61
     46.6700	  472.00	  507.68	-1798.43	  376.58
     46.7700	  518.00	  508.44	-1753.19	  376.55
     46.8700	  514.00	  509.34	-1758.09	  376.53
     46.9700	  490.00	  510.51	-1783.26	  376.51
     47.0700	  478.00	  512.19	-1796.94	  376.49
     47.1700	  529.00	  514.87	-1748.62	  376.47
     47.2700	  506.00	  519.48	-1776.23	  376.45
     47.3700	  518.00	  527.24	-1771.99	  376.43
     47.4700	  544.00	  539.45	-1758.20	  376.42
     47.5700	  562.00	  556.36	-1757.11	  376.41
     47.6700	  574.00	  576.43	-1765.18	  376.39
     47.7700	  628.00	  595.46	-1730.21	  376.39
     47.8700	  618.00	  607.31	-1752.06	  376.38
     47.9700	  638.00	  607.03	-1731.78	  376.37
     48.0700	  598.00	  595.44	-1760.19	  376.37
     48.1700	  586.00	  578.57	-1755.32	  376.36
     48.2700	  555.00	  562.58	-1770.33	  376.36
     48.3700	  559.00	  550.86	-1754.61	  376.36
     48.4700	  514.00	  544.41	-1793.16	  376.37
     48.5700	  521.00	  542.57	-1784.32	  376.37
     48.6700	  527.00	  544.11	-1779.86	  376.37
     48.7700	  508.00	  548.04	-1802.79	  376.38
     48.8700	  530.00	  553.90	-1786.65	  376.39
     48.9700	  502.00	  561.78	-1822.53	  376.40
     49.0700	  579.00	  572.41	-1756.16	  376.41
     49.1700	  574.00	  587.55	-1776.30	  376.42
     49.2700	  601.00	  610.81	-1772.56	  376.44
     49.3700	  716.00	  649.02	-1695.77	  376.46
     49.4700	  711.00	  713.48	-1765.23	  376.47
     49.5700	  849.00	  820.21	-1733.96	  376.49
     49.6700	  948.00	  987.43	-1802.18	  376.52
     49.7700	 1177.00	 1227.58	-1813.33	  376.54
     49.8700	 1478.00	 1538.57	-1823.32	  376.56
     49.9700	 1823.00	 1891.04	-1830.79	  376.59
     50.0700	 2181.00	 2219.75	-1801.50	  376.61
     50.1700	 2542.00	 2428.08	-1648.83	  376.64
     50.2700	 2559.00	 2430.56	-1634.31	  376.67
     50.3700	 2300.00	 2223.82	-1686.57	  376.71
     50.4700	 1851.00	 1893.80	-1805.55	  376.74
     50.5700	 1322.00	 1541.61	-1982.36	  376.77
     50.6700	 1062.00	 1234.13	-1934.88	  376.81
     50.7700	  776.00	 1000.56	-1987.31	  376.85
     50.8700	  700.00	  842.69	-1905.44	  376.89
     50.9700	  685.00	  745.89	-1823.64	  376.93
     51.0700	  682.00	  689.65	-1770.40	  376.97
     51.1700	  648.00	  655.26	-1770.01	  377.01
     51.2700	  592.00	  630.11	-1800.86	  377.06
     51.3700	  618.00	  608.78	-1753.53	  377.11
     51.4700	  602.00	  590.37	-1751.12	  377.15
     51.5700	  559.00	  575.34	-1779.09	  377.20
     51.6700	  577.00	  563.96	-1749.71	  377.25
     51.7700	  564.00	  555.92	-1754.67	  377.31
     51.8700	  563.00	  550.47	-1750.22	  377.36
     51.9700	  559.00	  546.78	-1750.53	  377.41
     52.0700	  526.00	  544.24	-1780.99	  377.47
     52.1700	  536.00	  542.57	-1769.32	  377.53
     52.2700	  502.00	  541.71	-1802.46	  377.59
     52.3700	  600.00	  541.99	-1704.74	  377.65
     52.4700	  587.00	  543.37	-1719.12	  377.71
     52.5700	  602.00	  546.94	-1707.69	  377.77
     52.6700	  587.00	  554.67	-1730.42	  377.84
     52.7700	  598.00	  570.32	-1735.07	  377.90
     52.8700	  647.00	  599.98	-1715.73	  377.97
     52.9700	  737.00	  651.53	-1677.28	  378.04
     53.0700	  794.00	  732.11	-1700.86	  378.11
     53.1700	  891.00	  843.36	-1715.11	  378.18
     53.2700	 1003.00	  976.12	-1735.87	  378.25
     53.3700	 1100.00	 1106.93	-1769.68	  378.33
     53.4700	 1188.00	 1199.97	-1774.72	  378.40
     53.5700	 1150.00	 1220.25	-1833.00	  378.48
     53.6700	 1113.00	 1158.30	-1808.05	  378.55
     53.7700	 1000.00	 1039.83	-1802.58	  378.63
     53.8700	  857.00	  903.73	-1809.48	  378.71
     53.9700	  727.00	  780.35	-1816.10	  378.79
     54.0700	  629.00	  685.32	-1819.07	  378.88
     54.1700	  651.00	  621.35	-1733.10	  378.96
     54.2700	  581.00	  583.03	-1764.78	  379.04
     54.3700	  568.00	  562.22	-1756.97	  379.13
     54.4700	  617.00	  551.78	-1697.53	  379.22
     54.5700	  539.00	  546.82	-1770.57	  379.31
     54.6700	  557.00	  544.65	-1750.40	  379.39
     54.7700	  553.00	  543.96	-1753.71	  379.49
     54.8700	  526.00	  544.21	-1780.96	  379.58
     54.9700	  556.00	  545.19	-1751.94	  379.67
     55.0700	  541.00	  546.84	-1768.59	  379.76
     55.1700	  565.00	  549.18	-1746.93	  379.86
     55.2700	  565.00	  552.27	-1750.02	  379.96
     55.3700	  575.00	  556.23	-1743.98	  380.05
     55.4700	  530.00	  561.28	-1794.03	  380.15
     55.5700	  579.00	  567.76	-1751.51	  380.25
     55.6700	  598.00	  576.42	-1741.17	  380.35
     55.7700	  555.00	  588.83	-1796.58	  380.45
     55.8700	  588.00	  608.14	-1782.89	  380.56
     55.9700	  651.00	  640.36	-1752.11	  380.66
     56.0700	  663.00	  695.69	-1795.44	  380.76
     56.1700	  707.00	  789.12	-1844.87	  380.87
     56.2700	  829.00	  938.88	-1872.63	  380.98
     56.3700	 1102.00	 1161.24	-1821.99	  381.08
     56.4700	 1374.00	 1461.68	-1850.43	  381.19
     56.5700	 1760.00	 1824.83	-1827.58	  381.30
     56.6700	 2039.00	 2206.34	-1930.09	  381.41
     56.7700	 2519.00	 2530.65	-1774.40	  381.53
     56.8700	 2581.00	 2704.88	-1886.63	  381.64
     56.9700	 2621.00	 2664.52	-1806.27	  381.75
     57.0700	 2428.00	 2425.23	-1759.98	  381.87
     57.1700	 2043.00	 2070.08	-1789.83	  381.98
     57.2700	 1612.00	 1690.20	-1840.95	  382.10
     57.3700	 1347.00	 1350.05	-1765.80	  382.22
     57.4700	 1084.00	 1082.42	-1761.17	  382.34
     57.5700	  818.00	  893.77	-1838.52	  382.45
     57.6700	  761.00	  773.72	-1775.47	  382.57
     57.7700	  694.00	  705.15	-1773.90	  382.70
     57.8700	  724.00	  671.93	-1710.68	  382.82
     57.9700	  676.00	  662.83	-1749.58	  382.94
     58.0700	  673.00	  671.94	-1761.69	  383.06
     58.1700	  717.00	  697.35	-1743.10	  383.19
     58.2700	  755.00	  739.20	-1746.95	  383.31
     58.3700	  876.00	  797.78	-1684.53	  383.44
     58.4700	  975.00	  871.80	-1659.55	  383.57
     58.5700	 1138.00	  956.84	-1581.59	  383.69
     58.6700	 1239.00	 1044.70	-1568.45	  383.82
     58.7700	 1391.00	 1125.74	-1497.49	  383.95
     58.8700	 1556.00	 1193.16	-1399.91	  384.08
     58.9700	 1556.00	 1243.10	-1449.85	  384.21
     59.0700	 1649.00	 1270.48	-1384.23	  384.34
     59.1700	 1568.00	 1270.70	-1465.45	  384.47
     59.2700	 1455.00	 1247.43	-1555.18	  384.61
     59.3700	 1428.00	 1213.02	-1547.77	  384.74
     59.4700	 1218.00	 1180.23	-1724.98	  384.87
     59.5700	 1166.00	 1157.35	-1754.10	  385.01
     59.6700	 1126.00	 1151.12	-1787.87	  385.15
     59.7700	 1146.00	 1169.64	-1786.39	  385.28
     59.8700	 1241.00	 1218.74	-1740.49	  385.42
     59.9700	 1297.00	 1295.49	-1761.24	  385.56
     60.0700	 1498.00	 1384.61	-1649.36	  385.69
     60.1700	 1567.00	 1458.98	-1654.73	  385.83
     60.2700	 1605.00	 1486.31	-1644.06	  385.97
     60.3700	 1582.00	 1445.93	-1626.68	  386.11
     60.4700	 1416.00	 1343.58	-1690.33	  386.25
     60.5700	 1295.00	 1205.18	-1672.93	  386.39
     60.6700	 1094.00	 1059.07	-1727.82	  386.54
     60.7700	  886.00	  926.10	-1802.85	  386.68
     60.8700	  831.00	  818.11	-1749.86	  386.82
     60.9700	  663.00	  739.24	-1838.99	  386.96
     61.0700	  685.00	  688.49	-1766.24	  387.11
     61.1700	  606.00	  662.68	-1819.43	  387.25
     61.2700	  621.00	  659.18	-1800.93	  387.40
     61.3700	  657.00	  677.64	-1783.39	  387.54
     61.4700	  671.00	  720.15	-1811.90	  387.69
     61.5700	  752.00	  790.03	-1800.78	  387.83
     61.6700	  894.00	  889.39	-1758.14	  387.98
     61.7700	  970.00	 1016.11	-1808.86	  388.13
     61.8700	 1054.00	 1161.12	-1869.87	  388.28
     61.9700	 1192.00	 1306.54	-1877.29	  388.42
     62.0700	 1378.00	 1425.78	-1810.53	  388.57
     62.1700	 1343.00	 1488.40	-1908.15	  388.72
     62.2700	 1411.00	 1474.08	-1825.83	  388.87
     62.3700	 1334.00	 1387.05	-1815.80	  389.02
     62.4700	 1186.00	 1252.93	-1829.68	  389.17
     62.5700	 1017.00	 1102.07	-1847.82	  389.32
     62.6700	  879.00	  958.25	-1842.00	  389.47
     62.7700	  744.00	  836.06	-1854.81	  389.62
     62.8700	  673.00	  741.55	-1831.30	  389.77
     62.9700	  607.00	  674.21	-1829.96	  389.92
     63.0700	  625.00	  629.57	-1767.32	  390.08
     63.1700	  626.00	  601.77	-1738.52	  390.23
     63.2700	  585.00	  585.40	-1763.15	  390.38
     63.3700	  542.00	  576.43	-1797.18	  390.53
     63.4700	  565.00	  572.46	-1770.21	  390.69
     63.5700	  618.00	  572.56	-1717.31	  390.84
     63.6700	  559.00	  577.09	-1780.84	  390.99
     63.7700	  602.00	  587.39	-1748.14	  391.15
     63.8700	  604.00	  605.53	-1764.28	  391.30
     63.9700	  623.00	  633.78	-1773.53	  391.46
     64.0700	  689.00	  673.74	-1747.49	  391.61
     64.1700	  792.00	  725.40	-1696.15	  391.77
     64.2700	  851.00	  786.10	-1697.85	  391.92
     64.3700	  862.00	  849.88	-1750.63	  392.08
     64.4700	  957.00	  907.49	-1713.24	  392.23
     64.5700	 1004.00	  947.94	-1706.69	  392.39
     64.6700	  994.00	  961.76	-1730.51	  392.54
     64.7700	  994.00	  947.78	-1716.53	  392.70
     64.8700	  973.00	  910.40	-1700.15	  392.85
     64.9700	  872.00	  858.61	-1749.36	  393.01
     65.0700	  888.00	  802.19	-1676.94	  393.16
     65.1700	  834.00	  749.02	-1677.77	  393.32
     65.2700	  738.00	  703.57	-1728.32	  393.48
     65.3700	  675.00	  666.98	-1754.73	  393.63
     65.4700	  641.00	  638.34	-1760.09	  393.79
     65.5700	  652.00	  616.12	-1726.87	  393.94
     65.6700	  588.00	  598.98	-1773.73	  394.10
     65.7700	  604.00	  586.01	-1744.76	  394.26
     65.8700	  555.00	  576.49	-1784.24	  394.41
     65.9700	  547.00	  569.91	-1785.66	  394.57
     66.0700	  583.00	  565.81	-1745.56	  394.72
     66.1700	  563.00	  563.79	-1763.54	  394.88
     66.2700	  558.00	  563.47	-1768.22	  395.03
     66.3700	  540.00	  564.56	-1787.31	  395.19
     66.4700	  524.00	  566.90	-1805.65	  395.35
     66.5700	  543.00	  570.54	-1790.29	  395.50
     66.6700	  593.00	  575.81	-1745.56	  395.66
     66.7700	  589.00	  583.66	-1757.41	  395.81
     66.8700	  594.00	  595.52	-1764.27	  395.97
     66.9700	  604.00	  614.36	-1773.11	  396.12
     67.0700	  623.00	  644.78	-1784.53	  396.28
     67.1700	  671.00	  693.48	-1785.23	  396.43
     67.2700	  750.00	  769.05	-1781.80	  396.59
     67.3700	  848.00	  880.93	-1795.68	  396.74
     67.4700	 1021.00	 1036.99	-1778.74	  396.90
     67.5700	 1241.00	 1240.84	-1762.59	  397.05
     67.6700	 1499.00	 1487.07	-1750.82	  397.21
     67.7700	 1817.00	 1759.38	-1705.13	  397.36
     67.8700	 2082.00	 2028.79	-1709.54	  397.51
     67.9700	 2276.00	 2254.43	-1741.18	  397.67
     68.0700	 2345.00	 2390.34	-1808.09	  397.82
     68.1700	 2378.00	 2401.83	-1786.58	  397.97
     68.2700	 2338.00	 2285.68	-1710.43	  398.12
     68.3700	 2103.00	 2072.36	-1732.11	  398.28
     68.4700	 1868.00	 1807.59	-1702.34	  398.43
     68.5700	 1550.00	 1533.71	-1746.46	  398.58
     68.6700	 1257.00	 1281.98	-1787.73	  398.73
     68.7700	  999.00	 1070.88	-1834.63	  398.88
     68.8700	  921.00	  907.26	-1749.01	  399.03
     68.9700	  741.00	  788.88	-1810.63	  399.18
     69.0700	  720.00	  708.40	-1751.15	  399.33
     69.1700	  673.00	  656.34	-1746.09	  399.48
     69.2700	  611.00	  623.90	-1775.65	  399.63
     69.3700	  611.00	  604.03	-1755.78	  399.78
     69.4700	  604.00	  591.76	-1750.51	  399.93
     69.5700	  602.00	  583.96	-1744.71	  400.08
     69.6700	  588.00	  578.80	-1753.55	  400.22
     69.7700	  598.00	  575.26	-1740.01	  400.37
     69.8700	  607.00	  572.81	-1728.56	  400.52
     69.9700	  581.00	  571.21	-1752.96	  400.66
     70.0700	  532.00	  570.32	-1801.07	  400.81
     70.1700	  522.00	  570.10	-1810.85	  400.96
     70.2700	  608.00	  570.55	-1725.30	  401.10
     70.3700	  547.00	  571.80	-1787.55	  401.24
     70.4700	  574.00	  574.01	-1762.76	  401.39
     70.5700	  563.00	  577.66	-1777.41	  401.53
     70.6700	  567.00	  583.57	-1779.32	  401.67
     70.7700	  567.00	  593.19	-1788.94	  401.82
     70.8700	  542.00	  608.89	-1829.64	  401.96
     70.9700	  618.00	  634.22	-1778.97	  402.10
     71.0700	  674.00	  674.02	-1762.77	  402.24
     71.1700	  732.00	  734.23	-1764.98	  402.38
     71.2700	  746.00	  820.94	-1837.69	  402.52
     71.3700	  879.00	  939.84	-1823.59	  402.66
     71.4700	 1091.00	 1090.77	-1762.52	  402.80
     71.5700	 1223.00	 1270.78	-1810.53	  402.93
     71.6700	 1397.00	 1469.10	-1834.85	  403.07
     71.7700	 1616.00	 1667.26	-1814.01	  403.21
     71.8700	 1823.00	 1839.70	-1779.45	  403.34
     71.9700	 1944.00	 1957.04	-1775.79	  403.48
     72.0700	 1923.00	 1994.32	-1834.07	  403.61
     72.1700	 1922.00	 1942.71	-1783.46	  403.75
     72.2700	 1830.00	 1814.46	-1747.21	  403.88
     72.3700	 1699.00	 1637.11	-1700.86	  404.01
     72.4700	 1575.00	 1439.33	-1627.08	  404.14
     72.5700	 1407.00	 1245.23	-1600.98	  404.27
     72.6700	 1236.00	 1071.53	-1598.28	  404.40
     72.7700	 1087.00	  927.32	-1603.07	  404.53
     72.8700	  908.00	  815.05	-1669.80	  404.66
     72.9700	  893.00	  732.37	-1602.12	  404.79
     73.0700	  835.00	  674.25	-1602.00	  404.92
     73.1700	  770.00	  634.82	-1627.57	  405.04
     73.2700	  659.00	  608.68	-1712.43	  405.17
     73.3700	  636.00	  591.47	-1718.22	  405.29
     73.4700	  677.00	  580.07	-1665.82	  405.42
     73.5700	  619.00	  572.40	-1716.15	  405.54
     73.6700	  606.00	  567.21	-1723.96	  405.66
     73.7700	  583.00	  563.74	-1743.49	  405.78
     73.8700	  625.00	  561.57	-1699.32	  405.90
     73.9700	  588.00	  560.42	-1735.17	  406.02
     74.0700	  648.00	  560.11	-1674.86	  406.14
     74.1700	  635.00	  560.45	-1688.20	  406.26
     74.2700	  584.00	  561.24	-1739.99	  406.38
     74.3700	  636.00	  562.19	-1688.94	  406.49
     74.4700	  627.00	  563.01	-1698.76	  406.61
     74.5700	  603.00	  563.38	-1723.13	  406.72
     74.6700	  661.00	  563.03	-1664.78	  406.83
     74.7700	  613.00	  561.89	-1711.64	  406.95
     74.8700	  623.00	  560.11	-1699.86	  407.06
     74.9700	  621.00	  557.98	-1699.73	  407.17
     75.0700	  593.00	  555.82	-1725.57	  407.28
     75.1700	  607.00	  554.06	-1709.81	  407.39
     75.2700	  543.00	  553.03	-1772.78	  407.49
     75.3700	  546.00	  553.05	-1769.80	  407.60
     75.4700	  552.00	  554.65	-1765.40	  407.71
     75.5700	  570.00	  558.24	-1750.99	  407.81
     75.6700	  565.00	  564.22	-1761.97	  407.91
     75.7700	  570.00	  573.25	-1766.00	  408.02
     75.8700	  605.00	  585.57	-1743.32	  408.12
     75.9700	  638.00	  601.17	-1725.92	  408.22
     76.0700	  599.00	  619.63	-1783.38	  408.32
     76.1700	  601.00	  639.89	-1801.64	  408.42
     76.2700	  681.00	  660.31	-1742.06	  408.51
     76.3700	  689.00	  678.65	-1752.40	  408.61
     76.4700	  702.00	  692.33	-1753.08	  408.71
     76.5700	  692.00	  698.93	-1769.68	  408.80
     76.6700	  720.00	  697.08	-1739.83	  408.89
     76.7700	  664.00	  687.17	-1785.92	  408.98
     76.8700	  671.00	  671.08	-1762.83	  409.07
     76.9700	  635.00	  651.21	-1778.96	  409.16
     77.0700	  625.00	  630.39	-1768.14	  409.25
     77.1700	  563.00	  610.45	-1810.20	  409.34
     77.2700	  539.00	  592.77	-1816.52	  409.43
     77.3700	  555.00	  578.07	-1785.82	  409.51
     77.4700	  533.00	  566.57	-1796.32	  409.60
     77.5700	  537.00	  558.04	-1783.79	  409.68
     77.6700	  544.00	  552.02	-1770.77	  409.76
     77.7700	  540.00	  547.96	-1770.71	  409.84
     77.8700	  506.00	  545.31	-1802.06	  409.92
     77.9700	  555.00	  543.63	-1751.38	  410.00
     78.0700	  544.00	  542.59	-1761.34	  410.07
     78.1700	  518.00	  541.96	-1786.71	  410.15
     78.2700	  545.00	  541.57	-1759.32	  410.22
     78.3700	  538.00	  541.35	-1766.10	  410.30
     78.4700	  527.00	  541.24	-1776.99	  410.37
     78.5700	  570.00	  541.23	-1733.98	  410.44
     78.6700	  559.00	  541.30	-1745.05	  410.51
     78.7700	  530.00	  541.47	-1774.22	  410.58
     78.8700	  534.00	  541.75	-1770.50	  410.64
     78.9700	  546.00	  542.18	-1758.93	  410.71
     79.0700	  571.00	  542.79	-1734.54	  410.77
     79.1700	  542.00	  543.63	-1764.38	  410.84
     79.2700	  562.00	  544.59	-1745.34	  410.90
     79.3700	  504.00	  546.08	-1804.83	  410.96
     79.4700	  535.00	  548.00	-1775.75	  411.02
     79.5700	  525.00	  550.42	-1788.17	  411.07
     79.6700	  513.00	  553.44	-1803.19	  411.13
     79.7700	  570.00	  557.16	-1749.91	  411.19
     79.8700	  545.00	  561.74	-1779.49	  411.24
     79.9700	  533.00	  567.36	-1797.11	  411.29
     80.0700	  544.00	  574.25	-1793.00	  411.34
     80.1700	  519.00	  582.70	-1826.45	  411.39
     80.2700	  570.00	  593.03	-1785.78	  411.44
     80.3700	  565.00	  605.52	-1803.27	  411.49
     80.4700	  630.00	  620.27	-1753.02	  411.53
     80.5700	  588.00	  637.14	-1811.89	  411.58
     80.6700	  647.00	  655.62	-1771.37	  411.62
     80.7700	  645.00	  674.82	-1792.57	  411.66
     80.8700	  663.00	  693.47	-1793.22	  411.70
     80.9700	  680.00	  710.12	-1792.87	  411.74
     81.0700	  714.00	  723.39	-1772.14	  411.78
     81.1700	  719.00	  732.19	-1775.94	  411.81
     81.2700	  775.00	  735.79	-1723.54	  411.85
     81.3700	  723.00	  733.92	-1773.67	  411.88
     81.4700	  780.00	  726.84	-1709.59	  411.91
     81.5700	  794.00	  715.29	-1684.04	  411.94
     81.6700	  739.00	  700.30	-1724.05	  411.97
     81.7700	  760.00	  682.96	-1685.71	  412.00
     81.8700	  713.00	  664.41	-1714.16	  412.02
     81.9700	  710.00	  645.71	-1698.46	  412.05
     82.0700	  696.00	  627.93	-1694.68	  412.07
     82.1700	  716.00	  611.75	-1658.50	  412.09
     82.2700	  640.00	  597.62	-1720.37	  412.11
     82.3700	  632.00	  585.73	-1716.48	  412.13
     82.4700	  628.00	  576.08	-1710.83	  412.15
     82.5700	  603.00	  568.56	-1728.31	  412.16
     82.6700	  607.00	  563.03	-1718.78	  412.18
     82.7700	  531.00	  559.29	-1791.04	  412.19
     82.8700	  525.00	  557.16	-1794.91	  412.20
     82.9700	  552.00	  556.49	-1767.24	  412.21
     83.0700	  534.00	  557.17	-1785.92	  412.22
     83.1700	  521.00	  559.09	-1800.84	  412.22
     83.2700	  548.00	  562.14	-1776.89	  412.23
     83.3700	  569.00	  566.17	-1759.92	  412.23
     83.4700	  534.00	  570.96	-1799.71	  412.23
     83.5700	  529.00	  576.19	-1809.94	  412.23
     83.6700	  565.00	  581.46	-1779.21	  412.23
     83.7700	  574.00	  586.28	-1775.03	  412.23
     83.8700	  583.00	  590.09	-1769.84	  412.22
     83.9700	  523.00	  592.36	-1832.11	  412.22
     84.0700	  553.00	  592.69	-1802.44	  412.21
     84.1700	  560.00	  591.01	-1793.76	  412.20
     84.2700	  608.00	  587.56	-1742.31	  412.19
     84.3700	  577.00	  582.80	-1768.55	  412.18
     84.4700	  518.00	  577.27	-1822.02	  412.17
     84.5700	  520.00	  571.49	-1814.24	  412.15
     84.6700	  546.00	  565.87	-1782.62	  412.13
     84.7700	  527.00	  560.72	-1796.47	  412.11
     84.8700	  563.00	  556.25	-1756.00	  412.09
     84.9700	  523.00	  552.55	-1792.30	  412.07
     85.0700	  560.00	  549.64	-1752.39	  412.05
     85.1700	  519.00	  547.49	-1791.24	  412.02
     85.2700	  501.00	  546.01	-1807.76	  412.00
     85.3700	  535.00	  545.11	-1772.86	  411.97
     85.4700	  522.00	  544.70	-1785.45	  411.94
     85.5700	  527.00	  544.70	-1780.45	  411.91
     85.6700	  534.00	  545.05	-1773.80	  411.88
     85.7700	  504.00	  545.72	-1804.47	  411.84
     85.8700	  492.00	  546.70	-1817.45	  411.81
     85.9700	  540.00	  548.01	-1770.76	  411.77
     86.0700	  512.00	  549.69	-1800.44	  411.73
     86.1700	  572.00	  551.80	-1742.55	  411.69
     86.2700	  551.00	  554.44	-1766.19	  411.65
     86.3700	  550.00	  557.72	-1770.47	  411.60
     86.4700	  559.00	  561.76	-1765.51	  411.56
     86.5700	  555.00	  566.68	-1774.43	  411.51
     86.6700	  587.00	  572.54	-1748.29	  411.46
     86.7700	  597.00	  579.02	-1744.77	  411.41
     86.8700	  598.00	  586.56	-1751.31	  411.36
     86.9700	  566.00	  594.55	-1791.30	  411.30
     87.0700	  602.00	  602.53	-1763.28	  411.25
     87.1700	  689.00	  609.89	-1683.64	  411.19
     87.2700	  662.00	  615.96	-1716.71	  411.13
     87.3700	  663.00	  620.02	-1719.77	  411.07
     87.4700	  670.00	  621.55	-1714.30	  411.01
     87.5700	  610.00	  620.30	-1773.05	  410.95
     87.6700	  645.00	  616.46	-1734.21	  410.88
     87.7700	  675.00	  610.59	-1698.34	  410.82
     87.8700	  606.00	  603.45	-1760.20	  410.75
     87.9700	  595.00	  595.85	-1763.60	  410.68
     88.0700	  642.00	  588.53	-1709.28	  410.61
     88.1700	  607.00	  582.15	-1737.90	  410.53
     88.2700	  581.00	  577.19	-1758.94	  410.46
     88.3700	  612.00	  574.00	-1724.75	  410.38
     88.4700	  579.00	  572.76	-1756.51	  410.30
     88.5700	  546.00	  573.48	-1790.23	  410.22
     88.6700	  564.00	  576.00	-1774.75	  410.14
     88.7700	  615.00	  580.07	-1727.82	  410.06
     88.8700	  583.00	  585.28	-1765.03	  409.98
     88.9700	  587.00	  591.15	-1766.90	  409.89
     89.0700	  636.00	  597.10	-1723.85	  409.80
     89.1700	  590.00	  602.50	-1775.25	  409.71
     89.2700	  558.00	  606.71	-1811.46	  409.62
     89.3700	  617.00	  609.18	-1754.93	  409.53
     89.4700	  634.00	  609.52	-1738.27	  409.43
     89.5700	  562.00	  607.64	-1808.39	  409.34
     89.6700	  567.00	  603.76	-1799.51	  409.24
     89.7700	  567.00	  598.34	-1794.09	  409.14
     89.8700	  546.00	  591.91	-1808.66	  409.04
     89.9700	  570.00	  585.02	-1777.77	  408.94
     90.0700	  582.00	  578.12	-1758.87	  408.83
     90.1700	  517.00	  571.59	-1817.34	  408.73
     90.2700	  540.00	  565.71	-1788.46	  408.62
     90.3700	  552.00	  560.63	-1771.38	  408.51
     90.4700	  534.00	  556.42	-1785.17	  408.40
     90.5700	  539.00	  553.08	-1776.83	  408.29
     90.6700	  527.00	  550.55	-1786.30	  408.18
     90.7700	  546.00	  548.74	-1765.49	  408.06
     90.8700	  519.00	  547.53	-1791.28	  407.94
     90.9700	  523.00	  546.83	-1786.58	  407.83
     91.0700	  503.00	  546.57	-1806.32	  407.71
     91.1700	  525.00	  546.70	-1784.45	  407.58
     91.2700	  506.00	  547.20	-1803.95	  407.46
     91.3700	  529.00	  548.10	-1781.85	  407.34
     91.4700	  524.00	  549.48	-1788.23	  407.21
     91.5700	  548.00	  551.43	-1766.18	  407.08
     91.6700	  530.00	  554.11	-1786.86	  406.95
     91.7700	  552.00	  557.68	-1768.43	  406.82
     91.8700	  525.00	  562.12	-1799.87	  406.69
     91.9700	  538.00	  568.05	-1792.80	  406.55
     92.0700	  577.00	  575.41	-1761.16	  406.42
     92.1700	  595.00	  584.32	-1752.07	  406.28
     92.2700	  524.00	  594.84	-1833.59	  406.14
     92.3700	  612.00	  606.90	-1757.65	  406.00
     92.4700	  599.00	  620.33	-1784.08	  405.86
     92.5700	  642.00	  634.86	-1755.61	  405.72
     92.6700	  623.00	  650.05	-1789.80	  405.57
     92.7700	  686.00	  665.38	-1742.13	  405.43
     92.8700	  734.00	  680.25	-1709.00	  405.28
     92.9700	  696.00	  694.01	-1760.76	  405.13
     93.0700	  729.00	  706.17	-1739.92	  404.98
     93.1700	  809.00	  716.45	-1670.20	  404.83
     93.2700	  765.00	  724.99	-1722.74	  404.67
     93.3700	  752.00	  732.25	-1743.00	  404.52
     93.4700	  821.00	  738.88	-1680.63	  404.36
     93.5700	  811.00	  745.63	-1697.38	  404.20
     93.6700	  806.00	  753.17	-1709.92	  404.04
     93.7700	  869.00	  762.06	-1655.81	  403.88
     93.8700	  846.00	  772.78	-1689.53	  403.72
     93.9700	  832.00	  785.71	-1716.46	  403.55
     94.0700	  849.00	  801.08	-1714.83	  403.39
     94.1700	  843.00	  818.88	-1738.63	  403.22
     94.2700	  853.00	  838.72	-1748.47	  403.05
     94.3700	  850.00	  859.81	-1772.56	  402.88
     94.4700	  865.00	  880.92	-1778.67	  402.71
     94.5700	  935.00	  900.43	-1728.18	  402.54
     94.6700	  887.00	  916.42	-1792.17	  402.36
     94.7700	  931.00	  926.92	-1758.67	  402.19
     94.8700	  864.00	  930.27	-1829.02	  402.01
     94.9700	  920.00	  925.54	-1768.29	  401.83
     95.0700	  863.00	  912.77	-1812.52	  401.65
     95.1700	  833.00	  893.01	-1822.76	  401.47
     95.2700	  796.00	  867.96	-1834.71	  401.29
     95.3700	  814.00	  839.69	-1788.44	  401.11
     95.4700	  822.00	  810.32	-1751.07	  400.92
     95.5700	  813.00	  781.82	-1731.57	  400.73
     95.6700	  728.00	  756.06	-1790.81	  400.55
     95.7700	  692.00	  734.69	-1805.44	  400.36
     95.8700	  723.00	  719.15	-1758.90	  400.17
     95.9700	  704.00	  710.76	-1769.51	  399.97
     96.0700	  717.00	  710.62	-1756.37	  399.78
     96.1700	  709.00	  719.67	-1773.42	  399.59
     96.2700	  720.00	  738.67	-1781.42	  399.39
     96.3700	  722.00	  768.09	-1808.84	  399.19
     96.4700	  802.00	  808.10	-1768.85	  399.00
     96.5700	  857.00	  858.42	-1764.17	  398.80
     96.6700	  915.00	  918.24	-1765.99	  398.60
     96.7700	  990.00	  986.14	-1758.89	  398.39
     96.8700	 1053.00	 1059.97	-1769.72	  398.19
     96.9700	 1114.00	 1136.89	-1785.64	  397.99
     97.0700	 1167.00	 1213.34	-1809.09	  397.78
     97.1700	 1306.00	 1285.22	-1741.97	  397.58
     97.2700	 1272.00	 1348.02	-1838.77	  397.37
     97.3700	 1362.00	 1397.20	-1797.95	  397.16
     97.4700	 1434.00	 1428.79	-1757.54	  396.95
     97.5700	 1456.00	 1440.16	-1746.91	  396.74
     97.6700	 1468.00	 1430.55	-1725.30	  396.52
     97.7700	 1436.00	 1401.30	-1728.05	  396.31
     97.8700	 1344.00	 1355.41	-1774.16	  396.10
     97.9700	 1239.00	 1296.94	-1820.69	  395.88
     98.0700	 1265.00	 1230.29	-1728.04	  395.66
     98.1700	 1147.00	 1159.81	-1775.56	  395.45
     98.2700	 1119.00	 1089.46	-1733.21	  395.23
     98.3700	  979.00	 1022.74	-1806.49	  395.01
     98.4700	  956.00	  962.57	-1769.32	  394.79
     98.5700	  874.00	  911.28	-1800.03	  394.56
     98.6700	  833.00	  870.64	-1800.39	  394.34
     98.7700	  797.00	  841.98	-1807.73	  394.12
     98.8700	  799.00	  826.24	-1789.99	  393.89
     98.9700	  796.00	  824.05	-1790.80	  393.67
     99.0700	  822.00	  835.83	-1776.58	  393.44
     99.1700	  823.00	  861.76	-1801.51	  393.21
     99.2700	  922.00	  901.88	-1742.63	  392.98
     99.3700	  958.00	  956.00	-1760.75	  392.75
     99.4700	  966.00	 1023.64	-1820.39	  392.52
     99.5700	 1018.00	 1103.98	-1848.73	  392.29
     99.6700	 1170.00	 1195.73	-1788.48	  392.06
     99.7700	 1251.00	 1297.01	-1808.76	  391.82
     99.8700	 1426.00	 1405.30	-1742.05	  391.59
     99.9700	 1567.00	 1517.33	-1713.08	  391.35
    100.0700	 1610.00	 1629.20	-1781.95	  391.12
    100.1700	 1801.00	 1736.49	-1698.24	  390.88
    100.2700	 1804.00	 1834.63	-1793.38	  390.64
    100.3700	 2108.00	 1919.48	-1574.23	  390.40
    100.4700	 2035.00	 1987.67	-1715.42	  390.17
    100.5700	 2096.00	 2036.83	-1703.58	  389.93
    100.6700	 2089.00	 2065.42	-1739.17	  389.68
    100.7700	 2131.00	 2072.49	-1704.24	  389.44
    100.8700	 2163.00	 2057.65	-1657.40	  389.20
    100.9700	 2129.00	 2021.36	-1655.11	  388.96
    101.0700	 2076.00	 1965.19	-1651.94	  388.71
    101.1700	 1919.00	 1892.17	-1735.92	  388.47
    101.2700	 1826.00	 1806.56	-1743.31	  388.23
    101.3700	 1652.00	 1713.36	-1824.11	  387.98
    101.4700	 1630.00	 1617.76	-1750.51	  387.73
    101.5700	 1530.00	 1524.44	-1757.19	  387.49
    101.6700	 1515.00	 1437.30	-1685.05	  387.24
    101.7700	 1304.00	 1359.27	-1818.02	  386.99
    101.8700	 1319.00	 1292.17	-1735.92	  386.74
    101.9700	 1230.00	 1236.73	-1769.48	  386.50
    102.0700	 1152.00	 1192.63	-1803.38	  386.25
    102.1700	 1144.00	 1158.61	-1777.36	  386.00
    102.2700	 1126.00	 1132.69	-1769.44	  385.75
    102.3700	 1128.00	 1112.34	-1747.09	  385.50
    102.4700	 1074.00	 1094.76	-1783.51	  385.24
    102.5700	 1010.00	 1077.25	-1830.00	  384.99
    102.6700	 1036.00	 1057.51	-1784.26	  384.74
    102.7700	 1070.00	 1034.02	-1726.77	  384.49
    102.8700	  996.00	 1006.07	-1772.82	  384.23
    102.9700	  958.00	  973.80	-1778.55	  383.98
    103.0700	  926.00	  937.94	-1774.69	  383.73
    103.1700	  870.00	  899.58	-1792.33	  383.47
    103.2700	  867.00	  859.97	-1755.72	  383.22
    103.3700	  791.00	  820.34	-1792.09	  382.97
    103.4700	  810.00	  781.87	-1734.62	  382.71
    103.5700	  724.00	  745.52	-1784.27	  382.46
    103.6700	  725.00	  712.07	-1749.82	  382.20
    103.7700	  700.00	  682.07	-1744.82	  381.95
    103.8700	  665.00	  655.83	-1753.58	  381.69
    103.9700	  582.00	  633.46	-1814.21	  381.43
    104.0700	  579.00	  614.86	-1798.61	  381.18
    104.1700	  649.00	  599.83	-1713.58	  380.92
    104.2700	  559.00	  588.05	-1791.80	  380.67
    104.3700	  603.00	  579.15	-1738.90	  380.41
    104.4700	  547.00	  572.72	-1788.47	  380.15
    104.5700	  571.00	  568.37	-1760.12	  379.90
    104.6700	  572.00	  565.75	-1756.50	  379.64
    104.7700	  588.00	  564.52	-1739.27	  379.39
    104.8700	  557.00	  564.37	-1770.12	  379.13
    104.9700	  551.00	  565.08	-1776.83	  378.87
    105.0700	  530.00	  566.41	-1799.16	  378.62
    105.1700	  549.00	  568.23	-1781.98	  378.36
    105.2700	  563.00	  570.40	-1770.15	  378.11
    105.3700	  544.00	  572.82	-1791.57	  377.85
    105.4700	  552.00	  575.49	-1786.24	  377.60
    105.5700	  532.00	  578.40	-1809.15	  377.34
    105.6700	  565.00	  581.59	-1779.34	  377.08
    105.7700	  555.00	  585.19	-1792.94	  376.83
    105.8700	  601.00	  589.31	-1751.06	  376.58
    105.9700	  566.00	  594.07	-1790.82	  376.32
    106.0700	  596.00	  599.61	-1766.36	  376.07
    106.1700	  599.00	  605.97	-1769.72	  375.81
    106.2700	  573.00	  613.19	-1802.94	  375.56
    106.3700	  584.00	  621.21	-1799.96	  375.31
    106.4700	  587.00	  629.90	-1805.65	  375.05
    106.5700	  626.00	  639.06	-1775.81	  374.80
    106.6700	  650.00	  648.44	-1761.19	  374.55
    106.7700	  585.00	  657.69	-1835.44	  374.30
    106.8700	  630.00	  666.44	-1799.19	  374.05
    106.9700	  656.00	  674.30	-1781.05	  373.80
    107.0700	  681.00	  680.90	-1762.65	  373.55
    107.1700	  675.00	  685.92	-1773.67	  373.30
    107.2700	  678.00	  689.19	-1773.94	  373.05
    107.3700	  674.00	  690.67	-1779.42	  372.80
    107.4700	  623.00	  690.53	-1830.28	  372.56
    107.5700	  683.00	  689.06	-1768.81	  372.31
    107.6700	  674.00	  686.68	-1775.43	  372.07
    107.7700	  659.00	  683.84	-1787.59	  371.82
    107.8700	  695.00	  680.95	-1748.70	  371.58
    107.9700	  691.00	  678.37	-1750.12	  371.33
    108.0700	  692.00	  676.39	-1747.14	  371.09
    108.1700	  659.00	  675.17	-1778.92	  370.85
    108.2700	  677.00	  674.74	-1760.49	  370.61
    108.3700	  707.00	  675.05	-1730.80	  370.37
    108.4700	  654.00	  675.92	-1784.67	  370.13
    108.5700	  692.00	  677.06	-1747.81	  369.89
    108.6700	  615.00	  678.12	-1825.87	  369.65
    108.7700	  671.00	  678.72	-1770.47	  369.42
    108.8700	  676.00	  678.46	-1765.21	  369.18
    108.9700	  640.00	  676.99	-1799.74	  368.95
    109.0700	  728.00	  674.09	-1708.84	  368.72
    109.1700	  648.00	  669.64	-1784.39	  368.48
    109.2700	  668.00	  663.68	-1758.43	  368.25
    109.3700	  713.00	  656.35	-1706.10	  368.02
    109.4700	  640.00	  647.91	-1770.66	  367.80
    109.5700	  596.00	  638.67	-1805.42	  367.57
    109.6700	  655.00	  628.95	-1736.70	  367.34
    109.7700	  621.00	  619.07	-1760.82	  367.12
    109.8700	  588.00	  609.32	-1784.07	  366.90
    109.9700	  613.00	  599.98	-1749.73	  366.67
    110.0700	  645.00	  591.26	-1709.01	  366.45
    110.1700	  581.00	  583.33	-1765.08	  366.24
    110.2700	  597.00	  576.30	-1742.05	  366.02
    110.3700	  611.00	  570.24	-1721.99	  365.80
    110.4700	  543.00	  565.16	-1784.91	  365.59
    110.5700	  580.00	  561.06	-1743.81	  365.38
    110.6700	  566.00	  557.88	-1754.63	  365.16
    110.7700	  575.00	  555.54	-1743.29	  364.95
    110.8700	  528.00	  553.98	-1788.73	  364.75
    110.9700	  547.00	  553.10	-1768.85	  364.54
    111.0700	  584.00	  552.80	-1731.55	  364.34
    111.1700	  526.00	  553.02	-1789.77	  364.13
    111.2700	  576.00	  553.67	-1740.42	  363.93
    111.3700	  514.00	  554.70	-1803.45	  363.73
    111.4700	  536.00	  556.04	-1782.79	  363.54
    111.5700	  579.00	  557.67	-1741.42	  363.34
    111.6700	  552.00	  559.54	-1770.29	  363.15
    111.7700	  572.00	  561.64	-1752.39	  362.96
    111.8700	  583.00	  563.96	-1743.71	  362.77
    111.9700	  591.00	  566.50	-1738.25	  362.58
    112.0700	  612.00	  569.25	-1720.00	  362.39
    112.1700	  594.00	  572.23	-1740.98	  362.21
    112.2700	  559.00	  575.47	-1779.22	  362.03
    112.3700	  602.00	  578.99	-1739.74	  361.85
    112.4700	  623.00	  582.82	-1722.57	  361.67
    112.5700	  605.00	  587.04	-1744.79	  361.50
    112.6700	  594.00	  591.69	-1760.44	  361.33
    112.7700	  645.00	  596.87	-1714.62	  361.16
    112.8700	  640.00	  602.69	-1725.44	  360.99
    112.9700	  675.00	  609.30	-1697.05	  360.82
    113.0700	  732.00	  616.90	-1647.65	  360.66
    113.1700	  766.00	  625.73	-1622.48	  360.50
    113.2700	  786.00	  636.12	-1612.87	  360.34
    113.3700	  831.00	  648.48	-1580.23	  360.19
    113.4700	  806.00	  663.32	-1620.07	  360.03
    113.5700	  851.00	  681.30	-1593.05	  359.88
    113.6700	  900.00	  703.21	-1565.96	  359.73
    113.7700	  887.00	  730.01	-1605.76	  359.59
    113.8700	  970.00	  762.87	-1555.62	  359.45
    113.9700	 1027.00	  803.14	-1538.89	  359.31
    114.0700	 1055.00	  852.42	-1560.17	  359.17
    114.1700	 1061.00	  912.48	-1614.23	  359.04
    114.2700	 1264.00	  985.30	-1484.05	  358.91
    114.3700	 1370.00	 1073.04	-1465.79	  358.78
    114.4700	 1366.00	 1177.96	-1574.71	  358.65
    114.5700	 1439.00	 1302.37	-1626.12	  358.53
    114.6700	 1626.00	 1448.54	-1585.29	  358.41
    114.7700	 1768.00	 1618.53	-1613.28	  358.29
    114.8700	 1955.00	 1814.19	-1621.94	  358.18
    114.9700	 2170.00	 2036.82	-1629.57	  358.07
    115.0700	 2391.00	 2287.27	-1659.02	  357.97
    115.1700	 2499.00	 2565.51	-1829.26	  357.86
    115.2700	 2920.00	 2870.63	-1713.38	  357.76
    115.3700	 3095.00	 3200.85	-1868.60	  357.66
    115.4700	 3328.00	 3553.05	-1987.80	  357.57
    115.5700	 3766.00	 3923.17	-1919.92	  357.48
    115.6700	 4108.00	 4305.77	-1960.52	  357.39
    115.7700	 4375.00	 4694.18	-2081.93	  357.31
    115.8700	 4640.00	 5080.77	-2203.52	  357.23
    115.9700	 5287.00	 5456.55	-1932.30	  357.16
    116.0700	 5345.00	 5811.88	-2229.63	  357.08
    116.1700	 6033.00	 6136.24	-1865.99	  357.01
    116.2700	 6350.00	 6418.85	-1831.60	  356.95
    116.3700	 6682.00	 6649.38	-1730.12	  356.89
    116.4700	 6748.00	 6818.38	-1833.13	  356.83
    116.5700	 6957.00	 6918.58	-1724.33	  356.78
    116.6700	 7051.00	 6945.38	-1657.13	  356.73
    116.7700	 7014.00	 6897.71	-1646.46	  356.68
    116.8700	 6696.00	 6778.02	-1844.77	  356.64
    116.9700	 6935.00	 6592.09	-1419.84	  356.60
    117.0700	 6544.00	 6348.07	-1566.82	  356.57
    117.1700	 6173.00	 6055.86	-1645.61	  356.54
    117.2700	 5693.00	 5726.08	-1795.83	  356.51
    117.3700	 5359.00	 5369.27	-1773.02	  356.49
    117.4700	 4970.00	 4995.68	-1788.43	  356.47
    117.5700	 4783.00	 4614.54	-1594.29	  356.46
    117.6700	 4310.00	 4234.24	-1686.99	  356.45
    117.7700	 4027.00	 3862.00	-1597.75	  356.44
    117.8700	 3728.00	 3503.71	-1538.46	  356.44
    117.9700	 3309.00	 3164.23	-1617.98	  356.45
    118.0700	 2914.00	 2847.03	-1695.78	  356.46
    118.1700	 2611.00	 2554.58	-1706.33	  356.47
    118.2700	 2238.00	 2288.32	-1813.07	  356.49
    118.3700	 1994.00	 2048.66	-1817.41	  356.51
    118.4700	 1785.00	 1835.38	-1813.13	  356.54
    118.5700	 1537.00	 1647.47	-1873.22	  356.57
    118.6700	 1370.00	 1483.55	-1876.30	  356.61
    118.7700	 1239.00	 1341.85	-1865.60	  356.65
    118.8700	 1107.00	 1220.33	-1876.08	  356.70
    118.9700	  936.00	 1116.92	-1943.67	  356.75
    119.0700	  977.00	 1029.45	-1815.20	  356.80
    119.1700	  865.00	  955.89	-1853.64	  356.87
    119.2700	  847.00	  894.31	-1810.06	  356.93
    119.3700	  755.00	  842.91	-1850.66	  357.01
    119.4700	  683.00	  800.12	-1879.87	  357.08
    119.5700	  671.00	  764.53	-1856.28	  357.16
    119.6700	  670.00	  734.95	-1827.70	  357.25
    119.7700	  626.00	  710.35	-1847.10	  357.35
    119.8700	  634.00	  689.86	-1818.61	  357.44
    119.9700	  614.00	  672.77	-1821.52	  357.55
    120.0700	  579.00	  658.50	-1842.25	  357.66
    120.1700	  573.00	  646.56	-1836.31	  357.77
    120.2700	  586.00	  636.59	-1813.34	  357.89
    120.3700	  538.00	  628.25	-1853.00	  358.02
    120.4700	  610.00	  621.32	-1774.07	  358.15
    120.5700	  590.00	  615.60	-1788.35	  358.29
    120.6700	  564.00	  610.93	-1809.68	  358.43
    120.7700	  570.00	  607.20	-1799.95	  358.58
    120.8700	  571.00	  604.32	-1796.07	  358.73
    120.9700	  555.00	  602.21	-1809.96	  358.90
    121.0700	  552.00	  600.83	-1811.58	  359.06
    121.1700	  568.00	  600.11	-1794.86	  359.24
    121.2700	  578.00	  600.01	-1784.76	  359.42
    121.3700	  585.00	  600.50	-1778.25	  359.60
    121.4700	  585.00	  601.53	-1779.28	  359.79
    121.5700	  603.00	  603.05	-1762.80	  359.99
    121.6700	  576.00	  605.01	-1791.76	  360.19
    121.7700	  640.00	  607.33	-1730.08	  360.41
    121.8700	  601.00	  609.97	-1771.72	  360.62
    121.9700	  595.00	  612.84	-1780.59	  360.85
    122.0700	  619.00	  615.85	-1759.60	  361.08
    122.1700	  570.00	  618.90	-1811.65	  361.31
    122.2700	  616.00	  621.89	-1768.64	  361.56
    122.3700	  685.00	  624.73	-1702.48	  361.81
    122.4700	  603.00	  627.31	-1787.06	  362.07
    122.5700	  670.00	  629.51	-1722.26	  362.33
    122.6700	  686.00	  631.26	-1708.01	  362.60
    122.7700	  670.00	  632.48	-1725.23	  362.88
    122.8700	  625.00	  633.11	-1770.86	  363.16
    122.9700	  646.00	  633.12	-1749.87	  363.46
    123.0700	  657.00	  632.51	-1738.26	  363.75
    123.1700	  634.00	  631.31	-1760.06	  364.06
    123.2700	  638.00	  629.55	-1754.30	  364.37
    123.3700	  629.00	  627.31	-1761.06	  364.70
    123.4700	  661.00	  624.64	-1726.39	  365.02
    123.5700	  676.00	  621.63	-1708.38	  365.36
    123.6700	  666.00	  618.35	-1715.10	  365.70
    123.7700	  658.00	  614.89	-1719.64	  366.05
    123.8700	  629.00	  611.30	-1745.05	  366.41
    123.9700	  582.00	  607.66	-1788.41	  366.78
    124.0700	  620.00	  604.03	-1746.78	  367.15
    124.1700	  610.00	  600.46	-1753.21	  367.53
    124.2700	  632.00	  597.00	-1727.75	  367.92
    124.3700	  644.00	  593.69	-1712.44	  368.32
    124.4700	  611.00	  590.54	-1742.29	  368.73
    124.5700	  596.00	  587.59	-1754.34	  369.14
    124.6700	  593.00	  584.84	-1754.59	  369.56
    124.7700	  599.00	  582.31	-1746.06	  369.99
    124.8700	  579.00	  580.01	-1763.76	  370.43
    124.9700	  606.00	  489.69	-1646.44	  370.88
    125.0700	  576.00	  490.15	-1762.75	  371.33
    125.1700	  579.00	  490.61	-1762.75	  371.79
    125.2700	  609.00	  491.08	-1762.75	  372.27
    125.3700	  574.00	  491.56	-1762.75	  372.75
    125.4700	  568.00	  492.05	-1762.75	  373.24
    125.5700	  580.00	  492.55	-1762.75	  373.73
    125.6700	  575.00	  493.05	-1762.75	  374.24
    125.7700	  535.00	  493.57	-1762.75	  374.75
    125.8700	  580.00	  494.09	-1762.75	  375.28
    125.9700	  600.00	  494.63	-1762.75	  375.81
    126.0700	  570.00	  495.17	-1762.75	  376.35
    126.1700	  574.00	  495.72	-1762.75	  376.90
    126.2700	  615.00	  496.28	-1762.75	  377.47
    126.3700	  554.00	  496.85	-1762.75	  378.03
    126.4700	  574.00	  497.43	-1762.75	  378.61
    126.5700	  589.00	  498.02	-1762.75	  379.20
    126.6700	  604.00	  498.61	-1762.75	  379.80
    126.7700	  604.00	  499.22	-1762.75	  380.41
    126.8700	  628.00	  499.84	-1762.75	  381.02
    126.9700	  624.00	  500.46	-1762.75	  381.65
    127.0700	  643.00	  501.10	-1762.75	  382.28
    127.1700	  634.00	  501.75	-1762.75	  382.93
    127.2700	  654.00	  502.40	-1762.75	  383.59
    127.3700	  633.00	  503.07	-1762.75	  384.25
    127.4700	  646.00	  503.74	-1762.75	  384.93
    127.5700	  723.00	  504.43	-1762.75	  385.61
    127.6700	  736.00	  505.12	-1762.75	  386.31
    127.7700	  726.00	  505.83	-1762.75	  387.01
    127.8700	  714.00	  506.54	-1762.75	  387.73
    127.9700	  709.00	  507.27	-1762.75	  388.46
    128.0700	  773.00	  508.01	-1762.75	  389.19
    128.1700	  773.00	  508.75	-1762.75	  389.94
    128.2700	  758.00	  509.51	-1762.75	  390.70
    128.3700	  798.00	  510.28	-1762.75	  391.47
    128.4700	  752.00	  511.06	-1762.75	  392.24
    128.5700	    0.00	  511.85	-1762.75	  393.03
    128.6700	    0.00	  512.65	-1762.75	  393.83
     12.3066	        	        	        	        	       0	(  0  0  2)	  0  1
     24.8904	        	        	        	        	       0	(  0  0  4)	  0  1
     28.3310	        	        	        	        	       0	(  1  0  0)	  0  1
     29.0283	        	        	        	        	       0	(  1  0  1)	  0  1
     31.0346	        	        	        	        	       0	(  1  0  2)	  0  1
     34.1432	        	        	        	        	       0	(  1  0  3)	  0  1
     37.7901	        	        	        	        	       0	(  0  0  6)	  0  1
     38.1206	        	        	        	        	       0	(  1  0  4)	  0  1
     42.7709	        	        	        	        	       0	(  1  0  5)	  0  1
     47.9552	        	        	        	        	       0	(  1  0  6)	  0  1
     50.2679	        	        	        	        	       0	(  1  1  0)	  0  1
     51.2122	        	        	        	        	       0	(  0  0  8)	  0  1
     51.9910	        	        	        	        	       0	(  1  1  2)	  0  1
     53.5859	        	        	        	        	       0	(  1  0  7)	  0  1
     56.9393	        	        	        	        	       0	(  1  1  4)	  0  1
     58.7649	        	        	        	        	       0	(  2  0  0)	  0  1
     59.1565	        	        	        	        	       0	(  2  0  1)	  0  1
     59.6166	        	        	        	        	       0	(  1  0  8)	  0  1
     60.3219	        	        	        	        	       0	(  2  0  2)	  0  1
     62.2353	        	        	        	        	       0	(  2  0  3)	  0  1
     64.6344	        	        	        	        	       0	(  1  1  6)	  0  1
     64.8596	        	        	        	        	       0	(  2  0  4)	  0  1
     65.4416	        	        	        	        	       0	(  0  0 10)	  0  1
     66.0331	        	        	        	        	       0	(  1  0  9)	  0  1
     68.1540	        	        	        	        	       0	(  2  0  5)	  0  1
     72.0817	        	        	        	        	       0	(  2  0  6)	  0  1
     72.8494	        	        	        	        	       0	(  1  0 10)	  0  1
     74.6727	        	        	        	        	       0	(  1  1  8)	  0  1
     76.6161	        	        	        	        	       0	(  2  0  7)	  0  1
     80.1072	        	        	        	        	       0	(  1  0 11)	  0  1
     80.9222	        	        	        	        	       0	(  0  0 12)	  0  1
     81.0060	        	        	        	        	       0	(  2  1  0)	  0  1
     81.3459	        	        	        	        	       0	(  2  1  1)	  0  1
     81.7467	        	        	        	        	       0	(  2  0  8)	  0  1
     82.3639	        	        	        	        	       0	(  2  1  2)	  0  1
     84.0553	        	        	        	        	       0	(  2  1  3)	  0  1
     86.4151	        	        	        	        	       0	(  2  1  4)	  0  1
     86.9445	        	        	        	        	       0	(  1  1 10)	  0  1
     87.4849	        	        	        	        	       0	(  2  0  9)	  0  1
     87.8817	        	        	        	        	       0	(  1  0 12)	  0  1
     89.4410	        	        	        	        	       0	(  2  1  5)	  0  1
     93.1386	        	        	        	        	       0	(  2  1  6)	  0  1
     93.8726	        	        	        	        	       0	(  2  0 10)	  0  1
     94.8949	        	        	        	        	       0	(  3  0  0)	  0  1
     95.2323	        	        	        	        	       0	(  3  0  1)	  0  1
     96.2456	        	        	        	        	       0	(  3  0  2)	  0  1
     96.2952	        	        	        	        	       0	(  1  0 13)	  0  1
     97.5275	        	        	        	        	       0	(  2  1  7)	  0  1
     97.9390	        	        	        	        	       0	(  3  0  3)	  0  1
     98.4620	        	        	        	        	       0	(  0  0 14)	  0  1
    100.3221	        	        	        	        	       0	(  3  0  4)	  0  1
    100.9948	        	        	        	        	       0	(  2  0 11)	  0  1
    101.8155	        	        	        	        	       0	(  1  1 12)	  0  1
    102.6502	        	        	        	        	       0	(  2  1  8)	  0  1
    103.4138	        	        	        	        	       0	(  3  0  5)	  0  1
    105.5482	        	        	        	        	       0	(  1  0 14)	  0  1
    107.2491	        	        	        	        	       0	(  3  0  6)	  0  1
    108.5873	        	        	        	        	       0	(  2  1  9)	  0  1
    109.0064	        	        	        	        	       0	(  2  0 12)	  0  1
    111.8897	        	        	        	        	       0	(  3  0  7)	  0  1
    115.4845	        	        	        	        	       0	(  2  1 10)	  0  1
    115.9924	        	        	        	        	       0	(  1  0 15)	  0  1
    116.6201	        	        	        	        	       0	(  2  2  0)	  0  1
    117.4434	        	        	        	        	       0	(  3  0  8)	  0  1
    118.1354	        	        	        	        	       0	(  2  2  2)	  0  1
    118.1915	        	        	        	        	       0	(  2  0 13)	  0  1
    119.9518	        	        	        	        	       0	(  0  0 16)	  0  1
    120.6610	        	        	        	        	       0	(  1  1 14)	  0  1
    122.8211	        	        	        	        	       0	(  2  2  4)	  0  1
    123.6122	        	        	        	        	       0	(  2  1 11)	  0  1
    124.1038	        	        	        	        	       0	(  3  0  9)	  0  1
    124.6855	        	        	        	        	       0	(  3  1  0)	  0  1
    125.0958	        	        	        	        	       0	(  3  1  1)	  0  1
    126.3393	        	        	        	        	       0	(  3  1  2)	  0  1
    128.3376	        	        	        	        	       0	(  1  0 16)	  0  1
    128.4576	        	        	        	        	       0	(  3  1  3)	  0  1
    129.1228	        	        	        	        	       0	(  2  0 14)	  0  1
    131.2615	        	        	        	        	       0	(  2  2  6)	  0  1
    131.5338	        	        	        	        	       0	(  3  1  4)	  0  1
    132.2453	        	        	        	        	       0	(  3  0 10)	  0  1
    133.5259	        	        	        	        	       0	(  2  1 12)	  0  1
    135.7211	        	        	        	        	       0	(  3  1  5)	  0  1
    141.3172	        	        	        	        	       0	(  3  1  6)	  0  1
    142.7264	        	        	        	        	       0	(  3  0 11)	  0  1
    143.2677	        	        	        	        	       0	(  2  0 15)	  0  1
    144.5145	        	        	        	        	       0	(  1  0 17)	  0  1
    145.4977	        	        	        	        	       0	(  2  2  8)	  0  1
    146.6863	        	        	        	        	       0	(  2  1 13)	  0  1
    148.9921	        	        	        	        	       0	(  3  1  7)	  0  1
    149.6088	        	        	        	        	       0	(  1  1 16)	  0  1
    154.0248	        	        	        	        	       0	(  0  0 18)	  0  1
    158.6169	        	        	        	        	       0	(  3  0 12)	  0  1
    158.8464	        	        	        	        	       0	(  4  0  0)	  0  1
    159.8037	        	        	        	        	       0	(  4  0  1)	  0  1
    160.9931	        	        	        	        	       0	(  3  1  8)	  0  1
    162.9844	        	        	        	        	       0	(  4  0  2)	  0  1
    169.7894	        	        	        	        	       0	(  2  0 16)	  0  1
    170.3409	        	        	        	        	       0	(  4  0  3)	  0  1
    174.2724	        	        	        	        	       0	(  2  1 14)	  0  1
