MSG Master    CELL:    5.90911   5.90911  23.22909   90.0000   90.0000  120.0000   SPGR: P 63/m m c             TEMP:    904.85
  1   1280     2.52000     0.00000    -0.12908     0.00000     0.00000    0
    98     0     2
       0.00000      10.00000
     125.00000     130.00000
 2Theta	Yobs	Ycal	Yobs-Ycal	Backg	Posr	(hkl)	K
      0.7700	    0.00	  472.00	-1736.92	  363.11
      0.8700	    1.00	  473.57	-1736.92	  364.67
      0.9700	   49.00	  475.12	-1736.92	  366.22
      1.0700	   47.00	  476.65	-1736.92	  367.76
      1.1700	   43.00	  478.17	-1736.92	  369.27
      1.2700	   42.00	  479.67	-1736.92	  370.77
      1.3700	   44.00	  481.15	-1736.92	  372.25
      1.4700	  104.00	  482.61	-1736.92	  373.71
      1.5700	  289.00	  484.06	-1736.92	  375.16
      1.6700	  429.00	  485.49	-1736.92	  376.59
      1.7700	  576.00	  486.90	-1736.92	  378.01
      1.8700	  640.00	  488.30	-1736.92	  379.40
      1.9700	  691.00	  489.68	-1736.92	  380.78
      2.0700	  813.00	  491.05	-1736.92	  382.15
      2.1700	  835.00	  492.39	-1736.92	  383.49
      2.2700	  762.00	  493.72	-1736.92	  384.83
      2.3700	  771.00	  495.04	-1736.92	  386.14
      2.4700	  688.00	  496.34	-1736.92	  387.44
      2.5700	  747.00	  497.62	-1736.92	  388.72
      2.6700	  652.00	  498.89	-1736.92	  389.99
      2.7700	  653.00	  500.14	-1736.92	  391.24
      2.8700	  670.00	  501.38	-1736.92	  392.48
      2.9700	  627.00	  502.60	-1736.92	  393.70
      3.0700	  591.00	  503.80	-1736.92	  394.91
      3.1700	  602.00	  504.99	-1736.92	  396.10
      3.2700	  642.00	  506.17	-1736.92	  397.27
      3.3700	  759.00	  507.33	-1736.92	  398.43
      3.4700	  849.00	  508.47	-1736.92	  399.58
      3.5700	  972.00	  509.60	-1736.92	  400.71
      3.6700	 1052.00	  510.72	-1736.92	  401.82
      3.7700	 1058.00	  511.82	-1736.92	  402.92
      3.8700	 1123.00	  512.90	-1736.92	  404.01
      3.9700	 1175.00	  513.98	-1736.92	  405.08
      4.0700	 1205.00	  515.03	-1736.92	  406.13
      4.1700	 1204.00	  516.08	-1736.92	  407.18
      4.2700	 1205.00	  517.10	-1736.92	  408.21
      4.3700	 1273.00	  518.12	-1736.92	  409.22
      4.4700	 1175.00	  519.12	-1736.92	  410.22
      4.5700	 1118.00	  520.10	-1736.92	  411.21
      4.6700	 1106.00	  521.08	-1736.92	  412.18
      4.7700	 1066.00	  522.03	-1736.92	  413.14
      4.8700	 1098.00	  522.98	-1736.92	  414.08
      4.9700	 1049.00	  523.91	-1736.92	  415.01
      5.0700	 1029.00	  524.83	-1736.92	  415.93
      5.1700	 1041.00	  525.73	-1736.92	  416.83
      5.2700	  985.00	  526.62	-1736.92	  417.73
      5.3700	  941.00	  527.50	-1736.92	  418.60
      5.4700	  899.00	  528.37	-1736.92	  419.47
      5.5700	  917.00	  529.22	-1736.92	  420.32
      5.6700	  930.00	  530.06	-1736.92	  421.16
      5.7700	  844.00	  530.88	-1736.92	  421.99
      5.8700	  823.00	  531.70	-1736.92	  422.80
      5.9700	  823.00	  532.50	-1736.92	  423.60
      6.0700	  796.00	  533.29	-1736.92	  424.39
      6.1700	  800.00	  534.06	-1736.92	  425.16
      6.2700	  867.00	  534.82	-1736.92	  425.93
      6.3700	  824.00	  535.58	-1736.92	  426.68
      6.4700	  774.00	  536.31	-1736.92	  427.42
      6.5700	  800.00	  537.04	-1736.92	  428.14
      6.6700	  746.00	  537.76	-1736.92	  428.86
      6.7700	  705.00	  538.46	-1736.92	  429.56
      6.8700	  783.00	  539.15	-1736.92	  430.25
      6.9700	  732.00	  539.83	-1736.92	  430.93
      7.0700	  722.00	  540.49	-1736.92	  431.60
      7.1700	  707.00	  541.15	-1736.92	  432.25
      7.2700	  688.00	  541.79	-1736.92	  432.90
      7.3700	  696.00	  542.43	-1736.92	  433.53
      7.4700	  676.00	  543.05	-1736.92	  434.15
      7.5700	  655.00	  543.66	-1736.92	  434.76
      7.6700	  661.00	  544.26	-1736.92	  435.36
      7.7700	  626.00	  544.85	-1736.92	  435.95
      7.8700	  644.00	  545.42	-1736.92	  436.52
      7.9700	  629.00	  545.99	-1736.92	  437.09
      8.0700	  615.00	  546.54	-1736.92	  437.64
      8.1700	  654.00	  547.09	-1736.92	  438.19
      8.2700	  641.00	  547.62	-1736.92	  438.72
      8.3700	  650.00	  548.14	-1736.92	  439.25
      8.4700	  602.00	  548.66	-1736.92	  439.76
      8.5700	  630.00	  549.16	-1736.92	  440.26
      8.6700	  586.00	  549.65	-1736.92	  440.75
      8.7700	  574.00	  550.13	-1736.92	  441.23
      8.8700	  640.00	  550.60	-1736.92	  441.70
      8.9700	  637.00	  551.06	-1736.92	  442.17
      9.0700	  568.00	  551.51	-1736.92	  442.62
      9.1700	  624.00	  551.96	-1736.92	  443.06
      9.2700	  616.00	  552.39	-1736.92	  443.49
      9.3700	  614.00	  552.81	-1736.92	  443.91
      9.4700	  577.00	  553.22	-1736.92	  444.32
      9.5700	  598.00	  553.62	-1736.92	  444.72
      9.6700	  577.00	  554.01	-1736.92	  445.12
      9.7700	  559.00	  554.40	-1736.92	  445.50
      9.8700	  562.00	  554.77	-1736.92	  445.87
      9.9700	  571.00	  555.13	-1736.92	  446.24
     10.0700	  581.00	  556.94	-1712.86	  446.59
     10.1700	  564.00	  557.44	-1730.35	  446.94
     10.2700	  581.00	  557.96	-1713.88	  447.27
     10.3700	  586.00	  558.53	-1709.44	  447.60
     10.4700	  569.00	  559.17	-1727.08	  447.92
     10.5700	  580.00	  559.94	-1716.86	  448.23
     10.6700	  601.00	  560.93	-1696.85	  448.53
     10.7700	  638.00	  562.23	-1661.15	  448.82
     10.8700	  604.00	  563.93	-1696.85	  449.11
     10.9700	  539.00	  566.04	-1763.96	  449.38
     11.0700	  600.00	  568.56	-1705.48	  449.65
     11.1700	  589.00	  571.49	-1719.41	  449.91
     11.2700	  594.00	  574.86	-1717.78	  450.16
     11.3700	  620.00	  578.76	-1695.67	  450.40
     11.4700	  556.00	  583.30	-1764.22	  450.63
     11.5700	  573.00	  588.72	-1752.63	  450.86
     11.6700	  621.00	  595.34	-1711.26	  451.07
     11.7700	  619.00	  603.67	-1721.59	  451.28
     11.8700	  640.00	  614.23	-1711.15	  451.48
     11.9700	  649.00	  626.98	-1714.90	  451.67
     12.0700	  656.00	  640.30	-1721.22	  451.86
     12.1700	  682.00	  649.87	-1704.78	  452.04
     12.2700	  649.00	  648.95	-1736.86	  452.21
     12.3700	  634.00	  634.02	-1736.93	  452.37
     12.4700	  614.00	  612.40	-1735.31	  452.52
     12.5700	  609.00	  593.72	-1721.63	  452.67
     12.6700	  585.00	  581.23	-1733.14	  452.81
     12.7700	  602.00	  574.09	-1709.01	  452.94
     12.8700	  581.00	  570.34	-1726.26	  453.07
     12.9700	  549.00	  568.34	-1756.26	  453.19
     13.0700	  528.00	  567.17	-1776.08	  453.30
     13.1700	  577.00	  566.39	-1726.31	  453.40
     13.2700	  540.00	  565.84	-1762.76	  453.50
     13.3700	  575.00	  565.44	-1727.36	  453.59
     13.4700	  577.00	  565.14	-1725.05	  453.67
     13.5700	  567.00	  564.90	-1734.82	  453.75
     13.6700	  554.00	  564.72	-1747.64	  453.82
     13.7700	  559.00	  564.58	-1742.50	  453.88
     13.8700	  528.00	  564.47	-1773.38	  453.94
     13.9700	  560.00	  564.37	-1741.29	  453.99
     14.0700	  570.00	  564.29	-1731.21	  454.03
     14.1700	  536.00	  564.23	-1765.14	  454.07
     14.2700	  486.00	  564.17	-1815.08	  454.10
     14.3700	  584.00	  564.11	-1717.03	  454.12
     14.4700	  552.00	  564.06	-1748.98	  454.14
     14.5700	  517.00	  564.01	-1783.93	  454.15
     14.6700	  560.00	  564.00	-1740.91	  454.16
     14.7700	  574.00	  563.95	-1726.87	  454.16
     14.8700	  569.00	  563.90	-1731.82	  454.15
     14.9700	  527.00	  563.85	-1773.77	  454.14
     15.0700	  530.00	  563.80	-1770.72	  454.13
     15.1700	  575.00	  563.75	-1725.67	  454.10
     15.2700	  613.00	  563.69	-1687.61	  454.07
     15.3700	  527.00	  563.63	-1773.55	  454.04
     15.4700	  509.00	  563.57	-1791.49	  454.00
     15.5700	  564.00	  563.50	-1736.42	  453.95
     15.6700	  569.00	  563.43	-1731.35	  453.90
     15.7700	  555.00	  563.36	-1745.28	  453.84
     15.8700	  556.00	  563.28	-1744.20	  453.78
     15.9700	  525.00	  563.20	-1775.12	  453.71
     16.0700	  520.00	  563.11	-1780.03	  453.64
     16.1700	  601.00	  563.02	-1698.94	  453.56
     16.2700	  575.00	  562.93	-1724.85	  453.48
     16.3700	  507.00	  562.83	-1792.75	  453.39
     16.4700	  563.00	  562.73	-1736.65	  453.30
     16.5700	  528.00	  562.62	-1771.54	  453.20
     16.6700	  542.00	  562.51	-1757.43	  453.10
     16.7700	  543.00	  562.40	-1756.31	  452.99
     16.8700	  561.00	  562.28	-1738.20	  452.88
     16.9700	  568.00	  562.15	-1731.07	  452.76
     17.0700	  531.00	  562.03	-1767.94	  452.64
     17.1700	  551.00	  561.89	-1747.81	  452.51
     17.2700	  568.00	  561.76	-1730.68	  452.38
     17.3700	  568.00	  561.62	-1730.54	  452.24
     17.4700	  556.00	  561.47	-1742.39	  452.10
     17.5700	  583.00	  561.42	-1715.34	  451.96
     17.6700	  562.00	  561.27	-1736.19	  451.81
     17.7700	  519.00	  561.11	-1779.03	  451.65
     17.8700	  539.00	  560.96	-1758.87	  451.50
     17.9700	  557.00	  560.79	-1740.71	  451.33
     18.0700	  551.00	  560.63	-1746.55	  451.17
     18.1700	  544.00	  560.46	-1753.38	  451.00
     18.2700	  579.00	  560.39	-1718.31	  450.82
     18.3700	  529.00	  560.22	-1768.13	  450.65
     18.4700	  559.00	  560.04	-1737.95	  450.46
     18.5700	  515.00	  559.86	-1781.77	  450.28
     18.6700	  566.00	  559.67	-1730.59	  450.09
     18.7700	  577.00	  559.48	-1719.40	  449.90
     18.8700	  542.00	  559.29	-1754.21	  449.70
     18.9700	  535.00	  559.09	-1761.01	  449.50
     19.0700	  523.00	  558.90	-1772.81	  449.29
     19.1700	  575.00	  558.69	-1720.61	  449.08
     19.2700	  537.00	  558.49	-1758.41	  448.87
     19.3700	  515.00	  558.28	-1780.20	  448.66
     19.4700	  555.00	  558.07	-1739.99	  448.44
     19.5700	  526.00	  557.86	-1768.77	  448.22
     19.6700	  526.00	  557.64	-1768.56	  447.99
     19.7700	  558.00	  557.42	-1736.34	  447.76
     19.8700	  509.00	  557.20	-1785.12	  447.53
     19.9700	  503.00	  556.97	-1790.89	  447.30
     20.0700	  539.00	  556.79	-1754.70	  447.06
     20.1700	  537.00	  556.56	-1756.48	  446.82
     20.2700	  547.00	  556.33	-1746.24	  446.57
     20.3700	  529.00	  556.09	-1764.01	  446.33
     20.4700	  517.00	  555.86	-1775.78	  446.07
     20.5700	  553.00	  555.62	-1739.54	  445.82
     20.6700	  566.00	  555.38	-1726.30	  445.57
     20.7700	  569.00	  555.14	-1723.06	  445.31
     20.8700	  587.00	  554.90	-1704.82	  445.05
     20.9700	  507.00	  554.66	-1784.57	  444.78
     21.0700	  548.00	  554.41	-1743.33	  444.51
     21.1700	  588.00	  554.16	-1703.08	  444.24
     21.2700	  550.00	  553.91	-1740.83	  443.97
     21.3700	  578.00	  553.67	-1712.58	  443.70
     21.4700	  517.00	  553.42	-1773.33	  443.42
     21.5700	  534.00	  553.17	-1756.08	  443.14
     21.6700	  530.00	  552.92	-1759.83	  442.86
     21.7700	  527.00	  552.67	-1762.59	  442.57
     21.8700	  559.00	  552.42	-1730.34	  442.29
     21.9700	  577.00	  552.17	-1712.09	  442.00
     22.0700	  528.00	  551.92	-1760.84	  441.70
     22.1700	  581.00	  551.64	-1707.55	  441.41
     22.2700	  541.00	  551.39	-1747.31	  441.12
     22.3700	  573.00	  551.15	-1715.07	  440.82
     22.4700	  558.00	  550.92	-1729.84	  440.52
     22.5700	  568.00	  550.69	-1719.61	  440.21
     22.6700	  537.00	  550.47	-1750.38	  439.91
     22.7700	  583.00	  550.41	-1704.32	  439.60
     22.8700	  523.00	  550.20	-1764.12	  439.30
     22.9700	  542.00	  550.01	-1744.93	  438.99
     23.0700	  591.00	  549.84	-1695.76	  438.67
     23.1700	  570.00	  549.68	-1716.60	  438.36
     23.2700	  522.00	  549.55	-1764.47	  438.05
     23.3700	  535.00	  549.46	-1751.37	  437.73
     23.4700	  537.00	  549.40	-1749.32	  437.41
     23.5700	  563.00	  549.41	-1723.33	  437.09
     23.6700	  587.00	  549.50	-1699.42	  436.77
     23.7700	  557.00	  549.72	-1729.64	  436.44
     23.8700	  553.00	  550.17	-1734.08	  436.12
     23.9700	  525.00	  551.00	-1762.92	  435.79
     24.0700	  560.00	  552.53	-1729.45	  435.46
     24.1700	  550.00	  555.21	-1742.13	  435.13
     24.2700	  592.00	  559.67	-1704.59	  434.80
     24.3700	  553.00	  566.58	-1750.49	  434.47
     24.4700	  586.00	  576.44	-1727.36	  434.14
     24.5700	  579.00	  589.19	-1747.10	  433.80
     24.6700	  628.00	  603.28	-1712.20	  433.47
     24.7700	  627.00	  614.90	-1724.81	  433.13
     24.8700	  613.00	  617.93	-1741.84	  432.79
     24.9700	  622.00	  608.28	-1723.20	  432.45
     25.0700	  652.00	  590.81	-1675.73	  432.11
     25.1700	  591.00	  574.00	-1719.92	  431.77
     25.2700	  592.00	  561.79	-1706.71	  431.42
     25.3700	  599.00	  554.27	-1692.19	  431.08
     25.4700	  593.00	  550.07	-1693.99	  430.74
     25.5700	  543.00	  547.75	-1741.66	  430.39
     25.6700	  529.00	  546.35	-1754.27	  430.04
     25.7700	  576.00	  545.42	-1706.33	  429.70
     25.8700	  575.00	  544.74	-1706.65	  429.35
     25.9700	  569.00	  544.22	-1712.14	  429.00
     26.0700	  562.00	  543.83	-1718.75	  428.65
     26.1700	  557.00	  543.54	-1723.46	  428.30
     26.2700	  579.00	  543.35	-1701.27	  427.95
     26.3700	  577.00	  543.25	-1703.17	  427.59
     26.4700	  574.00	  543.25	-1706.17	  427.24
     26.5700	  567.00	  543.34	-1713.26	  426.89
     26.6700	  552.00	  543.55	-1728.47	  426.53
     26.7700	  554.00	  543.90	-1726.81	  426.18
     26.8700	  567.00	  544.40	-1714.32	  425.82
     26.9700	  595.00	  545.12	-1687.04	  425.47
     27.0700	  549.00	  546.10	-1734.02	  425.11
     27.1700	  532.00	  547.46	-1752.38	  424.76
     27.2700	  596.00	  549.37	-1690.29	  424.40
     27.3700	  540.00	  552.20	-1749.11	  424.04
     27.4700	  580.00	  556.59	-1713.51	  423.69
     27.5700	  547.00	  563.76	-1753.68	  423.33
     27.6700	  595.00	  575.64	-1717.56	  422.97
     27.7700	  589.00	  594.93	-1742.85	  422.61
     27.8700	  547.00	  624.37	-1814.29	  422.25
     27.9700	  696.00	  665.09	-1706.01	  421.89
     28.0700	  669.00	  714.48	-1782.40	  421.54
     28.1700	  832.00	  763.97	-1668.89	  421.18
     28.2700	  871.00	  798.21	-1664.13	  420.82
     28.3700	  876.00	  801.44	-1662.36	  420.46
     28.4700	  830.00	  777.88	-1684.79	  420.10
     28.5700	  765.00	  754.87	-1726.78	  419.74
     28.6700	  724.00	  753.39	-1766.31	  419.38
     28.7700	  758.00	  775.77	-1754.69	  419.02
     28.8700	  805.00	  809.13	-1741.05	  418.66
     28.9700	  816.00	  829.62	-1750.54	  418.30
     29.0700	  817.00	  812.64	-1732.56	  417.94
     29.1700	  757.00	  757.41	-1737.33	  417.58
     29.2700	  707.00	  690.68	-1720.60	  417.23
     29.3700	  622.00	  634.68	-1749.60	  416.87
     29.4700	  638.00	  596.05	-1694.96	  416.51
     29.5700	  614.00	  572.63	-1695.55	  416.15
     29.6700	  608.00	  559.44	-1688.36	  415.79
     29.7700	  571.00	  552.03	-1717.95	  415.44
     29.8700	  563.00	  547.66	-1721.58	  415.08
     29.9700	  564.00	  544.91	-1717.82	  414.72
     30.0700	  558.00	  543.28	-1722.20	  414.37
     30.1700	  611.00	  542.73	-1668.65	  414.01
     30.2700	  608.00	  543.58	-1672.49	  413.65
     30.3700	  538.00	  546.53	-1745.44	  413.30
     30.4700	  567.00	  552.73	-1722.65	  412.94
     30.5700	  603.00	  563.51	-1697.43	  412.59
     30.6700	  587.00	  579.56	-1729.48	  412.23
     30.7700	  592.00	  599.75	-1744.67	  411.88
     30.8700	  596.00	  620.06	-1760.98	  411.53
     30.9700	  634.00	  633.18	-1736.10	  411.18
     31.0700	  606.00	  630.93	-1761.85	  410.82
     31.1700	  603.00	  612.54	-1746.46	  410.47
     31.2700	  590.00	  587.71	-1734.63	  410.12
     31.3700	  590.00	  565.69	-1712.61	  409.77
     31.4700	  582.00	  549.91	-1704.82	  409.42
     31.5700	  587.00	  540.05	-1689.97	  409.08
     31.6700	  552.00	  534.40	-1719.32	  408.73
     31.7700	  542.00	  531.22	-1726.13	  408.38
     31.8700	  602.00	  529.32	-1664.23	  408.03
     31.9700	  545.00	  528.08	-1720.00	  407.69
     32.0700	  554.00	  527.24	-1710.16	  407.34
     32.1700	  545.00	  526.67	-1718.59	  407.00
     32.2700	  540.00	  526.32	-1723.24	  406.66
     32.3700	  600.00	  526.17	-1663.09	  406.31
     32.4700	  547.00	  526.23	-1716.14	  405.97
     32.5700	  559.00	  526.50	-1704.42	  405.63
     32.6700	  520.00	  527.01	-1743.93	  405.29
     32.7700	  537.00	  527.82	-1727.74	  404.95
     32.8700	  592.00	  529.00	-1673.92	  404.62
     32.9700	  541.00	  530.67	-1726.59	  404.28
     33.0700	  530.00	  533.05	-1739.97	  403.94
     33.1700	  575.00	  536.56	-1698.48	  403.61
     33.2700	  556.00	  542.07	-1722.98	  403.28
     33.3700	  510.00	  551.30	-1778.22	  402.94
     33.4700	  575.00	  567.44	-1729.36	  402.61
     33.5700	  573.00	  595.44	-1759.36	  402.28
     33.6700	  615.00	  641.35	-1763.27	  401.95
     33.7700	  724.00	  709.33	-1722.25	  401.62
     33.8700	  752.00	  796.43	-1781.34	  401.30
     33.9700	  956.00	  887.52	-1668.44	  400.97
     34.0700	 1007.00	  953.74	-1683.66	  400.64
     34.1700	 1017.00	  960.79	-1680.71	  400.32
     34.2700	  986.00	  898.50	-1649.42	  400.00
     34.3700	  850.00	  800.03	-1686.95	  399.68
     34.4700	  748.00	  705.37	-1694.28	  399.36
     34.5700	  601.00	  633.43	-1769.35	  399.04
     34.6700	  618.00	  586.43	-1705.34	  398.72
     34.7700	  552.00	  558.78	-1743.70	  398.40
     34.8700	  539.00	  543.26	-1741.18	  398.09
     34.9700	  523.00	  534.30	-1748.22	  397.77
     35.0700	  561.00	  528.61	-1704.53	  397.46
     35.1700	  537.00	  524.59	-1724.51	  397.15
     35.2700	  519.00	  521.50	-1739.41	  396.84
     35.3700	  530.00	  519.05	-1725.97	  396.53
     35.4700	  507.00	  517.05	-1746.97	  396.22
     35.5700	  492.00	  515.37	-1760.29	  395.92
     35.6700	  554.00	  514.42	-1697.34	  395.61
     35.7700	  496.00	  513.19	-1754.11	  395.31
     35.8700	  468.00	  512.12	-1781.04	  395.01
     35.9700	  515.00	  511.18	-1733.10	  394.71
     36.0700	  510.00	  510.34	-1737.26	  394.41
     36.1700	  502.00	  509.59	-1744.50	  394.11
     36.2700	  583.00	  508.90	-1662.82	  393.82
     36.3700	  522.00	  508.29	-1723.21	  393.52
     36.4700	  499.00	  507.73	-1745.65	  393.23
     36.5700	  525.00	  507.24	-1719.15	  392.94
     36.6700	  496.00	  506.79	-1747.70	  392.65
     36.7700	  506.00	  506.40	-1737.31	  392.36
     36.8700	  521.00	  506.08	-1722.00	  392.07
     36.9700	  511.00	  505.89	-1731.80	  391.78
     37.0700	  500.00	  505.88	-1742.80	  391.50
     37.1700	  515.00	  506.22	-1728.14	  391.22
     37.2700	  506.00	  507.10	-1738.01	  390.94
     37.3700	  506.00	  508.71	-1739.63	  390.66
     37.4700	  489.00	  511.16	-1759.08	  390.38
     37.5700	  486.00	  514.18	-1765.10	  390.11
     37.6700	  526.00	  517.08	-1728.00	  389.83
     37.7700	  510.00	  518.74	-1745.66	  389.56
     37.8700	  527.00	  518.19	-1728.11	  389.29
     37.9700	  524.00	  515.62	-1728.54	  389.02
     38.0700	  487.00	  512.20	-1762.12	  388.75
     38.1700	  516.00	  508.85	-1729.77	  388.48
     38.2700	  511.00	  506.14	-1732.06	  388.22
     38.3700	  532.00	  503.90	-1708.82	  387.96
     38.4700	  510.00	  502.28	-1729.20	  387.70
     38.5700	  485.00	  501.15	-1753.07	  387.44
     38.6700	  480.00	  500.35	-1757.27	  387.18
     38.7700	  482.00	  499.76	-1754.67	  386.92
     38.8700	  458.00	  499.29	-1778.21	  386.67
     38.9700	  475.00	  498.90	-1760.81	  386.42
     39.0700	  506.00	  498.55	-1729.46	  386.16
     39.1700	  476.00	  498.14	-1759.06	  385.92
     39.2700	  489.00	  497.84	-1745.76	  385.67
     39.3700	  493.00	  497.57	-1741.48	  385.42
     39.4700	  496.00	  497.30	-1738.22	  385.18
     39.5700	  501.00	  497.06	-1732.97	  384.94
     39.6700	  519.00	  496.82	-1714.74	  384.70
     39.7700	  485.00	  496.59	-1748.51	  384.46
     39.8700	  483.00	  496.38	-1750.30	  384.22
     39.9700	  477.00	  496.08	-1756.00	  383.99
     40.0700	  448.00	  495.89	-1784.81	  383.75
     40.1700	  445.00	  495.71	-1787.63	  383.52
     40.2700	  528.00	  495.55	-1704.47	  383.29
     40.3700	  511.00	  495.40	-1721.31	  383.07
     40.4700	  481.00	  495.26	-1751.18	  382.84
     40.5700	  480.00	  495.14	-1752.06	  382.62
     40.6700	  446.00	  495.53	-1786.45	  382.39
     40.7700	  473.00	  495.46	-1759.38	  382.17
     40.8700	  471.00	  495.41	-1761.33	  381.96
     40.9700	  473.00	  495.39	-1759.31	  381.74
     41.0700	  486.00	  495.40	-1746.32	  381.52
     41.1700	  486.00	  495.46	-1746.38	  381.31
     41.2700	  461.00	  495.57	-1771.48	  381.10
     41.3700	  473.00	  495.74	-1759.66	  380.89
     41.4700	  487.00	  496.00	-1745.91	  380.68
     41.5700	  492.00	  496.37	-1741.28	  380.48
     41.6700	  466.00	  496.90	-1767.81	  380.28
     41.7700	  481.00	  497.69	-1753.60	  380.07
     41.8700	  524.00	  498.93	-1711.85	  379.87
     41.9700	  539.00	  501.09	-1699.01	  379.68
     42.0700	  539.00	  504.78	-1702.70	  379.48
     42.1700	  493.00	  511.15	-1755.06	  379.29
     42.2700	  475.00	  521.77	-1783.69	  379.10
     42.3700	  540.00	  537.60	-1734.51	  378.91
     42.4700	  523.00	  558.72	-1772.64	  378.72
     42.5700	  516.00	  582.79	-1803.71	  378.53
     42.6700	  582.00	  604.29	-1759.20	  378.35
     42.7700	  593.00	  615.32	-1759.24	  378.16
     42.8700	  576.00	  609.96	-1770.87	  377.98
     42.9700	  553.00	  590.57	-1774.49	  377.81
     43.0700	  530.00	  565.72	-1772.64	  377.63
     43.1700	  521.00	  542.81	-1758.73	  377.45
     43.2700	  548.00	  524.82	-1713.73	  377.28
     43.3700	  517.00	  512.48	-1732.40	  377.11
     43.4700	  524.00	  504.81	-1717.72	  376.94
     43.5700	  540.00	  500.35	-1697.27	  376.77
     43.6700	  495.00	  497.73	-1739.65	  376.61
     43.7700	  498.00	  496.12	-1735.03	  376.45
     43.8700	  505.00	  495.03	-1726.95	  376.29
     43.9700	  495.00	  494.24	-1736.15	  376.13
     44.0700	  516.00	  493.62	-1714.54	  375.97
     44.1700	  439.00	  493.13	-1791.05	  375.81
     44.2700	  508.00	  492.74	-1721.65	  375.66
     44.3700	  445.00	  492.42	-1784.33	  375.51
     44.4700	  500.00	  492.35	-1729.27	  375.36
     44.5700	  492.00	  492.14	-1737.06	  375.21
     44.6700	  493.00	  491.97	-1735.89	  375.07
     44.7700	  453.00	  491.84	-1775.76	  374.92
     44.8700	  482.00	  491.75	-1746.67	  374.78
     44.9700	  504.00	  491.68	-1724.60	  374.64
     45.0700	  479.00	  491.65	-1749.57	  374.50
     45.1700	  489.00	  491.64	-1739.56	  374.37
     45.2700	  467.00	  491.66	-1761.57	  374.23
     45.3700	  498.00	  491.70	-1730.62	  374.10
     45.4700	  493.00	  491.77	-1735.69	  373.97
     45.5700	  479.00	  491.87	-1749.79	  373.84
     45.6700	  477.00	  491.99	-1751.91	  373.72
     45.7700	  518.00	  492.00	-1710.92	  373.59
     45.8700	  502.00	  492.19	-1727.11	  373.47
     45.9700	  543.00	  492.42	-1686.34	  373.35
     46.0700	  509.00	  492.68	-1720.60	  373.23
     46.1700	  519.00	  492.99	-1710.91	  373.12
     46.2700	  487.00	  493.41	-1743.33	  373.00
     46.3700	  478.00	  493.86	-1752.77	  372.89
     46.4700	  477.00	  494.33	-1754.25	  372.78
     46.5700	  487.00	  494.89	-1744.80	  372.67
     46.6700	  479.00	  495.53	-1753.45	  372.56
     46.7700	  524.00	  496.30	-1709.22	  372.46
     46.8700	  513.00	  497.24	-1721.16	  372.36
     46.9700	  511.00	  498.44	-1724.36	  372.25
     47.0700	  489.00	  500.08	-1747.99	  372.16
     47.1700	  503.00	  502.48	-1736.40	  372.06
     47.2700	  537.00	  506.20	-1706.12	  371.96
     47.3700	  509.00	  511.98	-1739.90	  371.87
     47.4700	  512.00	  520.62	-1745.54	  371.78
     47.5700	  553.00	  532.65	-1716.56	  371.69
     47.6700	  576.00	  547.78	-1708.70	  371.60
     47.7700	  565.00	  564.40	-1736.32	  371.51
     47.8700	  570.00	  579.17	-1746.09	  371.43
     47.9700	  573.00	  587.55	-1751.47	  371.35
     48.0700	  600.00	  586.36	-1723.28	  371.27
     48.1700	  588.00	  576.85	-1725.76	  371.19
     48.2700	  562.00	  563.64	-1738.55	  371.11
     48.3700	  561.00	  551.01	-1726.93	  371.04
     48.4700	  540.00	  541.38	-1738.29	  370.97
     48.5700	  540.00	  535.58	-1732.50	  370.90
     48.6700	  467.00	  533.86	-1803.78	  370.83
     48.7700	  509.00	  534.82	-1762.74	  370.76
     48.8700	  520.00	  538.26	-1755.18	  370.69
     48.9700	  503.00	  543.86	-1777.78	  370.63
     49.0700	  562.00	  551.76	-1726.68	  370.57
     49.1700	  538.00	  562.76	-1761.67	  370.51
     49.2700	  563.00	  578.74	-1752.65	  370.45
     49.3700	  579.00	  603.48	-1761.39	  370.39
     49.4700	  624.00	  643.74	-1756.66	  370.34
     49.5700	  684.00	  710.11	-1763.02	  370.29
     49.6700	  726.00	  816.60	-1827.52	  370.24
     49.7700	  890.00	  977.74	-1824.66	  370.19
     49.8700	 1074.00	 1202.31	-1865.23	  370.14
     49.9700	 1461.00	 1484.98	-1760.89	  370.10
     50.0700	 1834.00	 1796.62	-1699.53	  370.05
     50.1700	 2042.00	 2077.47	-1772.39	  370.01
     50.2700	 2317.00	 2243.14	-1663.06	  369.97
     50.3700	 2339.00	 2225.18	-1623.10	  369.93
     50.4700	 2074.00	 2030.28	-1693.19	  369.89
     50.5700	 1838.00	 1736.74	-1635.66	  369.86
     50.6700	 1360.00	 1429.50	-1806.42	  369.83
     50.7700	 1026.00	 1162.62	-1873.54	  369.80
     50.8700	  904.00	  959.16	-1792.07	  369.77
     50.9700	  724.00	  819.91	-1832.83	  369.74
     51.0700	  682.00	  732.77	-1787.68	  369.71
     51.1700	  633.00	  680.66	-1784.58	  369.69
     51.2700	  670.00	  648.05	-1714.96	  369.67
     51.3700	  590.00	  623.59	-1770.51	  369.64
     51.4700	  592.00	  602.82	-1747.74	  369.62
     51.5700	  553.00	  584.81	-1768.72	  369.61
     51.6700	  546.00	  569.79	-1760.71	  369.59
     51.7700	  541.00	  557.97	-1753.88	  369.58
     51.8700	  557.00	  549.23	-1729.15	  369.56
     51.9700	  497.00	  543.20	-1783.12	  369.55
     52.0700	  535.00	  539.36	-1741.28	  369.54
     52.1700	  549.00	  537.24	-1725.16	  369.54
     52.2700	  592.00	  536.53	-1681.45	  369.53
     52.3700	  595.00	  537.14	-1679.06	  369.53
     52.4700	  540.00	  539.27	-1736.19	  369.52
     52.5700	  556.00	  543.56	-1724.48	  369.52
     52.6700	  593.00	  551.35	-1695.27	  369.52
     52.7700	  538.00	  565.04	-1763.96	  369.52
     52.8700	  578.00	  588.35	-1747.27	  369.53
     52.9700	  649.00	  626.16	-1714.08	  369.53
     53.0700	  667.00	  683.53	-1753.45	  369.54
     53.1700	  842.00	  763.71	-1658.63	  369.55
     53.2700	  904.00	  865.49	-1698.40	  369.56
     53.3700	  982.00	  980.17	-1735.08	  369.57
     53.4700	 1130.00	 1089.36	-1696.27	  369.58
     53.5700	 1157.00	 1165.43	-1745.34	  369.60
     53.6700	 1206.00	 1181.29	-1712.21	  369.61
     53.7700	 1100.00	 1129.96	-1766.88	  369.63
     53.8700	 1067.00	 1031.62	-1701.53	  369.65
     53.9700	  892.00	  916.40	-1761.31	  369.67
     54.0700	  769.00	  807.54	-1775.46	  369.69
     54.1700	  684.00	  717.80	-1770.72	  369.72
     54.2700	  620.00	  651.17	-1768.09	  369.74
     54.3700	  594.00	  606.03	-1748.95	  369.77
     54.4700	  560.00	  577.72	-1754.64	  369.80
     54.5700	  547.00	  561.07	-1750.99	  369.82
     54.6700	  553.00	  551.76	-1735.67	  369.86
     54.7700	  534.00	  546.81	-1749.73	  369.89
     54.8700	  544.00	  544.46	-1737.38	  369.92
     54.9700	  559.00	  543.77	-1721.68	  369.96
     55.0700	  577.00	  544.30	-1704.21	  369.99
     55.1700	  531.00	  545.87	-1751.78	  370.03
     55.2700	  558.00	  548.45	-1727.37	  370.07
     55.3700	  571.00	  552.10	-1718.02	  370.11
     55.4700	  536.00	  556.97	-1757.89	  370.15
     55.5700	  548.00	  563.35	-1752.27	  370.20
     55.6700	  565.00	  571.78	-1743.70	  370.24
     55.7700	  549.00	  583.31	-1771.23	  370.29
     55.8700	  567.00	  599.91	-1769.83	  370.33
     55.9700	  654.00	  625.33	-1708.25	  370.38
     56.0700	  638.00	  665.74	-1764.66	  370.43
     56.1700	  684.00	  730.58	-1783.50	  370.48
     56.2700	  768.00	  832.27	-1801.19	  370.53
     56.3700	  920.00	  984.31	-1801.23	  370.59
     56.4700	 1121.00	 1197.02	-1812.94	  370.64
     56.5700	 1427.00	 1471.63	-1781.55	  370.70
     56.6700	 1759.00	 1793.60	-1771.52	  370.76
     56.7700	 2043.00	 2126.64	-1820.56	  370.81
     56.8700	 2370.00	 2409.55	-1776.47	  370.87
     56.9700	 2590.00	 2565.63	-1712.55	  370.94
     57.0700	 2514.00	 2539.65	-1762.57	  371.00
     57.1700	 2353.00	 2341.33	-1725.24	  371.06
     57.2700	 2000.00	 2037.74	-1774.65	  371.12
     57.3700	 1726.00	 1704.64	-1715.56	  371.19
     57.4700	 1378.00	 1396.52	-1755.44	  371.26
     57.5700	 1102.00	 1142.79	-1777.70	  371.33
     57.6700	  957.00	  952.87	-1732.78	  371.39
     57.7700	  822.00	  822.57	-1737.48	  371.46
     57.8700	  769.00	  740.72	-1708.64	  371.54
     57.9700	  711.00	  694.93	-1720.85	  371.61
     58.0700	  749.00	  675.11	-1663.03	  371.68
     58.1700	  680.00	  674.87	-1731.79	  371.76
     58.2700	  728.00	  691.09	-1700.01	  371.83
     58.3700	  734.00	  722.72	-1725.64	  371.91
     58.4700	  854.00	  769.30	-1652.22	  371.99
     58.5700	  840.00	  829.46	-1726.37	  372.06
     58.6700	  971.00	  899.53	-1665.45	  372.14
     58.7700	 1051.00	  972.96	-1658.88	  372.22
     58.8700	 1177.00	 1041.89	-1601.80	  372.31
     58.9700	 1187.00	 1100.53	-1650.45	  372.39
     59.0700	 1299.00	 1145.56	-1583.48	  372.47
     59.1700	 1365.00	 1172.78	-1544.70	  372.56
     59.2700	 1238.00	 1178.26	-1677.18	  372.64
     59.3700	 1295.00	 1164.62	-1606.54	  372.73
     59.4700	 1275.00	 1142.34	-1604.25	  372.82
     59.5700	 1224.00	 1123.05	-1635.97	  372.90
     59.6700	 1110.00	 1114.68	-1741.59	  372.99
     59.7700	 1166.00	 1122.83	-1693.75	  373.08
     59.8700	 1216.00	 1153.36	-1674.28	  373.17
     59.9700	 1209.00	 1210.16	-1738.08	  373.27
     60.0700	 1393.00	 1289.97	-1633.89	  373.36
     60.1700	 1431.00	 1379.24	-1685.16	  373.45
     60.2700	 1530.00	 1453.96	-1660.88	  373.55
     60.3700	 1600.00	 1484.94	-1621.86	  373.64
     60.4700	 1497.00	 1452.13	-1692.05	  373.74
     60.5700	 1335.00	 1358.97	-1760.89	  373.83
     60.6700	 1314.00	 1228.56	-1651.48	  373.93
     60.7700	 1161.00	 1087.63	-1663.54	  374.03
     60.8700	  945.00	  956.26	-1748.18	  374.13
     60.9700	  844.00	  846.41	-1739.33	  374.23
     61.0700	  741.00	  763.21	-1759.13	  374.33
     61.1700	  738.00	  707.07	-1705.99	  374.43
     61.2700	  646.00	  675.98	-1766.90	  374.53
     61.3700	  702.00	  667.73	-1702.65	  374.63
     61.4700	  668.00	  681.36	-1750.28	  374.74
     61.5700	  714.00	  717.56	-1740.47	  374.84
     61.6700	  810.00	  777.81	-1704.73	  374.95
     61.7700	  818.00	  862.84	-1781.76	  375.05
     61.8700	  984.00	  970.46	-1723.37	  375.16
     61.9700	 1057.00	 1093.51	-1773.43	  375.26
     62.0700	 1236.00	 1218.35	-1719.27	  375.37
     62.1700	 1266.00	 1324.08	-1795.00	  375.48
     62.2700	 1369.00	 1385.58	-1753.49	  375.58
     62.3700	 1277.00	 1383.76	-1843.68	  375.69
     62.4700	 1218.00	 1318.59	-1837.51	  375.80
     62.5700	 1087.00	 1209.17	-1859.09	  375.91
     62.6700	 1018.00	 1080.71	-1799.63	  376.02
     62.7700	  871.00	  953.89	-1819.81	  376.13
     62.8700	  777.00	  841.99	-1801.91	  376.24
     62.9700	  670.00	  751.53	-1818.45	  376.36
     63.0700	  625.00	  683.72	-1795.64	  376.47
     63.1700	  620.00	  636.23	-1753.15	  376.58
     63.2700	  604.00	  604.98	-1737.90	  376.69
     63.3700	  580.00	  585.69	-1742.61	  376.81
     63.4700	  555.00	  574.84	-1756.76	  376.92
     63.5700	  551.00	  570.05	-1755.97	  377.04
     63.6700	  592.00	  570.27	-1715.19	  377.15
     63.7700	  619.00	  575.57	-1693.49	  377.27
     63.8700	  613.00	  586.94	-1710.86	  377.38
     63.9700	  653.00	  605.89	-1689.81	  377.50
     64.0700	  673.00	  634.13	-1698.05	  377.61
     64.1700	  671.00	  672.93	-1738.85	  377.73
     64.2700	  771.00	  722.21	-1688.13	  377.85
     64.3700	  819.00	  780.17	-1698.09	  377.96
     64.4700	  840.00	  842.35	-1739.27	  378.08
     64.5700	  941.00	  901.40	-1697.31	  378.20
     64.6700	  994.00	  947.66	-1690.58	  378.32
     64.7700	  952.00	  972.11	-1757.03	  378.44
     64.8700	 1069.00	  970.40	-1638.32	  378.56
     64.9700	 1005.00	  944.49	-1676.41	  378.67
     65.0700	  903.00	  900.57	-1734.49	  378.79
     65.1700	  844.00	  848.27	-1741.19	  378.91
     65.2700	  825.00	  795.11	-1707.03	  379.03
     65.3700	  737.00	  746.42	-1746.34	  379.15
     65.4700	  666.00	  704.68	-1775.60	  379.27
     65.5700	  655.00	  669.77	-1751.69	  379.39
     65.6700	  677.00	  641.13	-1701.05	  379.51
     65.7700	  621.00	  618.03	-1733.94	  379.63
     65.8700	  592.00	  599.89	-1744.81	  379.75
     65.9700	  548.00	  586.12	-1775.04	  379.87
     66.0700	  565.00	  576.12	-1748.03	  379.99
     66.1700	  519.00	  569.31	-1787.23	  380.11
     66.2700	  555.00	  565.27	-1747.18	  380.23
     66.3700	  576.00	  563.58	-1724.50	  380.35
     66.4700	  519.00	  563.97	-1781.88	  380.47
     66.5700	  569.00	  566.26	-1734.18	  380.59
     66.6700	  560.00	  570.62	-1747.54	  380.72
     66.7700	  591.00	  577.20	-1723.12	  380.84
     66.8700	  567.00	  587.03	-1756.95	  380.96
     66.9700	  610.00	  601.77	-1728.69	  381.08
     67.0700	  645.00	  624.36	-1716.28	  381.20
     67.1700	  648.00	  658.75	-1747.66	  381.32
     67.2700	  704.00	  710.82	-1743.74	  381.44
     67.3700	  776.00	  787.67	-1748.59	  381.56
     67.4700	  898.00	  896.69	-1735.61	  381.68
     67.5700	 1030.00	 1044.11	-1751.02	  381.80
     67.6700	 1285.00	 1232.25	-1684.16	  381.92
     67.7700	 1508.00	 1457.52	-1686.44	  382.04
     67.8700	 1750.00	 1707.98	-1694.90	  382.16
     67.9700	 2039.00	 1961.50	-1659.42	  382.28
     68.0700	 2179.00	 2185.38	-1743.30	  382.40
     68.1700	 2296.00	 2339.24	-1780.16	  382.52
     68.2700	 2410.00	 2387.01	-1713.92	  382.64
     68.3700	 2295.00	 2315.80	-1757.71	  382.76
     68.4700	 2058.00	 2144.56	-1823.47	  382.87
     68.5700	 1875.00	 1911.72	-1773.64	  382.99
     68.6700	 1680.00	 1656.80	-1713.72	  383.11
     68.7700	 1427.00	 1410.47	-1720.39	  383.23
     68.8700	 1145.00	 1192.54	-1784.46	  383.35
     68.9700	 1032.00	 1013.21	-1718.12	  383.46
     69.0700	  849.00	  874.59	-1762.51	  383.58
     69.1700	  746.00	  773.06	-1763.98	  383.70
     69.2700	  688.00	  702.42	-1751.34	  383.81
     69.3700	  635.00	  655.00	-1756.92	  383.93
     69.4700	  640.00	  623.97	-1720.88	  384.04
     69.5700	  607.00	  603.87	-1733.79	  384.16
     69.6700	  558.00	  590.70	-1769.62	  384.27
     69.7700	  542.00	  581.89	-1776.81	  384.39
     69.8700	  586.00	  575.85	-1726.77	  384.50
     69.9700	  537.00	  571.68	-1771.59	  384.62
     70.0700	  564.00	  568.86	-1741.78	  384.73
     70.1700	  592.00	  567.15	-1712.06	  384.84
     70.2700	  570.00	  566.42	-1733.33	  384.95
     70.3700	  614.00	  566.66	-1689.58	  385.07
     70.4700	  588.00	  567.99	-1716.91	  385.18
     70.5700	  645.00	  570.64	-1662.56	  385.29
     70.6700	  569.00	  575.10	-1743.01	  385.40
     70.7700	  561.00	  582.21	-1758.12	  385.51
     70.8700	  573.00	  594.28	-1758.20	  385.62
     70.9700	  623.00	  611.59	-1725.51	  385.73
     71.0700	  640.00	  638.05	-1734.97	  385.83
     71.1700	  692.00	  677.57	-1722.49	  385.94
     71.2700	  768.00	  734.68	-1703.59	  386.05
     71.3700	  758.00	  813.97	-1792.89	  386.16
     71.4700	  885.00	  919.06	-1770.97	  386.26
     71.5700	 1031.00	 1051.25	-1757.17	  386.37
     71.6700	 1149.00	 1208.19	-1796.11	  386.47
     71.7700	 1419.00	 1382.66	-1700.57	  386.58
     71.8700	 1531.00	 1561.71	-1767.62	  386.68
     71.9700	 1713.00	 1726.20	-1750.11	  386.78
     72.0700	 1869.00	 1851.99	-1719.91	  386.88
     72.1700	 1891.00	 1914.90	-1760.82	  386.98
     72.2700	 1796.00	 1900.53	-1841.45	  387.08
     72.3700	 1814.00	 1812.34	-1735.26	  387.18
     72.4700	 1629.00	 1669.61	-1777.53	  387.28
     72.5700	 1523.00	 1497.42	-1711.34	  387.38
     72.6700	 1289.00	 1318.36	-1766.28	  387.48
     72.7700	 1150.00	 1149.17	-1736.09	  387.58
     72.8700	 1063.00	 1000.52	-1674.43	  387.67
     72.9700	  861.00	  877.61	-1753.53	  387.77
     73.0700	  786.00	  781.26	-1732.18	  387.86
     73.1700	  708.00	  709.17	-1738.09	  387.96
     73.2700	  734.00	  657.32	-1660.23	  388.05
     73.3700	  676.00	  621.14	-1682.06	  388.14
     73.4700	  634.00	  595.91	-1698.83	  388.23
     73.5700	  603.00	  579.09	-1713.01	  388.32
     73.6700	  644.00	  567.58	-1660.50	  388.41
     73.7700	  627.00	  559.57	-1669.49	  388.50
     73.8700	  561.00	  553.91	-1729.83	  388.59
     73.9700	  562.00	  549.90	-1724.81	  388.68
     74.0700	  588.00	  547.09	-1696.00	  388.76
     74.1700	  617.00	  545.21	-1665.13	  388.85
     74.2700	  589.00	  544.06	-1691.98	  388.93
     74.3700	  578.00	  543.46	-1702.38	  389.01
     74.4700	  610.00	  543.22	-1670.14	  389.10
     74.5700	  642.00	  543.11	-1638.03	  389.18
     74.6700	  630.00	  542.91	-1649.83	  389.26
     74.7700	  603.00	  542.39	-1676.30	  389.34
     74.8700	  609.00	  541.42	-1669.34	  389.41
     74.9700	  654.00	  540.05	-1622.97	  389.49
     75.0700	  626.00	  538.45	-1649.37	  389.57
     75.1700	  601.00	  536.91	-1672.83	  389.64
     75.2700	  584.00	  535.72	-1688.64	  389.72
     75.3700	  550.00	  535.21	-1722.13	  389.79
     75.4700	  574.00	  535.76	-1698.67	  389.86
     75.5700	  546.00	  537.75	-1728.67	  389.93
     75.6700	  562.00	  541.65	-1716.57	  390.00
     75.7700	  581.00	  547.87	-1703.79	  390.07
     75.8700	  545.00	  556.96	-1748.87	  390.14
     75.9700	  598.00	  569.15	-1708.07	  390.21
     76.0700	  630.00	  584.52	-1691.44	  390.27
     76.1700	  569.00	  602.78	-1770.69	  390.34
     76.2700	  634.00	  623.16	-1726.08	  390.40
     76.3700	  664.00	  644.28	-1717.19	  390.46
     76.4700	  705.00	  664.44	-1696.36	  390.52
     76.5700	  724.00	  681.18	-1694.09	  390.58
     76.6700	  648.00	  691.90	-1780.82	  390.64
     76.7700	  691.00	  694.53	-1740.45	  390.70
     76.8700	  712.00	  688.55	-1713.47	  390.75
     76.9700	  735.00	  675.09	-1677.01	  390.81
     77.0700	  609.00	  656.45	-1784.37	  390.86
     77.1700	  627.00	  635.22	-1745.14	  390.91
     77.2700	  614.00	  613.60	-1736.52	  390.97
     77.3700	  557.00	  593.26	-1773.17	  391.02
     77.4700	  578.00	  575.27	-1734.19	  391.06
     77.5700	  549.00	  560.21	-1748.13	  391.11
     77.6700	  520.00	  548.18	-1765.10	  391.16
     77.7700	  519.00	  538.99	-1756.90	  391.20
     77.8700	  509.00	  532.02	-1759.94	  391.25
     77.9700	  512.00	  527.21	-1752.13	  391.29
     78.0700	  445.00	  523.88	-1815.80	  391.33
     78.1700	  506.00	  521.60	-1752.52	  391.37
     78.2700	  512.00	  520.06	-1744.98	  391.41
     78.3700	  517.00	  519.02	-1738.94	  391.44
     78.4700	  504.00	  518.31	-1751.22	  391.48
     78.5700	  506.00	  517.82	-1748.74	  391.51
     78.6700	  517.00	  517.51	-1737.43	  391.55
     78.7700	  464.00	  517.34	-1790.25	  391.58
     78.8700	  521.00	  517.29	-1733.21	  391.61
     78.9700	  506.00	  517.37	-1748.29	  391.64
     79.0700	  507.00	  517.60	-1747.52	  391.66
     79.1700	  549.00	  518.00	-1705.92	  391.69
     79.2700	  509.00	  518.60	-1746.52	  391.71
     79.3700	  497.00	  519.44	-1759.36	  391.74
     79.4700	  487.00	  520.57	-1770.49	  391.76
     79.5700	  525.00	  522.05	-1733.97	  391.78
     79.6700	  513.00	  523.94	-1747.85	  391.80
     79.7700	  544.00	  526.32	-1719.23	  391.81
     79.8700	  502.00	  529.29	-1764.21	  391.83
     79.9700	  544.00	  532.98	-1725.90	  391.84
     80.0700	  508.00	  537.54	-1766.46	  391.86
     80.1700	  554.00	  543.13	-1726.04	  391.87
     80.2700	  568.00	  549.74	-1718.66	  391.88
     80.3700	  532.00	  558.00	-1762.91	  391.88
     80.4700	  531.00	  567.91	-1773.82	  391.89
     80.5700	  549.00	  579.62	-1767.54	  391.90
     80.6700	  544.00	  593.12	-1786.04	  391.90
     80.7700	  622.00	  608.17	-1723.09	  391.90
     80.8700	  608.00	  624.25	-1753.16	  391.90
     80.9700	  665.00	  640.52	-1712.43	  391.90
     81.0700	  628.00	  655.95	-1764.86	  391.90
     81.1700	  699.00	  669.47	-1707.39	  391.90
     81.2700	  698.00	  680.24	-1719.15	  391.89
     81.3700	  709.00	  687.74	-1715.66	  391.88
     81.4700	  756.00	  691.76	-1672.67	  391.87
     81.5700	  746.00	  692.27	-1683.18	  391.86
     81.6700	  771.00	  689.40	-1655.32	  391.85
     81.7700	  719.00	  683.38	-1701.30	  391.84
     81.8700	  700.00	  674.46	-1711.38	  391.82
     81.9700	  706.00	  663.05	-1693.97	  391.81
     82.0700	  671.00	  649.78	-1715.70	  391.79
     82.1700	  734.00	  635.49	-1638.41	  391.77
     82.2700	  689.00	  620.99	-1668.91	  391.75
     82.3700	  624.00	  606.93	-1719.85	  391.72
     82.4700	  576.00	  593.71	-1754.63	  391.70
     82.5700	  574.00	  581.59	-1744.50	  391.67
     82.6700	  589.00	  570.72	-1718.64	  391.64
     82.7700	  553.00	  561.28	-1745.19	  391.61
     82.8700	  599.00	  553.38	-1691.29	  391.58
     82.9700	  529.00	  547.09	-1755.01	  391.55
     83.0700	  505.00	  542.45	-1774.37	  391.51
     83.1700	  541.00	  539.41	-1735.33	  391.48
     83.2700	  534.00	  537.92	-1740.84	  391.44
     83.3700	  504.00	  537.80	-1770.71	  391.40
     83.4700	  536.00	  539.03	-1739.95	  391.36
     83.5700	  500.00	  541.36	-1778.28	  391.31
     83.6700	  504.00	  544.48	-1777.40	  391.27
     83.7700	  549.00	  548.13	-1736.05	  391.22
     83.8700	  552.00	  551.88	-1736.80	  391.17
     83.9700	  556.00	  555.25	-1736.17	  391.12
     84.0700	  555.00	  557.76	-1739.68	  391.07
     84.1700	  571.00	  558.96	-1724.87	  391.02
     84.2700	  541.00	  558.57	-1754.48	  390.96
     84.3700	  547.00	  556.57	-1746.49	  390.91
     84.4700	  525.00	  553.24	-1765.16	  390.85
     84.5700	  529.00	  548.97	-1756.88	  390.79
     84.6700	  558.00	  544.19	-1723.10	  390.73
     84.7700	  532.00	  539.28	-1744.20	  390.66
     84.8700	  513.00	  534.57	-1758.49	  390.60
     84.9700	  511.00	  530.27	-1756.18	  390.53
     85.0700	  468.00	  526.52	-1795.43	  390.46
     85.1700	  486.00	  523.39	-1774.30	  390.39
     85.2700	  503.00	  520.88	-1754.80	  390.32
     85.3700	  517.00	  518.96	-1738.88	  390.24
     85.4700	  514.00	  517.56	-1740.48	  390.17
     85.5700	  521.00	  516.62	-1732.54	  390.09
     85.6700	  502.00	  516.07	-1750.99	  390.01
     85.7700	  491.00	  515.86	-1761.78	  389.93
     85.8700	  509.00	  515.98	-1743.90	  389.84
     85.9700	  492.00	  516.44	-1761.36	  389.76
     86.0700	  493.00	  517.30	-1761.21	  389.67
     86.1700	  503.00	  518.63	-1752.55	  389.58
     86.2700	  523.00	  520.58	-1734.50	  389.49
     86.3700	  559.00	  523.29	-1701.21	  389.40
     86.4700	  519.00	  526.93	-1744.85	  389.31
     86.5700	  532.00	  531.67	-1736.59	  389.21
     86.6700	  535.00	  537.66	-1739.57	  389.12
     86.7700	  536.00	  544.96	-1745.87	  389.02
     86.8700	  493.00	  553.57	-1797.48	  388.92
     86.9700	  562.00	  563.35	-1738.26	  388.81
     87.0700	  615.00	  574.01	-1695.93	  388.71
     87.1700	  599.00	  585.13	-1723.05	  388.60
     87.2700	  605.00	  596.07	-1727.99	  388.49
     87.3700	  570.00	  606.09	-1773.01	  388.39
     87.4700	  631.00	  614.29	-1720.21	  388.27
     87.5700	  657.00	  619.81	-1699.73	  388.16
     87.6700	  586.00	  621.99	-1772.90	  388.05
     87.7700	  614.00	  620.58	-1743.50	  387.93
     87.8700	  632.00	  615.89	-1720.81	  387.81
     87.9700	  617.00	  608.63	-1728.55	  387.69
     88.0700	  608.00	  599.34	-1728.26	  387.57
     88.1700	  591.00	  589.77	-1735.68	  387.44
     88.2700	  594.00	  580.37	-1723.29	  387.32
     88.3700	  589.00	  571.89	-1719.80	  387.19
     88.4700	  525.00	  564.86	-1776.78	  387.06
     88.5700	  593.00	  559.67	-1703.59	  386.93
     88.6700	  568.00	  556.53	-1725.45	  386.80
     88.7700	  607.00	  555.46	-1685.38	  386.66
     88.8700	  579.00	  556.33	-1714.25	  386.53
     88.9700	  575.00	  558.88	-1720.80	  386.39
     89.0700	  561.00	  562.71	-1738.63	  386.25
     89.1700	  578.00	  567.34	-1726.26	  386.11
     89.2700	  567.00	  572.20	-1742.12	  385.96
     89.3700	  585.00	  576.67	-1728.59	  385.82
     89.4700	  651.00	  580.11	-1666.03	  385.67
     89.5700	  625.00	  581.98	-1693.90	  385.52
     89.6700	  572.00	  581.91	-1746.82	  385.37
     89.7700	  564.00	  579.80	-1752.72	  385.22
     89.8700	  602.00	  575.88	-1710.80	  385.06
     89.9700	  563.00	  570.56	-1744.48	  384.91
     90.0700	  564.00	  564.34	-1737.26	  384.75
     90.1700	  524.00	  557.70	-1770.62	  384.59
     90.2700	  527.00	  551.07	-1760.99	  384.43
     90.3700	  554.00	  544.77	-1727.69	  384.27
     90.4700	  526.00	  539.05	-1749.97	  384.10
     90.5700	  573.00	  534.06	-1697.98	  383.94
     90.6700	  551.00	  529.88	-1715.80	  383.77
     90.7700	  501.00	  526.52	-1762.44	  383.60
     90.8700	  510.00	  523.95	-1750.86	  383.43
     90.9700	  495.00	  522.09	-1764.01	  383.26
     91.0700	  484.00	  520.88	-1773.80	  383.08
     91.1700	  505.00	  520.24	-1752.16	  382.91
     91.2700	  470.00	  520.11	-1787.03	  382.73
     91.3700	  500.00	  520.48	-1757.40	  382.55
     91.4700	  521.00	  521.36	-1737.27	  382.37
     91.5700	  471.00	  522.79	-1788.70	  382.18
     91.6700	  476.00	  524.86	-1785.78	  382.00
     91.7700	  484.00	  527.72	-1780.64	  381.81
     91.8700	  536.00	  531.52	-1732.44	  381.63
     91.9700	  505.00	  536.47	-1768.39	  381.44
     92.0700	  527.00	  542.76	-1752.68	  381.24
     92.1700	  536.00	  550.61	-1751.53	  381.05
     92.2700	  524.00	  560.17	-1773.09	  380.86
     92.3700	  532.00	  571.58	-1776.50	  380.66
     92.4700	  524.00	  584.86	-1797.78	  380.46
     92.5700	  563.00	  599.97	-1773.89	  380.26
     92.6700	  579.00	  616.72	-1774.63	  380.06
     92.7700	  597.00	  634.78	-1774.70	  379.86
     92.8700	  627.00	  653.70	-1763.62	  379.66
     92.9700	  684.00	  672.87	-1725.79	  379.45
     93.0700	  673.00	  691.54	-1755.46	  379.24
     93.1700	  751.00	  708.96	-1694.87	  379.03
     93.2700	  709.00	  724.15	-1752.06	  378.82
     93.3700	  721.00	  737.27	-1753.18	  378.61
     93.4700	  769.00	  748.03	-1715.95	  378.40
     93.5700	  752.00	  756.80	-1741.71	  378.18
     93.6700	  745.00	  764.15	-1756.07	  377.97
     93.7700	  778.00	  770.70	-1729.61	  377.75
     93.8700	  786.00	  776.94	-1727.86	  377.53
     93.9700	  827.00	  783.29	-1693.21	  377.31
     94.0700	  845.00	  790.10	-1682.02	  377.08
     94.1700	  803.00	  797.77	-1731.69	  376.86
     94.2700	  835.00	  806.66	-1708.58	  376.63
     94.3700	  851.00	  817.03	-1702.95	  376.41
     94.4700	  774.00	  828.87	-1791.79	  376.18
     94.5700	  848.00	  841.78	-1730.70	  375.95
     94.6700	  910.00	  854.95	-1681.87	  375.72
     94.7700	  843.00	  867.17	-1761.09	  375.48
     94.8700	  887.00	  876.93	-1726.85	  375.25
     94.9700	  867.00	  882.60	-1752.52	  375.01
     95.0700	  952.00	  882.78	-1667.69	  374.78
     95.1700	  866.00	  876.60	-1747.52	  374.54
     95.2700	  850.00	  864.06	-1750.97	  374.30
     95.3700	  806.00	  845.96	-1776.88	  374.06
     95.4700	  804.00	  823.77	-1756.69	  373.81
     95.5700	  795.00	  799.24	-1741.16	  373.57
     95.6700	  785.00	  774.18	-1726.10	  373.33
     95.7700	  748.00	  750.36	-1739.27	  373.08
     95.8700	  796.00	  729.37	-1670.29	  372.83
     95.9700	  714.00	  712.70	-1735.62	  372.58
     96.0700	  714.00	  701.65	-1724.56	  372.33
     96.1700	  762.00	  697.36	-1672.28	  372.08
     96.2700	  691.00	  700.85	-1746.77	  371.83
     96.3700	  720.00	  712.93	-1729.85	  371.57
     96.4700	  717.00	  734.24	-1754.16	  371.32
     96.5700	  736.00	  765.16	-1766.08	  371.06
     96.6700	  829.00	  805.79	-1713.71	  370.80
     96.7700	  852.00	  855.86	-1740.78	  370.54
     96.8700	  895.00	  914.64	-1756.56	  370.28
     96.9700	  978.00	  980.88	-1739.80	  370.02
     97.0700	 1078.00	 1052.77	-1711.69	  369.76
     97.1700	 1122.00	 1127.89	-1742.81	  369.50
     97.2700	 1173.00	 1203.18	-1767.10	  369.23
     97.3700	 1311.00	 1275.00	-1700.92	  368.97
     97.4700	 1316.00	 1339.23	-1760.15	  368.70
     97.5700	 1390.00	 1391.61	-1738.53	  368.43
     97.6700	 1458.00	 1428.19	-1707.11	  368.16
     97.7700	 1391.00	 1446.06	-1791.97	  367.89
     97.8700	 1388.00	 1443.98	-1792.89	  367.62
     97.9700	 1385.00	 1422.67	-1774.59	  367.35
     98.0700	 1404.00	 1384.56	-1717.48	  367.08
     98.1700	 1238.00	 1333.15	-1832.07	  366.80
     98.2700	 1224.00	 1272.45	-1785.37	  366.53
     98.3700	 1183.00	 1206.49	-1760.41	  366.25
     98.4700	 1128.00	 1139.07	-1747.99	  365.98
     98.5700	 1081.00	 1073.55	-1729.47	  365.70
     98.6700	  952.00	 1012.84	-1797.75	  365.42
     98.7700	  918.00	  959.36	-1778.28	  365.14
     98.8700	  903.00	  915.10	-1749.01	  364.86
     98.9700	  838.00	  881.60	-1780.52	  364.58
     99.0700	  832.00	  860.06	-1764.98	  364.30
     99.1700	  832.00	  851.30	-1756.22	  364.01
     99.2700	  851.00	  855.89	-1741.81	  363.73
     99.3700	  867.00	  874.13	-1744.05	  363.45
     99.4700	  878.00	  906.04	-1764.96	  363.16
     99.5700	  889.00	  951.50	-1799.42	  362.88
     99.6700	 1060.00	 1009.97	-1686.89	  362.59
     99.7700	 1073.00	 1080.63	-1744.54	  362.30
     99.8700	 1124.00	 1162.27	-1775.19	  362.01
     99.9700	 1279.00	 1253.17	-1711.09	  361.73
    100.0700	 1371.00	 1351.07	-1716.99	  361.44
    100.1700	 1407.00	 1453.09	-1783.01	  361.15
    100.2700	 1594.00	 1555.79	-1698.70	  360.86
    100.3700	 1704.00	 1655.28	-1688.20	  360.57
    100.4700	 1667.00	 1747.55	-1817.46	  360.27
    100.5700	 1832.00	 1828.85	-1733.77	  359.98
    100.6700	 1856.00	 1896.14	-1777.05	  359.69
    100.7700	 1916.00	 1947.24	-1768.16	  359.40
    100.8700	 1994.00	 1980.74	-1723.66	  359.10
    100.9700	 2001.00	 1995.73	-1731.65	  358.81
    101.0700	 1965.00	 1991.67	-1763.58	  358.52
    101.1700	 1951.00	 1968.54	-1754.46	  358.22
    101.2700	 1958.00	 1927.24	-1706.16	  357.93
    101.3700	 1873.00	 1869.82	-1733.74	  357.63
    101.4700	 1938.00	 1799.64	-1598.56	  357.33
    101.5700	 1709.00	 1720.90	-1748.82	  357.04
    101.6700	 1733.00	 1638.18	-1642.10	  356.74
    101.7700	 1561.00	 1555.80	-1731.72	  356.45
    101.8700	 1473.00	 1477.40	-1741.32	  356.15
    101.9700	 1394.00	 1405.79	-1748.71	  355.85
    102.0700	 1384.00	 1342.82	-1695.74	  355.55
    102.1700	 1343.00	 1289.43	-1683.34	  355.26
    102.2700	 1234.00	 1245.63	-1748.55	  354.96
    102.3700	 1290.00	 1210.62	-1657.54	  354.66
    102.4700	 1144.00	 1182.92	-1775.84	  354.36
    102.5700	 1146.00	 1160.46	-1751.38	  354.07
    102.6700	 1145.00	 1140.85	-1732.77	  353.77
    102.7700	 1146.00	 1121.59	-1712.51	  353.47
    102.8700	 1048.00	 1100.43	-1789.35	  353.17
    102.9700	 1080.00	 1075.73	-1732.65	  352.87
    103.0700	  969.00	 1046.62	-1814.54	  352.58
    103.1700	  987.00	 1013.05	-1762.97	  352.28
    103.2700	  954.00	  975.60	-1758.52	  351.98
    103.3700	  932.00	  935.30	-1740.21	  351.68
    103.4700	  890.00	  893.34	-1740.26	  351.38
    103.5700	  863.00	  850.95	-1724.86	  351.09
    103.6700	  876.00	  809.25	-1670.17	  350.79
    103.7700	  855.00	  769.23	-1651.15	  350.49
    103.8700	  719.00	  731.71	-1749.63	  350.20
    103.9700	  719.00	  697.28	-1715.20	  349.90
    104.0700	  648.00	  666.37	-1755.29	  349.60
    104.1700	  619.00	  639.19	-1757.10	  349.31
    104.2700	  661.00	  615.76	-1691.67	  349.01
    104.3700	  610.00	  595.98	-1722.90	  348.72
    104.4700	  601.00	  579.63	-1715.55	  348.42
    104.5700	  574.00	  566.40	-1729.32	  348.13
    104.6700	  561.00	  555.94	-1731.86	  347.84
    104.7700	  584.00	  547.89	-1700.81	  347.54
    104.8700	  498.00	  541.89	-1780.80	  347.25
    104.9700	  556.00	  537.60	-1718.51	  346.96
    105.0700	  526.00	  534.73	-1745.65	  346.67
    105.1700	  527.00	  533.04	-1742.95	  346.38
    105.2700	  558.00	  532.31	-1711.23	  346.09
    105.3700	  530.00	  532.39	-1739.31	  345.80
    105.4700	  538.00	  533.17	-1732.08	  345.51
    105.5700	  550.00	  534.55	-1721.47	  345.22
    105.6700	  544.00	  536.50	-1729.42	  344.94
    105.7700	  543.00	  539.03	-1732.95	  344.65
    105.8700	  529.00	  542.15	-1750.06	  344.37
    105.9700	  566.00	  545.91	-1716.83	  344.08
    106.0700	  588.00	  550.39	-1699.31	  343.80
    106.1700	  583.00	  555.66	-1709.58	  343.52
    106.2700	  536.00	  561.80	-1762.71	  343.23
    106.3700	  571.00	  568.83	-1734.74	  342.95
    106.4700	  538.00	  576.74	-1775.66	  342.67
    106.5700	  569.00	  585.47	-1753.39	  342.40
    106.6700	  622.00	  594.93	-1709.84	  342.12
    106.7700	  607.00	  604.92	-1734.84	  341.84
    106.8700	  624.00	  615.23	-1728.15	  341.57
    106.9700	  626.00	  625.56	-1736.48	  341.29
    107.0700	  640.00	  635.59	-1732.51	  341.02
    107.1700	  630.00	  644.95	-1751.87	  340.75
    107.2700	  662.00	  653.28	-1728.20	  340.48
    107.3700	  714.00	  660.25	-1683.16	  340.21
    107.4700	  686.00	  665.59	-1716.51	  339.95
    107.5700	  701.00	  669.19	-1705.11	  339.68
    107.6700	  703.00	  671.11	-1705.03	  339.42
    107.7700	  690.00	  671.54	-1718.46	  339.15
    107.8700	  684.00	  670.83	-1723.75	  338.89
    107.9700	  671.00	  669.39	-1735.31	  338.63
    108.0700	  671.00	  667.63	-1733.54	  338.38
    108.1700	  638.00	  665.93	-1764.84	  338.12
    108.2700	  648.00	  664.59	-1753.51	  337.86
    108.3700	  679.00	  663.84	-1721.75	  337.61
    108.4700	  651.00	  663.77	-1749.68	  337.36
    108.5700	  627.00	  664.38	-1774.30	  337.11
    108.6700	  669.00	  665.57	-1733.48	  336.86
    108.7700	  659.00	  667.12	-1745.03	  336.62
    108.8700	  680.00	  668.73	-1725.64	  336.38
    108.9700	  649.00	  670.02	-1757.94	  336.13
    109.0700	  682.00	  670.60	-1725.52	  335.90
    109.1700	  664.00	  670.08	-1742.99	  335.66
    109.2700	  680.00	  668.12	-1725.03	  335.42
    109.3700	  678.00	  664.51	-1723.43	  335.19
    109.4700	  683.00	  659.20	-1713.12	  334.96
    109.5700	  665.00	  652.27	-1724.19	  334.73
    109.6700	  685.00	  643.93	-1695.85	  334.50
    109.7700	  610.00	  634.48	-1761.39	  334.28
    109.8700	  604.00	  624.24	-1757.16	  334.06
    109.9700	  638.00	  613.56	-1712.48	  333.84
    110.0700	  654.00	  602.77	-1685.69	  333.62
    110.1700	  557.00	  592.16	-1772.08	  333.40
    110.2700	  628.00	  581.98	-1690.90	  333.19
    110.3700	  576.00	  572.44	-1733.35	  332.98
    110.4700	  584.00	  563.70	-1716.62	  332.77
    110.5700	  588.00	  555.89	-1704.81	  332.57
    110.6700	  585.00	  549.08	-1701.00	  332.37
    110.7700	  525.00	  543.30	-1755.22	  332.17
    110.8700	  554.00	  538.55	-1721.47	  331.97
    110.9700	  530.00	  534.80	-1741.72	  331.78
    111.0700	  533.00	  531.98	-1735.90	  331.59
    111.1700	  471.00	  530.03	-1795.94	  331.40
    111.2700	  564.00	  528.85	-1701.77	  331.21
    111.3700	  576.00	  528.37	-1689.29	  331.03
    111.4700	  538.00	  528.50	-1727.42	  330.85
    111.5700	  553.00	  529.14	-1713.06	  330.68
    111.6700	  535.00	  530.23	-1732.15	  330.50
    111.7700	  552.00	  531.70	-1716.62	  330.33
    111.8700	  540.00	  533.48	-1730.40	  330.17
    111.9700	  529.00	  535.53	-1743.45	  330.00
    112.0700	  557.00	  537.82	-1717.74	  329.84
    112.1700	  556.00	  540.31	-1721.23	  329.69
    112.2700	  562.00	  543.00	-1717.92	  329.53
    112.3700	  512.00	  545.89	-1770.80	  329.38
    112.4700	  535.00	  548.99	-1750.90	  329.24
    112.5700	  548.00	  552.33	-1741.25	  329.10
    112.6700	  551.00	  555.95	-1741.87	  328.96
    112.7700	  548.00	  559.91	-1748.83	  328.82
    112.8700	  543.00	  564.26	-1758.18	  328.69
    112.9700	  561.00	  569.10	-1745.02	  328.56
    113.0700	  579.00	  574.53	-1732.44	  328.44
    113.1700	  571.00	  580.67	-1746.58	  328.32
    113.2700	  586.00	  587.69	-1738.61	  328.20
    113.3700	  557.00	  595.81	-1775.73	  328.09
    113.4700	  637.00	  605.30	-1705.21	  327.98
    113.5700	  621.00	  616.48	-1732.40	  327.87
    113.6700	  613.00	  629.80	-1753.72	  327.77
    113.7700	  623.00	  645.79	-1759.71	  327.68
    113.8700	  631.00	  665.11	-1771.03	  327.58
    113.9700	  690.00	  688.57	-1735.49	  327.50
    114.0700	  706.00	  717.14	-1748.06	  327.41
    114.1700	  754.00	  751.98	-1734.89	  327.33
    114.2700	  857.00	  794.43	-1674.35	  327.26
    114.3700	  875.00	  846.06	-1707.98	  327.19
    114.4700	  918.00	  908.60	-1727.52	  327.12
    114.5700	  975.00	  983.97	-1745.89	  327.06
    114.6700	 1093.00	 1074.24	-1718.16	  327.00
    114.7700	 1206.00	 1181.59	-1712.50	  326.95
    114.8700	 1348.00	 1308.17	-1697.09	  326.90
    114.9700	 1519.00	 1456.16	-1674.07	  326.86
    115.0700	 1686.00	 1627.45	-1678.37	  326.82
    115.1700	 1924.00	 1823.74	-1636.65	  326.79
    115.2700	 2140.00	 2046.29	-1643.21	  326.76
    115.3700	 2313.00	 2295.75	-1719.67	  326.74
    115.4700	 2639.00	 2572.08	-1669.99	  326.72
    115.5700	 2967.00	 2874.36	-1644.28	  326.71
    115.6700	 3233.00	 3200.80	-1704.72	  326.70
    115.7700	 3556.00	 3548.61	-1729.53	  326.69
    115.8700	 3890.00	 3913.77	-1760.68	  326.70
    115.9700	 4298.00	 4291.16	-1730.08	  326.71
    116.0700	 4568.00	 4674.48	-1843.40	  326.72
    116.1700	 5001.00	 5056.41	-1792.33	  326.74
    116.2700	 5305.00	 5428.61	-1860.53	  326.76
    116.3700	 5759.00	 5781.68	-1759.60	  326.79
    116.4700	 6108.00	 6105.58	-1734.50	  326.83
    116.5700	 6387.00	 6389.89	-1739.81	  326.87
    116.6700	 6515.00	 6624.51	-1846.43	  326.92
    116.7700	 6719.00	 6800.21	-1818.13	  326.97
    116.8700	 6853.00	 6909.53	-1793.45	  327.03
    116.9700	 6764.00	 6947.67	-1920.59	  327.09
    117.0700	 6864.00	 6913.12	-1786.03	  327.16
    117.1700	 6846.00	 6807.81	-1698.73	  327.24
    117.2700	 6609.00	 6636.86	-1764.77	  327.32
    117.3700	 6408.00	 6407.92	-1736.84	  327.41
    117.4700	 6096.00	 6130.35	-1771.27	  327.51
    117.5700	 5694.00	 5814.35	-1857.26	  327.61
    117.6700	 5418.00	 5470.12	-1789.03	  327.71
    117.7700	 5048.00	 5107.43	-1796.35	  327.83
    117.8700	 4746.00	 4735.46	-1726.38	  327.95
    117.9700	 4341.00	 4362.32	-1758.24	  328.08
    118.0700	 4071.00	 3995.11	-1661.03	  328.21
    118.1700	 3699.00	 3639.70	-1677.62	  328.35
    118.2700	 3408.00	 3300.80	-1629.72	  328.50
    118.3700	 3126.00	 2982.13	-1593.05	  328.65
    118.4700	 2756.00	 2686.28	-1667.20	  328.81
    118.5700	 2543.00	 2414.90	-1608.82	  328.98
    118.6700	 2170.00	 2168.69	-1735.61	  329.16
    118.7700	 1922.00	 1947.63	-1762.55	  329.34
    118.8700	 1775.00	 1751.13	-1713.05	  329.53
    118.9700	 1589.00	 1578.07	-1725.99	  329.72
    119.0700	 1396.00	 1426.98	-1767.90	  329.93
    119.1700	 1269.00	 1296.09	-1764.01	  330.14
    119.2700	 1177.00	 1183.47	-1743.39	  330.36
    119.3700	 1076.00	 1087.18	-1748.10	  330.58
    119.4700	 1020.00	 1005.28	-1722.20	  330.81
    119.5700	  930.00	  935.92	-1742.83	  331.06
    119.6700	  851.00	  877.35	-1763.27	  331.30
    119.7700	  885.00	  828.00	-1679.92	  331.56
    119.8700	  812.00	  786.47	-1711.39	  331.82
    119.9700	  791.00	  751.54	-1697.46	  332.10
    120.0700	  716.00	  722.15	-1743.07	  332.38
    120.1700	  645.00	  697.40	-1789.32	  332.66
    120.2700	  691.00	  676.54	-1722.45	  332.96
    120.3700	  626.00	  658.94	-1769.85	  333.26
    120.4700	  609.00	  644.09	-1772.01	  333.58
    120.5700	  620.00	  631.57	-1748.49	  333.90
    120.6700	  593.00	  621.04	-1764.96	  334.23
    120.7700	  629.00	  612.22	-1720.14	  334.56
    120.8700	  582.00	  604.89	-1759.81	  334.91
    120.9700	  575.00	  598.87	-1760.79	  335.26
    121.0700	  585.00	  594.01	-1745.93	  335.63
    121.1700	  542.00	  590.20	-1785.12	  336.00
    121.2700	  512.00	  587.35	-1812.26	  336.38
    121.3700	  560.00	  585.36	-1762.28	  336.77
    121.4700	  570.00	  584.17	-1751.09	  337.17
    121.5700	  564.00	  583.72	-1756.64	  337.58
    121.6700	  582.00	  583.96	-1738.88	  337.99
    121.7700	  578.00	  584.83	-1743.74	  338.42
    121.8700	  604.00	  586.26	-1719.18	  338.85
    121.9700	  595.00	  588.20	-1730.12	  339.30
    122.0700	  601.00	  590.59	-1726.51	  339.75
    122.1700	  585.00	  593.35	-1745.26	  340.22
    122.2700	  603.00	  596.40	-1730.31	  340.69
    122.3700	  597.00	  599.65	-1739.57	  341.17
    122.4700	  626.00	  603.03	-1713.95	  341.66
    122.5700	  628.00	  606.42	-1715.33	  342.16
    122.6700	  605.00	  609.72	-1741.64	  342.68
    122.7700	  613.00	  612.83	-1736.75	  343.20
    122.8700	  603.00	  615.64	-1749.56	  343.73
    122.9700	  620.00	  618.06	-1734.97	  344.27
    123.0700	  639.00	  619.99	-1717.90	  344.82
    123.1700	  647.00	  621.36	-1711.28	  345.39
    123.2700	  618.00	  622.14	-1741.06	  345.96
    123.3700	  607.00	  622.27	-1752.19	  346.54
    123.4700	  651.00	  621.81	-1707.73	  347.14
    123.5700	  641.00	  620.76	-1716.67	  347.74
    123.6700	  625.00	  619.15	-1731.07	  348.36
    123.7700	  619.00	  617.06	-1734.98	  348.98
    123.8700	  627.00	  614.55	-1724.47	  349.62
    123.9700	  583.00	  611.69	-1765.60	  350.26
    124.0700	  654.00	  608.55	-1691.46	  350.92
    124.1700	  627.00	  605.20	-1715.12	  351.59
    124.2700	  639.00	  601.73	-1699.65	  352.27
    124.3700	  553.00	  598.17	-1782.09	  352.96
    124.4700	  626.00	  594.64	-1705.55	  353.67
    124.5700	  575.00	  591.16	-1753.07	  354.38
    124.6700	  565.00	  587.78	-1759.70	  355.11
    124.7700	  552.00	  584.56	-1769.48	  355.85
    124.8700	  592.00	  581.53	-1726.45	  356.60
    124.9700	  615.00	  466.25	-1588.17	  357.36
    125.0700	  597.00	  467.03	-1736.92	  358.13
    125.1700	  571.00	  467.81	-1736.92	  358.91
    125.2700	  577.00	  468.61	-1736.92	  359.71
    125.3700	  627.00	  469.42	-1736.92	  360.52
    125.4700	  602.00	  470.24	-1736.92	  361.34
    125.5700	  555.00	  471.07	-1736.92	  362.17
    125.6700	  551.00	  471.92	-1736.92	  363.02
    125.7700	  556.00	  472.78	-1736.92	  363.88
    125.8700	  568.00	  473.65	-1736.92	  364.75
    125.9700	  533.00	  474.53	-1736.92	  365.63
    126.0700	  573.00	  475.43	-1736.92	  366.53
    126.1700	  581.00	  476.33	-1736.92	  367.44
    126.2700	  532.00	  477.26	-1736.92	  368.36
    126.3700	  573.00	  478.19	-1736.92	  369.29
    126.4700	  550.00	  479.14	-1736.92	  370.24
    126.5700	  565.00	  480.10	-1736.92	  371.20
    126.6700	  592.00	  481.07	-1736.92	  372.17
    126.7700	  555.00	  482.06	-1736.92	  373.16
    126.8700	  591.00	  483.06	-1736.92	  374.16
    126.9700	  578.00	  484.07	-1736.92	  375.18
    127.0700	  628.00	  485.10	-1736.92	  376.20
    127.1700	  604.00	  486.14	-1736.92	  377.25
    127.2700	  576.00	  487.20	-1736.92	  378.30
    127.3700	  575.00	  488.27	-1736.92	  379.37
    127.4700	  580.00	  489.35	-1736.92	  380.45
    127.5700	  586.00	  490.45	-1736.92	  381.55
    127.6700	  605.00	  491.56	-1736.92	  382.66
    127.7700	  595.00	  492.69	-1736.92	  383.79
    127.8700	  624.00	  493.83	-1736.92	  384.93
    127.9700	  638.00	  494.98	-1736.92	  386.08
    128.0700	  699.00	  496.15	-1736.92	  387.25
    128.1700	  677.00	  497.34	-1736.92	  388.44
    128.2700	  650.00	  498.53	-1736.92	  389.64
    128.3700	  737.00	  499.75	-1736.92	  390.85
    128.4700	  736.00	  500.98	-1736.92	  392.08
    128.5700	    0.00	  502.22	-1736.92	  393.32
    128.6700	    1.00	  503.48	-1736.92	  394.58
     12.3269	        	        	        	        	       0	(  0  0  2)	  0  1
     24.9332	        	        	        	        	       0	(  0  0  4)	  0  1
     28.3784	        	        	        	        	       0	(  1  0  0)	  0  1
     29.0770	        	        	        	        	       0	(  1  0  1)	  0  1
     31.0873	        	        	        	        	       0	(  1  0  2)	  0  1
     34.2019	        	        	        	        	       0	(  1  0  3)	  0  1
     37.8572	        	        	        	        	       0	(  0  0  6)	  0  1
     38.1870	        	        	        	        	       0	(  1  0  4)	  0  1
     42.8467	        	        	        	        	       0	(  1  0  5)	  0  1
     48.0417	        	        	        	        	       0	(  1  0  6)	  0  1
     50.3572	        	        	        	        	       0	(  1  1  0)	  0  1
     51.3067	        	        	        	        	       0	(  0  0  8)	  0  1
     52.0841	        	        	        	        	       0	(  1  1  2)	  0  1
     53.6845	        	        	        	        	       0	(  1  0  7)	  0  1
     57.0434	        	        	        	        	       0	(  1  1  4)	  0  1
     58.8723	        	        	        	        	       0	(  2  0  0)	  0  1
     59.2648	        	        	        	        	       0	(  2  0  1)	  0  1
     59.7288	        	        	        	        	       0	(  1  0  8)	  0  1
     60.4330	        	        	        	        	       0	(  2  0  2)	  0  1
     62.3510	        	        	        	        	       0	(  2  0  3)	  0  1
     64.7569	        	        	        	        	       0	(  1  1  6)	  0  1
     64.9817	        	        	        	        	       0	(  2  0  4)	  0  1
     65.5687	        	        	        	        	       0	(  0  0 10)	  0  1
     66.1608	        	        	        	        	       0	(  1  0  9)	  0  1
     68.2844	        	        	        	        	       0	(  2  0  5)	  0  1
     72.2225	        	        	        	        	       0	(  2  0  6)	  0  1
     72.9948	        	        	        	        	       0	(  1  0 10)	  0  1
     74.8213	        	        	        	        	       0	(  1  1  8)	  0  1
     76.7694	        	        	        	        	       0	(  2  0  7)	  0  1
     80.2732	        	        	        	        	       0	(  1  0 11)	  0  1
     81.0915	        	        	        	        	       0	(  0  0 12)	  0  1
     81.1698	        	        	        	        	       0	(  2  1  0)	  0  1
     81.5107	        	        	        	        	       0	(  2  1  1)	  0  1
     81.9151	        	        	        	        	       0	(  2  0  8)	  0  1
     82.5317	        	        	        	        	       0	(  2  1  2)	  0  1
     84.2285	        	        	        	        	       0	(  2  1  3)	  0  1
     86.5959	        	        	        	        	       0	(  2  1  4)	  0  1
     87.1304	        	        	        	        	       0	(  1  1 10)	  0  1
     87.6718	        	        	        	        	       0	(  2  0  9)	  0  1
     88.0723	        	        	        	        	       0	(  1  0 12)	  0  1
     89.6321	        	        	        	        	       0	(  2  1  5)	  0  1
     93.3429	        	        	        	        	       0	(  2  1  6)	  0  1
     94.0821	        	        	        	        	       0	(  2  0 10)	  0  1
     95.1041	        	        	        	        	       0	(  3  0  0)	  0  1
     95.4428	        	        	        	        	       0	(  3  0  1)	  0  1
     96.4600	        	        	        	        	       0	(  3  0  2)	  0  1
     96.5164	        	        	        	        	       0	(  1  0 13)	  0  1
     97.7486	        	        	        	        	       0	(  2  1  7)	  0  1
     98.1602	        	        	        	        	       0	(  3  0  3)	  0  1
     98.6928	        	        	        	        	       0	(  0  0 14)	  0  1
    100.5532	        	        	        	        	       0	(  3  0  4)	  0  1
    101.2329	        	        	        	        	       0	(  2  0 11)	  0  1
    102.0580	        	        	        	        	       0	(  1  1 12)	  0  1
    102.8930	        	        	        	        	       0	(  2  1  8)	  0  1
    103.6585	        	        	        	        	       0	(  3  0  5)	  0  1
    105.8096	        	        	        	        	       0	(  1  0 14)	  0  1
    107.5119	        	        	        	        	       0	(  3  0  6)	  0  1
    108.8585	        	        	        	        	       0	(  2  1  9)	  0  1
    109.2824	        	        	        	        	       0	(  2  0 12)	  0  1
    112.1768	        	        	        	        	       0	(  3  0  7)	  0  1
    115.7943	        	        	        	        	       0	(  2  1 10)	  0  1
    116.3108	        	        	        	        	       0	(  1  0 15)	  0  1
    116.9324	        	        	        	        	       0	(  2  2  0)	  0  1
    117.7637	        	        	        	        	       0	(  3  0  8)	  0  1
    118.4574	        	        	        	        	       0	(  2  2  2)	  0  1
    118.5213	        	        	        	        	       0	(  2  0 13)	  0  1
    120.2974	        	        	        	        	       0	(  0  0 16)	  0  1
    121.0088	        	        	        	        	       0	(  1  1 14)	  0  1
    123.1761	        	        	        	        	       0	(  2  2  4)	  0  1
    123.9782	        	        	        	        	       0	(  2  1 11)	  0  1
    124.4717	        	        	        	        	       0	(  3  0  9)	  0  1
    125.0541	        	        	        	        	       0	(  3  1  0)	  0  1
    125.4677	        	        	        	        	       0	(  3  1  1)	  0  1
    126.7215	        	        	        	        	       0	(  3  1  2)	  0  1
    128.7500	        	        	        	        	       0	(  1  0 16)	  0  1
    128.8586	        	        	        	        	       0	(  3  1  3)	  0  1
    129.5394	        	        	        	        	       0	(  2  0 14)	  0  1
    131.6906	        	        	        	        	       0	(  2  2  6)	  0  1
    131.9646	        	        	        	        	       0	(  3  1  4)	  0  1
    132.6880	        	        	        	        	       0	(  3  0 10)	  0  1
    133.9849	        	        	        	        	       0	(  2  1 12)	  0  1
    136.1990	        	        	        	        	       0	(  3  1  5)	  0  1
    141.8732	        	        	        	        	       0	(  3  1  6)	  0  1
    143.3111	        	        	        	        	       0	(  3  0 11)	  0  1
    143.8688	        	        	        	        	       0	(  2  0 15)	  0  1
    145.1431	        	        	        	        	       0	(  1  0 17)	  0  1
    146.1297	        	        	        	        	       0	(  2  2  8)	  0  1
    147.3505	        	        	        	        	       0	(  2  1 13)	  0  1
    149.7004	        	        	        	        	       0	(  3  1  7)	  0  1
    150.3493	        	        	        	        	       0	(  1  1 16)	  0  1
    154.9077	        	        	        	        	       0	(  0  0 18)	  0  1
    159.6852	        	        	        	        	       0	(  3  0 12)	  0  1
    159.9106	        	        	        	        	       0	(  4  0  0)	  0  1
    160.9230	        	        	        	        	       0	(  4  0  1)	  0  1
    162.1972	        	        	        	        	       0	(  3  1  8)	  0  1
    164.3360	        	        	        	        	       0	(  4  0  2)	  0  1
    172.3580	        	        	        	        	       0	(  2  0 16)	  0  1
    173.0344	        	        	        	        	       0	(  4  0  3)	  0  1
