MSG Master    CELL:    5.90292   5.90292  23.18600   90.0000   90.0000  120.0000   SPGR: P 63/m m c             TEMP:    816.45
  1   1280     2.52000     0.00000    -0.12335     0.00000     0.00000    0
    98     0     2
       0.00000      10.00000
     125.00000     130.00000
 2Theta	Yobs	Ycal	Yobs-Ycal	Backg	Posr	(hkl)	K
      0.7700	    0.00	  462.35	-1762.25	  349.95
      0.8700	    0.00	  464.28	-1762.25	  351.89
      0.9700	   34.00	  466.19	-1762.25	  353.80
      1.0700	   49.00	  468.09	-1762.25	  355.69
      1.1700	   48.00	  469.96	-1762.25	  357.57
      1.2700	   41.00	  471.81	-1762.25	  359.42
      1.3700	   28.00	  473.65	-1762.25	  361.25
      1.4700	   85.00	  475.46	-1762.25	  363.07
      1.5700	  293.00	  477.26	-1762.25	  364.86
      1.6700	  494.00	  479.03	-1762.25	  366.64
      1.7700	  594.00	  480.79	-1762.25	  368.39
      1.8700	  629.00	  482.52	-1762.25	  370.13
      1.9700	  729.00	  484.24	-1762.25	  371.85
      2.0700	  757.00	  485.94	-1762.25	  373.55
      2.1700	  767.00	  487.62	-1762.25	  375.23
      2.2700	  765.00	  489.28	-1762.25	  376.89
      2.3700	  765.00	  490.93	-1762.25	  378.53
      2.4700	  706.00	  492.55	-1762.25	  380.16
      2.5700	  662.00	  494.16	-1762.25	  381.76
      2.6700	  606.00	  495.75	-1762.25	  383.35
      2.7700	  629.00	  497.32	-1762.25	  384.92
      2.8700	  650.00	  498.87	-1762.25	  386.47
      2.9700	  638.00	  500.40	-1762.25	  388.01
      3.0700	  594.00	  501.92	-1762.25	  389.52
      3.1700	  585.00	  503.42	-1762.25	  391.02
      3.2700	  663.00	  504.90	-1762.25	  392.50
      3.3700	  798.00	  506.36	-1762.25	  393.97
      3.4700	 1029.00	  507.81	-1762.25	  395.41
      3.5700	 1027.00	  509.24	-1762.25	  396.84
      3.6700	 1131.00	  510.65	-1762.25	  398.25
      3.7700	 1183.00	  512.04	-1762.25	  399.65
      3.8700	 1295.00	  513.42	-1762.25	  401.03
      3.9700	 1323.00	  514.78	-1762.25	  402.39
      4.0700	 1395.00	  516.12	-1762.25	  403.73
      4.1700	 1408.00	  517.45	-1762.25	  405.06
      4.2700	 1426.00	  518.76	-1762.25	  406.37
      4.3700	 1480.00	  520.06	-1762.25	  407.66
      4.4700	 1283.00	  521.34	-1762.25	  408.94
      4.5700	 1275.00	  522.60	-1762.25	  410.20
      4.6700	 1251.00	  523.84	-1762.25	  411.45
      4.7700	 1241.00	  525.07	-1762.25	  412.68
      4.8700	 1152.00	  526.29	-1762.25	  413.89
      4.9700	 1116.00	  527.49	-1762.25	  415.09
      5.0700	 1106.00	  528.67	-1762.25	  416.28
      5.1700	 1054.00	  529.84	-1762.25	  417.44
      5.2700	  997.00	  530.99	-1762.25	  418.59
      5.3700	 1004.00	  532.12	-1762.25	  419.73
      5.4700	 1023.00	  533.25	-1762.25	  420.85
      5.5700	 1037.00	  534.35	-1762.25	  421.96
      5.6700	 1007.00	  535.44	-1762.25	  423.05
      5.7700	  935.00	  536.52	-1762.25	  424.12
      5.8700	  892.00	  537.58	-1762.25	  425.18
      5.9700	  935.00	  538.62	-1762.25	  426.23
      6.0700	  863.00	  539.66	-1762.25	  427.26
      6.1700	  849.00	  540.67	-1762.25	  428.28
      6.2700	  836.00	  541.68	-1762.25	  429.28
      6.3700	  866.00	  542.66	-1762.25	  430.27
      6.4700	  849.00	  543.64	-1762.25	  431.24
      6.5700	  764.00	  544.60	-1762.25	  432.20
      6.6700	  792.00	  545.54	-1762.25	  433.15
      6.7700	  808.00	  546.47	-1762.25	  434.08
      6.8700	  789.00	  547.39	-1762.25	  435.00
      6.9700	  766.00	  548.29	-1762.25	  435.90
      7.0700	  786.00	  549.18	-1762.25	  436.79
      7.1700	  723.00	  550.06	-1762.25	  437.67
      7.2700	  765.00	  550.92	-1762.25	  438.53
      7.3700	  771.00	  551.77	-1762.25	  439.38
      7.4700	  673.00	  552.61	-1762.25	  440.21
      7.5700	  713.00	  553.43	-1762.25	  441.04
      7.6700	  736.00	  554.24	-1762.25	  441.85
      7.7700	  664.00	  555.04	-1762.25	  442.64
      7.8700	  683.00	  555.82	-1762.25	  443.43
      7.9700	  667.00	  556.59	-1762.25	  444.20
      8.0700	  687.00	  557.35	-1762.25	  444.95
      8.1700	  686.00	  558.09	-1762.25	  445.70
      8.2700	  656.00	  558.82	-1762.25	  446.43
      8.3700	  654.00	  559.54	-1762.25	  447.15
      8.4700	  661.00	  560.25	-1762.25	  447.86
      8.5700	  645.00	  560.95	-1762.25	  448.55
      8.6700	  658.00	  561.63	-1762.25	  449.24
      8.7700	  620.00	  562.30	-1762.25	  449.91
      8.8700	  612.00	  562.96	-1762.25	  450.57
      8.9700	  613.00	  563.61	-1762.25	  451.21
      9.0700	  685.00	  564.24	-1762.25	  451.85
      9.1700	  627.00	  564.86	-1762.25	  452.47
      9.2700	  620.00	  565.47	-1762.25	  453.08
      9.3700	  582.00	  566.07	-1762.25	  453.68
      9.4700	  616.00	  566.66	-1762.25	  454.27
      9.5700	  601.00	  567.24	-1762.25	  454.85
      9.6700	  633.00	  567.80	-1762.25	  455.41
      9.7700	  619.00	  568.36	-1762.25	  455.96
      9.8700	  630.00	  568.90	-1762.25	  456.51
      9.9700	  621.00	  569.43	-1762.25	  457.04
     10.0700	  643.00	  572.24	-1691.49	  457.56
     10.1700	  633.00	  572.94	-1702.19	  458.07
     10.2700	  629.00	  573.68	-1706.93	  458.57
     10.3700	  591.00	  574.46	-1745.71	  459.05
     10.4700	  634.00	  575.32	-1703.57	  459.53
     10.5700	  583.00	  576.31	-1755.56	  460.00
     10.6700	  608.00	  577.50	-1731.75	  460.45
     10.7700	  653.00	  578.98	-1688.23	  460.90
     10.8700	  632.00	  580.83	-1711.08	  461.33
     10.9700	  624.00	  583.09	-1721.34	  461.76
     11.0700	  633.00	  585.77	-1715.02	  462.17
     11.1700	  625.00	  588.89	-1726.14	  462.58
     11.2700	  584.00	  592.46	-1770.71	  462.97
     11.3700	  617.00	  596.56	-1741.81	  463.36
     11.4700	  619.00	  601.31	-1744.56	  463.73
     11.5700	  623.00	  606.89	-1746.14	  464.10
     11.6700	  618.00	  613.60	-1757.85	  464.45
     11.7700	  674.00	  621.77	-1710.02	  464.80
     11.8700	  666.00	  631.70	-1727.95	  465.13
     11.9700	  666.00	  643.22	-1739.47	  465.46
     12.0700	  677.00	  655.09	-1740.34	  465.78
     12.1700	  681.00	  664.34	-1745.59	  466.08
     12.2700	  717.00	  666.08	-1711.33	  466.38
     12.3700	  639.00	  656.44	-1779.69	  466.67
     12.4700	  607.00	  638.73	-1793.98	  466.95
     12.5700	  618.00	  620.90	-1765.15	  467.22
     12.6700	  613.00	  607.31	-1756.56	  467.48
     12.7700	  564.00	  598.41	-1796.66	  467.74
     12.8700	  564.00	  593.11	-1791.36	  467.98
     12.9700	  509.00	  590.08	-1843.33	  468.22
     13.0700	  555.00	  588.32	-1795.57	  468.44
     13.1700	  619.00	  587.23	-1730.48	  468.66
     13.2700	  567.00	  586.51	-1781.76	  468.87
     13.3700	  550.00	  586.00	-1798.25	  469.07
     13.4700	  576.00	  585.65	-1771.90	  469.27
     13.5700	  561.00	  585.43	-1786.68	  469.45
     13.6700	  545.00	  585.25	-1802.50	  469.63
     13.7700	  549.00	  585.13	-1798.38	  469.79
     13.8700	  575.00	  585.05	-1772.30	  469.95
     13.9700	  568.00	  585.00	-1779.25	  470.11
     14.0700	  563.00	  584.97	-1784.22	  470.25
     14.1700	  562.00	  584.96	-1785.21	  470.39
     14.2700	  571.00	  584.97	-1776.22	  470.52
     14.3700	  534.00	  584.98	-1813.23	  470.64
     14.4700	  583.00	  585.00	-1764.25	  470.75
     14.5700	  578.00	  585.02	-1769.27	  470.86
     14.6700	  544.00	  585.05	-1803.30	  470.95
     14.7700	  584.00	  585.07	-1763.32	  471.04
     14.8700	  574.00	  585.10	-1773.35	  471.13
     14.9700	  578.00	  585.12	-1769.37	  471.20
     15.0700	  569.00	  585.15	-1778.40	  471.27
     15.1700	  560.00	  585.17	-1787.42	  471.33
     15.2700	  566.00	  585.18	-1781.43	  471.39
     15.3700	  573.00	  585.20	-1774.45	  471.44
     15.4700	  559.00	  585.21	-1788.46	  471.48
     15.5700	  572.00	  585.21	-1775.46	  471.51
     15.6700	  603.00	  585.22	-1744.47	  471.54
     15.7700	  531.00	  585.21	-1816.46	  471.56
     15.8700	  582.00	  585.20	-1765.45	  471.57
     15.9700	  557.00	  585.19	-1790.44	  471.58
     16.0700	  521.00	  585.17	-1826.42	  471.58
     16.1700	  558.00	  585.15	-1789.40	  471.57
     16.2700	  598.00	  585.12	-1749.37	  471.56
     16.3700	  561.00	  585.09	-1786.34	  471.54
     16.4700	  596.00	  585.06	-1751.31	  471.51
     16.5700	  538.00	  585.01	-1809.26	  471.48
     16.6700	  554.00	  584.96	-1793.21	  471.44
     16.7700	  572.00	  584.91	-1775.16	  471.40
     16.8700	  536.00	  584.85	-1811.10	  471.35
     16.9700	  561.00	  584.79	-1786.04	  471.29
     17.0700	  576.00	  584.72	-1770.97	  471.23
     17.1700	  631.00	  584.64	-1715.89	  471.16
     17.2700	  563.00	  584.56	-1783.81	  471.09
     17.3700	  595.00	  584.48	-1751.73	  471.01
     17.4700	  583.00	  584.39	-1763.64	  470.92
     17.5700	  577.00	  584.41	-1769.66	  470.83
     17.6700	  567.00	  584.31	-1779.56	  470.73
     17.7700	  591.00	  584.21	-1755.46	  470.63
     17.8700	  572.00	  584.10	-1774.35	  470.52
     17.9700	  553.00	  584.09	-1793.34	  470.41
     18.0700	  558.00	  583.97	-1788.22	  470.29
     18.1700	  582.00	  583.85	-1764.10	  470.17
     18.2700	  570.00	  583.73	-1775.98	  470.04
     18.3700	  538.00	  583.60	-1807.85	  469.91
     18.4700	  585.00	  583.46	-1760.71	  469.77
     18.5700	  637.00	  583.32	-1708.57	  469.62
     18.6700	  509.00	  583.18	-1836.43	  469.48
     18.7700	  574.00	  583.03	-1771.28	  469.32
     18.8700	  539.00	  582.88	-1806.13	  469.16
     18.9700	  536.00	  582.72	-1808.97	  469.00
     19.0700	  567.00	  582.56	-1777.81	  468.83
     19.1700	  559.00	  582.40	-1785.65	  468.66
     19.2700	  574.00	  582.23	-1770.48	  468.48
     19.3700	  546.00	  582.05	-1798.30	  468.30
     19.4700	  579.00	  581.88	-1765.13	  468.11
     19.5700	  569.00	  581.74	-1774.99	  467.92
     19.6700	  532.00	  581.55	-1811.80	  467.73
     19.7700	  567.00	  581.37	-1776.62	  467.53
     19.8700	  591.00	  581.17	-1752.42	  467.32
     19.9700	  609.00	  580.98	-1734.23	  467.11
     20.0700	  565.00	  580.78	-1778.03	  466.90
     20.1700	  518.00	  580.58	-1824.83	  466.68
     20.2700	  562.00	  580.38	-1780.63	  466.46
     20.3700	  555.00	  580.17	-1787.42	  466.24
     20.4700	  557.00	  579.96	-1785.21	  466.01
     20.5700	  596.00	  579.75	-1746.00	  465.78
     20.6700	  565.00	  579.53	-1776.78	  465.54
     20.7700	  555.00	  579.31	-1786.56	  465.30
     20.8700	  573.00	  579.09	-1768.34	  465.05
     20.9700	  551.00	  578.87	-1790.12	  464.81
     21.0700	  551.00	  578.64	-1789.89	  464.55
     21.1700	  571.00	  578.41	-1769.67	  464.30
     21.2700	  585.00	  578.19	-1755.44	  464.04
     21.3700	  587.00	  577.96	-1753.21	  463.78
     21.4700	  546.00	  577.72	-1793.97	  463.51
     21.5700	  582.00	  577.49	-1757.74	  463.24
     21.6700	  634.00	  577.26	-1705.51	  462.97
     21.7700	  568.00	  577.03	-1771.28	  462.69
     21.8700	  560.00	  576.79	-1779.04	  462.41
     21.9700	  568.00	  576.56	-1770.81	  462.13
     22.0700	  617.00	  576.33	-1721.58	  461.84
     22.1700	  593.00	  576.26	-1745.51	  461.55
     22.2700	  560.00	  576.04	-1778.29	  461.26
     22.3700	  542.00	  575.82	-1796.07	  460.97
     22.4700	  604.00	  575.60	-1733.85	  460.67
     22.5700	  629.00	  575.39	-1708.64	  460.37
     22.6700	  564.00	  575.19	-1773.44	  460.06
     22.7700	  532.00	  574.99	-1805.24	  459.76
     22.8700	  577.00	  574.81	-1760.06	  459.45
     22.9700	  567.00	  574.64	-1769.89	  459.14
     23.0700	  586.00	  574.49	-1750.74	  458.82
     23.1700	  554.00	  574.32	-1782.57	  458.50
     23.2700	  573.00	  574.22	-1763.47	  458.18
     23.3700	  561.00	  574.16	-1775.41	  457.86
     23.4700	  569.00	  574.15	-1767.40	  457.53
     23.5700	  575.00	  574.21	-1761.46	  457.21
     23.6700	  584.00	  574.36	-1752.61	  456.87
     23.7700	  591.00	  574.64	-1745.89	  456.54
     23.8700	  566.00	  575.15	-1771.40	  456.21
     23.9700	  550.00	  576.01	-1788.26	  455.87
     24.0700	  562.00	  577.46	-1777.71	  455.53
     24.1700	  635.00	  579.87	-1707.12	  455.19
     24.2700	  595.00	  583.75	-1751.00	  454.84
     24.3700	  607.00	  589.65	-1744.90	  454.50
     24.4700	  622.00	  598.00	-1738.25	  454.15
     24.5700	  658.00	  608.77	-1713.02	  453.80
     24.6700	  645.00	  621.09	-1738.34	  453.44
     24.7700	  638.00	  632.65	-1756.90	  453.09
     24.8700	  714.00	  639.34	-1687.59	  452.73
     24.9700	  662.00	  636.59	-1736.84	  452.37
     25.0700	  590.00	  624.39	-1796.64	  452.01
     25.1700	  680.00	  608.79	-1691.04	  451.65
     25.2700	  595.00	  595.20	-1762.45	  451.29
     25.3700	  585.00	  585.37	-1762.62	  450.92
     25.4700	  592.00	  579.01	-1749.26	  450.56
     25.5700	  595.00	  575.14	-1742.39	  450.19
     25.6700	  617.00	  572.80	-1718.05	  449.82
     25.7700	  594.00	  571.31	-1739.56	  449.44
     25.8700	  630.00	  570.28	-1702.53	  449.07
     25.9700	  574.00	  569.54	-1757.79	  448.69
     26.0700	  629.00	  568.99	-1702.24	  448.32
     26.1700	  626.00	  568.59	-1704.84	  447.94
     26.2700	  641.00	  568.31	-1689.56	  447.56
     26.3700	  594.00	  568.15	-1736.40	  447.18
     26.4700	  608.00	  568.11	-1722.36	  446.80
     26.5700	  580.00	  568.19	-1750.44	  446.41
     26.6700	  599.00	  568.40	-1731.65	  446.03
     26.7700	  615.00	  568.77	-1716.02	  445.64
     26.8700	  622.00	  569.32	-1709.57	  445.26
     26.9700	  620.00	  570.10	-1712.35	  444.87
     27.0700	  624.00	  571.18	-1709.43	  444.48
     27.1700	  598.00	  572.66	-1736.91	  444.09
     27.2700	  631.00	  574.72	-1705.97	  443.70
     27.3700	  656.00	  577.71	-1683.96	  443.30
     27.4700	  656.00	  582.27	-1688.52	  442.91
     27.5700	  654.00	  589.60	-1697.85	  442.52
     27.6700	  642.00	  601.73	-1721.98	  442.12
     27.7700	  613.00	  621.63	-1770.89	  441.72
     27.8700	  640.00	  652.74	-1774.99	  441.33
     27.9700	  731.00	  697.31	-1728.56	  440.93
     28.0700	  716.00	  754.00	-1800.25	  440.53
     28.1700	  841.00	  815.07	-1736.32	  440.13
     28.2700	  947.00	  864.51	-1679.76	  439.73
     28.3700	  930.00	  880.97	-1713.22	  439.33
     28.4700	  936.00	  857.04	-1683.29	  438.93
     28.5700	  843.00	  817.66	-1736.91	  438.53
     28.6700	  751.00	  793.65	-1804.90	  438.13
     28.7700	  804.00	  796.05	-1754.30	  437.72
     28.8700	  778.00	  817.82	-1802.07	  437.32
     28.9700	  846.00	  839.51	-1755.76	  436.92
     29.0700	  803.00	  836.24	-1795.49	  436.51
     29.1700	  834.00	  795.77	-1724.02	  436.11
     29.2700	  786.00	  734.67	-1710.92	  435.70
     29.3700	  651.00	  676.97	-1788.22	  435.30
     29.4700	  645.00	  633.72	-1750.97	  434.89
     29.5700	  588.00	  605.55	-1779.80	  434.49
     29.6700	  603.00	  588.81	-1748.06	  434.08
     29.7700	  631.00	  579.19	-1710.44	  433.67
     29.8700	  645.00	  573.51	-1690.76	  433.27
     29.9700	  649.00	  569.98	-1683.23	  432.86
     30.0700	  661.00	  567.81	-1669.06	  432.45
     30.1700	  605.00	  566.77	-1724.02	  432.05
     30.2700	  622.00	  567.02	-1707.27	  431.64
     30.3700	  580.00	  569.07	-1751.32	  431.23
     30.4700	  601.00	  573.81	-1735.06	  430.82
     30.5700	  576.00	  582.38	-1768.63	  430.42
     30.6700	  600.00	  595.62	-1757.87	  430.01
     30.7700	  635.00	  613.13	-1740.38	  429.60
     30.8700	  651.00	  632.33	-1743.58	  429.19
     30.9700	  660.00	  647.89	-1750.14	  428.79
     31.0700	  673.00	  652.35	-1741.60	  428.38
     31.1700	  618.00	  641.26	-1785.51	  427.97
     31.2700	  605.00	  619.80	-1777.05	  427.57
     31.3700	  633.00	  597.48	-1726.73	  427.16
     31.4700	  650.00	  579.65	-1691.90	  426.76
     31.5700	  559.00	  567.43	-1770.68	  426.35
     31.6700	  562.00	  559.85	-1760.10	  425.94
     31.7700	  606.00	  555.38	-1711.63	  425.54
     31.8700	  592.00	  552.71	-1722.96	  425.13
     31.9700	  555.00	  551.03	-1758.28	  424.73
     32.0700	  582.00	  549.90	-1730.15	  424.33
     32.1700	  544.00	  549.12	-1767.37	  423.92
     32.2700	  575.00	  548.61	-1735.86	  423.52
     32.3700	  592.00	  548.34	-1718.59	  423.12
     32.4700	  594.00	  548.28	-1716.53	  422.71
     32.5700	  606.00	  548.46	-1704.71	  422.31
     32.6700	  582.00	  548.89	-1729.14	  421.91
     32.7700	  569.00	  549.62	-1742.87	  421.51
     32.8700	  545.00	  550.71	-1767.96	  421.11
     32.9700	  559.00	  552.28	-1755.53	  420.71
     33.0700	  618.00	  554.52	-1698.77	  420.31
     33.1700	  571.00	  557.78	-1749.03	  419.91
     33.2700	  526.00	  562.70	-1798.95	  419.52
     33.3700	  573.00	  570.58	-1759.83	  419.12
     33.4700	  562.00	  583.75	-1784.00	  418.72
     33.5700	  640.00	  605.82	-1728.07	  418.33
     33.6700	  682.00	  641.51	-1721.76	  417.93
     33.7700	  676.00	  694.93	-1781.18	  417.54
     33.8700	  727.00	  766.24	-1801.49	  417.15
     33.9700	  833.00	  847.42	-1776.67	  416.75
     34.0700	  964.00	  919.55	-1717.80	  416.36
     34.1700	 1011.00	  954.52	-1705.77	  415.97
     34.2700	  954.00	  929.98	-1738.23	  415.58
     34.3700	  852.00	  856.04	-1766.29	  415.19
     34.4700	  748.00	  767.64	-1781.89	  414.81
     34.5700	  689.00	  690.77	-1764.02	  414.42
     34.6700	  658.00	  634.40	-1738.65	  414.03
     34.7700	  590.00	  597.54	-1769.79	  413.65
     34.8700	  575.00	  575.18	-1762.43	  413.26
     34.9700	  566.00	  561.90	-1758.15	  412.88
     35.0700	  562.00	  553.72	-1753.97	  412.50
     35.1700	  571.00	  548.23	-1739.48	  412.12
     35.2700	  541.00	  544.21	-1765.46	  411.74
     35.3700	  531.00	  541.09	-1772.34	  411.36
     35.4700	  531.00	  538.57	-1769.82	  410.98
     35.5700	  565.00	  536.95	-1734.20	  410.61
     35.6700	  547.00	  535.18	-1750.43	  410.23
     35.7700	  515.00	  533.66	-1780.91	  409.86
     35.8700	  565.00	  532.33	-1729.58	  409.48
     35.9700	  489.00	  531.17	-1804.42	  409.11
     36.0700	  576.00	  530.13	-1716.38	  408.74
     36.1700	  479.00	  529.20	-1812.45	  408.37
     36.2700	  513.00	  528.33	-1777.58	  408.00
     36.3700	  542.00	  527.57	-1747.82	  407.64
     36.4700	  520.00	  526.88	-1769.13	  407.27
     36.5700	  507.00	  526.26	-1781.51	  406.91
     36.6700	  459.00	  525.70	-1828.95	  406.54
     36.7700	  550.00	  525.21	-1737.46	  406.18
     36.8700	  529.00	  524.80	-1758.05	  405.82
     36.9700	  544.00	  524.50	-1742.75	  405.46
     37.0700	  548.00	  524.37	-1738.62	  405.10
     37.1700	  503.00	  524.51	-1783.76	  404.75
     37.2700	  541.00	  525.07	-1746.32	  404.39
     37.3700	  525.00	  526.40	-1763.65	  404.04
     37.4700	  545.00	  528.26	-1745.51	  403.69
     37.5700	  513.00	  530.78	-1780.03	  403.34
     37.6700	  514.00	  533.63	-1781.88	  402.99
     37.7700	  531.00	  536.04	-1767.29	  402.64
     37.8700	  459.00	  536.98	-1840.23	  402.29
     37.9700	  526.00	  535.79	-1772.04	  401.95
     38.0700	  494.00	  532.87	-1801.12	  401.60
     38.1700	  514.00	  529.33	-1777.58	  401.26
     38.2700	  505.00	  525.94	-1783.19	  400.92
     38.3700	  522.00	  523.07	-1763.32	  400.58
     38.4700	  455.00	  520.84	-1828.09	  400.25
     38.5700	  494.00	  519.21	-1787.46	  399.91
     38.6700	  504.00	  518.03	-1776.28	  399.58
     38.7700	  493.00	  517.16	-1786.41	  399.24
     38.8700	  489.00	  516.48	-1789.73	  398.91
     38.9700	  499.00	  515.92	-1779.17	  398.58
     39.0700	  489.00	  515.43	-1788.68	  398.26
     39.1700	  482.00	  514.99	-1795.24	  397.93
     39.2700	  489.00	  514.59	-1787.84	  397.60
     39.3700	  489.00	  514.10	-1787.35	  397.28
     39.4700	  522.00	  513.74	-1753.99	  396.96
     39.5700	  519.00	  513.39	-1756.64	  396.64
     39.6700	  471.00	  513.07	-1804.32	  396.32
     39.7700	  496.00	  512.76	-1779.01	  396.01
     39.8700	  497.00	  512.46	-1777.71	  395.69
     39.9700	  489.00	  512.17	-1785.42	  395.38
     40.0700	  504.00	  511.90	-1770.15	  395.07
     40.1700	  516.00	  512.17	-1758.42	  394.76
     40.2700	  480.00	  511.93	-1794.18	  394.45
     40.3700	  510.00	  511.61	-1763.86	  394.15
     40.4700	  544.00	  511.41	-1729.66	  393.84
     40.5700	  477.00	  511.27	-1796.52	  393.54
     40.6700	  498.00	  511.11	-1775.36	  393.24
     40.7700	  531.00	  510.96	-1742.21	  392.94
     40.8700	  500.00	  510.84	-1773.09	  392.65
     40.9700	  496.00	  510.76	-1777.01	  392.35
     41.0700	  479.00	  510.70	-1793.95	  392.06
     41.1700	  486.00	  510.69	-1786.94	  391.77
     41.2700	  509.00	  510.74	-1763.99	  391.48
     41.3700	  513.00	  510.84	-1760.09	  391.19
     41.4700	  513.00	  511.03	-1760.28	  390.90
     41.5700	  512.00	  511.33	-1761.58	  390.62
     41.6700	  520.00	  511.78	-1754.03	  390.34
     41.7700	  480.00	  512.50	-1794.75	  390.06
     41.8700	  556.00	  513.54	-1719.79	  389.78
     41.9700	  518.00	  515.28	-1759.53	  389.50
     42.0700	  481.00	  518.08	-1799.33	  389.23
     42.1700	  518.00	  522.86	-1767.11	  388.96
     42.2700	  469.00	  530.42	-1823.67	  388.68
     42.3700	  545.00	  541.88	-1759.13	  388.42
     42.4700	  528.00	  557.76	-1792.01	  388.15
     42.5700	  574.00	  577.39	-1765.64	  387.88
     42.6700	  564.00	  598.02	-1796.27	  387.62
     42.7700	  591.00	  614.35	-1785.60	  387.36
     42.8700	  566.00	  620.23	-1816.48	  387.10
     42.9700	  626.00	  611.95	-1748.20	  386.84
     43.0700	  575.00	  593.44	-1780.69	  386.59
     43.1700	  550.00	  571.82	-1784.07	  386.33
     43.2700	  528.00	  552.22	-1786.47	  386.08
     43.3700	  555.00	  536.85	-1744.10	  385.83
     43.4700	  557.00	  525.98	-1731.23	  385.58
     43.5700	  491.00	  518.87	-1790.12	  385.34
     43.6700	  503.00	  514.41	-1773.66	  385.10
     43.7700	  473.00	  511.63	-1800.88	  384.85
     43.8700	  483.00	  509.83	-1789.08	  384.61
     43.9700	  487.00	  508.57	-1783.82	  384.38
     44.0700	  503.00	  507.62	-1766.87	  384.14
     44.1700	  482.00	  507.09	-1787.34	  383.91
     44.2700	  495.00	  506.48	-1773.73	  383.67
     44.3700	  461.00	  505.98	-1807.23	  383.44
     44.4700	  520.00	  505.57	-1747.82	  383.22
     44.5700	  489.00	  505.21	-1778.46	  382.99
     44.6700	  507.00	  504.92	-1760.17	  382.77
     44.7700	  494.00	  504.67	-1772.92	  382.55
     44.8700	  502.00	  504.47	-1764.72	  382.33
     44.9700	  525.00	  504.30	-1741.55	  382.11
     45.0700	  524.00	  504.17	-1742.42	  381.89
     45.1700	  535.00	  504.07	-1731.32	  381.68
     45.2700	  490.00	  504.00	-1776.25	  381.47
     45.3700	  517.00	  503.96	-1749.21	  381.26
     45.4700	  537.00	  503.95	-1729.20	  381.05
     45.5700	  481.00	  504.05	-1785.30	  380.84
     45.6700	  508.00	  504.10	-1758.35	  380.64
     45.7700	  512.00	  504.20	-1754.45	  380.44
     45.8700	  496.00	  504.37	-1770.62	  380.24
     45.9700	  568.00	  504.53	-1698.78	  380.04
     46.0700	  514.00	  504.73	-1752.98	  379.85
     46.1700	  530.00	  504.98	-1737.23	  379.65
     46.2700	  479.00	  505.29	-1788.54	  379.46
     46.3700	  513.00	  505.50	-1754.75	  379.27
     46.4700	  503.00	  505.93	-1765.18	  379.08
     46.5700	  506.00	  506.45	-1762.70	  378.90
     46.6700	  509.00	  507.06	-1760.31	  378.72
     46.7700	  526.00	  507.79	-1744.04	  378.53
     46.8700	  495.00	  508.69	-1775.94	  378.36
     46.9700	  486.00	  509.83	-1786.08	  378.18
     47.0700	  484.00	  511.34	-1789.59	  378.00
     47.1700	  485.00	  513.47	-1790.72	  377.83
     47.2700	  537.00	  516.60	-1741.85	  377.66
     47.3700	  497.00	  521.29	-1786.54	  377.49
     47.4700	  514.00	  528.22	-1776.47	  377.32
     47.5700	  530.00	  537.99	-1770.24	  377.16
     47.6700	  524.00	  550.83	-1789.08	  376.99
     47.7700	  546.00	  566.19	-1782.44	  376.83
     47.8700	  567.00	  582.31	-1777.56	  376.67
     47.9700	  599.00	  595.86	-1759.11	  376.52
     48.0700	  620.00	  603.13	-1745.38	  376.36
     48.1700	  645.00	  600.88	-1718.13	  376.21
     48.2700	  545.00	  591.24	-1808.49	  376.06
     48.3700	  581.00	  578.56	-1759.81	  375.91
     48.4700	  564.00	  566.57	-1764.82	  375.76
     48.5700	  553.00	  557.36	-1766.61	  375.62
     48.6700	  542.00	  551.68	-1771.93	  375.48
     48.7700	  534.00	  549.49	-1777.74	  375.33
     48.8700	  544.00	  550.40	-1768.65	  375.20
     48.9700	  555.00	  553.97	-1761.22	  375.06
     49.0700	  509.00	  560.03	-1813.28	  374.92
     49.1700	  507.00	  568.89	-1824.14	  374.79
     49.2700	  578.00	  581.65	-1765.90	  374.66
     49.3700	  550.00	  600.85	-1813.10	  374.53
     49.4700	  618.00	  631.35	-1775.60	  374.41
     49.5700	  630.00	  681.36	-1813.61	  374.28
     49.6700	  701.00	  762.94	-1824.19	  374.16
     49.7700	  766.00	  890.69	-1886.94	  374.04
     49.8700	 1010.00	 1077.61	-1829.86	  373.92
     49.9700	 1307.00	 1327.86	-1783.11	  373.80
     50.0700	 1563.00	 1627.95	-1827.20	  373.69
     50.1700	 1956.00	 1937.72	-1743.97	  373.57
     50.2700	 2294.00	 2186.12	-1654.37	  373.46
     50.3700	 2381.00	 2287.95	-1669.20	  373.35
     50.4700	 2296.00	 2197.72	-1663.97	  373.25
     50.5700	 2047.00	 1954.30	-1669.55	  373.14
     50.6700	 1644.00	 1646.01	-1764.26	  373.04
     50.7700	 1263.00	 1347.02	-1846.27	  372.94
     50.8700	  987.00	 1099.19	-1874.44	  372.84
     50.9700	  825.00	  916.54	-1853.79	  372.74
     51.0700	  710.00	  794.69	-1846.94	  372.64
     51.1700	  665.00	  719.70	-1816.95	  372.55
     51.2700	  661.00	  675.23	-1776.48	  372.46
     51.3700	  676.00	  647.22	-1733.47	  372.37
     51.4700	  611.00	  626.43	-1777.68	  372.28
     51.5700	  615.00	  608.69	-1755.94	  372.20
     51.6700	  574.00	  593.13	-1781.38	  372.11
     51.7700	  544.00	  579.95	-1798.20	  372.03
     51.8700	  573.00	  569.36	-1758.61	  371.95
     51.9700	  571.00	  561.35	-1752.60	  371.87
     52.0700	  596.00	  555.73	-1721.98	  371.80
     52.1700	  576.00	  552.17	-1738.42	  371.72
     52.2700	  546.00	  550.38	-1766.63	  371.65
     52.3700	  561.00	  550.17	-1751.42	  371.58
     52.4700	  572.00	  551.53	-1741.78	  371.51
     52.5700	  577.00	  554.80	-1740.05	  371.44
     52.6700	  596.00	  560.75	-1727.00	  371.38
     52.7700	  621.00	  570.86	-1712.11	  371.31
     52.8700	  631.00	  587.49	-1718.74	  371.25
     52.9700	  643.00	  613.94	-1733.19	  371.19
     53.0700	  615.00	  654.10	-1801.35	  371.13
     53.1700	  706.00	  711.54	-1767.79	  371.08
     53.2700	  792.00	  788.01	-1758.26	  371.02
     53.3700	  913.00	  881.52	-1730.77	  370.97
     53.4700	 1048.00	  984.26	-1698.51	  370.92
     53.5700	 1170.00	 1080.37	-1672.62	  370.87
     53.6700	 1154.00	 1146.57	-1754.82	  370.82
     53.7700	 1214.00	 1160.29	-1708.54	  370.78
     53.8700	 1086.00	 1115.83	-1792.08	  370.73
     53.9700	 1033.00	 1029.88	-1759.13	  370.69
     54.0700	  951.00	  927.76	-1739.01	  370.65
     54.1700	  833.00	  829.19	-1758.44	  370.61
     54.2700	  755.00	  745.29	-1752.54	  370.58
     54.3700	  676.00	  680.27	-1766.52	  370.54
     54.4700	  596.00	  633.73	-1799.98	  370.51
     54.5700	  602.00	  602.64	-1762.89	  370.48
     54.6700	  574.00	  583.06	-1771.31	  370.45
     54.7700	  539.00	  571.37	-1794.62	  370.42
     54.8700	  578.00	  564.74	-1748.99	  370.39
     54.9700	  580.00	  561.34	-1743.59	  370.37
     55.0700	  588.00	  560.07	-1734.32	  370.34
     55.1700	  549.00	  560.35	-1773.60	  370.32
     55.2700	  616.00	  561.93	-1708.18	  370.30
     55.3700	  549.00	  564.74	-1777.99	  370.29
     55.4700	  567.00	  568.84	-1764.09	  370.27
     55.5700	  607.00	  574.42	-1729.67	  370.25
     55.6700	  594.00	  581.88	-1750.13	  370.24
     55.7700	  566.00	  591.93	-1788.18	  370.23
     55.8700	  590.00	  605.95	-1778.20	  370.22
     55.9700	  620.00	  626.43	-1768.68	  370.21
     56.0700	  601.00	  657.63	-1818.88	  370.20
     56.1700	  701.00	  706.24	-1767.49	  370.20
     56.2700	  778.00	  781.59	-1765.84	  370.19
     56.3700	  835.00	  894.98	-1822.23	  370.19
     56.4700	  988.00	 1057.33	-1831.58	  370.19
     56.5700	 1248.00	 1275.33	-1789.58	  370.19
     56.6700	 1473.00	 1546.28	-1835.53	  370.20
     56.7700	 1805.00	 1852.95	-1810.20	  370.20
     56.8700	 2207.00	 2158.14	-1713.39	  370.20
     56.9700	 2413.00	 2402.61	-1751.86	  370.21
     57.0700	 2490.00	 2517.67	-1789.92	  370.22
     57.1700	 2482.00	 2462.38	-1742.63	  370.23
     57.2700	 2235.00	 2257.08	-1784.33	  370.24
     57.3700	 1979.00	 1966.73	-1749.98	  370.25
     57.4700	 1678.00	 1657.43	-1741.68	  370.27
     57.5700	 1275.00	 1374.31	-1861.56	  370.28
     57.6700	 1147.00	 1140.98	-1756.23	  370.30
     57.7700	  897.00	  964.72	-1829.97	  370.32
     57.8700	  799.00	  841.87	-1805.12	  370.34
     57.9700	  787.00	  763.26	-1738.51	  370.36
     58.0700	  743.00	  718.62	-1737.87	  370.38
     58.1700	  714.00	  699.48	-1747.73	  370.41
     58.2700	  716.00	  700.34	-1746.59	  370.43
     58.3700	  761.00	  718.32	-1719.57	  370.46
     58.4700	  811.00	  752.15	-1703.40	  370.49
     58.5700	  815.00	  800.76	-1748.01	  370.52
     58.6700	  884.00	  861.90	-1740.15	  370.55
     58.7700	  966.00	  930.83	-1727.08	  370.58
     58.8700	 1058.00	 1000.18	-1704.43	  370.62
     58.9700	 1138.00	 1062.38	-1686.63	  370.65
     59.0700	 1248.00	 1112.80	-1627.05	  370.69
     59.1700	 1272.00	 1148.78	-1639.03	  370.73
     59.2700	 1302.00	 1166.78	-1627.03	  370.76
     59.3700	 1289.00	 1164.94	-1638.19	  370.80
     59.4700	 1232.00	 1148.78	-1679.03	  370.85
     59.5700	 1210.00	 1130.13	-1682.38	  370.89
     59.6700	 1131.00	 1120.18	-1751.43	  370.93
     59.7700	 1202.00	 1125.47	-1685.72	  370.98
     59.8700	 1169.00	 1149.54	-1742.79	  371.02
     59.9700	 1276.00	 1195.27	-1681.52	  371.07
     60.0700	 1364.00	 1263.57	-1661.82	  371.12
     60.1700	 1347.00	 1349.06	-1764.31	  371.17
     60.2700	 1501.00	 1436.65	-1697.90	  371.22
     60.3700	 1546.00	 1501.76	-1718.01	  371.27
     60.4700	 1584.00	 1517.11	-1695.36	  371.33
     60.5700	 1556.00	 1468.02	-1674.27	  371.38
     60.6700	 1380.00	 1363.43	-1745.68	  371.43
     60.7700	 1257.00	 1228.21	-1733.46	  371.49
     60.8700	 1154.00	 1087.58	-1695.83	  371.55
     60.9700	  929.00	  959.40	-1792.65	  371.61
     61.0700	  906.00	  853.85	-1710.10	  371.67
     61.1700	  801.00	  774.93	-1736.18	  371.73
     61.2700	  791.00	  722.75	-1694.00	  371.79
     61.3700	  681.00	  695.47	-1776.72	  371.85
     61.4700	  676.00	  691.22	-1777.47	  371.92
     61.5700	  723.00	  709.30	-1748.55	  371.98
     61.6700	  689.00	  750.28	-1823.53	  372.05
     61.7700	  811.00	  815.15	-1766.40	  372.11
     61.8700	  856.00	  903.75	-1810.00	  372.18
     61.9700	  970.00	 1012.89	-1805.14	  372.25
     62.0700	 1088.00	 1134.60	-1808.85	  372.32
     62.1700	 1186.00	 1254.62	-1830.87	  372.39
     62.2700	 1263.00	 1351.92	-1851.17	  372.46
     62.3700	 1326.00	 1402.48	-1838.73	  372.54
     62.4700	 1307.00	 1390.29	-1845.54	  372.61
     62.5700	 1187.00	 1318.64	-1893.89	  372.68
     62.6700	 1198.00	 1207.59	-1771.84	  372.76
     62.7700	 1043.00	 1081.07	-1800.32	  372.84
     62.8700	  862.00	  957.86	-1858.11	  372.91
     62.9700	  782.00	  849.66	-1829.91	  372.99
     63.0700	  738.00	  762.01	-1786.26	  373.07
     63.1700	  637.00	  695.90	-1821.15	  373.15
     63.2700	  593.00	  649.11	-1818.36	  373.23
     63.3700	  567.00	  617.94	-1813.19	  373.31
     63.4700	  616.00	  598.49	-1744.74	  373.39
     63.5700	  631.00	  587.51	-1718.76	  373.47
     63.6700	  600.00	  582.87	-1745.12	  373.56
     63.7700	  626.00	  583.55	-1719.80	  373.64
     63.8700	  631.00	  589.59	-1720.84	  373.73
     63.9700	  637.00	  601.82	-1727.07	  373.81
     64.0700	  671.00	  621.54	-1712.79	  373.90
     64.1700	  695.00	  650.16	-1717.41	  373.99
     64.2700	  761.00	  688.49	-1689.74	  374.07
     64.3700	  791.00	  736.43	-1707.68	  374.16
     64.4700	  858.00	  792.15	-1696.40	  374.25
     64.5700	  915.00	  851.56	-1698.81	  374.34
     64.6700	  937.00	  907.92	-1733.17	  374.43
     64.7700	 1018.00	  952.32	-1696.57	  374.52
     64.8700	 1034.00	  976.43	-1704.68	  374.61
     64.9700	  979.00	  975.57	-1758.82	  374.70
     65.0700	  946.00	  951.44	-1767.69	  374.80
     65.1700	  943.00	  910.25	-1729.50	  374.89
     65.2700	  882.00	  860.26	-1740.51	  374.98
     65.3700	  823.00	  808.64	-1747.89	  375.08
     65.4700	  728.00	  761.54	-1795.79	  375.17
     65.5700	  694.00	  720.92	-1789.17	  375.27
     65.6700	  656.00	  687.04	-1793.29	  375.36
     65.7700	  673.00	  659.11	-1748.36	  375.46
     65.8700	  611.00	  636.31	-1787.56	  375.56
     65.9700	  672.00	  618.21	-1708.46	  375.65
     66.0700	  595.00	  604.03	-1771.28	  375.75
     66.1700	  583.00	  593.43	-1772.68	  375.85
     66.2700	  583.00	  586.08	-1765.33	  375.95
     66.3700	  558.00	  581.37	-1785.62	  376.05
     66.4700	  528.00	  579.15	-1813.40	  376.15
     66.5700	  555.00	  579.20	-1786.45	  376.25
     66.6700	  534.00	  581.49	-1809.74	  376.35
     66.7700	  569.00	  586.23	-1779.48	  376.45
     66.8700	  585.00	  593.75	-1771.00	  376.55
     66.9700	  599.00	  605.14	-1768.39	  376.65
     67.0700	  641.00	  622.22	-1743.47	  376.75
     67.1700	  619.00	  647.84	-1791.09	  376.85
     67.2700	  654.00	  686.20	-1794.45	  376.96
     67.3700	  725.00	  742.73	-1779.98	  377.06
     67.4700	  806.00	  823.82	-1780.07	  377.16
     67.5700	  911.00	  935.89	-1787.14	  377.26
     67.6700	 1043.00	 1083.79	-1803.04	  377.37
     67.7700	 1220.00	 1269.02	-1811.27	  377.47
     67.8700	 1473.00	 1487.57	-1776.82	  377.57
     67.9700	 1737.00	 1728.00	-1753.25	  377.68
     68.0700	 2067.00	 1969.91	-1665.16	  377.78
     68.1700	 2266.00	 2183.04	-1679.29	  377.89
     68.2700	 2328.00	 2329.87	-1764.12	  377.99
     68.3700	 2305.00	 2376.75	-1834.00	  378.10
     68.4700	 2258.00	 2311.38	-1815.63	  378.20
     68.5700	 2172.00	 2150.73	-1740.98	  378.30
     68.6700	 1924.00	 1930.37	-1768.62	  378.41
     68.7700	 1695.00	 1687.12	-1754.37	  378.52
     68.8700	 1398.00	 1449.65	-1813.90	  378.62
     68.9700	 1235.00	 1236.75	-1764.00	  378.73
     69.0700	 1002.00	 1058.35	-1818.60	  378.83
     69.1700	  871.00	  917.35	-1808.60	  378.94
     69.2700	  812.00	  811.56	-1761.81	  379.04
     69.3700	  687.00	  735.67	-1810.92	  379.15
     69.4700	  721.00	  683.19	-1724.44	  379.25
     69.5700	  691.00	  647.82	-1719.07	  379.36
     69.6700	  608.00	  624.28	-1778.53	  379.46
     69.7700	  611.00	  608.59	-1759.84	  379.57
     69.8700	  639.00	  597.98	-1721.23	  379.67
     69.9700	  577.00	  590.71	-1775.96	  379.78
     70.0700	  611.00	  585.52	-1736.77	  379.88
     70.1700	  555.00	  582.16	-1789.41	  379.99
     70.2700	  597.00	  580.14	-1745.39	  380.09
     70.3700	  578.00	  579.28	-1763.53	  380.20
     70.4700	  551.00	  579.59	-1790.84	  380.30
     70.5700	  611.00	  581.17	-1732.42	  380.41
     70.6700	  615.00	  584.33	-1731.58	  380.51
     70.7700	  569.00	  590.51	-1783.76	  380.62
     70.8700	  644.00	  598.76	-1717.01	  380.72
     70.9700	  602.00	  611.42	-1771.67	  380.83
     71.0700	  653.00	  630.59	-1739.84	  380.93
     71.1700	  644.00	  659.11	-1777.36	  381.03
     71.2700	  739.00	  700.57	-1723.82	  381.14
     71.3700	  761.00	  759.04	-1760.29	  381.24
     71.4700	  821.00	  838.46	-1779.71	  381.34
     71.5700	  941.00	  941.85	-1763.10	  381.45
     71.6700	 1021.00	 1070.20	-1811.45	  381.55
     71.7700	 1147.00	 1221.36	-1836.61	  381.65
     71.8700	 1346.00	 1389.02	-1805.27	  381.75
     71.9700	 1555.00	 1561.75	-1769.00	  381.86
     72.0700	 1664.00	 1722.51	-1820.76	  381.96
     72.1700	 1793.00	 1849.18	-1818.43	  382.06
     72.2700	 1888.00	 1918.68	-1792.93	  382.16
     72.3700	 1859.00	 1915.65	-1818.90	  382.26
     72.4700	 1767.00	 1840.77	-1836.02	  382.36
     72.5700	 1753.00	 1710.41	-1719.66	  382.46
     72.6700	 1574.00	 1547.88	-1736.13	  382.56
     72.7700	 1430.00	 1374.92	-1707.17	  382.66
     72.8700	 1237.00	 1208.04	-1733.29	  382.75
     72.9700	 1051.00	 1058.12	-1769.37	  382.85
     73.0700	  976.00	  931.05	-1717.30	  382.95
     73.1700	  859.00	  828.63	-1731.88	  383.05
     73.2700	  771.00	  749.62	-1740.87	  383.14
     73.3700	  749.00	  690.94	-1704.19	  383.24
     73.4700	  685.00	  648.68	-1725.93	  383.34
     73.5700	  655.00	  618.90	-1726.15	  383.43
     73.6700	  677.00	  598.13	-1683.38	  383.53
     73.7700	  604.00	  583.62	-1741.87	  383.62
     73.8700	  651.00	  573.39	-1684.64	  383.71
     73.9700	  573.00	  566.05	-1755.30	  383.81
     74.0700	  632.00	  560.22	-1690.47	  383.90
     74.1700	  572.00	  556.38	-1746.63	  383.99
     74.2700	  606.00	  553.65	-1709.90	  384.08
     74.3700	  595.00	  551.78	-1719.03	  384.17
     74.4700	  570.00	  550.57	-1742.82	  384.26
     74.5700	  564.00	  549.82	-1748.07	  384.35
     74.6700	  597.00	  549.34	-1714.59	  384.44
     74.7700	  624.00	  548.89	-1687.14	  384.53
     74.8700	  609.00	  548.25	-1701.50	  384.62
     74.9700	  620.00	  547.27	-1689.52	  384.70
     75.0700	  631.00	  545.92	-1677.17	  384.79
     75.1700	  619.00	  544.34	-1687.59	  384.88
     75.2700	  657.00	  542.77	-1648.02	  384.96
     75.3700	  627.00	  541.52	-1676.77	  385.04
     75.4700	  602.00	  540.89	-1701.14	  385.13
     75.5700	  549.00	  541.22	-1754.47	  385.21
     75.6700	  578.00	  542.88	-1727.13	  385.29
     75.7700	  558.00	  546.27	-1750.52	  385.37
     75.8700	  580.00	  551.77	-1734.02	  385.45
     75.9700	  566.00	  559.75	-1756.00	  385.53
     76.0700	  597.00	  570.41	-1735.66	  385.61
     76.1700	  621.00	  583.91	-1725.16	  385.69
     76.2700	  615.00	  599.99	-1747.24	  385.77
     76.3700	  589.00	  618.07	-1791.32	  385.84
     76.4700	  648.00	  637.12	-1751.37	  385.92
     76.5700	  621.00	  655.64	-1796.89	  385.99
     76.6700	  688.00	  671.57	-1745.82	  386.07
     76.7700	  714.00	  682.81	-1731.06	  386.14
     76.8700	  657.00	  687.26	-1792.51	  386.21
     76.9700	  681.00	  683.97	-1765.22	  386.28
     77.0700	  733.00	  673.56	-1702.81	  386.36
     77.1700	  691.00	  657.86	-1729.11	  386.42
     77.2700	  614.00	  639.13	-1787.38	  386.49
     77.3700	  636.00	  619.44	-1745.69	  386.56
     77.4700	  560.00	  600.38	-1802.63	  386.63
     77.5700	  571.00	  583.04	-1774.29	  386.69
     77.6700	  577.00	  568.06	-1753.31	  386.76
     77.7700	  566.00	  555.64	-1751.89	  386.82
     77.8700	  572.00	  545.85	-1736.10	  386.89
     77.9700	  544.00	  538.38	-1756.63	  386.95
     78.0700	  486.00	  532.87	-1809.12	  387.01
     78.1700	  535.00	  528.89	-1756.14	  387.07
     78.2700	  539.00	  525.87	-1749.12	  387.13
     78.3700	  488.00	  523.92	-1798.17	  387.18
     78.4700	  540.00	  522.57	-1744.82	  387.24
     78.5700	  513.00	  521.63	-1770.88	  387.30
     78.6700	  470.00	  520.99	-1813.24	  387.35
     78.7700	  508.00	  520.55	-1774.80	  387.41
     78.8700	  501.00	  520.29	-1781.54	  387.46
     78.9700	  533.00	  520.16	-1749.41	  387.51
     79.0700	  501.00	  520.18	-1781.43	  387.56
     79.1700	  494.00	  520.34	-1788.59	  387.61
     79.2700	  542.00	  520.67	-1740.92	  387.66
     79.3700	  487.00	  521.18	-1796.43	  387.70
     79.4700	  499.00	  521.91	-1785.16	  387.75
     79.5700	  482.00	  522.90	-1803.15	  387.79
     79.6700	  487.00	  524.20	-1799.45	  387.84
     79.7700	  518.00	  525.86	-1770.11	  387.88
     79.8700	  523.00	  527.96	-1767.21	  387.92
     79.9700	  530.00	  530.58	-1762.83	  387.96
     80.0700	  552.00	  533.84	-1744.09	  388.00
     80.1700	  548.00	  537.86	-1752.11	  388.04
     80.2700	  516.00	  542.77	-1789.02	  388.08
     80.3700	  555.00	  548.74	-1755.99	  388.11
     80.4700	  588.00	  555.93	-1730.18	  388.15
     80.5700	  538.00	  564.54	-1788.79	  388.18
     80.6700	  573.00	  574.71	-1763.96	  388.21
     80.7700	  565.00	  586.54	-1783.79	  388.24
     80.8700	  601.00	  599.73	-1760.98	  388.27
     80.9700	  646.00	  614.35	-1730.60	  388.30
     81.0700	  677.00	  629.62	-1714.87	  388.32
     81.1700	  679.00	  644.72	-1727.97	  388.35
     81.2700	  659.00	  658.75	-1762.00	  388.37
     81.3700	  679.00	  670.88	-1754.13	  388.40
     81.4700	  744.00	  680.48	-1698.73	  388.42
     81.5700	  707.00	  687.12	-1742.37	  388.44
     81.6700	  710.00	  690.57	-1742.82	  388.46
     81.7700	  734.00	  690.80	-1719.05	  388.47
     81.8700	  726.00	  687.92	-1724.17	  388.49
     81.9700	  747.00	  682.05	-1697.30	  388.51
     82.0700	  704.00	  673.41	-1731.66	  388.52
     82.1700	  732.00	  662.41	-1692.66	  388.53
     82.2700	  683.00	  649.74	-1728.99	  388.54
     82.3700	  629.00	  636.19	-1769.44	  388.55
     82.4700	  613.00	  622.47	-1771.72	  388.56
     82.5700	  607.00	  609.10	-1764.35	  388.57
     82.6700	  584.00	  596.42	-1774.67	  388.57
     82.7700	  605.00	  584.71	-1741.96	  388.58
     82.8700	  597.00	  574.20	-1739.45	  388.58
     82.9700	  556.00	  565.14	-1771.39	  388.58
     83.0700	  586.00	  557.69	-1733.94	  388.58
     83.1700	  532.00	  551.94	-1782.19	  388.58
     83.2700	  513.00	  547.91	-1797.16	  388.58
     83.3700	  529.00	  545.55	-1778.80	  388.57
     83.4700	  519.00	  544.79	-1788.04	  388.57
     83.5700	  522.00	  545.46	-1785.71	  388.56
     83.6700	  544.00	  547.36	-1765.61	  388.55
     83.7700	  496.00	  550.23	-1816.48	  388.54
     83.8700	  563.00	  553.73	-1752.98	  388.53
     83.9700	  558.00	  557.44	-1761.69	  388.51
     84.0700	  578.00	  560.91	-1745.16	  388.50
     84.1700	  581.00	  563.54	-1744.79	  388.48
     84.2700	  550.00	  565.03	-1777.28	  388.47
     84.3700	  567.00	  564.91	-1760.16	  388.45
     84.4700	  579.00	  563.21	-1746.46	  388.43
     84.5700	  548.00	  560.08	-1774.33	  388.41
     84.6700	  514.00	  555.92	-1804.17	  388.38
     84.7700	  571.00	  551.15	-1742.40	  388.36
     84.8700	  550.00	  546.17	-1758.42	  388.33
     84.9700	  552.00	  541.33	-1751.58	  388.30
     85.0700	  523.00	  536.85	-1776.10	  388.27
     85.1700	  549.00	  532.90	-1746.15	  388.24
     85.2700	  527.00	  529.56	-1764.81	  388.21
     85.3700	  522.00	  526.86	-1767.11	  388.18
     85.4700	  485.00	  524.76	-1802.01	  388.14
     85.5700	  508.00	  523.23	-1777.48	  388.10
     85.6700	  500.00	  522.20	-1784.45	  388.06
     85.7700	  495.00	  521.59	-1788.84	  388.02
     85.8700	  519.00	  521.37	-1764.62	  387.98
     85.9700	  519.00	  521.50	-1764.75	  387.94
     86.0700	  464.00	  521.99	-1820.24	  387.89
     86.1700	  518.00	  522.88	-1767.13	  387.85
     86.2700	  524.00	  524.23	-1762.48	  387.80
     86.3700	  536.00	  526.14	-1752.39	  387.75
     86.4700	  490.00	  528.75	-1801.00	  387.70
     86.5700	  519.00	  532.19	-1775.44	  387.65
     86.6700	  537.00	  536.63	-1761.88	  387.59
     86.7700	  574.00	  542.18	-1730.43	  387.54
     86.8700	  552.00	  548.93	-1759.18	  387.48
     86.9700	  501.00	  556.92	-1818.17	  387.42
     87.0700	  520.00	  566.07	-1808.32	  387.36
     87.1700	  561.00	  576.19	-1777.44	  387.30
     87.2700	  559.00	  586.96	-1790.21	  387.23
     87.3700	  597.00	  597.91	-1763.16	  387.17
     87.4700	  648.00	  608.42	-1722.67	  387.10
     87.5700	  621.00	  617.71	-1758.96	  387.03
     87.6700	  640.00	  624.94	-1747.19	  386.96
     87.7700	  641.00	  629.33	-1750.58	  386.89
     87.8700	  662.00	  630.37	-1730.62	  386.82
     87.9700	  654.00	  628.01	-1736.26	  386.74
     88.0700	  584.00	  622.69	-1800.94	  386.67
     88.1700	  614.00	  615.17	-1763.42	  386.59
     88.2700	  565.00	  606.38	-1803.63	  386.51
     88.3700	  635.00	  597.17	-1724.42	  386.43
     88.4700	  542.00	  588.32	-1808.57	  386.35
     88.5700	  564.00	  580.44	-1778.69	  386.26
     88.6700	  538.00	  574.00	-1798.25	  386.18
     88.7700	  562.00	  568.86	-1769.11	  386.09
     88.8700	  529.00	  566.01	-1799.26	  386.00
     88.9700	  552.00	  565.01	-1775.26	  385.91
     89.0700	  580.00	  565.70	-1747.95	  385.81
     89.1700	  582.00	  567.80	-1748.05	  385.72
     89.2700	  584.00	  570.92	-1749.17	  385.63
     89.3700	  603.00	  574.58	-1733.83	  385.53
     89.4700	  622.00	  578.25	-1718.50	  385.43
     89.5700	  589.00	  581.34	-1754.59	  385.33
     89.6700	  634.00	  583.32	-1711.57	  385.23
     89.7700	  573.00	  583.76	-1773.01	  385.12
     89.8700	  575.00	  582.48	-1769.73	  385.02
     89.9700	  648.00	  579.53	-1693.78	  384.91
     90.0700	  547.00	  575.23	-1790.48	  384.80
     90.1700	  524.00	  569.97	-1808.22	  384.69
     90.2700	  563.00	  564.20	-1763.45	  384.58
     90.3700	  550.00	  558.29	-1770.54	  384.47
     90.4700	  541.00	  552.56	-1773.81	  384.35
     90.5700	  545.00	  547.26	-1764.51	  384.24
     90.6700	  521.00	  542.54	-1783.79	  384.12
     90.7700	  533.00	  538.50	-1767.75	  384.00
     90.8700	  557.00	  535.20	-1740.45	  383.88
     90.9700	  502.00	  532.60	-1792.85	  383.76
     91.0700	  477.00	  530.69	-1815.94	  383.63
     91.1700	  492.00	  529.40	-1799.65	  383.51
     91.2700	  480.00	  528.66	-1810.91	  383.38
     91.3700	  470.00	  528.45	-1820.70	  383.25
     91.4700	  507.00	  528.71	-1783.96	  383.12
     91.5700	  548.00	  529.46	-1743.71	  382.99
     91.6700	  497.00	  530.72	-1795.97	  382.85
     91.7700	  532.00	  532.56	-1762.81	  382.72
     91.8700	  548.00	  535.07	-1749.32	  382.58
     91.9700	  481.00	  538.38	-1819.63	  382.44
     92.0700	  522.00	  542.65	-1782.90	  382.30
     92.1700	  544.00	  548.04	-1766.29	  382.16
     92.2700	  524.00	  554.70	-1792.95	  382.02
     92.3700	  533.00	  562.80	-1792.05	  381.87
     92.4700	  532.00	  572.44	-1802.69	  381.73
     92.5700	  555.00	  583.68	-1790.93	  381.58
     92.6700	  555.00	  596.50	-1803.75	  381.43
     92.7700	  597.00	  610.80	-1776.05	  381.28
     92.8700	  609.00	  626.38	-1779.63	  381.13
     92.9700	  617.00	  642.93	-1788.18	  380.97
     93.0700	  643.00	  660.01	-1779.26	  380.82
     93.1700	  675.00	  677.09	-1764.34	  380.66
     93.2700	  706.00	  693.55	-1749.80	  380.51
     93.3700	  741.00	  708.84	-1730.09	  380.35
     93.4700	  729.00	  722.54	-1755.79	  380.18
     93.5700	  728.00	  734.56	-1768.81	  380.02
     93.6700	  713.00	  745.18	-1794.43	  379.86
     93.7700	  777.00	  754.91	-1740.16	  379.69
     93.8700	  823.00	  764.36	-1703.61	  379.53
     93.9700	  793.00	  774.05	-1743.30	  379.36
     94.0700	  820.00	  784.04	-1726.29	  379.19
     94.1700	  813.00	  795.11	-1744.36	  379.02
     94.2700	  816.00	  807.00	-1753.25	  378.84
     94.3700	  849.00	  819.71	-1732.96	  378.67
     94.4700	  875.00	  833.22	-1720.47	  378.50
     94.5700	  869.00	  847.43	-1740.68	  378.32
     94.6700	  881.00	  862.05	-1743.30	  378.14
     94.7700	  827.00	  876.49	-1811.74	  377.96
     94.8700	  880.00	  889.78	-1772.03	  377.78
     94.9700	  897.00	  900.65	-1765.90	  377.60
     95.0700	  973.00	  907.66	-1696.91	  377.41
     95.1700	  899.00	  909.41	-1772.66	  377.23
     95.2700	  875.00	  904.92	-1792.17	  377.04
     95.3700	  873.00	  893.95	-1783.20	  376.86
     95.4700	  838.00	  877.10	-1801.35	  376.67
     95.5700	  869.00	  855.64	-1748.89	  376.48
     95.6700	  777.00	  831.28	-1816.53	  376.29
     95.7700	  805.00	  805.84	-1763.09	  376.09
     95.8700	  748.00	  781.09	-1795.34	  375.90
     95.9700	  733.00	  758.69	-1787.94	  375.70
     96.0700	  679.00	  740.11	-1823.36	  375.51
     96.1700	  708.00	  726.67	-1780.92	  375.31
     96.2700	  693.00	  719.52	-1788.77	  375.11
     96.3700	  678.00	  719.66	-1803.91	  374.91
     96.4700	  674.00	  727.89	-1816.14	  374.71
     96.5700	  764.00	  744.86	-1743.11	  374.50
     96.6700	  786.00	  770.96	-1747.21	  374.30
     96.7700	  761.00	  806.38	-1807.63	  374.10
     96.8700	  853.00	  850.99	-1760.24	  373.89
     96.9700	  891.00	  904.27	-1775.52	  373.68
     97.0700	  985.00	  965.32	-1742.57	  373.47
     97.1700	 1099.00	 1032.72	-1695.97	  373.26
     97.2700	 1094.00	 1104.52	-1772.77	  373.05
     97.3700	 1181.00	 1178.23	-1759.48	  372.84
     97.4700	 1211.00	 1250.74	-1801.99	  372.63
     97.5700	 1281.00	 1318.44	-1799.69	  372.41
     97.6700	 1362.00	 1377.30	-1777.55	  372.20
     97.7700	 1420.00	 1423.26	-1765.51	  371.98
     97.8700	 1442.00	 1452.79	-1773.04	  371.76
     97.9700	 1476.00	 1463.56	-1749.81	  371.55
     98.0700	 1460.00	 1455.00	-1757.25	  371.33
     98.1700	 1385.00	 1428.43	-1805.68	  371.11
     98.2700	 1352.00	 1386.65	-1796.90	  370.88
     98.3700	 1340.00	 1333.37	-1755.62	  370.66
     98.4700	 1230.00	 1272.57	-1804.82	  370.44
     98.5700	 1232.00	 1208.10	-1738.35	  370.21
     98.6700	 1200.00	 1143.50	-1705.75	  369.99
     98.7700	 1045.00	 1081.85	-1799.10	  369.76
     98.8700	 1006.00	 1025.72	-1781.97	  369.53
     98.9700	  958.00	  977.25	-1781.50	  369.31
     99.0700	  895.00	  938.12	-1805.37	  369.08
     99.1700	  870.00	  909.67	-1801.92	  368.85
     99.2700	  866.00	  892.89	-1789.15	  368.62
     99.3700	  819.00	  888.48	-1831.73	  368.39
     99.4700	  936.00	  896.83	-1723.08	  368.15
     99.5700	  923.00	  918.10	-1757.35	  367.92
     99.6700	 1022.00	  952.17	-1692.42	  367.69
     99.7700	 1010.00	  998.67	-1750.92	  367.45
     99.8700	 1073.00	 1056.92	-1746.17	  367.22
     99.9700	 1132.00	 1125.92	-1756.17	  366.98
    100.0700	 1199.00	 1204.28	-1767.53	  366.74
    100.1700	 1356.00	 1290.18	-1696.43	  366.51
    100.2700	 1374.00	 1381.30	-1769.55	  366.27
    100.3700	 1521.00	 1474.79	-1716.04	  366.03
    100.4700	 1598.00	 1567.45	-1731.70	  365.79
    100.5700	 1626.00	 1655.76	-1792.01	  365.55
    100.6700	 1786.00	 1736.31	-1712.56	  365.31
    100.7700	 1815.00	 1806.21	-1753.46	  365.07
    100.8700	 1848.00	 1863.33	-1777.58	  364.82
    100.9700	 1924.00	 1906.33	-1744.58	  364.58
    101.0700	 1900.00	 1934.42	-1796.67	  364.34
    101.1700	 1983.00	 1947.07	-1726.32	  364.09
    101.2700	 1981.00	 1943.85	-1725.10	  363.85
    101.3700	 1921.00	 1924.62	-1765.87	  363.60
    101.4700	 1762.00	 1889.83	-1890.08	  363.36
    101.5700	 1919.00	 1840.93	-1684.18	  363.11
    101.6700	 1851.00	 1780.48	-1691.73	  362.87
    101.7700	 1664.00	 1711.94	-1810.19	  362.62
    101.8700	 1710.00	 1639.17	-1691.42	  362.38
    101.9700	 1545.00	 1565.91	-1783.16	  362.13
    102.0700	 1497.00	 1495.38	-1760.63	  361.88
    102.1700	 1378.00	 1430.08	-1814.33	  361.63
    102.2700	 1431.00	 1371.67	-1702.92	  361.38
    102.3700	 1264.00	 1321.00	-1819.25	  361.14
    102.4700	 1254.00	 1278.18	-1786.43	  360.89
    102.5700	 1220.00	 1242.62	-1784.87	  360.64
    102.6700	 1208.00	 1213.12	-1767.37	  360.39
    102.7700	 1220.00	 1187.97	-1730.22	  360.14
    102.8700	 1126.00	 1165.15	-1801.40	  359.89
    102.9700	 1116.00	 1142.58	-1788.83	  359.64
    103.0700	 1049.00	 1118.40	-1831.65	  359.39
    103.1700	 1100.00	 1091.24	-1753.49	  359.14
    103.2700	 1038.00	 1060.43	-1784.68	  358.89
    103.3700	 1029.00	 1025.97	-1759.22	  358.64
    103.4700	  983.00	  988.45	-1767.70	  358.39
    103.5700	  928.00	  948.76	-1783.01	  358.14
    103.6700	  928.00	  907.94	-1742.19	  357.89
    103.7700	  854.00	  867.03	-1775.28	  357.64
    103.8700	  892.00	  826.99	-1697.24	  357.39
    103.9700	  797.00	  788.63	-1753.88	  357.14
    104.0700	  800.00	  752.62	-1714.87	  356.89
    104.1700	  777.00	  719.46	-1704.71	  356.64
    104.2700	  726.00	  689.51	-1725.76	  356.39
    104.3700	  732.00	  662.94	-1693.19	  356.15
    104.4700	  657.00	  639.81	-1745.06	  355.90
    104.5700	  650.00	  620.02	-1732.27	  355.65
    104.6700	  619.00	  603.41	-1746.66	  355.40
    104.7700	  639.00	  589.72	-1712.97	  355.15
    104.8700	  622.00	  578.65	-1718.90	  354.90
    104.9700	  595.00	  569.90	-1737.15	  354.66
    105.0700	  564.00	  563.17	-1761.42	  354.41
    105.1700	  560.00	  558.15	-1760.40	  354.16
    105.2700	  611.00	  554.59	-1705.84	  353.92
    105.3700	  562.00	  552.27	-1752.52	  353.67
    105.4700	  568.00	  551.01	-1745.26	  353.43
    105.5700	  521.00	  550.67	-1791.92	  353.18
    105.6700	  556.00	  551.13	-1757.38	  352.94
    105.7700	  546.00	  552.33	-1768.58	  352.69
    105.8700	  583.00	  554.22	-1733.47	  352.45
    105.9700	  580.00	  556.77	-1739.02	  352.21
    106.0700	  602.00	  560.01	-1720.26	  351.97
    106.1700	  582.00	  563.94	-1744.19	  351.73
    106.2700	  579.00	  568.61	-1751.86	  351.49
    106.3700	  578.00	  574.05	-1758.30	  351.25
    106.4700	  564.00	  580.28	-1778.53	  351.01
    106.5700	  534.00	  587.34	-1815.59	  350.77
    106.6700	  618.00	  595.18	-1739.43	  350.53
    106.7700	  565.00	  603.74	-1800.99	  350.30
    106.8700	  600.00	  612.90	-1775.15	  350.06
    106.9700	  582.00	  622.49	-1802.74	  349.83
    107.0700	  644.00	  632.30	-1750.55	  349.59
    107.1700	  633.00	  642.06	-1771.31	  349.36
    107.2700	  623.00	  651.47	-1790.72	  349.13
    107.3700	  696.00	  660.19	-1726.44	  348.90
    107.4700	  672.00	  667.88	-1758.13	  348.67
    107.5700	  634.00	  674.22	-1802.47	  348.44
    107.6700	  661.00	  679.02	-1780.27	  348.21
    107.7700	  696.00	  682.17	-1748.42	  347.99
    107.8700	  701.00	  683.72	-1744.97	  347.76
    107.9700	  720.00	  683.88	-1726.13	  347.54
    108.0700	  649.00	  682.97	-1796.22	  347.32
    108.1700	  692.00	  681.37	-1751.62	  347.10
    108.2700	  668.00	  679.49	-1773.74	  346.88
    108.3700	  679.00	  677.67	-1760.92	  346.66
    108.4700	  684.00	  676.22	-1754.47	  346.45
    108.5700	  689.00	  675.34	-1748.59	  346.23
    108.6700	  661.00	  675.16	-1776.41	  346.02
    108.7700	  686.00	  675.70	-1751.95	  345.81
    108.8700	  701.00	  676.89	-1738.14	  345.60
    108.9700	  656.00	  678.56	-1784.81	  345.39
    109.0700	  670.00	  680.47	-1772.72	  345.18
    109.1700	  663.00	  682.28	-1781.53	  344.97
    109.2700	  659.00	  683.63	-1786.88	  344.77
    109.3700	  696.00	  684.14	-1750.39	  344.57
    109.4700	  690.00	  683.46	-1755.71	  344.37
    109.5700	  668.00	  681.32	-1775.57	  344.17
    109.6700	  693.00	  677.60	-1746.85	  343.97
    109.7700	  691.00	  672.29	-1743.54	  343.78
    109.8700	  683.00	  665.52	-1744.77	  343.59
    109.9700	  680.00	  657.52	-1739.77	  343.40
    110.0700	  619.00	  648.60	-1791.85	  343.21
    110.1700	  658.00	  639.07	-1743.32	  343.02
    110.2700	  650.00	  629.22	-1741.47	  342.84
    110.3700	  666.00	  619.36	-1715.61	  342.66
    110.4700	  661.00	  609.72	-1710.97	  342.48
    110.5700	  589.00	  600.52	-1773.77	  342.30
    110.6700	  588.00	  591.95	-1766.20	  342.12
    110.7700	  602.00	  584.14	-1744.39	  341.95
    110.8700	  602.00	  577.20	-1737.45	  341.78
    110.9700	  569.00	  571.17	-1764.42	  341.61
    111.0700	  545.00	  566.09	-1783.34	  341.44
    111.1700	  568.00	  561.95	-1756.20	  341.28
    111.2700	  603.00	  558.73	-1717.98	  341.12
    111.3700	  559.00	  556.37	-1759.62	  340.96
    111.4700	  581.00	  554.82	-1736.07	  340.80
    111.5700	  569.00	  554.00	-1747.25	  340.65
    111.6700	  548.00	  553.84	-1768.09	  340.50
    111.7700	  563.00	  554.24	-1753.49	  340.35
    111.8700	  548.00	  555.15	-1769.40	  340.21
    111.9700	  543.00	  556.48	-1775.73	  340.06
    112.0700	  578.00	  558.17	-1742.42	  339.92
    112.1700	  549.00	  560.17	-1773.42	  339.79
    112.2700	  600.00	  562.42	-1724.67	  339.65
    112.3700	  582.00	  564.91	-1745.16	  339.52
    112.4700	  529.00	  567.60	-1800.85	  339.39
    112.5700	  561.00	  570.49	-1771.74	  339.27
    112.6700	  570.00	  573.61	-1765.86	  339.15
    112.7700	  639.00	  576.97	-1700.22	  339.03
    112.8700	  559.00	  580.62	-1783.87	  338.92
    112.9700	  582.00	  584.61	-1764.86	  338.80
    113.0700	  585.00	  589.01	-1766.26	  338.69
    113.1700	  596.00	  593.91	-1760.16	  338.59
    113.2700	  597.00	  599.42	-1764.67	  338.49
    113.3700	  614.00	  605.67	-1753.92	  338.39
    113.4700	  609.00	  612.85	-1766.10	  338.29
    113.5700	  632.00	  621.18	-1751.43	  338.20
    113.6700	  609.00	  630.92	-1784.17	  338.11
    113.7700	  628.00	  642.44	-1776.69	  338.03
    113.8700	  689.00	  656.18	-1729.43	  337.95
    113.9700	  672.00	  672.68	-1762.93	  337.87
    114.0700	  675.00	  692.62	-1779.87	  337.80
    114.1700	  735.00	  716.82	-1744.07	  337.73
    114.2700	  705.00	  746.27	-1803.52	  337.66
    114.3700	  783.00	  782.14	-1761.39	  337.60
    114.4700	  841.00	  825.77	-1747.02	  337.55
    114.5700	  857.00	  878.74	-1783.99	  337.49
    114.6700	  939.00	  942.79	-1766.04	  337.44
    114.7700	 1035.00	 1019.80	-1747.05	  337.40
    114.8700	 1109.00	 1111.87	-1765.12	  337.36
    114.9700	 1281.00	 1221.09	-1702.34	  337.32
    115.0700	 1359.00	 1349.66	-1752.91	  337.29
    115.1700	 1524.00	 1499.64	-1737.89	  337.26
    115.2700	 1703.00	 1672.90	-1732.15	  337.23
    115.3700	 1925.00	 1871.11	-1708.36	  337.21
    115.4700	 2163.00	 2095.40	-1694.65	  337.20
    115.5700	 2465.00	 2346.43	-1643.68	  337.19
    115.6700	 2714.00	 2624.08	-1672.33	  337.18
    115.7700	 2957.00	 2927.41	-1732.66	  337.18
    115.8700	 3246.00	 3254.63	-1770.88	  337.19
    115.9700	 3558.00	 3602.81	-1807.06	  337.19
    116.0700	 3932.00	 3968.07	-1798.32	  337.21
    116.1700	 4370.00	 4345.29	-1737.54	  337.22
    116.2700	 4744.00	 4728.21	-1746.46	  337.25
    116.3700	 5174.00	 5109.65	-1697.90	  337.27
    116.4700	 5428.00	 5481.16	-1815.41	  337.31
    116.5700	 5926.00	 5833.62	-1669.87	  337.35
    116.6700	 6138.00	 6157.06	-1781.31	  337.39
    116.7700	 6373.00	 6441.15	-1830.40	  337.44
    116.8700	 6585.00	 6675.93	-1853.18	  337.49
    116.9700	 6794.00	 6852.16	-1820.41	  337.55
    117.0700	 6909.00	 6962.50	-1815.75	  337.61
    117.1700	 7049.00	 7002.11	-1715.36	  337.68
    117.2700	 6836.00	 6969.43	-1895.68	  337.76
    117.3700	 6821.00	 6866.25	-1807.50	  337.84
    117.4700	 6588.00	 6697.61	-1871.86	  337.92
    117.5700	 6273.00	 6470.99	-1960.24	  338.02
    117.6700	 6147.00	 6195.60	-1810.85	  338.11
    117.7700	 5901.00	 5881.55	-1742.80	  338.22
    117.8700	 5435.00	 5538.91	-1866.16	  338.33
    117.9700	 4988.00	 5177.59	-1951.84	  338.44
    118.0700	 4819.00	 4806.52	-1749.77	  338.56
    118.1700	 4594.00	 4433.87	-1602.12	  338.69
    118.2700	 4100.00	 4066.76	-1729.01	  338.82
    118.3700	 3776.00	 3711.02	-1697.27	  338.96
    118.4700	 3397.00	 3371.56	-1736.81	  339.11
    118.5700	 3235.00	 3051.97	-1579.22	  339.26
    118.6700	 2820.00	 2754.95	-1697.20	  339.42
    118.7700	 2509.00	 2482.18	-1735.43	  339.58
    118.8700	 2229.00	 2234.36	-1767.61	  339.75
    118.9700	 2030.00	 2011.59	-1743.84	  339.93
    119.0700	 1845.00	 1813.22	-1730.47	  340.11
    119.1700	 1581.00	 1638.19	-1819.44	  340.30
    119.2700	 1499.00	 1485.06	-1748.31	  340.50
    119.3700	 1357.00	 1352.07	-1757.32	  340.70
    119.4700	 1226.00	 1237.40	-1773.65	  340.91
    119.5700	 1212.00	 1139.06	-1689.31	  341.13
    119.6700	 1087.00	 1055.17	-1730.42	  341.36
    119.7700	 1023.00	  983.89	-1723.14	  341.59
    119.8700	  935.00	  923.48	-1750.73	  341.83
    119.9700	  888.00	  872.37	-1746.62	  342.07
    120.0700	  842.00	  829.16	-1749.41	  342.32
    120.1700	  824.00	  792.63	-1730.88	  342.59
    120.2700	  782.00	  761.71	-1741.96	  342.85
    120.3700	  721.00	  735.50	-1776.75	  343.13
    120.4700	  679.00	  713.25	-1796.50	  343.41
    120.5700	  645.00	  694.33	-1811.58	  343.70
    120.6700	  636.00	  678.23	-1804.48	  344.00
    120.7700	  660.00	  664.54	-1766.79	  344.30
    120.8700	  626.00	  652.90	-1789.15	  344.62
    120.9700	  673.00	  643.04	-1732.29	  344.94
    121.0700	  627.00	  634.74	-1769.99	  345.27
    121.1700	  586.00	  627.82	-1804.07	  345.60
    121.2700	  571.00	  622.13	-1813.38	  345.95
    121.3700	  601.00	  617.54	-1778.79	  346.30
    121.4700	  572.00	  613.95	-1804.20	  346.66
    121.5700	  605.00	  611.28	-1768.53	  347.03
    121.6700	  601.00	  609.44	-1770.69	  347.41
    121.7700	  623.00	  608.38	-1747.63	  347.80
    121.8700	  579.00	  608.03	-1791.28	  348.19
    121.9700	  618.00	  608.33	-1752.58	  348.59
    122.0700	  602.00	  609.21	-1769.46	  349.00
    122.1700	  594.00	  610.61	-1778.86	  349.42
    122.2700	  595.00	  612.47	-1779.72	  349.85
    122.3700	  624.00	  614.72	-1752.97	  350.29
    122.4700	  602.00	  617.28	-1777.53	  350.74
    122.5700	  590.00	  620.07	-1792.32	  351.19
    122.6700	  649.00	  623.01	-1736.26	  351.66
    122.7700	  644.00	  626.00	-1744.25	  352.13
    122.8700	  663.00	  628.94	-1728.19	  352.62
    122.9700	  675.00	  631.75	-1719.00	  353.11
    123.0700	  681.00	  634.33	-1715.58	  353.61
    123.1700	  652.00	  636.57	-1746.82	  354.12
    123.2700	  636.00	  638.40	-1764.65	  354.64
    123.3700	  626.00	  639.75	-1776.00	  355.17
    123.4700	  652.00	  640.57	-1750.82	  355.71
    123.5700	  677.00	  640.83	-1726.08	  356.26
    123.6700	  650.00	  640.54	-1752.79	  356.82
    123.7700	  667.00	  639.72	-1734.97	  357.39
    123.8700	  662.00	  638.40	-1738.65	  357.97
    123.9700	  595.00	  636.65	-1803.90	  358.56
    124.0700	  638.00	  634.51	-1758.76	  359.16
    124.1700	  623.00	  632.04	-1771.29	  359.77
    124.2700	  619.00	  629.35	-1772.60	  360.38
    124.3700	  571.00	  626.47	-1817.72	  361.01
    124.4700	  616.00	  623.48	-1769.73	  361.66
    124.5700	  609.00	  620.43	-1773.68	  362.31
    124.6700	  592.00	  617.38	-1787.63	  362.97
    124.7700	  626.00	  614.36	-1750.61	  363.64
    124.8700	  587.00	  611.43	-1786.68	  364.32
    124.9700	  582.00	  477.41	-1657.66	  365.02
    125.0700	  584.00	  478.11	-1762.25	  365.72
    125.1700	  656.00	  478.83	-1762.25	  366.44
    125.2700	  584.00	  479.56	-1762.25	  367.16
    125.3700	  535.00	  480.29	-1762.25	  367.90
    125.4700	  546.00	  481.04	-1762.25	  368.65
    125.5700	  587.00	  481.80	-1762.25	  369.41
    125.6700	  575.00	  482.58	-1762.25	  370.18
    125.7700	  598.00	  483.36	-1762.25	  370.97
    125.8700	  580.00	  484.15	-1762.25	  371.76
    125.9700	  563.00	  484.96	-1762.25	  372.57
    126.0700	  590.00	  485.78	-1762.25	  373.39
    126.1700	  543.00	  486.61	-1762.25	  374.22
    126.2700	  569.00	  487.45	-1762.25	  375.06
    126.3700	  553.00	  488.31	-1762.25	  375.91
    126.4700	  532.00	  489.17	-1762.25	  376.78
    126.5700	  548.00	  490.05	-1762.25	  377.66
    126.6700	  566.00	  490.94	-1762.25	  378.55
    126.7700	  535.00	  491.84	-1762.25	  379.45
    126.8700	  558.00	  492.76	-1762.25	  380.36
    126.9700	  553.00	  493.69	-1762.25	  381.29
    127.0700	  591.00	  494.63	-1762.25	  382.23
    127.1700	  549.00	  495.58	-1762.25	  383.19
    127.2700	  558.00	  496.55	-1762.25	  384.15
    127.3700	  560.00	  497.53	-1762.25	  385.13
    127.4700	  562.00	  498.52	-1762.25	  386.12
    127.5700	  558.00	  499.52	-1762.25	  387.13
    127.6700	  596.00	  500.54	-1762.25	  388.15
    127.7700	  597.00	  501.57	-1762.25	  389.18
    127.8700	  634.00	  502.62	-1762.25	  390.22
    127.9700	  585.00	  503.67	-1762.25	  391.28
    128.0700	  614.00	  504.75	-1762.25	  392.35
    128.1700	  624.00	  505.83	-1762.25	  393.44
    128.2700	  621.00	  506.93	-1762.25	  394.54
    128.3700	  679.00	  508.04	-1762.25	  395.65
    128.4700	  658.00	  509.17	-1762.25	  396.78
    128.5700	    0.00	  510.31	-1762.25	  397.92
    128.6700	    0.00	  511.46	-1762.25	  399.07
     12.3559	        	        	        	        	       0	(  0  0  2)	  0  1
     24.9862	        	        	        	        	       0	(  0  0  4)	  0  1
     28.4147	        	        	        	        	       0	(  1  0  0)	  0  1
     29.1152	        	        	        	        	       0	(  1  0  1)	  0  1
     31.1308	        	        	        	        	       0	(  1  0  2)	  0  1
     34.2534	        	        	        	        	       0	(  1  0  3)	  0  1
     37.9362	        	        	        	        	       0	(  0  0  6)	  0  1
     38.2486	        	        	        	        	       0	(  1  0  4)	  0  1
     42.9198	        	        	        	        	       0	(  1  0  5)	  0  1
     48.1276	        	        	        	        	       0	(  1  0  6)	  0  1
     50.4196	        	        	        	        	       0	(  1  1  0)	  0  1
     51.4149	        	        	        	        	       0	(  0  0  8)	  0  1
     52.1515	        	        	        	        	       0	(  1  1  2)	  0  1
     53.7844	        	        	        	        	       0	(  1  0  7)	  0  1
     57.1251	        	        	        	        	       0	(  1  1  4)	  0  1
     58.9461	        	        	        	        	       0	(  2  0  0)	  0  1
     59.3398	        	        	        	        	       0	(  2  0  1)	  0  1
     59.8441	        	        	        	        	       0	(  1  0  8)	  0  1
     60.5115	        	        	        	        	       0	(  2  0  2)	  0  1
     62.4352	        	        	        	        	       0	(  2  0  3)	  0  1
     64.8608	        	        	        	        	       0	(  1  1  6)	  0  1
     65.0738	        	        	        	        	       0	(  2  0  4)	  0  1
     65.7119	        	        	        	        	       0	(  0  0 10)	  0  1
     66.2933	        	        	        	        	       0	(  1  0  9)	  0  1
     68.3866	        	        	        	        	       0	(  2  0  5)	  0  1
     72.3368	        	        	        	        	       0	(  2  0  6)	  0  1
     73.1467	        	        	        	        	       0	(  1  0 10)	  0  1
     74.9554	        	        	        	        	       0	(  1  1  8)	  0  1
     76.8981	        	        	        	        	       0	(  2  0  7)	  0  1
     80.4475	        	        	        	        	       0	(  1  0 11)	  0  1
     81.2788	        	        	        	        	       0	(  2  1  0)	  0  1
     81.2798	        	        	        	        	       0	(  0  0 12)	  0  1
     81.6209	        	        	        	        	       0	(  2  1  1)	  0  1
     82.0608	        	        	        	        	       0	(  2  0  8)	  0  1
     82.6455	        	        	        	        	       0	(  2  1  2)	  0  1
     84.3482	        	        	        	        	       0	(  2  1  3)	  0  1
     86.7240	        	        	        	        	       0	(  2  1  4)	  0  1
     87.3055	        	        	        	        	       0	(  1  1 10)	  0  1
     87.8375	        	        	        	        	       0	(  2  0  9)	  0  1
     88.2733	        	        	        	        	       0	(  1  0 12)	  0  1
     89.7713	        	        	        	        	       0	(  2  1  5)	  0  1
     93.4962	        	        	        	        	       0	(  2  1  6)	  0  1
     94.2721	        	        	        	        	       0	(  2  0 10)	  0  1
     95.2418	        	        	        	        	       0	(  3  0  0)	  0  1
     95.5818	        	        	        	        	       0	(  3  0  1)	  0  1
     96.6030	        	        	        	        	       0	(  3  0  2)	  0  1
     96.7502	        	        	        	        	       0	(  1  0 13)	  0  1
     97.9196	        	        	        	        	       0	(  2  1  7)	  0  1
     98.3101	        	        	        	        	       0	(  3  0  3)	  0  1
     98.9473	        	        	        	        	       0	(  0  0 14)	  0  1
    100.7130	        	        	        	        	       0	(  3  0  4)	  0  1
    101.4530	        	        	        	        	       0	(  2  0 11)	  0  1
    102.2934	        	        	        	        	       0	(  1  1 12)	  0  1
    103.0861	        	        	        	        	       0	(  2  1  8)	  0  1
    103.8318	        	        	        	        	       0	(  3  0  5)	  0  1
    106.0862	        	        	        	        	       0	(  1  0 14)	  0  1
    107.7029	        	        	        	        	       0	(  3  0  6)	  0  1
    109.0798	        	        	        	        	       0	(  2  1  9)	  0  1
    109.5417	        	        	        	        	       0	(  2  0 12)	  0  1
    112.3910	        	        	        	        	       0	(  3  0  7)	  0  1
    116.0533	        	        	        	        	       0	(  2  1 10)	  0  1
    116.6484	        	        	        	        	       0	(  1  0 15)	  0  1
    117.1350	        	        	        	        	       0	(  2  2  0)	  0  1
    118.0091	        	        	        	        	       0	(  3  0  8)	  0  1
    118.6685	        	        	        	        	       0	(  2  2  2)	  0  1
    118.8354	        	        	        	        	       0	(  2  0 13)	  0  1
    120.6761	        	        	        	        	       0	(  0  0 16)	  0  1
    121.3534	        	        	        	        	       0	(  1  1 14)	  0  1
    123.4157	        	        	        	        	       0	(  2  2  4)	  0  1
    124.2911	        	        	        	        	       0	(  2  1 11)	  0  1
    124.7608	        	        	        	        	       0	(  3  0  9)	  0  1
    125.2923	        	        	        	        	       0	(  3  1  0)	  0  1
    125.7086	        	        	        	        	       0	(  3  1  1)	  0  1
    126.9710	        	        	        	        	       0	(  3  1  2)	  0  1
    129.1234	        	        	        	        	       0	(  3  1  3)	  0  1
    129.1880	        	        	        	        	       0	(  1  0 16)	  0  1
    129.9414	        	        	        	        	       0	(  2  0 14)	  0  1
    131.9926	        	        	        	        	       0	(  2  2  6)	  0  1
    132.2536	        	        	        	        	       0	(  3  1  4)	  0  1
    133.0447	        	        	        	        	       0	(  3  0 10)	  0  1
    134.3857	        	        	        	        	       0	(  2  1 12)	  0  1
    136.5257	        	        	        	        	       0	(  3  1  5)	  0  1
    142.2620	        	        	        	        	       0	(  3  1  6)	  0  1
    143.7947	        	        	        	        	       0	(  3  0 11)	  0  1
    144.4578	        	        	        	        	       0	(  2  0 15)	  0  1
    145.8161	        	        	        	        	       0	(  1  0 17)	  0  1
    146.5980	        	        	        	        	       0	(  2  2  8)	  0  1
    147.9451	        	        	        	        	       0	(  2  1 13)	  0  1
    150.2096	        	        	        	        	       0	(  3  1  7)	  0  1
    151.1039	        	        	        	        	       0	(  1  1 16)	  0  1
    155.8940	        	        	        	        	       0	(  0  0 18)	  0  1
    160.6120	        	        	        	        	       0	(  4  0  0)	  0  1
    160.6150	        	        	        	        	       0	(  3  0 12)	  0  1
    161.6654	        	        	        	        	       0	(  4  0  1)	  0  1
    163.1149	        	        	        	        	       0	(  3  1  8)	  0  1
    165.2587	        	        	        	        	       0	(  4  0  2)	  0  1
    175.5590	        	        	        	        	       0	(  4  0  3)	  0  1
    176.2849	        	        	        	        	       0	(  2  0 16)	  0  1
