MSG Master    CELL:    5.91916   5.91916  23.27571   90.0000   90.0000  120.0000   SPGR: P 63/m m c             TEMP:   1074.85
  1   1280     2.52000     0.00000    -0.12352     0.00000     0.00000    0
    99     0     2
       0.00000      10.00000
     125.00000     130.00000
 2Theta	Yobs	Ycal	Yobs-Ycal	Backg	Posr	(hkl)	K
      0.7700	    0.00	  534.75	-1755.25	  417.27
      0.8700	    0.00	  535.65	-1755.25	  418.17
      0.9700	   36.00	  536.53	-1755.25	  419.05
      1.0700	   34.00	  537.41	-1755.25	  419.93
      1.1700	   41.00	  538.27	-1755.25	  420.79
      1.2700	   45.00	  539.11	-1755.25	  421.63
      1.3700	   50.00	  539.95	-1755.25	  422.47
      1.4700	  103.00	  540.77	-1755.25	  423.29
      1.5700	  310.00	  541.58	-1755.25	  424.10
      1.6700	  473.00	  542.38	-1755.25	  424.90
      1.7700	  570.00	  543.17	-1755.25	  425.69
      1.8700	  642.00	  543.94	-1755.25	  426.47
      1.9700	  703.00	  544.71	-1755.25	  427.23
      2.0700	  771.00	  545.46	-1755.25	  427.98
      2.1700	  826.00	  546.20	-1755.25	  428.72
      2.2700	  792.00	  546.93	-1755.25	  429.45
      2.3700	  746.00	  547.65	-1755.25	  430.17
      2.4700	  725.00	  548.35	-1755.25	  430.87
      2.5700	  711.00	  549.05	-1755.25	  431.57
      2.6700	  696.00	  549.73	-1755.25	  432.25
      2.7700	  689.00	  550.40	-1755.25	  432.92
      2.8700	  627.00	  551.06	-1755.25	  433.58
      2.9700	  655.00	  551.71	-1755.25	  434.23
      3.0700	  620.00	  552.35	-1755.25	  434.87
      3.1700	  581.00	  552.98	-1755.25	  435.50
      3.2700	  579.00	  553.60	-1755.25	  436.12
      3.3700	  655.00	  554.21	-1755.25	  436.73
      3.4700	  739.00	  554.80	-1755.25	  437.32
      3.5700	  862.00	  555.39	-1755.25	  437.91
      3.6700	  894.00	  555.97	-1755.25	  438.49
      3.7700	  937.00	  556.53	-1755.25	  439.05
      3.8700	 1006.00	  557.09	-1755.25	  439.61
      3.9700	  980.00	  557.63	-1755.25	  440.15
      4.0700	 1037.00	  558.17	-1755.25	  440.69
      4.1700	 1002.00	  558.69	-1755.25	  441.21
      4.2700	 1093.00	  559.20	-1755.25	  441.73
      4.3700	 1027.00	  559.71	-1755.25	  442.23
      4.4700	 1083.00	  560.20	-1755.25	  442.72
      4.5700	 1019.00	  560.69	-1755.25	  443.21
      4.6700	 1024.00	  561.17	-1755.25	  443.69
      4.7700	  963.00	  561.63	-1755.25	  444.15
      4.8700	 1025.00	  562.09	-1755.25	  444.61
      4.9700	  943.00	  562.53	-1755.25	  445.05
      5.0700	  915.00	  562.97	-1755.25	  445.49
      5.1700	  911.00	  563.40	-1755.25	  445.92
      5.2700	  928.00	  563.82	-1755.25	  446.34
      5.3700	  874.00	  564.23	-1755.25	  446.75
      5.4700	  919.00	  564.63	-1755.25	  447.15
      5.5700	  849.00	  565.02	-1755.25	  447.54
      5.6700	  874.00	  565.40	-1755.25	  447.92
      5.7700	  836.00	  565.78	-1755.25	  448.30
      5.8700	  813.00	  566.14	-1755.25	  448.66
      5.9700	  805.00	  566.50	-1755.25	  449.02
      6.0700	  784.00	  566.85	-1755.25	  449.37
      6.1700	  746.00	  567.18	-1755.25	  449.71
      6.2700	  734.00	  567.52	-1755.25	  450.04
      6.3700	  770.00	  567.84	-1755.25	  450.36
      6.4700	  756.00	  568.15	-1755.25	  450.67
      6.5700	  744.00	  568.46	-1755.25	  450.98
      6.6700	  734.00	  568.75	-1755.25	  451.27
      6.7700	  737.00	  569.04	-1755.25	  451.56
      6.8700	  725.00	  569.32	-1755.25	  451.84
      6.9700	  725.00	  569.59	-1755.25	  452.11
      7.0700	  719.00	  569.86	-1755.25	  452.38
      7.1700	  722.00	  570.11	-1755.25	  452.63
      7.2700	  668.00	  570.36	-1755.25	  452.88
      7.3700	  700.00	  570.60	-1755.25	  453.12
      7.4700	  659.00	  570.84	-1755.25	  453.36
      7.5700	  666.00	  571.06	-1755.25	  453.58
      7.6700	  664.00	  571.28	-1755.25	  453.80
      7.7700	  680.00	  571.49	-1755.25	  454.01
      7.8700	  645.00	  571.69	-1755.25	  454.21
      7.9700	  652.00	  571.89	-1755.25	  454.41
      8.0700	  646.00	  572.08	-1755.25	  454.60
      8.1700	  642.00	  572.26	-1755.25	  454.78
      8.2700	  588.00	  572.43	-1755.25	  454.95
      8.3700	  618.00	  572.60	-1755.25	  455.12
      8.4700	  608.00	  572.75	-1755.25	  455.28
      8.5700	  600.00	  572.91	-1755.25	  455.43
      8.6700	  620.00	  573.05	-1755.25	  455.57
      8.7700	  602.00	  573.19	-1755.25	  455.71
      8.8700	  632.00	  573.32	-1755.25	  455.84
      8.9700	  639.00	  573.45	-1755.25	  455.97
      9.0700	  611.00	  573.56	-1755.25	  456.08
      9.1700	  597.00	  573.67	-1755.25	  456.19
      9.2700	  591.00	  573.78	-1755.25	  456.30
      9.3700	  592.00	  573.88	-1755.25	  456.40
      9.4700	  620.00	  573.97	-1755.25	  456.49
      9.5700	  566.00	  574.05	-1755.25	  456.57
      9.6700	  648.00	  574.13	-1755.25	  456.65
      9.7700	  558.00	  574.20	-1755.25	  456.72
      9.8700	  616.00	  574.27	-1755.25	  456.79
      9.9700	  602.00	  574.33	-1755.25	  456.85
     10.0700	  597.00	  575.16	-1733.41	  456.90
     10.1700	  584.00	  575.29	-1746.54	  456.95
     10.2700	  578.00	  575.43	-1752.68	  456.99
     10.3700	  609.00	  575.60	-1721.85	  457.03
     10.4700	  608.00	  575.81	-1723.06	  457.06
     10.5700	  610.00	  576.14	-1721.39	  457.08
     10.6700	  595.00	  576.66	-1736.91	  457.10
     10.7700	  588.00	  577.50	-1744.75	  457.11
     10.8700	  585.00	  578.73	-1748.98	  457.12
     10.9700	  560.00	  580.33	-1775.58	  457.12
     11.0700	  603.00	  582.28	-1734.53	  457.12
     11.1700	  561.00	  584.56	-1778.81	  457.11
     11.2700	  552.00	  587.20	-1790.45	  457.09
     11.3700	  596.00	  590.30	-1749.55	  457.07
     11.4700	  584.00	  593.97	-1765.22	  457.04
     11.5700	  557.00	  598.42	-1796.67	  457.01
     11.6700	  583.00	  603.99	-1776.24	  456.97
     11.7700	  714.00	  611.28	-1652.53	  456.93
     11.8700	  670.00	  621.24	-1706.49	  456.89
     11.9700	  654.00	  634.58	-1735.83	  456.83
     12.0700	  717.00	  649.81	-1688.06	  456.78
     12.1700	  718.00	  660.79	-1698.04	  456.71
     12.2700	  673.00	  657.62	-1739.87	  456.65
     12.3700	  616.00	  637.18	-1776.43	  456.58
     12.4700	  658.00	  612.08	-1709.33	  456.50
     12.5700	  631.00	  593.80	-1718.05	  456.42
     12.6700	  550.00	  583.98	-1789.23	  456.33
     12.7700	  575.00	  579.61	-1759.86	  456.24
     12.8700	  594.00	  577.67	-1738.92	  456.14
     12.9700	  556.00	  576.62	-1775.87	  456.04
     13.0700	  588.00	  575.91	-1743.16	  455.94
     13.1700	  551.00	  575.37	-1779.62	  455.83
     13.2700	  565.00	  574.94	-1765.19	  455.72
     13.3700	  591.00	  574.58	-1738.83	  455.60
     13.4700	  555.00	  574.26	-1774.51	  455.48
     13.5700	  521.00	  573.98	-1808.23	  455.35
     13.6700	  530.00	  573.73	-1798.98	  455.22
     13.7700	  571.00	  573.49	-1757.74	  455.09
     13.8700	  537.00	  573.27	-1791.52	  454.95
     13.9700	  560.00	  573.05	-1768.30	  454.81
     14.0700	  563.00	  572.84	-1765.09	  454.66
     14.1700	  572.00	  572.64	-1755.89	  454.51
     14.2700	  545.00	  572.44	-1782.69	  454.35
     14.3700	  535.00	  572.24	-1792.49	  454.20
     14.4700	  557.00	  572.05	-1770.30	  454.03
     14.5700	  595.00	  571.85	-1732.10	  453.87
     14.6700	  561.00	  571.65	-1765.90	  453.70
     14.7700	  562.00	  571.46	-1764.71	  453.52
     14.8700	  600.00	  571.26	-1726.51	  453.35
     14.9700	  550.00	  571.06	-1776.31	  453.17
     15.0700	  555.00	  570.86	-1771.11	  452.98
     15.1700	  579.00	  570.65	-1746.90	  452.79
     15.2700	  581.00	  570.45	-1744.70	  452.60
     15.3700	  534.00	  570.24	-1791.49	  452.41
     15.4700	  556.00	  570.03	-1769.28	  452.21
     15.5700	  529.00	  569.82	-1796.07	  452.01
     15.6700	  548.00	  569.61	-1776.86	  451.81
     15.7700	  520.00	  569.39	-1804.64	  451.60
     15.8700	  569.00	  569.17	-1755.42	  451.39
     15.9700	  566.00	  568.95	-1758.20	  451.17
     16.0700	  570.00	  568.73	-1753.98	  450.96
     16.1700	  601.00	  568.50	-1722.75	  450.74
     16.2700	  519.00	  568.30	-1804.55	  450.51
     16.3700	  584.00	  568.07	-1739.32	  450.29
     16.4700	  543.00	  567.83	-1780.08	  450.06
     16.5700	  522.00	  567.60	-1800.85	  449.83
     16.6700	  533.00	  567.36	-1789.61	  449.59
     16.7700	  579.00	  567.12	-1743.37	  449.36
     16.8700	  601.00	  566.87	-1721.12	  449.12
     16.9700	  579.00	  566.63	-1742.88	  448.87
     17.0700	  589.00	  566.38	-1732.63	  448.63
     17.1700	  577.00	  566.13	-1744.38	  448.38
     17.2700	  589.00	  565.88	-1732.13	  448.13
     17.3700	  523.00	  565.62	-1797.87	  447.88
     17.4700	  540.00	  565.37	-1780.62	  447.62
     17.5700	  604.00	  565.11	-1716.36	  447.36
     17.6700	  575.00	  564.84	-1745.09	  447.10
     17.7700	  570.00	  564.58	-1749.83	  446.84
     17.8700	  570.00	  564.31	-1749.56	  446.57
     17.9700	  531.00	  564.05	-1788.30	  446.31
     18.0700	  578.00	  563.88	-1741.13	  446.04
     18.1700	  599.00	  563.61	-1719.86	  445.76
     18.2700	  567.00	  563.33	-1751.58	  445.49
     18.3700	  530.00	  563.06	-1788.31	  445.21
     18.4700	  544.00	  562.78	-1774.03	  444.94
     18.5700	  577.00	  562.51	-1740.76	  444.66
     18.6700	  561.00	  562.23	-1756.48	  444.37
     18.7700	  609.00	  561.94	-1708.19	  444.09
     18.8700	  565.00	  561.66	-1751.91	  443.80
     18.9700	  528.00	  561.46	-1788.71	  443.51
     19.0700	  545.00	  561.18	-1771.43	  443.22
     19.1700	  564.00	  560.89	-1752.14	  442.93
     19.2700	  562.00	  560.60	-1753.85	  442.64
     19.3700	  576.00	  560.31	-1739.56	  442.34
     19.4700	  573.00	  560.02	-1742.27	  442.05
     19.5700	  542.00	  559.73	-1772.98	  441.75
     19.6700	  513.00	  559.44	-1801.69	  441.45
     19.7700	  559.00	  559.14	-1755.39	  441.14
     19.8700	  561.00	  558.85	-1753.10	  440.84
     19.9700	  556.00	  558.55	-1757.80	  440.54
     20.0700	  543.00	  558.25	-1770.50	  440.23
     20.1700	  533.00	  557.95	-1780.20	  439.92
     20.2700	  575.00	  557.65	-1737.90	  439.61
     20.3700	  523.00	  557.35	-1789.60	  439.30
     20.4700	  524.00	  557.05	-1788.30	  438.99
     20.5700	  536.00	  556.72	-1775.97	  438.67
     20.6700	  548.00	  556.42	-1763.67	  438.36
     20.7700	  576.00	  556.11	-1735.36	  438.04
     20.8700	  540.00	  555.81	-1771.06	  437.72
     20.9700	  558.00	  555.54	-1752.79	  437.41
     21.0700	  552.00	  555.24	-1758.49	  437.09
     21.1700	  556.00	  554.94	-1754.19	  436.76
     21.2700	  607.00	  554.63	-1702.88	  436.44
     21.3700	  564.00	  554.33	-1745.58	  436.12
     21.4700	  549.00	  554.03	-1760.28	  435.79
     21.5700	  540.00	  553.72	-1768.97	  435.47
     21.6700	  542.00	  553.42	-1766.67	  435.14
     21.7700	  582.00	  553.12	-1726.37	  434.82
     21.8700	  540.00	  552.82	-1768.07	  434.49
     21.9700	  579.00	  552.52	-1728.77	  434.16
     22.0700	  564.00	  552.22	-1743.47	  433.83
     22.1700	  539.00	  551.93	-1768.18	  433.50
     22.2700	  580.00	  551.64	-1726.89	  433.17
     22.3700	  521.00	  551.35	-1785.60	  432.83
     22.4700	  502.00	  551.06	-1804.31	  432.50
     22.5700	  564.00	  550.78	-1742.03	  432.17
     22.6700	  537.00	  550.50	-1768.75	  431.83
     22.7700	  588.00	  550.23	-1717.48	  431.50
     22.8700	  558.00	  549.96	-1747.21	  431.16
     22.9700	  558.00	  549.71	-1746.96	  430.83
     23.0700	  564.00	  549.47	-1740.72	  430.49
     23.1700	  524.00	  549.24	-1780.49	  430.15
     23.2700	  547.00	  549.03	-1757.28	  429.81
     23.3700	  562.00	  548.84	-1742.09	  429.48
     23.4700	  575.00	  548.68	-1728.93	  429.14
     23.5700	  567.00	  548.57	-1736.82	  428.80
     23.6700	  566.00	  548.52	-1737.77	  428.46
     23.7700	  546.00	  548.71	-1757.96	  428.12
     23.8700	  551.00	  548.96	-1753.21	  427.78
     23.9700	  484.00	  549.62	-1820.87	  427.44
     24.0700	  542.00	  551.10	-1764.35	  427.10
     24.1700	  569.00	  554.01	-1740.26	  426.76
     24.2700	  524.00	  559.17	-1790.42	  426.42
     24.3700	  583.00	  567.49	-1739.74	  426.07
     24.4700	  597.00	  579.97	-1738.22	  425.73
     24.5700	  592.00	  596.88	-1760.13	  425.39
     24.6700	  614.00	  615.59	-1756.84	  425.05
     24.7700	  625.00	  628.54	-1758.79	  424.71
     24.8700	  573.00	  625.55	-1807.80	  424.37
     24.9700	  599.00	  605.40	-1761.65	  424.02
     25.0700	  603.00	  581.09	-1733.34	  423.68
     25.1700	  574.00	  563.02	-1744.27	  423.34
     25.2700	  540.00	  552.92	-1768.17	  423.00
     25.3700	  560.00	  548.21	-1743.46	  422.66
     25.4700	  590.00	  546.08	-1711.33	  422.31
     25.5700	  568.00	  544.94	-1732.19	  421.97
     25.6700	  541.00	  544.18	-1758.43	  421.63
     25.7700	  586.00	  543.62	-1712.87	  421.29
     25.8700	  547.00	  543.19	-1751.44	  420.95
     25.9700	  552.00	  542.86	-1746.11	  420.61
     26.0700	  594.00	  542.61	-1703.86	  420.27
     26.1700	  530.00	  542.44	-1767.69	  419.92
     26.2700	  504.00	  542.33	-1793.58	  419.58
     26.3700	  534.00	  542.31	-1763.56	  419.24
     26.4700	  567.00	  542.36	-1730.61	  418.90
     26.5700	  531.00	  542.50	-1766.75	  418.57
     26.6700	  546.00	  542.76	-1752.01	  418.23
     26.7700	  538.00	  543.15	-1760.40	  417.89
     26.8700	  567.00	  543.71	-1731.96	  417.55
     26.9700	  596.00	  544.48	-1703.73	  417.21
     27.0700	  565.00	  545.55	-1735.80	  416.87
     27.1700	  571.00	  547.04	-1731.29	  416.54
     27.2700	  562.00	  549.20	-1742.45	  416.20
     27.3700	  594.00	  552.51	-1713.76	  415.87
     27.4700	  588.00	  557.92	-1725.17	  415.53
     27.5700	  602.00	  567.15	-1720.40	  415.20
     27.6700	  547.00	  582.92	-1791.17	  414.86
     27.7700	  534.00	  608.78	-1830.03	  414.53
     27.8700	  612.00	  647.86	-1791.11	  414.19
     27.9700	  675.00	  700.43	-1780.68	  413.86
     28.0700	  742.00	  760.66	-1773.91	  413.53
     28.1700	  891.00	  813.67	-1677.92	  413.20
     28.2700	  977.00	  836.82	-1615.07	  412.87
     28.3700	  893.00	  816.15	-1678.40	  412.54
     28.4700	  810.00	  772.27	-1717.52	  412.21
     28.5700	  709.00	  740.80	-1787.05	  411.88
     28.6700	  703.00	  738.49	-1790.74	  411.55
     28.7700	  766.00	  761.11	-1750.36	  411.23
     28.8700	  723.00	  789.15	-1821.40	  410.90
     28.9700	  753.00	  794.73	-1796.98	  410.58
     29.0700	  813.00	  759.48	-1701.73	  410.25
     29.1700	  727.00	  698.03	-1726.28	  409.93
     29.2700	  636.00	  638.92	-1758.17	  409.61
     29.3700	  576.00	  596.12	-1775.37	  409.28
     29.4700	  632.00	  570.25	-1693.50	  408.96
     29.5700	  577.00	  556.28	-1734.53	  408.64
     29.6700	  588.00	  548.93	-1716.18	  408.33
     29.7700	  611.00	  544.78	-1689.03	  408.01
     29.8700	  576.00	  542.20	-1721.45	  407.69
     29.9700	  573.00	  540.57	-1722.82	  407.38
     30.0700	  562.00	  539.73	-1732.98	  407.06
     30.1700	  572.00	  539.86	-1723.11	  406.75
     30.2700	  540.00	  541.49	-1756.74	  406.43
     30.3700	  537.00	  545.69	-1763.94	  406.12
     30.4700	  578.00	  554.11	-1731.36	  405.81
     30.5700	  580.00	  568.50	-1743.75	  405.50
     30.6700	  561.00	  589.43	-1783.68	  405.19
     30.7700	  613.00	  614.38	-1756.63	  404.89
     30.8700	  616.00	  636.37	-1775.62	  404.58
     30.9700	  625.00	  644.53	-1774.78	  404.27
     31.0700	  637.00	  631.21	-1749.46	  403.97
     31.1700	  543.00	  603.33	-1815.58	  403.67
     31.2700	  558.00	  575.07	-1772.32	  403.37
     31.3700	  522.00	  554.14	-1787.39	  403.07
     31.4700	  538.00	  541.41	-1758.66	  402.77
     31.5700	  560.00	  534.62	-1729.87	  402.47
     31.6700	  555.00	  531.13	-1731.38	  402.17
     31.7700	  554.00	  529.21	-1730.46	  401.88
     31.8700	  538.00	  527.99	-1745.24	  401.58
     31.9700	  510.00	  527.14	-1772.39	  401.29
     32.0700	  560.00	  526.53	-1721.78	  401.00
     32.1700	  563.00	  526.11	-1718.36	  400.71
     32.2700	  522.00	  525.84	-1759.09	  400.42
     32.3700	  531.00	  525.73	-1749.98	  400.13
     32.4700	  547.00	  525.77	-1734.02	  399.85
     32.5700	  539.00	  525.98	-1742.23	  399.56
     32.6700	  575.00	  526.39	-1706.64	  399.28
     32.7700	  522.00	  527.03	-1760.28	  398.99
     32.8700	  564.00	  527.98	-1719.23	  398.71
     32.9700	  562.00	  529.35	-1722.60	  398.43
     33.0700	  552.00	  531.35	-1734.60	  398.16
     33.1700	  569.00	  534.43	-1720.68	  397.88
     33.2700	  584.00	  539.61	-1710.86	  397.61
     33.3700	  573.00	  549.15	-1731.40	  397.33
     33.4700	  572.00	  567.42	-1750.67	  397.06
     33.5700	  583.00	  601.42	-1773.67	  396.79
     33.6700	  640.00	  659.34	-1774.59	  396.52
     33.7700	  745.00	  745.16	-1755.41	  396.25
     33.8700	  853.00	  849.90	-1752.15	  395.99
     33.9700	 1017.00	  945.75	-1684.00	  395.72
     34.0700	 1032.00	  989.45	-1712.70	  395.46
     34.1700	 1035.00	  948.27	-1668.52	  395.20
     34.2700	  844.00	  843.24	-1754.49	  394.94
     34.3700	  762.00	  729.24	-1722.49	  394.68
     34.4700	  622.00	  640.73	-1773.98	  394.42
     34.5700	  585.00	  585.07	-1755.32	  394.17
     34.6700	  578.00	  555.02	-1732.27	  393.91
     34.7700	  559.00	  539.99	-1736.24	  393.66
     34.8700	  531.00	  532.20	-1756.45	  393.41
     34.9700	  499.00	  527.56	-1783.81	  393.16
     35.0700	  547.00	  524.36	-1732.61	  392.92
     35.1700	  472.00	  521.95	-1805.20	  392.67
     35.2700	  515.00	  520.05	-1760.30	  392.43
     35.3700	  534.00	  518.50	-1739.75	  392.18
     35.4700	  501.00	  517.20	-1771.45	  391.94
     35.5700	  559.00	  516.11	-1712.36	  391.70
     35.6700	  517.00	  515.17	-1753.42	  391.47
     35.7700	  533.00	  514.34	-1736.59	  391.23
     35.8700	  551.00	  513.62	-1717.87	  391.00
     35.9700	  517.00	  512.98	-1751.23	  390.77
     36.0700	  558.00	  512.88	-1710.13	  390.53
     36.1700	  539.00	  512.36	-1728.61	  390.31
     36.2700	  511.00	  511.89	-1756.14	  390.08
     36.3700	  501.00	  511.47	-1765.72	  389.85
     36.4700	  562.00	  511.08	-1704.33	  389.63
     36.5700	  512.00	  510.73	-1753.98	  389.41
     36.6700	  495.00	  510.42	-1770.67	  389.19
     36.7700	  514.00	  510.16	-1751.41	  388.97
     36.8700	  496.00	  509.96	-1769.21	  388.75
     36.9700	  546.00	  509.88	-1719.13	  388.54
     37.0700	  551.00	  510.03	-1714.28	  388.32
     37.1700	  518.00	  510.65	-1747.90	  388.11
     37.2700	  507.00	  512.06	-1760.31	  387.90
     37.3700	  497.00	  514.63	-1772.88	  387.70
     37.4700	  497.00	  518.38	-1776.62	  387.49
     37.5700	  519.00	  522.71	-1758.96	  387.29
     37.6700	  530.00	  526.31	-1751.56	  387.08
     37.7700	  542.00	  527.66	-1740.91	  386.88
     37.8700	  487.00	  526.35	-1794.60	  386.68
     37.9700	  529.00	  523.49	-1749.74	  386.49
     38.0700	  506.00	  520.04	-1769.29	  386.29
     38.1700	  525.00	  516.34	-1746.59	  386.10
     38.2700	  513.00	  512.85	-1755.10	  385.91
     38.3700	  522.00	  510.03	-1743.28	  385.72
     38.4700	  493.00	  508.02	-1770.27	  385.53
     38.5700	  495.00	  506.72	-1766.97	  385.34
     38.6700	  512.00	  505.92	-1749.17	  385.16
     38.7700	  486.00	  505.31	-1774.56	  384.98
     38.8700	  501.00	  504.95	-1759.20	  384.80
     38.9700	  493.00	  504.66	-1766.91	  384.62
     39.0700	  454.00	  504.41	-1805.66	  384.44
     39.1700	  523.00	  504.18	-1736.43	  384.27
     39.2700	  510.00	  503.90	-1749.15	  384.09
     39.3700	  537.00	  503.71	-1721.96	  383.92
     39.4700	  528.00	  503.53	-1730.78	  383.75
     39.5700	  537.00	  503.37	-1721.62	  383.59
     39.6700	  517.00	  503.33	-1741.58	  383.42
     39.7700	  458.00	  503.19	-1800.44	  383.26
     39.8700	  469.00	  503.06	-1789.31	  383.10
     39.9700	  526.00	  502.93	-1732.18	  382.94
     40.0700	  485.00	  502.82	-1773.07	  382.78
     40.1700	  505.00	  502.71	-1752.96	  382.62
     40.2700	  490.00	  502.62	-1767.87	  382.47
     40.3700	  489.00	  502.54	-1768.79	  382.32
     40.4700	  494.00	  502.47	-1763.72	  382.16
     40.5700	  494.00	  502.42	-1763.67	  382.02
     40.6700	  524.00	  502.38	-1733.63	  381.87
     40.7700	  477.00	  502.37	-1780.62	  381.73
     40.8700	  467.00	  502.37	-1790.62	  381.58
     40.9700	  456.00	  502.40	-1801.65	  381.44
     41.0700	  512.00	  502.47	-1745.72	  381.30
     41.1700	  487.00	  502.58	-1770.83	  381.17
     41.2700	  503.00	  502.70	-1754.95	  381.03
     41.3700	  502.00	  502.92	-1756.17	  380.90
     41.4700	  504.00	  503.22	-1754.47	  380.77
     41.5700	  512.00	  503.64	-1746.89	  380.64
     41.6700	  491.00	  504.66	-1768.91	  380.51
     41.7700	  536.00	  505.56	-1724.81	  380.38
     41.8700	  511.00	  507.07	-1751.32	  380.26
     41.9700	  517.00	  509.90	-1748.15	  380.14
     42.0700	  516.00	  515.41	-1754.66	  380.02
     42.1700	  538.00	  525.81	-1743.06	  379.90
     42.2700	  507.00	  543.71	-1791.96	  379.78
     42.3700	  530.00	  570.67	-1795.92	  379.67
     42.4700	  585.00	  604.67	-1774.92	  379.56
     42.5700	  580.00	  638.36	-1813.61	  379.45
     42.6700	  566.00	  659.57	-1848.82	  379.34
     42.7700	  534.00	  657.27	-1878.52	  379.23
     42.8700	  577.00	  631.78	-1810.03	  379.13
     42.9700	  542.00	  595.94	-1809.19	  379.02
     43.0700	  527.00	  562.35	-1790.60	  378.92
     43.1700	  530.00	  537.23	-1762.48	  378.82
     43.2700	  553.00	  521.36	-1723.61	  378.73
     43.3700	  500.00	  512.57	-1767.82	  378.63
     43.4700	  478.00	  508.06	-1785.31	  378.54
     43.5700	  506.00	  505.74	-1754.99	  378.45
     43.6700	  473.00	  504.43	-1786.68	  378.36
     43.7700	  530.00	  503.75	-1729.00	  378.27
     43.8700	  511.00	  503.14	-1747.39	  378.19
     43.9700	  500.00	  502.67	-1757.92	  378.10
     44.0700	  535.00	  502.35	-1722.60	  378.02
     44.1700	  479.00	  502.07	-1778.32	  377.94
     44.2700	  531.00	  501.86	-1726.11	  377.86
     44.3700	  524.00	  501.69	-1732.94	  377.79
     44.4700	  534.00	  501.57	-1722.82	  377.71
     44.5700	  479.00	  501.36	-1777.61	  377.64
     44.6700	  521.00	  501.31	-1735.56	  377.57
     44.7700	  524.00	  501.28	-1732.53	  377.50
     44.8700	  533.00	  501.29	-1723.54	  377.43
     44.9700	  494.00	  501.31	-1762.56	  377.37
     45.0700	  532.00	  501.36	-1724.61	  377.30
     45.1700	  540.00	  501.43	-1716.68	  377.24
     45.2700	  519.00	  501.70	-1737.95	  377.18
     45.3700	  482.00	  501.82	-1775.07	  377.13
     45.4700	  498.00	  501.96	-1759.21	  377.07
     45.5700	  473.00	  502.12	-1784.37	  377.02
     45.6700	  512.00	  502.30	-1745.55	  376.96
     45.7700	  510.00	  502.52	-1747.77	  376.91
     45.8700	  511.00	  502.76	-1747.01	  376.87
     45.9700	  515.00	  503.03	-1743.28	  376.82
     46.0700	  462.00	  503.34	-1796.59	  376.77
     46.1700	  492.00	  503.68	-1766.93	  376.73
     46.2700	  487.00	  504.07	-1772.32	  376.69
     46.3700	  464.00	  504.51	-1795.76	  376.65
     46.4700	  533.00	  505.00	-1727.25	  376.61
     46.5700	  511.00	  505.57	-1749.82	  376.58
     46.6700	  479.00	  506.22	-1782.47	  376.54
     46.7700	  479.00	  506.99	-1783.24	  376.51
     46.8700	  525.00	  507.92	-1738.17	  376.48
     46.9700	  517.00	  509.14	-1747.39	  376.45
     47.0700	  531.00	  510.93	-1735.18	  376.43
     47.1700	  520.00	  513.81	-1749.06	  376.40
     47.2700	  516.00	  518.75	-1758.00	  376.38
     47.3700	  518.00	  526.99	-1764.24	  376.36
     47.4700	  529.00	  539.60	-1765.85	  376.34
     47.5700	  562.00	  556.87	-1750.12	  376.32
     47.6700	  565.00	  577.04	-1767.29	  376.30
     47.7700	  538.00	  595.84	-1813.09	  376.29
     47.8700	  641.00	  607.13	-1721.38	  376.28
     47.9700	  559.00	  606.18	-1802.43	  376.27
     48.0700	  622.00	  594.10	-1727.35	  376.26
     48.1700	  571.00	  577.01	-1761.26	  376.25
     48.2700	  559.00	  560.88	-1757.13	  376.24
     48.3700	  525.00	  549.01	-1779.26	  376.24
     48.4700	  535.00	  542.31	-1762.56	  376.24
     48.5700	  507.00	  540.15	-1788.40	  376.24
     48.6700	  565.00	  541.34	-1731.59	  376.24
     48.7700	  520.00	  544.92	-1780.17	  376.24
     48.8700	  538.00	  550.38	-1767.63	  376.25
     48.9700	  576.00	  557.79	-1737.04	  376.25
     49.0700	  579.00	  567.79	-1744.04	  376.26
     49.1700	  561.00	  582.02	-1776.27	  376.27
     49.2700	  630.00	  603.89	-1729.14	  376.28
     49.3700	  672.00	  639.94	-1723.19	  376.29
     49.4700	  706.00	  701.27	-1750.52	  376.31
     49.5700	  818.00	  804.17	-1741.42	  376.32
     49.6700	  906.00	  966.41	-1815.66	  376.34
     49.7700	 1152.00	 1202.24	-1805.49	  376.36
     49.8700	 1362.00	 1510.54	-1903.79	  376.38
     49.9700	 1848.00	 1863.01	-1770.26	  376.41
     50.0700	 2259.00	 2195.08	-1691.33	  376.43
     50.1700	 2538.00	 2409.95	-1627.20	  376.46
     50.2700	 2458.00	 2419.80	-1717.05	  376.48
     50.3700	 2273.00	 2217.87	-1700.12	  376.51
     50.4700	 1893.00	 1889.19	-1751.44	  376.54
     50.5700	 1393.00	 1536.47	-1898.72	  376.57
     50.6700	 1101.00	 1228.30	-1882.55	  376.61
     50.7700	  800.00	  994.93	-1950.18	  376.64
     50.8700	  698.00	  838.11	-1895.36	  376.68
     50.9700	  684.00	  742.73	-1813.98	  376.72
     51.0700	  632.00	  687.65	-1810.90	  376.76
     51.1700	  620.00	  653.79	-1789.04	  376.80
     51.2700	  600.00	  628.65	-1783.90	  376.84
     51.3700	  577.00	  607.11	-1785.36	  376.89
     51.4700	  567.00	  588.48	-1776.73	  376.93
     51.5700	  589.00	  573.27	-1739.52	  376.98
     51.6700	  498.00	  561.76	-1819.01	  377.03
     51.7700	  597.00	  553.63	-1711.88	  377.08
     51.8700	  546.00	  548.17	-1757.42	  377.13
     51.9700	  522.00	  544.60	-1777.85	  377.18
     52.0700	  522.00	  542.31	-1775.56	  377.24
     52.1700	  513.00	  541.00	-1783.25	  377.30
     52.2700	  557.00	  540.79	-1739.04	  377.35
     52.3700	  596.00	  541.36	-1700.61	  377.41
     52.4700	  513.00	  543.36	-1785.61	  377.47
     52.5700	  560.00	  547.82	-1743.07	  377.53
     52.6700	  604.00	  556.89	-1708.14	  377.60
     52.7700	  613.00	  574.59	-1716.84	  377.66
     52.8700	  704.00	  607.13	-1658.38	  377.73
     52.9700	  694.00	  662.23	-1723.48	  377.80
     53.0700	  846.00	  746.35	-1655.60	  377.86
     53.1700	  992.00	  860.13	-1623.38	  377.93
     53.2700	 1034.00	  993.46	-1714.71	  378.01
     53.3700	 1140.00	 1122.26	-1737.51	  378.08
     53.4700	 1204.00	 1210.81	-1762.06	  378.15
     53.5700	 1185.00	 1225.40	-1795.65	  378.23
     53.6700	 1054.00	 1159.08	-1860.33	  378.30
     53.7700	  992.00	 1039.00	-1802.25	  378.38
     53.8700	  844.00	  903.46	-1814.71	  378.46
     53.9700	  746.00	  781.34	-1790.59	  378.54
     54.0700	  668.00	  687.24	-1774.49	  378.62
     54.1700	  591.00	  623.52	-1787.77	  378.71
     54.2700	  583.00	  584.93	-1757.18	  378.79
     54.3700	  534.00	  563.65	-1784.90	  378.88
     54.4700	  549.00	  552.69	-1758.94	  378.96
     54.5700	  578.00	  547.36	-1724.61	  379.05
     54.6700	  592.00	  544.92	-1708.17	  379.14
     54.7700	  519.00	  544.05	-1780.30	  379.23
     54.8700	  570.00	  544.18	-1729.43	  379.32
     54.9700	  567.00	  545.07	-1733.32	  379.42
     55.0700	  536.00	  546.68	-1765.93	  379.51
     55.1700	  597.00	  549.00	-1707.25	  379.61
     55.2700	  604.00	  552.13	-1703.38	  379.70
     55.3700	  625.00	  556.13	-1686.38	  379.80
     55.4700	  533.00	  561.24	-1783.49	  379.90
     55.5700	  543.00	  567.84	-1780.09	  380.00
     55.6700	  557.00	  576.69	-1774.94	  380.10
     55.7700	  605.00	  589.38	-1739.63	  380.20
     55.8700	  572.00	  609.14	-1792.39	  380.30
     55.9700	  664.00	  642.04	-1733.29	  380.41
     56.0700	  612.00	  698.32	-1841.57	  380.51
     56.1700	  699.00	  792.95	-1849.20	  380.62
     56.2700	  868.00	  944.01	-1831.26	  380.73
     56.3700	 1098.00	 1167.50	-1824.75	  380.84
     56.4700	 1421.00	 1468.61	-1802.86	  380.94
     56.5700	 1773.00	 1831.84	-1814.09	  381.06
     56.6700	 2148.00	 2212.95	-1820.20	  381.17
     56.7700	 2449.00	 2536.68	-1842.93	  381.28
     56.8700	 2736.00	 2710.48	-1729.73	  381.39
     56.9700	 2610.00	 2670.06	-1815.31	  381.51
     57.0700	 2382.00	 2431.06	-1804.31	  381.62
     57.1700	 2113.00	 2076.33	-1718.58	  381.74
     57.2700	 1632.00	 1696.62	-1819.87	  381.86
     57.3700	 1304.00	 1356.11	-1807.36	  381.97
     57.4700	 1056.00	 1087.55	-1786.80	  382.09
     57.5700	  863.00	  897.56	-1789.81	  382.21
     57.6700	  818.00	  776.02	-1713.27	  382.33
     57.7700	  735.00	  706.01	-1726.26	  382.46
     57.8700	  671.00	  671.49	-1755.74	  382.58
     57.9700	  723.00	  661.17	-1693.42	  382.70
     58.0700	  677.00	  669.08	-1747.33	  382.83
     58.1700	  727.00	  693.29	-1721.54	  382.95
     58.2700	  724.00	  733.94	-1765.19	  383.08
     58.3700	  862.00	  791.40	-1684.65	  383.20
     58.4700	  922.00	  864.53	-1697.78	  383.33
     58.5700	 1071.00	  949.12	-1633.37	  383.46
     58.6700	 1166.00	 1037.17	-1626.42	  383.59
     58.7700	 1394.00	 1119.11	-1480.36	  383.72
     58.8700	 1436.00	 1188.02	-1507.27	  383.85
     58.9700	 1564.00	 1239.88	-1431.13	  383.98
     59.0700	 1692.00	 1269.41	-1332.66	  384.12
     59.1700	 1622.00	 1271.57	-1404.82	  384.25
     59.2700	 1525.00	 1249.38	-1479.63	  384.38
     59.3700	 1348.00	 1214.92	-1622.17	  384.52
     59.4700	 1178.00	 1181.02	-1758.27	  384.65
     59.5700	 1226.00	 1156.60	-1685.85	  384.79
     59.6700	 1208.00	 1149.34	-1696.59	  384.92
     59.7700	 1119.00	 1168.30	-1804.55	  385.06
     59.8700	 1274.00	 1219.54	-1700.79	  385.20
     59.9700	 1332.00	 1299.67	-1722.92	  385.34
     60.0700	 1428.00	 1392.77	-1720.02	  385.48
     60.1700	 1607.00	 1470.89	-1619.14	  385.62
     60.2700	 1565.00	 1500.91	-1691.16	  385.76
     60.3700	 1576.00	 1461.46	-1640.71	  385.90
     60.4700	 1392.00	 1358.11	-1721.36	  386.04
     60.5700	 1290.00	 1217.33	-1682.58	  386.18
     60.6700	 1052.00	 1068.22	-1771.47	  386.33
     60.7700	  925.00	  932.33	-1762.58	  386.47
     60.8700	  765.00	  821.87	-1812.12	  386.61
     60.9700	  692.00	  741.18	-1804.43	  386.76
     61.0700	  679.00	  689.22	-1765.47	  386.90
     61.1700	  588.00	  662.66	-1829.91	  387.05
     61.2700	  656.00	  658.75	-1758.00	  387.19
     61.3700	  627.00	  676.99	-1805.24	  387.34
     61.4700	  682.00	  719.40	-1792.65	  387.49
     61.5700	  709.00	  789.30	-1835.55	  387.63
     61.6700	  817.00	  888.84	-1827.09	  387.78
     61.7700	  927.00	 1015.93	-1844.18	  387.93
     61.8700	 1078.00	 1161.59	-1838.84	  388.08
     61.9700	 1197.00	 1307.93	-1866.18	  388.23
     62.0700	 1310.00	 1428.32	-1873.57	  388.38
     62.1700	 1458.00	 1492.16	-1789.41	  388.53
     62.2700	 1373.00	 1478.78	-1861.03	  388.68
     62.3700	 1310.00	 1392.10	-1837.35	  388.83
     62.4700	 1230.00	 1257.71	-1782.96	  388.98
     62.5700	 1037.00	 1106.11	-1824.36	  389.13
     62.6700	  903.00	  961.37	-1813.62	  389.28
     62.7700	  719.00	  838.24	-1874.49	  389.43
     62.8700	  674.00	  742.90	-1824.15	  389.58
     62.9700	  623.00	  674.91	-1807.16	  389.74
     63.0700	  587.00	  629.82	-1798.07	  389.89
     63.1700	  586.00	  601.75	-1771.00	  390.04
     63.2700	  529.00	  585.26	-1811.51	  390.20
     63.3700	  579.00	  576.30	-1752.55	  390.35
     63.4700	  556.00	  572.46	-1771.71	  390.50
     63.5700	  570.00	  572.81	-1758.06	  390.66
     63.6700	  593.00	  577.73	-1739.98	  390.81
     63.7700	  636.00	  588.58	-1707.83	  390.96
     63.8700	  577.00	  607.42	-1785.67	  391.12
     63.9700	  636.00	  636.47	-1755.72	  391.27
     64.0700	  671.00	  677.27	-1761.52	  391.43
     64.1700	  770.00	  729.71	-1714.96	  391.58
     64.2700	  878.00	  791.07	-1668.32	  391.74
     64.3700	  831.00	  855.37	-1779.62	  391.89
     64.4700	  996.00	  913.33	-1672.58	  392.05
     64.5700	 1013.00	  953.42	-1695.67	  392.20
     64.6700	  999.00	  967.91	-1724.16	  392.36
     64.7700	 1037.00	  954.12	-1672.37	  392.51
     64.8700	  977.00	  916.92	-1695.17	  392.67
     64.9700	  977.00	  865.15	-1643.40	  392.83
     65.0700	  870.00	  808.48	-1693.73	  392.98
     65.1700	  766.00	  754.76	-1744.01	  393.14
     65.2700	  722.00	  708.43	-1741.68	  393.29
     65.3700	  674.00	  670.75	-1752.00	  393.45
     65.4700	  643.00	  640.93	-1753.18	  393.60
     65.5700	  648.00	  617.66	-1724.91	  393.76
     65.6700	  641.00	  599.75	-1714.00	  393.92
     65.7700	  556.00	  586.26	-1785.51	  394.07
     65.8700	  553.00	  576.45	-1778.70	  394.23
     65.9700	  592.00	  569.73	-1732.98	  394.38
     66.0700	  527.00	  565.59	-1793.84	  394.54
     66.1700	  528.00	  563.58	-1790.83	  394.69
     66.2700	  541.00	  563.30	-1777.55	  394.85
     66.3700	  537.00	  564.48	-1782.73	  395.00
     66.4700	  542.00	  566.92	-1780.17	  395.16
     66.5700	  554.00	  570.70	-1771.95	  395.31
     66.6700	  548.00	  576.26	-1783.51	  395.47
     66.7700	  613.00	  584.27	-1726.52	  395.62
     66.8700	  544.00	  596.51	-1807.76	  395.77
     66.9700	  580.00	  615.89	-1791.14	  395.93
     67.0700	  662.00	  647.07	-1740.32	  396.08
     67.1700	  702.00	  696.75	-1750.00	  396.24
     67.2700	  807.00	  773.54	-1721.79	  396.39
     67.3700	  841.00	  886.74	-1800.99	  396.54
     67.4700	 1040.00	 1044.17	-1759.42	  396.70
     67.5700	 1237.00	 1248.93	-1767.18	  396.85
     67.6700	 1499.00	 1495.46	-1751.71	  397.00
     67.7700	 1718.00	 1767.70	-1804.95	  397.15
     67.8700	 2099.00	 2036.45	-1692.70	  397.30
     67.9700	 2286.00	 2261.00	-1730.25	  397.46
     68.0700	 2442.00	 2395.50	-1708.75	  397.61
     68.1700	 2367.00	 2405.64	-1793.89	  397.76
     68.2700	 2222.00	 2288.55	-1821.80	  397.91
     68.3700	 2129.00	 2074.90	-1701.15	  398.06
     68.4700	 1882.00	 1810.24	-1683.49	  398.21
     68.5700	 1626.00	 1536.77	-1666.02	  398.36
     68.6700	 1231.00	 1285.47	-1809.72	  398.51
     68.7700	 1097.00	 1074.36	-1732.61	  398.65
     68.8700	  849.00	  910.38	-1816.63	  398.80
     68.9700	  712.00	  791.56	-1834.81	  398.95
     69.0700	  659.00	  710.45	-1806.70	  399.10
     69.1700	  680.00	  657.83	-1733.08	  399.24
     69.2700	  688.00	  624.90	-1692.15	  399.39
     69.3700	  574.00	  604.63	-1785.88	  399.54
     69.4700	  627.00	  592.08	-1720.33	  399.68
     69.5700	  606.00	  584.07	-1733.32	  399.83
     69.6700	  531.00	  578.75	-1803.00	  399.97
     69.7700	  547.00	  575.09	-1783.34	  400.11
     69.8700	  578.00	  572.57	-1749.82	  400.26
     69.9700	  542.00	  570.91	-1784.16	  400.40
     70.0700	  605.00	  569.98	-1720.23	  400.54
     70.1700	  590.00	  569.73	-1734.98	  400.68
     70.2700	  544.00	  570.21	-1781.46	  400.82
     70.3700	  571.00	  571.45	-1755.70	  400.96
     70.4700	  577.00	  573.73	-1751.98	  401.10
     70.5700	  564.00	  577.48	-1768.73	  401.24
     70.6700	  631.00	  583.57	-1707.82	  401.38
     70.7700	  575.00	  593.45	-1773.70	  401.52
     70.8700	  562.00	  609.52	-1802.77	  401.66
     70.9700	  602.00	  635.29	-1788.54	  401.79
     71.0700	  642.00	  675.56	-1788.81	  401.93
     71.1700	  759.00	  736.06	-1732.31	  402.06
     71.2700	  806.00	  822.67	-1771.92	  402.20
     71.3700	  934.00	  939.89	-1761.14	  402.33
     71.4700	 1092.00	 1088.96	-1752.21	  402.47
     71.5700	 1199.00	 1266.68	-1822.93	  402.60
     71.6700	 1459.00	 1460.67	-1756.92	  402.73
     71.7700	 1596.00	 1653.54	-1812.79	  402.86
     71.8700	 1727.00	 1820.28	-1848.53	  402.99
     71.9700	 1924.00	 1932.25	-1763.50	  403.12
     72.0700	 1923.00	 1965.46	-1797.71	  403.25
     72.1700	 1855.00	 1911.98	-1812.23	  403.38
     72.2700	 1795.00	 1784.83	-1745.08	  403.50
     72.3700	 1617.00	 1609.84	-1748.09	  403.63
     72.4700	 1549.00	 1416.11	-1622.36	  403.76
     72.5700	 1396.00	 1226.44	-1585.69	  403.88
     72.6700	 1213.00	 1056.86	-1599.11	  404.00
     72.7700	 1071.00	  916.10	-1600.35	  404.13
     72.8700	  939.00	  806.51	-1622.76	  404.25
     72.9700	  881.00	  725.80	-1600.05	  404.37
     73.0700	  852.00	  669.12	-1572.37	  404.49
     73.1700	  765.00	  630.74	-1620.99	  404.61
     73.2700	  673.00	  605.38	-1687.63	  404.73
     73.3700	  671.00	  588.76	-1673.01	  404.85
     73.4700	  644.00	  577.79	-1689.04	  404.96
     73.5700	  602.00	  570.42	-1723.67	  405.08
     73.6700	  566.00	  565.39	-1754.64	  405.19
     73.7700	  585.00	  561.98	-1732.23	  405.31
     73.8700	  584.00	  559.75	-1731.00	  405.42
     73.9700	  596.00	  558.45	-1717.70	  405.53
     74.0700	  556.00	  557.90	-1757.15	  405.64
     74.1700	  617.00	  557.94	-1696.19	  405.75
     74.2700	  620.00	  558.36	-1693.61	  405.86
     74.3700	  670.00	  558.95	-1644.20	  405.97
     74.4700	  638.00	  559.43	-1676.68	  406.08
     74.5700	  619.00	  559.55	-1695.80	  406.18
     74.6700	  669.00	  559.09	-1645.34	  406.29
     74.7700	  604.00	  558.02	-1709.27	  406.39
     74.8700	  583.00	  556.46	-1728.71	  406.49
     74.9700	  625.00	  554.67	-1684.92	  406.59
     75.0700	  576.00	  552.98	-1732.23	  406.69
     75.1700	  568.00	  551.66	-1738.91	  406.79
     75.2700	  582.00	  551.08	-1724.33	  406.89
     75.3700	  555.00	  551.71	-1751.96	  406.99
     75.4700	  566.00	  553.92	-1743.17	  407.08
     75.5700	  560.00	  558.22	-1753.47	  407.18
     75.6700	  533.00	  565.05	-1787.30	  407.27
     75.7700	  652.00	  575.10	-1678.35	  407.37
     75.8700	  588.00	  588.61	-1755.86	  407.46
     75.9700	  622.00	  605.56	-1738.81	  407.55
     76.0700	  607.00	  625.45	-1773.70	  407.64
     76.1700	  612.00	  647.15	-1790.40	  407.72
     76.2700	  684.00	  668.87	-1740.12	  407.81
     76.3700	  711.00	  688.21	-1732.46	  407.90
     76.4700	  726.00	  702.42	-1731.67	  407.98
     76.5700	  717.00	  708.96	-1747.21	  408.06
     76.6700	  712.00	  706.48	-1749.73	  408.15
     76.7700	  691.00	  695.47	-1759.72	  408.23
     76.8700	  668.00	  678.02	-1765.27	  408.31
     76.9700	  642.00	  656.70	-1769.95	  408.38
     77.0700	  630.00	  634.49	-1759.74	  408.46
     77.1700	  611.00	  613.27	-1757.52	  408.54
     77.2700	  537.00	  594.49	-1812.74	  408.61
     77.3700	  593.00	  578.88	-1741.13	  408.68
     77.4700	  546.00	  566.66	-1775.91	  408.76
     77.5700	  543.00	  557.57	-1769.82	  408.83
     77.6700	  564.00	  551.14	-1742.39	  408.90
     77.7700	  540.00	  546.77	-1762.02	  408.96
     77.8700	  550.00	  543.90	-1749.15	  409.03
     77.9700	  518.00	  542.06	-1779.31	  409.09
     78.0700	  554.00	  540.90	-1742.15	  409.16
     78.1700	  529.00	  540.17	-1766.42	  409.22
     78.2700	  541.00	  539.72	-1753.97	  409.28
     78.3700	  567.00	  539.44	-1727.69	  409.34
     78.4700	  525.00	  539.29	-1769.54	  409.40
     78.5700	  538.00	  539.24	-1756.49	  409.46
     78.6700	  513.00	  539.28	-1781.53	  409.51
     78.7700	  530.00	  539.44	-1764.69	  409.57
     78.8700	  539.00	  539.72	-1755.97	  409.62
     78.9700	  553.00	  540.16	-1742.41	  409.67
     79.0700	  539.00	  540.81	-1757.06	  409.72
     79.1700	  514.00	  541.71	-1782.96	  409.77
     79.2700	  550.00	  542.75	-1748.00	  409.82
     79.3700	  555.00	  544.34	-1744.59	  409.86
     79.4700	  534.00	  546.36	-1767.61	  409.91
     79.5700	  538.00	  548.89	-1766.14	  409.95
     79.6700	  540.00	  551.98	-1767.23	  409.99
     79.7700	  521.00	  555.73	-1789.98	  410.03
     79.8700	  558.00	  560.27	-1757.52	  410.07
     79.9700	  531.00	  565.75	-1790.00	  410.11
     80.0700	  540.00	  572.41	-1787.66	  410.14
     80.1700	  504.00	  580.52	-1831.77	  410.18
     80.2700	  536.00	  590.43	-1809.68	  410.21
     80.3700	  586.00	  602.41	-1771.66	  410.24
     80.4700	  613.00	  616.59	-1758.84	  410.27
     80.5700	  603.00	  632.84	-1785.09	  410.30
     80.6700	  583.00	  650.68	-1822.93	  410.32
     80.7700	  627.00	  669.24	-1797.49	  410.35
     80.8700	  658.00	  687.28	-1784.53	  410.37
     80.9700	  717.00	  703.41	-1741.66	  410.39
     81.0700	  725.00	  716.28	-1746.53	  410.41
     81.1700	  719.00	  724.89	-1761.14	  410.43
     81.2700	  751.00	  728.58	-1732.83	  410.45
     81.3700	  755.00	  727.09	-1727.34	  410.46
     81.4700	  731.00	  720.65	-1744.90	  410.48
     81.5700	  754.00	  709.92	-1711.17	  410.49
     81.6700	  762.00	  695.79	-1689.04	  410.50
     81.7700	  754.00	  679.27	-1680.52	  410.51
     81.8700	  714.00	  661.44	-1702.69	  410.52
     81.9700	  714.00	  643.38	-1684.63	  410.52
     82.0700	  683.00	  626.02	-1698.27	  410.53
     82.1700	  648.00	  610.18	-1717.43	  410.53
     82.2700	  649.00	  596.26	-1702.51	  410.53
     82.3700	  603.00	  584.46	-1736.71	  410.53
     82.4700	  575.00	  574.80	-1755.05	  410.53
     82.5700	  616.00	  567.18	-1706.43	  410.53
     82.6700	  534.00	  561.51	-1782.76	  410.52
     82.7700	  559.00	  557.62	-1753.87	  410.51
     82.8700	  556.00	  555.35	-1754.60	  410.51
     82.9700	  572.00	  554.58	-1737.83	  410.50
     83.0700	  567.00	  555.22	-1743.47	  410.48
     83.1700	  579.00	  557.16	-1733.41	  410.47
     83.2700	  578.00	  560.30	-1737.55	  410.46
     83.3700	  555.00	  564.49	-1764.74	  410.44
     83.4700	  542.00	  569.49	-1782.74	  410.42
     83.5700	  540.00	  574.98	-1790.23	  410.40
     83.6700	  587.00	  580.52	-1748.77	  410.38
     83.7700	  582.00	  585.59	-1758.84	  410.36
     83.8700	  556.00	  589.61	-1788.86	  410.33
     83.9700	  579.00	  592.00	-1768.25	  410.30
     84.0700	  554.00	  592.36	-1793.61	  410.28
     84.1700	  579.00	  590.59	-1766.84	  410.25
     84.2700	  571.00	  586.94	-1771.19	  410.21
     84.3700	  552.00	  581.90	-1785.15	  410.18
     84.4700	  530.00	  576.06	-1801.31	  410.15
     84.5700	  522.00	  569.94	-1803.19	  410.11
     84.6700	  556.00	  563.98	-1763.23	  410.07
     84.7700	  535.00	  558.52	-1778.77	  410.03
     84.8700	  533.00	  553.76	-1776.01	  409.99
     84.9700	  518.00	  549.81	-1787.06	  409.94
     85.0700	  521.00	  546.69	-1780.94	  409.90
     85.1700	  538.00	  544.35	-1761.60	  409.85
     85.2700	  523.00	  542.69	-1774.94	  409.80
     85.3700	  569.00	  541.61	-1727.86	  409.75
     85.4700	  513.00	  541.02	-1783.27	  409.70
     85.5700	  544.00	  540.83	-1752.08	  409.65
     85.6700	  500.00	  541.00	-1796.25	  409.59
     85.7700	  501.00	  541.49	-1795.74	  409.53
     85.8700	  543.00	  542.32	-1754.57	  409.48
     85.9700	  508.00	  543.53	-1790.78	  409.41
     86.0700	  587.00	  545.19	-1713.44	  409.35
     86.1700	  508.00	  547.43	-1794.68	  409.29
     86.2700	  581.00	  550.37	-1724.62	  409.22
     86.3700	  516.00	  554.16	-1793.41	  409.15
     86.4700	  555.00	  558.96	-1759.21	  409.09
     86.5700	  523.00	  564.88	-1797.13	  409.01
     86.6700	  555.00	  571.97	-1772.22	  408.94
     86.7700	  612.00	  579.85	-1723.10	  408.87
     86.8700	  566.00	  588.92	-1778.17	  408.79
     86.9700	  616.00	  598.47	-1737.72	  408.71
     87.0700	  625.00	  607.92	-1738.17	  408.63
     87.1700	  667.00	  616.57	-1704.82	  408.55
     87.2700	  613.00	  623.61	-1765.86	  408.47
     87.3700	  638.00	  628.23	-1745.48	  408.38
     87.4700	  631.00	  629.81	-1754.06	  408.30
     87.5700	  661.00	  628.15	-1722.40	  408.21
     87.6700	  613.00	  623.50	-1765.75	  408.12
     87.7700	  629.00	  616.52	-1742.77	  408.03
     87.8700	  625.00	  608.10	-1738.35	  407.93
     87.9700	  619.00	  599.13	-1735.38	  407.84
     88.0700	  623.00	  590.46	-1722.71	  407.74
     88.1700	  588.00	  582.77	-1750.02	  407.64
     88.2700	  619.00	  576.61	-1712.86	  407.54
     88.3700	  563.00	  572.32	-1764.57	  407.44
     88.4700	  610.00	  570.09	-1715.34	  407.34
     88.5700	  566.00	  569.90	-1759.15	  407.23
     88.6700	  573.00	  571.60	-1753.85	  407.12
     88.7700	  598.00	  574.90	-1732.15	  407.02
     88.8700	  555.00	  579.40	-1779.65	  406.90
     88.9700	  617.00	  584.60	-1722.85	  406.79
     89.0700	  607.00	  589.95	-1738.20	  406.68
     89.1700	  598.00	  594.84	-1752.09	  406.56
     89.2700	  604.00	  598.64	-1749.89	  406.45
     89.3700	  599.00	  600.83	-1757.08	  406.33
     89.4700	  620.00	  601.03	-1736.28	  406.21
     89.5700	  586.00	  599.18	-1768.43	  406.08
     89.6700	  578.00	  595.48	-1772.73	  405.96
     89.7700	  530.00	  590.35	-1815.60	  405.83
     89.8700	  572.00	  584.29	-1767.54	  405.70
     89.9700	  541.00	  577.81	-1792.06	  405.58
     90.0700	  533.00	  571.34	-1793.59	  405.44
     90.1700	  552.00	  565.23	-1768.48	  405.31
     90.2700	  544.00	  559.72	-1770.97	  405.18
     90.3700	  512.00	  554.96	-1798.21	  405.04
     90.4700	  538.00	  551.03	-1768.28	  404.90
     90.5700	  505.00	  547.92	-1798.17	  404.76
     90.6700	  529.00	  545.56	-1771.81	  404.62
     90.7700	  521.00	  543.88	-1778.13	  404.48
     90.8700	  496.00	  542.78	-1802.03	  404.34
     90.9700	  515.00	  542.16	-1782.41	  404.19
     91.0700	  527.00	  541.97	-1770.22	  404.04
     91.1700	  512.00	  542.17	-1785.42	  403.89
     91.2700	  537.00	  542.75	-1761.00	  403.74
     91.3700	  585.00	  543.76	-1714.01	  403.59
     91.4700	  482.00	  545.28	-1818.53	  403.44
     91.5700	  503.00	  547.42	-1799.67	  403.28
     91.6700	  525.00	  550.35	-1780.60	  403.12
     91.7700	  541.00	  554.26	-1768.51	  402.97
     91.8700	  546.00	  559.36	-1768.61	  402.81
     91.9700	  552.00	  565.62	-1768.87	  402.64
     92.0700	  584.00	  573.68	-1744.93	  402.48
     92.1700	  612.00	  583.43	-1726.68	  402.31
     92.2700	  611.00	  594.93	-1739.18	  402.15
     92.3700	  566.00	  608.11	-1797.36	  401.98
     92.4700	  611.00	  622.80	-1767.05	  401.81
     92.5700	  625.00	  638.67	-1768.92	  401.64
     92.6700	  649.00	  655.27	-1761.52	  401.46
     92.7700	  702.00	  672.00	-1725.25	  401.29
     92.8700	  716.00	  688.19	-1727.44	  401.11
     92.9700	  732.00	  703.12	-1726.37	  400.94
     93.0700	  708.00	  716.22	-1763.47	  400.76
     93.1700	  800.00	  727.17	-1682.42	  400.58
     93.2700	  838.00	  736.06	-1653.31	  400.39
     93.3700	  788.00	  743.34	-1710.59	  400.21
     93.4700	  846.00	  749.69	-1658.94	  400.03
     93.5700	  789.00	  755.84	-1722.09	  399.84
     93.6700	  863.00	  762.47	-1654.72	  399.65
     93.7700	  823.00	  770.15	-1702.40	  399.46
     93.8700	  804.00	  779.43	-1730.68	  399.27
     93.9700	  836.00	  790.73	-1709.98	  399.08
     94.0700	  844.00	  804.41	-1715.66	  398.88
     94.1700	  854.00	  820.52	-1721.77	  398.69
     94.2700	  845.00	  838.78	-1749.03	  398.49
     94.3700	  877.00	  858.43	-1736.68	  398.29
     94.4700	  910.00	  878.29	-1723.54	  398.09
     94.5700	  891.00	  896.74	-1760.99	  397.89
     94.6700	  893.00	  911.89	-1774.14	  397.69
     94.7700	  906.00	  921.77	-1771.02	  397.49
     94.8700	  854.00	  924.70	-1825.95	  397.28
     94.9700	  904.00	  919.72	-1770.97	  397.07
     95.0700	  905.00	  906.83	-1757.08	  396.87
     95.1700	  883.00	  887.04	-1759.29	  396.66
     95.2700	  856.00	  862.05	-1761.30	  396.45
     95.3700	  811.00	  833.90	-1778.15	  396.23
     95.4700	  798.00	  804.71	-1761.96	  396.02
     95.5700	  788.00	  776.48	-1743.73	  395.81
     95.6700	  721.00	  751.09	-1785.34	  395.59
     95.7700	  655.00	  730.20	-1830.45	  395.37
     95.8700	  680.00	  715.31	-1790.56	  395.16
     95.9700	  727.00	  707.73	-1735.98	  394.94
     96.0700	  641.00	  708.58	-1822.83	  394.71
     96.1700	  674.00	  718.81	-1800.06	  394.49
     96.2700	  711.00	  739.17	-1783.42	  394.27
     96.3700	  791.00	  770.13	-1734.38	  394.04
     96.4700	  804.00	  811.81	-1763.06	  393.82
     96.5700	  861.00	  863.91	-1758.16	  393.59
     96.6700	  925.00	  925.55	-1755.80	  393.36
     96.7700	  994.00	  995.25	-1756.50	  393.14
     96.8700	 1047.00	 1070.81	-1779.06	  392.90
     96.9700	 1157.00	 1149.28	-1747.53	  392.67
     97.0700	 1176.00	 1227.06	-1806.31	  392.44
     97.1700	 1273.00	 1299.92	-1782.17	  392.21
     97.2700	 1333.00	 1363.26	-1785.51	  391.97
     97.3700	 1361.00	 1412.52	-1806.77	  391.74
     97.4700	 1526.00	 1443.70	-1672.95	  391.50
     97.5700	 1447.00	 1454.19	-1762.44	  391.26
     97.6700	 1443.00	 1443.38	-1755.63	  391.02
     97.7700	 1431.00	 1412.73	-1736.98	  390.78
     97.8700	 1331.00	 1365.37	-1789.62	  390.54
     97.9700	 1386.00	 1305.39	-1674.64	  390.30
     98.0700	 1216.00	 1237.31	-1776.56	  390.06
     98.1700	 1119.00	 1165.49	-1801.74	  389.81
     98.2700	 1116.00	 1093.91	-1733.16	  389.57
     98.3700	  975.00	 1026.04	-1806.29	  389.32
     98.4700	  947.00	  964.83	-1773.08	  389.07
     98.5700	  906.00	  912.61	-1761.86	  388.83
     98.6700	  880.00	  871.19	-1746.44	  388.58
     98.7700	  853.00	  841.92	-1744.17	  388.33
     98.8700	  827.00	  825.75	-1754.00	  388.08
     98.9700	  767.00	  823.34	-1811.59	  387.83
     99.0700	  813.00	  835.10	-1777.35	  387.57
     99.1700	  841.00	  861.27	-1775.52	  387.32
     99.2700	  882.00	  901.85	-1775.10	  387.07
     99.3700	  904.00	  956.65	-1807.90	  386.81
     99.4700	  983.00	 1025.16	-1797.41	  386.56
     99.5700	 1035.00	 1106.49	-1826.74	  386.30
     99.6700	 1132.00	 1199.28	-1822.53	  386.04
     99.7700	 1285.00	 1301.57	-1771.82	  385.79
     99.8700	 1432.00	 1410.72	-1733.97	  385.53
     99.9700	 1484.00	 1523.34	-1794.59	  385.27
    100.0700	 1609.00	 1635.38	-1781.63	  385.01
    100.1700	 1739.00	 1742.31	-1758.56	  384.75
    100.2700	 1921.00	 1839.49	-1673.74	  384.49
    100.3700	 1952.00	 1922.75	-1726.00	  384.23
    100.4700	 2011.00	 1988.69	-1732.94	  383.96
    100.5700	 2099.00	 2034.99	-1691.24	  383.70
    100.6700	 2181.00	 2060.16	-1634.41	  383.44
    100.7700	 2087.00	 2063.34	-1731.59	  383.18
    100.8700	 2024.00	 2044.40	-1775.65	  382.91
    100.9700	 2044.00	 2004.02	-1715.27	  382.65
    101.0700	 2031.00	 1944.17	-1668.42	  382.38
    101.1700	 1886.00	 1868.18	-1737.43	  382.12
    101.2700	 1838.00	 1780.57	-1697.82	  381.85
    101.3700	 1707.00	 1686.49	-1734.74	  381.58
    101.4700	 1561.00	 1591.07	-1785.32	  381.32
    101.5700	 1488.00	 1498.88	-1766.13	  381.05
    101.6700	 1452.00	 1413.65	-1716.90	  380.78
    101.7700	 1366.00	 1338.10	-1727.35	  380.51
    101.8700	 1276.00	 1273.77	-1753.02	  380.24
    101.9700	 1269.00	 1221.22	-1707.47	  379.98
    102.0700	 1151.00	 1179.88	-1784.13	  379.71
    102.1700	 1114.00	 1148.38	-1789.63	  379.44
    102.2700	 1121.00	 1124.61	-1758.86	  379.17
    102.3700	 1077.00	 1105.93	-1784.18	  378.90
    102.4700	 1086.00	 1089.53	-1758.78	  378.63
    102.5700	 1050.00	 1072.69	-1777.94	  378.36
    102.6700	  988.00	 1053.21	-1820.46	  378.09
    102.7700	 1067.00	 1029.63	-1717.88	  377.82
    102.8700	  993.00	 1001.37	-1763.62	  377.55
    102.9700	  945.00	  968.66	-1778.91	  377.28
    103.0700	  926.00	  932.32	-1761.57	  377.01
    103.1700	  867.00	  893.49	-1781.74	  376.74
    103.2700	  813.00	  853.45	-1795.70	  376.47
    103.3700	  813.00	  813.48	-1755.73	  376.20
    103.4700	  824.00	  774.72	-1705.97	  375.93
    103.5700	  742.00	  738.17	-1751.42	  375.66
    103.6700	  690.00	  704.57	-1769.82	  375.39
    103.7700	  660.00	  674.46	-1769.71	  375.12
    103.8700	  664.00	  648.13	-1739.38	  374.85
    103.9700	  653.00	  625.68	-1727.93	  374.58
    104.0700	  593.00	  607.01	-1769.26	  374.31
    104.1700	  610.00	  591.88	-1737.13	  374.04
    104.2700	  560.00	  579.97	-1775.22	  373.77
    104.3700	  571.00	  570.90	-1755.15	  373.50
    104.4700	  578.00	  564.26	-1741.51	  373.23
    104.5700	  573.00	  559.66	-1741.91	  372.96
    104.6700	  597.00	  556.74	-1714.99	  372.70
    104.7700	  579.00	  555.17	-1731.42	  372.43
    104.8700	  542.00	  554.66	-1767.91	  372.16
    104.9700	  525.00	  554.97	-1785.22	  371.89
    105.0700	  539.00	  555.91	-1772.16	  371.63
    105.1700	  534.00	  557.35	-1778.60	  371.36
    105.2700	  541.00	  559.16	-1773.41	  371.10
    105.3700	  523.00	  561.29	-1793.54	  370.83
    105.4700	  531.00	  563.73	-1787.98	  370.57
    105.5700	  542.00	  566.50	-1779.75	  370.30
    105.6700	  566.00	  569.67	-1758.92	  370.04
    105.7700	  559.00	  573.35	-1769.60	  369.78
    105.8700	  584.00	  577.66	-1748.91	  369.52
    105.9700	  565.00	  582.73	-1772.98	  369.26
    106.0700	  584.00	  588.65	-1759.90	  368.99
    106.1700	  564.00	  595.47	-1786.72	  368.74
    106.2700	  590.00	  603.20	-1768.45	  368.48
    106.3700	  558.00	  611.76	-1809.01	  368.22
    106.4700	  625.00	  620.99	-1751.24	  367.96
    106.5700	  644.00	  630.70	-1741.95	  367.70
    106.6700	  622.00	  640.59	-1773.84	  367.45
    106.7700	  642.00	  650.32	-1763.57	  367.19
    106.8700	  679.00	  659.53	-1735.78	  366.94
    106.9700	  662.00	  667.80	-1761.05	  366.69
    107.0700	  659.00	  674.77	-1771.02	  366.44
    107.1700	  642.00	  680.14	-1793.39	  366.19
    107.2700	  659.00	  683.74	-1779.99	  365.94
    107.3700	  649.00	  685.55	-1791.80	  365.69
    107.4700	  624.00	  685.74	-1816.99	  365.44
    107.5700	  651.00	  684.64	-1788.89	  365.20
    107.6700	  673.00	  682.65	-1764.90	  364.95
    107.7700	  663.00	  680.21	-1772.46	  364.71
    107.8700	  680.00	  677.76	-1753.01	  364.47
    107.9700	  656.00	  675.64	-1774.89	  364.23
    108.0700	  668.00	  674.10	-1761.35	  363.99
    108.1700	  691.00	  673.29	-1737.54	  363.75
    108.2700	  720.00	  673.24	-1708.49	  363.51
    108.3700	  697.00	  673.87	-1732.12	  363.28
    108.4700	  652.00	  674.95	-1778.20	  363.04
    108.5700	  666.00	  676.21	-1765.46	  362.81
    108.6700	  647.00	  677.25	-1785.50	  362.58
    108.7700	  727.00	  677.69	-1705.94	  362.35
    108.8700	  677.00	  677.11	-1755.36	  362.12
    108.9700	  691.00	  675.21	-1739.46	  361.90
    109.0700	  710.00	  671.74	-1716.99	  361.67
    109.1700	  679.00	  666.65	-1742.90	  361.45
    109.2700	  697.00	  660.00	-1718.25	  361.23
    109.3700	  665.00	  651.97	-1742.22	  361.01
    109.4700	  597.00	  642.86	-1801.11	  360.79
    109.5700	  631.00	  632.98	-1757.23	  360.58
    109.6700	  622.00	  622.68	-1755.93	  360.36
    109.7700	  594.00	  612.28	-1773.53	  360.15
    109.8700	  587.00	  602.09	-1770.34	  359.94
    109.9700	  586.00	  592.37	-1761.62	  359.73
    110.0700	  597.00	  583.32	-1741.57	  359.53
    110.1700	  571.00	  575.12	-1759.37	  359.32
    110.2700	  536.00	  567.87	-1787.12	  359.12
    110.3700	  550.00	  561.62	-1766.87	  358.92
    110.4700	  549.00	  556.40	-1762.65	  358.73
    110.5700	  569.00	  552.18	-1738.43	  358.53
    110.6700	  552.00	  548.90	-1752.15	  358.34
    110.7700	  535.00	  546.48	-1766.73	  358.15
    110.8700	  574.00	  544.85	-1726.10	  357.96
    110.9700	  532.00	  543.90	-1767.15	  357.77
    111.0700	  522.00	  543.55	-1776.80	  357.59
    111.1700	  546.00	  543.71	-1752.96	  357.41
    111.2700	  560.00	  544.31	-1739.56	  357.23
    111.3700	  523.00	  545.28	-1777.53	  357.06
    111.4700	  591.00	  546.56	-1710.81	  356.88
    111.5700	  516.00	  548.12	-1787.37	  356.71
    111.6700	  499.00	  549.92	-1806.17	  356.55
    111.7700	  531.00	  551.94	-1776.19	  356.38
    111.8700	  555.00	  554.16	-1754.41	  356.22
    111.9700	  506.00	  556.59	-1805.84	  356.06
    112.0700	  518.00	  559.22	-1796.47	  355.90
    112.1700	  574.00	  562.07	-1743.32	  355.75
    112.2700	  600.00	  565.16	-1720.41	  355.60
    112.3700	  568.00	  568.52	-1755.77	  355.45
    112.4700	  598.00	  572.18	-1729.43	  355.30
    112.5700	  620.00	  576.20	-1711.45	  355.16
    112.6700	  632.00	  580.63	-1703.88	  355.02
    112.7700	  597.00	  585.58	-1743.83	  354.89
    112.8700	  647.00	  591.13	-1699.38	  354.75
    112.9700	  680.00	  597.45	-1672.70	  354.62
    113.0700	  681.00	  604.71	-1678.96	  354.50
    113.1700	  650.00	  613.15	-1718.40	  354.37
    113.2700	  728.00	  623.09	-1650.34	  354.25
    113.3700	  722.00	  634.93	-1668.18	  354.14
    113.4700	  782.00	  649.17	-1622.42	  354.03
    113.5700	  834.00	  666.44	-1587.69	  353.92
    113.6700	  859.00	  687.53	-1583.78	  353.81
    113.7700	  862.00	  713.38	-1606.63	  353.71
    113.8700	  930.00	  745.14	-1570.39	  353.61
    113.9700	  989.00	  784.16	-1550.41	  353.51
    114.0700	 1048.00	  832.01	-1539.26	  353.42
    114.1700	 1063.00	  890.47	-1582.72	  353.33
    114.2700	 1124.00	  961.54	-1592.79	  353.25
    114.3700	 1220.00	 1047.37	-1582.62	  353.17
    114.4700	 1317.00	 1150.24	-1588.49	  353.09
    114.5700	 1421.00	 1272.48	-1606.73	  353.02
    114.6700	 1628.00	 1416.42	-1543.67	  352.95
    114.7700	 1783.00	 1584.19	-1556.44	  352.89
    114.8700	 1904.00	 1777.65	-1628.90	  352.83
    114.9700	 2092.00	 1998.19	-1661.44	  352.77
    115.0700	 2374.00	 2246.66	-1627.91	  352.72
    115.1700	 2463.00	 2523.19	-1815.44	  352.67
    115.2700	 2777.00	 2826.92	-1805.17	  352.63
    115.3700	 3120.00	 3156.02	-1791.27	  352.59
    115.4700	 3293.00	 3507.46	-1969.71	  352.56
    115.5700	 3653.00	 3877.12	-1979.37	  352.53
    115.6700	 4208.00	 4259.67	-1806.92	  352.50
    115.7700	 4380.00	 4648.43	-2023.68	  352.48
    115.8700	 4670.00	 5035.58	-2120.83	  352.46
    115.9700	 5104.00	 5412.18	-2063.43	  352.45
    116.0700	 5617.00	 5768.47	-1906.72	  352.44
    116.1700	 5899.00	 6094.00	-1950.25	  352.44
    116.2700	 6264.00	 6377.95	-1869.20	  352.44
    116.3700	 6693.00	 6609.83	-1672.08	  352.45
    116.4700	 6881.00	 6780.25	-1654.50	  352.46
    116.5700	 6808.00	 6881.87	-1829.12	  352.48
    116.6700	 6899.00	 6910.10	-1766.35	  352.50
    116.7700	 7021.00	 6863.79	-1598.04	  352.52
    116.8700	 6900.00	 6745.40	-1600.65	  352.56
    116.9700	 6649.00	 6560.65	-1666.90	  352.59
    117.0700	 6390.00	 6317.75	-1683.00	  352.63
    117.1700	 6114.00	 6026.47	-1667.72	  352.68
    117.2700	 5603.00	 5697.47	-1849.72	  352.73
    117.3700	 5296.00	 5341.38	-1800.63	  352.79
    117.4700	 4799.00	 4968.45	-1924.70	  352.85
    117.5700	 4800.00	 4588.00	-1543.25	  352.92
    117.6700	 4291.00	 4208.33	-1672.58	  353.00
    117.7700	 4002.00	 3836.72	-1589.97	  353.08
    117.8700	 3648.00	 3479.18	-1586.43	  353.16
    117.9700	 3294.00	 3140.53	-1601.78	  353.25
    118.0700	 2942.00	 2824.28	-1637.53	  353.35
    118.1700	 2551.00	 2532.81	-1737.06	  353.45
    118.2700	 2276.00	 2267.57	-1746.82	  353.56
    118.3700	 1952.00	 2029.02	-1832.27	  353.67
    118.4700	 1755.00	 1816.87	-1817.12	  353.79
    118.5700	 1507.00	 1630.13	-1878.38	  353.92
    118.6700	 1399.00	 1467.33	-1823.58	  354.05
    118.7700	 1203.00	 1326.71	-1878.96	  354.19
    118.8700	 1131.00	 1206.24	-1830.49	  354.33
    118.9700	 1079.00	 1103.80	-1780.05	  354.49
    119.0700	  951.00	 1017.25	-1821.50	  354.64
    119.1700	  821.00	  944.50	-1878.75	  354.81
    119.2700	  801.00	  883.64	-1837.89	  354.98
    119.3700	  774.00	  832.89	-1814.14	  355.15
    119.4700	  680.00	  790.68	-1865.93	  355.33
    119.5700	  710.00	  755.60	-1800.85	  355.52
    119.6700	  672.00	  726.46	-1809.71	  355.72
    119.7700	  644.00	  702.24	-1813.49	  355.92
    119.8700	  642.00	  682.09	-1795.34	  356.13
    119.9700	  608.00	  665.31	-1812.56	  356.35
    120.0700	  573.00	  651.31	-1833.56	  356.57
    120.1700	  615.00	  639.63	-1779.88	  356.80
    120.2700	  601.00	  629.87	-1784.12	  357.04
    120.3700	  606.00	  621.74	-1770.99	  357.28
    120.4700	  558.00	  615.00	-1812.25	  357.53
    120.5700	  548.00	  609.44	-1816.69	  357.79
    120.6700	  606.00	  604.93	-1754.18	  358.06
    120.7700	  575.00	  601.34	-1781.59	  358.33
    120.8700	  550.00	  598.59	-1803.84	  358.61
    120.9700	  592.00	  596.59	-1759.84	  358.90
    121.0700	  549.00	  595.30	-1801.55	  359.20
    121.1700	  578.00	  594.67	-1771.92	  359.50
    121.2700	  613.00	  594.64	-1736.89	  359.81
    121.3700	  612.00	  595.19	-1738.44	  360.13
    121.4700	  591.00	  596.27	-1760.52	  360.45
    121.5700	  597.00	  597.83	-1756.08	  360.79
    121.6700	  605.00	  599.83	-1750.08	  361.13
    121.7700	  532.00	  602.19	-1825.44	  361.48
    121.8700	  648.00	  604.85	-1712.10	  361.84
    121.9700	  623.00	  607.76	-1740.01	  362.20
    122.0700	  577.00	  610.81	-1789.06	  362.58
    122.1700	  621.00	  613.93	-1748.18	  362.96
    122.2700	  570.00	  617.00	-1802.25	  363.35
    122.3700	  643.00	  619.95	-1732.20	  363.75
    122.4700	  626.00	  622.65	-1751.90	  364.16
    122.5700	  633.00	  625.02	-1747.27	  364.57
    122.6700	  550.00	  626.97	-1832.22	  365.00
    122.7700	  593.00	  628.43	-1790.68	  365.43
    122.8700	  678.00	  629.34	-1706.59	  365.87
    122.9700	  661.00	  629.67	-1723.92	  366.32
    123.0700	  661.00	  629.41	-1723.66	  366.78
    123.1700	  679.00	  628.59	-1704.84	  367.25
    123.2700	  643.00	  627.24	-1739.49	  367.73
    123.3700	  694.00	  625.42	-1686.67	  368.22
    123.4700	  646.00	  623.19	-1732.44	  368.71
    123.5700	  647.00	  620.61	-1728.86	  369.22
    123.6700	  610.00	  617.76	-1763.01	  369.73
    123.7700	  654.00	  614.71	-1715.96	  370.25
    123.8700	  636.00	  611.53	-1730.78	  370.79
    123.9700	  634.00	  608.29	-1729.54	  371.33
    124.0700	  626.00	  605.03	-1734.28	  371.88
    124.1700	  597.00	  601.82	-1760.07	  372.44
    124.2700	  601.00	  598.71	-1752.96	  373.01
    124.3700	  589.00	  595.72	-1761.97	  373.59
    124.4700	  611.00	  592.89	-1737.14	  374.18
    124.5700	  565.00	  590.24	-1780.49	  374.78
    124.6700	  606.00	  587.79	-1737.04	  375.40
    124.7700	  614.00	  585.56	-1726.81	  376.02
    124.8700	  597.00	  583.56	-1741.81	  376.65
    124.9700	  588.00	  494.77	-1662.02	  377.29
    125.0700	  567.00	  495.42	-1755.25	  377.94
    125.1700	  606.00	  496.08	-1755.25	  378.60
    125.2700	  576.00	  496.75	-1755.25	  379.27
    125.3700	  567.00	  497.43	-1755.25	  379.95
    125.4700	  557.00	  498.13	-1755.25	  380.65
    125.5700	  582.00	  498.83	-1755.25	  381.35
    125.6700	  549.00	  499.55	-1755.25	  382.07
    125.7700	  572.00	  500.27	-1755.25	  382.79
    125.8700	  600.00	  501.01	-1755.25	  383.53
    125.9700	  578.00	  501.75	-1755.25	  384.27
    126.0700	  549.00	  502.51	-1755.25	  385.03
    126.1700	  553.00	  503.28	-1755.25	  385.80
    126.2700	  610.00	  504.06	-1755.25	  386.58
    126.3700	  565.00	  504.85	-1755.25	  387.37
    126.4700	  567.00	  505.66	-1755.25	  388.18
    126.5700	  594.00	  506.47	-1755.25	  388.99
    126.6700	  590.00	  507.30	-1755.25	  389.82
    126.7700	  612.00	  508.14	-1755.25	  390.66
    126.8700	  662.00	  508.98	-1755.25	  391.50
    126.9700	  633.00	  509.85	-1755.25	  392.37
    127.0700	  614.00	  510.72	-1755.25	  393.24
    127.1700	  649.00	  511.60	-1755.25	  394.12
    127.2700	  647.00	  512.50	-1755.25	  395.02
    127.3700	  610.00	  513.41	-1755.25	  395.93
    127.4700	  618.00	  514.33	-1755.25	  396.85
    127.5700	  655.00	  515.26	-1755.25	  397.78
    127.6700	  679.00	  516.21	-1755.25	  398.73
    127.7700	  694.00	  517.17	-1755.25	  399.69
    127.8700	  700.00	  518.14	-1755.25	  400.66
    127.9700	  704.00	  519.12	-1755.25	  401.64
    128.0700	  736.00	  520.12	-1755.25	  402.64
    128.1700	  741.00	  521.12	-1755.25	  403.64
    128.2700	  759.00	  522.14	-1755.25	  404.66
    128.3700	  795.00	  523.18	-1755.25	  405.70
    128.4700	  840.00	  524.23	-1755.25	  406.75
    128.5700	    0.00	  525.29	-1755.25	  407.81
    128.6700	    0.00	  526.36	-1755.25	  408.88
     12.3075	        	        	        	        	       0	(  0  0  2)	  0  1
     24.8879	        	        	        	        	       0	(  0  0  4)	  0  1
     28.3346	        	        	        	        	       0	(  1  0  0)	  0  1
     29.0315	        	        	        	        	       0	(  1  0  1)	  0  1
     31.0369	        	        	        	        	       0	(  1  0  2)	  0  1
     34.1441	        	        	        	        	       0	(  1  0  3)	  0  1
     37.7841	        	        	        	        	       0	(  0  0  6)	  0  1
     38.1198	        	        	        	        	       0	(  1  0  4)	  0  1
     42.7683	        	        	        	        	       0	(  1  0  5)	  0  1
     47.9506	        	        	        	        	       0	(  1  0  6)	  0  1
     50.2710	        	        	        	        	       0	(  1  1  0)	  0  1
     51.2021	        	        	        	        	       0	(  0  0  8)	  0  1
     51.9933	        	        	        	        	       0	(  1  1  2)	  0  1
     53.5792	        	        	        	        	       0	(  1  0  7)	  0  1
     56.9391	        	        	        	        	       0	(  1  1  4)	  0  1
     58.7677	        	        	        	        	       0	(  2  0  0)	  0  1
     59.1591	        	        	        	        	       0	(  2  0  1)	  0  1
     59.6076	        	        	        	        	       0	(  1  0  8)	  0  1
     60.3240	        	        	        	        	       0	(  2  0  2)	  0  1
     62.2365	        	        	        	        	       0	(  2  0  3)	  0  1
     64.6308	        	        	        	        	       0	(  1  1  6)	  0  1
     64.8595	        	        	        	        	       0	(  2  0  4)	  0  1
     65.4267	        	        	        	        	       0	(  0  0 10)	  0  1
     66.0216	        	        	        	        	       0	(  1  0  9)	  0  1
     68.1523	        	        	        	        	       0	(  2  0  5)	  0  1
     72.0782	        	        	        	        	       0	(  2  0  6)	  0  1
     72.8351	        	        	        	        	       0	(  1  0 10)	  0  1
     74.6645	        	        	        	        	       0	(  1  1  8)	  0  1
     76.6104	        	        	        	        	       0	(  2  0  7)	  0  1
     80.0898	        	        	        	        	       0	(  1  0 11)	  0  1
     80.9011	        	        	        	        	       0	(  0  0 12)	  0  1
     81.0082	        	        	        	        	       0	(  2  1  0)	  0  1
     81.3480	        	        	        	        	       0	(  2  1  1)	  0  1
     81.7385	        	        	        	        	       0	(  2  0  8)	  0  1
     82.3654	        	        	        	        	       0	(  2  1  2)	  0  1
     84.0559	        	        	        	        	       0	(  2  1  3)	  0  1
     86.4145	        	        	        	        	       0	(  2  1  4)	  0  1
     86.9305	        	        	        	        	       0	(  1  1 10)	  0  1
     87.4740	        	        	        	        	       0	(  2  0  9)	  0  1
     87.8606	        	        	        	        	       0	(  1  0 12)	  0  1
     89.4389	        	        	        	        	       0	(  2  1  5)	  0  1
     93.1346	        	        	        	        	       0	(  2  1  6)	  0  1
     93.8583	        	        	        	        	       0	(  2  0 10)	  0  1
     94.8966	        	        	        	        	       0	(  3  0  0)	  0  1
     95.2338	        	        	        	        	       0	(  3  0  1)	  0  1
     96.2465	        	        	        	        	       0	(  3  0  2)	  0  1
     96.2696	        	        	        	        	       0	(  1  0 13)	  0  1
     97.5211	        	        	        	        	       0	(  2  1  7)	  0  1
     97.9391	        	        	        	        	       0	(  3  0  3)	  0  1
     98.4318	        	        	        	        	       0	(  0  0 14)	  0  1
    100.3209	        	        	        	        	       0	(  3  0  4)	  0  1
    100.9765	        	        	        	        	       0	(  2  0 11)	  0  1
    101.7933	        	        	        	        	       0	(  1  1 12)	  0  1
    102.6410	        	        	        	        	       0	(  2  1  8)	  0  1
    103.4110	        	        	        	        	       0	(  3  0  5)	  0  1
    105.5169	        	        	        	        	       0	(  1  0 14)	  0  1
    107.2442	        	        	        	        	       0	(  3  0  6)	  0  1
    108.5746	        	        	        	        	       0	(  2  1  9)	  0  1
    108.9830	        	        	        	        	       0	(  2  0 12)	  0  1
    111.8820	        	        	        	        	       0	(  3  0  7)	  0  1
    115.4673	        	        	        	        	       0	(  2  1 10)	  0  1
    115.9529	        	        	        	        	       0	(  1  0 15)	  0  1
    116.6206	        	        	        	        	       0	(  2  2  0)	  0  1
    117.4323	        	        	        	        	       0	(  3  0  8)	  0  1
    118.1350	        	        	        	        	       0	(  2  2  2)	  0  1
    118.1611	        	        	        	        	       0	(  2  0 13)	  0  1
    119.9048	        	        	        	        	       0	(  0  0 16)	  0  1
    120.6247	        	        	        	        	       0	(  1  1 14)	  0  1
    122.8181	        	        	        	        	       0	(  2  2  4)	  0  1
    123.5888	        	        	        	        	       0	(  2  1 11)	  0  1
    124.0880	        	        	        	        	       0	(  3  0  9)	  0  1
    124.6854	        	        	        	        	       0	(  3  1  0)	  0  1
    125.0954	        	        	        	        	       0	(  3  1  1)	  0  1
    126.3382	        	        	        	        	       0	(  3  1  2)	  0  1
    128.2848	        	        	        	        	       0	(  1  0 16)	  0  1
    128.4553	        	        	        	        	       0	(  3  1  3)	  0  1
    129.0817	        	        	        	        	       0	(  2  0 14)	  0  1
    131.2530	        	        	        	        	       0	(  2  2  6)	  0  1
    131.5295	        	        	        	        	       0	(  3  1  4)	  0  1
    132.2227	        	        	        	        	       0	(  3  0 10)	  0  1
    133.4930	        	        	        	        	       0	(  2  1 12)	  0  1
    135.7140	        	        	        	        	       0	(  3  1  5)	  0  1
    141.3057	        	        	        	        	       0	(  3  1  6)	  0  1
    142.6918	        	        	        	        	       0	(  3  0 11)	  0  1
    143.2048	        	        	        	        	       0	(  2  0 15)	  0  1
    144.4318	        	        	        	        	       0	(  1  0 17)	  0  1
    145.4765	        	        	        	        	       0	(  2  2  8)	  0  1
    146.6336	        	        	        	        	       0	(  2  1 13)	  0  1
    148.9728	        	        	        	        	       0	(  3  1  7)	  0  1
    149.5235	        	        	        	        	       0	(  1  1 16)	  0  1
    153.9006	        	        	        	        	       0	(  0  0 18)	  0  1
    158.5456	        	        	        	        	       0	(  3  0 12)	  0  1
    158.8385	        	        	        	        	       0	(  4  0  0)	  0  1
    159.7948	        	        	        	        	       0	(  4  0  1)	  0  1
    160.9522	        	        	        	        	       0	(  3  1  8)	  0  1
    162.9713	        	        	        	        	       0	(  4  0  2)	  0  1
    169.5374	        	        	        	        	       0	(  2  0 16)	  0  1
    170.3096	        	        	        	        	       0	(  4  0  3)	  0  1
    173.9206	        	        	        	        	       0	(  2  1 14)	  0  1
