MSG Master    CELL:    5.91464   5.91464  23.25535   90.0000   90.0000  120.0000   SPGR: P 63/m m c             TEMP:    993.35
  1   1280     2.52000     0.00000    -0.13065     0.00000     0.00000    0
    99     0     2
       0.00000      10.00000
     125.00000     130.00000
 2Theta	Yobs	Ycal	Yobs-Ycal	Backg	Posr	(hkl)	K
      0.7700	    0.00	  505.67	-1748.50	  391.96
      0.8700	    0.00	  506.79	-1748.50	  393.08
      0.9700	   50.00	  507.90	-1748.50	  394.19
      1.0700	   45.00	  508.99	-1748.50	  395.28
      1.1700	   37.00	  510.07	-1748.50	  396.36
      1.2700	   42.00	  511.13	-1748.50	  397.42
      1.3700	   47.00	  512.18	-1748.50	  398.47
      1.4700	  104.00	  513.22	-1748.50	  399.51
      1.5700	  273.00	  514.24	-1748.50	  400.53
      1.6700	  443.00	  515.25	-1748.50	  401.54
      1.7700	  579.00	  516.25	-1748.50	  402.54
      1.8700	  694.00	  517.24	-1748.50	  403.53
      1.9700	  726.00	  518.21	-1748.50	  404.50
      2.0700	  808.00	  519.17	-1748.50	  405.46
      2.1700	  802.00	  520.11	-1748.50	  406.40
      2.2700	  809.00	  521.05	-1748.50	  407.33
      2.3700	  761.00	  521.97	-1748.50	  408.25
      2.4700	  746.00	  522.87	-1748.50	  409.16
      2.5700	  626.00	  523.77	-1748.50	  410.06
      2.6700	  636.00	  524.65	-1748.50	  410.94
      2.7700	  626.00	  525.52	-1748.50	  411.81
      2.8700	  639.00	  526.38	-1748.50	  412.67
      2.9700	  604.00	  527.23	-1748.50	  413.52
      3.0700	  574.00	  528.06	-1748.50	  414.35
      3.1700	  595.00	  528.88	-1748.50	  415.17
      3.2700	  622.00	  529.69	-1748.50	  415.98
      3.3700	  742.00	  530.49	-1748.50	  416.78
      3.4700	  828.00	  531.28	-1748.50	  417.57
      3.5700	  875.00	  532.05	-1748.50	  418.34
      3.6700	  901.00	  532.82	-1748.50	  419.10
      3.7700	 1005.00	  533.57	-1748.50	  419.86
      3.8700	 1032.00	  534.31	-1748.50	  420.60
      3.9700	 1104.00	  535.04	-1748.50	  421.32
      4.0700	 1112.00	  535.75	-1748.50	  422.04
      4.1700	 1169.00	  536.46	-1748.50	  422.75
      4.2700	 1190.00	  537.15	-1748.50	  423.44
      4.3700	 1145.00	  537.84	-1748.50	  424.13
      4.4700	 1134.00	  538.51	-1748.50	  424.80
      4.5700	 1124.00	  539.17	-1748.50	  425.46
      4.6700	 1085.00	  539.82	-1748.50	  426.11
      4.7700	 1061.00	  540.47	-1748.50	  426.75
      4.8700	 1041.00	  541.09	-1748.50	  427.38
      4.9700	  957.00	  541.71	-1748.50	  428.00
      5.0700	  960.00	  542.32	-1748.50	  428.61
      5.1700	  933.00	  542.92	-1748.50	  429.21
      5.2700	  914.00	  543.51	-1748.50	  429.80
      5.3700	  937.00	  544.09	-1748.50	  430.38
      5.4700	  870.00	  544.65	-1748.50	  430.94
      5.5700	  832.00	  545.21	-1748.50	  431.50
      5.6700	  892.00	  545.76	-1748.50	  432.05
      5.7700	  846.00	  546.30	-1748.50	  432.58
      5.8700	  856.00	  546.82	-1748.50	  433.11
      5.9700	  756.00	  547.34	-1748.50	  433.63
      6.0700	  797.00	  547.85	-1748.50	  434.14
      6.1700	  821.00	  548.35	-1748.50	  434.63
      6.2700	  739.00	  548.83	-1748.50	  435.12
      6.3700	  770.00	  549.31	-1748.50	  435.60
      6.4700	  743.00	  549.78	-1748.50	  436.07
      6.5700	  755.00	  550.24	-1748.50	  436.53
      6.6700	  754.00	  550.69	-1748.50	  436.98
      6.7700	  726.00	  551.13	-1748.50	  437.42
      6.8700	  744.00	  551.57	-1748.50	  437.85
      6.9700	  694.00	  551.99	-1748.50	  438.28
      7.0700	  716.00	  552.40	-1748.50	  438.69
      7.1700	  704.00	  552.81	-1748.50	  439.10
      7.2700	  687.00	  553.20	-1748.50	  439.49
      7.3700	  722.00	  553.59	-1748.50	  439.88
      7.4700	  677.00	  553.97	-1748.50	  440.26
      7.5700	  635.00	  554.34	-1748.50	  440.63
      7.6700	  632.00	  554.70	-1748.50	  440.99
      7.7700	  646.00	  555.05	-1748.50	  441.34
      7.8700	  619.00	  555.39	-1748.50	  441.68
      7.9700	  637.00	  555.73	-1748.50	  442.02
      8.0700	  631.00	  556.06	-1748.50	  442.34
      8.1700	  682.00	  556.38	-1748.50	  442.66
      8.2700	  652.00	  556.69	-1748.50	  442.97
      8.3700	  671.00	  556.99	-1748.50	  443.28
      8.4700	  593.00	  557.28	-1748.50	  443.57
      8.5700	  610.00	  557.57	-1748.50	  443.86
      8.6700	  618.00	  557.85	-1748.50	  444.13
      8.7700	  615.00	  558.12	-1748.50	  444.40
      8.8700	  635.00	  558.38	-1748.50	  444.67
      8.9700	  588.00	  558.63	-1748.50	  444.92
      9.0700	  646.00	  558.88	-1748.50	  445.17
      9.1700	  655.00	  559.12	-1748.50	  445.41
      9.2700	  648.00	  559.35	-1748.50	  445.64
      9.3700	  602.00	  559.57	-1748.50	  445.86
      9.4700	  605.00	  559.79	-1748.50	  446.08
      9.5700	  612.00	  560.00	-1748.50	  446.29
      9.6700	  617.00	  560.20	-1748.50	  446.49
      9.7700	  614.00	  560.40	-1748.50	  446.69
      9.8700	  621.00	  560.58	-1748.50	  446.87
      9.9700	  583.00	  560.76	-1748.50	  447.05
     10.0700	  617.00	  562.33	-1693.83	  447.23
     10.1700	  603.00	  562.65	-1708.15	  447.39
     10.2700	  597.00	  563.00	-1714.50	  447.55
     10.3700	  588.00	  563.40	-1723.90	  447.70
     10.4700	  569.00	  563.88	-1743.38	  447.85
     10.5700	  573.00	  564.51	-1740.01	  447.99
     10.6700	  589.00	  565.37	-1724.87	  448.12
     10.7700	  575.00	  566.57	-1740.07	  448.24
     10.8700	  579.00	  568.17	-1737.67	  448.36
     10.9700	  587.00	  570.18	-1731.68	  448.48
     11.0700	  624.00	  572.60	-1697.10	  448.58
     11.1700	  607.00	  575.43	-1716.93	  448.68
     11.2700	  598.00	  578.71	-1729.21	  448.77
     11.3700	  559.00	  582.53	-1772.03	  448.86
     11.4700	  589.00	  587.03	-1746.53	  448.94
     11.5700	  561.00	  592.44	-1779.94	  449.01
     11.6700	  580.00	  599.13	-1767.63	  449.08
     11.7700	  565.00	  607.63	-1791.13	  449.14
     11.8700	  644.00	  618.43	-1722.93	  449.20
     11.9700	  709.00	  631.35	-1670.85	  449.25
     12.0700	  708.00	  644.41	-1684.91	  449.29
     12.1700	  660.00	  652.77	-1741.27	  449.33
     12.2700	  672.00	  649.51	-1726.01	  449.37
     12.3700	  626.00	  632.52	-1755.02	  449.39
     12.4700	  615.00	  610.58	-1744.08	  449.41
     12.5700	  600.00	  592.60	-1741.10	  449.43
     12.6700	  596.00	  580.94	-1733.44	  449.44
     12.7700	  562.00	  574.39	-1760.89	  449.44
     12.8700	  559.00	  570.93	-1760.43	  449.44
     12.9700	  559.00	  569.01	-1758.51	  449.44
     13.0700	  588.00	  567.81	-1728.31	  449.42
     13.1700	  567.00	  566.98	-1748.48	  449.41
     13.2700	  554.00	  566.34	-1760.84	  449.38
     13.3700	  584.00	  565.85	-1730.35	  449.36
     13.4700	  515.00	  565.45	-1798.95	  449.32
     13.5700	  563.00	  565.12	-1750.62	  449.29
     13.6700	  501.00	  564.84	-1812.34	  449.24
     13.7700	  551.00	  564.59	-1762.09	  449.20
     13.8700	  542.00	  564.38	-1770.88	  449.14
     13.9700	  547.00	  564.18	-1765.68	  449.09
     14.0700	  526.00	  564.00	-1786.50	  449.02
     14.1700	  558.00	  563.83	-1754.33	  448.96
     14.2700	  590.00	  563.67	-1722.17	  448.88
     14.3700	  547.00	  563.52	-1765.02	  448.81
     14.4700	  584.00	  563.37	-1727.87	  448.73
     14.5700	  536.00	  563.23	-1775.73	  448.64
     14.6700	  538.00	  563.09	-1773.59	  448.55
     14.7700	  525.00	  562.98	-1786.48	  448.46
     14.8700	  534.00	  562.84	-1777.34	  448.36
     14.9700	  508.00	  562.70	-1803.20	  448.25
     15.0700	  560.00	  562.56	-1751.06	  448.15
     15.1700	  526.00	  562.42	-1784.92	  448.03
     15.2700	  548.00	  562.28	-1762.78	  447.92
     15.3700	  532.00	  562.13	-1778.63	  447.80
     15.4700	  554.00	  561.99	-1756.49	  447.67
     15.5700	  542.00	  561.84	-1768.34	  447.55
     15.6700	  567.00	  561.69	-1743.19	  447.41
     15.7700	  539.00	  561.54	-1771.04	  447.28
     15.8700	  538.00	  561.38	-1771.88	  447.14
     15.9700	  583.00	  561.22	-1726.72	  446.99
     16.0700	  540.00	  561.06	-1769.56	  446.84
     16.1700	  569.00	  560.90	-1740.40	  446.69
     16.2700	  598.00	  560.73	-1711.23	  446.54
     16.3700	  552.00	  560.56	-1757.06	  446.38
     16.4700	  492.00	  560.39	-1816.89	  446.21
     16.5700	  554.00	  560.22	-1754.72	  446.05
     16.6700	  545.00	  560.04	-1763.54	  445.88
     16.7700	  524.00	  559.86	-1784.36	  445.70
     16.8700	  542.00	  559.68	-1766.18	  445.53
     16.9700	  552.00	  559.49	-1755.99	  445.35
     17.0700	  574.00	  559.30	-1733.80	  445.16
     17.1700	  546.00	  559.11	-1761.61	  444.98
     17.2700	  559.00	  558.91	-1748.41	  444.79
     17.3700	  583.00	  558.72	-1724.22	  444.59
     17.4700	  568.00	  558.51	-1739.01	  444.40
     17.5700	  528.00	  558.31	-1778.81	  444.20
     17.6700	  599.00	  558.11	-1707.61	  443.99
     17.7700	  531.00	  557.90	-1775.40	  443.79
     17.8700	  534.00	  557.78	-1772.28	  443.58
     17.9700	  587.00	  557.57	-1719.07	  443.37
     18.0700	  572.00	  557.36	-1733.86	  443.15
     18.1700	  594.00	  557.14	-1711.64	  442.93
     18.2700	  524.00	  556.92	-1781.42	  442.71
     18.3700	  534.00	  556.70	-1771.20	  442.49
     18.4700	  570.00	  556.57	-1735.07	  442.26
     18.5700	  591.00	  556.34	-1713.84	  442.03
     18.6700	  569.00	  556.11	-1735.61	  441.80
     18.7700	  517.00	  555.88	-1787.38	  441.57
     18.8700	  539.00	  555.65	-1765.15	  441.33
     18.9700	  541.00	  555.42	-1762.92	  441.09
     19.0700	  583.00	  555.18	-1720.68	  440.85
     19.1700	  500.00	  554.94	-1803.44	  440.60
     19.2700	  557.00	  554.70	-1746.20	  440.36
     19.3700	  512.00	  554.46	-1790.96	  440.11
     19.4700	  581.00	  554.22	-1721.72	  439.85
     19.5700	  569.00	  553.97	-1733.47	  439.60
     19.6700	  558.00	  553.72	-1744.22	  439.34
     19.7700	  525.00	  553.47	-1776.97	  439.09
     19.8700	  564.00	  553.22	-1737.72	  438.82
     19.9700	  562.00	  552.97	-1739.47	  438.56
     20.0700	  529.00	  552.71	-1772.21	  438.30
     20.1700	  534.00	  552.46	-1766.96	  438.03
     20.2700	  541.00	  552.24	-1759.74	  437.76
     20.3700	  576.00	  551.98	-1724.48	  437.49
     20.4700	  536.00	  551.72	-1764.22	  437.21
     20.5700	  570.00	  551.46	-1729.96	  436.94
     20.6700	  520.00	  551.20	-1779.70	  436.66
     20.7700	  509.00	  550.94	-1790.44	  436.38
     20.8700	  555.00	  550.68	-1744.18	  436.10
     20.9700	  545.00	  550.42	-1753.92	  435.82
     21.0700	  563.00	  550.15	-1735.65	  435.53
     21.1700	  561.00	  549.89	-1737.39	  435.25
     21.2700	  556.00	  549.63	-1742.13	  434.96
     21.3700	  544.00	  549.36	-1753.86	  434.67
     21.4700	  535.00	  549.10	-1762.60	  434.38
     21.5700	  549.00	  548.84	-1748.34	  434.09
     21.6700	  543.00	  548.57	-1754.07	  433.79
     21.7700	  560.00	  548.31	-1736.81	  433.50
     21.8700	  568.00	  548.05	-1728.55	  433.20
     21.9700	  496.00	  547.75	-1800.25	  432.90
     22.0700	  492.00	  547.50	-1804.00	  432.60
     22.1700	  581.00	  547.25	-1714.75	  432.30
     22.2700	  565.00	  547.00	-1730.50	  432.00
     22.3700	  585.00	  546.76	-1710.26	  431.69
     22.4700	  565.00	  546.52	-1730.02	  431.39
     22.5700	  533.00	  546.29	-1761.79	  431.08
     22.6700	  571.00	  546.06	-1723.56	  430.77
     22.7700	  593.00	  545.85	-1701.35	  430.46
     22.8700	  536.00	  545.79	-1758.29	  430.15
     22.9700	  530.00	  545.61	-1764.11	  429.84
     23.0700	  563.00	  545.44	-1730.94	  429.53
     23.1700	  566.00	  545.29	-1727.79	  429.21
     23.2700	  535.00	  545.18	-1758.68	  428.90
     23.3700	  518.00	  545.10	-1775.60	  428.58
     23.4700	  508.00	  545.07	-1785.57	  428.27
     23.5700	  536.00	  545.10	-1757.60	  427.95
     23.6700	  576.00	  545.24	-1717.74	  427.63
     23.7700	  553.00	  545.54	-1741.04	  427.31
     23.8700	  585.00	  546.11	-1709.61	  426.99
     23.9700	  539.00	  547.17	-1756.67	  426.67
     24.0700	  546.00	  549.07	-1751.57	  426.35
     24.1700	  563.00	  552.37	-1737.87	  426.03
     24.2700	  547.00	  557.75	-1759.25	  425.70
     24.3700	  575.00	  565.89	-1739.39	  425.38
     24.4700	  587.00	  577.22	-1738.72	  425.05
     24.5700	  630.00	  591.31	-1709.81	  424.73
     24.6700	  648.00	  605.89	-1706.39	  424.40
     24.7700	  657.00	  616.08	-1707.58	  424.08
     24.8700	  637.00	  615.28	-1726.78	  423.75
     24.9700	  624.00	  601.61	-1726.11	  423.42
     25.0700	  615.00	  582.66	-1716.16	  423.09
     25.1700	  536.00	  566.35	-1778.85	  422.76
     25.2700	  604.00	  555.23	-1699.73	  422.44
     25.3700	  551.00	  548.68	-1746.18	  422.11
     25.4700	  595.00	  545.10	-1698.60	  421.78
     25.5700	  541.00	  543.10	-1750.60	  421.45
     25.6700	  513.00	  541.86	-1777.36	  421.12
     25.7700	  568.00	  541.00	-1721.50	  420.78
     25.8700	  532.00	  540.36	-1756.86	  420.45
     25.9700	  570.00	  539.89	-1718.39	  420.12
     26.0700	  523.00	  539.53	-1765.03	  419.79
     26.1700	  562.00	  539.27	-1725.77	  419.46
     26.2700	  492.00	  539.11	-1795.61	  419.13
     26.3700	  565.00	  539.03	-1722.53	  418.79
     26.4700	  569.00	  539.05	-1718.55	  418.46
     26.5700	  542.00	  539.18	-1745.68	  418.13
     26.6700	  580.00	  539.42	-1707.92	  417.80
     26.7700	  585.00	  539.81	-1703.31	  417.46
     26.8700	  568.00	  540.37	-1720.87	  417.13
     26.9700	  601.00	  541.15	-1688.65	  416.80
     27.0700	  565.00	  542.22	-1725.72	  416.47
     27.1700	  570.00	  543.71	-1722.21	  416.13
     27.2700	  588.00	  545.83	-1706.33	  415.80
     27.3700	  532.00	  549.04	-1765.54	  415.47
     27.4700	  585.00	  554.19	-1717.69	  415.14
     27.5700	  586.00	  562.83	-1725.32	  414.80
     27.6700	  527.00	  577.44	-1798.94	  414.47
     27.7700	  565.00	  601.36	-1784.86	  414.14
     27.8700	  611.00	  637.70	-1775.20	  413.81
     27.9700	  657.00	  687.15	-1778.65	  413.48
     28.0700	  764.00	  745.11	-1729.61	  413.15
     28.1700	  844.00	  798.86	-1703.36	  412.82
     28.2700	  936.00	  827.82	-1640.32	  412.48
     28.3700	  826.00	  816.00	-1738.50	  412.15
     28.4700	  795.00	  777.83	-1731.33	  411.82
     28.5700	  795.00	  747.35	-1700.85	  411.49
     28.6700	  719.00	  743.36	-1772.86	  411.17
     28.7700	  718.00	  764.02	-1794.52	  410.84
     28.8700	  815.00	  792.42	-1725.92	  410.51
     28.9700	  790.00	  802.55	-1761.05	  410.18
     29.0700	  743.00	  773.89	-1779.39	  409.85
     29.1700	  719.00	  715.25	-1744.75	  409.53
     29.2700	  646.00	  654.21	-1756.71	  409.20
     29.3700	  574.00	  607.12	-1781.62	  408.87
     29.4700	  611.00	  576.71	-1714.21	  408.55
     29.5700	  577.00	  559.25	-1730.75	  408.22
     29.6700	  593.00	  549.71	-1705.21	  407.90
     29.7700	  545.00	  544.32	-1747.82	  407.57
     29.8700	  600.00	  541.04	-1689.54	  407.25
     29.9700	  637.00	  539.00	-1650.50	  406.93
     30.0700	  574.00	  537.85	-1712.35	  406.61
     30.1700	  524.00	  537.70	-1762.20	  406.28
     30.2700	  593.00	  538.95	-1694.45	  405.96
     30.3700	  550.00	  542.41	-1740.91	  405.64
     30.4700	  523.00	  549.29	-1774.79	  405.32
     30.5700	  584.00	  560.82	-1725.32	  405.01
     30.6700	  566.00	  577.33	-1759.83	  404.69
     30.7700	  571.00	  597.03	-1774.53	  404.37
     30.8700	  601.00	  615.07	-1762.57	  404.05
     30.9700	  623.00	  623.63	-1749.13	  403.74
     31.0700	  621.00	  616.02	-1743.52	  403.42
     31.1700	  581.00	  595.29	-1762.79	  403.11
     31.2700	  586.00	  572.01	-1734.51	  402.80
     31.3700	  568.00	  553.22	-1733.72	  402.49
     31.4700	  554.00	  540.64	-1735.14	  402.17
     31.5700	  553.00	  533.23	-1728.73	  401.86
     31.6700	  538.00	  529.13	-1739.63	  401.56
     31.7700	  540.00	  526.84	-1735.34	  401.25
     31.8700	  529.00	  525.44	-1744.94	  400.94
     31.9700	  530.00	  524.52	-1743.02	  400.63
     32.0700	  548.00	  523.89	-1724.39	  400.33
     32.1700	  556.00	  523.49	-1715.99	  400.02
     32.2700	  541.00	  523.28	-1730.78	  399.72
     32.3700	  587.00	  523.26	-1684.76	  399.42
     32.4700	  543.00	  523.42	-1728.92	  399.12
     32.5700	  546.00	  523.79	-1726.29	  398.82
     32.6700	  521.00	  524.40	-1751.90	  398.52
     32.7700	  522.00	  525.31	-1751.81	  398.22
     32.8700	  532.00	  526.60	-1743.10	  397.92
     32.9700	  519.00	  528.41	-1757.91	  397.63
     33.0700	  531.00	  530.99	-1748.49	  397.33
     33.1700	  527.00	  534.86	-1756.36	  397.04
     33.2700	  538.00	  541.09	-1751.59	  396.74
     33.3700	  585.00	  551.81	-1715.31	  396.45
     33.4700	  532.00	  570.82	-1787.32	  396.16
     33.5700	  576.00	  603.72	-1776.22	  395.87
     33.6700	  610.00	  656.65	-1795.15	  395.59
     33.7700	  730.00	  732.21	-1750.71	  395.30
     33.8700	  801.00	  823.65	-1771.15	  395.01
     33.9700	  987.00	  910.48	-1671.98	  394.73
     34.0700	 1039.00	  959.30	-1668.80	  394.45
     34.1700	  982.00	  939.35	-1705.85	  394.17
     34.2700	  921.00	  857.42	-1684.92	  393.89
     34.3700	  795.00	  755.98	-1709.48	  393.61
     34.4700	  675.00	  668.71	-1742.21	  393.33
     34.5700	  541.00	  607.17	-1814.67	  393.05
     34.6700	  549.00	  569.34	-1768.84	  392.78
     34.7700	  519.00	  548.06	-1777.56	  392.50
     34.8700	  548.00	  536.29	-1736.79	  392.23
     34.9700	  561.00	  529.32	-1716.82	  391.96
     35.0700	  516.00	  524.73	-1757.23	  391.69
     35.1700	  542.00	  521.38	-1727.88	  391.42
     35.2700	  530.00	  518.77	-1737.27	  391.16
     35.3700	  535.00	  516.68	-1730.18	  390.89
     35.4700	  541.00	  514.95	-1722.45	  390.63
     35.5700	  507.00	  513.50	-1755.00	  390.36
     35.6700	  493.00	  512.26	-1767.76	  390.10
     35.7700	  539.00	  511.20	-1720.70	  389.84
     35.8700	  514.00	  510.27	-1744.77	  389.59
     35.9700	  551.00	  509.91	-1707.41	  389.33
     36.0700	  459.00	  509.18	-1798.68	  389.07
     36.1700	  519.00	  508.54	-1738.04	  388.82
     36.2700	  525.00	  507.96	-1731.46	  388.57
     36.3700	  493.00	  507.44	-1762.94	  388.32
     36.4700	  482.00	  506.97	-1773.47	  388.07
     36.5700	  519.00	  506.58	-1736.08	  387.82
     36.6700	  509.00	  506.22	-1745.72	  387.57
     36.7700	  484.00	  505.94	-1770.44	  387.33
     36.8700	  536.00	  505.77	-1718.27	  387.09
     36.9700	  496.00	  505.76	-1758.26	  386.84
     37.0700	  512.00	  506.05	-1742.55	  386.60
     37.1700	  487.00	  506.85	-1768.35	  386.37
     37.2700	  550.00	  508.42	-1706.92	  386.13
     37.3700	  537.00	  510.96	-1722.46	  385.89
     37.4700	  467.00	  514.41	-1795.91	  385.66
     37.5700	  499.00	  518.19	-1767.69	  385.43
     37.6700	  506.00	  521.13	-1763.63	  385.20
     37.7700	  501.00	  521.81	-1769.31	  384.97
     37.8700	  547.00	  519.59	-1721.09	  384.74
     37.9700	  505.00	  515.54	-1759.04	  384.51
     38.0700	  506.00	  511.26	-1753.76	  384.29
     38.1700	  514.00	  507.62	-1742.12	  384.07
     38.2700	  479.00	  504.89	-1774.39	  383.85
     38.3700	  478.00	  503.18	-1773.68	  383.63
     38.4700	  530.00	  501.95	-1720.45	  383.41
     38.5700	  506.00	  501.12	-1743.62	  383.19
     38.6700	  488.00	  500.54	-1761.04	  382.98
     38.7700	  482.00	  500.09	-1766.59	  382.77
     38.8700	  488.00	  499.62	-1760.12	  382.56
     38.9700	  473.00	  499.31	-1774.81	  382.35
     39.0700	  452.00	  499.02	-1795.52	  382.14
     39.1700	  480.00	  498.76	-1767.26	  381.93
     39.2700	  489.00	  498.51	-1758.01	  381.73
     39.3700	  506.00	  498.28	-1740.78	  381.53
     39.4700	  532.00	  498.07	-1714.57	  381.33
     39.5700	  505.00	  497.87	-1741.37	  381.13
     39.6700	  455.00	  497.59	-1791.09	  380.93
     39.7700	  470.00	  497.42	-1775.92	  380.73
     39.8700	  488.00	  497.26	-1757.76	  380.54
     39.9700	  468.00	  497.10	-1777.60	  380.35
     40.0700	  542.00	  496.96	-1703.46	  380.16
     40.1700	  474.00	  496.83	-1771.33	  379.97
     40.2700	  515.00	  496.72	-1730.22	  379.78
     40.3700	  496.00	  496.61	-1749.11	  379.60
     40.4700	  474.00	  496.53	-1771.03	  379.41
     40.5700	  497.00	  496.46	-1747.96	  379.23
     40.6700	  531.00	  496.41	-1713.91	  379.05
     40.7700	  487.00	  496.38	-1757.88	  378.87
     40.8700	  524.00	  496.87	-1721.37	  378.70
     40.9700	  500.00	  496.91	-1745.41	  378.52
     41.0700	  477.00	  496.98	-1768.48	  378.35
     41.1700	  484.00	  497.11	-1761.61	  378.18
     41.2700	  505.00	  497.29	-1740.79	  378.01
     41.3700	  527.00	  497.55	-1719.05	  377.84
     41.4700	  509.00	  497.91	-1737.41	  377.68
     41.5700	  464.00	  498.40	-1782.90	  377.51
     41.6700	  508.00	  499.09	-1739.59	  377.35
     41.7700	  463.00	  500.13	-1785.63	  377.19
     41.8700	  508.00	  501.80	-1742.30	  377.03
     41.9700	  482.00	  504.63	-1771.13	  376.87
     42.0700	  499.00	  509.69	-1759.19	  376.72
     42.1700	  516.00	  518.33	-1750.83	  376.57
     42.2700	  505.00	  532.16	-1775.66	  376.41
     42.3700	  527.00	  551.94	-1773.44	  376.27
     42.4700	  552.00	  576.76	-1773.26	  376.12
     42.5700	  561.00	  602.32	-1789.82	  375.97
     42.6700	  546.00	  621.13	-1823.63	  375.83
     42.7700	  594.00	  624.85	-1779.35	  375.68
     42.8700	  583.00	  610.79	-1776.29	  375.54
     42.9700	  570.00	  585.86	-1764.36	  375.40
     43.0700	  600.00	  559.42	-1707.92	  375.27
     43.1700	  511.00	  537.21	-1774.71	  375.13
     43.2700	  481.00	  521.17	-1788.67	  375.00
     43.3700	  525.00	  511.05	-1734.55	  374.87
     43.4700	  490.00	  504.93	-1763.43	  374.74
     43.5700	  523.00	  501.43	-1726.93	  374.61
     43.6700	  457.00	  499.38	-1790.88	  374.48
     43.7700	  509.00	  498.07	-1737.57	  374.36
     43.8700	  504.00	  497.17	-1741.67	  374.24
     43.9700	  468.00	  496.49	-1776.99	  374.11
     44.0700	  475.00	  495.96	-1769.46	  374.00
     44.1700	  496.00	  495.54	-1748.04	  373.88
     44.2700	  498.00	  495.20	-1745.70	  373.76
     44.3700	  490.00	  494.94	-1753.44	  373.65
     44.4700	  513.00	  494.73	-1730.23	  373.54
     44.5700	  475.00	  494.56	-1768.06	  373.43
     44.6700	  524.00	  494.63	-1719.13	  373.32
     44.7700	  508.00	  494.54	-1735.04	  373.21
     44.8700	  465.00	  494.49	-1777.99	  373.11
     44.9700	  498.00	  494.46	-1744.96	  373.00
     45.0700	  532.00	  494.46	-1710.96	  372.90
     45.1700	  463.00	  494.49	-1779.99	  372.80
     45.2700	  540.00	  494.55	-1703.05	  372.71
     45.3700	  475.00	  494.67	-1768.17	  372.61
     45.4700	  578.00	  494.64	-1665.14	  372.52
     45.5700	  485.00	  494.77	-1758.27	  372.42
     45.6700	  522.00	  494.94	-1721.44	  372.33
     45.7700	  521.00	  495.14	-1722.64	  372.24
     45.8700	  490.00	  495.36	-1753.86	  372.16
     45.9700	  461.00	  495.63	-1783.13	  372.07
     46.0700	  465.00	  495.94	-1779.44	  371.99
     46.1700	  486.00	  496.29	-1758.79	  371.91
     46.2700	  528.00	  496.69	-1717.19	  371.83
     46.3700	  522.00	  497.22	-1723.72	  371.75
     46.4700	  504.00	  497.75	-1742.25	  371.67
     46.5700	  497.00	  498.41	-1749.91	  371.60
     46.6700	  516.00	  499.14	-1731.64	  371.53
     46.7700	  547.00	  500.02	-1701.52	  371.46
     46.8700	  504.00	  501.12	-1745.62	  371.39
     46.9700	  507.00	  502.58	-1744.08	  371.32
     47.0700	  492.00	  504.68	-1761.18	  371.25
     47.1700	  478.00	  507.89	-1778.39	  371.19
     47.2700	  510.00	  512.97	-1751.47	  371.13
     47.3700	  516.00	  520.83	-1753.33	  371.07
     47.4700	  533.00	  532.27	-1747.77	  371.01
     47.5700	  548.00	  547.48	-1747.98	  370.95
     47.6700	  563.00	  565.41	-1750.91	  370.89
     47.7700	  570.00	  583.18	-1761.68	  370.84
     47.8700	  579.00	  596.08	-1765.58	  370.79
     47.9700	  611.00	  599.35	-1736.85	  370.74
     48.0700	  560.00	  591.98	-1780.48	  370.69
     48.1700	  560.00	  577.99	-1766.49	  370.64
     48.2700	  551.00	  562.77	-1760.27	  370.60
     48.3700	  584.00	  549.96	-1714.46	  370.55
     48.4700	  515.00	  541.15	-1774.65	  370.51
     48.5700	  516.00	  536.54	-1769.04	  370.47
     48.6700	  508.00	  535.54	-1776.04	  370.43
     48.7700	  557.00	  537.76	-1729.26	  370.40
     48.8700	  547.00	  541.86	-1743.36	  370.36
     48.9700	  507.00	  548.04	-1789.54	  370.33
     49.0700	  510.00	  556.64	-1795.14	  370.30
     49.1700	  522.00	  568.82	-1795.32	  370.26
     49.2700	  570.00	  587.18	-1765.68	  370.24
     49.3700	  558.00	  616.79	-1807.29	  370.21
     49.4700	  608.00	  666.54	-1807.04	  370.18
     49.5700	  707.00	  749.78	-1791.28	  370.16
     49.6700	  793.00	  882.97	-1838.47	  370.14
     49.7700	 1037.00	 1080.80	-1792.30	  370.12
     49.8700	 1310.00	 1347.42	-1785.92	  370.10
     49.9700	 1695.00	 1666.14	-1719.64	  370.08
     50.0700	 1993.00	 1989.27	-1744.77	  370.07
     50.1700	 2313.00	 2236.00	-1671.50	  370.05
     50.2700	 2408.00	 2315.86	-1656.36	  370.04
     50.3700	 2222.00	 2191.26	-1717.76	  370.03
     50.4700	 1930.00	 1916.82	-1735.32	  370.02
     50.5700	 1576.00	 1589.38	-1761.88	  370.01
     50.6700	 1173.00	 1284.56	-1860.06	  370.01
     50.7700	  893.00	 1041.47	-1896.97	  370.00
     50.8700	  787.00	  870.01	-1831.51	  370.00
     50.9700	  642.00	  761.03	-1867.53	  370.00
     51.0700	  622.00	  696.70	-1823.20	  370.00
     51.1700	  656.00	  658.44	-1750.94	  370.00
     51.2700	  650.00	  632.27	-1730.77	  370.00
     51.3700	  610.00	  611.16	-1749.66	  370.01
     51.4700	  605.00	  592.50	-1736.00	  370.01
     51.5700	  551.00	  576.64	-1774.14	  370.02
     51.6700	  553.00	  563.89	-1759.39	  370.03
     51.7700	  535.00	  554.30	-1767.80	  370.04
     51.8700	  533.00	  547.56	-1763.06	  370.05
     51.9700	  581.00	  543.18	-1710.68	  370.07
     52.0700	  521.00	  540.66	-1768.16	  370.08
     52.1700	  580.00	  539.62	-1708.12	  370.10
     52.2700	  565.00	  539.88	-1723.38	  370.12
     52.3700	  578.00	  541.51	-1712.01	  370.13
     52.4700	  555.00	  544.97	-1738.47	  370.16
     52.5700	  534.00	  551.31	-1765.81	  370.18
     52.6700	  604.00	  562.54	-1707.04	  370.20
     52.7700	  623.00	  581.97	-1707.47	  370.23
     52.8700	  602.00	  614.29	-1760.79	  370.25
     52.9700	  692.00	  664.96	-1721.46	  370.28
     53.0700	  793.00	  738.48	-1693.98	  370.31
     53.1700	  937.00	  835.75	-1647.25	  370.34
     53.2700	 1041.00	  950.97	-1658.47	  370.37
     53.3700	 1109.00	 1068.91	-1708.41	  370.41
     53.4700	 1243.00	 1163.71	-1669.21	  370.44
     53.5700	 1143.00	 1204.92	-1810.42	  370.48
     53.6700	 1105.00	 1175.52	-1819.02	  370.52
     53.7700	 1030.00	 1087.45	-1805.95	  370.55
     53.8700	  933.00	  971.08	-1786.58	  370.60
     53.9700	  810.00	  854.25	-1792.75	  370.64
     54.0700	  752.00	  753.93	-1750.43	  370.68
     54.1700	  675.00	  677.17	-1750.67	  370.72
     54.2700	  641.00	  623.87	-1731.37	  370.77
     54.3700	  553.00	  589.78	-1785.28	  370.82
     54.4700	  602.00	  569.43	-1715.93	  370.86
     54.5700	  567.00	  557.90	-1739.40	  370.91
     54.6700	  570.00	  551.65	-1730.15	  370.96
     54.7700	  534.00	  548.47	-1762.97	  371.02
     54.8700	  574.00	  547.17	-1721.67	  371.07
     54.9700	  568.00	  547.17	-1727.67	  371.12
     55.0700	  598.00	  548.22	-1698.72	  371.18
     55.1700	  599.00	  550.24	-1699.74	  371.24
     55.2700	  614.00	  553.27	-1687.77	  371.29
     55.3700	  579.00	  557.39	-1726.89	  371.35
     55.4700	  528.00	  562.82	-1783.32	  371.41
     55.5700	  552.00	  569.91	-1766.41	  371.48
     55.6700	  558.00	  579.50	-1770.00	  371.54
     55.7700	  632.00	  593.04	-1709.54	  371.60
     55.8700	  579.00	  613.35	-1782.85	  371.67
     55.9700	  645.00	  645.53	-1749.03	  371.73
     56.0700	  704.00	  697.79	-1742.29	  371.80
     56.1700	  744.00	  781.90	-1786.40	  371.87
     56.2700	  820.00	  912.04	-1840.54	  371.94
     56.3700	 1008.00	 1101.37	-1841.87	  372.01
     56.4700	 1307.00	 1356.30	-1797.80	  372.08
     56.5700	 1629.00	 1669.33	-1788.83	  372.15
     56.6700	 1964.00	 2012.16	-1796.66	  372.23
     56.7700	 2309.00	 2331.09	-1770.59	  372.30
     56.8700	 2476.00	 2549.74	-1822.24	  372.38
     56.9700	 2571.00	 2596.21	-1773.71	  372.46
     57.0700	 2409.00	 2452.31	-1791.81	  372.53
     57.1700	 2293.00	 2170.62	-1626.12	  372.61
     57.2700	 1834.00	 1831.99	-1746.49	  372.69
     57.3700	 1504.00	 1502.62	-1747.12	  372.77
     57.4700	 1219.00	 1222.13	-1751.63	  372.86
     57.5700	  940.00	 1006.76	-1815.26	  372.94
     57.6700	  844.00	  855.90	-1760.40	  373.02
     57.7700	  755.00	  759.10	-1752.60	  373.11
     57.8700	  718.00	  703.04	-1733.54	  373.20
     57.9700	  739.00	  676.02	-1685.52	  373.28
     58.0700	  679.00	  670.22	-1739.72	  373.37
     58.1700	  730.00	  681.62	-1700.12	  373.46
     58.2700	  756.00	  708.89	-1701.39	  373.55
     58.3700	  806.00	  751.76	-1694.26	  373.64
     58.4700	  810.00	  809.48	-1747.98	  373.73
     58.5700	  902.00	  879.31	-1725.81	  373.82
     58.6700	 1013.00	  955.43	-1690.93	  373.92
     58.7700	 1134.00	 1029.66	-1644.16	  374.01
     58.8700	 1209.00	 1094.77	-1634.27	  374.11
     58.9700	 1249.00	 1146.90	-1646.40	  374.20
     59.0700	 1367.00	 1182.71	-1564.21	  374.30
     59.1700	 1382.00	 1197.58	-1564.08	  374.40
     59.2700	 1316.00	 1190.88	-1623.38	  374.50
     59.3700	 1256.00	 1170.56	-1663.06	  374.60
     59.4700	 1215.00	 1148.45	-1681.95	  374.70
     59.5700	 1219.00	 1133.68	-1663.18	  374.80
     59.6700	 1182.00	 1132.48	-1698.98	  374.90
     59.7700	 1188.00	 1151.63	-1712.13	  375.00
     59.8700	 1356.00	 1197.47	-1589.97	  375.10
     59.9700	 1311.00	 1270.38	-1707.88	  375.21
     60.0700	 1382.00	 1360.40	-1726.90	  375.31
     60.1700	 1509.00	 1446.00	-1685.50	  375.42
     60.2700	 1581.00	 1497.31	-1664.81	  375.52
     60.3700	 1507.00	 1487.64	-1729.14	  375.63
     60.4700	 1503.00	 1411.05	-1656.55	  375.74
     60.5700	 1307.00	 1286.23	-1727.73	  375.85
     60.6700	 1161.00	 1141.62	-1729.12	  375.96
     60.7700	 1053.00	 1001.13	-1696.63	  376.06
     60.8700	  792.00	  880.16	-1836.66	  376.17
     60.9700	  792.00	  786.13	-1742.63	  376.29
     61.0700	  794.00	  720.57	-1675.07	  376.40
     61.1700	  725.00	  681.61	-1705.11	  376.51
     61.2700	  678.00	  666.50	-1737.00	  376.62
     61.3700	  701.00	  673.67	-1721.17	  376.73
     61.4700	  684.00	  703.45	-1767.95	  376.85
     61.5700	  745.00	  757.64	-1761.14	  376.96
     61.6700	  846.00	  837.95	-1740.45	  377.08
     61.7700	  910.00	  943.68	-1782.18	  377.19
     61.8700	 1053.00	 1069.33	-1764.83	  377.31
     61.9700	 1138.00	 1202.89	-1813.39	  377.42
     62.0700	 1281.00	 1324.44	-1791.94	  377.54
     62.1700	 1322.00	 1407.78	-1834.28	  377.66
     62.2700	 1305.00	 1428.75	-1872.25	  377.78
     62.3700	 1340.00	 1379.84	-1788.34	  377.90
     62.4700	 1163.00	 1276.07	-1861.57	  378.01
     62.5700	 1042.00	 1143.99	-1850.49	  378.13
     62.6700	  971.00	 1007.93	-1785.43	  378.25
     62.7700	  810.00	  884.59	-1823.09	  378.37
     62.8700	  753.00	  783.02	-1778.52	  378.49
     62.9700	  677.00	  705.88	-1777.38	  378.61
     63.0700	  579.00	  651.37	-1820.87	  378.74
     63.1700	  567.00	  615.28	-1796.78	  378.86
     63.2700	  625.00	  592.82	-1716.32	  378.98
     63.3700	  554.00	  579.82	-1774.32	  379.10
     63.4700	  569.00	  573.41	-1752.91	  379.22
     63.5700	  617.00	  572.03	-1703.53	  379.35
     63.6700	  569.00	  575.43	-1754.93	  379.47
     63.7700	  652.00	  584.24	-1680.74	  379.60
     63.8700	  640.00	  599.92	-1708.42	  379.72
     63.9700	  635.00	  624.16	-1737.66	  379.84
     64.0700	  636.00	  658.37	-1770.87	  379.97
     64.1700	  747.00	  703.06	-1704.56	  380.09
     64.2700	  751.00	  757.01	-1754.51	  380.22
     64.3700	  885.00	  816.65	-1680.15	  380.34
     64.4700	  937.00	  875.54	-1687.04	  380.47
     64.5700	  977.00	  924.74	-1696.24	  380.60
     64.6700	  985.00	  954.83	-1718.33	  380.72
     64.7700	 1027.00	  959.73	-1681.23	  380.85
     64.8700	  947.00	  940.75	-1742.25	  380.97
     64.9700	  922.00	  902.94	-1729.44	  381.10
     65.0700	  932.00	  854.43	-1670.93	  381.23
     65.1700	  859.00	  803.31	-1692.81	  381.35
     65.2700	  734.00	  755.45	-1769.95	  381.48
     65.3700	  687.00	  713.69	-1775.19	  381.61
     65.4700	  712.00	  678.52	-1715.02	  381.74
     65.5700	  634.00	  649.35	-1763.85	  381.86
     65.6700	  584.00	  625.68	-1790.18	  381.99
     65.7700	  628.00	  606.74	-1727.24	  382.12
     65.8700	  569.00	  592.19	-1771.69	  382.25
     65.9700	  559.00	  581.44	-1770.94	  382.37
     66.0700	  541.00	  573.99	-1781.49	  382.50
     66.1700	  557.00	  569.35	-1760.85	  382.63
     66.2700	  555.00	  567.12	-1760.62	  382.76
     66.3700	  569.00	  566.98	-1746.48	  382.89
     66.4700	  570.00	  568.71	-1747.21	  383.01
     66.5700	  551.00	  572.29	-1769.79	  383.14
     66.6700	  564.00	  577.96	-1762.46	  383.27
     66.7700	  596.00	  586.46	-1738.96	  383.40
     66.8700	  574.00	  599.32	-1773.82	  383.52
     66.9700	  625.00	  618.79	-1742.29	  383.65
     67.0700	  625.00	  648.86	-1772.36	  383.78
     67.1700	  673.00	  695.19	-1770.69	  383.91
     67.2700	  757.00	  764.57	-1756.07	  384.04
     67.3700	  885.00	  864.97	-1728.47	  384.16
     67.4700	  955.00	 1003.46	-1796.96	  384.29
     67.5700	 1122.00	 1183.98	-1810.48	  384.42
     67.6700	 1338.00	 1404.72	-1815.22	  384.54
     67.7700	 1673.00	 1655.66	-1731.16	  384.67
     67.8700	 1929.00	 1916.26	-1735.76	  384.80
     67.9700	 2217.00	 2155.10	-1686.60	  384.92
     68.0700	 2309.00	 2331.58	-1771.08	  385.05
     68.1700	 2461.00	 2406.02	-1693.52	  385.18
     68.2700	 2352.00	 2358.54	-1755.04	  385.30
     68.3700	 2225.00	 2202.03	-1725.53	  385.43
     68.4700	 1982.00	 1973.65	-1740.15	  385.55
     68.5700	 1783.00	 1715.14	-1680.64	  385.68
     68.6700	 1442.00	 1460.38	-1766.88	  385.80
     68.7700	 1162.00	 1231.95	-1818.45	  385.93
     68.8700	 1037.00	 1042.51	-1754.01	  386.05
     68.9700	  837.00	  895.34	-1806.84	  386.18
     69.0700	  800.00	  787.53	-1736.03	  386.30
     69.1700	  723.00	  712.44	-1737.94	  386.42
     69.2700	  689.00	  662.25	-1721.75	  386.55
     69.3700	  628.00	  629.63	-1750.13	  386.67
     69.4700	  592.00	  608.65	-1765.15	  386.79
     69.5700	  595.00	  595.07	-1748.57	  386.92
     69.6700	  614.00	  586.07	-1720.57	  387.04
     69.7700	  540.00	  579.95	-1788.45	  387.16
     69.8700	  575.00	  575.78	-1749.28	  387.28
     69.9700	  535.00	  572.91	-1786.41	  387.40
     70.0700	  544.00	  571.11	-1775.61	  387.52
     70.1700	  547.00	  570.28	-1771.78	  387.64
     70.2700	  576.00	  570.35	-1742.85	  387.76
     70.3700	  558.00	  571.42	-1761.92	  387.88
     70.4700	  592.00	  573.70	-1730.20	  388.00
     70.5700	  523.00	  577.59	-1803.09	  388.12
     70.6700	  555.00	  583.85	-1777.35	  388.23
     70.7700	  621.00	  593.74	-1721.24	  388.35
     70.8700	  594.00	  609.20	-1763.70	  388.47
     70.9700	  625.00	  633.11	-1756.61	  388.58
     71.0700	  643.00	  669.30	-1774.80	  388.70
     71.1700	  708.00	  722.38	-1762.88	  388.81
     71.2700	  786.00	  797.20	-1759.70	  388.93
     71.3700	  868.00	  898.73	-1779.23	  389.04
     71.4700	  974.00	 1027.22	-1801.72	  389.16
     71.5700	 1196.00	 1182.00	-1734.50	  389.27
     71.6700	 1349.00	 1356.62	-1756.12	  389.38
     71.7700	 1474.00	 1538.74	-1813.24	  389.49
     71.8700	 1587.00	 1709.68	-1871.18	  389.60
     71.9700	 1891.00	 1845.28	-1702.78	  389.71
     72.0700	 1847.00	 1920.26	-1821.76	  389.82
     72.1700	 1929.00	 1917.61	-1737.11	  389.93
     72.2700	 1827.00	 1837.95	-1759.45	  390.04
     72.3700	 1753.00	 1699.22	-1694.72	  390.15
     72.4700	 1519.00	 1526.92	-1756.42	  390.26
     72.5700	 1421.00	 1344.87	-1672.37	  390.36
     72.6700	 1209.00	 1171.19	-1710.69	  390.47
     72.7700	 1110.00	 1017.74	-1656.24	  390.58
     72.8700	  907.00	  890.53	-1732.03	  390.68
     72.9700	  803.00	  790.79	-1736.29	  390.78
     73.0700	  768.00	  716.33	-1696.83	  390.89
     73.1700	  705.00	  662.54	-1706.04	  390.99
     73.2700	  664.00	  625.62	-1710.12	  391.09
     73.3700	  621.00	  600.60	-1728.10	  391.19
     73.4700	  618.00	  583.77	-1714.27	  391.29
     73.5700	  674.00	  572.37	-1646.87	  391.39
     73.6700	  576.00	  564.52	-1737.02	  391.49
     73.7700	  605.00	  559.00	-1702.50	  391.59
     73.8700	  562.00	  555.09	-1741.59	  391.68
     73.9700	  611.00	  552.35	-1689.85	  391.78
     74.0700	  593.00	  550.52	-1706.02	  391.87
     74.1700	  622.00	  549.39	-1675.89	  391.97
     74.2700	  583.00	  548.79	-1714.29	  392.06
     74.3700	  599.00	  548.55	-1698.05	  392.16
     74.4700	  596.00	  548.46	-1700.96	  392.25
     74.5700	  672.00	  548.29	-1624.79	  392.34
     74.6700	  580.00	  547.82	-1716.32	  392.43
     74.7700	  595.00	  546.92	-1700.42	  392.52
     74.8700	  620.00	  545.62	-1674.12	  392.61
     74.9700	  614.00	  544.07	-1678.57	  392.69
     75.0700	  597.00	  542.55	-1694.05	  392.78
     75.1700	  581.00	  541.33	-1708.83	  392.86
     75.2700	  555.00	  540.72	-1734.22	  392.95
     75.3700	  583.00	  541.07	-1706.57	  393.03
     75.4700	  595.00	  542.72	-1696.22	  393.11
     75.5700	  570.00	  546.20	-1724.70	  393.20
     75.6700	  573.00	  551.92	-1727.42	  393.28
     75.7700	  560.00	  560.32	-1748.82	  393.36
     75.8700	  574.00	  571.72	-1746.22	  393.44
     75.9700	  620.00	  586.14	-1714.64	  393.51
     76.0700	  645.00	  603.50	-1707.00	  393.59
     76.1700	  603.00	  623.04	-1768.54	  393.66
     76.2700	  656.00	  643.52	-1736.02	  393.74
     76.3700	  682.00	  663.16	-1729.66	  393.81
     76.4700	  702.00	  679.63	-1726.13	  393.89
     76.5700	  703.00	  690.50	-1736.00	  393.96
     76.6700	  697.00	  693.66	-1745.16	  394.03
     76.7700	  684.00	  688.43	-1752.93	  394.10
     76.8700	  651.00	  675.82	-1773.32	  394.16
     76.9700	  619.00	  658.07	-1787.57	  394.23
     77.0700	  698.00	  637.66	-1688.16	  394.30
     77.1700	  593.00	  616.81	-1772.31	  394.36
     77.2700	  601.00	  597.14	-1744.64	  394.43
     77.3700	  600.00	  579.76	-1728.26	  394.49
     77.4700	  516.00	  565.02	-1797.52	  394.55
     77.5700	  574.00	  553.44	-1727.94	  394.61
     77.6700	  489.00	  544.64	-1804.14	  394.67
     77.7700	  494.00	  538.20	-1792.70	  394.73
     77.8700	  523.00	  533.65	-1759.15	  394.78
     77.9700	  502.00	  530.52	-1777.02	  394.84
     78.0700	  478.00	  528.41	-1798.91	  394.89
     78.1700	  536.00	  527.00	-1739.50	  394.95
     78.2700	  497.00	  526.05	-1777.55	  395.00
     78.3700	  508.00	  525.42	-1765.92	  395.05
     78.4700	  451.00	  525.01	-1822.51	  395.10
     78.5700	  526.00	  524.75	-1747.25	  395.15
     78.6700	  494.00	  524.63	-1779.13	  395.19
     78.7700	  521.00	  524.64	-1752.14	  395.24
     78.8700	  537.00	  524.78	-1736.28	  395.29
     78.9700	  530.00	  525.06	-1743.56	  395.33
     79.0700	  477.00	  525.53	-1797.03	  395.37
     79.1700	  511.00	  526.21	-1763.71	  395.41
     79.2700	  579.00	  527.14	-1696.64	  395.45
     79.3700	  542.00	  528.37	-1734.87	  395.49
     79.4700	  508.00	  529.94	-1770.44	  395.53
     79.5700	  564.00	  531.90	-1716.40	  395.56
     79.6700	  506.00	  534.31	-1776.81	  395.60
     79.7700	  483.00	  537.26	-1802.76	  395.63
     79.8700	  541.00	  540.84	-1748.34	  395.66
     79.9700	  558.00	  544.99	-1735.49	  395.69
     80.0700	  530.00	  550.24	-1768.74	  395.72
     80.1700	  545.00	  556.62	-1760.12	  395.75
     80.2700	  527.00	  564.40	-1785.90	  395.78
     80.3700	  564.00	  573.87	-1758.37	  395.80
     80.4700	  540.00	  585.29	-1793.79	  395.82
     80.5700	  553.00	  598.75	-1794.25	  395.85
     80.6700	  589.00	  614.11	-1773.61	  395.87
     80.7700	  611.00	  630.96	-1768.46	  395.89
     80.8700	  661.00	  648.54	-1736.04	  395.91
     80.9700	  665.00	  665.82	-1749.32	  395.92
     81.0700	  676.00	  681.66	-1754.16	  395.94
     81.1700	  729.00	  695.01	-1714.51	  395.95
     81.2700	  663.00	  705.09	-1790.59	  395.96
     81.3700	  782.00	  711.35	-1677.85	  395.98
     81.4700	  746.00	  713.50	-1716.00	  395.99
     81.5700	  745.00	  711.47	-1714.97	  395.99
     81.6700	  789.00	  705.42	-1664.92	  396.00
     81.7700	  737.00	  695.66	-1707.16	  396.01
     81.8700	  684.00	  682.72	-1747.22	  396.01
     81.9700	  717.00	  667.43	-1698.93	  396.01
     82.0700	  707.00	  650.86	-1692.36	  396.01
     82.1700	  659.00	  634.08	-1723.58	  396.01
     82.2700	  624.00	  617.91	-1742.41	  396.01
     82.3700	  617.00	  602.91	-1734.41	  396.01
     82.4700	  562.00	  589.41	-1775.91	  396.00
     82.5700	  562.00	  577.62	-1764.12	  396.00
     82.6700	  576.00	  567.65	-1740.15	  395.99
     82.7700	  566.00	  559.55	-1742.05	  395.98
     82.8700	  566.00	  553.33	-1735.83	  395.97
     82.9700	  555.00	  548.88	-1742.38	  395.96
     83.0700	  516.00	  546.23	-1778.73	  395.94
     83.1700	  551.00	  545.22	-1742.72	  395.93
     83.2700	  515.00	  545.71	-1779.21	  395.91
     83.3700	  545.00	  547.51	-1751.01	  395.90
     83.4700	  529.00	  550.46	-1769.96	  395.88
     83.5700	  545.00	  554.26	-1757.76	  395.85
     83.6700	  568.00	  558.54	-1739.04	  395.83
     83.7700	  556.00	  562.89	-1755.39	  395.81
     83.8700	  553.00	  566.79	-1762.29	  395.78
     83.9700	  536.00	  569.70	-1782.20	  395.75
     84.0700	  594.00	  571.15	-1725.65	  395.73
     84.1700	  552.00	  570.83	-1767.33	  395.70
     84.2700	  528.00	  568.74	-1789.24	  395.66
     84.3700	  549.00	  565.15	-1764.65	  395.63
     84.4700	  511.00	  560.50	-1798.00	  395.60
     84.5700	  541.00	  555.29	-1762.79	  395.56
     84.6700	  542.00	  549.95	-1756.45	  395.52
     84.7700	  531.00	  544.81	-1762.31	  395.48
     84.8700	  494.00	  540.14	-1794.64	  395.44
     84.9700	  497.00	  536.08	-1787.58	  395.40
     85.0700	  511.00	  532.72	-1770.22	  395.35
     85.1700	  525.00	  530.04	-1753.54	  395.31
     85.2700	  499.00	  528.01	-1777.51	  395.26
     85.3700	  498.00	  526.55	-1777.05	  395.21
     85.4700	  542.00	  525.57	-1732.07	  395.16
     85.5700	  539.00	  525.00	-1734.50	  395.11
     85.6700	  499.00	  524.79	-1774.29	  395.05
     85.7700	  497.00	  524.91	-1776.41	  395.00
     85.8700	  534.00	  525.38	-1739.88	  394.94
     85.9700	  528.00	  526.25	-1746.75	  394.88
     86.0700	  515.00	  527.60	-1761.10	  394.82
     86.1700	  509.00	  529.57	-1769.07	  394.76
     86.2700	  566.00	  532.32	-1714.82	  394.70
     86.3700	  549.00	  536.01	-1735.51	  394.63
     86.4700	  516.00	  540.82	-1773.32	  394.57
     86.5700	  568.00	  546.88	-1727.38	  394.50
     86.6700	  596.00	  554.28	-1706.78	  394.43
     86.7700	  568.00	  562.99	-1743.49	  394.36
     86.8700	  596.00	  572.86	-1725.36	  394.29
     86.9700	  545.00	  583.59	-1787.09	  394.21
     87.0700	  636.00	  594.71	-1707.21	  394.14
     87.1700	  622.00	  605.60	-1732.10	  394.06
     87.2700	  606.00	  615.45	-1757.95	  393.98
     87.3700	  589.00	  623.39	-1782.89	  393.90
     87.4700	  634.00	  628.55	-1743.05	  393.82
     87.5700	  564.00	  630.31	-1814.81	  393.73
     87.6700	  653.00	  628.12	-1723.62	  393.65
     87.7700	  608.00	  623.07	-1763.57	  393.56
     87.8700	  638.00	  615.54	-1726.04	  393.47
     87.9700	  604.00	  606.46	-1750.96	  393.38
     88.0700	  611.00	  596.77	-1734.27	  393.29
     88.1700	  599.00	  587.30	-1736.80	  393.19
     88.2700	  583.00	  578.77	-1744.27	  393.10
     88.3700	  562.00	  571.70	-1758.20	  393.00
     88.4700	  555.00	  566.45	-1759.95	  392.90
     88.5700	  583.00	  563.20	-1728.70	  392.80
     88.6700	  589.00	  561.97	-1721.47	  392.70
     88.7700	  596.00	  562.61	-1715.11	  392.60
     88.8700	  582.00	  564.85	-1731.35	  392.50
     88.9700	  579.00	  568.30	-1737.80	  392.39
     89.0700	  593.00	  572.49	-1727.99	  392.28
     89.1700	  589.00	  576.88	-1736.38	  392.17
     89.2700	  603.00	  580.85	-1726.35	  392.06
     89.3700	  594.00	  583.85	-1738.35	  391.95
     89.4700	  591.00	  585.35	-1742.85	  391.83
     89.5700	  597.00	  585.04	-1736.54	  391.72
     89.6700	  583.00	  582.88	-1748.38	  391.60
     89.7700	  594.00	  579.10	-1733.60	  391.48
     89.8700	  526.00	  574.10	-1796.60	  391.36
     89.9700	  580.00	  568.33	-1736.83	  391.24
     90.0700	  569.00	  562.24	-1741.74	  391.12
     90.1700	  550.00	  556.22	-1754.72	  390.99
     90.2700	  553.00	  550.55	-1746.05	  390.86
     90.3700	  500.00	  545.45	-1793.95	  390.74
     90.4700	  503.00	  541.06	-1786.56	  390.61
     90.5700	  497.00	  537.42	-1788.92	  390.47
     90.6700	  533.00	  534.54	-1750.04	  390.34
     90.7700	  529.00	  532.38	-1751.88	  390.21
     90.8700	  516.00	  530.86	-1763.36	  390.07
     90.9700	  520.00	  529.92	-1758.42	  389.93
     91.0700	  536.00	  529.49	-1741.99	  389.79
     91.1700	  497.00	  529.53	-1781.03	  389.65
     91.2700	  516.00	  530.01	-1762.51	  389.51
     91.3700	  541.00	  530.96	-1738.46	  389.37
     91.4700	  505.00	  532.44	-1775.94	  389.22
     91.5700	  533.00	  534.54	-1750.04	  389.07
     91.6700	  502.00	  537.40	-1783.90	  388.93
     91.7700	  536.00	  541.20	-1753.70	  388.78
     91.8700	  538.00	  546.13	-1756.63	  388.63
     91.9700	  546.00	  552.41	-1754.91	  388.47
     92.0700	  569.00	  560.24	-1739.74	  388.32
     92.1700	  544.00	  569.80	-1774.30	  388.16
     92.2700	  583.00	  581.20	-1746.70	  388.01
     92.3700	  590.00	  594.49	-1752.99	  387.85
     92.4700	  611.00	  609.60	-1747.10	  387.69
     92.5700	  577.00	  626.34	-1797.84	  387.52
     92.6700	  678.00	  644.39	-1714.89	  387.36
     92.7700	  670.00	  663.28	-1741.78	  387.20
     92.8700	  636.00	  682.10	-1794.60	  387.03
     92.9700	  735.00	  700.69	-1714.19	  386.86
     93.0700	  769.00	  717.99	-1697.49	  386.70
     93.1700	  717.00	  733.37	-1764.87	  386.52
     93.2700	  752.00	  746.49	-1742.99	  386.35
     93.3700	  738.00	  757.38	-1767.88	  386.18
     93.4700	  770.00	  766.42	-1744.92	  386.01
     93.5700	  786.00	  774.18	-1736.68	  385.83
     93.6700	  764.00	  781.19	-1765.69	  385.65
     93.7700	  843.00	  787.92	-1693.42	  385.47
     93.8700	  821.00	  794.78	-1722.28	  385.29
     93.9700	  783.00	  802.16	-1767.66	  385.11
     94.0700	  858.00	  810.49	-1700.99	  384.93
     94.1700	  853.00	  820.19	-1715.69	  384.75
     94.2700	  837.00	  831.49	-1742.99	  384.56
     94.3700	  881.00	  844.34	-1711.84	  384.37
     94.4700	  877.00	  858.22	-1729.72	  384.19
     94.5700	  874.00	  872.20	-1746.70	  384.00
     94.6700	  939.00	  884.94	-1694.44	  383.80
     94.7700	  914.00	  894.78	-1729.28	  383.61
     94.8700	  980.00	  900.06	-1668.56	  383.42
     94.9700	  895.00	  899.36	-1752.86	  383.22
     95.0700	  877.00	  891.92	-1763.42	  383.03
     95.1700	  909.00	  877.89	-1717.39	  382.83
     95.2700	  839.00	  858.26	-1767.76	  382.63
     95.3700	  772.00	  834.61	-1811.11	  382.43
     95.4700	  794.00	  808.80	-1763.30	  382.23
     95.5700	  783.00	  782.74	-1748.24	  382.03
     95.6700	  766.00	  758.25	-1740.75	  381.83
     95.7700	  731.00	  737.00	-1754.50	  381.62
     95.8700	  669.00	  720.50	-1800.00	  381.42
     95.9700	  728.00	  710.11	-1730.60	  381.21
     96.0700	  710.00	  706.97	-1745.47	  381.00
     96.1700	  703.00	  712.11	-1757.61	  380.79
     96.2700	  731.00	  726.33	-1743.83	  380.58
     96.3700	  692.00	  750.22	-1806.72	  380.37
     96.4700	  830.00	  784.11	-1702.61	  380.16
     96.5700	  798.00	  827.98	-1778.48	  379.94
     96.6700	  825.00	  881.42	-1804.92	  379.73
     96.7700	  932.00	  943.54	-1760.04	  379.51
     96.8700	  973.00	 1012.85	-1788.35	  379.30
     96.9700	 1087.00	 1087.28	-1748.78	  379.08
     97.0700	 1204.00	 1164.07	-1708.57	  378.86
     97.1700	 1212.00	 1239.87	-1776.37	  378.64
     97.2700	 1313.00	 1310.74	-1746.24	  378.42
     97.3700	 1331.00	 1372.35	-1789.85	  378.19
     97.4700	 1383.00	 1420.32	-1785.82	  377.97
     97.5700	 1415.00	 1450.86	-1784.36	  377.75
     97.6700	 1508.00	 1461.50	-1702.00	  377.52
     97.7700	 1465.00	 1451.68	-1735.18	  377.29
     97.8700	 1335.00	 1422.81	-1836.31	  377.07
     97.9700	 1393.00	 1377.92	-1733.42	  376.84
     98.0700	 1288.00	 1320.93	-1781.43	  376.61
     98.1700	 1297.00	 1256.06	-1707.56	  376.38
     98.2700	 1224.00	 1187.38	-1711.88	  376.15
     98.3700	 1121.00	 1118.63	-1746.13	  375.92
     98.4700	 1019.00	 1053.10	-1782.60	  375.68
     98.5700	 1005.00	  993.56	-1737.06	  375.45
     98.6700	  958.00	  942.28	-1732.78	  375.21
     98.7700	  909.00	  901.06	-1740.56	  374.98
     98.8700	  854.00	  871.31	-1765.81	  374.74
     98.9700	  809.00	  854.07	-1793.57	  374.50
     99.0700	  808.00	  850.03	-1790.53	  374.27
     99.1700	  888.00	  859.70	-1720.20	  374.03
     99.2700	  833.00	  883.27	-1798.77	  373.79
     99.3700	  952.00	  920.70	-1717.20	  373.55
     99.4700	 1000.00	  971.71	-1720.21	  373.31
     99.5700	 1043.00	 1035.72	-1741.22	  373.07
     99.6700	 1092.00	 1111.78	-1768.28	  372.82
     99.7700	 1230.00	 1198.48	-1716.98	  372.58
     99.8700	 1263.00	 1293.88	-1779.38	  372.34
     99.9700	 1422.00	 1395.44	-1721.94	  372.09
    100.0700	 1503.00	 1500.00	-1745.50	  371.85
    100.1700	 1650.00	 1603.85	-1702.35	  371.60
    100.2700	 1626.00	 1702.84	-1825.34	  371.36
    100.3700	 1887.00	 1792.89	-1654.39	  371.11
    100.4700	 1868.00	 1870.30	-1750.80	  370.86
    100.5700	 1933.00	 1932.21	-1747.71	  370.61
    100.6700	 2016.00	 1976.63	-1709.13	  370.37
    100.7700	 2030.00	 2002.28	-1720.78	  370.12
    100.8700	 2047.00	 2008.42	-1709.92	  369.87
    100.9700	 1958.00	 1994.79	-1785.29	  369.62
    101.0700	 1977.00	 1961.82	-1733.32	  369.37
    101.1700	 1897.00	 1911.05	-1762.55	  369.12
    101.2700	 1894.00	 1845.36	-1699.86	  368.86
    101.3700	 1760.00	 1768.73	-1757.23	  368.61
    101.4700	 1640.00	 1685.78	-1794.28	  368.36
    101.5700	 1591.00	 1601.14	-1758.64	  368.11
    101.6700	 1465.00	 1518.94	-1802.44	  367.86
    101.7700	 1427.00	 1442.55	-1764.05	  367.60
    101.8700	 1405.00	 1374.33	-1717.83	  367.35
    101.9700	 1383.00	 1315.73	-1681.23	  367.10
    102.0700	 1313.00	 1267.17	-1702.67	  366.84
    102.1700	 1210.00	 1228.25	-1766.75	  366.59
    102.2700	 1185.00	 1197.80	-1761.30	  366.33
    102.3700	 1161.00	 1173.93	-1761.43	  366.08
    102.4700	 1186.00	 1154.32	-1716.82	  365.82
    102.5700	 1065.00	 1136.40	-1819.90	  365.57
    102.6700	 1138.00	 1117.69	-1728.19	  365.31
    102.7700	 1078.00	 1096.13	-1766.63	  365.06
    102.8700	 1081.00	 1070.37	-1737.87	  364.80
    102.9700	 1015.00	 1039.91	-1773.41	  364.55
    103.0700	  967.00	 1005.02	-1786.52	  364.29
    103.1700	  946.00	  966.54	-1769.04	  364.04
    103.2700	  881.00	  925.62	-1793.12	  363.78
    103.3700	  886.00	  883.50	-1746.00	  363.53
    103.4700	  876.00	  841.42	-1713.92	  363.27
    103.5700	  862.00	  800.48	-1686.98	  363.02
    103.6700	  806.00	  761.60	-1704.10	  362.76
    103.7700	  691.00	  725.51	-1783.01	  362.50
    103.8700	  675.00	  692.76	-1766.26	  362.25
    103.9700	  684.00	  663.66	-1728.16	  361.99
    104.0700	  656.00	  638.34	-1730.84	  361.74
    104.1700	  635.00	  616.75	-1730.25	  361.49
    104.2700	  563.00	  598.71	-1784.21	  361.23
    104.3700	  557.00	  583.94	-1775.44	  360.98
    104.4700	  620.00	  572.10	-1700.60	  360.72
    104.5700	  569.00	  562.82	-1742.32	  360.47
    104.6700	  558.00	  555.72	-1746.22	  360.22
    104.7700	  560.00	  550.45	-1738.95	  359.96
    104.8700	  561.00	  546.70	-1734.20	  359.71
    104.9700	  559.00	  544.19	-1733.69	  359.46
    105.0700	  564.00	  542.71	-1727.21	  359.21
    105.1700	  551.00	  542.06	-1739.56	  358.96
    105.2700	  542.00	  542.13	-1748.63	  358.70
    105.3700	  498.00	  542.83	-1793.33	  358.45
    105.4700	  566.00	  544.11	-1726.61	  358.20
    105.5700	  554.00	  545.95	-1740.45	  357.95
    105.6700	  568.00	  548.35	-1728.85	  357.71
    105.7700	  583.00	  551.39	-1716.89	  357.46
    105.8700	  543.00	  555.12	-1760.62	  357.21
    105.9700	  559.00	  559.62	-1749.12	  356.96
    106.0700	  569.00	  564.94	-1744.44	  356.72
    106.1700	  546.00	  571.11	-1773.61	  356.47
    106.2700	  595.00	  578.18	-1731.68	  356.23
    106.3700	  547.00	  586.10	-1787.60	  355.98
    106.4700	  650.00	  594.78	-1693.28	  355.74
    106.5700	  606.00	  604.08	-1746.58	  355.50
    106.6700	  610.00	  613.80	-1752.30	  355.26
    106.7700	  597.00	  623.70	-1775.20	  355.02
    106.8700	  633.00	  633.50	-1749.00	  354.78
    106.9700	  654.00	  642.86	-1737.36	  354.54
    107.0700	  608.00	  651.45	-1791.95	  354.30
    107.1700	  662.00	  658.94	-1745.44	  354.06
    107.2700	  682.00	  665.07	-1731.57	  353.83
    107.3700	  617.00	  669.66	-1801.16	  353.59
    107.4700	  691.00	  672.69	-1730.19	  353.36
    107.5700	  645.00	  674.31	-1777.81	  353.13
    107.6700	  675.00	  674.77	-1748.27	  352.90
    107.7700	  676.00	  674.45	-1746.95	  352.66
    107.8700	  663.00	  673.73	-1759.23	  352.44
    107.9700	  665.00	  672.99	-1756.49	  352.21
    108.0700	  682.00	  672.53	-1739.03	  351.98
    108.1700	  663.00	  672.58	-1758.08	  351.76
    108.2700	  647.00	  673.27	-1774.77	  351.53
    108.3700	  646.00	  674.61	-1777.11	  351.31
    108.4700	  655.00	  676.50	-1770.00	  351.09
    108.5700	  692.00	  678.76	-1735.26	  350.87
    108.6700	  710.00	  681.09	-1719.59	  350.65
    108.7700	  691.00	  683.14	-1740.64	  350.43
    108.8700	  702.00	  684.48	-1730.98	  350.22
    108.9700	  681.00	  684.71	-1752.21	  350.01
    109.0700	  672.00	  683.48	-1759.98	  349.79
    109.1700	  672.00	  680.54	-1757.04	  349.58
    109.2700	  700.00	  675.79	-1724.29	  349.37
    109.3700	  626.00	  669.29	-1791.79	  349.17
    109.4700	  704.00	  661.24	-1705.74	  348.96
    109.5700	  630.00	  651.90	-1770.40	  348.76
    109.6700	  639.00	  641.65	-1751.15	  348.56
    109.7700	  636.00	  630.83	-1743.33	  348.36
    109.8700	  613.00	  619.78	-1755.28	  348.16
    109.9700	  635.00	  608.82	-1722.32	  347.96
    110.0700	  593.00	  598.22	-1753.72	  347.77
    110.1700	  606.00	  588.22	-1730.72	  347.58
    110.2700	  544.00	  578.99	-1783.49	  347.39
    110.3700	  593.00	  570.67	-1726.17	  347.20
    110.4700	  554.00	  563.35	-1757.85	  347.01
    110.5700	  571.00	  557.06	-1734.56	  346.83
    110.6700	  606.00	  551.81	-1694.31	  346.65
    110.7700	  592.00	  547.57	-1704.07	  346.47
    110.8700	  617.00	  544.28	-1675.78	  346.29
    110.9700	  528.00	  541.88	-1762.38	  346.11
    111.0700	  547.00	  540.27	-1741.77	  345.94
    111.1700	  544.00	  539.38	-1743.88	  345.77
    111.2700	  535.00	  539.10	-1752.60	  345.60
    111.3700	  601.00	  539.35	-1686.85	  345.44
    111.4700	  540.00	  540.06	-1748.56	  345.27
    111.5700	  527.00	  541.16	-1762.66	  345.11
    111.6700	  603.00	  542.58	-1688.08	  344.96
    111.7700	  533.00	  544.27	-1759.77	  344.80
    111.8700	  563.00	  546.20	-1731.70	  344.65
    111.9700	  542.00	  548.35	-1754.85	  344.50
    112.0700	  560.00	  550.69	-1739.19	  344.35
    112.1700	  555.00	  553.22	-1746.72	  344.20
    112.2700	  557.00	  555.95	-1747.45	  344.06
    112.3700	  575.00	  558.90	-1732.40	  343.92
    112.4700	  545.00	  562.10	-1765.60	  343.79
    112.5700	  562.00	  565.59	-1752.09	  343.65
    112.6700	  572.00	  569.42	-1745.92	  343.52
    112.7700	  551.00	  573.66	-1771.16	  343.39
    112.8700	  585.00	  578.40	-1741.90	  343.27
    112.9700	  565.00	  583.73	-1767.23	  343.15
    113.0700	  571.00	  589.81	-1767.31	  343.03
    113.1700	  590.00	  596.80	-1755.30	  342.91
    113.2700	  651.00	  604.95	-1702.45	  342.80
    113.3700	  594.00	  614.53	-1769.03	  342.69
    113.4700	  623.00	  625.93	-1751.43	  342.59
    113.5700	  697.00	  639.62	-1691.12	  342.49
    113.6700	  669.00	  656.20	-1735.70	  342.39
    113.7700	  696.00	  676.39	-1728.89	  342.29
    113.8700	  752.00	  701.11	-1697.61	  342.20
    113.9700	  766.00	  731.41	-1713.91	  342.11
    114.0700	  760.00	  768.59	-1757.09	  342.02
    114.1700	  837.00	  814.15	-1725.65	  341.94
    114.2700	  921.00	  869.77	-1697.27	  341.87
    114.3700	 1001.00	  937.35	-1684.85	  341.79
    114.4700	 1028.00	 1018.99	-1739.49	  341.72
    114.5700	 1145.00	 1116.88	-1720.38	  341.65
    114.6700	 1239.00	 1233.35	-1742.85	  341.59
    114.7700	 1451.00	 1370.64	-1668.14	  341.53
    114.8700	 1594.00	 1530.89	-1685.39	  341.48
    114.9700	 1801.00	 1716.00	-1663.50	  341.43
    115.0700	 2046.00	 1927.51	-1630.01	  341.38
    115.1700	 2261.00	 2166.44	-1653.94	  341.33
    115.2700	 2536.00	 2433.06	-1645.56	  341.30
    115.3700	 2784.00	 2726.85	-1691.35	  341.26
    115.4700	 3189.00	 3046.27	-1605.77	  341.23
    115.5700	 3308.00	 3388.81	-1829.31	  341.20
    115.6700	 3809.00	 3750.81	-1690.31	  341.18
    115.7700	 4163.00	 4127.32	-1712.82	  341.16
    115.8700	 4441.00	 4512.24	-1819.74	  341.15
    115.9700	 4759.00	 4898.23	-1887.73	  341.14
    116.0700	 5178.00	 5276.97	-1847.47	  341.14
    116.1700	 5454.00	 5639.15	-1933.65	  341.14
    116.2700	 5894.00	 5974.58	-1829.08	  341.14
    116.3700	 6129.00	 6272.68	-1892.18	  341.15
    116.4700	 6671.00	 6522.93	-1600.43	  341.16
    116.5700	 6770.00	 6715.66	-1694.16	  341.18
    116.6700	 6550.00	 6842.78	-2041.28	  341.20
    116.7700	 6994.00	 6898.67	-1653.17	  341.23
    116.8700	 6754.00	 6880.93	-1875.43	  341.26
    116.9700	 6761.00	 6790.74	-1778.24	  341.30
    117.0700	 6629.00	 6632.58	-1752.08	  341.34
    117.1700	 6363.00	 6413.70	-1799.20	  341.39
    117.2700	 6111.00	 6143.32	-1780.82	  341.45
    117.3700	 5691.00	 5831.64	-1889.14	  341.50
    117.4700	 5315.00	 5489.26	-1922.76	  341.57
    117.5700	 5022.00	 5126.31	-1852.81	  341.63
    117.6700	 4716.00	 4752.26	-1784.76	  341.71
    117.7700	 4466.00	 4375.75	-1658.25	  341.79
    117.8700	 4115.00	 4004.27	-1637.77	  341.87
    117.9700	 3892.00	 3644.22	-1500.72	  341.96
    118.0700	 3543.00	 3300.66	-1506.16	  342.06
    118.1700	 3039.00	 2977.50	-1687.00	  342.16
    118.2700	 2785.00	 2677.63	-1641.13	  342.26
    118.3700	 2430.00	 2402.80	-1721.30	  342.38
    118.4700	 2199.00	 2153.92	-1703.42	  342.49
    118.5700	 1921.00	 1930.95	-1758.45	  342.62
    118.6700	 1689.00	 1733.25	-1792.75	  342.75
    118.7700	 1548.00	 1559.67	-1760.17	  342.88
    118.8700	 1420.00	 1408.63	-1737.13	  343.02
    118.9700	 1203.00	 1278.30	-1823.80	  343.17
    119.0700	 1174.00	 1166.66	-1741.16	  343.32
    119.1700	 1041.00	 1071.62	-1779.12	  343.48
    119.2700	 1016.00	  991.16	-1723.66	  343.65
    119.3700	  881.00	  923.34	-1790.84	  343.82
    119.4700	  865.00	  866.38	-1749.88	  344.00
    119.5700	  811.00	  818.61	-1756.11	  344.18
    119.6700	  744.00	  778.61	-1783.11	  344.38
    119.7700	  707.00	  745.11	-1786.61	  344.57
    119.8700	  692.00	  717.04	-1773.54	  344.78
    119.9700	  680.00	  693.50	-1762.00	  344.99
    120.0700	  633.00	  673.72	-1789.22	  345.20
    120.1700	  584.00	  657.08	-1821.58	  345.43
    120.2700	  574.00	  643.08	-1817.58	  345.66
    120.3700	  639.00	  631.29	-1740.79	  345.90
    120.4700	  600.00	  621.39	-1769.89	  346.14
    120.5700	  570.00	  613.11	-1791.61	  346.39
    120.6700	  593.00	  606.24	-1761.74	  346.65
    120.7700	  630.00	  600.60	-1719.10	  346.91
    120.8700	  571.00	  596.06	-1773.56	  347.19
    120.9700	  505.00	  592.51	-1836.01	  347.47
    121.0700	  585.00	  589.85	-1753.35	  347.75
    121.1700	  561.00	  588.03	-1775.53	  348.05
    121.2700	  572.00	  586.96	-1763.46	  348.35
    121.3700	  594.00	  586.59	-1741.09	  348.66
    121.4700	  554.00	  586.88	-1781.38	  348.97
    121.5700	  577.00	  587.76	-1759.26	  349.30
    121.6700	  577.00	  589.18	-1760.68	  349.63
    121.7700	  555.00	  591.09	-1784.59	  349.97
    121.8700	  561.00	  593.41	-1780.91	  350.31
    121.9700	  584.00	  596.09	-1760.59	  350.67
    122.0700	  565.00	  599.04	-1782.54	  351.03
    122.1700	  617.00	  602.17	-1733.67	  351.40
    122.2700	  539.00	  605.42	-1814.92	  351.78
    122.3700	  660.00	  608.66	-1697.16	  352.17
    122.4700	  615.00	  611.82	-1745.32	  352.56
    122.5700	  604.00	  614.77	-1759.27	  352.96
    122.6700	  605.00	  617.43	-1760.93	  353.37
    122.7700	  623.00	  619.71	-1745.21	  353.79
    122.8700	  663.00	  621.48	-1706.98	  354.22
    122.9700	  603.00	  622.74	-1768.24	  354.66
    123.0700	  676.00	  623.42	-1695.92	  355.10
    123.1700	  647.00	  623.50	-1725.00	  355.56
    123.2700	  665.00	  622.99	-1706.49	  356.02
    123.3700	  649.00	  621.91	-1721.41	  356.49
    123.4700	  654.00	  620.32	-1714.82	  356.97
    123.5700	  629.00	  618.26	-1737.76	  357.46
    123.6700	  660.00	  615.81	-1704.31	  357.95
    123.7700	  597.00	  613.04	-1764.54	  358.46
    123.8700	  620.00	  610.00	-1738.50	  358.98
    123.9700	  626.00	  606.80	-1729.30	  359.50
    124.0700	  608.00	  603.49	-1743.99	  360.03
    124.1700	  600.00	  600.13	-1748.63	  360.58
    124.2700	  574.00	  596.78	-1771.28	  361.13
    124.3700	  643.00	  593.49	-1698.99	  361.69
    124.4700	  611.00	  590.30	-1727.80	  362.26
    124.5700	  586.00	  587.26	-1749.76	  362.84
    124.6700	  587.00	  584.40	-1745.90	  363.43
    124.7700	  596.00	  581.73	-1734.23	  364.03
    124.8700	  603.00	  579.29	-1724.79	  364.64
    124.9700	  614.00	  478.98	-1613.48	  365.26
    125.0700	  630.00	  479.60	-1748.50	  365.89
    125.1700	  542.00	  480.24	-1748.50	  366.53
    125.2700	  575.00	  480.89	-1748.50	  367.18
    125.3700	  595.00	  481.55	-1748.50	  367.84
    125.4700	  548.00	  482.22	-1748.50	  368.51
    125.5700	  567.00	  482.90	-1748.50	  369.19
    125.6700	  582.00	  483.60	-1748.50	  369.88
    125.7700	  543.00	  484.30	-1748.50	  370.59
    125.8700	  558.00	  485.01	-1748.50	  371.30
    125.9700	  538.00	  485.73	-1748.50	  372.02
    126.0700	  572.00	  486.46	-1748.50	  372.75
    126.1700	  501.00	  487.21	-1748.50	  373.50
    126.2700	  578.00	  487.96	-1748.50	  374.25
    126.3700	  524.00	  488.73	-1748.50	  375.02
    126.4700	  561.00	  489.50	-1748.50	  375.79
    126.5700	  576.00	  490.29	-1748.50	  376.58
    126.6700	  553.00	  491.09	-1748.50	  377.38
    126.7700	  603.00	  491.90	-1748.50	  378.19
    126.8700	  612.00	  492.72	-1748.50	  379.01
    126.9700	  566.00	  493.55	-1748.50	  379.84
    127.0700	  564.00	  494.40	-1748.50	  380.69
    127.1700	  624.00	  495.25	-1748.50	  381.54
    127.2700	  678.00	  496.12	-1748.50	  382.41
    127.3700	  598.00	  497.00	-1748.50	  383.29
    127.4700	  653.00	  497.89	-1748.50	  384.18
    127.5700	  681.00	  498.79	-1748.50	  385.08
    127.6700	  699.00	  499.70	-1748.50	  385.99
    127.7700	  627.00	  500.63	-1748.50	  386.92
    127.8700	  726.00	  501.57	-1748.50	  387.86
    127.9700	  731.00	  502.52	-1748.50	  388.81
    128.0700	  752.00	  503.48	-1748.50	  389.77
    128.1700	  709.00	  504.46	-1748.50	  390.75
    128.2700	  700.00	  505.44	-1748.50	  391.73
    128.3700	  816.00	  506.44	-1748.50	  392.73
    128.4700	  753.00	  507.46	-1748.50	  393.74
    128.5700	    0.00	  508.48	-1748.50	  394.77
    128.6700	    0.00	  509.52	-1748.50	  395.81
     12.3112	        	        	        	        	       0	(  0  0  2)	  0  1
     24.9028	        	        	        	        	       0	(  0  0  4)	  0  1
     28.3497	        	        	        	        	       0	(  1  0  0)	  0  1
     29.0473	        	        	        	        	       0	(  1  0  1)	  0  1
     31.0548	        	        	        	        	       0	(  1  0  2)	  0  1
     34.1651	        	        	        	        	       0	(  1  0  3)	  0  1
     37.8110	        	        	        	        	       0	(  0  0  6)	  0  1
     38.1448	        	        	        	        	       0	(  1  0  4)	  0  1
     42.7981	        	        	        	        	       0	(  1  0  5)	  0  1
     47.9859	        	        	        	        	       0	(  1  0  6)	  0  1
     50.3052	        	        	        	        	       0	(  1  1  0)	  0  1
     51.2426	        	        	        	        	       0	(  0  0  8)	  0  1
     52.0295	        	        	        	        	       0	(  1  1  2)	  0  1
     53.6206	        	        	        	        	       0	(  1  0  7)	  0  1
     56.9811	        	        	        	        	       0	(  1  1  4)	  0  1
     58.8102	        	        	        	        	       0	(  2  0  0)	  0  1
     59.2021	        	        	        	        	       0	(  2  0  1)	  0  1
     59.6558	        	        	        	        	       0	(  1  0  8)	  0  1
     60.3684	        	        	        	        	       0	(  2  0  2)	  0  1
     62.2832	        	        	        	        	       0	(  2  0  3)	  0  1
     64.6820	        	        	        	        	       0	(  1  1  6)	  0  1
     64.9095	        	        	        	        	       0	(  2  0  4)	  0  1
     65.4834	        	        	        	        	       0	(  0  0 10)	  0  1
     66.0775	        	        	        	        	       0	(  1  0  9)	  0  1
     68.2066	        	        	        	        	       0	(  2  0  5)	  0  1
     72.1377	        	        	        	        	       0	(  2  0  6)	  0  1
     72.8999	        	        	        	        	       0	(  1  0 10)	  0  1
     74.7289	        	        	        	        	       0	(  1  1  8)	  0  1
     76.6762	        	        	        	        	       0	(  2  0  7)	  0  1
     80.1648	        	        	        	        	       0	(  1  0 11)	  0  1
     80.9787	        	        	        	        	       0	(  0  0 12)	  0  1
     81.0764	        	        	        	        	       0	(  2  1  0)	  0  1
     81.4166	        	        	        	        	       0	(  2  1  1)	  0  1
     81.8119	        	        	        	        	       0	(  2  0  8)	  0  1
     82.4356	        	        	        	        	       0	(  2  1  2)	  0  1
     84.1288	        	        	        	        	       0	(  2  1  3)	  0  1
     86.4912	        	        	        	        	       0	(  2  1  4)	  0  1
     87.0135	        	        	        	        	       0	(  1  1 10)	  0  1
     87.5565	        	        	        	        	       0	(  2  0  9)	  0  1
     87.9478	        	        	        	        	       0	(  1  0 12)	  0  1
     89.5207	        	        	        	        	       0	(  2  1  5)	  0  1
     93.2230	        	        	        	        	       0	(  2  1  6)	  0  1
     93.9520	        	        	        	        	       0	(  2  0 10)	  0  1
     94.9855	        	        	        	        	       0	(  3  0  0)	  0  1
     95.3233	        	        	        	        	       0	(  3  0  1)	  0  1
     96.3380	        	        	        	        	       0	(  3  0  2)	  0  1
     96.3720	        	        	        	        	       0	(  1  0 13)	  0  1
     97.6178	        	        	        	        	       0	(  2  1  7)	  0  1
     98.0338	        	        	        	        	       0	(  3  0  3)	  0  1
     98.5398	        	        	        	        	       0	(  0  0 14)	  0  1
    100.4205	        	        	        	        	       0	(  3  0  4)	  0  1
    101.0843	        	        	        	        	       0	(  2  0 11)	  0  1
    101.9043	        	        	        	        	       0	(  1  1 12)	  0  1
    102.7483	        	        	        	        	       0	(  2  1  8)	  0  1
    103.5172	        	        	        	        	       0	(  3  0  5)	  0  1
    105.6390	        	        	        	        	       0	(  1  0 14)	  0  1
    107.3592	        	        	        	        	       0	(  3  0  6)	  0  1
    108.6957	        	        	        	        	       0	(  2  1  9)	  0  1
    109.1095	        	        	        	        	       0	(  2  0 12)	  0  1
    112.0088	        	        	        	        	       0	(  3  0  7)	  0  1
    115.6072	        	        	        	        	       0	(  2  1 10)	  0  1
    116.1032	        	        	        	        	       0	(  1  0 15)	  0  1
    116.7564	        	        	        	        	       0	(  2  2  0)	  0  1
    117.5751	        	        	        	        	       0	(  3  0  8)	  0  1
    118.2754	        	        	        	        	       0	(  2  2  2)	  0  1
    118.3139	        	        	        	        	       0	(  2  0 13)	  0  1
    120.0695	        	        	        	        	       0	(  0  0 16)	  0  1
    120.7873	        	        	        	        	       0	(  1  1 14)	  0  1
    122.9741	        	        	        	        	       0	(  2  2  4)	  0  1
    123.7558	        	        	        	        	       0	(  2  1 11)	  0  1
    124.2536	        	        	        	        	       0	(  3  0  9)	  0  1
    124.8467	        	        	        	        	       0	(  3  1  0)	  0  1
    125.2583	        	        	        	        	       0	(  3  1  1)	  0  1
    126.5059	        	        	        	        	       0	(  3  1  2)	  0  1
    128.4812	        	        	        	        	       0	(  1  0 16)	  0  1
    128.6318	        	        	        	        	       0	(  3  1  3)	  0  1
    129.2767	        	        	        	        	       0	(  2  0 14)	  0  1
    131.4440	        	        	        	        	       0	(  2  2  6)	  0  1
    131.7200	        	        	        	        	       0	(  3  1  4)	  0  1
    132.4240	        	        	        	        	       0	(  3  0 10)	  0  1
    133.7045	        	        	        	        	       0	(  2  1 12)	  0  1
    135.9265	        	        	        	        	       0	(  3  1  5)	  0  1
    141.5544	        	        	        	        	       0	(  3  1  6)	  0  1
    142.9601	        	        	        	        	       0	(  3  0 11)	  0  1
    143.4886	        	        	        	        	       0	(  2  0 15)	  0  1
    144.7336	        	        	        	        	       0	(  1  0 17)	  0  1
    145.7620	        	        	        	        	       0	(  2  2  8)	  0  1
    146.9425	        	        	        	        	       0	(  2  1 13)	  0  1
    149.2917	        	        	        	        	       0	(  3  1  7)	  0  1
    149.8757	        	        	        	        	       0	(  1  1 16)	  0  1
    154.3265	        	        	        	        	       0	(  0  0 18)	  0  1
    159.0370	        	        	        	        	       0	(  3  0 12)	  0  1
    159.3103	        	        	        	        	       0	(  4  0  0)	  0  1
    160.2906	        	        	        	        	       0	(  4  0  1)	  0  1
    161.4933	        	        	        	        	       0	(  3  1  8)	  0  1
    163.5673	        	        	        	        	       0	(  4  0  2)	  0  1
    170.6564	        	        	        	        	       0	(  2  0 16)	  0  1
    171.4219	        	        	        	        	       0	(  4  0  3)	  0  1
    176.1446	        	        	        	        	       0	(  2  1 14)	  0  1
