MSG Master    CELL:    5.91955   5.91955  23.28067   90.0000   90.0000  120.0000   SPGR: P 63/m m c             TEMP:   1074.75
  1   1280     2.52000     0.00000    -0.12330     0.00000     0.00000    0
    99     0     2
       0.00000      10.00000
     125.00000     130.00000
 2Theta	Yobs	Ycal	Yobs-Ycal	Backg	Posr	(hkl)	K
      0.7700	    0.00	  530.19	-1724.75	  411.64
      0.8700	    0.00	  531.09	-1724.75	  412.54
      0.9700	   37.00	  531.97	-1724.75	  413.42
      1.0700	   44.00	  532.85	-1724.75	  414.30
      1.1700	   27.00	  533.71	-1724.75	  415.16
      1.2700	   41.00	  534.56	-1724.75	  416.02
      1.3700	   41.00	  535.40	-1724.75	  416.85
      1.4700	  100.00	  536.23	-1724.75	  417.68
      1.5700	  316.00	  537.05	-1724.75	  418.50
      1.6700	  484.00	  537.85	-1724.75	  419.30
      1.7700	  576.00	  538.64	-1724.75	  420.10
      1.8700	  639.00	  539.43	-1724.75	  420.88
      1.9700	  791.00	  540.20	-1724.75	  421.65
      2.0700	  782.00	  540.95	-1724.75	  422.41
      2.1700	  790.00	  541.70	-1724.75	  423.15
      2.2700	  784.00	  542.44	-1724.75	  423.89
      2.3700	  735.00	  543.16	-1724.75	  424.61
      2.4700	  710.00	  543.88	-1724.75	  425.33
      2.5700	  698.00	  544.58	-1724.75	  426.03
      2.6700	  654.00	  545.27	-1724.75	  426.72
      2.7700	  707.00	  545.95	-1724.75	  427.40
      2.8700	  663.00	  546.62	-1724.75	  428.07
      2.9700	  582.00	  547.28	-1724.75	  428.73
      3.0700	  600.00	  547.93	-1724.75	  429.38
      3.1700	  617.00	  548.57	-1724.75	  430.02
      3.2700	  573.00	  549.19	-1724.75	  430.65
      3.3700	  689.00	  549.81	-1724.75	  431.26
      3.4700	  775.00	  550.42	-1724.75	  431.87
      3.5700	  800.00	  551.02	-1724.75	  432.47
      3.6700	  879.00	  551.60	-1724.75	  433.05
      3.7700	  940.00	  552.18	-1724.75	  433.63
      3.8700	 1000.00	  552.75	-1724.75	  434.20
      3.9700	  997.00	  553.30	-1724.75	  434.75
      4.0700	 1058.00	  553.85	-1724.75	  435.30
      4.1700	 1059.00	  554.39	-1724.75	  435.84
      4.2700	 1106.00	  554.91	-1724.75	  436.36
      4.3700	 1072.00	  555.43	-1724.75	  436.88
      4.4700	 1086.00	  555.94	-1724.75	  437.39
      4.5700	 1052.00	  556.44	-1724.75	  437.89
      4.6700	 1063.00	  556.92	-1724.75	  438.38
      4.7700	  997.00	  557.40	-1724.75	  438.85
      4.8700	  952.00	  557.87	-1724.75	  439.32
      4.9700	  989.00	  558.33	-1724.75	  439.79
      5.0700	  938.00	  558.79	-1724.75	  440.24
      5.1700	  978.00	  559.23	-1724.75	  440.68
      5.2700	  876.00	  559.66	-1724.75	  441.11
      5.3700	  909.00	  560.09	-1724.75	  441.54
      5.4700	  898.00	  560.50	-1724.75	  441.95
      5.5700	  839.00	  560.91	-1724.75	  442.36
      5.6700	  839.00	  561.31	-1724.75	  442.76
      5.7700	  866.00	  561.69	-1724.75	  443.15
      5.8700	  838.00	  562.07	-1724.75	  443.53
      5.9700	  824.00	  562.45	-1724.75	  443.90
      6.0700	  758.00	  562.81	-1724.75	  444.26
      6.1700	  778.00	  563.16	-1724.75	  444.62
      6.2700	  769.00	  563.51	-1724.75	  444.96
      6.3700	  752.00	  563.85	-1724.75	  445.30
      6.4700	  775.00	  564.18	-1724.75	  445.63
      6.5700	  743.00	  564.50	-1724.75	  445.95
      6.6700	  757.00	  564.81	-1724.75	  446.27
      6.7700	  708.00	  565.12	-1724.75	  446.57
      6.8700	  749.00	  565.42	-1724.75	  446.87
      6.9700	  699.00	  565.71	-1724.75	  447.16
      7.0700	  654.00	  565.99	-1724.75	  447.44
      7.1700	  701.00	  566.26	-1724.75	  447.71
      7.2700	  644.00	  566.53	-1724.75	  447.98
      7.3700	  693.00	  566.79	-1724.75	  448.24
      7.4700	  679.00	  567.04	-1724.75	  448.49
      7.5700	  663.00	  567.28	-1724.75	  448.73
      7.6700	  641.00	  567.52	-1724.75	  448.97
      7.7700	  671.00	  567.75	-1724.75	  449.20
      7.8700	  631.00	  567.97	-1724.75	  449.42
      7.9700	  610.00	  568.18	-1724.75	  449.63
      8.0700	  645.00	  568.39	-1724.75	  449.84
      8.1700	  661.00	  568.59	-1724.75	  450.04
      8.2700	  602.00	  568.78	-1724.75	  450.23
      8.3700	  590.00	  568.96	-1724.75	  450.41
      8.4700	  578.00	  569.14	-1724.75	  450.59
      8.5700	  611.00	  569.31	-1724.75	  450.76
      8.6700	  612.00	  569.48	-1724.75	  450.93
      8.7700	  674.00	  569.63	-1724.75	  451.09
      8.8700	  592.00	  569.78	-1724.75	  451.24
      8.9700	  659.00	  569.93	-1724.75	  451.38
      9.0700	  617.00	  570.07	-1724.75	  451.52
      9.1700	  583.00	  570.20	-1724.75	  451.65
      9.2700	  608.00	  570.32	-1724.75	  451.77
      9.3700	  584.00	  570.44	-1724.75	  451.89
      9.4700	  607.00	  570.55	-1724.75	  452.00
      9.5700	  604.00	  570.65	-1724.75	  452.11
      9.6700	  650.00	  570.75	-1724.75	  452.20
      9.7700	  604.00	  570.84	-1724.75	  452.30
      9.8700	  609.00	  570.93	-1724.75	  452.38
      9.9700	  607.00	  571.01	-1724.75	  452.46
     10.0700	  575.00	  572.14	-1721.89	  452.54
     10.1700	  584.00	  572.33	-1713.08	  452.60
     10.2700	  610.00	  572.54	-1687.29	  452.67
     10.3700	  587.00	  572.78	-1710.53	  452.72
     10.4700	  565.00	  573.10	-1732.85	  452.77
     10.5700	  555.00	  573.55	-1743.30	  452.82
     10.6700	  537.00	  574.22	-1761.97	  452.85
     10.7700	  609.00	  575.23	-1690.98	  452.89
     10.8700	  570.00	  576.63	-1731.38	  452.92
     10.9700	  624.00	  578.44	-1679.19	  452.94
     11.0700	  546.00	  580.62	-1759.37	  452.95
     11.1700	  599.00	  583.17	-1708.92	  452.96
     11.2700	  584.00	  586.15	-1726.90	  452.97
     11.3700	  609.00	  589.63	-1705.38	  452.97
     11.4700	  616.00	  593.74	-1702.49	  452.96
     11.5700	  605.00	  598.73	-1718.48	  452.95
     11.6700	  591.00	  604.95	-1738.70	  452.94
     11.7700	  630.00	  613.01	-1707.76	  452.92
     11.8700	  632.00	  623.65	-1716.40	  452.89
     11.9700	  662.00	  637.04	-1699.79	  452.86
     12.0700	  690.00	  651.18	-1685.93	  452.82
     12.1700	  720.00	  660.39	-1665.14	  452.78
     12.2700	  673.00	  656.39	-1708.14	  452.73
     12.3700	  639.00	  637.10	-1722.85	  452.68
     12.4700	  632.00	  613.49	-1706.24	  452.63
     12.5700	  607.00	  595.41	-1713.16	  452.57
     12.6700	  619.00	  584.70	-1690.45	  452.50
     12.7700	  573.00	  579.28	-1731.03	  452.43
     12.8700	  574.00	  576.64	-1727.39	  452.36
     12.9700	  583.00	  575.18	-1716.93	  452.28
     13.0700	  575.00	  574.24	-1723.99	  452.19
     13.1700	  537.00	  573.54	-1761.29	  452.11
     13.2700	  577.00	  572.99	-1720.74	  452.01
     13.3700	  574.00	  572.55	-1723.30	  451.92
     13.4700	  555.00	  572.17	-1741.92	  451.82
     13.5700	  567.00	  571.85	-1729.60	  451.71
     13.6700	  529.00	  571.56	-1767.31	  451.60
     13.7700	  561.00	  571.30	-1735.05	  451.49
     13.8700	  589.00	  571.06	-1706.81	  451.37
     13.9700	  579.00	  570.83	-1716.58	  451.25
     14.0700	  504.00	  570.62	-1791.37	  451.12
     14.1700	  588.00	  570.41	-1707.16	  450.99
     14.2700	  560.00	  570.21	-1734.96	  450.86
     14.3700	  606.00	  570.02	-1688.77	  450.72
     14.4700	  560.00	  569.83	-1734.58	  450.58
     14.5700	  539.00	  569.64	-1755.39	  450.43
     14.6700	  557.00	  569.45	-1737.20	  450.28
     14.7700	  581.00	  569.26	-1713.01	  450.13
     14.8700	  568.00	  569.08	-1725.83	  449.97
     14.9700	  557.00	  568.89	-1736.64	  449.81
     15.0700	  557.00	  568.70	-1736.45	  449.65
     15.1700	  569.00	  568.51	-1724.26	  449.48
     15.2700	  544.00	  568.32	-1749.07	  449.31
     15.3700	  519.00	  568.13	-1773.88	  449.14
     15.4700	  598.00	  567.96	-1694.71	  448.96
     15.5700	  616.00	  567.77	-1676.52	  448.78
     15.6700	  551.00	  567.57	-1741.32	  448.59
     15.7700	  527.00	  567.37	-1765.12	  448.41
     15.8700	  564.00	  567.17	-1727.92	  448.21
     15.9700	  562.00	  566.96	-1729.71	  448.02
     16.0700	  569.00	  566.75	-1722.50	  447.82
     16.1700	  577.00	  566.55	-1714.30	  447.62
     16.2700	  562.00	  566.33	-1729.08	  447.42
     16.3700	  511.00	  566.12	-1779.87	  447.21
     16.4700	  571.00	  565.90	-1719.65	  447.00
     16.5700	  550.00	  565.69	-1740.44	  446.79
     16.6700	  587.00	  565.47	-1703.22	  446.58
     16.7700	  566.00	  565.24	-1723.99	  446.36
     16.8700	  555.00	  565.02	-1734.77	  446.14
     16.9700	  526.00	  564.79	-1763.54	  445.91
     17.0700	  565.00	  564.56	-1724.31	  445.69
     17.1700	  517.00	  564.33	-1772.08	  445.46
     17.2700	  546.00	  564.09	-1742.84	  445.23
     17.3700	  596.00	  563.85	-1692.60	  444.99
     17.4700	  575.00	  563.61	-1713.36	  444.76
     17.5700	  590.00	  563.37	-1698.12	  444.52
     17.6700	  526.00	  563.13	-1761.88	  444.27
     17.7700	  603.00	  562.88	-1684.63	  444.03
     17.8700	  562.00	  562.63	-1725.38	  443.78
     17.9700	  559.00	  562.38	-1728.13	  443.53
     18.0700	  555.00	  562.24	-1731.99	  443.28
     18.1700	  541.00	  561.99	-1745.74	  443.03
     18.2700	  600.00	  561.73	-1686.48	  442.77
     18.3700	  526.00	  561.47	-1760.22	  442.51
     18.4700	  589.00	  561.22	-1696.97	  442.25
     18.5700	  503.00	  560.95	-1782.70	  441.99
     18.6700	  593.00	  560.69	-1692.44	  441.73
     18.7700	  575.00	  560.50	-1710.25	  441.46
     18.8700	  556.00	  560.24	-1728.99	  441.19
     18.9700	  554.00	  559.97	-1730.72	  440.92
     19.0700	  579.00	  559.70	-1705.45	  440.65
     19.1700	  552.00	  559.44	-1732.19	  440.37
     19.2700	  542.00	  559.16	-1741.91	  440.09
     19.3700	  510.00	  558.89	-1773.64	  439.82
     19.4700	  553.00	  558.62	-1730.37	  439.54
     19.5700	  567.00	  558.34	-1716.09	  439.25
     19.6700	  535.00	  558.07	-1747.82	  438.97
     19.7700	  580.00	  557.79	-1702.54	  438.68
     19.8700	  580.00	  557.51	-1702.26	  438.40
     19.9700	  551.00	  557.23	-1730.98	  438.11
     20.0700	  514.00	  556.95	-1767.70	  437.82
     20.1700	  558.00	  556.67	-1723.42	  437.52
     20.2700	  544.00	  556.38	-1737.13	  437.23
     20.3700	  524.00	  556.10	-1756.85	  436.94
     20.4700	  559.00	  555.82	-1721.57	  436.64
     20.5700	  584.00	  555.53	-1696.28	  436.34
     20.6700	  533.00	  555.27	-1747.02	  436.04
     20.7700	  548.00	  554.99	-1731.74	  435.74
     20.8700	  526.00	  554.66	-1753.41	  435.44
     20.9700	  555.00	  554.38	-1724.13	  435.13
     21.0700	  518.00	  554.09	-1760.84	  434.83
     21.1700	  560.00	  553.80	-1718.55	  434.52
     21.2700	  568.00	  553.52	-1710.27	  434.21
     21.3700	  574.00	  553.23	-1703.98	  433.90
     21.4700	  557.00	  552.95	-1720.70	  433.59
     21.5700	  568.00	  552.66	-1709.41	  433.28
     21.6700	  587.00	  552.38	-1690.13	  432.97
     21.7700	  585.00	  552.09	-1691.84	  432.66
     21.8700	  563.00	  551.81	-1713.56	  432.34
     21.9700	  545.00	  551.53	-1731.28	  432.03
     22.0700	  514.00	  551.25	-1762.00	  431.71
     22.1700	  538.00	  550.98	-1737.73	  431.39
     22.2700	  529.00	  550.70	-1746.45	  431.08
     22.3700	  529.00	  550.43	-1746.18	  430.76
     22.4700	  550.00	  550.17	-1724.92	  430.44
     22.5700	  526.00	  549.91	-1748.66	  430.12
     22.6700	  527.00	  549.66	-1747.41	  429.79
     22.7700	  590.00	  549.41	-1684.16	  429.47
     22.8700	  544.00	  549.17	-1729.92	  429.15
     22.9700	  527.00	  548.95	-1746.70	  428.82
     23.0700	  537.00	  548.74	-1736.49	  428.50
     23.1700	  537.00	  548.55	-1736.30	  428.17
     23.2700	  537.00	  548.38	-1736.13	  427.85
     23.3700	  567.00	  548.38	-1706.13	  427.52
     23.4700	  541.00	  548.28	-1732.03	  427.20
     23.5700	  558.00	  548.25	-1715.00	  426.87
     23.6700	  538.00	  548.29	-1735.04	  426.54
     23.7700	  542.00	  548.47	-1731.22	  426.21
     23.8700	  547.00	  548.90	-1726.65	  425.88
     23.9700	  554.00	  549.80	-1720.55	  425.55
     24.0700	  549.00	  551.56	-1727.31	  425.22
     24.1700	  549.00	  554.77	-1730.52	  424.89
     24.2700	  547.00	  560.16	-1737.91	  424.56
     24.3700	  591.00	  568.51	-1702.26	  424.23
     24.4700	  628.00	  580.44	-1677.19	  423.90
     24.5700	  652.00	  595.60	-1668.35	  423.57
     24.6700	  646.00	  611.22	-1689.97	  423.23
     24.7700	  579.00	  621.06	-1766.81	  422.90
     24.8700	  635.00	  617.43	-1707.18	  422.57
     24.9700	  571.00	  600.19	-1753.94	  422.24
     25.0700	  643.00	  579.68	-1661.43	  421.90
     25.1700	  578.00	  563.79	-1710.54	  421.57
     25.2700	  604.00	  554.11	-1674.86	  421.24
     25.3700	  589.00	  549.03	-1684.78	  420.90
     25.4700	  531.00	  546.49	-1740.24	  420.57
     25.5700	  529.00	  545.09	-1740.84	  420.24
     25.6700	  533.00	  544.18	-1735.93	  419.90
     25.7700	  530.00	  543.52	-1738.27	  419.57
     25.8700	  505.00	  543.02	-1762.77	  419.23
     25.9700	  540.00	  542.64	-1727.39	  418.90
     26.0700	  562.00	  542.36	-1705.11	  418.57
     26.1700	  551.00	  542.16	-1715.91	  418.23
     26.2700	  520.00	  542.04	-1746.79	  417.90
     26.3700	  568.00	  542.01	-1698.76	  417.57
     26.4700	  571.00	  542.06	-1695.81	  417.24
     26.5700	  532.00	  542.21	-1734.96	  416.90
     26.6700	  545.00	  542.48	-1722.23	  416.57
     26.7700	  546.00	  542.89	-1721.64	  416.24
     26.8700	  561.00	  543.48	-1707.23	  415.91
     26.9700	  549.00	  544.29	-1720.04	  415.57
     27.0700	  569.00	  545.42	-1701.17	  415.24
     27.1700	  508.00	  546.99	-1763.74	  414.91
     27.2700	  592.00	  549.26	-1682.01	  414.58
     27.3700	  553.00	  552.76	-1724.51	  414.25
     27.4700	  557.00	  558.51	-1726.26	  413.92
     27.5700	  510.00	  568.37	-1783.12	  413.59
     27.6700	  598.00	  585.29	-1712.04	  413.26
     27.7700	  603.00	  613.10	-1734.85	  412.93
     27.8700	  600.00	  655.19	-1779.94	  412.60
     27.9700	  670.00	  711.83	-1766.58	  412.27
     28.0700	  753.00	  776.53	-1748.28	  411.95
     28.1700	  888.00	  832.91	-1669.66	  411.62
     28.2700	  949.00	  856.03	-1631.78	  411.29
     28.3700	  952.00	  830.63	-1603.38	  410.97
     28.4700	  799.00	  779.02	-1704.77	  410.64
     28.5700	  677.00	  738.94	-1786.69	  410.32
     28.6700	  683.00	  727.84	-1769.59	  409.99
     28.7700	  717.00	  741.83	-1749.58	  409.67
     28.8700	  784.00	  762.66	-1703.41	  409.34
     28.9700	  809.00	  765.10	-1680.85	  409.02
     29.0700	  779.00	  733.05	-1678.80	  408.70
     29.1700	  649.00	  679.13	-1754.88	  408.38
     29.2700	  613.00	  627.51	-1739.26	  408.06
     29.3700	  600.00	  589.93	-1714.68	  407.74
     29.4700	  624.00	  566.89	-1667.64	  407.42
     29.5700	  576.00	  554.22	-1702.97	  407.10
     29.6700	  599.00	  547.42	-1673.17	  406.78
     29.7700	  569.00	  543.51	-1699.26	  406.47
     29.8700	  537.00	  541.05	-1728.80	  406.15
     29.9700	  555.00	  539.48	-1709.23	  405.84
     30.0700	  563.00	  538.64	-1700.39	  405.52
     30.1700	  583.00	  538.68	-1680.44	  405.21
     30.2700	  621.00	  540.06	-1643.81	  404.90
     30.3700	  535.00	  543.64	-1733.39	  404.58
     30.4700	  596.00	  550.72	-1679.47	  404.27
     30.5700	  592.00	  562.62	-1695.37	  403.96
     30.6700	  597.00	  579.49	-1707.24	  403.66
     30.7700	  545.00	  599.19	-1778.94	  403.35
     30.8700	  637.00	  616.13	-1703.88	  403.04
     30.9700	  576.00	  621.93	-1770.68	  402.73
     31.0700	  621.00	  610.97	-1714.72	  402.43
     31.1700	  641.00	  588.84	-1672.59	  402.13
     31.2700	  604.00	  566.45	-1687.20	  401.82
     31.3700	  576.00	  549.63	-1698.38	  401.52
     31.4700	  554.00	  539.13	-1709.88	  401.22
     31.5700	  528.00	  533.33	-1730.08	  400.92
     31.6700	  526.00	  530.26	-1729.01	  400.62
     31.7700	  510.00	  528.54	-1743.29	  400.32
     31.8700	  558.00	  527.46	-1694.21	  400.03
     31.9700	  538.00	  526.72	-1713.47	  399.73
     32.0700	  514.00	  526.20	-1736.95	  399.44
     32.1700	  572.00	  525.87	-1678.62	  399.14
     32.2700	  523.00	  525.69	-1727.44	  398.85
     32.3700	  573.00	  525.66	-1677.41	  398.56
     32.4700	  541.00	  525.80	-1709.55	  398.27
     32.5700	  547.00	  526.12	-1703.87	  397.98
     32.6700	  531.00	  526.65	-1720.40	  397.70
     32.7700	  563.00	  527.44	-1689.19	  397.41
     32.8700	  551.00	  528.58	-1702.33	  397.12
     32.9700	  594.00	  530.18	-1660.93	  396.84
     33.0700	  576.00	  532.51	-1681.26	  396.56
     33.1700	  522.00	  536.06	-1738.81	  396.28
     33.2700	  527.00	  541.98	-1739.73	  396.00
     33.3700	  550.00	  552.62	-1727.37	  395.72
     33.4700	  551.00	  572.25	-1746.00	  395.44
     33.5700	  572.00	  607.31	-1760.06	  395.17
     33.6700	  662.00	  664.67	-1727.42	  394.89
     33.7700	  728.00	  746.47	-1743.22	  394.62
     33.8700	  860.00	  843.20	-1707.95	  394.35
     33.9700	  996.00	  929.10	-1657.85	  394.08
     34.0700	 1015.00	  965.67	-1675.42	  393.81
     34.1700	 1028.00	  925.43	-1622.18	  393.54
     34.2700	  887.00	  828.88	-1666.63	  393.27
     34.3700	  751.00	  724.44	-1698.19	  393.01
     34.4700	  653.00	  642.04	-1713.79	  392.74
     34.5700	  579.00	  588.52	-1734.27	  392.48
     34.6700	  577.00	  558.26	-1706.01	  392.22
     34.7700	  559.00	  542.36	-1708.11	  391.96
     34.8700	  519.00	  533.82	-1739.57	  391.70
     34.9700	  550.00	  528.69	-1703.44	  391.45
     35.0700	  528.00	  525.17	-1721.92	  391.19
     35.1700	  490.00	  522.52	-1757.27	  390.94
     35.2700	  515.00	  520.43	-1730.18	  390.68
     35.3700	  448.00	  518.73	-1795.48	  390.43
     35.4700	  521.00	  517.32	-1721.07	  390.18
     35.5700	  518.00	  516.13	-1722.88	  389.94
     35.6700	  551.00	  515.10	-1688.85	  389.69
     35.7700	  490.00	  514.21	-1748.96	  389.45
     35.8700	  580.00	  513.43	-1658.18	  389.20
     35.9700	  524.00	  512.74	-1713.49	  388.96
     36.0700	  524.00	  512.58	-1713.33	  388.72
     36.1700	  520.00	  512.03	-1716.78	  388.48
     36.2700	  535.00	  511.53	-1701.28	  388.25
     36.3700	  473.00	  511.08	-1762.83	  388.01
     36.4700	  503.00	  510.67	-1732.42	  387.78
     36.5700	  530.00	  510.31	-1705.06	  387.54
     36.6700	  460.00	  510.00	-1774.75	  387.31
     36.7700	  538.00	  509.74	-1696.49	  387.08
     36.8700	  518.00	  509.58	-1716.33	  386.86
     36.9700	  488.00	  509.57	-1746.32	  386.63
     37.0700	  483.00	  509.86	-1751.61	  386.41
     37.1700	  518.00	  510.69	-1717.44	  386.18
     37.2700	  514.00	  512.37	-1723.12	  385.96
     37.3700	  500.00	  515.09	-1739.84	  385.74
     37.4700	  479.00	  518.73	-1764.48	  385.53
     37.5700	  536.00	  522.56	-1711.31	  385.31
     37.6700	  474.00	  525.23	-1775.98	  385.10
     37.7700	  480.00	  525.36	-1770.11	  384.88
     37.8700	  543.00	  522.84	-1704.59	  384.67
     37.9700	  500.00	  519.07	-1743.82	  384.46
     38.0700	  526.00	  515.29	-1714.04	  384.25
     38.1700	  498.00	  512.00	-1738.75	  384.05
     38.2700	  514.00	  509.41	-1720.16	  383.84
     38.3700	  449.00	  507.54	-1783.29	  383.64
     38.4700	  488.00	  506.27	-1743.02	  383.44
     38.5700	  537.00	  505.42	-1693.17	  383.24
     38.6700	  484.00	  504.74	-1745.49	  383.04
     38.7700	  506.00	  504.32	-1723.07	  382.85
     38.8700	  524.00	  503.98	-1704.73	  382.65
     38.9700	  504.00	  503.85	-1724.60	  382.46
     39.0700	  524.00	  503.60	-1704.35	  382.27
     39.1700	  500.00	  503.29	-1728.04	  382.08
     39.2700	  500.00	  503.08	-1727.83	  381.89
     39.3700	  553.00	  502.89	-1674.64	  381.71
     39.4700	  527.00	  502.70	-1700.45	  381.52
     39.5700	  532.00	  502.53	-1695.28	  381.34
     39.6700	  488.00	  502.37	-1739.12	  381.16
     39.7700	  506.00	  502.22	-1720.97	  380.98
     39.8700	  536.00	  502.08	-1690.83	  380.80
     39.9700	  479.00	  501.95	-1747.70	  380.63
     40.0700	  536.00	  501.84	-1690.59	  380.45
     40.1700	  561.00	  501.73	-1665.48	  380.28
     40.2700	  537.00	  501.64	-1689.39	  380.11
     40.3700	  505.00	  501.56	-1721.31	  379.94
     40.4700	  505.00	  501.50	-1721.25	  379.78
     40.5700	  487.00	  501.46	-1739.21	  379.61
     40.6700	  515.00	  501.43	-1711.18	  379.45
     40.7700	  481.00	  501.43	-1745.18	  379.29
     40.8700	  516.00	  501.46	-1710.21	  379.13
     40.9700	  497.00	  501.53	-1729.28	  378.97
     41.0700	  488.00	  501.63	-1738.38	  378.81
     41.1700	  462.00	  501.78	-1764.53	  378.66
     41.2700	  480.00	  502.43	-1747.18	  378.51
     41.3700	  507.00	  502.73	-1720.48	  378.36
     41.4700	  476.00	  503.15	-1751.90	  378.21
     41.5700	  492.00	  503.72	-1736.47	  378.06
     41.6700	  453.00	  504.52	-1776.27	  377.91
     41.7700	  504.00	  505.74	-1726.49	  377.77
     41.8700	  457.00	  507.77	-1775.52	  377.63
     41.9700	  527.00	  511.43	-1709.18	  377.49
     42.0700	  519.00	  518.19	-1723.94	  377.35
     42.1700	  526.00	  530.17	-1728.92	  377.21
     42.2700	  547.00	  549.57	-1727.32	  377.08
     42.3700	  559.00	  577.34	-1743.09	  376.95
     42.4700	  543.00	  610.91	-1792.66	  376.82
     42.5700	  604.00	  642.98	-1763.73	  376.69
     42.6700	  634.00	  662.03	-1752.78	  376.56
     42.7700	  631.00	  658.19	-1751.94	  376.43
     42.8700	  622.00	  632.66	-1735.41	  376.31
     42.9700	  588.00	  597.77	-1734.52	  376.19
     43.0700	  532.00	  565.00	-1757.75	  376.07
     43.1700	  522.00	  539.93	-1742.68	  375.95
     43.2700	  518.00	  523.45	-1730.20	  375.83
     43.3700	  530.00	  513.79	-1708.54	  375.71
     43.4700	  476.00	  508.56	-1757.31	  375.60
     43.5700	  492.00	  505.69	-1738.44	  375.49
     43.6700	  535.00	  504.19	-1693.94	  375.38
     43.7700	  549.00	  503.09	-1678.84	  375.27
     43.8700	  477.00	  502.29	-1750.04	  375.17
     43.9700	  517.00	  501.68	-1709.43	  375.06
     44.0700	  507.00	  501.20	-1718.95	  374.96
     44.1700	  511.00	  500.82	-1714.57	  374.86
     44.2700	  530.00	  500.52	-1695.27	  374.76
     44.3700	  480.00	  500.28	-1745.03	  374.66
     44.4700	  506.00	  500.09	-1718.84	  374.57
     44.5700	  524.00	  499.95	-1700.70	  374.47
     44.6700	  516.00	  499.71	-1708.46	  374.38
     44.7700	  529.00	  499.64	-1695.39	  374.29
     44.8700	  492.00	  499.60	-1732.35	  374.20
     44.9700	  515.00	  499.58	-1709.33	  374.11
     45.0700	  483.00	  499.79	-1741.54	  374.03
     45.1700	  500.00	  499.83	-1724.58	  373.95
     45.2700	  494.00	  499.89	-1730.64	  373.86
     45.3700	  538.00	  499.98	-1686.73	  373.78
     45.4700	  507.00	  500.10	-1717.85	  373.71
     45.5700	  517.00	  500.24	-1707.99	  373.63
     45.6700	  494.00	  500.40	-1731.15	  373.56
     45.7700	  505.00	  500.60	-1720.35	  373.48
     45.8700	  570.00	  500.83	-1655.58	  373.41
     45.9700	  478.00	  501.09	-1747.84	  373.34
     46.0700	  463.00	  501.39	-1763.14	  373.27
     46.1700	  485.00	  501.74	-1741.49	  373.21
     46.2700	  449.00	  502.13	-1777.88	  373.14
     46.3700	  467.00	  502.58	-1760.33	  373.08
     46.4700	  480.00	  503.10	-1747.85	  373.02
     46.5700	  505.00	  503.70	-1723.45	  372.96
     46.6700	  532.00	  504.40	-1697.15	  372.91
     46.7700	  491.00	  505.25	-1739.00	  372.85
     46.8700	  545.00	  506.36	-1686.11	  372.80
     46.9700	  499.00	  507.84	-1733.59	  372.74
     47.0700	  519.00	  509.99	-1715.74	  372.69
     47.1700	  511.00	  513.46	-1727.21	  372.64
     47.2700	  545.00	  519.16	-1698.91	  372.60
     47.3700	  541.00	  528.21	-1711.96	  372.55
     47.4700	  536.00	  541.52	-1730.27	  372.51
     47.5700	  559.00	  558.90	-1724.65	  372.47
     47.6700	  554.00	  578.49	-1749.24	  372.43
     47.7700	  617.00	  596.10	-1703.85	  372.39
     47.8700	  602.00	  606.02	-1728.77	  372.35
     47.9700	  601.00	  604.15	-1727.90	  372.32
     48.0700	  607.00	  592.01	-1709.76	  372.28
     48.1700	  543.00	  575.46	-1757.21	  372.25
     48.2700	  541.00	  559.85	-1743.60	  372.22
     48.3700	  545.00	  548.14	-1727.89	  372.19
     48.4700	  532.00	  541.20	-1733.95	  372.16
     48.5700	  508.00	  538.55	-1755.30	  372.14
     48.6700	  508.00	  539.22	-1755.97	  372.11
     48.7700	  559.00	  542.32	-1708.07	  372.09
     48.8700	  545.00	  547.38	-1727.13	  372.07
     48.9700	  557.00	  554.43	-1722.18	  372.05
     49.0700	  529.00	  564.07	-1759.82	  372.03
     49.1700	  554.00	  577.90	-1748.65	  372.02
     49.2700	  570.00	  599.63	-1754.38	  372.00
     49.3700	  601.00	  635.08	-1758.83	  371.99
     49.4700	  676.00	  695.62	-1744.37	  371.98
     49.5700	  719.00	  797.15	-1802.90	  371.97
     49.6700	  883.00	  957.89	-1799.64	  371.96
     49.7700	 1128.00	 1191.50	-1788.25	  371.96
     49.8700	 1468.00	 1496.40	-1753.15	  371.95
     49.9700	 1896.00	 1843.74	-1672.49	  371.95
     50.0700	 2205.00	 2168.65	-1688.40	  371.95
     50.1700	 2447.00	 2375.01	-1652.76	  371.95
     50.2700	 2387.00	 2377.70	-1715.45	  371.95
     50.3700	 2254.00	 2173.48	-1644.23	  371.95
     50.4700	 1901.00	 1848.19	-1671.94	  371.96
     50.5700	 1396.00	 1502.51	-1831.26	  371.96
     50.6700	 1003.00	 1202.66	-1924.41	  371.97
     50.7700	  825.00	  977.12	-1876.87	  371.98
     50.8700	  709.00	  826.52	-1842.27	  371.99
     50.9700	  697.00	  735.37	-1763.12	  372.00
     51.0700	  581.00	  682.72	-1826.47	  372.01
     51.1700	  627.00	  650.02	-1747.77	  372.03
     51.2700	  602.00	  625.50	-1748.25	  372.05
     51.3700	  626.00	  604.53	-1703.28	  372.06
     51.4700	  533.00	  586.44	-1778.19	  372.08
     51.5700	  591.00	  571.65	-1705.40	  372.10
     51.6700	  569.00	  560.33	-1716.08	  372.13
     51.7700	  574.00	  552.24	-1702.99	  372.15
     51.8700	  551.00	  547.05	-1720.80	  372.17
     51.9700	  587.00	  543.62	-1681.37	  372.20
     52.0700	  571.00	  541.65	-1695.40	  372.23
     52.1700	  531.00	  540.83	-1734.58	  372.26
     52.2700	  534.00	  541.08	-1731.83	  372.29
     52.3700	  542.00	  542.57	-1725.32	  372.32
     52.4700	  578.00	  545.89	-1692.64	  372.35
     52.5700	  599.00	  552.33	-1678.08	  372.39
     52.6700	  615.00	  564.36	-1674.11	  372.43
     52.7700	  626.00	  586.12	-1684.87	  372.46
     52.8700	  669.00	  623.42	-1679.17	  372.50
     52.9700	  727.00	  682.66	-1680.41	  372.54
     53.0700	  799.00	  768.28	-1694.03	  372.58
     53.1700	  892.00	  878.98	-1711.73	  372.63
     53.2700	 1055.00	 1003.98	-1673.73	  372.67
     53.3700	 1102.00	 1120.64	-1743.39	  372.72
     53.4700	 1149.00	 1196.41	-1772.16	  372.76
     53.5700	 1207.00	 1202.34	-1720.09	  372.81
     53.6700	 1068.00	 1135.38	-1792.13	  372.86
     53.7700	  938.00	 1022.05	-1808.80	  372.91
     53.8700	  862.00	  896.37	-1759.12	  372.96
     53.9700	  817.00	  782.92	-1690.67	  373.02
     54.0700	  662.00	  693.97	-1756.72	  373.07
     54.1700	  605.00	  631.82	-1751.57	  373.13
     54.2700	  604.00	  592.51	-1713.26	  373.19
     54.3700	  571.00	  569.63	-1723.38	  373.24
     54.4700	  575.00	  557.14	-1706.89	  373.30
     54.5700	  597.00	  550.58	-1678.33	  373.36
     54.6700	  552.00	  547.36	-1720.11	  373.43
     54.7700	  545.00	  546.00	-1725.75	  373.49
     54.8700	  539.00	  545.89	-1731.64	  373.55
     54.9700	  629.00	  546.67	-1642.42	  373.62
     55.0700	  548.00	  548.27	-1725.02	  373.69
     55.1700	  622.00	  550.73	-1653.48	  373.75
     55.2700	  529.00	  554.06	-1749.81	  373.82
     55.3700	  568.00	  558.43	-1715.18	  373.89
     55.4700	  585.00	  564.07	-1703.82	  373.96
     55.5700	  565.00	  571.44	-1731.19	  374.04
     55.6700	  532.00	  581.46	-1774.21	  374.11
     55.7700	  553.00	  595.94	-1767.69	  374.18
     55.8700	  579.00	  618.48	-1764.23	  374.26
     55.9700	  651.00	  655.53	-1729.28	  374.34
     56.0700	  690.00	  717.51	-1752.26	  374.42
     56.1700	  795.00	  818.99	-1748.74	  374.49
     56.2700	  849.00	  976.60	-1852.35	  374.57
     56.3700	 1150.00	 1203.98	-1778.73	  374.66
     56.4700	 1410.00	 1503.81	-1818.56	  374.74
     56.5700	 1815.00	 1858.95	-1768.70	  374.82
     56.6700	 2207.00	 2225.65	-1743.40	  374.91
     56.7700	 2427.00	 2530.99	-1828.74	  374.99
     56.8700	 2707.00	 2687.11	-1704.86	  375.08
     56.9700	 2539.00	 2636.22	-1821.97	  375.16
     57.0700	 2382.00	 2397.91	-1740.66	  375.25
     57.1700	 2024.00	 2052.85	-1753.60	  375.34
     57.2700	 1677.00	 1686.34	-1734.09	  375.43
     57.3700	 1295.00	 1357.47	-1787.22	  375.52
     57.4700	 1041.00	 1096.20	-1779.95	  375.61
     57.5700	  902.00	  908.97	-1731.72	  375.71
     57.6700	  760.00	  786.93	-1751.68	  375.80
     57.7700	  743.00	  714.85	-1696.60	  375.90
     57.8700	  689.00	  677.93	-1713.68	  375.99
     57.9700	  673.00	  665.49	-1717.24	  376.09
     58.0700	  676.00	  671.69	-1720.44	  376.19
     58.1700	  708.00	  694.43	-1711.18	  376.29
     58.2700	  790.00	  733.65	-1668.40	  376.38
     58.3700	  834.00	  789.44	-1680.19	  376.49
     58.4700	  891.00	  860.40	-1694.15	  376.59
     58.5700	 1038.00	  942.15	-1628.90	  376.69
     58.6700	 1103.00	 1026.74	-1648.49	  376.79
     58.7700	 1287.00	 1104.94	-1542.69	  376.89
     58.8700	 1380.00	 1170.40	-1515.15	  377.00
     58.9700	 1436.00	 1219.57	-1508.32	  377.10
     59.0700	 1477.00	 1247.59	-1495.34	  377.21
     59.1700	 1519.00	 1249.98	-1455.73	  377.32
     59.2700	 1371.00	 1229.96	-1583.71	  377.42
     59.3700	 1357.00	 1199.03	-1566.78	  377.53
     59.4700	 1280.00	 1169.04	-1613.79	  377.64
     59.5700	 1239.00	 1148.28	-1634.03	  377.75
     59.6700	 1140.00	 1144.42	-1729.17	  377.86
     59.7700	 1157.00	 1166.44	-1734.19	  377.97
     59.8700	 1247.00	 1219.77	-1697.52	  378.08
     59.9700	 1343.00	 1300.28	-1682.03	  378.20
     60.0700	 1497.00	 1391.70	-1619.45	  378.31
     60.1700	 1491.00	 1466.37	-1700.12	  378.42
     60.2700	 1580.00	 1492.34	-1637.09	  378.54
     60.3700	 1464.00	 1449.91	-1710.66	  378.65
     60.4700	 1426.00	 1345.85	-1644.60	  378.77
     60.5700	 1280.00	 1206.48	-1651.23	  378.89
     60.6700	 1094.00	 1060.03	-1690.78	  379.00
     60.7700	  945.00	  927.00	-1706.75	  379.12
     60.8700	  741.00	  819.06	-1802.81	  379.24
     60.9700	  712.00	  740.30	-1753.05	  379.36
     61.0700	  678.00	  689.80	-1736.55	  379.48
     61.1700	  678.00	  664.58	-1711.33	  379.60
     61.2700	  674.00	  662.16	-1712.91	  379.72
     61.3700	  648.00	  682.18	-1758.93	  379.84
     61.4700	  695.00	  726.58	-1756.33	  379.96
     61.5700	  723.00	  798.28	-1800.03	  380.09
     61.6700	  833.00	  898.85	-1790.60	  380.21
     61.7700	  944.00	 1025.71	-1806.46	  380.33
     61.8700	 1111.00	 1169.47	-1783.22	  380.46
     61.9700	 1296.00	 1312.35	-1741.10	  380.58
     62.0700	 1325.00	 1428.04	-1827.79	  380.70
     62.1700	 1383.00	 1486.84	-1828.59	  380.83
     62.2700	 1334.00	 1469.57	-1860.32	  380.96
     62.3700	 1326.00	 1381.46	-1780.21	  381.08
     62.4700	 1205.00	 1248.06	-1767.81	  381.21
     62.5700	 1030.00	 1098.95	-1793.70	  381.34
     62.6700	  951.00	  957.05	-1730.80	  381.46
     62.7700	  740.00	  836.24	-1820.99	  381.59
     62.8700	  686.00	  742.37	-1781.12	  381.72
     62.9700	  630.00	  674.98	-1769.73	  381.85
     63.0700	  608.00	  629.92	-1746.67	  381.98
     63.1700	  609.00	  601.63	-1717.38	  382.11
     63.2700	  520.00	  584.93	-1789.68	  382.24
     63.3700	  583.00	  575.91	-1717.66	  382.37
     63.4700	  615.00	  572.27	-1682.02	  382.50
     63.5700	  585.00	  573.14	-1712.89	  382.63
     63.6700	  596.00	  578.85	-1707.60	  382.76
     63.7700	  618.00	  590.71	-1697.46	  382.89
     63.8700	  608.00	  610.59	-1727.34	  383.02
     63.9700	  641.00	  640.42	-1724.17	  383.15
     64.0700	  699.00	  681.43	-1707.18	  383.28
     64.1700	  804.00	  733.36	-1654.11	  383.42
     64.2700	  810.00	  793.50	-1708.25	  383.55
     64.3700	  922.00	  856.19	-1658.94	  383.68
     64.4700	 1020.00	  912.25	-1617.00	  383.81
     64.5700	 1032.00	  952.20	-1644.95	  383.95
     64.6700	 1000.00	  967.58	-1692.33	  384.08
     64.7700	 1013.00	  956.18	-1667.93	  384.21
     64.8700	  957.00	  922.21	-1689.96	  384.35
     64.9700	  917.00	  873.62	-1681.37	  384.48
     65.0700	  842.00	  819.46	-1702.21	  384.61
     65.1700	  769.00	  767.14	-1722.89	  384.75
     65.2700	  697.00	  720.96	-1748.71	  384.88
     65.3700	  703.00	  682.29	-1704.04	  385.02
     65.4700	  633.00	  650.72	-1742.47	  385.15
     65.5700	  589.00	  625.40	-1761.15	  385.29
     65.6700	  614.00	  605.56	-1716.31	  385.42
     65.7700	  613.00	  590.46	-1702.21	  385.56
     65.8700	  554.00	  579.38	-1750.13	  385.69
     65.9700	  561.00	  571.69	-1735.44	  385.82
     66.0700	  547.00	  566.86	-1744.61	  385.96
     66.1700	  525.00	  564.38	-1764.13	  386.09
     66.2700	  585.00	  563.99	-1703.74	  386.23
     66.3700	  529.00	  565.13	-1760.88	  386.36
     66.4700	  539.00	  567.78	-1753.53	  386.50
     66.5700	  577.00	  572.04	-1719.79	  386.63
     66.6700	  548.00	  578.32	-1755.07	  386.77
     66.7700	  579.00	  587.63	-1733.38	  386.90
     66.8700	  607.00	  601.84	-1719.59	  387.04
     66.9700	  615.00	  624.11	-1733.86	  387.17
     67.0700	  630.00	  659.29	-1754.04	  387.31
     67.1700	  661.00	  714.12	-1777.87	  387.44
     67.2700	  781.00	  796.98	-1740.73	  387.58
     67.3700	  947.00	  916.26	-1694.01	  387.71
     67.4700	 1092.00	 1078.70	-1711.45	  387.84
     67.5700	 1280.00	 1286.08	-1730.83	  387.98
     67.6700	 1603.00	 1532.06	-1653.81	  388.11
     67.7700	 1812.00	 1799.57	-1712.32	  388.25
     67.8700	 2136.00	 2060.36	-1649.11	  388.38
     67.9700	 2309.00	 2274.18	-1689.93	  388.51
     68.0700	 2514.00	 2397.02	-1607.77	  388.65
     68.1700	 2392.00	 2397.28	-1730.03	  388.78
     68.2700	 2262.00	 2274.90	-1737.65	  388.91
     68.3700	 2035.00	 2061.44	-1751.19	  389.04
     68.4700	 1770.00	 1801.11	-1755.86	  389.18
     68.5700	 1531.00	 1533.75	-1727.50	  389.31
     68.6700	 1264.00	 1288.16	-1748.91	  389.44
     68.7700	 1042.00	 1081.23	-1763.98	  389.57
     68.8700	  902.00	  919.21	-1741.96	  389.70
     68.9700	  745.00	  800.42	-1780.17	  389.83
     69.0700	  734.00	  718.15	-1708.90	  389.96
     69.1700	  656.00	  663.82	-1732.57	  390.09
     69.2700	  637.00	  629.14	-1716.89	  390.23
     69.3700	  643.00	  607.37	-1689.12	  390.35
     69.4700	  596.00	  593.63	-1722.38	  390.48
     69.5700	  514.00	  584.74	-1795.49	  390.61
     69.6700	  609.00	  578.79	-1694.54	  390.74
     69.7700	  535.00	  574.70	-1764.45	  390.87
     69.8700	  635.00	  571.91	-1661.66	  391.00
     69.9700	  592.00	  570.07	-1702.82	  391.13
     70.0700	  574.00	  569.06	-1719.81	  391.25
     70.1700	  556.00	  568.85	-1737.60	  391.38
     70.2700	  558.00	  569.44	-1736.19	  391.51
     70.3700	  559.00	  570.98	-1736.73	  391.63
     70.4700	  527.00	  573.74	-1771.49	  391.76
     70.5700	  598.00	  578.27	-1705.02	  391.88
     70.6700	  600.00	  585.55	-1710.30	  392.01
     70.7700	  586.00	  597.18	-1735.93	  392.13
     70.8700	  587.00	  615.67	-1753.42	  392.26
     70.9700	  664.00	  644.63	-1705.38	  392.38
     71.0700	  643.00	  688.74	-1770.49	  392.50
     71.1700	  736.00	  753.42	-1742.17	  392.62
     71.2700	  846.00	  843.78	-1722.53	  392.75
     71.3700	  949.00	  963.48	-1739.23	  392.87
     71.4700	 1072.00	 1112.81	-1765.56	  392.99
     71.5700	 1227.00	 1287.90	-1785.65	  393.11
     71.6700	 1480.00	 1476.26	-1721.01	  393.23
     71.7700	 1583.00	 1660.87	-1802.62	  393.35
     71.8700	 1778.00	 1817.58	-1764.33	  393.46
     71.9700	 1908.00	 1919.07	-1735.82	  393.58
     72.0700	 1907.00	 1943.30	-1761.05	  393.70
     72.1700	 1818.00	 1884.45	-1791.20	  393.82
     72.2700	 1749.00	 1756.54	-1732.29	  393.93
     72.3700	 1718.00	 1584.84	-1591.59	  394.05
     72.4700	 1471.00	 1396.85	-1650.60	  394.16
     72.5700	 1302.00	 1213.54	-1636.29	  394.28
     72.6700	 1127.00	 1049.49	-1647.24	  394.39
     72.7700	  993.00	  912.67	-1644.42	  394.50
     72.8700	  888.00	  805.30	-1642.05	  394.61
     72.9700	  833.00	  725.43	-1617.18	  394.73
     73.0700	  763.00	  668.68	-1630.43	  394.84
     73.1700	  705.00	  629.79	-1649.54	  394.95
     73.2700	  646.00	  603.80	-1682.55	  395.06
     73.3700	  675.00	  586.59	-1636.34	  395.16
     73.4700	  606.00	  575.13	-1693.88	  395.27
     73.5700	  636.00	  567.40	-1656.15	  395.38
     73.6700	  575.00	  562.09	-1711.84	  395.48
     73.7700	  555.00	  558.44	-1728.19	  395.59
     73.8700	  556.00	  556.03	-1724.78	  395.70
     73.9700	  575.00	  554.57	-1704.32	  395.80
     74.0700	  592.00	  553.87	-1686.62	  395.90
     74.1700	  597.00	  553.75	-1681.50	  396.00
     74.2700	  606.00	  554.03	-1672.78	  396.11
     74.3700	  614.00	  554.46	-1665.21	  396.21
     74.4700	  674.00	  554.78	-1605.53	  396.31
     74.5700	  609.00	  554.72	-1670.47	  396.41
     74.6700	  652.00	  554.09	-1626.84	  396.50
     74.7700	  683.00	  552.86	-1594.61	  396.60
     74.8700	  608.00	  551.20	-1667.95	  396.70
     74.9700	  588.00	  549.39	-1686.14	  396.79
     75.0700	  598.00	  547.74	-1674.49	  396.89
     75.1700	  568.00	  546.55	-1703.30	  396.98
     75.2700	  604.00	  546.28	-1667.03	  397.07
     75.3700	  575.00	  547.27	-1697.02	  397.17
     75.4700	  581.00	  549.99	-1693.74	  397.26
     75.5700	  579.00	  554.80	-1700.55	  397.35
     75.6700	  540.00	  562.49	-1747.24	  397.44
     75.7700	  610.00	  573.36	-1688.11	  397.53
     75.8700	  627.00	  587.65	-1685.40	  397.61
     75.9700	  624.00	  605.26	-1706.01	  397.70
     76.0700	  673.00	  625.58	-1677.33	  397.78
     76.1700	  679.00	  647.43	-1693.18	  397.87
     76.2700	  660.00	  669.00	-1733.75	  397.95
     76.3700	  726.00	  687.87	-1686.62	  398.03
     76.4700	  692.00	  701.31	-1734.06	  398.12
     76.5700	  715.00	  706.88	-1716.63	  398.20
     76.6700	  660.00	  703.40	-1768.15	  398.28
     76.7700	  695.00	  691.57	-1721.32	  398.35
     76.8700	  609.00	  673.58	-1789.33	  398.43
     76.9700	  659.00	  651.99	-1717.74	  398.51
     77.0700	  607.00	  629.68	-1747.43	  398.58
     77.1700	  586.00	  608.44	-1747.19	  398.66
     77.2700	  542.00	  589.60	-1772.35	  398.73
     77.3700	  565.00	  573.86	-1733.61	  398.80
     77.4700	  551.00	  561.42	-1735.17	  398.87
     77.5700	  522.00	  552.06	-1754.81	  398.94
     77.6700	  455.00	  545.32	-1815.07	  399.01
     77.7700	  540.00	  540.65	-1725.40	  399.08
     77.8700	  500.00	  537.51	-1762.26	  399.15
     77.9700	  511.00	  535.45	-1749.20	  399.21
     78.0700	  500.00	  534.12	-1758.87	  399.28
     78.1700	  521.00	  533.26	-1737.01	  399.34
     78.2700	  531.00	  532.71	-1726.46	  399.40
     78.3700	  513.00	  532.36	-1744.11	  399.46
     78.4700	  509.00	  532.16	-1747.91	  399.52
     78.5700	  511.00	  532.08	-1745.83	  399.58
     78.6700	  485.00	  532.12	-1771.87	  399.64
     78.7700	  511.00	  532.29	-1746.04	  399.70
     78.8700	  516.00	  532.60	-1741.35	  399.75
     78.9700	  539.00	  533.09	-1718.84	  399.80
     79.0700	  481.00	  533.80	-1777.55	  399.86
     79.1700	  505.00	  534.77	-1754.52	  399.91
     79.2700	  493.00	  535.86	-1767.61	  399.96
     79.3700	  535.00	  537.51	-1727.26	  400.01
     79.4700	  530.00	  539.57	-1734.32	  400.06
     79.5700	  496.00	  542.10	-1770.85	  400.10
     79.6700	  534.00	  545.18	-1735.93	  400.15
     79.7700	  542.00	  548.89	-1731.64	  400.19
     79.8700	  555.00	  553.37	-1723.12	  400.24
     79.9700	  528.00	  558.80	-1755.55	  400.28
     80.0700	  587.00	  565.42	-1703.17	  400.32
     80.1700	  536.00	  573.59	-1762.34	  400.36
     80.2700	  545.00	  583.70	-1763.45	  400.40
     80.3700	  592.00	  596.11	-1728.86	  400.43
     80.4700	  566.00	  611.02	-1769.77	  400.47
     80.5700	  579.00	  628.36	-1774.11	  400.50
     80.6700	  585.00	  647.71	-1787.46	  400.53
     80.7700	  670.00	  668.23	-1722.98	  400.57
     80.8700	  660.00	  688.72	-1753.47	  400.60
     80.9700	  687.00	  707.70	-1745.45	  400.62
     81.0700	  734.00	  723.71	-1714.46	  400.65
     81.1700	  734.00	  735.46	-1726.21	  400.68
     81.2700	  796.00	  741.94	-1670.69	  400.70
     81.3700	  801.00	  742.59	-1666.34	  400.73
     81.4700	  746.00	  737.40	-1716.15	  400.75
     81.5700	  761.00	  726.92	-1690.67	  400.77
     81.6700	  778.00	  712.06	-1658.81	  400.79
     81.7700	  746.00	  693.96	-1672.71	  400.81
     81.8700	  719.00	  673.87	-1679.62	  400.83
     81.9700	  733.00	  653.18	-1644.93	  400.84
     82.0700	  666.00	  633.04	-1691.79	  400.85
     82.1700	  649.00	  614.53	-1690.28	  400.87
     82.2700	  646.00	  598.17	-1676.92	  400.88
     82.3700	  587.00	  584.26	-1722.01	  400.89
     82.4700	  612.00	  572.85	-1685.60	  400.90
     82.5700	  626.00	  563.85	-1662.60	  400.91
     82.6700	  597.00	  557.13	-1684.88	  400.91
     82.7700	  525.00	  552.47	-1752.22	  400.92
     82.8700	  516.00	  549.68	-1758.43	  400.92
     82.9700	  564.00	  548.57	-1709.32	  400.92
     83.0700	  518.00	  548.99	-1755.74	  400.92
     83.1700	  552.00	  550.80	-1723.55	  400.92
     83.2700	  542.00	  553.85	-1736.60	  400.92
     83.3700	  550.00	  557.95	-1732.70	  400.91
     83.4700	  544.00	  562.86	-1743.61	  400.91
     83.5700	  555.00	  568.23	-1737.98	  400.90
     83.6700	  549.00	  573.64	-1749.39	  400.89
     83.7700	  555.00	  578.54	-1748.29	  400.88
     83.8700	  563.00	  582.37	-1744.12	  400.87
     83.9700	  579.00	  584.57	-1730.32	  400.86
     84.0700	  552.00	  584.76	-1757.51	  400.85
     84.1700	  587.00	  582.87	-1720.62	  400.83
     84.2700	  569.00	  579.16	-1734.91	  400.81
     84.3700	  537.00	  574.14	-1761.89	  400.80
     84.4700	  570.00	  568.35	-1723.10	  400.78
     84.5700	  547.00	  562.33	-1740.08	  400.75
     84.6700	  546.00	  556.50	-1735.25	  400.73
     84.7700	  537.00	  551.17	-1738.92	  400.71
     84.8700	  536.00	  546.54	-1735.29	  400.68
     84.9700	  549.00	  542.70	-1718.45	  400.65
     85.0700	  527.00	  539.68	-1737.43	  400.63
     85.1700	  519.00	  537.42	-1743.17	  400.60
     85.2700	  522.00	  535.83	-1738.58	  400.56
     85.3700	  521.00	  534.83	-1738.58	  400.53
     85.4700	  525.00	  534.31	-1734.06	  400.50
     85.5700	  536.00	  534.21	-1722.96	  400.46
     85.6700	  552.00	  534.48	-1707.23	  400.42
     85.7700	  540.00	  535.12	-1719.87	  400.39
     85.8700	  559.00	  536.14	-1701.89	  400.35
     85.9700	  501.00	  537.62	-1761.37	  400.30
     86.0700	  582.00	  539.65	-1682.40	  400.26
     86.1700	  512.00	  542.37	-1755.12	  400.22
     86.2700	  549.00	  545.94	-1721.69	  400.17
     86.3700	  562.00	  550.52	-1713.27	  400.12
     86.4700	  576.00	  556.26	-1705.01	  400.07
     86.5700	  550.00	  563.28	-1738.03	  400.02
     86.6700	  569.00	  571.61	-1727.36	  399.97
     86.7700	  590.00	  581.12	-1715.87	  399.92
     86.8700	  601.00	  591.22	-1714.97	  399.86
     86.9700	  652.00	  602.12	-1674.87	  399.80
     87.0700	  610.00	  612.85	-1727.60	  399.75
     87.1700	  582.00	  622.58	-1765.33	  399.69
     87.2700	  666.00	  630.42	-1689.17	  399.63
     87.3700	  640.00	  635.46	-1720.21	  399.56
     87.4700	  640.00	  637.06	-1721.81	  399.50
     87.5700	  622.00	  635.01	-1737.76	  399.43
     87.6700	  655.00	  629.67	-1699.42	  399.37
     87.7700	  624.00	  621.78	-1722.53	  399.30
     87.8700	  610.00	  612.33	-1727.08	  399.23
     87.9700	  630.00	  602.29	-1697.04	  399.16
     88.0700	  623.00	  592.55	-1694.30	  399.08
     88.1700	  577.00	  583.83	-1731.58	  399.01
     88.2700	  614.00	  576.70	-1687.45	  398.93
     88.3700	  567.00	  571.52	-1729.27	  398.86
     88.4700	  597.00	  568.46	-1696.21	  398.78
     88.5700	  556.00	  567.54	-1736.29	  398.70
     88.6700	  605.00	  568.57	-1688.32	  398.61
     88.7700	  571.00	  571.27	-1725.02	  398.53
     88.8700	  574.00	  575.22	-1725.97	  398.45
     88.9700	  605.00	  579.93	-1699.68	  398.36
     89.0700	  590.00	  584.82	-1719.57	  398.27
     89.1700	  576.00	  589.28	-1738.03	  398.18
     89.2700	  618.00	  592.70	-1699.45	  398.09
     89.3700	  591.00	  594.55	-1728.30	  398.00
     89.4700	  623.00	  594.49	-1696.24	  397.91
     89.5700	  599.00	  592.46	-1718.21	  397.81
     89.6700	  575.00	  588.68	-1738.43	  397.71
     89.7700	  618.00	  583.57	-1690.32	  397.62
     89.8700	  551.00	  577.61	-1751.36	  397.52
     89.9700	  539.00	  571.29	-1757.04	  397.41
     90.0700	  536.00	  565.00	-1753.75	  397.31
     90.1700	  580.00	  559.08	-1703.83	  397.21
     90.2700	  511.00	  553.76	-1767.51	  397.10
     90.3700	  524.00	  549.18	-1749.93	  397.00
     90.4700	  517.00	  545.39	-1753.14	  396.89
     90.5700	  501.00	  542.39	-1766.14	  396.78
     90.6700	  526.00	  540.12	-1738.87	  396.67
     90.7700	  539.00	  538.52	-1724.27	  396.55
     90.8700	  513.00	  537.48	-1749.23	  396.44
     90.9700	  521.00	  536.94	-1740.69	  396.33
     91.0700	  542.00	  536.82	-1719.57	  396.21
     91.1700	  515.00	  537.09	-1746.84	  396.09
     91.2700	  524.00	  537.77	-1738.52	  395.97
     91.3700	  510.00	  538.89	-1753.64	  395.85
     91.4700	  502.00	  540.52	-1763.27	  395.73
     91.5700	  509.00	  542.79	-1758.54	  395.60
     91.6700	  523.00	  545.85	-1747.60	  395.48
     91.7700	  507.00	  549.87	-1767.62	  395.35
     91.8700	  513.00	  555.05	-1766.80	  395.22
     91.9700	  552.00	  561.32	-1734.07	  395.09
     92.0700	  487.00	  569.36	-1807.11	  394.96
     92.1700	  584.00	  579.03	-1719.78	  394.83
     92.2700	  540.00	  590.36	-1775.11	  394.70
     92.3700	  601.00	  603.31	-1727.06	  394.56
     92.4700	  564.00	  617.71	-1778.46	  394.43
     92.5700	  626.00	  633.27	-1732.02	  394.29
     92.6700	  669.00	  649.56	-1705.31	  394.15
     92.7700	  707.00	  666.05	-1683.80	  394.01
     92.8700	  671.00	  682.10	-1735.85	  393.87
     92.9700	  636.00	  697.04	-1785.79	  393.73
     93.0700	  781.00	  710.33	-1654.08	  393.58
     93.1700	  737.00	  721.71	-1709.46	  393.44
     93.2700	  795.00	  731.26	-1661.01	  393.29
     93.3700	  752.00	  739.38	-1712.13	  393.14
     93.4700	  821.00	  746.66	-1650.41	  392.99
     93.5700	  797.00	  753.70	-1681.45	  392.84
     93.6700	  833.00	  761.05	-1652.80	  392.69
     93.7700	  779.00	  769.21	-1714.96	  392.54
     93.8700	  861.00	  778.63	-1642.38	  392.38
     93.9700	  861.00	  789.76	-1653.51	  392.23
     94.0700	  845.00	  802.94	-1682.69	  392.07
     94.1700	  861.00	  818.28	-1682.03	  391.91
     94.2700	  897.00	  835.52	-1663.27	  391.75
     94.3700	  841.00	  853.98	-1737.73	  391.59
     94.4700	  876.00	  872.48	-1721.23	  391.43
     94.5700	  916.00	  889.50	-1698.25	  391.27
     94.6700	  923.00	  903.20	-1704.95	  391.10
     94.7700	  934.00	  911.71	-1702.46	  390.94
     94.8700	  947.00	  913.45	-1691.20	  390.77
     94.9700	  910.00	  907.57	-1722.32	  390.60
     95.0700	  921.00	  894.20	-1697.95	  390.43
     95.1700	  916.00	  874.35	-1683.10	  390.26
     95.2700	  872.00	  849.74	-1702.49	  390.09
     95.3700	  830.00	  822.38	-1717.13	  389.92
     95.4700	  766.00	  794.33	-1753.08	  389.75
     95.5700	  749.00	  767.54	-1743.29	  389.57
     95.6700	  738.00	  743.80	-1730.55	  389.40
     95.7700	  700.00	  724.75	-1749.50	  389.22
     95.8700	  688.00	  711.81	-1748.56	  389.04
     95.9700	  699.00	  706.23	-1731.98	  388.86
     96.0700	  705.00	  709.03	-1728.78	  388.68
     96.1700	  703.00	  721.08	-1742.83	  388.50
     96.2700	  674.00	  743.00	-1793.75	  388.32
     96.3700	  785.00	  775.14	-1714.89	  388.14
     96.4700	  802.00	  817.49	-1740.24	  387.95
     96.5700	  824.00	  869.62	-1770.37	  387.77
     96.6700	  906.00	  930.56	-1749.31	  387.58
     96.7700	 1041.00	  998.77	-1682.52	  387.39
     96.8700	 1033.00	 1072.06	-1763.81	  387.20
     96.9700	 1132.00	 1147.56	-1740.31	  387.02
     97.0700	 1168.00	 1221.75	-1778.50	  386.83
     97.1700	 1247.00	 1290.59	-1768.34	  386.63
     97.2700	 1397.00	 1349.68	-1677.43	  386.44
     97.3700	 1348.00	 1394.70	-1771.45	  386.25
     97.4700	 1362.00	 1421.98	-1784.73	  386.06
     97.5700	 1416.00	 1429.26	-1738.01	  385.86
     97.6700	 1473.00	 1416.24	-1667.99	  385.67
     97.7700	 1365.00	 1384.62	-1744.37	  385.47
     97.8700	 1302.00	 1337.60	-1760.35	  385.27
     97.9700	 1260.00	 1279.23	-1743.98	  385.07
     98.0700	 1233.00	 1213.74	-1705.49	  384.87
     98.1700	 1147.00	 1145.31	-1723.06	  384.67
     98.2700	 1083.00	 1077.60	-1719.35	  384.47
     98.3700	  970.00	 1013.83	-1768.58	  384.27
     98.4700	  958.00	  956.71	-1723.46	  384.07
     98.5700	  902.00	  908.42	-1731.17	  383.87
     98.6700	  871.00	  870.69	-1724.44	  383.66
     98.7700	  804.00	  844.82	-1765.57	  383.46
     98.8700	  830.00	  831.78	-1726.53	  383.25
     98.9700	  832.00	  832.23	-1724.98	  383.05
     99.0700	  852.00	  846.62	-1719.37	  382.84
     99.1700	  872.00	  875.15	-1727.90	  382.63
     99.2700	  897.00	  917.83	-1745.58	  382.43
     99.3700	  954.00	  974.43	-1745.18	  382.22
     99.4700	 1079.00	 1044.35	-1690.10	  382.01
     99.5700	 1178.00	 1126.62	-1673.37	  381.80
     99.6700	 1182.00	 1219.73	-1762.48	  381.59
     99.7700	 1319.00	 1321.61	-1727.36	  381.38
     99.8700	 1504.00	 1429.50	-1650.25	  381.17
     99.9700	 1554.00	 1539.90	-1710.65	  380.95
    100.0700	 1619.00	 1648.74	-1754.49	  380.74
    100.1700	 1630.00	 1751.52	-1846.27	  380.53
    100.2700	 1931.00	 1843.76	-1637.51	  380.31
    100.3700	 1953.00	 1921.52	-1693.27	  380.10
    100.4700	 2060.00	 1981.72	-1646.47	  379.89
    100.5700	 2025.00	 2022.31	-1722.06	  379.67
    100.6700	 2075.00	 2042.10	-1691.85	  379.46
    100.7700	 2054.00	 2040.47	-1711.22	  379.24
    100.8700	 2023.00	 2017.49	-1719.24	  379.02
    100.9700	 1978.00	 1974.14	-1720.89	  378.81
    101.0700	 1925.00	 1912.63	-1712.38	  378.59
    101.1700	 1803.00	 1836.51	-1758.26	  378.37
    101.2700	 1749.00	 1750.32	-1726.07	  378.15
    101.3700	 1571.00	 1659.05	-1812.80	  377.94
    101.4700	 1640.00	 1567.54	-1652.29	  377.72
    101.5700	 1516.00	 1480.00	-1688.75	  377.50
    101.6700	 1428.00	 1399.70	-1696.45	  377.28
    101.7700	 1318.00	 1328.94	-1735.69	  377.06
    101.8700	 1342.00	 1268.96	-1651.71	  376.84
    101.9700	 1223.00	 1220.02	-1721.77	  376.62
    102.0700	 1180.00	 1181.47	-1726.22	  376.40
    102.1700	 1098.00	 1151.85	-1778.60	  376.18
    102.2700	 1118.00	 1129.07	-1735.82	  375.96
    102.3700	 1143.00	 1110.63	-1692.38	  375.74
    102.4700	 1128.00	 1093.86	-1690.61	  375.52
    102.5700	 1068.00	 1076.26	-1733.01	  375.30
    102.6700	 1061.00	 1055.83	-1719.58	  375.08
    102.7700	 1007.00	 1031.34	-1749.09	  374.86
    102.8700	  994.00	 1002.38	-1733.13	  374.64
    102.9700	  927.00	  969.31	-1767.06	  374.42
    103.0700	  920.00	  932.95	-1737.70	  374.20
    103.1700	  842.00	  894.43	-1777.18	  373.98
    103.2700	  820.00	  854.98	-1759.73	  373.76
    103.3700	  858.00	  815.74	-1682.49	  373.54
    103.4700	  797.00	  777.79	-1705.54	  373.32
    103.5700	  773.00	  741.99	-1693.74	  373.10
    103.6700	  689.00	  709.05	-1744.80	  372.88
    103.7700	  711.00	  679.44	-1693.19	  372.66
    103.8700	  684.00	  653.42	-1694.17	  372.44
    103.9700	  628.00	  631.08	-1727.83	  372.22
    104.0700	  550.00	  612.33	-1787.08	  372.00
    104.1700	  602.00	  596.94	-1719.69	  371.78
    104.2700	  579.00	  584.63	-1730.38	  371.56
    104.3700	  534.00	  575.03	-1765.78	  371.34
    104.4700	  602.00	  567.77	-1690.52	  371.12
    104.5700	  567.00	  562.48	-1720.23	  370.91
    104.6700	  578.00	  558.83	-1705.58	  370.69
    104.7700	  551.00	  556.51	-1730.26	  370.47
    104.8700	  544.00	  555.24	-1735.99	  370.26
    104.9700	  544.00	  554.83	-1735.58	  370.04
    105.0700	  547.00	  555.09	-1732.84	  369.82
    105.1700	  540.00	  555.89	-1740.64	  369.61
    105.2700	  544.00	  557.12	-1737.87	  369.39
    105.3700	  508.00	  558.77	-1775.52	  369.18
    105.4700	  566.00	  560.82	-1719.57	  368.97
    105.5700	  541.00	  563.28	-1747.03	  368.75
    105.6700	  556.00	  566.23	-1734.98	  368.54
    105.7700	  545.00	  569.77	-1749.52	  368.33
    105.8700	  539.00	  573.98	-1759.73	  368.12
    105.9700	  556.00	  578.97	-1747.72	  367.91
    106.0700	  564.00	  584.79	-1745.54	  367.70
    106.1700	  608.00	  591.48	-1708.23	  367.49
    106.2700	  596.00	  599.01	-1727.76	  367.28
    106.3700	  589.00	  607.30	-1743.05	  367.08
    106.4700	  569.00	  616.19	-1771.94	  366.87
    106.5700	  571.00	  625.48	-1779.23	  366.66
    106.6700	  645.00	  634.93	-1714.68	  366.46
    106.7700	  692.00	  644.22	-1676.97	  366.26
    106.8700	  660.00	  653.02	-1717.77	  366.05
    106.9700	  618.00	  660.98	-1767.73	  365.85
    107.0700	  642.00	  667.79	-1750.54	  365.65
    107.1700	  664.00	  673.20	-1733.95	  365.45
    107.2700	  679.00	  677.08	-1722.83	  365.25
    107.3700	  690.00	  679.46	-1714.21	  365.06
    107.4700	  720.00	  680.50	-1685.25	  364.86
    107.5700	  682.00	  680.52	-1723.27	  364.66
    107.6700	  693.00	  679.89	-1711.64	  364.47
    107.7700	  710.00	  679.00	-1693.75	  364.28
    107.8700	  657.00	  678.21	-1745.96	  364.09
    107.9700	  639.00	  677.80	-1763.55	  363.89
    108.0700	  698.00	  677.97	-1704.72	  363.71
    108.1700	  687.00	  678.79	-1716.54	  363.52
    108.2700	  682.00	  680.24	-1722.99	  363.33
    108.3700	  719.00	  682.19	-1687.94	  363.15
    108.4700	  682.00	  684.38	-1727.13	  362.96
    108.5700	  718.00	  686.50	-1693.25	  362.78
    108.6700	  690.00	  688.16	-1722.91	  362.60
    108.7700	  721.00	  688.94	-1692.69	  362.42
    108.8700	  660.00	  688.45	-1753.20	  362.24
    108.9700	  661.00	  686.40	-1750.15	  362.07
    109.0700	  647.00	  682.61	-1760.36	  361.89
    109.1700	  684.00	  677.05	-1717.80	  361.72
    109.2700	  692.00	  669.85	-1702.60	  361.55
    109.3700	  652.00	  661.25	-1734.00	  361.38
    109.4700	  658.00	  651.57	-1718.32	  361.21
    109.5700	  624.00	  641.17	-1741.92	  361.04
    109.6700	  639.00	  630.37	-1716.12	  360.88
    109.7700	  626.00	  619.53	-1718.28	  360.72
    109.8700	  604.00	  608.94	-1729.69	  360.56
    109.9700	  589.00	  598.86	-1734.61	  360.40
    110.0700	  593.00	  589.48	-1721.23	  360.24
    110.1700	  630.00	  580.96	-1675.71	  360.09
    110.2700	  616.00	  573.41	-1682.16	  359.93
    110.3700	  587.00	  566.88	-1704.63	  359.78
    110.4700	  569.00	  561.37	-1717.12	  359.63
    110.5700	  521.00	  556.87	-1760.62	  359.49
    110.6700	  579.00	  553.33	-1699.08	  359.34
    110.7700	  564.00	  550.66	-1711.41	  359.20
    110.8700	  565.00	  548.78	-1708.53	  359.06
    110.9700	  541.00	  547.60	-1731.35	  358.92
    111.0700	  544.00	  547.05	-1727.80	  358.79
    111.1700	  525.00	  547.02	-1746.77	  358.65
    111.2700	  538.00	  547.45	-1734.20	  358.52
    111.3700	  543.00	  548.26	-1730.01	  358.39
    111.4700	  557.00	  549.42	-1717.17	  358.27
    111.5700	  537.00	  550.86	-1738.61	  358.14
    111.6700	  554.00	  552.57	-1723.32	  358.02
    111.7700	  547.00	  554.52	-1732.27	  357.90
    111.8700	  537.00	  556.69	-1744.44	  357.79
    111.9700	  584.00	  559.08	-1699.83	  357.67
    112.0700	  542.00	  561.68	-1744.43	  357.56
    112.1700	  545.00	  564.53	-1744.28	  357.45
    112.2700	  536.00	  567.62	-1756.37	  357.35
    112.3700	  570.00	  570.99	-1725.74	  357.25
    112.4700	  596.00	  574.67	-1703.42	  357.15
    112.5700	  602.00	  578.72	-1701.47	  357.05
    112.6700	  584.00	  583.19	-1723.94	  356.95
    112.7700	  618.00	  588.17	-1694.92	  356.86
    112.8700	  616.00	  593.77	-1702.52	  356.77
    112.9700	  636.00	  600.14	-1688.89	  356.69
    113.0700	  635.00	  607.45	-1697.20	  356.61
    113.1700	  690.00	  615.94	-1650.69	  356.53
    113.2700	  663.00	  625.96	-1687.71	  356.45
    113.3700	  655.00	  637.90	-1707.65	  356.38
    113.4700	  741.00	  652.25	-1636.00	  356.31
    113.5700	  827.00	  669.66	-1567.41	  356.24
    113.6700	  785.00	  690.93	-1630.68	  356.18
    113.7700	  778.00	  717.02	-1663.77	  356.12
    113.8700	  901.00	  749.09	-1572.84	  356.06
    113.9700	  912.00	  788.50	-1601.25	  356.01
    114.0700	  909.00	  836.84	-1652.59	  355.96
    114.1700	 1006.00	  895.92	-1614.67	  355.91
    114.2700	 1042.00	  967.74	-1650.49	  355.87
    114.3700	 1226.00	 1054.49	-1553.24	  355.83
    114.4700	 1262.00	 1158.44	-1621.19	  355.80
    114.5700	 1461.00	 1281.95	-1545.70	  355.76
    114.6700	 1540.00	 1427.35	-1612.10	  355.74
    114.7700	 1717.00	 1596.76	-1604.51	  355.71
    114.8700	 1923.00	 1792.00	-1593.75	  355.69
    114.9700	 2116.00	 2014.44	-1623.19	  355.67
    115.0700	 2335.00	 2264.87	-1654.62	  355.66
    115.1700	 2608.00	 2543.35	-1660.10	  355.65
    115.2700	 2868.00	 2848.94	-1705.69	  355.65
    115.3700	 3163.00	 3179.68	-1741.43	  355.65
    115.4700	 3500.00	 3532.45	-1757.20	  355.65
    115.5700	 3735.00	 3902.98	-1892.73	  355.66
    115.6700	 4259.00	 4285.80	-1751.55	  355.67
    115.7700	 4373.00	 4674.10	-2025.85	  355.68
    115.8700	 4915.00	 5059.93	-1869.68	  355.70
    115.9700	 5130.00	 5434.21	-2028.96	  355.73
    116.0700	 5627.00	 5787.08	-1884.83	  355.75
    116.1700	 5951.00	 6108.04	-1881.79	  355.79
    116.2700	 6263.00	 6386.26	-1848.01	  355.82
    116.3700	 6584.00	 6611.34	-1752.09	  355.87
    116.4700	 6784.00	 6774.06	-1714.81	  355.91
    116.5700	 6804.00	 6867.37	-1788.12	  355.96
    116.6700	 6892.00	 6887.05	-1719.80	  356.02
    116.7700	 6899.00	 6832.37	-1658.12	  356.08
    116.8700	 6764.00	 6706.15	-1666.90	  356.14
    116.9700	 6439.00	 6514.45	-1800.20	  356.21
    117.0700	 6347.00	 6265.68	-1643.43	  356.29
    117.1700	 5976.00	 5969.77	-1718.52	  356.37
    117.2700	 5489.00	 5637.36	-1873.11	  356.45
    117.3700	 5213.00	 5279.09	-1790.84	  356.54
    117.4700	 4820.00	 4905.13	-1809.88	  356.63
    117.5700	 4579.00	 4524.71	-1670.46	  356.73
    117.6700	 4245.00	 4146.02	-1625.77	  356.84
    117.7700	 3907.00	 3776.22	-1593.97	  356.95
    117.8700	 3620.00	 3421.18	-1525.93	  357.06
    117.9700	 3203.00	 3085.61	-1607.36	  357.18
    118.0700	 2855.00	 2772.88	-1642.63	  357.31
    118.1700	 2554.00	 2485.25	-1656.00	  357.44
    118.2700	 2297.00	 2224.06	-1651.81	  357.57
    118.3700	 1938.00	 1989.64	-1776.39	  357.71
    118.4700	 1755.00	 1781.64	-1751.39	  357.86
    118.5700	 1553.00	 1598.96	-1770.71	  358.01
    118.6700	 1424.00	 1440.07	-1740.82	  358.17
    118.7700	 1272.00	 1303.14	-1755.89	  358.34
    118.8700	 1142.00	 1186.12	-1768.87	  358.50
    118.9700	 1046.00	 1086.85	-1765.60	  358.68
    119.0700	  942.00	 1003.17	-1785.92	  358.86
    119.1700	  866.00	  932.99	-1791.74	  359.05
    119.2700	  827.00	  874.40	-1772.15	  359.24
    119.3700	  749.00	  825.62	-1801.37	  359.44
    119.4700	  756.00	  785.10	-1753.85	  359.65
    119.5700	  693.00	  751.46	-1783.21	  359.86
    119.6700	  735.00	  723.52	-1713.27	  360.07
    119.7700	  640.00	  700.30	-1785.05	  360.30
    119.8700	  601.00	  680.96	-1804.71	  360.53
    119.9700	  612.00	  664.84	-1777.59	  360.76
    120.0700	  579.00	  651.36	-1797.11	  361.01
    120.1700	  582.00	  640.07	-1782.82	  361.25
    120.2700	  628.00	  630.62	-1727.37	  361.51
    120.3700	  586.00	  622.72	-1761.47	  361.77
    120.4700	  565.00	  616.14	-1775.89	  362.04
    120.5700	  593.00	  610.71	-1742.46	  362.32
    120.6700	  607.00	  606.26	-1724.01	  362.60
    120.7700	  590.00	  602.71	-1737.46	  362.89
    120.8700	  581.00	  599.95	-1743.70	  363.18
    120.9700	  583.00	  597.93	-1739.68	  363.48
    121.0700	  551.00	  596.57	-1770.32	  363.79
    121.1700	  582.00	  595.84	-1738.59	  364.11
    121.2700	  510.00	  595.69	-1810.44	  364.43
    121.3700	  566.00	  596.07	-1754.82	  364.77
    121.4700	  577.00	  596.94	-1744.69	  365.10
    121.5700	  558.00	  598.26	-1765.01	  365.45
    121.6700	  625.00	  599.97	-1699.72	  365.80
    121.7700	  580.00	  602.02	-1746.77	  366.16
    121.8700	  584.00	  604.32	-1745.07	  366.53
    121.9700	  602.00	  606.85	-1729.60	  366.90
    122.0700	  608.00	  609.50	-1726.25	  367.29
    122.1700	  610.00	  612.21	-1726.96	  367.68
    122.2700	  626.00	  614.87	-1713.62	  368.07
    122.3700	  573.00	  617.41	-1769.16	  368.48
    122.4700	  599.00	  619.73	-1745.48	  368.89
    122.5700	  654.00	  621.74	-1692.49	  369.31
    122.6700	  606.00	  623.39	-1742.14	  369.74
    122.7700	  636.00	  624.61	-1713.36	  370.18
    122.8700	  628.00	  625.35	-1722.10	  370.62
    122.9700	  669.00	  625.59	-1681.34	  371.08
    123.0700	  667.00	  625.33	-1683.08	  371.54
    123.1700	  627.00	  624.60	-1722.35	  372.01
    123.2700	  636.00	  623.42	-1712.17	  372.49
    123.3700	  625.00	  621.86	-1721.61	  372.97
    123.4700	  682.00	  619.97	-1662.72	  373.47
    123.5700	  655.00	  617.81	-1687.56	  373.97
    123.6700	  612.00	  615.43	-1728.18	  374.48
    123.7700	  620.00	  612.91	-1717.66	  375.00
    123.8700	  645.00	  610.30	-1690.05	  375.53
    123.9700	  618.00	  607.66	-1714.41	  376.07
    124.0700	  640.00	  605.02	-1689.77	  376.62
    124.1700	  604.00	  602.43	-1723.18	  377.17
    124.2700	  683.00	  599.92	-1641.67	  377.74
    124.3700	  596.00	  597.53	-1726.28	  378.31
    124.4700	  624.00	  595.27	-1696.02	  378.89
    124.5700	  628.00	  593.16	-1689.91	  379.48
    124.6700	  591.00	  591.22	-1724.97	  380.08
    124.7700	  609.00	  589.45	-1705.20	  380.69
    124.8700	  567.00	  587.86	-1745.61	  381.31
    124.9700	  604.00	  500.49	-1621.24	  381.94
    125.0700	  576.00	  501.13	-1724.75	  382.58
    125.1700	  585.00	  501.78	-1724.75	  383.23
    125.2700	  589.00	  502.44	-1724.75	  383.89
    125.3700	  597.00	  503.10	-1724.75	  384.56
    125.4700	  541.00	  503.78	-1724.75	  385.23
    125.5700	  601.00	  504.47	-1724.75	  385.92
    125.6700	  568.00	  505.17	-1724.75	  386.62
    125.7700	  579.00	  505.87	-1724.75	  387.32
    125.8700	  518.00	  506.59	-1724.75	  388.04
    125.9700	  568.00	  507.32	-1724.75	  388.77
    126.0700	  584.00	  508.06	-1724.75	  389.51
    126.1700	  582.00	  508.80	-1724.75	  390.25
    126.2700	  633.00	  509.56	-1724.75	  391.01
    126.3700	  585.00	  510.33	-1724.75	  391.78
    126.4700	  611.00	  511.11	-1724.75	  392.56
    126.5700	  597.00	  511.90	-1724.75	  393.35
    126.6700	  592.00	  512.70	-1724.75	  394.15
    126.7700	  608.00	  513.51	-1724.75	  394.96
    126.8700	  583.00	  514.33	-1724.75	  395.78
    126.9700	  628.00	  515.16	-1724.75	  396.62
    127.0700	  585.00	  516.01	-1724.75	  397.46
    127.1700	  665.00	  516.86	-1724.75	  398.31
    127.2700	  642.00	  517.73	-1724.75	  399.18
    127.3700	  649.00	  518.60	-1724.75	  400.06
    127.4700	  689.00	  519.49	-1724.75	  400.94
    127.5700	  673.00	  520.39	-1724.75	  401.84
    127.6700	  668.00	  521.30	-1724.75	  402.75
    127.7700	  717.00	  522.22	-1724.75	  403.68
    127.8700	  717.00	  523.16	-1724.75	  404.61
    127.9700	  770.00	  524.10	-1724.75	  405.55
    128.0700	  780.00	  525.06	-1724.75	  406.51
    128.1700	  804.00	  526.03	-1724.75	  407.48
    128.2700	  780.00	  527.01	-1724.75	  408.46
    128.3700	  824.00	  528.00	-1724.75	  409.45
    128.4700	  780.00	  529.01	-1724.75	  410.46
    128.5700	    0.00	  530.02	-1724.75	  411.47
    128.6700	    0.00	  531.05	-1724.75	  412.50
     12.3051	        	        	        	        	       0	(  0  0  2)	  0  1
     24.8827	        	        	        	        	       0	(  0  0  4)	  0  1
     28.3329	        	        	        	        	       0	(  1  0  0)	  0  1
     29.0296	        	        	        	        	       0	(  1  0  1)	  0  1
     31.0343	        	        	        	        	       0	(  1  0  2)	  0  1
     34.1405	        	        	        	        	       0	(  1  0  3)	  0  1
     37.7759	        	        	        	        	       0	(  0  0  6)	  0  1
     38.1149	        	        	        	        	       0	(  1  0  4)	  0  1
     42.7620	        	        	        	        	       0	(  1  0  5)	  0  1
     47.9427	        	        	        	        	       0	(  1  0  6)	  0  1
     50.2678	        	        	        	        	       0	(  1  1  0)	  0  1
     51.1905	        	        	        	        	       0	(  0  0  8)	  0  1
     51.9895	        	        	        	        	       0	(  1  1  2)	  0  1
     53.5696	        	        	        	        	       0	(  1  0  7)	  0  1
     56.9335	        	        	        	        	       0	(  1  1  4)	  0  1
     58.7639	        	        	        	        	       0	(  2  0  0)	  0  1
     59.1551	        	        	        	        	       0	(  2  0  1)	  0  1
     59.5961	        	        	        	        	       0	(  1  0  8)	  0  1
     60.3196	        	        	        	        	       0	(  2  0  2)	  0  1
     62.2313	        	        	        	        	       0	(  2  0  3)	  0  1
     64.6224	        	        	        	        	       0	(  1  1  6)	  0  1
     64.8533	        	        	        	        	       0	(  2  0  4)	  0  1
     65.4111	        	        	        	        	       0	(  0  0 10)	  0  1
     66.0081	        	        	        	        	       0	(  1  0  9)	  0  1
     68.1450	        	        	        	        	       0	(  2  0  5)	  0  1
     72.0693	        	        	        	        	       0	(  2  0  6)	  0  1
     72.8194	        	        	        	        	       0	(  1  0 10)	  0  1
     74.6525	        	        	        	        	       0	(  1  1  8)	  0  1
     76.5998	        	        	        	        	       0	(  2  0  7)	  0  1
     80.0715	        	        	        	        	       0	(  1  0 11)	  0  1
     80.8803	        	        	        	        	       0	(  0  0 12)	  0  1
     81.0023	        	        	        	        	       0	(  2  1  0)	  0  1
     81.3419	        	        	        	        	       0	(  2  1  1)	  0  1
     81.7259	        	        	        	        	       0	(  2  0  8)	  0  1
     82.3589	        	        	        	        	       0	(  2  1  2)	  0  1
     84.0488	        	        	        	        	       0	(  2  1  3)	  0  1
     86.4064	        	        	        	        	       0	(  2  1  4)	  0  1
     86.9137	        	        	        	        	       0	(  1  1 10)	  0  1
     87.4590	        	        	        	        	       0	(  2  0  9)	  0  1
     87.8392	        	        	        	        	       0	(  1  0 12)	  0  1
     89.4295	        	        	        	        	       0	(  2  1  5)	  0  1
     93.1236	        	        	        	        	       0	(  2  1  6)	  0  1
     93.8406	        	        	        	        	       0	(  2  0 10)	  0  1
     94.8890	        	        	        	        	       0	(  3  0  0)	  0  1
     95.2260	        	        	        	        	       0	(  3  0  1)	  0  1
     96.2383	        	        	        	        	       0	(  3  0  2)	  0  1
     96.2445	        	        	        	        	       0	(  1  0 13)	  0  1
     97.5081	        	        	        	        	       0	(  2  1  7)	  0  1
     97.9301	        	        	        	        	       0	(  3  0  3)	  0  1
     98.4035	        	        	        	        	       0	(  0  0 14)	  0  1
    100.3109	        	        	        	        	       0	(  3  0  4)	  0  1
    100.9554	        	        	        	        	       0	(  2  0 11)	  0  1
    101.7697	        	        	        	        	       0	(  1  1 12)	  0  1
    102.6255	        	        	        	        	       0	(  2  1  8)	  0  1
    103.3995	        	        	        	        	       0	(  3  0  5)	  0  1
    105.4869	        	        	        	        	       0	(  1  0 14)	  0  1
    107.2308	        	        	        	        	       0	(  3  0  6)	  0  1
    108.5561	        	        	        	        	       0	(  2  1  9)	  0  1
    108.9576	        	        	        	        	       0	(  2  0 12)	  0  1
    111.8662	        	        	        	        	       0	(  3  0  7)	  0  1
    115.4449	        	        	        	        	       0	(  2  1 10)	  0  1
    115.9160	        	        	        	        	       0	(  1  0 15)	  0  1
    116.6092	        	        	        	        	       0	(  2  2  0)	  0  1
    117.4133	        	        	        	        	       0	(  3  0  8)	  0  1
    118.1228	        	        	        	        	       0	(  2  2  2)	  0  1
    118.1298	        	        	        	        	       0	(  2  0 13)	  0  1
    119.8624	        	        	        	        	       0	(  0  0 16)	  0  1
    120.5891	        	        	        	        	       0	(  1  1 14)	  0  1
    122.8032	        	        	        	        	       0	(  2  2  4)	  0  1
    123.5608	        	        	        	        	       0	(  2  1 11)	  0  1
    124.0647	        	        	        	        	       0	(  3  0  9)	  0  1
    124.6719	        	        	        	        	       0	(  3  1  0)	  0  1
    125.0817	        	        	        	        	       0	(  3  1  1)	  0  1
    126.3237	        	        	        	        	       0	(  3  1  2)	  0  1
    128.2368	        	        	        	        	       0	(  1  0 16)	  0  1
    128.4394	        	        	        	        	       0	(  3  1  3)	  0  1
    129.0411	        	        	        	        	       0	(  2  0 14)	  0  1
    131.2325	        	        	        	        	       0	(  2  2  6)	  0  1
    131.5116	        	        	        	        	       0	(  3  1  4)	  0  1
    132.1929	        	        	        	        	       0	(  3  0 10)	  0  1
    133.4562	        	        	        	        	       0	(  2  1 12)	  0  1
    135.6929	        	        	        	        	       0	(  3  1  5)	  0  1
    141.2795	        	        	        	        	       0	(  3  1  6)	  0  1
    142.6503	        	        	        	        	       0	(  3  0 11)	  0  1
    143.1450	        	        	        	        	       0	(  2  0 15)	  0  1
    144.3588	        	        	        	        	       0	(  1  0 17)	  0  1
    145.4420	        	        	        	        	       0	(  2  2  8)	  0  1
    146.5784	        	        	        	        	       0	(  2  1 13)	  0  1
    148.9374	        	        	        	        	       0	(  3  1  7)	  0  1
    149.4458	        	        	        	        	       0	(  1  1 16)	  0  1
    153.7944	        	        	        	        	       0	(  0  0 18)	  0  1
    158.4676	        	        	        	        	       0	(  3  0 12)	  0  1
    158.8002	        	        	        	        	       0	(  4  0  0)	  0  1
    159.7542	        	        	        	        	       0	(  4  0  1)	  0  1
    160.8894	        	        	        	        	       0	(  3  1  8)	  0  1
    162.9219	        	        	        	        	       0	(  4  0  2)	  0  1
    169.3153	        	        	        	        	       0	(  2  0 16)	  0  1
    170.2190	        	        	        	        	       0	(  4  0  3)	  0  1
    173.5990	        	        	        	        	       0	(  2  1 14)	  0  1
