MSG Master    CELL:    5.91318   5.91318  23.25275   90.0000   90.0000  120.0000   SPGR: P 63/m m c             TEMP:    963.15
  1   1280     2.52000     0.00000    -0.11912     0.00000     0.00000    0
    99     0     2
       0.00000      10.00000
     125.00000     130.00000
 2Theta	Yobs	Ycal	Yobs-Ycal	Backg	Posr	(hkl)	K
      0.7700	    0.00	  513.49	-1721.85	  399.63
      0.8700	    0.00	  514.50	-1721.85	  400.63
      0.9700	   41.00	  515.48	-1721.85	  401.62
      1.0700	   47.00	  516.46	-1721.85	  402.59
      1.1700	   41.00	  517.42	-1721.85	  403.55
      1.2700	   33.00	  518.37	-1721.85	  404.50
      1.3700	   50.00	  519.31	-1721.85	  405.44
      1.4700	   85.00	  520.23	-1721.85	  406.37
      1.5700	  282.00	  521.15	-1721.85	  407.28
      1.6700	  459.00	  522.05	-1721.85	  408.18
      1.7700	  602.00	  522.94	-1721.85	  409.07
      1.8700	  656.00	  523.81	-1721.85	  409.94
      1.9700	  699.00	  524.68	-1721.85	  410.81
      2.0700	  735.00	  525.53	-1721.85	  411.66
      2.1700	  815.00	  526.37	-1721.85	  412.50
      2.2700	  737.00	  527.20	-1721.85	  413.33
      2.3700	  759.00	  528.02	-1721.85	  414.15
      2.4700	  710.00	  528.82	-1721.85	  414.95
      2.5700	  647.00	  529.62	-1721.85	  415.75
      2.6700	  644.00	  530.40	-1721.85	  416.53
      2.7700	  659.00	  531.17	-1721.85	  417.30
      2.8700	  582.00	  531.93	-1721.85	  418.06
      2.9700	  655.00	  532.68	-1721.85	  418.81
      3.0700	  602.00	  533.42	-1721.85	  419.55
      3.1700	  577.00	  534.14	-1721.85	  420.27
      3.2700	  655.00	  534.86	-1721.85	  420.99
      3.3700	  734.00	  535.56	-1721.85	  421.69
      3.4700	  834.00	  536.26	-1721.85	  422.39
      3.5700	  864.00	  536.94	-1721.85	  423.07
      3.6700	  899.00	  537.61	-1721.85	  423.74
      3.7700	  943.00	  538.27	-1721.85	  424.40
      3.8700	 1132.00	  538.92	-1721.85	  425.06
      3.9700	 1124.00	  539.56	-1721.85	  425.70
      4.0700	 1149.00	  540.19	-1721.85	  426.33
      4.1700	 1155.00	  540.81	-1721.85	  426.95
      4.2700	 1113.00	  541.42	-1721.85	  427.56
      4.3700	 1119.00	  542.02	-1721.85	  428.15
      4.4700	 1157.00	  542.61	-1721.85	  428.74
      4.5700	 1088.00	  543.19	-1721.85	  429.32
      4.6700	 1110.00	  543.76	-1721.85	  429.89
      4.7700	 1076.00	  544.32	-1721.85	  430.45
      4.8700	 1047.00	  544.87	-1721.85	  431.00
      4.9700	  960.00	  545.41	-1721.85	  431.54
      5.0700	  962.00	  545.94	-1721.85	  432.07
      5.1700	  980.00	  546.46	-1721.85	  432.59
      5.2700	  922.00	  546.97	-1721.85	  433.10
      5.3700	  921.00	  547.47	-1721.85	  433.60
      5.4700	  959.00	  547.96	-1721.85	  434.09
      5.5700	  893.00	  548.44	-1721.85	  434.58
      5.6700	  912.00	  548.92	-1721.85	  435.05
      5.7700	  894.00	  549.38	-1721.85	  435.51
      5.8700	  823.00	  549.84	-1721.85	  435.97
      5.9700	  864.00	  550.28	-1721.85	  436.41
      6.0700	  813.00	  550.72	-1721.85	  436.85
      6.1700	  778.00	  551.15	-1721.85	  437.28
      6.2700	  783.00	  551.57	-1721.85	  437.70
      6.3700	  713.00	  551.98	-1721.85	  438.11
      6.4700	  776.00	  552.38	-1721.85	  438.51
      6.5700	  806.00	  552.77	-1721.85	  438.90
      6.6700	  678.00	  553.15	-1721.85	  439.29
      6.7700	  686.00	  553.53	-1721.85	  439.66
      6.8700	  756.00	  553.90	-1721.85	  440.03
      6.9700	  717.00	  554.25	-1721.85	  440.39
      7.0700	  711.00	  554.60	-1721.85	  440.74
      7.1700	  691.00	  554.95	-1721.85	  441.08
      7.2700	  704.00	  555.28	-1721.85	  441.41
      7.3700	  657.00	  555.61	-1721.85	  441.74
      7.4700	  713.00	  555.92	-1721.85	  442.06
      7.5700	  682.00	  556.23	-1721.85	  442.37
      7.6700	  680.00	  556.53	-1721.85	  442.67
      7.7700	  645.00	  556.83	-1721.85	  442.96
      7.8700	  639.00	  557.11	-1721.85	  443.25
      7.9700	  622.00	  557.39	-1721.85	  443.52
      8.0700	  664.00	  557.66	-1721.85	  443.79
      8.1700	  693.00	  557.92	-1721.85	  444.06
      8.2700	  678.00	  558.18	-1721.85	  444.31
      8.3700	  660.00	  558.43	-1721.85	  444.56
      8.4700	  643.00	  558.67	-1721.85	  444.80
      8.5700	  582.00	  558.90	-1721.85	  445.03
      8.6700	  622.00	  559.12	-1721.85	  445.26
      8.7700	  632.00	  559.34	-1721.85	  445.47
      8.8700	  608.00	  559.55	-1721.85	  445.68
      8.9700	  631.00	  559.76	-1721.85	  445.89
      9.0700	  555.00	  559.95	-1721.85	  446.08
      9.1700	  604.00	  560.14	-1721.85	  446.27
      9.2700	  612.00	  560.32	-1721.85	  446.46
      9.3700	  634.00	  560.50	-1721.85	  446.63
      9.4700	  592.00	  560.67	-1721.85	  446.80
      9.5700	  549.00	  560.83	-1721.85	  446.96
      9.6700	  586.00	  560.98	-1721.85	  447.12
      9.7700	  585.00	  561.13	-1721.85	  447.26
      9.8700	  584.00	  561.27	-1721.85	  447.41
      9.9700	  600.00	  561.41	-1721.85	  447.54
     10.0700	  562.00	  563.25	-1723.10	  447.67
     10.1700	  586.00	  563.57	-1699.41	  447.79
     10.2700	  597.00	  563.92	-1688.76	  447.91
     10.3700	  562.00	  564.32	-1724.17	  448.02
     10.4700	  596.00	  564.83	-1690.68	  448.12
     10.5700	  615.00	  565.49	-1672.34	  448.22
     10.6700	  597.00	  566.41	-1691.26	  448.31
     10.7700	  601.00	  567.68	-1688.52	  448.39
     10.8700	  586.00	  569.38	-1705.23	  448.47
     10.9700	  551.00	  571.54	-1742.39	  448.54
     11.0700	  600.00	  574.16	-1696.01	  448.61
     11.1700	  588.00	  577.24	-1711.09	  448.67
     11.2700	  585.00	  580.83	-1717.68	  448.72
     11.3700	  578.00	  585.01	-1728.86	  448.77
     11.4700	  586.00	  589.94	-1725.79	  448.81
     11.5700	  557.00	  595.86	-1760.70	  448.85
     11.6700	  590.00	  603.12	-1734.97	  448.88
     11.7700	  602.00	  612.23	-1732.07	  448.91
     11.8700	  663.00	  623.58	-1682.43	  448.93
     11.9700	  668.00	  636.92	-1690.77	  448.94
     12.0700	  691.00	  650.35	-1681.19	  448.95
     12.1700	  650.00	  659.40	-1731.25	  448.96
     12.2700	  700.00	  657.50	-1679.35	  448.96
     12.3700	  725.00	  641.63	-1638.47	  448.95
     12.4700	  621.00	  619.17	-1720.02	  448.94
     12.5700	  594.00	  599.48	-1727.33	  448.92
     12.6700	  575.00	  585.84	-1732.68	  448.90
     12.7700	  558.00	  577.60	-1741.45	  448.87
     12.8700	  534.00	  572.96	-1760.81	  448.84
     12.9700	  581.00	  570.32	-1711.17	  448.80
     13.0700	  573.00	  568.68	-1717.53	  448.76
     13.1700	  555.00	  567.55	-1734.40	  448.72
     13.2700	  587.00	  566.70	-1701.55	  448.66
     13.3700	  565.00	  566.04	-1722.89	  448.61
     13.4700	  526.00	  565.50	-1761.35	  448.55
     13.5700	  538.00	  565.05	-1748.90	  448.48
     13.6700	  552.00	  564.67	-1734.52	  448.41
     13.7700	  543.00	  564.34	-1743.19	  448.33
     13.8700	  578.00	  564.05	-1707.90	  448.26
     13.9700	  571.00	  563.79	-1714.63	  448.17
     14.0700	  530.00	  563.55	-1755.39	  448.08
     14.1700	  518.00	  563.35	-1767.20	  447.99
     14.2700	  543.00	  563.14	-1741.99	  447.89
     14.3700	  543.00	  562.95	-1741.79	  447.79
     14.4700	  543.00	  562.75	-1741.60	  447.69
     14.5700	  553.00	  562.57	-1731.42	  447.58
     14.6700	  576.00	  562.39	-1708.24	  447.46
     14.7700	  550.00	  562.21	-1734.06	  447.34
     14.8700	  569.00	  562.04	-1714.89	  447.22
     14.9700	  519.00	  561.87	-1764.71	  447.10
     15.0700	  577.00	  561.69	-1706.54	  446.97
     15.1700	  543.00	  561.52	-1740.37	  446.83
     15.2700	  531.00	  561.35	-1752.20	  446.69
     15.3700	  575.00	  561.18	-1708.03	  446.55
     15.4700	  574.00	  561.00	-1708.85	  446.41
     15.5700	  535.00	  560.83	-1747.68	  446.26
     15.6700	  538.00	  560.65	-1744.50	  446.10
     15.7700	  546.00	  560.48	-1736.32	  445.95
     15.8700	  578.00	  560.30	-1704.14	  445.79
     15.9700	  520.00	  560.11	-1761.96	  445.62
     16.0700	  586.00	  559.93	-1695.78	  445.46
     16.1700	  539.00	  559.75	-1742.59	  445.29
     16.2700	  587.00	  559.56	-1694.40	  445.11
     16.3700	  564.00	  559.37	-1717.21	  444.93
     16.4700	  540.00	  559.17	-1741.02	  444.75
     16.5700	  562.00	  558.98	-1718.83	  444.57
     16.6700	  582.00	  558.78	-1698.63	  444.38
     16.7700	  504.00	  558.58	-1776.43	  444.19
     16.8700	  531.00	  558.38	-1749.23	  444.00
     16.9700	  565.00	  558.17	-1715.02	  443.80
     17.0700	  541.00	  557.97	-1738.81	  443.60
     17.1700	  545.00	  557.76	-1734.60	  443.40
     17.2700	  553.00	  557.55	-1726.39	  443.19
     17.3700	  533.00	  557.33	-1746.18	  442.98
     17.4700	  597.00	  557.11	-1681.96	  442.77
     17.5700	  572.00	  556.89	-1706.74	  442.55
     17.6700	  537.00	  556.67	-1741.52	  442.34
     17.7700	  572.00	  556.45	-1706.29	  442.12
     17.8700	  545.00	  556.33	-1733.17	  441.89
     17.9700	  504.00	  556.10	-1773.95	  441.67
     18.0700	  554.00	  555.87	-1723.72	  441.44
     18.1700	  520.00	  555.64	-1757.49	  441.21
     18.2700	  545.00	  555.40	-1732.25	  440.97
     18.3700	  522.00	  555.27	-1755.12	  440.74
     18.4700	  523.00	  555.03	-1753.88	  440.50
     18.5700	  555.00	  554.79	-1721.64	  440.25
     18.6700	  545.00	  554.55	-1731.40	  440.01
     18.7700	  581.00	  554.31	-1695.16	  439.76
     18.8700	  549.00	  554.07	-1726.92	  439.51
     18.9700	  527.00	  553.82	-1748.67	  439.26
     19.0700	  576.00	  553.57	-1699.42	  439.01
     19.1700	  563.00	  553.32	-1712.17	  438.75
     19.2700	  565.00	  553.07	-1709.92	  438.50
     19.3700	  534.00	  552.82	-1740.67	  438.24
     19.4700	  537.00	  552.57	-1737.41	  437.97
     19.5700	  581.00	  552.31	-1693.16	  437.71
     19.6700	  574.00	  552.05	-1699.90	  437.44
     19.7700	  571.00	  551.79	-1702.64	  437.17
     19.8700	  546.00	  551.53	-1727.38	  436.90
     19.9700	  565.00	  551.31	-1708.16	  436.63
     20.0700	  519.00	  551.05	-1753.89	  436.35
     20.1700	  576.00	  550.78	-1696.63	  436.08
     20.2700	  558.00	  550.52	-1714.36	  435.80
     20.3700	  522.00	  550.25	-1750.10	  435.52
     20.4700	  562.00	  549.99	-1709.83	  435.24
     20.5700	  518.00	  549.72	-1753.57	  434.95
     20.6700	  530.00	  549.45	-1741.30	  434.67
     20.7700	  561.00	  549.18	-1710.03	  434.38
     20.8700	  551.00	  548.91	-1719.76	  434.09
     20.9700	  552.00	  548.64	-1718.49	  433.80
     21.0700	  544.00	  548.37	-1726.22	  433.51
     21.1700	  571.00	  548.11	-1698.95	  433.21
     21.2700	  559.00	  547.84	-1710.68	  432.92
     21.3700	  574.00	  547.57	-1695.42	  432.62
     21.4700	  512.00	  547.30	-1757.15	  432.32
     21.5700	  553.00	  547.03	-1715.88	  432.02
     21.6700	  546.00	  546.77	-1722.61	  431.72
     21.7700	  559.00	  546.50	-1709.35	  431.42
     21.8700	  499.00	  546.24	-1769.09	  431.11
     21.9700	  520.00	  545.98	-1747.83	  430.81
     22.0700	  533.00	  545.72	-1734.57	  430.50
     22.1700	  496.00	  545.47	-1771.31	  430.19
     22.2700	  544.00	  545.22	-1723.06	  429.89
     22.3700	  532.00	  544.97	-1734.82	  429.58
     22.4700	  589.00	  544.68	-1677.53	  429.26
     22.5700	  510.00	  544.61	-1756.45	  428.95
     22.6700	  581.00	  544.39	-1685.23	  428.64
     22.7700	  579.00	  544.18	-1687.02	  428.32
     22.8700	  541.00	  543.98	-1724.83	  428.01
     22.9700	  528.00	  543.80	-1737.65	  427.69
     23.0700	  535.00	  543.64	-1730.48	  427.37
     23.1700	  560.00	  543.50	-1705.35	  427.05
     23.2700	  528.00	  543.39	-1737.24	  426.73
     23.3700	  537.00	  543.32	-1728.17	  426.41
     23.4700	  547.00	  543.31	-1718.16	  426.09
     23.5700	  531.00	  543.36	-1734.21	  425.77
     23.6700	  568.00	  543.53	-1697.37	  425.45
     23.7700	  519.00	  543.85	-1746.70	  425.12
     23.8700	  535.00	  544.44	-1731.29	  424.80
     23.9700	  542.00	  545.50	-1725.35	  424.47
     24.0700	  540.00	  547.34	-1729.19	  424.15
     24.1700	  530.00	  550.46	-1742.31	  423.82
     24.2700	  587.00	  555.45	-1690.30	  423.49
     24.3700	  625.00	  562.91	-1659.76	  423.16
     24.4700	  542.00	  573.16	-1753.01	  422.83
     24.5700	  601.00	  585.79	-1706.64	  422.50
     24.6700	  599.00	  598.98	-1721.83	  422.18
     24.7700	  626.00	  608.78	-1704.63	  421.84
     24.8700	  638.00	  609.63	-1693.48	  421.51
     24.9700	  665.00	  598.96	-1655.81	  421.18
     25.0700	  661.00	  582.27	-1643.12	  420.85
     25.1700	  579.00	  566.81	-1709.66	  420.52
     25.2700	  577.00	  555.57	-1700.42	  420.19
     25.3700	  590.00	  548.49	-1680.33	  419.85
     25.4700	  523.00	  544.37	-1743.22	  419.52
     25.5700	  547.00	  542.00	-1716.85	  419.19
     25.6700	  569.00	  540.55	-1693.40	  418.85
     25.7700	  553.00	  539.58	-1708.42	  418.52
     25.8700	  534.00	  538.87	-1726.71	  418.18
     25.9700	  515.00	  538.34	-1745.19	  417.85
     26.0700	  571.00	  537.94	-1688.79	  417.52
     26.1700	  624.00	  537.67	-1635.51	  417.18
     26.2700	  559.00	  537.49	-1700.34	  416.85
     26.3700	  573.00	  537.41	-1686.26	  416.51
     26.4700	  552.00	  537.43	-1707.28	  416.18
     26.5700	  530.00	  537.56	-1729.41	  415.84
     26.6700	  536.00	  537.81	-1723.66	  415.50
     26.7700	  546.00	  538.21	-1714.06	  415.17
     26.8700	  515.00	  538.79	-1745.64	  414.83
     26.9700	  553.00	  539.59	-1708.44	  414.50
     27.0700	  570.00	  540.69	-1692.53	  414.16
     27.1700	  596.00	  542.19	-1668.04	  413.83
     27.2700	  569.00	  544.32	-1697.17	  413.49
     27.3700	  567.00	  547.48	-1702.33	  413.16
     27.4700	  562.00	  552.46	-1712.31	  412.82
     27.5700	  541.00	  560.72	-1741.56	  412.49
     27.6700	  553.00	  574.63	-1743.47	  412.15
     27.7700	  593.00	  597.48	-1726.33	  411.82
     27.8700	  608.00	  632.62	-1746.46	  411.49
     27.9700	  649.00	  681.36	-1754.20	  411.15
     28.0700	  754.00	  740.17	-1708.02	  410.82
     28.1700	  806.00	  797.76	-1713.61	  410.48
     28.2700	  904.00	  834.33	-1652.18	  410.15
     28.3700	  935.00	  830.86	-1617.71	  409.82
     28.4700	  817.00	  795.31	-1700.16	  409.49
     28.5700	  775.00	  761.67	-1708.52	  409.15
     28.6700	  704.00	  753.13	-1770.97	  408.82
     28.7700	  735.00	  771.14	-1757.99	  408.49
     28.8700	  805.00	  800.83	-1717.67	  408.16
     28.9700	  829.00	  816.67	-1709.51	  407.83
     29.0700	  805.00	  794.78	-1711.63	  407.50
     29.1700	  741.00	  737.73	-1718.58	  407.17
     29.2700	  655.00	  672.87	-1739.72	  406.84
     29.3700	  591.00	  620.18	-1751.03	  406.51
     29.4700	  623.00	  584.71	-1683.56	  406.18
     29.5700	  585.00	  563.67	-1700.52	  405.86
     29.6700	  609.00	  551.95	-1664.80	  405.53
     29.7700	  617.00	  545.36	-1650.21	  405.20
     29.8700	  591.00	  541.41	-1672.26	  404.88
     29.9700	  543.00	  538.94	-1717.79	  404.55
     30.0700	  507.00	  537.52	-1752.37	  404.23
     30.1700	  539.00	  537.16	-1720.00	  403.90
     30.2700	  543.00	  538.19	-1717.04	  403.58
     30.3700	  555.00	  541.36	-1708.21	  403.26
     30.4700	  561.00	  547.79	-1708.64	  402.94
     30.5700	  545.00	  558.69	-1735.53	  402.61
     30.6700	  559.00	  574.53	-1737.37	  402.29
     30.7700	  591.00	  593.90	-1724.74	  401.97
     30.8700	  633.00	  612.57	-1701.42	  401.66
     30.9700	  613.00	  623.33	-1732.18	  401.34
     31.0700	  572.00	  618.90	-1768.74	  401.02
     31.1700	  620.00	  600.09	-1701.93	  400.70
     31.2700	  594.00	  576.68	-1704.52	  400.39
     31.3700	  552.00	  556.64	-1726.49	  400.07
     31.4700	  528.00	  542.57	-1736.42	  399.76
     31.5700	  535.00	  533.90	-1720.75	  399.45
     31.6700	  524.00	  528.97	-1726.82	  399.13
     31.7700	  555.00	  526.19	-1693.04	  398.82
     31.8700	  544.00	  524.54	-1702.39	  398.51
     31.9700	  530.00	  523.48	-1715.32	  398.20
     32.0700	  535.00	  522.77	-1709.62	  397.89
     32.1700	  510.00	  522.32	-1734.17	  397.59
     32.2700	  550.00	  522.09	-1693.94	  397.28
     32.3700	  542.00	  522.07	-1701.91	  396.98
     32.4700	  548.00	  522.25	-1696.10	  396.67
     32.5700	  516.00	  522.66	-1728.50	  396.37
     32.6700	  569.00	  523.33	-1676.17	  396.06
     32.7700	  511.00	  524.31	-1735.16	  395.76
     32.8700	  578.00	  525.70	-1669.55	  395.46
     32.9700	  533.00	  527.64	-1716.48	  395.16
     33.0700	  534.00	  530.37	-1718.22	  394.87
     33.1700	  564.00	  534.42	-1692.27	  394.57
     33.2700	  520.00	  540.80	-1742.65	  394.27
     33.3700	  532.00	  551.50	-1741.35	  393.98
     33.4700	  571.00	  570.04	-1720.88	  393.68
     33.5700	  608.00	  601.56	-1715.41	  393.39
     33.6700	  665.00	  651.91	-1708.75	  393.10
     33.7700	  680.00	  723.99	-1765.84	  392.81
     33.8700	  825.00	  812.81	-1709.66	  392.52
     33.9700	  972.00	  900.90	-1650.75	  392.23
     34.0700	 1022.00	  957.94	-1657.78	  391.95
     34.1700	 1067.00	  951.93	-1606.77	  391.66
     34.2700	  969.00	  880.82	-1633.66	  391.38
     34.3700	  813.00	  781.74	-1690.58	  391.09
     34.4700	  698.00	  690.91	-1714.76	  390.81
     34.5700	  590.00	  623.44	-1755.29	  390.53
     34.6700	  570.00	  579.82	-1731.66	  390.25
     34.7700	  552.00	  554.15	-1724.00	  389.97
     34.8700	  569.00	  539.60	-1692.45	  389.70
     34.9700	  513.00	  531.04	-1739.89	  389.42
     35.0700	  551.00	  525.52	-1696.36	  389.15
     35.1700	  546.00	  521.57	-1697.42	  388.87
     35.2700	  534.00	  518.55	-1706.40	  388.60
     35.3700	  527.00	  516.14	-1710.99	  388.33
     35.4700	  512.00	  514.14	-1723.99	  388.06
     35.5700	  490.00	  512.49	-1744.34	  387.80
     35.6700	  536.00	  511.10	-1696.95	  387.53
     35.7700	  482.00	  509.90	-1749.75	  387.27
     35.8700	  566.00	  509.33	-1665.17	  387.00
     35.9700	  496.00	  508.42	-1734.27	  386.74
     36.0700	  516.00	  507.64	-1713.49	  386.48
     36.1700	  478.00	  506.93	-1750.78	  386.22
     36.2700	  503.00	  506.31	-1725.15	  385.96
     36.3700	  528.00	  505.75	-1699.60	  385.71
     36.4700	  493.00	  505.26	-1734.10	  385.45
     36.5700	  470.00	  504.83	-1756.68	  385.20
     36.6700	  477.00	  504.47	-1749.32	  384.95
     36.7700	  513.00	  504.20	-1713.04	  384.70
     36.8700	  483.00	  504.04	-1742.89	  384.45
     36.9700	  477.00	  504.09	-1748.94	  384.20
     37.0700	  496.00	  504.47	-1730.32	  383.95
     37.1700	  496.00	  505.39	-1731.24	  383.71
     37.2700	  514.00	  507.12	-1714.96	  383.47
     37.3700	  528.00	  509.84	-1703.69	  383.23
     37.4700	  562.00	  513.52	-1673.37	  382.99
     37.5700	  528.00	  517.62	-1711.47	  382.75
     37.6700	  483.00	  521.03	-1759.87	  382.51
     37.7700	  486.00	  522.24	-1758.08	  382.28
     37.8700	  493.00	  520.57	-1749.42	  382.04
     37.9700	  519.00	  516.51	-1719.35	  381.81
     38.0700	  541.00	  511.88	-1692.72	  381.58
     38.1700	  507.00	  507.73	-1722.58	  381.35
     38.2700	  524.00	  504.45	-1702.30	  381.12
     38.3700	  457.00	  502.09	-1766.94	  380.90
     38.4700	  506.00	  500.48	-1716.33	  380.67
     38.5700	  485.00	  499.40	-1736.25	  380.45
     38.6700	  487.00	  498.64	-1733.49	  380.23
     38.7700	  480.00	  498.08	-1739.93	  380.01
     38.8700	  492.00	  497.64	-1727.48	  379.79
     38.9700	  523.00	  497.16	-1696.01	  379.57
     39.0700	  503.00	  496.83	-1715.68	  379.36
     39.1700	  475.00	  496.53	-1743.38	  379.15
     39.2700	  518.00	  496.26	-1700.11	  378.93
     39.3700	  485.00	  496.01	-1732.86	  378.72
     39.4700	  486.00	  495.77	-1731.62	  378.52
     39.5700	  518.00	  495.56	-1699.40	  378.31
     39.6700	  508.00	  495.35	-1709.20	  378.10
     39.7700	  487.00	  495.16	-1730.01	  377.90
     39.8700	  499.00	  494.89	-1717.73	  377.70
     39.9700	  511.00	  494.72	-1705.57	  377.50
     40.0700	  474.00	  494.57	-1742.42	  377.30
     40.1700	  470.00	  494.43	-1746.28	  377.10
     40.2700	  475.00	  494.31	-1741.16	  376.91
     40.3700	  453.00	  494.20	-1763.05	  376.72
     40.4700	  486.00	  494.11	-1729.96	  376.52
     40.5700	  511.00	  494.55	-1705.39	  376.33
     40.6700	  509.00	  494.50	-1707.35	  376.14
     40.7700	  489.00	  494.48	-1727.33	  375.96
     40.8700	  475.00	  494.49	-1741.34	  375.77
     40.9700	  471.00	  494.54	-1745.39	  375.59
     41.0700	  497.00	  494.62	-1719.47	  375.41
     41.1700	  503.00	  494.76	-1713.61	  375.23
     41.2700	  499.00	  494.96	-1717.80	  375.05
     41.3700	  485.00	  495.23	-1732.08	  374.87
     41.4700	  507.00	  495.61	-1710.46	  374.70
     41.5700	  455.00	  496.13	-1762.98	  374.52
     41.6700	  487.00	  496.86	-1731.71	  374.35
     41.7700	  501.00	  497.94	-1718.79	  374.18
     41.8700	  475.00	  499.65	-1746.49	  374.02
     41.9700	  502.00	  502.49	-1722.34	  373.85
     42.0700	  506.00	  507.36	-1723.21	  373.68
     42.1700	  500.00	  515.51	-1737.36	  373.52
     42.2700	  525.00	  528.27	-1725.11	  373.36
     42.3700	  547.00	  546.64	-1721.49	  373.20
     42.4700	  513.00	  569.66	-1778.51	  373.04
     42.5700	  571.00	  594.17	-1745.02	  372.89
     42.6700	  560.00	  613.70	-1775.55	  372.73
     42.7700	  627.00	  620.29	-1715.14	  372.58
     42.8700	  570.00	  610.06	-1761.91	  372.43
     42.9700	  598.00	  587.86	-1711.71	  372.28
     43.0700	  541.00	  562.47	-1743.32	  372.13
     43.1700	  526.00	  540.24	-1736.08	  371.99
     43.2700	  511.00	  523.22	-1734.07	  371.84
     43.3700	  495.00	  511.71	-1738.56	  371.70
     43.4700	  508.00	  504.54	-1718.39	  371.56
     43.5700	  510.00	  500.29	-1712.14	  371.42
     43.6700	  449.00	  497.76	-1770.61	  371.28
     43.7700	  461.00	  496.17	-1757.01	  371.15
     43.8700	  458.00	  495.07	-1758.92	  371.01
     43.9700	  511.00	  494.27	-1705.12	  370.88
     44.0700	  491.00	  493.65	-1724.50	  370.75
     44.1700	  497.00	  493.20	-1718.05	  370.62
     44.2700	  493.00	  492.81	-1721.66	  370.50
     44.3700	  515.00	  492.49	-1699.34	  370.37
     44.4700	  528.00	  492.44	-1686.29	  370.25
     44.5700	  474.00	  492.24	-1740.09	  370.13
     44.6700	  475.00	  492.09	-1738.94	  370.01
     44.7700	  476.00	  491.98	-1737.82	  369.89
     44.8700	  482.00	  491.90	-1731.75	  369.77
     44.9700	  493.00	  491.85	-1720.70	  369.66
     45.0700	  505.00	  491.84	-1708.69	  369.54
     45.1700	  509.00	  491.85	-1704.70	  369.43
     45.2700	  499.00	  491.90	-1714.74	  369.32
     45.3700	  494.00	  491.97	-1719.82	  369.21
     45.4700	  460.00	  492.07	-1753.91	  369.11
     45.5700	  497.00	  492.20	-1717.04	  369.00
     45.6700	  486.00	  492.36	-1728.20	  368.90
     45.7700	  509.00	  492.39	-1705.24	  368.80
     45.8700	  507.00	  492.62	-1707.47	  368.70
     45.9700	  502.00	  492.89	-1712.74	  368.60
     46.0700	  496.00	  493.27	-1719.11	  368.51
     46.1700	  527.00	  493.63	-1688.48	  368.41
     46.2700	  449.00	  494.08	-1766.93	  368.32
     46.3700	  490.00	  494.58	-1726.43	  368.23
     46.4700	  508.00	  495.14	-1708.99	  368.14
     46.5700	  533.00	  495.79	-1684.64	  368.05
     46.6700	  511.00	  496.56	-1707.40	  367.97
     46.7700	  497.00	  497.48	-1722.33	  367.88
     46.8700	  527.00	  498.64	-1693.49	  367.80
     46.9700	  482.00	  500.18	-1740.02	  367.72
     47.0700	  489.00	  502.36	-1735.21	  367.64
     47.1700	  522.00	  505.65	-1705.50	  367.56
     47.2700	  496.00	  510.73	-1736.58	  367.49
     47.3700	  502.00	  518.44	-1738.29	  367.41
     47.4700	  497.00	  529.54	-1754.39	  367.34
     47.5700	  562.00	  544.28	-1704.13	  367.27
     47.6700	  546.00	  561.84	-1737.69	  367.20
     47.7700	  567.00	  579.78	-1734.63	  367.13
     47.8700	  590.00	  593.84	-1725.69	  367.07
     47.9700	  577.00	  599.20	-1744.04	  367.00
     48.0700	  577.00	  593.90	-1738.75	  366.94
     48.1700	  576.00	  581.05	-1726.90	  366.88
     48.2700	  570.00	  565.90	-1717.75	  366.82
     48.3700	  569.00	  552.40	-1705.24	  366.76
     48.4700	  536.00	  542.89	-1728.73	  366.71
     48.5700	  551.00	  537.08	-1707.93	  366.65
     48.6700	  519.00	  535.01	-1737.85	  366.60
     48.7700	  538.00	  535.98	-1719.83	  366.55
     48.8700	  521.00	  539.42	-1740.26	  366.50
     48.9700	  521.00	  545.03	-1745.88	  366.45
     49.0700	  544.00	  553.02	-1730.87	  366.40
     49.1700	  529.00	  564.32	-1757.16	  366.36
     49.2700	  567.00	  581.10	-1735.95	  366.32
     49.3700	  579.00	  607.75	-1750.59	  366.28
     49.4700	  632.00	  652.10	-1741.95	  366.24
     49.5700	  633.00	  726.33	-1815.18	  366.20
     49.6700	  784.00	  846.16	-1784.00	  366.16
     49.7700	  954.00	 1026.97	-1794.82	  366.13
     49.8700	 1219.00	 1276.10	-1778.95	  366.09
     49.9700	 1574.00	 1582.87	-1730.71	  366.06
     50.0700	 1899.00	 1908.45	-1731.30	  366.03
     50.1700	 2258.00	 2180.45	-1644.29	  366.00
     50.2700	 2389.00	 2307.52	-1640.36	  365.97
     50.3700	 2334.00	 2233.23	-1621.08	  365.95
     50.4700	 1967.00	 1990.31	-1745.16	  365.92
     50.5700	 1640.00	 1671.17	-1753.02	  365.90
     50.6700	 1259.00	 1358.82	-1821.67	  365.88
     50.7700	  959.00	 1100.45	-1863.30	  365.86
     50.8700	  803.00	  912.26	-1831.11	  365.84
     50.9700	  738.00	  789.17	-1773.02	  365.82
     51.0700	  689.00	  715.26	-1748.11	  365.81
     51.1700	  640.00	  671.24	-1753.08	  365.79
     51.2700	  649.00	  642.10	-1714.95	  365.78
     51.3700	  571.00	  619.07	-1769.91	  365.77
     51.4700	  577.00	  599.13	-1743.98	  365.76
     51.5700	  580.00	  582.03	-1723.88	  365.75
     51.6700	  547.00	  568.07	-1742.92	  365.75
     51.7700	  591.00	  557.33	-1688.18	  365.74
     51.8700	  555.00	  549.61	-1716.45	  365.74
     51.9700	  543.00	  544.47	-1723.31	  365.74
     52.0700	  538.00	  541.42	-1725.27	  365.73
     52.1700	  580.00	  540.07	-1681.92	  365.74
     52.2700	  584.00	  540.20	-1678.05	  365.74
     52.3700	  551.00	  541.86	-1712.71	  365.74
     52.4700	  559.00	  545.45	-1708.29	  365.75
     52.5700	  548.00	  551.96	-1725.80	  365.75
     52.6700	  571.00	  563.24	-1714.08	  365.76
     52.7700	  619.00	  582.27	-1685.11	  365.77
     52.8700	  640.00	  613.21	-1695.06	  365.78
     52.9700	  661.00	  660.87	-1721.71	  365.79
     53.0700	  738.00	  729.31	-1713.16	  365.81
     53.1700	  847.00	  819.70	-1694.54	  365.82
     53.2700	  995.00	  927.72	-1654.57	  365.84
     53.3700	 1033.00	 1040.98	-1729.82	  365.85
     53.4700	 1119.00	 1137.33	-1740.18	  365.87
     53.5700	 1137.00	 1188.42	-1773.27	  365.89
     53.6700	 1214.00	 1174.34	-1682.19	  365.91
     53.7700	 1110.00	 1100.61	-1712.45	  365.94
     53.8700	  941.00	  993.54	-1774.39	  365.96
     53.9700	  868.00	  880.58	-1734.43	  365.98
     54.0700	  814.00	  779.63	-1687.47	  366.01
     54.1700	  675.00	  699.23	-1746.08	  366.04
     54.2700	  668.00	  640.91	-1694.75	  366.07
     54.3700	  610.00	  601.89	-1713.73	  366.10
     54.4700	  588.00	  577.51	-1711.35	  366.13
     54.5700	  604.00	  563.08	-1680.93	  366.16
     54.6700	  563.00	  554.93	-1713.77	  366.20
     54.7700	  590.00	  550.56	-1682.41	  366.23
     54.8700	  597.00	  548.53	-1673.38	  366.27
     54.9700	  546.00	  548.08	-1723.93	  366.31
     55.0700	  519.00	  548.85	-1751.69	  366.35
     55.1700	  571.00	  550.70	-1701.54	  366.39
     55.2700	  614.00	  553.62	-1661.47	  366.43
     55.3700	  548.00	  557.71	-1731.56	  366.47
     55.4700	  600.00	  563.16	-1685.01	  366.51
     55.5700	  581.00	  570.35	-1711.20	  366.56
     55.6700	  602.00	  579.99	-1699.84	  366.61
     55.7700	  606.00	  593.45	-1709.30	  366.65
     55.8700	  599.00	  613.34	-1736.19	  366.70
     55.9700	  647.00	  644.19	-1719.04	  366.75
     56.0700	  657.00	  693.52	-1758.37	  366.80
     56.1700	  728.00	  771.96	-1765.81	  366.85
     56.2700	  847.00	  892.62	-1767.47	  366.91
     56.3700	 1021.00	 1068.28	-1769.13	  366.96
     56.4700	 1262.00	 1306.42	-1766.27	  367.02
     56.5700	 1526.00	 1602.98	-1798.82	  367.07
     56.6700	 1949.00	 1935.86	-1708.71	  367.13
     56.7700	 2323.00	 2259.51	-1658.36	  367.19
     56.8700	 2441.00	 2504.58	-1785.42	  367.25
     56.9700	 2564.00	 2596.50	-1754.34	  367.31
     57.0700	 2414.00	 2500.86	-1808.71	  367.37
     57.1700	 2280.00	 2253.21	-1695.05	  367.43
     57.2700	 1954.00	 1929.56	-1697.41	  367.50
     57.3700	 1543.00	 1599.46	-1778.31	  367.56
     57.4700	 1213.00	 1307.71	-1816.56	  367.63
     57.5700	 1010.00	 1075.62	-1787.47	  367.69
     57.6700	  925.00	  906.91	-1703.76	  367.76
     57.7700	  841.00	  794.20	-1675.05	  367.83
     57.8700	  744.00	  725.44	-1703.29	  367.90
     57.9700	  731.00	  688.90	-1679.75	  367.97
     58.0700	  732.00	  675.86	-1665.71	  368.04
     58.1700	  727.00	  681.30	-1676.15	  368.11
     58.2700	  724.00	  703.10	-1700.94	  368.19
     58.3700	  732.00	  740.63	-1730.48	  368.26
     58.4700	  861.00	  793.27	-1654.11	  368.34
     58.5700	  854.00	  858.83	-1726.68	  368.41
     58.6700	  984.00	  932.40	-1670.25	  368.49
     58.7700	 1097.00	 1006.29	-1631.13	  368.57
     58.8700	 1206.00	 1072.80	-1588.65	  368.65
     58.9700	 1206.00	 1127.46	-1643.31	  368.73
     59.0700	 1293.00	 1167.49	-1596.33	  368.81
     59.1700	 1357.00	 1188.66	-1553.51	  368.89
     59.2700	 1380.00	 1188.72	-1530.57	  368.97
     59.3700	 1280.00	 1173.01	-1614.86	  369.05
     59.4700	 1267.00	 1152.46	-1607.30	  369.14
     59.5700	 1246.00	 1136.61	-1612.46	  369.22
     59.6700	 1231.00	 1131.91	-1622.76	  369.31
     59.7700	 1155.00	 1144.72	-1711.56	  369.39
     59.8700	 1266.00	 1181.83	-1637.68	  369.48
     59.9700	 1345.00	 1245.70	-1622.55	  369.57
     60.0700	 1395.00	 1329.55	-1656.40	  369.66
     60.1700	 1447.00	 1415.58	-1690.43	  369.75
     60.2700	 1524.00	 1476.49	-1674.34	  369.84
     60.3700	 1463.00	 1484.03	-1742.88	  369.93
     60.4700	 1474.00	 1425.75	-1673.60	  370.02
     60.5700	 1411.00	 1314.10	-1624.94	  370.11
     60.6700	 1243.00	 1175.66	-1654.50	  370.20
     60.7700	 1055.00	 1035.50	-1702.35	  370.30
     60.8700	  894.00	  910.76	-1738.61	  370.39
     60.9700	  804.00	  810.64	-1728.49	  370.49
     61.0700	  723.00	  738.17	-1737.02	  370.58
     61.1700	  688.00	  692.45	-1726.30	  370.68
     61.2700	  634.00	  671.07	-1758.92	  370.77
     61.3700	  656.00	  672.17	-1738.02	  370.87
     61.4700	  681.00	  695.51	-1736.36	  370.97
     61.5700	  740.00	  742.34	-1724.19	  371.07
     61.6700	  777.00	  814.21	-1759.06	  371.17
     61.7700	  885.00	  911.02	-1747.86	  371.27
     61.8700	  950.00	 1028.75	-1800.60	  371.37
     61.9700	 1086.00	 1157.64	-1793.49	  371.47
     62.0700	 1220.00	 1280.69	-1782.54	  371.57
     62.1700	 1309.00	 1373.97	-1786.82	  371.67
     62.2700	 1316.00	 1412.46	-1818.31	  371.78
     62.3700	 1331.00	 1383.27	-1774.12	  371.88
     62.4700	 1275.00	 1295.30	-1742.15	  371.98
     62.5700	 1102.00	 1172.45	-1792.30	  372.09
     62.6700	  990.00	 1039.56	-1771.41	  372.19
     62.7700	  858.00	  914.80	-1778.65	  372.30
     62.8700	  716.00	  808.86	-1814.70	  372.40
     62.9700	  684.00	  725.98	-1763.83	  372.51
     63.0700	  652.00	  665.69	-1735.54	  372.62
     63.1700	  575.00	  624.62	-1771.47	  372.72
     63.2700	  637.00	  598.31	-1683.16	  372.83
     63.3700	  596.00	  582.62	-1708.47	  372.94
     63.4700	  609.00	  574.35	-1687.20	  373.05
     63.5700	  644.00	  571.61	-1649.45	  373.16
     63.6700	  561.00	  573.75	-1734.60	  373.26
     63.7700	  592.00	  581.17	-1711.01	  373.37
     63.8700	  618.00	  594.98	-1698.83	  373.48
     63.9700	  656.00	  616.71	-1682.55	  373.59
     64.0700	  615.00	  647.79	-1754.64	  373.70
     64.1700	  742.00	  689.00	-1668.85	  373.82
     64.2700	  770.00	  739.71	-1691.56	  373.93
     64.3700	  831.00	  797.34	-1688.18	  374.04
     64.4700	  879.00	  856.69	-1699.54	  374.15
     64.5700	  937.00	  909.81	-1694.66	  374.26
     64.6700	 1026.00	  947.58	-1643.42	  374.37
     64.7700	  951.00	  962.92	-1733.77	  374.49
     64.8700	  988.00	  953.39	-1687.24	  374.60
     64.9700	  986.00	  923.18	-1659.03	  374.71
     65.0700	  924.00	  878.73	-1676.58	  374.83
     65.1700	  815.00	  828.20	-1735.05	  374.94
     65.2700	  787.00	  778.37	-1713.22	  375.05
     65.3700	  714.00	  733.37	-1741.22	  375.17
     65.4700	  670.00	  694.40	-1746.25	  375.28
     65.5700	  646.00	  661.63	-1737.48	  375.40
     65.6700	  573.00	  634.72	-1783.56	  375.51
     65.7700	  584.00	  613.27	-1751.11	  375.63
     65.8700	  549.00	  596.77	-1769.61	  375.74
     65.9700	  548.00	  584.56	-1758.41	  375.86
     66.0700	  588.00	  575.98	-1709.83	  375.97
     66.1700	  530.00	  570.46	-1762.31	  376.09
     66.2700	  535.00	  567.50	-1754.35	  376.20
     66.3700	  554.00	  566.79	-1734.63	  376.32
     66.4700	  557.00	  568.07	-1732.92	  376.43
     66.5700	  543.00	  571.45	-1750.30	  376.55
     66.6700	  563.00	  576.95	-1735.80	  376.66
     66.7700	  549.00	  585.13	-1757.98	  376.78
     66.8700	  552.00	  597.38	-1767.22	  376.90
     66.9700	  596.00	  615.89	-1741.74	  377.01
     67.0700	  607.00	  644.15	-1759.00	  377.13
     67.1700	  739.00	  687.13	-1669.97	  377.24
     67.2700	  728.00	  751.22	-1745.07	  377.36
     67.3700	  840.00	  843.80	-1725.65	  377.48
     67.4700	  948.00	  971.53	-1745.37	  377.59
     67.5700	 1154.00	 1138.94	-1706.79	  377.71
     67.6700	 1309.00	 1345.65	-1758.49	  377.82
     67.7700	 1564.00	 1584.03	-1741.88	  377.94
     67.8700	 1802.00	 1837.48	-1757.32	  378.05
     67.9700	 2111.00	 2078.74	-1689.59	  378.17
     68.0700	 2328.00	 2270.91	-1664.76	  378.29
     68.1700	 2363.00	 2373.98	-1732.83	  378.40
     68.2700	 2359.00	 2361.59	-1724.43	  378.52
     68.3700	 2374.00	 2237.09	-1584.94	  378.63
     68.4700	 2040.00	 2031.45	-1713.30	  378.75
     68.5700	 1834.00	 1785.09	-1672.94	  378.86
     68.6700	 1508.00	 1533.27	-1747.12	  378.98
     68.7700	 1286.00	 1300.93	-1736.78	  379.09
     68.8700	 1089.00	 1102.61	-1735.46	  379.21
     68.9700	  875.00	  944.27	-1791.12	  379.32
     69.0700	  764.00	  824.95	-1782.80	  379.44
     69.1700	  755.00	  739.54	-1706.39	  379.55
     69.2700	  658.00	  680.82	-1744.67	  379.66
     69.3700	  667.00	  641.91	-1696.76	  379.78
     69.4700	  572.00	  616.50	-1766.35	  379.89
     69.5700	  641.00	  599.91	-1680.76	  380.00
     69.6700	  553.00	  588.93	-1757.78	  380.12
     69.7700	  578.00	  581.49	-1725.33	  380.23
     69.8700	  548.00	  576.37	-1750.21	  380.34
     69.9700	  566.00	  572.85	-1728.70	  380.45
     70.0700	  611.00	  570.58	-1681.43	  380.56
     70.1700	  553.00	  569.37	-1738.22	  380.68
     70.2700	  571.00	  569.17	-1720.01	  380.79
     70.3700	  579.00	  570.02	-1712.86	  380.90
     70.4700	  613.00	  572.10	-1680.95	  381.01
     70.5700	  577.00	  575.80	-1720.65	  381.12
     70.6700	  572.00	  581.80	-1731.65	  381.23
     70.7700	  575.00	  591.20	-1738.05	  381.34
     70.8700	  582.00	  605.79	-1745.64	  381.45
     70.9700	  600.00	  628.16	-1750.00	  381.56
     71.0700	  619.00	  661.72	-1764.57	  381.66
     71.1700	  688.00	  710.68	-1744.53	  381.77
     71.2700	  829.00	  780.40	-1673.24	  381.88
     71.3700	  874.00	  873.15	-1720.99	  381.99
     71.4700	  992.00	  992.09	-1721.94	  382.09
     71.5700	 1099.00	 1136.56	-1759.41	  382.20
     71.6700	 1314.00	 1301.64	-1709.49	  382.31
     71.7700	 1496.00	 1477.22	-1703.07	  382.41
     71.8700	 1581.00	 1647.31	-1788.16	  382.52
     71.9700	 1751.00	 1790.17	-1761.02	  382.62
     72.0700	 1790.00	 1881.22	-1813.07	  382.72
     72.1700	 1841.00	 1900.86	-1781.71	  382.83
     72.2700	 1819.00	 1844.39	-1747.24	  382.93
     72.3700	 1736.00	 1724.84	-1710.68	  383.03
     72.4700	 1566.00	 1565.53	-1721.37	  383.13
     72.5700	 1448.00	 1390.25	-1664.10	  383.24
     72.6700	 1315.00	 1218.03	-1624.88	  383.34
     72.7700	 1108.00	 1061.82	-1675.67	  383.44
     72.8700	  928.00	  928.96	-1722.80	  383.54
     72.9700	  820.00	  822.08	-1723.93	  383.63
     73.0700	  809.00	  740.24	-1653.09	  383.73
     73.1700	  720.00	  680.19	-1682.04	  383.83
     73.2700	  690.00	  637.64	-1669.49	  383.93
     73.3700	  667.00	  608.23	-1663.08	  384.02
     73.4700	  647.00	  587.65	-1662.50	  384.12
     73.5700	  604.00	  573.93	-1691.78	  384.22
     73.6700	  614.00	  564.42	-1672.27	  384.31
     73.7700	  652.00	  557.68	-1627.53	  384.40
     73.8700	  609.00	  552.81	-1665.66	  384.50
     73.9700	  600.00	  549.26	-1671.11	  384.59
     74.0700	  586.00	  546.68	-1682.53	  384.68
     74.1700	  585.00	  544.86	-1681.71	  384.77
     74.2700	  567.00	  543.61	-1698.46	  384.86
     74.3700	  597.00	  542.78	-1667.63	  384.95
     74.4700	  600.00	  542.20	-1664.04	  385.04
     74.5700	  569.00	  541.68	-1694.53	  385.13
     74.6700	  603.00	  541.06	-1659.90	  385.22
     74.7700	  638.00	  540.19	-1624.04	  385.31
     74.8700	  664.00	  539.08	-1596.93	  385.39
     74.9700	  632.00	  537.82	-1627.67	  385.48
     75.0700	  591.00	  536.62	-1667.46	  385.56
     75.1700	  594.00	  535.71	-1663.56	  385.65
     75.2700	  573.00	  535.39	-1684.24	  385.73
     75.3700	  568.00	  535.95	-1689.80	  385.81
     75.4700	  616.00	  537.78	-1643.63	  385.89
     75.5700	  570.00	  541.24	-1693.08	  385.97
     75.6700	  513.00	  546.88	-1755.73	  386.05
     75.7700	  594.00	  555.10	-1682.95	  386.13
     75.8700	  597.00	  566.25	-1691.10	  386.21
     75.9700	  569.00	  580.49	-1733.34	  386.29
     76.0700	  589.00	  597.67	-1730.52	  386.36
     76.1700	  637.00	  617.13	-1701.97	  386.44
     76.2700	  660.00	  637.96	-1699.81	  386.51
     76.3700	  642.00	  658.48	-1738.32	  386.59
     76.4700	  686.00	  676.49	-1712.34	  386.66
     76.5700	  678.00	  689.48	-1733.32	  386.73
     76.6700	  740.00	  695.14	-1676.98	  386.80
     76.7700	  708.00	  692.28	-1706.13	  386.87
     76.8700	  690.00	  681.39	-1713.24	  386.94
     76.9700	  630.00	  664.58	-1756.43	  387.01
     77.0700	  605.00	  644.30	-1761.15	  387.08
     77.1700	  641.00	  622.90	-1703.75	  387.14
     77.2700	  612.00	  602.21	-1712.06	  387.21
     77.3700	  583.00	  583.47	-1722.32	  387.27
     77.4700	  520.00	  567.43	-1769.28	  387.34
     77.5700	  530.00	  554.35	-1746.20	  387.40
     77.6700	  487.00	  543.95	-1778.80	  387.46
     77.7700	  517.00	  536.31	-1741.16	  387.52
     77.8700	  535.00	  530.78	-1717.63	  387.58
     77.9700	  552.00	  526.89	-1696.74	  387.64
     78.0700	  513.00	  524.22	-1733.06	  387.70
     78.1700	  506.00	  522.39	-1738.24	  387.75
     78.2700	  474.00	  521.16	-1769.01	  387.81
     78.3700	  513.00	  520.33	-1729.18	  387.86
     78.4700	  548.00	  519.77	-1693.62	  387.92
     78.5700	  464.00	  519.42	-1777.27	  387.97
     78.6700	  509.00	  519.23	-1732.08	  388.02
     78.7700	  506.00	  519.20	-1735.04	  388.07
     78.8700	  543.00	  519.31	-1698.16	  388.12
     78.9700	  524.00	  519.59	-1717.44	  388.17
     79.0700	  492.00	  520.07	-1749.92	  388.21
     79.1700	  501.00	  520.78	-1741.62	  388.26
     79.2700	  547.00	  521.75	-1696.60	  388.30
     79.3700	  486.00	  523.03	-1758.88	  388.35
     79.4700	  469.00	  524.65	-1777.50	  388.39
     79.5700	  523.00	  526.66	-1725.51	  388.43
     79.6700	  543.00	  529.11	-1707.95	  388.47
     79.7700	  499.00	  532.04	-1754.88	  388.51
     79.8700	  481.00	  535.52	-1776.37	  388.55
     79.9700	  549.00	  539.65	-1712.50	  388.58
     80.0700	  503.00	  544.53	-1763.38	  388.62
     80.1700	  527.00	  550.13	-1744.98	  388.65
     80.2700	  503.00	  557.09	-1775.94	  388.69
     80.3700	  518.00	  565.51	-1769.36	  388.72
     80.4700	  536.00	  575.68	-1761.53	  388.75
     80.5700	  626.00	  587.80	-1683.65	  388.78
     80.6700	  599.00	  601.86	-1724.71	  388.81
     80.7700	  640.00	  617.61	-1699.45	  388.83
     80.8700	  632.00	  634.46	-1724.31	  388.86
     80.9700	  681.00	  651.57	-1692.42	  388.88
     81.0700	  630.00	  667.90	-1759.75	  388.91
     81.1700	  620.00	  682.42	-1784.27	  388.93
     81.2700	  706.00	  694.30	-1710.15	  388.95
     81.3700	  744.00	  702.92	-1680.77	  388.97
     81.4700	  752.00	  707.83	-1677.68	  388.99
     81.5700	  731.00	  708.76	-1699.61	  389.01
     81.6700	  746.00	  705.58	-1681.43	  389.02
     81.7700	  737.00	  698.32	-1683.17	  389.04
     81.8700	  720.00	  687.26	-1689.10	  389.05
     81.9700	  713.00	  673.04	-1681.89	  389.06
     82.0700	  702.00	  656.73	-1676.57	  389.07
     82.1700	  660.00	  639.50	-1701.34	  389.08
     82.2700	  640.00	  622.41	-1704.25	  389.09
     82.3700	  657.00	  606.23	-1671.07	  389.10
     82.4700	  601.00	  591.47	-1712.32	  389.10
     82.5700	  607.00	  578.44	-1693.29	  389.11
     82.6700	  630.00	  567.35	-1659.20	  389.11
     82.7700	  529.00	  558.30	-1751.15	  389.11
     82.8700	  563.00	  551.31	-1710.16	  389.12
     82.9700	  552.00	  546.35	-1716.20	  389.11
     83.0700	  529.00	  543.34	-1736.18	  389.11
     83.1700	  548.00	  542.17	-1716.01	  389.11
     83.2700	  526.00	  542.69	-1738.54	  389.10
     83.3700	  527.00	  544.69	-1739.54	  389.10
     83.4700	  548.00	  548.06	-1721.91	  389.09
     83.5700	  542.00	  552.46	-1732.30	  389.08
     83.6700	  563.00	  557.47	-1716.32	  389.07
     83.7700	  555.00	  562.73	-1729.58	  389.06
     83.8700	  547.00	  567.65	-1742.50	  389.05
     83.9700	  538.00	  571.62	-1755.47	  389.03
     84.0700	  582.00	  574.06	-1713.91	  389.02
     84.1700	  527.00	  574.52	-1769.37	  389.00
     84.2700	  532.00	  572.87	-1762.71	  388.98
     84.3700	  554.00	  569.31	-1737.16	  388.96
     84.4700	  520.00	  564.31	-1766.16	  388.94
     84.5700	  534.00	  558.46	-1746.30	  388.92
     84.6700	  569.00	  552.26	-1705.11	  388.90
     84.7700	  552.00	  546.17	-1716.02	  388.87
     84.8700	  552.00	  540.51	-1710.36	  388.84
     84.9700	  550.00	  535.51	-1707.36	  388.82
     85.0700	  518.00	  531.28	-1735.13	  388.79
     85.1700	  521.00	  527.85	-1728.70	  388.76
     85.2700	  470.00	  525.20	-1777.05	  388.72
     85.3700	  502.00	  523.25	-1743.09	  388.69
     85.4700	  497.00	  521.90	-1746.75	  388.66
     85.5700	  528.00	  521.08	-1714.93	  388.62
     85.6700	  490.00	  520.71	-1752.55	  388.58
     85.7700	  517.00	  520.74	-1725.59	  388.54
     85.8700	  502.00	  521.19	-1741.03	  388.50
     85.9700	  516.00	  522.08	-1727.92	  388.46
     86.0700	  508.00	  523.50	-1737.34	  388.42
     86.1700	  524.00	  525.57	-1723.42	  388.37
     86.2700	  501.00	  528.45	-1749.29	  388.33
     86.3700	  539.00	  532.31	-1715.15	  388.28
     86.4700	  546.00	  537.32	-1713.17	  388.23
     86.5700	  566.00	  543.65	-1699.49	  388.18
     86.6700	  546.00	  551.36	-1727.21	  388.13
     86.7700	  561.00	  560.48	-1721.33	  388.07
     86.8700	  610.00	  570.87	-1682.72	  388.02
     86.9700	  565.00	  582.27	-1739.11	  387.96
     87.0700	  592.00	  594.22	-1724.07	  387.91
     87.1700	  625.00	  606.12	-1702.96	  387.85
     87.2700	  593.00	  617.17	-1746.02	  387.79
     87.3700	  628.00	  626.46	-1720.31	  387.72
     87.4700	  619.00	  633.04	-1735.89	  387.66
     87.5700	  617.00	  636.14	-1740.99	  387.60
     87.6700	  646.00	  635.40	-1711.25	  387.53
     87.7700	  617.00	  631.03	-1735.88	  387.46
     87.8700	  651.00	  623.72	-1694.57	  387.39
     87.9700	  642.00	  614.03	-1693.87	  387.32
     88.0700	  600.00	  603.76	-1725.61	  387.25
     88.1700	  620.00	  593.46	-1695.31	  387.18
     88.2700	  627.00	  583.92	-1678.76	  387.10
     88.3700	  526.00	  575.74	-1771.59	  387.03
     88.4700	  571.00	  569.39	-1720.23	  386.95
     88.5700	  599.00	  565.10	-1687.94	  386.87
     88.6700	  540.00	  562.95	-1744.80	  386.79
     88.7700	  601.00	  562.87	-1683.72	  386.71
     88.8700	  568.00	  564.60	-1718.45	  386.62
     88.9700	  556.00	  567.80	-1733.65	  386.54
     89.0700	  582.00	  571.98	-1711.83	  386.45
     89.1700	  588.00	  576.60	-1710.45	  386.36
     89.2700	  597.00	  581.04	-1705.89	  386.27
     89.3700	  626.00	  584.67	-1680.51	  386.18
     89.4700	  647.00	  586.88	-1661.73	  386.09
     89.5700	  589.00	  587.27	-1720.12	  386.00
     89.6700	  585.00	  585.66	-1722.51	  385.90
     89.7700	  559.00	  582.19	-1745.04	  385.81
     89.8700	  565.00	  577.24	-1734.09	  385.71
     89.9700	  556.00	  571.28	-1737.13	  385.61
     90.0700	  529.00	  564.81	-1757.66	  385.51
     90.1700	  564.00	  558.25	-1716.10	  385.41
     90.2700	  550.00	  551.96	-1723.80	  385.30
     90.3700	  515.00	  546.19	-1753.03	  385.20
     90.4700	  466.00	  541.11	-1796.96	  385.09
     90.5700	  490.00	  536.83	-1768.68	  384.99
     90.6700	  541.00	  533.37	-1714.22	  384.88
     90.7700	  531.00	  530.69	-1721.54	  384.77
     90.8700	  526.00	  528.75	-1724.60	  384.65
     90.9700	  521.00	  527.46	-1728.31	  384.54
     91.0700	  513.00	  526.76	-1735.61	  384.43
     91.1700	  579.00	  526.58	-1669.43	  384.31
     91.2700	  511.00	  526.90	-1737.75	  384.19
     91.3700	  502.00	  527.71	-1747.56	  384.07
     91.4700	  529.00	  529.06	-1721.91	  383.95
     91.5700	  525.00	  531.02	-1727.87	  383.83
     91.6700	  536.00	  533.73	-1719.57	  383.71
     91.7700	  521.00	  537.32	-1738.17	  383.58
     91.8700	  540.00	  542.00	-1723.85	  383.46
     91.9700	  570.00	  547.97	-1699.81	  383.33
     92.0700	  555.00	  555.42	-1722.26	  383.20
     92.1700	  559.00	  564.53	-1727.38	  383.07
     92.2700	  537.00	  575.46	-1760.31	  382.94
     92.3700	  563.00	  588.26	-1747.11	  382.81
     92.4700	  578.00	  602.92	-1746.77	  382.68
     92.5700	  585.00	  619.29	-1756.14	  382.54
     92.6700	  609.00	  637.11	-1749.96	  382.40
     92.7700	  669.00	  655.97	-1708.81	  382.27
     92.8700	  627.00	  675.30	-1770.15	  382.13
     92.9700	  693.00	  694.42	-1723.27	  381.99
     93.0700	  673.00	  712.56	-1761.41	  381.85
     93.1700	  744.00	  729.01	-1706.86	  381.70
     93.2700	  722.00	  743.01	-1742.86	  381.56
     93.3700	  751.00	  755.00	-1725.85	  381.41
     93.4700	  790.00	  764.94	-1696.79	  381.27
     93.5700	  806.00	  773.32	-1689.16	  381.12
     93.6700	  819.00	  780.66	-1683.50	  380.97
     93.7700	  826.00	  787.43	-1683.27	  380.82
     93.8700	  803.00	  794.03	-1712.87	  380.66
     93.9700	  773.00	  800.83	-1749.67	  380.51
     94.0700	  837.00	  808.26	-1693.11	  380.36
     94.1700	  828.00	  816.80	-1710.65	  380.20
     94.2700	  832.00	  826.80	-1716.64	  380.04
     94.3700	  870.00	  838.36	-1690.21	  379.89
     94.4700	  877.00	  851.21	-1696.06	  379.73
     94.5700	  908.00	  864.62	-1678.46	  379.57
     94.6700	  907.00	  877.42	-1692.26	  379.40
     94.7700	  907.00	  888.12	-1702.96	  379.24
     94.8700	  915.00	  895.06	-1701.90	  379.08
     94.9700	  938.00	  896.69	-1680.54	  378.91
     95.0700	  841.00	  891.98	-1772.83	  378.74
     95.1700	  906.00	  880.68	-1696.53	  378.58
     95.2700	  841.00	  863.44	-1744.29	  378.41
     95.3700	  849.00	  841.62	-1714.47	  378.24
     95.4700	  810.00	  816.97	-1728.82	  378.07
     95.5700	  772.00	  791.37	-1741.22	  377.89
     95.6700	  763.00	  766.67	-1725.51	  377.72
     95.7700	  748.00	  744.55	-1718.40	  377.54
     95.8700	  711.00	  726.57	-1737.42	  377.37
     95.9700	  724.00	  714.10	-1711.95	  377.19
     96.0700	  657.00	  708.35	-1773.19	  377.01
     96.1700	  668.00	  710.33	-1764.17	  376.83
     96.2700	  690.00	  720.87	-1752.72	  376.65
     96.3700	  737.00	  740.60	-1725.45	  376.47
     96.4700	  731.00	  769.88	-1760.72	  376.29
     96.5700	  797.00	  808.77	-1733.62	  376.11
     96.6700	  831.00	  857.01	-1747.86	  375.92
     96.7700	  980.00	  913.86	-1655.71	  375.74
     96.8700	  935.00	  978.10	-1764.95	  375.55
     96.9700	 1048.00	 1047.94	-1721.79	  375.36
     97.0700	 1103.00	 1121.03	-1739.88	  375.17
     97.1700	 1225.00	 1194.41	-1691.26	  374.99
     97.2700	 1219.00	 1264.54	-1767.39	  374.79
     97.3700	 1322.00	 1327.40	-1727.25	  374.60
     97.4700	 1427.00	 1378.80	-1673.65	  374.41
     97.5700	 1438.00	 1414.83	-1698.68	  374.22
     97.6700	 1475.00	 1432.59	-1679.43	  374.02
     97.7700	 1383.00	 1430.77	-1769.62	  373.83
     97.8700	 1363.00	 1410.05	-1768.89	  373.63
     97.9700	 1292.00	 1372.80	-1802.64	  373.43
     98.0700	 1316.00	 1322.52	-1728.37	  373.24
     98.1700	 1227.00	 1263.19	-1758.03	  373.04
     98.2700	 1209.00	 1198.78	-1711.63	  372.84
     98.3700	 1092.00	 1133.00	-1762.85	  372.64
     98.4700	 1012.00	 1069.16	-1779.01	  372.44
     98.5700	  989.00	 1010.07	-1742.92	  372.23
     98.6700	  913.00	  958.10	-1766.94	  372.03
     98.7700	  887.00	  915.18	-1750.03	  371.83
     98.8700	  849.00	  882.86	-1755.71	  371.62
     98.9700	  806.00	  862.32	-1778.17	  371.42
     99.0700	  861.00	  854.42	-1715.26	  371.21
     99.1700	  888.00	  859.72	-1693.56	  371.00
     99.2700	  856.00	  878.55	-1744.39	  370.80
     99.3700	  958.00	  911.01	-1674.86	  370.59
     99.4700	  980.00	  956.88	-1698.73	  370.38
     99.5700	 1019.00	 1015.80	-1718.65	  370.17
     99.6700	 1081.00	 1086.91	-1727.76	  369.96
     99.7700	 1148.00	 1168.99	-1742.84	  369.75
     99.8700	 1263.00	 1260.36	-1719.21	  369.54
     99.9700	 1360.00	 1358.72	-1720.56	  369.32
    100.0700	 1540.00	 1461.19	-1643.04	  369.11
    100.1700	 1582.00	 1564.31	-1704.16	  368.90
    100.2700	 1604.00	 1664.15	-1782.00	  368.68
    100.3700	 1747.00	 1756.64	-1731.48	  368.47
    100.4700	 1970.00	 1837.93	-1589.78	  368.25
    100.5700	 1902.00	 1904.86	-1724.70	  368.04
    100.6700	 2016.00	 1955.14	-1660.99	  367.82
    100.7700	 1936.00	 1987.33	-1773.18	  367.60
    100.8700	 1984.00	 2000.50	-1738.35	  367.38
    100.9700	 1928.00	 1994.24	-1788.09	  367.17
    101.0700	 1951.00	 1968.72	-1739.57	  366.95
    101.1700	 1880.00	 1925.07	-1766.92	  366.73
    101.2700	 1880.00	 1865.65	-1707.50	  366.51
    101.3700	 1825.00	 1793.98	-1690.82	  366.29
    101.4700	 1658.00	 1714.40	-1778.24	  366.07
    101.5700	 1643.00	 1631.47	-1710.32	  365.85
    101.6700	 1557.00	 1549.42	-1714.27	  365.63
    101.7700	 1458.00	 1471.77	-1735.62	  365.41
    101.8700	 1402.00	 1401.17	-1721.01	  365.18
    101.9700	 1376.00	 1339.32	-1685.16	  364.96
    102.0700	 1293.00	 1287.02	-1715.87	  364.74
    102.1700	 1336.00	 1244.19	-1630.04	  364.52
    102.2700	 1182.00	 1209.97	-1749.81	  364.29
    102.3700	 1206.00	 1182.85	-1698.70	  364.07
    102.4700	 1157.00	 1160.79	-1725.64	  363.85
    102.5700	 1158.00	 1141.43	-1705.28	  363.62
    102.6700	 1072.00	 1122.34	-1772.19	  363.40
    102.7700	 1102.00	 1101.37	-1721.21	  363.18
    102.8700	 1033.00	 1076.93	-1765.78	  362.95
    102.9700	 1037.00	 1048.23	-1733.08	  362.73
    103.0700	 1002.00	 1015.25	-1735.09	  362.50
    103.1700	  959.00	  978.58	-1741.43	  362.28
    103.2700	  952.00	  939.23	-1709.07	  362.05
    103.3700	  900.00	  898.34	-1720.19	  361.83
    103.4700	  848.00	  857.10	-1730.95	  361.60
    103.5700	  801.00	  816.58	-1737.43	  361.38
    103.6700	  755.00	  777.71	-1744.55	  361.15
    103.7700	  795.00	  741.25	-1668.10	  360.93
    103.8700	  762.00	  707.78	-1667.62	  360.71
    103.9700	  700.00	  677.67	-1699.52	  360.48
    104.0700	  628.00	  651.13	-1744.97	  360.26
    104.1700	  652.00	  628.17	-1698.02	  360.03
    104.2700	  635.00	  608.69	-1695.54	  359.81
    104.3700	  581.00	  592.47	-1733.32	  359.58
    104.4700	  599.00	  579.22	-1702.07	  359.36
    104.5700	  603.00	  568.59	-1687.43	  359.14
    104.6700	  576.00	  560.23	-1706.08	  358.91
    104.7700	  559.00	  553.81	-1716.66	  358.69
    104.8700	  577.00	  549.01	-1693.86	  358.46
    104.9700	  550.00	  545.56	-1717.41	  358.24
    105.0700	  556.00	  543.21	-1709.06	  358.02
    105.1700	  562.00	  541.79	-1701.64	  357.80
    105.2700	  512.00	  541.15	-1751.00	  357.57
    105.3700	  554.00	  541.18	-1709.03	  357.35
    105.4700	  522.00	  541.84	-1741.68	  357.13
    105.5700	  541.00	  543.08	-1723.93	  356.91
    105.6700	  528.00	  544.92	-1738.76	  356.69
    105.7700	  537.00	  547.37	-1732.21	  356.47
    105.8700	  549.00	  550.47	-1723.32	  356.25
    105.9700	  588.00	  554.31	-1688.16	  356.03
    106.0700	  569.00	  558.93	-1711.77	  355.81
    106.1700	  589.00	  564.36	-1697.21	  355.60
    106.2700	  564.00	  570.63	-1728.47	  355.38
    106.3700	  589.00	  577.70	-1710.55	  355.16
    106.4700	  597.00	  585.52	-1710.37	  354.95
    106.5700	  587.00	  593.96	-1728.81	  354.73
    106.6700	  603.00	  602.90	-1721.75	  354.52
    106.7700	  621.00	  612.12	-1712.97	  354.30
    106.8700	  616.00	  621.38	-1727.23	  354.09
    106.9700	  604.00	  630.39	-1748.24	  353.88
    107.0700	  643.00	  638.87	-1717.71	  353.67
    107.1700	  670.00	  646.49	-1698.33	  353.45
    107.2700	  678.00	  652.99	-1696.83	  353.24
    107.3700	  678.00	  658.16	-1702.01	  353.04
    107.4700	  643.00	  661.93	-1740.78	  352.83
    107.5700	  656.00	  664.34	-1730.19	  352.62
    107.6700	  701.00	  665.58	-1686.43	  352.41
    107.7700	  645.00	  665.95	-1742.80	  352.21
    107.8700	  644.00	  665.78	-1743.63	  352.00
    107.9700	  654.00	  665.42	-1733.27	  351.80
    108.0700	  676.00	  665.17	-1711.02	  351.60
    108.1700	  705.00	  665.26	-1682.10	  351.40
    108.2700	  690.00	  665.84	-1697.69	  351.20
    108.3700	  692.00	  666.96	-1696.81	  351.00
    108.4700	  683.00	  668.60	-1707.44	  350.80
    108.5700	  663.00	  670.59	-1729.43	  350.60
    108.6700	  688.00	  672.72	-1706.57	  350.41
    108.7700	  666.00	  674.69	-1730.53	  350.21
    108.8700	  696.00	  676.13	-1701.98	  350.02
    108.9700	  676.00	  676.69	-1722.54	  349.83
    109.0700	  674.00	  676.00	-1723.85	  349.64
    109.1700	  632.00	  673.82	-1763.67	  349.45
    109.2700	  660.00	  669.99	-1731.84	  349.26
    109.3700	  703.00	  664.53	-1683.38	  349.07
    109.4700	  673.00	  657.57	-1706.42	  348.89
    109.5700	  636.00	  649.36	-1735.20	  348.71
    109.6700	  591.00	  640.18	-1771.03	  348.52
    109.7700	  651.00	  630.36	-1701.21	  348.34
    109.8700	  620.00	  620.23	-1722.08	  348.17
    109.9700	  589.00	  610.09	-1742.93	  347.99
    110.0700	  599.00	  600.18	-1723.03	  347.81
    110.1700	  602.00	  590.74	-1710.59	  347.64
    110.2700	  590.00	  581.95	-1713.80	  347.47
    110.3700	  590.00	  573.94	-1705.79	  347.30
    110.4700	  563.00	  566.81	-1725.66	  347.13
    110.5700	  520.00	  560.63	-1762.48	  346.96
    110.6700	  543.00	  555.40	-1734.25	  346.80
    110.7700	  565.00	  551.12	-1707.96	  346.63
    110.8700	  575.00	  547.75	-1694.59	  346.47
    110.9700	  536.00	  545.23	-1731.08	  346.31
    111.0700	  572.00	  543.50	-1693.34	  346.16
    111.1700	  556.00	  542.47	-1708.32	  346.00
    111.2700	  562.00	  542.07	-1701.91	  345.85
    111.3700	  594.00	  542.21	-1670.06	  345.70
    111.4700	  539.00	  542.82	-1725.67	  345.55
    111.5700	  554.00	  543.84	-1711.69	  345.40
    111.6700	  536.00	  545.19	-1731.04	  345.26
    111.7700	  579.00	  546.83	-1689.68	  345.12
    111.8700	  508.00	  548.72	-1762.57	  344.98
    111.9700	  561.00	  550.82	-1711.67	  344.84
    112.0700	  567.00	  553.11	-1707.96	  344.70
    112.1700	  576.00	  555.59	-1701.43	  344.57
    112.2700	  552.00	  558.25	-1728.10	  344.44
    112.3700	  568.00	  561.11	-1714.96	  344.31
    112.4700	  562.00	  564.21	-1724.05	  344.18
    112.5700	  558.00	  567.57	-1731.41	  344.06
    112.6700	  536.00	  571.24	-1757.08	  343.94
    112.7700	  577.00	  575.28	-1720.13	  343.82
    112.8700	  615.00	  579.78	-1686.63	  343.71
    112.9700	  577.00	  584.83	-1729.67	  343.59
    113.0700	  605.00	  590.55	-1707.39	  343.48
    113.1700	  623.00	  597.10	-1695.94	  343.38
    113.2700	  616.00	  604.68	-1710.53	  343.27
    113.3700	  587.00	  613.56	-1748.40	  343.17
    113.4700	  622.00	  624.06	-1723.91	  343.07
    113.5700	  642.00	  636.61	-1716.45	  342.97
    113.6700	  667.00	  651.72	-1706.57	  342.88
    113.7700	  680.00	  670.07	-1711.91	  342.79
    113.8700	  753.00	  692.45	-1661.30	  342.70
    113.9700	  734.00	  719.84	-1707.69	  342.62
    114.0700	  760.00	  753.41	-1715.26	  342.54
    114.1700	  791.00	  794.52	-1725.37	  342.46
    114.2700	  921.00	  844.74	-1645.59	  342.38
    114.3700	  890.00	  905.87	-1737.72	  342.31
    114.4700	 1016.00	  979.87	-1685.71	  342.24
    114.5700	 1140.00	 1068.85	-1650.70	  342.18
    114.6700	 1161.00	 1175.04	-1735.89	  342.11
    114.7700	 1407.00	 1300.69	-1615.54	  342.05
    114.8700	 1558.00	 1448.01	-1611.85	  342.00
    114.9700	 1706.00	 1619.03	-1634.88	  341.95
    115.0700	 1888.00	 1815.45	-1649.30	  341.90
    115.1700	 2149.00	 2038.52	-1611.36	  341.85
    115.2700	 2398.00	 2288.92	-1612.76	  341.81
    115.3700	 2629.00	 2566.63	-1659.48	  341.77
    115.4700	 2942.00	 2870.68	-1650.53	  341.74
    115.5700	 3173.00	 3199.13	-1747.98	  341.71
    115.6700	 3565.00	 3548.88	-1705.73	  341.68
    115.7700	 3909.00	 3915.80	-1728.64	  341.66
    115.8700	 4139.00	 4294.58	-1877.43	  341.64
    115.9700	 4614.00	 4678.62	-1786.47	  341.62
    116.0700	 4912.00	 5060.23	-1870.08	  341.61
    116.1700	 5204.00	 5430.64	-1948.49	  341.61
    116.2700	 5883.00	 5780.27	-1619.12	  341.60
    116.3700	 6034.00	 6098.92	-1786.77	  341.60
    116.4700	 6355.00	 6376.02	-1742.86	  341.61
    116.5700	 6603.00	 6601.39	-1720.24	  341.62
    116.6700	 6680.00	 6765.97	-1807.82	  341.63
    116.7700	 6810.00	 6862.73	-1774.57	  341.65
    116.8700	 6802.00	 6887.39	-1807.24	  341.67
    116.9700	 6704.00	 6839.05	-1856.89	  341.69
    117.0700	 6698.00	 6720.27	-1744.12	  341.72
    117.1700	 6507.00	 6536.82	-1751.67	  341.76
    117.2700	 6305.00	 6296.79	-1713.63	  341.80
    117.3700	 5861.00	 6009.75	-1870.60	  341.84
    117.4700	 5647.00	 5686.08	-1760.92	  341.89
    117.5700	 5341.00	 5336.10	-1716.95	  341.94
    117.6700	 5051.00	 4969.72	-1640.57	  342.00
    117.7700	 4513.00	 4595.96	-1804.81	  342.06
    117.8700	 4287.00	 4222.80	-1657.65	  342.13
    117.9700	 4045.00	 3857.24	-1534.09	  342.20
    118.0700	 3599.00	 3505.07	-1627.92	  342.27
    118.1700	 3344.00	 3170.94	-1548.79	  342.35
    118.2700	 2951.00	 2858.26	-1629.11	  342.44
    118.3700	 2552.00	 2569.36	-1739.21	  342.53
    118.4700	 2376.00	 2305.70	-1651.54	  342.63
    118.5700	 2034.00	 2067.78	-1755.63	  342.73
    118.6700	 1864.00	 1855.43	-1713.28	  342.83
    118.7700	 1713.00	 1667.78	-1676.62	  342.94
    118.8700	 1499.00	 1503.48	-1726.32	  343.06
    118.9700	 1388.00	 1360.90	-1694.75	  343.18
    119.0700	 1190.00	 1238.16	-1770.00	  343.31
    119.1700	 1138.00	 1133.24	-1717.09	  343.44
    119.2700	 1005.00	 1044.09	-1760.94	  343.58
    119.3700	 1021.00	  968.71	-1669.56	  343.72
    119.4700	  843.00	  905.23	-1784.08	  343.87
    119.5700	  818.00	  851.93	-1755.78	  344.03
    119.6700	  761.00	  807.25	-1768.10	  344.19
    119.7700	  805.00	  769.82	-1686.67	  344.35
    119.8700	  748.00	  738.46	-1712.30	  344.52
    119.9700	  682.00	  712.14	-1751.99	  344.70
    120.0700	  656.00	  690.04	-1755.88	  344.88
    120.1700	  677.00	  671.44	-1716.28	  345.07
    120.2700	  626.00	  655.76	-1751.61	  345.27
    120.3700	  606.00	  642.53	-1758.38	  345.47
    120.4700	  565.00	  631.37	-1788.22	  345.67
    120.5700	  598.00	  621.98	-1745.82	  345.89
    120.6700	  614.00	  614.10	-1721.95	  346.11
    120.7700	  536.00	  607.55	-1793.39	  346.33
    120.8700	  554.00	  602.15	-1770.00	  346.56
    120.9700	  559.00	  597.80	-1760.65	  346.80
    121.0700	  551.00	  594.38	-1765.23	  347.05
    121.1700	  571.00	  591.82	-1742.67	  347.30
    121.2700	  546.00	  590.04	-1765.89	  347.55
    121.3700	  537.00	  588.98	-1773.83	  347.82
    121.4700	  607.00	  588.59	-1703.44	  348.09
    121.5700	  541.00	  588.83	-1769.67	  348.37
    121.6700	  554.00	  589.62	-1757.47	  348.65
    121.7700	  599.00	  590.93	-1713.78	  348.94
    121.8700	  566.00	  592.70	-1748.55	  349.24
    121.9700	  603.00	  594.86	-1713.71	  349.54
    122.0700	  568.00	  597.35	-1751.20	  349.85
    122.1700	  605.00	  600.09	-1716.94	  350.17
    122.2700	  634.00	  603.01	-1690.86	  350.50
    122.3700	  610.00	  606.01	-1717.86	  350.83
    122.4700	  587.00	  609.01	-1743.86	  351.17
    122.5700	  659.00	  611.91	-1674.75	  351.51
    122.6700	  631.00	  614.61	-1705.46	  351.87
    122.7700	  605.00	  617.02	-1733.87	  352.23
    122.8700	  608.00	  619.06	-1732.90	  352.60
    122.9700	  614.00	  620.64	-1728.49	  352.97
    123.0700	  658.00	  621.72	-1685.57	  353.36
    123.1700	  651.00	  622.26	-1693.10	  353.75
    123.2700	  627.00	  622.22	-1717.06	  354.15
    123.3700	  611.00	  621.65	-1732.50	  354.56
    123.4700	  632.00	  620.57	-1710.42	  354.97
    123.5700	  600.00	  619.01	-1740.86	  355.39
    123.6700	  693.00	  617.03	-1645.88	  355.82
    123.7700	  605.00	  614.70	-1731.54	  356.26
    123.8700	  632.00	  612.06	-1701.91	  356.71
    123.9700	  624.00	  609.20	-1707.05	  357.16
    124.0700	  627.00	  606.17	-1701.02	  357.62
    124.1700	  664.00	  603.04	-1660.88	  358.10
    124.2700	  612.00	  599.86	-1709.71	  358.57
    124.3700	  597.00	  596.67	-1721.52	  359.06
    124.4700	  605.00	  593.57	-1710.42	  359.56
    124.5700	  640.00	  590.56	-1672.41	  360.06
    124.6700	  601.00	  587.70	-1708.55	  360.57
    124.7700	  577.00	  585.00	-1729.85	  361.10
    124.8700	  575.00	  582.49	-1729.34	  361.63
    124.9700	  560.00	  476.03	-1637.88	  362.16
    125.0700	  616.00	  476.58	-1721.85	  362.71
    125.1700	  570.00	  477.14	-1721.85	  363.27
    125.2700	  590.00	  477.70	-1721.85	  363.83
    125.3700	  588.00	  478.27	-1721.85	  364.41
    125.4700	  609.00	  478.86	-1721.85	  364.99
    125.5700	  608.00	  479.45	-1721.85	  365.58
    125.6700	  577.00	  480.05	-1721.85	  366.18
    125.7700	  570.00	  480.66	-1721.85	  366.79
    125.8700	  562.00	  481.28	-1721.85	  367.41
    125.9700	  550.00	  481.91	-1721.85	  368.04
    126.0700	  552.00	  482.55	-1721.85	  368.68
    126.1700	  610.00	  483.20	-1721.85	  369.33
    126.2700	  524.00	  483.86	-1721.85	  369.99
    126.3700	  557.00	  484.53	-1721.85	  370.66
    126.4700	  601.00	  485.20	-1721.85	  371.33
    126.5700	  617.00	  485.89	-1721.85	  372.02
    126.6700	  607.00	  486.59	-1721.85	  372.72
    126.7700	  564.00	  487.29	-1721.85	  373.43
    126.8700	  610.00	  488.01	-1721.85	  374.14
    126.9700	  610.00	  488.74	-1721.85	  374.87
    127.0700	  577.00	  489.48	-1721.85	  375.61
    127.1700	  607.00	  490.22	-1721.85	  376.36
    127.2700	  604.00	  490.98	-1721.85	  377.11
    127.3700	  617.00	  491.75	-1721.85	  377.88
    127.4700	  607.00	  492.53	-1721.85	  378.66
    127.5700	  658.00	  493.32	-1721.85	  379.45
    127.6700	  631.00	  494.12	-1721.85	  380.25
    127.7700	  661.00	  494.93	-1721.85	  381.06
    127.8700	  729.00	  495.75	-1721.85	  381.88
    127.9700	  710.00	  496.58	-1721.85	  382.71
    128.0700	  693.00	  497.42	-1721.85	  383.55
    128.1700	  677.00	  498.27	-1721.85	  384.41
    128.2700	  746.00	  499.14	-1721.85	  385.27
    128.3700	  737.00	  500.01	-1721.85	  386.15
    128.4700	  782.00	  500.90	-1721.85	  387.03
    128.5700	    1.00	  501.80	-1721.85	  387.93
    128.6700	    0.00	  502.71	-1721.85	  388.84
     12.3241	        	        	        	        	       0	(  0  0  2)	  0  1
     24.9171	        	        	        	        	       0	(  0  0  4)	  0  1
     28.3684	        	        	        	        	       0	(  1  0  0)	  0  1
     29.0660	        	        	        	        	       0	(  1  0  1)	  0  1
     31.0735	        	        	        	        	       0	(  1  0  2)	  0  1
     34.1839	        	        	        	        	       0	(  1  0  3)	  0  1
     37.8269	        	        	        	        	       0	(  0  0  6)	  0  1
     38.1638	        	        	        	        	       0	(  1  0  4)	  0  1
     42.8174	        	        	        	        	       0	(  1  0  5)	  0  1
     48.0056	        	        	        	        	       0	(  1  0  6)	  0  1
     50.3300	        	        	        	        	       0	(  1  1  0)	  0  1
     51.2603	        	        	        	        	       0	(  0  0  8)	  0  1
     52.0544	        	        	        	        	       0	(  1  1  2)	  0  1
     53.6409	        	        	        	        	       0	(  1  0  7)	  0  1
     57.0062	        	        	        	        	       0	(  1  1  4)	  0  1
     58.8377	        	        	        	        	       0	(  2  0  0)	  0  1
     59.2296	        	        	        	        	       0	(  2  0  1)	  0  1
     59.6768	        	        	        	        	       0	(  1  0  8)	  0  1
     60.3960	        	        	        	        	       0	(  2  0  2)	  0  1
     62.3109	        	        	        	        	       0	(  2  0  3)	  0  1
     64.7079	        	        	        	        	       0	(  1  1  6)	  0  1
     64.9374	        	        	        	        	       0	(  2  0  4)	  0  1
     65.5031	        	        	        	        	       0	(  0  0 10)	  0  1
     66.0994	        	        	        	        	       0	(  1  0  9)	  0  1
     68.2349	        	        	        	        	       0	(  2  0  5)	  0  1
     72.1664	        	        	        	        	       0	(  2  0  6)	  0  1
     72.9228	        	        	        	        	       0	(  1  0 10)	  0  1
     74.7560	        	        	        	        	       0	(  1  1  8)	  0  1
     76.7056	        	        	        	        	       0	(  2  0  7)	  0  1
     80.1890	        	        	        	        	       0	(  1  0 11)	  0  1
     81.0011	        	        	        	        	       0	(  0  0 12)	  0  1
     81.1122	        	        	        	        	       0	(  2  1  0)	  0  1
     81.4525	        	        	        	        	       0	(  2  1  1)	  0  1
     81.8421	        	        	        	        	       0	(  2  0  8)	  0  1
     82.4716	        	        	        	        	       0	(  2  1  2)	  0  1
     84.1651	        	        	        	        	       0	(  2  1  3)	  0  1
     86.5280	        	        	        	        	       0	(  2  1  4)	  0  1
     87.0428	        	        	        	        	       0	(  1  1 10)	  0  1
     87.5878	        	        	        	        	       0	(  2  0  9)	  0  1
     87.9736	        	        	        	        	       0	(  1  0 12)	  0  1
     89.5581	        	        	        	        	       0	(  2  1  5)	  0  1
     93.2612	        	        	        	        	       0	(  2  1  6)	  0  1
     93.9848	        	        	        	        	       0	(  2  0 10)	  0  1
     95.0279	        	        	        	        	       0	(  3  0  0)	  0  1
     95.3659	        	        	        	        	       0	(  3  0  1)	  0  1
     96.3808	        	        	        	        	       0	(  3  0  2)	  0  1
     96.3998	        	        	        	        	       0	(  1  0 13)	  0  1
     97.6572	        	        	        	        	       0	(  2  1  7)	  0  1
     98.0772	        	        	        	        	       0	(  3  0  3)	  0  1
     98.5663	        	        	        	        	       0	(  0  0 14)	  0  1
    100.4646	        	        	        	        	       0	(  3  0  4)	  0  1
    101.1191	        	        	        	        	       0	(  2  0 11)	  0  1
    101.9374	        	        	        	        	       0	(  1  1 12)	  0  1
    102.7893	        	        	        	        	       0	(  2  1  8)	  0  1
    103.5624	        	        	        	        	       0	(  3  0  5)	  0  1
    105.6694	        	        	        	        	       0	(  1  0 14)	  0  1
    107.4059	        	        	        	        	       0	(  3  0  6)	  0  1
    108.7390	        	        	        	        	       0	(  2  1  9)	  0  1
    109.1470	        	        	        	        	       0	(  2  0 12)	  0  1
    112.0576	        	        	        	        	       0	(  3  0  7)	  0  1
    115.6536	        	        	        	        	       0	(  2  1 10)	  0  1
    116.1374	        	        	        	        	       0	(  1  0 15)	  0  1
    116.8140	        	        	        	        	       0	(  2  2  0)	  0  1
    117.6268	        	        	        	        	       0	(  3  0  8)	  0  1
    118.3340	        	        	        	        	       0	(  2  2  2)	  0  1
    118.3554	        	        	        	        	       0	(  2  0 13)	  0  1
    120.1033	        	        	        	        	       0	(  0  0 16)	  0  1
    120.8280	        	        	        	        	       0	(  1  1 14)	  0  1
    123.0361	        	        	        	        	       0	(  2  2  4)	  0  1
    123.8072	        	        	        	        	       0	(  2  1 11)	  0  1
    124.3098	        	        	        	        	       0	(  3  0  9)	  0  1
    124.9125	        	        	        	        	       0	(  3  1  0)	  0  1
    125.3245	        	        	        	        	       0	(  3  1  1)	  0  1
    126.5733	        	        	        	        	       0	(  3  1  2)	  0  1
    128.5218	        	        	        	        	       0	(  1  0 16)	  0  1
    128.7012	        	        	        	        	       0	(  3  1  3)	  0  1
    129.3250	        	        	        	        	       0	(  2  0 14)	  0  1
    131.5141	        	        	        	        	       0	(  2  2  6)	  0  1
    131.7929	        	        	        	        	       0	(  3  1  4)	  0  1
    132.4875	        	        	        	        	       0	(  3  0 10)	  0  1
    133.7643	        	        	        	        	       0	(  2  1 12)	  0  1
    136.0048	        	        	        	        	       0	(  3  1  5)	  0  1
    141.6421	        	        	        	        	       0	(  3  1  6)	  0  1
    143.0381	        	        	        	        	       0	(  3  0 11)	  0  1
    143.5518	        	        	        	        	       0	(  2  0 15)	  0  1
    144.7888	        	        	        	        	       0	(  1  0 17)	  0  1
    145.8554	        	        	        	        	       0	(  2  2  8)	  0  1
    147.0216	        	        	        	        	       0	(  2  1 13)	  0  1
    149.3980	        	        	        	        	       0	(  3  1  7)	  0  1
    149.9463	        	        	        	        	       0	(  1  1 16)	  0  1
    154.3945	        	        	        	        	       0	(  0  0 18)	  0  1
    159.1658	        	        	        	        	       0	(  3  0 12)	  0  1
    159.4783	        	        	        	        	       0	(  4  0  0)	  0  1
    160.4663	        	        	        	        	       0	(  4  0  1)	  0  1
    161.6618	        	        	        	        	       0	(  3  1  8)	  0  1
    163.7761	        	        	        	        	       0	(  4  0  2)	  0  1
    170.8760	        	        	        	        	       0	(  2  0 16)	  0  1
    171.8195	        	        	        	        	       0	(  4  0  3)	  0  1
    176.8088	        	        	        	        	       0	(  2  1 14)	  0  1
