MSG Master    CELL:    5.91911   5.91911  23.27912   90.0000   90.0000  120.0000   SPGR: P 63/m m c             TEMP:   1074.85
  1   1280     2.52000     0.00000    -0.12819     0.00000     0.00000    0
    99     0     2
       0.00000      10.00000
     125.00000     130.00000
 2Theta	Yobs	Ycal	Yobs-Ycal	Backg	Posr	(hkl)	K
      0.7700	    0.00	  562.81	-1742.75	  443.85
      0.8700	    0.00	  563.38	-1742.75	  444.42
      0.9700	   44.00	  563.94	-1742.75	  444.98
      1.0700	   39.00	  564.49	-1742.75	  445.53
      1.1700	   36.00	  565.03	-1742.75	  446.07
      1.2700	   45.00	  565.56	-1742.75	  446.60
      1.3700	   43.00	  566.08	-1742.75	  447.12
      1.4700	   85.00	  566.59	-1742.75	  447.64
      1.5700	  307.00	  567.10	-1742.75	  448.14
      1.6700	  445.00	  567.59	-1742.75	  448.63
      1.7700	  572.00	  568.07	-1742.75	  449.12
      1.8700	  628.00	  568.55	-1742.75	  449.59
      1.9700	  688.00	  569.01	-1742.75	  450.05
      2.0700	  806.00	  569.47	-1742.75	  450.51
      2.1700	  793.00	  569.92	-1742.75	  450.96
      2.2700	  760.00	  570.35	-1742.75	  451.39
      2.3700	  713.00	  570.78	-1742.75	  451.82
      2.4700	  712.00	  571.20	-1742.75	  452.24
      2.5700	  691.00	  571.61	-1742.75	  452.65
      2.6700	  665.00	  572.02	-1742.75	  453.06
      2.7700	  693.00	  572.41	-1742.75	  453.45
      2.8700	  613.00	  572.79	-1742.75	  453.84
      2.9700	  603.00	  573.17	-1742.75	  454.21
      3.0700	  621.00	  573.54	-1742.75	  454.58
      3.1700	  572.00	  573.90	-1742.75	  454.94
      3.2700	  623.00	  574.25	-1742.75	  455.29
      3.3700	  729.00	  574.59	-1742.75	  455.63
      3.4700	  750.00	  574.92	-1742.75	  455.97
      3.5700	  797.00	  575.25	-1742.75	  456.29
      3.6700	  877.00	  575.57	-1742.75	  456.61
      3.7700	  926.00	  575.88	-1742.75	  456.92
      3.8700	  984.00	  576.18	-1742.75	  457.22
      3.9700	 1059.00	  576.47	-1742.75	  457.52
      4.0700	 1009.00	  576.76	-1742.75	  457.80
      4.1700	 1096.00	  577.04	-1742.75	  458.08
      4.2700	 1061.00	  577.31	-1742.75	  458.35
      4.3700	 1125.00	  577.57	-1742.75	  458.61
      4.4700	 1073.00	  577.83	-1742.75	  458.87
      4.5700	  998.00	  578.07	-1742.75	  459.12
      4.6700	 1031.00	  578.31	-1742.75	  459.36
      4.7700	  990.00	  578.55	-1742.75	  459.59
      4.8700	  932.00	  578.77	-1742.75	  459.81
      4.9700	  987.00	  578.99	-1742.75	  460.03
      5.0700	  951.00	  579.20	-1742.75	  460.24
      5.1700	  911.00	  579.40	-1742.75	  460.45
      5.2700	  904.00	  579.60	-1742.75	  460.64
      5.3700	  908.00	  579.79	-1742.75	  460.83
      5.4700	  893.00	  579.97	-1742.75	  461.01
      5.5700	  887.00	  580.15	-1742.75	  461.19
      5.6700	  828.00	  580.31	-1742.75	  461.36
      5.7700	  791.00	  580.48	-1742.75	  461.52
      5.8700	  825.00	  580.63	-1742.75	  461.67
      5.9700	  784.00	  580.78	-1742.75	  461.82
      6.0700	  881.00	  580.92	-1742.75	  461.96
      6.1700	  806.00	  581.05	-1742.75	  462.09
      6.2700	  771.00	  581.18	-1742.75	  462.22
      6.3700	  724.00	  581.30	-1742.75	  462.34
      6.4700	  767.00	  581.42	-1742.75	  462.46
      6.5700	  692.00	  581.52	-1742.75	  462.57
      6.6700	  731.00	  581.63	-1742.75	  462.67
      6.7700	  729.00	  581.72	-1742.75	  462.76
      6.8700	  670.00	  581.81	-1742.75	  462.85
      6.9700	  705.00	  581.89	-1742.75	  462.94
      7.0700	  659.00	  581.97	-1742.75	  463.01
      7.1700	  646.00	  582.04	-1742.75	  463.08
      7.2700	  701.00	  582.11	-1742.75	  463.15
      7.3700	  700.00	  582.17	-1742.75	  463.21
      7.4700	  676.00	  582.22	-1742.75	  463.26
      7.5700	  665.00	  582.27	-1742.75	  463.31
      7.6700	  701.00	  582.31	-1742.75	  463.35
      7.7700	  645.00	  582.34	-1742.75	  463.38
      7.8700	  670.00	  582.37	-1742.75	  463.41
      7.9700	  695.00	  582.40	-1742.75	  463.44
      8.0700	  642.00	  582.41	-1742.75	  463.46
      8.1700	  610.00	  582.43	-1742.75	  463.47
      8.2700	  635.00	  582.43	-1742.75	  463.48
      8.3700	  623.00	  582.44	-1742.75	  463.48
      8.4700	  621.00	  582.43	-1742.75	  463.47
      8.5700	  639.00	  582.42	-1742.75	  463.47
      8.6700	  607.00	  582.41	-1742.75	  463.45
      8.7700	  652.00	  582.39	-1742.75	  463.43
      8.8700	  612.00	  582.37	-1742.75	  463.41
      8.9700	  683.00	  582.34	-1742.75	  463.38
      9.0700	  611.00	  582.30	-1742.75	  463.34
      9.1700	  624.00	  582.26	-1742.75	  463.30
      9.2700	  620.00	  582.22	-1742.75	  463.26
      9.3700	  588.00	  582.17	-1742.75	  463.21
      9.4700	  668.00	  582.11	-1742.75	  463.15
      9.5700	  683.00	  582.05	-1742.75	  463.10
      9.6700	  613.00	  581.99	-1742.75	  463.03
      9.7700	  612.00	  581.92	-1742.75	  462.96
      9.8700	  654.00	  581.85	-1742.75	  462.89
      9.9700	  617.00	  581.77	-1742.75	  462.81
     10.0700	  634.00	  582.45	-1691.20	  462.73
     10.1700	  557.00	  582.44	-1768.19	  462.64
     10.2700	  600.00	  582.45	-1725.20	  462.55
     10.3700	  610.00	  582.48	-1715.23	  462.45
     10.4700	  606.00	  582.57	-1719.32	  462.35
     10.5700	  597.00	  582.77	-1728.52	  462.25
     10.6700	  614.00	  583.17	-1711.92	  462.14
     10.7700	  584.00	  583.87	-1742.62	  462.02
     10.8700	  549.00	  584.93	-1778.68	  461.90
     10.9700	  572.00	  586.35	-1757.10	  461.78
     11.0700	  609.00	  588.09	-1721.84	  461.66
     11.1700	  594.00	  590.15	-1738.90	  461.52
     11.2700	  548.00	  592.57	-1787.32	  461.39
     11.3700	  594.00	  595.42	-1744.17	  461.25
     11.4700	  616.00	  598.82	-1725.57	  461.11
     11.5700	  593.00	  602.98	-1752.73	  460.96
     11.6700	  646.00	  608.22	-1704.97	  460.81
     11.7700	  625.00	  615.15	-1732.90	  460.66
     11.8700	  637.00	  624.62	-1730.37	  460.50
     11.9700	  691.00	  637.18	-1688.93	  460.34
     12.0700	  676.00	  651.16	-1717.91	  460.17
     12.1700	  699.00	  660.56	-1704.31	  460.01
     12.2700	  662.00	  656.33	-1737.08	  459.83
     12.3700	  655.00	  636.52	-1724.27	  459.66
     12.4700	  596.00	  613.28	-1760.03	  459.48
     12.5700	  614.00	  596.59	-1725.34	  459.29
     12.6700	  622.00	  587.60	-1708.35	  459.11
     12.7700	  585.00	  583.49	-1741.24	  458.92
     12.8700	  590.00	  581.58	-1734.33	  458.73
     12.9700	  562.00	  580.48	-1761.23	  458.53
     13.0700	  589.00	  579.70	-1733.45	  458.33
     13.1700	  551.00	  579.08	-1770.83	  458.13
     13.2700	  581.00	  578.57	-1740.32	  457.92
     13.3700	  592.00	  578.12	-1728.87	  457.71
     13.4700	  567.00	  577.72	-1753.47	  457.50
     13.5700	  529.00	  577.36	-1791.11	  457.28
     13.6700	  542.00	  577.02	-1777.77	  457.07
     13.7700	  535.00	  576.70	-1784.45	  456.84
     13.8700	  575.00	  576.39	-1744.14	  456.62
     13.9700	  586.00	  576.09	-1732.84	  456.39
     14.0700	  571.00	  575.80	-1747.55	  456.16
     14.1700	  576.00	  575.52	-1742.27	  455.93
     14.2700	  553.00	  575.24	-1764.99	  455.69
     14.3700	  551.00	  574.96	-1766.71	  455.46
     14.4700	  595.00	  574.69	-1722.44	  455.21
     14.5700	  550.00	  574.42	-1767.17	  454.97
     14.6700	  569.00	  574.14	-1747.89	  454.73
     14.7700	  596.00	  573.87	-1720.62	  454.48
     14.8700	  580.00	  573.60	-1736.35	  454.22
     14.9700	  576.00	  573.33	-1740.08	  453.97
     15.0700	  561.00	  573.05	-1754.80	  453.71
     15.1700	  554.00	  572.78	-1761.53	  453.46
     15.2700	  525.00	  572.51	-1790.26	  453.19
     15.3700	  545.00	  572.23	-1769.98	  452.93
     15.4700	  547.00	  571.95	-1767.70	  452.67
     15.5700	  565.00	  571.67	-1749.42	  452.40
     15.6700	  559.00	  571.39	-1755.14	  452.13
     15.7700	  549.00	  571.11	-1764.86	  451.85
     15.8700	  525.00	  570.83	-1788.58	  451.58
     15.9700	  541.00	  570.55	-1772.30	  451.30
     16.0700	  561.00	  570.26	-1752.01	  451.02
     16.1700	  522.00	  570.00	-1790.75	  450.74
     16.2700	  593.00	  569.71	-1719.46	  450.46
     16.3700	  565.00	  569.42	-1747.17	  450.17
     16.4700	  583.00	  569.13	-1728.88	  449.89
     16.5700	  532.00	  568.84	-1779.59	  449.60
     16.6700	  583.00	  568.54	-1728.29	  449.31
     16.7700	  540.00	  568.25	-1771.00	  449.01
     16.8700	  565.00	  567.95	-1745.70	  448.72
     16.9700	  559.00	  567.65	-1751.40	  448.42
     17.0700	  539.00	  567.35	-1771.10	  448.13
     17.1700	  574.00	  567.05	-1735.80	  447.83
     17.2700	  578.00	  566.75	-1731.50	  447.52
     17.3700	  588.00	  566.44	-1721.19	  447.22
     17.4700	  568.00	  566.13	-1740.88	  446.92
     17.5700	  552.00	  565.83	-1756.58	  446.61
     17.6700	  564.00	  565.52	-1744.27	  446.30
     17.7700	  550.00	  565.21	-1757.96	  445.99
     17.8700	  577.00	  564.90	-1730.65	  445.68
     17.9700	  557.00	  564.58	-1750.33	  445.37
     18.0700	  590.00	  564.36	-1717.11	  445.06
     18.1700	  568.00	  564.05	-1738.80	  444.74
     18.2700	  548.00	  563.74	-1758.49	  444.42
     18.3700	  539.00	  563.42	-1767.17	  444.11
     18.4700	  559.00	  563.10	-1746.85	  443.79
     18.5700	  578.00	  562.79	-1727.54	  443.47
     18.6700	  578.00	  562.47	-1727.22	  443.15
     18.7700	  568.00	  562.15	-1736.90	  442.82
     18.8700	  544.00	  561.83	-1760.58	  442.50
     18.9700	  574.00	  561.60	-1730.35	  442.17
     19.0700	  540.00	  561.28	-1764.03	  441.85
     19.1700	  553.00	  560.96	-1750.71	  441.52
     19.2700	  574.00	  560.64	-1729.39	  441.19
     19.3700	  565.00	  560.31	-1738.06	  440.86
     19.4700	  557.00	  559.99	-1745.74	  440.53
     19.5700	  551.00	  559.67	-1751.42	  440.20
     19.6700	  550.00	  559.34	-1752.09	  439.87
     19.7700	  550.00	  559.02	-1751.77	  439.54
     19.8700	  553.00	  558.69	-1748.44	  439.20
     19.9700	  555.00	  558.36	-1746.11	  438.87
     20.0700	  580.00	  558.04	-1720.79	  438.53
     20.1700	  577.00	  557.71	-1723.46	  438.19
     20.2700	  573.00	  557.38	-1727.13	  437.86
     20.3700	  527.00	  557.06	-1772.81	  437.52
     20.4700	  564.00	  556.73	-1735.48	  437.18
     20.5700	  541.00	  556.40	-1758.15	  436.84
     20.6700	  530.00	  556.05	-1768.80	  436.50
     20.7700	  603.00	  555.72	-1695.47	  436.16
     20.8700	  583.00	  555.43	-1715.18	  435.82
     20.9700	  534.00	  555.10	-1763.85	  435.48
     21.0700	  534.00	  554.78	-1763.53	  435.13
     21.1700	  541.00	  554.46	-1756.21	  434.79
     21.2700	  543.00	  554.13	-1753.88	  434.45
     21.3700	  523.00	  553.81	-1773.56	  434.10
     21.4700	  563.00	  553.49	-1733.24	  433.76
     21.5700	  576.00	  553.17	-1719.92	  433.41
     21.6700	  584.00	  552.85	-1711.60	  433.07
     21.7700	  591.00	  552.53	-1704.28	  432.72
     21.8700	  549.00	  552.21	-1745.96	  432.38
     21.9700	  588.00	  551.90	-1706.65	  432.03
     22.0700	  526.00	  551.59	-1768.34	  431.68
     22.1700	  551.00	  551.28	-1743.03	  431.34
     22.2700	  512.00	  550.97	-1781.72	  430.99
     22.3700	  574.00	  550.67	-1719.42	  430.64
     22.4700	  588.00	  550.38	-1705.13	  430.30
     22.5700	  581.00	  550.08	-1711.83	  429.95
     22.6700	  570.00	  549.80	-1722.55	  429.60
     22.7700	  573.00	  549.52	-1719.27	  429.25
     22.8700	  556.00	  549.25	-1736.00	  428.90
     22.9700	  595.00	  548.99	-1696.74	  428.56
     23.0700	  564.00	  548.75	-1727.50	  428.21
     23.1700	  605.00	  548.52	-1686.27	  427.86
     23.2700	  543.00	  548.31	-1748.06	  427.51
     23.3700	  537.00	  548.13	-1753.88	  427.16
     23.4700	  528.00	  547.99	-1762.74	  426.82
     23.5700	  541.00	  547.90	-1749.65	  426.47
     23.6700	  539.00	  547.88	-1751.63	  426.12
     23.7700	  521.00	  548.11	-1769.86	  425.77
     23.8700	  554.00	  548.45	-1737.20	  425.42
     23.9700	  594.00	  549.27	-1698.02	  425.08
     24.0700	  602.00	  551.02	-1691.77	  424.73
     24.1700	  570.00	  554.40	-1727.15	  424.38
     24.2700	  579.00	  560.27	-1724.02	  424.03
     24.3700	  562.00	  569.62	-1750.37	  423.69
     24.4700	  545.00	  583.46	-1781.21	  423.34
     24.5700	  577.00	  601.84	-1767.59	  422.99
     24.6700	  615.00	  621.47	-1749.22	  422.65
     24.7700	  649.00	  633.98	-1727.73	  422.30
     24.8700	  670.00	  628.96	-1701.71	  421.96
     24.9700	  582.00	  606.66	-1767.41	  421.61
     25.0700	  597.00	  581.24	-1726.99	  421.27
     25.1700	  611.00	  562.75	-1694.50	  420.92
     25.2700	  559.00	  552.50	-1736.25	  420.58
     25.3700	  589.00	  547.69	-1701.44	  420.24
     25.4700	  523.00	  545.48	-1765.23	  419.89
     25.5700	  562.00	  544.27	-1725.02	  419.55
     25.6700	  522.00	  543.47	-1764.22	  419.21
     25.7700	  569.00	  542.87	-1716.62	  418.87
     25.8700	  553.00	  542.42	-1732.17	  418.53
     25.9700	  524.00	  542.07	-1760.82	  418.19
     26.0700	  562.00	  541.80	-1722.55	  417.85
     26.1700	  528.00	  541.61	-1756.36	  417.51
     26.2700	  514.00	  541.50	-1770.25	  417.17
     26.3700	  542.00	  541.46	-1742.21	  416.83
     26.4700	  534.00	  541.51	-1750.26	  416.49
     26.5700	  545.00	  541.65	-1739.40	  416.16
     26.6700	  535.00	  541.90	-1749.65	  415.82
     26.7700	  598.00	  542.28	-1687.03	  415.49
     26.8700	  573.00	  542.83	-1712.58	  415.15
     26.9700	  570.00	  543.59	-1716.34	  414.82
     27.0700	  572.00	  544.64	-1715.39	  414.48
     27.1700	  530.00	  546.11	-1758.86	  414.15
     27.2700	  535.00	  548.23	-1755.98	  413.82
     27.3700	  501.00	  551.48	-1793.23	  413.49
     27.4700	  564.00	  556.79	-1735.54	  413.16
     27.5700	  603.00	  565.82	-1705.57	  412.83
     27.6700	  544.00	  581.19	-1779.94	  412.50
     27.7700	  543.00	  606.30	-1806.05	  412.17
     27.8700	  557.00	  644.07	-1829.82	  411.85
     27.9700	  682.00	  694.62	-1755.37	  411.52
     28.0700	  790.00	  752.19	-1704.94	  411.20
     28.1700	  843.00	  802.46	-1702.21	  410.87
     28.2700	  960.00	  824.17	-1606.92	  410.55
     28.3700	  911.00	  805.60	-1637.35	  410.23
     28.4700	  795.00	  768.39	-1716.14	  409.91
     28.5700	  699.00	  746.49	-1790.24	  409.59
     28.6700	  713.00	  754.80	-1784.55	  409.27
     28.7700	  778.00	  787.35	-1752.10	  408.95
     28.8700	  837.00	  822.12	-1727.87	  408.63
     28.9700	  861.00	  828.22	-1709.97	  408.32
     29.0700	  769.00	  786.73	-1760.48	  408.00
     29.1700	  745.00	  716.42	-1714.17	  407.69
     29.2700	  618.00	  649.78	-1774.53	  407.37
     29.3700	  610.00	  601.99	-1734.74	  407.06
     29.4700	  588.00	  573.31	-1728.06	  406.75
     29.5700	  578.00	  557.91	-1722.66	  406.44
     29.6700	  640.00	  549.83	-1652.58	  406.13
     29.7700	  596.00	  545.26	-1692.01	  405.83
     29.8700	  571.00	  542.41	-1714.16	  405.52
     29.9700	  575.00	  540.57	-1708.32	  405.22
     30.0700	  579.00	  539.57	-1703.32	  404.91
     30.1700	  596.00	  539.55	-1686.30	  404.61
     30.2700	  597.00	  541.03	-1686.78	  404.31
     30.3700	  584.00	  545.03	-1703.78	  404.01
     30.4700	  568.00	  553.09	-1727.84	  403.71
     30.5700	  560.00	  566.80	-1749.55	  403.41
     30.6700	  614.00	  586.58	-1715.33	  403.11
     30.7700	  535.00	  609.85	-1817.60	  402.82
     30.8700	  628.00	  629.87	-1744.62	  402.53
     30.9700	  639.00	  636.46	-1740.21	  402.23
     31.0700	  639.00	  623.03	-1726.78	  401.94
     31.1700	  575.00	  596.65	-1764.40	  401.65
     31.2700	  572.00	  570.50	-1741.25	  401.36
     31.3700	  574.00	  551.31	-1720.06	  401.08
     31.4700	  558.00	  539.70	-1724.45	  400.79
     31.5700	  524.00	  533.50	-1752.25	  400.51
     31.6700	  534.00	  530.30	-1739.05	  400.22
     31.7700	  553.00	  528.52	-1718.27	  399.94
     31.8700	  506.00	  527.39	-1764.14	  399.66
     31.9700	  507.00	  526.59	-1762.34	  399.38
     32.0700	  543.00	  526.03	-1725.78	  399.10
     32.1700	  536.00	  525.64	-1732.39	  398.83
     32.2700	  472.00	  525.41	-1796.16	  398.55
     32.3700	  554.00	  525.33	-1714.08	  398.28
     32.4700	  555.00	  525.40	-1713.15	  398.01
     32.5700	  564.00	  525.63	-1704.38	  397.74
     32.6700	  561.00	  526.07	-1707.82	  397.47
     32.7700	  506.00	  526.74	-1763.49	  397.20
     32.8700	  522.00	  527.73	-1748.48	  396.93
     32.9700	  527.00	  529.14	-1744.89	  396.67
     33.0700	  547.00	  531.19	-1726.94	  396.40
     33.1700	  579.00	  534.37	-1698.12	  396.14
     33.2700	  564.00	  539.72	-1718.47	  395.88
     33.3700	  545.00	  549.58	-1747.33	  395.62
     33.4700	  546.00	  568.38	-1765.13	  395.37
     33.5700	  544.00	  603.06	-1801.81	  395.11
     33.6700	  633.00	  661.48	-1771.23	  394.86
     33.7700	  723.00	  746.79	-1766.54	  394.60
     33.8700	  851.00	  849.18	-1740.93	  394.35
     33.9700	 1033.00	  940.53	-1650.28	  394.10
     34.0700	 1075.00	  978.49	-1646.24	  393.86
     34.1700	 1020.00	  933.50	-1656.25	  393.61
     34.2700	  928.00	  829.40	-1644.15	  393.37
     34.3700	  764.00	  719.31	-1698.06	  393.12
     34.4700	  637.00	  634.83	-1740.58	  392.88
     34.5700	  547.00	  582.04	-1777.79	  392.64
     34.6700	  569.00	  553.57	-1727.32	  392.40
     34.7700	  498.00	  539.28	-1784.03	  392.17
     34.8700	  527.00	  531.79	-1747.54	  391.93
     34.9700	  515.00	  527.30	-1755.05	  391.70
     35.0700	  543.00	  524.19	-1723.94	  391.47
     35.1700	  551.00	  521.85	-1713.60	  391.24
     35.2700	  524.00	  519.98	-1738.73	  391.01
     35.3700	  546.00	  518.46	-1715.21	  390.78
     35.4700	  579.00	  517.20	-1680.95	  390.56
     35.5700	  499.00	  516.14	-1759.89	  390.33
     35.6700	  476.00	  515.22	-1781.97	  390.11
     35.7700	  517.00	  514.42	-1740.17	  389.89
     35.8700	  500.00	  513.72	-1756.47	  389.67
     35.9700	  500.00	  513.10	-1755.85	  389.46
     36.0700	  491.00	  513.01	-1764.76	  389.24
     36.1700	  499.00	  512.51	-1756.26	  389.03
     36.2700	  492.00	  512.07	-1762.82	  388.82
     36.3700	  515.00	  511.66	-1739.41	  388.61
     36.4700	  520.00	  511.29	-1734.04	  388.40
     36.5700	  468.00	  510.97	-1785.72	  388.19
     36.6700	  511.00	  510.68	-1742.43	  387.99
     36.7700	  481.00	  510.44	-1772.19	  387.78
     36.8700	  518.00	  510.28	-1735.03	  387.58
     36.9700	  505.00	  510.26	-1748.01	  387.38
     37.0700	  521.00	  510.52	-1732.27	  387.19
     37.1700	  515.00	  511.34	-1739.09	  386.99
     37.2700	  519.00	  513.10	-1736.85	  386.80
     37.3700	  542.00	  516.11	-1716.86	  386.60
     37.4700	  527.00	  520.29	-1736.04	  386.41
     37.5700	  532.00	  524.76	-1735.51	  386.22
     37.6700	  498.00	  527.86	-1772.61	  386.04
     37.7700	  505.00	  527.91	-1765.66	  385.85
     37.8700	  491.00	  524.86	-1776.61	  385.67
     37.9700	  533.00	  520.48	-1730.23	  385.48
     38.0700	  489.00	  516.28	-1770.03	  385.30
     38.1700	  492.00	  512.84	-1763.59	  385.13
     38.2700	  529.00	  510.28	-1724.03	  384.95
     38.3700	  462.00	  508.52	-1789.27	  384.77
     38.4700	  512.00	  507.37	-1738.12	  384.60
     38.5700	  539.00	  506.61	-1710.36	  384.43
     38.6700	  511.00	  506.02	-1737.77	  384.26
     38.7700	  490.00	  505.67	-1758.42	  384.09
     38.8700	  517.00	  505.39	-1731.14	  383.93
     38.9700	  540.00	  505.15	-1707.90	  383.76
     39.0700	  473.00	  504.93	-1774.68	  383.60
     39.1700	  458.00	  504.74	-1789.49	  383.44
     39.2700	  457.00	  504.47	-1790.22	  383.28
     39.3700	  506.00	  504.30	-1741.05	  383.13
     39.4700	  501.00	  504.14	-1745.89	  382.97
     39.5700	  529.00	  504.12	-1717.87	  382.82
     39.6700	  475.00	  503.99	-1771.74	  382.67
     39.7700	  524.00	  503.86	-1722.61	  382.52
     39.8700	  516.00	  503.74	-1730.49	  382.37
     39.9700	  509.00	  503.63	-1737.38	  382.22
     40.0700	  445.00	  503.53	-1801.28	  382.08
     40.1700	  538.00	  503.44	-1708.19	  381.94
     40.2700	  510.00	  503.36	-1736.11	  381.79
     40.3700	  546.00	  503.30	-1700.05	  381.66
     40.4700	  521.00	  503.24	-1724.99	  381.52
     40.5700	  501.00	  503.20	-1744.95	  381.38
     40.6700	  537.00	  503.18	-1708.93	  381.25
     40.7700	  489.00	  503.17	-1756.92	  381.12
     40.8700	  466.00	  503.19	-1779.94	  380.99
     40.9700	  474.00	  503.23	-1771.98	  380.86
     41.0700	  472.00	  503.31	-1774.06	  380.74
     41.1700	  463.00	  503.42	-1783.17	  380.61
     41.2700	  528.00	  503.55	-1718.30	  380.49
     41.3700	  514.00	  503.78	-1732.53	  380.37
     41.4700	  481.00	  504.09	-1765.84	  380.25
     41.5700	  445.00	  504.94	-1802.69	  380.13
     41.6700	  509.00	  505.54	-1739.29	  380.02
     41.7700	  535.00	  506.46	-1714.21	  379.90
     41.8700	  496.00	  508.01	-1754.76	  379.79
     41.9700	  480.00	  510.89	-1773.64	  379.68
     42.0700	  509.00	  516.46	-1750.21	  379.57
     42.1700	  490.00	  526.84	-1779.59	  379.47
     42.2700	  526.00	  544.41	-1761.16	  379.36
     42.3700	  542.00	  570.40	-1771.15	  379.26
     42.4700	  601.00	  602.52	-1744.27	  379.16
     42.5700	  590.00	  633.48	-1786.23	  379.06
     42.6700	  647.00	  651.78	-1747.53	  378.96
     42.7700	  562.00	  647.65	-1828.40	  378.87
     42.8700	  603.00	  622.56	-1762.31	  378.77
     42.9700	  533.00	  588.90	-1798.65	  378.68
     43.0700	  549.00	  557.96	-1751.71	  378.59
     43.1700	  560.00	  535.09	-1717.84	  378.50
     43.2700	  506.00	  520.73	-1757.48	  378.42
     43.3700	  453.00	  512.78	-1802.53	  378.33
     43.4700	  487.00	  508.69	-1764.44	  378.25
     43.5700	  510.00	  506.57	-1739.32	  378.17
     43.6700	  480.00	  505.35	-1768.10	  378.09
     43.7700	  511.00	  504.74	-1736.49	  378.01
     43.8700	  549.00	  504.17	-1697.92	  377.94
     43.9700	  486.00	  503.78	-1760.53	  377.86
     44.0700	  487.00	  503.45	-1759.20	  377.79
     44.1700	  475.00	  503.19	-1770.94	  377.72
     44.2700	  534.00	  502.99	-1711.74	  377.65
     44.3700	  490.00	  502.85	-1755.60	  377.58
     44.4700	  500.00	  502.74	-1745.49	  377.52
     44.5700	  490.00	  502.67	-1755.42	  377.46
     44.6700	  492.00	  502.51	-1753.26	  377.39
     44.7700	  533.00	  502.49	-1712.24	  377.33
     44.8700	  522.00	  502.51	-1723.26	  377.28
     44.9700	  499.00	  502.54	-1746.29	  377.22
     45.0700	  550.00	  502.60	-1695.35	  377.16
     45.1700	  501.00	  502.68	-1744.43	  377.11
     45.2700	  527.00	  502.95	-1718.70	  377.06
     45.3700	  515.00	  503.08	-1730.83	  377.01
     45.4700	  544.00	  503.22	-1701.97	  376.96
     45.5700	  569.00	  503.39	-1677.14	  376.92
     45.6700	  474.00	  503.58	-1772.33	  376.87
     45.7700	  521.00	  503.80	-1725.55	  376.83
     45.8700	  497.00	  504.04	-1749.79	  376.79
     45.9700	  505.00	  504.32	-1742.07	  376.75
     46.0700	  535.00	  504.63	-1712.38	  376.71
     46.1700	  474.00	  504.97	-1773.72	  376.68
     46.2700	  508.00	  505.36	-1740.11	  376.64
     46.3700	  508.00	  505.80	-1740.55	  376.61
     46.4700	  526.00	  506.29	-1723.04	  376.58
     46.5700	  495.00	  506.86	-1754.61	  376.55
     46.6700	  515.00	  507.50	-1735.25	  376.52
     46.7700	  509.00	  508.26	-1742.01	  376.50
     46.8700	  482.00	  509.19	-1769.94	  376.47
     46.9700	  483.00	  510.41	-1770.16	  376.45
     47.0700	  508.00	  512.19	-1746.94	  376.43
     47.1700	  512.00	  515.09	-1745.84	  376.41
     47.2700	  613.00	  519.99	-1649.74	  376.39
     47.3700	  532.00	  527.96	-1738.71	  376.38
     47.4700	  586.00	  540.02	-1696.77	  376.36
     47.5700	  596.00	  556.24	-1702.99	  376.35
     47.6700	  599.00	  574.81	-1718.56	  376.34
     47.7700	  590.00	  591.63	-1744.38	  376.33
     47.8700	  606.00	  601.10	-1737.84	  376.32
     47.9700	  607.00	  599.26	-1735.01	  376.31
     48.0700	  570.00	  587.69	-1760.44	  376.31
     48.1700	  565.00	  572.17	-1749.92	  376.31
     48.2700	  558.00	  557.84	-1742.59	  376.31
     48.3700	  546.00	  547.56	-1744.31	  376.31
     48.4700	  513.00	  542.00	-1771.75	  376.31
     48.5700	  525.00	  540.51	-1758.26	  376.31
     48.6700	  527.00	  542.05	-1757.80	  376.32
     48.7700	  537.00	  545.78	-1751.53	  376.32
     48.8700	  541.00	  551.30	-1753.05	  376.33
     48.9700	  543.00	  558.72	-1758.47	  376.34
     49.0700	  552.00	  568.73	-1759.48	  376.35
     49.1700	  613.00	  582.99	-1712.74	  376.36
     49.2700	  632.00	  604.97	-1715.72	  376.38
     49.3700	  615.00	  641.30	-1769.05	  376.39
     49.4700	  728.00	  703.13	-1717.88	  376.41
     49.5700	  788.00	  806.76	-1761.51	  376.43
     49.6700	  876.00	  969.77	-1836.52	  376.45
     49.7700	 1103.00	 1205.89	-1845.64	  376.47
     49.8700	 1529.00	 1513.13	-1726.88	  376.49
     49.9700	 1841.00	 1862.21	-1763.96	  376.52
     50.0700	 2236.00	 2187.61	-1694.36	  376.54
     50.1700	 2435.00	 2392.89	-1700.64	  376.57
     50.2700	 2423.00	 2393.13	-1712.88	  376.60
     50.3700	 2269.00	 2186.17	-1659.92	  376.63
     50.4700	 1867.00	 1858.49	-1734.24	  376.66
     50.5700	 1415.00	 1510.94	-1838.69	  376.69
     50.6700	 1047.00	 1209.48	-1905.23	  376.73
     50.7700	  818.00	  982.61	-1907.36	  376.77
     50.8700	  731.00	  830.95	-1842.70	  376.80
     50.9700	  701.00	  738.94	-1780.69	  376.84
     51.0700	  658.00	  685.61	-1770.36	  376.88
     51.1700	  653.00	  652.34	-1742.09	  376.92
     51.2700	  597.00	  627.36	-1773.11	  376.97
     51.3700	  561.00	  606.04	-1787.79	  377.01
     51.4700	  580.00	  587.79	-1750.54	  377.06
     51.5700	  609.00	  573.01	-1706.76	  377.10
     51.6700	  573.00	  561.88	-1731.64	  377.15
     51.7700	  620.00	  554.05	-1676.80	  377.20
     51.8700	  530.00	  548.81	-1761.56	  377.25
     51.9700	  534.00	  545.44	-1754.19	  377.31
     52.0700	  541.00	  543.41	-1745.16	  377.36
     52.1700	  531.00	  542.39	-1754.14	  377.42
     52.2700	  506.00	  542.52	-1779.27	  377.47
     52.3700	  538.00	  543.48	-1748.23	  377.53
     52.4700	  549.00	  545.97	-1739.72	  377.59
     52.5700	  572.00	  551.16	-1721.91	  377.65
     52.6700	  578.00	  561.46	-1726.21	  377.71
     52.7700	  591.00	  581.18	-1732.93	  377.77
     52.8700	  627.00	  616.82	-1732.56	  377.84
     52.9700	  731.00	  676.11	-1687.86	  377.90
     53.0700	  813.00	  765.05	-1694.80	  377.97
     53.1700	  965.00	  883.23	-1660.98	  378.04
     53.2700	 1054.00	 1018.94	-1707.69	  378.11
     53.3700	 1136.00	 1146.51	-1753.26	  378.18
     53.4700	 1244.00	 1229.32	-1728.07	  378.25
     53.5700	 1233.00	 1235.04	-1744.79	  378.32
     53.6700	 1080.00	 1160.61	-1823.36	  378.39
     53.7700	  944.00	 1035.94	-1834.69	  378.47
     53.8700	  874.00	  899.24	-1767.99	  378.55
     53.9700	  747.00	  778.06	-1773.81	  378.62
     54.0700	  649.00	  685.68	-1779.43	  378.70
     54.1700	  630.00	  623.56	-1736.31	  378.78
     54.2700	  606.00	  586.07	-1722.82	  378.86
     54.3700	  601.00	  565.40	-1707.15	  378.94
     54.4700	  574.00	  554.74	-1723.49	  379.03
     54.5700	  558.00	  549.45	-1734.20	  379.11
     54.6700	  572.00	  547.00	-1717.75	  379.20
     54.7700	  549.00	  546.09	-1739.84	  379.28
     54.8700	  582.00	  546.18	-1706.93	  379.37
     54.9700	  566.00	  547.06	-1723.81	  379.46
     55.0700	  580.00	  548.65	-1711.40	  379.55
     55.1700	  586.00	  550.97	-1707.72	  379.64
     55.2700	  571.00	  554.11	-1725.86	  379.73
     55.3700	  585.00	  558.14	-1715.89	  379.82
     55.4700	  492.00	  563.29	-1814.04	  379.92
     55.5700	  562.00	  569.98	-1750.73	  380.01
     55.6700	  578.00	  579.01	-1743.76	  380.11
     55.7700	  638.00	  592.03	-1696.78	  380.20
     55.8700	  611.00	  612.41	-1744.16	  380.30
     55.9700	  635.00	  646.37	-1754.12	  380.40
     56.0700	  663.00	  704.34	-1784.09	  380.50
     56.1700	  731.00	  801.33	-1813.08	  380.60
     56.2700	  884.00	  955.12	-1813.87	  380.70
     56.3700	 1095.00	 1180.91	-1828.66	  380.81
     56.4700	 1414.00	 1482.67	-1811.42	  380.91
     56.5700	 1840.00	 1843.49	-1746.24	  381.01
     56.6700	 2067.00	 2217.92	-1893.67	  381.12
     56.7700	 2468.00	 2530.29	-1805.04	  381.22
     56.8700	 2588.00	 2689.60	-1844.35	  381.33
     56.9700	 2549.00	 2636.33	-1830.08	  381.44
     57.0700	 2308.00	 2391.14	-1825.89	  381.55
     57.1700	 2038.00	 2037.72	-1742.47	  381.66
     57.2700	 1610.00	 1664.30	-1797.05	  381.77
     57.3700	 1305.00	 1332.03	-1769.78	  381.88
     57.4700	 1018.00	 1071.39	-1796.14	  381.99
     57.5700	  920.00	  887.72	-1710.47	  382.11
     57.6700	  709.00	  770.52	-1804.27	  382.22
     57.7700	  683.00	  703.11	-1762.86	  382.33
     57.8700	  728.00	  669.88	-1684.63	  382.45
     57.9700	  641.00	  659.98	-1761.73	  382.57
     58.0700	  737.00	  667.70	-1673.45	  382.68
     58.1700	  677.00	  691.20	-1756.95	  382.80
     58.2700	  820.00	  730.61	-1653.36	  382.92
     58.3700	  803.00	  786.24	-1725.99	  383.04
     58.4700	  911.00	  856.93	-1688.68	  383.16
     58.5700	 1088.00	  938.52	-1593.27	  383.28
     58.6700	 1160.00	 1023.28	-1606.03	  383.40
     58.7700	 1328.00	 1102.14	-1516.89	  383.52
     58.8700	 1410.00	 1168.68	-1501.43	  383.65
     58.9700	 1480.00	 1219.06	-1481.81	  383.77
     59.0700	 1573.00	 1248.03	-1417.78	  383.89
     59.1700	 1476.00	 1250.77	-1517.52	  384.02
     59.2700	 1410.00	 1230.39	-1563.14	  384.14
     59.3700	 1427.00	 1198.47	-1514.22	  384.27
     59.4700	 1235.00	 1167.07	-1674.82	  384.40
     59.5700	 1211.00	 1144.81	-1676.56	  384.52
     59.6700	 1115.00	 1139.84	-1767.59	  384.65
     59.7700	 1127.00	 1161.61	-1777.36	  384.78
     59.8700	 1231.00	 1215.91	-1727.66	  384.91
     59.9700	 1294.00	 1298.70	-1747.45	  385.04
     60.0700	 1512.00	 1393.32	-1624.07	  385.17
     60.1700	 1578.00	 1471.34	-1636.09	  385.30
     60.2700	 1575.00	 1499.72	-1667.47	  385.43
     60.3700	 1540.00	 1458.03	-1660.78	  385.56
     60.4700	 1382.00	 1353.05	-1713.80	  385.70
     60.5700	 1248.00	 1211.73	-1706.48	  385.83
     60.6700	 1051.00	 1063.03	-1754.78	  385.96
     60.7700	  906.00	  928.07	-1764.82	  386.10
     60.8700	  819.00	  818.81	-1742.56	  386.23
     60.9700	  746.00	  739.25	-1736.00	  386.37
     61.0700	  617.00	  688.24	-1813.99	  386.50
     61.1700	  583.00	  662.42	-1822.17	  386.64
     61.2700	  588.00	  659.04	-1813.79	  386.77
     61.3700	  716.00	  677.60	-1704.35	  386.91
     61.4700	  666.00	  720.06	-1796.81	  387.05
     61.5700	  773.00	  789.55	-1759.30	  387.18
     61.6700	  893.00	  887.91	-1737.66	  387.32
     61.7700	  987.00	 1012.82	-1768.57	  387.46
     61.8700	 1085.00	 1155.05	-1812.80	  387.60
     61.9700	 1205.00	 1296.79	-1834.54	  387.74
     62.0700	 1311.00	 1411.76	-1843.51	  387.88
     62.1700	 1373.00	 1470.27	-1840.02	  388.02
     62.2700	 1384.00	 1453.19	-1811.94	  388.16
     62.3700	 1265.00	 1365.71	-1843.46	  388.30
     62.4700	 1143.00	 1233.35	-1833.10	  388.44
     62.5700	 1022.00	 1085.61	-1806.36	  388.58
     62.6700	  838.00	  945.48	-1850.23	  388.72
     62.7700	  777.00	  826.80	-1792.55	  388.86
     62.8700	  655.00	  735.24	-1822.99	  389.00
     62.9700	  664.00	  670.13	-1748.88	  389.15
     63.0700	  617.00	  627.03	-1752.78	  389.29
     63.1700	  589.00	  600.24	-1753.99	  389.43
     63.2700	  586.00	  584.53	-1741.28	  389.57
     63.3700	  542.00	  576.03	-1776.78	  389.72
     63.4700	  525.00	  572.46	-1790.21	  389.86
     63.5700	  608.00	  572.99	-1707.74	  390.00
     63.6700	  618.00	  578.00	-1702.75	  390.15
     63.7700	  594.00	  588.82	-1737.57	  390.29
     63.8700	  601.00	  607.42	-1749.17	  390.43
     63.9700	  640.00	  635.83	-1738.58	  390.58
     64.0700	  706.00	  675.43	-1712.18	  390.72
     64.1700	  795.00	  725.95	-1673.70	  390.87
     64.2700	  834.00	  784.66	-1693.41	  391.01
     64.3700	  871.00	  845.71	-1717.46	  391.15
     64.4700	 1022.00	  900.21	-1620.96	  391.30
     64.5700	 1057.00	  937.32	-1623.07	  391.44
     64.6700	  950.00	  950.20	-1742.95	  391.59
     64.7700	  989.00	  936.79	-1690.54	  391.73
     64.8700	  993.00	  901.95	-1651.70	  391.88
     64.9700	  860.00	  853.96	-1736.71	  392.02
     65.0700	  844.00	  801.78	-1700.53	  392.17
     65.1700	  739.00	  752.42	-1756.17	  392.31
     65.2700	  716.00	  709.67	-1736.42	  392.46
     65.3700	  715.00	  674.32	-1702.07	  392.60
     65.4700	  631.00	  645.60	-1757.35	  392.75
     65.5700	  597.00	  622.44	-1768.19	  392.89
     65.6700	  631.00	  604.06	-1715.81	  393.04
     65.7700	  599.00	  589.86	-1733.61	  393.18
     65.8700	  583.00	  579.33	-1739.08	  393.33
     65.9700	  561.00	  572.01	-1753.76	  393.47
     66.0700	  575.00	  567.45	-1735.20	  393.62
     66.1700	  582.00	  565.18	-1725.93	  393.76
     66.2700	  499.00	  564.79	-1808.54	  393.90
     66.3700	  560.00	  565.94	-1748.69	  394.05
     66.4700	  559.00	  568.45	-1752.20	  394.19
     66.5700	  522.00	  572.35	-1793.10	  394.34
     66.6700	  566.00	  578.14	-1754.89	  394.48
     66.7700	  567.00	  586.52	-1762.27	  394.62
     66.8700	  614.00	  599.35	-1728.10	  394.77
     66.9700	  574.00	  619.67	-1788.42	  394.91
     67.0700	  629.00	  652.30	-1766.05	  395.05
     67.1700	  701.00	  704.09	-1745.84	  395.20
     67.2700	  720.00	  783.70	-1806.45	  395.34
     67.3700	  901.00	  900.39	-1742.14	  395.48
     67.4700	 1114.00	 1061.68	-1690.43	  395.62
     67.5700	 1309.00	 1270.14	-1703.89	  395.77
     67.6700	 1584.00	 1519.41	-1678.16	  395.91
     67.7700	 1800.00	 1792.58	-1735.33	  396.05
     67.8700	 2024.00	 2059.74	-1778.49	  396.19
     67.9700	 2299.00	 2279.55	-1723.30	  396.33
     68.0700	 2470.00	 2406.34	-1679.09	  396.47
     68.1700	 2318.00	 2407.38	-1832.13	  396.61
     68.2700	 2312.00	 2282.42	-1713.17	  396.75
     68.3700	 2111.00	 2063.78	-1695.53	  396.89
     68.4700	 1837.00	 1797.24	-1702.99	  397.03
     68.5700	 1572.00	 1524.36	-1695.11	  397.17
     68.6700	 1231.00	 1274.96	-1786.71	  397.31
     68.7700	 1001.00	 1066.51	-1808.26	  397.45
     68.8700	  941.00	  905.19	-1706.94	  397.58
     68.9700	  783.00	  788.50	-1748.25	  397.72
     69.0700	  669.00	  709.01	-1782.76	  397.86
     69.1700	  662.00	  657.47	-1738.22	  398.00
     69.2700	  665.00	  625.19	-1702.94	  398.13
     69.3700	  600.00	  605.28	-1748.03	  398.27
     69.4700	  565.00	  592.91	-1770.66	  398.40
     69.5700	  595.00	  584.98	-1732.73	  398.54
     69.6700	  568.00	  579.70	-1754.45	  398.67
     69.7700	  580.00	  576.06	-1738.81	  398.81
     69.8700	  574.00	  573.56	-1742.31	  398.94
     69.9700	  523.00	  571.92	-1791.67	  399.07
     70.0700	  567.00	  571.03	-1746.78	  399.21
     70.1700	  536.00	  570.83	-1777.58	  399.34
     70.2700	  556.00	  571.37	-1758.12	  399.47
     70.3700	  580.00	  572.72	-1735.47	  399.60
     70.4700	  568.00	  575.15	-1749.90	  399.73
     70.5700	  585.00	  579.15	-1736.90	  399.86
     70.6700	  593.00	  585.61	-1735.36	  399.99
     70.7700	  539.00	  596.10	-1799.85	  400.12
     70.8700	  626.00	  613.11	-1729.86	  400.25
     70.9700	  620.00	  640.28	-1763.03	  400.37
     71.0700	  627.00	  682.51	-1798.26	  400.50
     71.1700	  706.00	  745.58	-1782.33	  400.63
     71.2700	  792.00	  835.26	-1786.01	  400.75
     71.3700	  964.00	  955.88	-1734.63	  400.88
     71.4700	 1072.00	 1108.19	-1778.94	  401.00
     71.5700	 1210.00	 1288.52	-1821.27	  401.13
     71.6700	 1432.00	 1483.83	-1794.58	  401.25
     71.7700	 1629.00	 1676.09	-1789.84	  401.37
     71.8700	 1778.00	 1839.88	-1804.63	  401.49
     71.9700	 1917.00	 1946.45	-1772.20	  401.62
     72.0700	 1999.00	 1972.58	-1716.33	  401.74
     72.1700	 1893.00	 1912.02	-1761.77	  401.86
     72.2700	 1787.00	 1779.25	-1735.00	  401.97
     72.3700	 1694.00	 1600.75	-1649.50	  402.09
     72.4700	 1543.00	 1405.45	-1605.20	  402.21
     72.5700	 1326.00	 1215.67	-1632.42	  402.33
     72.6700	 1140.00	 1046.97	-1649.72	  402.44
     72.7700	  984.00	  907.64	-1666.39	  402.56
     72.8700	  944.00	  799.61	-1598.36	  402.67
     72.9700	  784.00	  720.44	-1679.19	  402.79
     73.0700	  756.00	  665.10	-1651.85	  402.90
     73.1700	  656.00	  627.88	-1714.63	  403.01
     73.2700	  711.00	  603.44	-1635.19	  403.12
     73.3700	  640.00	  587.53	-1690.28	  403.23
     73.4700	  609.00	  577.12	-1710.87	  403.34
     73.5700	  616.00	  570.19	-1696.94	  403.45
     73.6700	  594.00	  565.54	-1714.29	  403.56
     73.7700	  563.00	  562.46	-1742.21	  403.67
     73.8700	  605.00	  560.57	-1698.32	  403.77
     73.9700	  597.00	  559.62	-1705.37	  403.88
     74.0700	  596.00	  559.45	-1706.20	  403.98
     74.1700	  606.00	  559.88	-1696.63	  404.09
     74.2700	  612.00	  560.70	-1691.45	  404.19
     74.3700	  602.00	  561.63	-1702.38	  404.29
     74.4700	  649.00	  562.36	-1656.11	  404.39
     74.5700	  658.00	  562.57	-1647.32	  404.49
     74.6700	  622.00	  562.03	-1682.78	  404.59
     74.7700	  633.00	  560.71	-1670.46	  404.69
     74.8700	  666.00	  558.78	-1635.53	  404.78
     74.9700	  624.00	  556.57	-1675.32	  404.88
     75.0700	  585.00	  554.45	-1712.20	  404.98
     75.1700	  622.00	  552.76	-1673.51	  405.07
     75.2700	  529.00	  551.80	-1765.55	  405.16
     75.3700	  523.00	  552.12	-1771.87	  405.26
     75.4700	  601.00	  554.05	-1695.80	  405.35
     75.5700	  565.00	  558.08	-1735.83	  405.44
     75.6700	  605.00	  564.59	-1702.34	  405.53
     75.7700	  583.00	  574.22	-1733.97	  405.61
     75.8700	  558.00	  587.12	-1771.87	  405.70
     75.9700	  593.00	  603.24	-1752.99	  405.79
     76.0700	  609.00	  622.04	-1755.79	  405.87
     76.1700	  655.00	  642.39	-1730.14	  405.96
     76.2700	  628.00	  662.59	-1777.34	  406.04
     76.3700	  685.00	  680.33	-1738.08	  406.12
     76.4700	  657.00	  693.03	-1778.78	  406.20
     76.5700	  704.00	  698.37	-1737.12	  406.28
     76.6700	  692.00	  695.24	-1745.99	  406.36
     76.7700	  692.00	  684.27	-1735.02	  406.44
     76.8700	  612.00	  667.49	-1798.24	  406.51
     76.9700	  628.00	  647.32	-1762.07	  406.59
     77.0700	  624.00	  626.52	-1745.27	  406.66
     77.1700	  597.00	  606.80	-1752.55	  406.73
     77.2700	  562.00	  589.42	-1770.17	  406.81
     77.3700	  573.00	  575.05	-1744.80	  406.88
     77.4700	  547.00	  563.82	-1759.57	  406.95
     77.5700	  545.00	  555.51	-1753.26	  407.01
     77.6700	  512.00	  549.62	-1780.37	  407.08
     77.7700	  500.00	  545.62	-1788.37	  407.15
     77.8700	  514.00	  543.00	-1771.75	  407.21
     77.9700	  518.00	  541.31	-1766.06	  407.28
     78.0700	  558.00	  540.25	-1725.00	  407.34
     78.1700	  525.00	  539.57	-1757.32	  407.40
     78.2700	  556.00	  539.15	-1725.90	  407.46
     78.3700	  491.00	  538.89	-1790.64	  407.52
     78.4700	  507.00	  538.75	-1774.50	  407.57
     78.5700	  537.00	  538.70	-1744.45	  407.63
     78.6700	  524.00	  538.75	-1757.50	  407.69
     78.7700	  546.00	  538.89	-1735.64	  407.74
     78.8700	  493.00	  539.15	-1788.90	  407.79
     78.9700	  492.00	  539.56	-1790.31	  407.84
     79.0700	  611.00	  540.15	-1671.90	  407.89
     79.1700	  498.00	  540.97	-1785.72	  407.94
     79.2700	  548.00	  542.06	-1736.81	  407.99
     79.3700	  521.00	  543.32	-1765.07	  408.03
     79.4700	  531.00	  545.14	-1756.89	  408.08
     79.5700	  525.00	  547.42	-1765.17	  408.12
     79.6700	  550.00	  550.24	-1742.99	  408.17
     79.7700	  552.00	  553.71	-1744.46	  408.21
     79.8700	  561.00	  557.98	-1739.73	  408.25
     79.9700	  551.00	  563.21	-1754.96	  408.28
     80.0700	  569.00	  569.65	-1743.40	  408.32
     80.1700	  584.00	  577.58	-1736.33	  408.36
     80.2700	  580.00	  587.30	-1750.05	  408.39
     80.3700	  560.00	  599.06	-1781.81	  408.42
     80.4700	  598.00	  612.93	-1757.68	  408.45
     80.5700	  617.00	  628.74	-1754.49	  408.49
     80.6700	  631.00	  645.99	-1757.74	  408.51
     80.7700	  613.00	  663.83	-1793.58	  408.54
     80.8700	  694.00	  681.11	-1729.86	  408.57
     80.9700	  660.00	  696.53	-1779.28	  408.59
     81.0700	  662.00	  708.92	-1789.67	  408.62
     81.1700	  716.00	  717.43	-1744.18	  408.64
     81.2700	  768.00	  721.58	-1696.33	  408.66
     81.3700	  720.00	  721.22	-1743.97	  408.68
     81.4700	  762.00	  716.49	-1697.24	  408.69
     81.5700	  735.00	  707.84	-1715.59	  408.71
     81.6700	  807.00	  695.87	-1631.62	  408.73
     81.7700	  726.00	  681.33	-1698.08	  408.74
     81.8700	  736.00	  665.13	-1671.88	  408.75
     81.9700	  721.00	  648.30	-1670.05	  408.76
     82.0700	  673.00	  631.74	-1701.49	  408.77
     82.1700	  681.00	  616.32	-1678.07	  408.78
     82.2700	  621.00	  602.44	-1724.19	  408.79
     82.3700	  653.00	  590.37	-1680.12	  408.79
     82.4700	  590.00	  580.17	-1732.92	  408.79
     82.5700	  583.00	  571.84	-1731.59	  408.80
     82.6700	  554.00	  565.30	-1754.05	  408.80
     82.7700	  574.00	  560.51	-1729.26	  408.80
     82.8700	  546.00	  557.32	-1754.07	  408.79
     82.9700	  517.00	  555.63	-1781.38	  408.79
     83.0700	  572.00	  555.33	-1726.08	  408.78
     83.1700	  530.00	  556.33	-1769.08	  408.78
     83.2700	  566.00	  558.50	-1735.25	  408.77
     83.3700	  558.00	  561.69	-1746.44	  408.76
     83.4700	  553.00	  565.67	-1755.42	  408.75
     83.5700	  552.00	  570.12	-1760.87	  408.74
     83.6700	  546.00	  574.68	-1771.43	  408.72
     83.7700	  551.00	  578.85	-1770.60	  408.71
     83.8700	  521.00	  582.14	-1803.89	  408.69
     83.9700	  615.00	  584.04	-1711.79	  408.67
     84.0700	  543.00	  584.21	-1783.96	  408.65
     84.1700	  596.00	  582.58	-1729.33	  408.63
     84.2700	  500.00	  579.37	-1822.12	  408.61
     84.3700	  556.00	  575.01	-1761.76	  408.58
     84.4700	  551.00	  569.98	-1761.73	  408.55
     84.5700	  528.00	  564.74	-1779.49	  408.53
     84.6700	  575.00	  559.66	-1727.41	  408.50
     84.7700	  557.00	  555.01	-1740.76	  408.47
     84.8700	  550.00	  550.96	-1743.71	  408.43
     84.9700	  508.00	  547.60	-1782.35	  408.40
     85.0700	  533.00	  544.94	-1754.69	  408.37
     85.1700	  509.00	  542.92	-1776.67	  408.33
     85.2700	  564.00	  541.48	-1720.23	  408.29
     85.3700	  504.00	  540.51	-1779.26	  408.25
     85.4700	  507.00	  539.93	-1775.68	  408.21
     85.5700	  521.00	  539.68	-1761.43	  408.17
     85.6700	  526.00	  539.71	-1756.46	  408.12
     85.7700	  532.00	  540.02	-1750.77	  408.08
     85.8700	  538.00	  540.61	-1745.36	  408.03
     85.9700	  515.00	  541.54	-1769.29	  407.98
     86.0700	  521.00	  542.92	-1764.67	  407.93
     86.1700	  527.00	  544.85	-1760.60	  407.88
     86.2700	  544.00	  547.48	-1746.23	  407.82
     86.3700	  568.00	  550.98	-1725.73	  407.77
     86.4700	  499.00	  555.48	-1799.23	  407.71
     86.5700	  598.00	  561.09	-1705.84	  407.65
     86.6700	  530.00	  567.85	-1780.60	  407.59
     86.7700	  578.00	  575.67	-1740.42	  407.53
     86.8700	  606.00	  584.02	-1720.77	  407.47
     86.9700	  600.00	  593.11	-1735.86	  407.40
     87.0700	  640.00	  602.10	-1704.85	  407.34
     87.1700	  646.00	  610.30	-1707.05	  407.27
     87.2700	  621.00	  616.96	-1738.71	  407.20
     87.3700	  629.00	  621.32	-1735.07	  407.13
     87.4700	  678.00	  622.84	-1687.59	  407.06
     87.5700	  653.00	  621.37	-1711.12	  406.98
     87.6700	  657.00	  617.18	-1702.93	  406.91
     87.7700	  611.00	  610.90	-1742.65	  406.83
     87.8700	  656.00	  603.37	-1690.12	  406.75
     87.9700	  626.00	  595.44	-1712.19	  406.67
     88.0700	  621.00	  587.88	-1709.63	  406.59
     88.1700	  581.00	  581.36	-1743.11	  406.51
     88.2700	  612.00	  576.39	-1707.14	  406.43
     88.3700	  581.00	  573.31	-1735.06	  406.34
     88.4700	  578.00	  572.31	-1737.06	  406.25
     88.5700	  596.00	  573.37	-1720.12	  406.16
     88.6700	  579.00	  576.34	-1740.09	  406.07
     88.7700	  637.00	  580.93	-1686.68	  405.98
     88.8700	  603.00	  586.70	-1726.45	  405.89
     88.9700	  610.00	  593.12	-1725.87	  405.79
     89.0700	  657.00	  599.57	-1685.32	  405.69
     89.1700	  605.00	  605.36	-1743.11	  405.59
     89.2700	  645.00	  609.81	-1707.56	  405.49
     89.3700	  616.00	  612.30	-1739.05	  405.39
     89.4700	  580.00	  612.44	-1775.19	  405.29
     89.5700	  592.00	  610.17	-1760.92	  405.19
     89.6700	  593.00	  605.76	-1755.51	  405.08
     89.7700	  600.00	  599.71	-1742.46	  404.97
     89.8700	  568.00	  592.61	-1767.36	  404.86
     89.9700	  516.00	  585.04	-1811.79	  404.75
     90.0700	  512.00	  577.51	-1808.26	  404.64
     90.1700	  584.00	  570.41	-1729.16	  404.53
     90.2700	  538.00	  564.02	-1768.77	  404.41
     90.3700	  539.00	  558.52	-1762.27	  404.30
     90.4700	  568.00	  553.98	-1728.73	  404.18
     90.5700	  570.00	  550.38	-1723.13	  404.06
     90.6700	  525.00	  547.65	-1765.40	  403.94
     90.7700	  553.00	  545.70	-1735.45	  403.81
     90.8700	  518.00	  544.41	-1769.16	  403.69
     90.9700	  538.00	  543.67	-1748.42	  403.57
     91.0700	  517.00	  543.40	-1769.15	  403.44
     91.1700	  484.00	  543.56	-1802.31	  403.31
     91.2700	  499.00	  544.14	-1787.89	  403.18
     91.3700	  490.00	  545.17	-1797.92	  403.05
     91.4700	  490.00	  546.73	-1799.48	  402.92
     91.5700	  547.00	  548.94	-1744.69	  402.78
     91.6700	  550.00	  551.96	-1744.71	  402.65
     91.7700	  568.00	  555.99	-1730.74	  402.51
     91.8700	  524.00	  561.23	-1779.98	  402.37
     91.9700	  584.00	  567.66	-1726.41	  402.23
     92.0700	  561.00	  575.92	-1757.67	  402.09
     92.1700	  598.00	  585.91	-1730.66	  401.95
     92.2700	  571.00	  597.68	-1769.43	  401.80
     92.3700	  583.00	  611.19	-1770.94	  401.66
     92.4700	  632.00	  626.23	-1736.98	  401.51
     92.5700	  645.00	  642.51	-1740.26	  401.36
     92.6700	  595.00	  659.57	-1807.32	  401.21
     92.7700	  668.00	  676.81	-1751.56	  401.06
     92.8700	  681.00	  693.55	-1755.30	  400.91
     92.9700	  763.00	  709.06	-1688.81	  400.75
     93.0700	  793.00	  722.77	-1672.52	  400.60
     93.1700	  773.00	  734.34	-1704.09	  400.44
     93.2700	  783.00	  743.84	-1703.59	  400.28
     93.3700	  756.00	  751.68	-1738.43	  400.12
     93.4700	  765.00	  758.45	-1736.20	  399.96
     93.5700	  848.00	  764.82	-1659.57	  399.80
     93.6700	  811.00	  771.36	-1703.11	  399.63
     93.7700	  815.00	  778.62	-1706.37	  399.47
     93.8700	  777.00	  787.09	-1752.84	  399.30
     93.9700	  827.00	  797.24	-1712.99	  399.14
     94.0700	  824.00	  809.46	-1728.21	  398.97
     94.1700	  871.00	  823.87	-1695.62	  398.80
     94.2700	  880.00	  840.26	-1703.01	  398.63
     94.3700	  871.00	  857.95	-1729.70	  398.45
     94.4700	  906.00	  875.83	-1712.58	  398.28
     94.5700	  938.00	  892.37	-1697.12	  398.10
     94.6700	  880.00	  905.74	-1768.49	  397.93
     94.7700	  948.00	  914.07	-1708.82	  397.75
     94.8700	  939.00	  915.77	-1719.52	  397.57
     94.9700	  882.00	  909.94	-1770.69	  397.39
     95.0700	  893.00	  896.62	-1746.37	  397.21
     95.1700	  861.00	  876.84	-1758.59	  397.03
     95.2700	  850.00	  852.25	-1745.00	  396.84
     95.3700	  793.00	  824.83	-1774.58	  396.66
     95.4700	  781.00	  796.64	-1758.39	  396.47
     95.5700	  751.00	  769.60	-1761.35	  396.28
     95.6700	  788.00	  745.50	-1700.25	  396.09
     95.7700	  689.00	  725.97	-1779.72	  395.90
     95.8700	  742.00	  712.42	-1713.17	  395.71
     95.9700	  671.00	  706.12	-1777.87	  395.52
     96.0700	  711.00	  708.17	-1739.92	  395.33
     96.1700	  702.00	  719.48	-1760.23	  395.13
     96.2700	  769.00	  740.76	-1714.51	  394.94
     96.3700	  789.00	  772.46	-1726.21	  394.74
     96.4700	  775.00	  814.67	-1782.42	  394.54
     96.5700	  850.00	  867.07	-1759.82	  394.34
     96.6700	  962.00	  928.78	-1709.53	  394.14
     96.7700	  996.00	  998.30	-1745.05	  393.94
     96.8700	 1033.00	 1073.41	-1783.16	  393.74
     96.9700	 1167.00	 1151.20	-1726.95	  393.54
     97.0700	 1216.00	 1228.07	-1754.82	  393.33
     97.1700	 1275.00	 1299.89	-1767.64	  393.13
     97.2700	 1306.00	 1362.09	-1798.84	  392.92
     97.3700	 1318.00	 1410.18	-1834.93	  392.71
     97.4700	 1421.00	 1440.30	-1762.05	  392.51
     97.5700	 1434.00	 1450.00	-1758.75	  392.30
     97.6700	 1480.00	 1438.76	-1701.51	  392.09
     97.7700	 1377.00	 1408.11	-1773.86	  391.88
     97.8700	 1321.00	 1361.14	-1782.89	  391.66
     97.9700	 1247.00	 1301.90	-1797.65	  391.45
     98.0700	 1197.00	 1234.70	-1780.45	  391.24
     98.1700	 1139.00	 1163.81	-1767.56	  391.02
     98.2700	 1087.00	 1093.16	-1748.91	  390.81
     98.3700	 1020.00	 1026.16	-1748.91	  390.59
     98.4700	 1008.00	  965.70	-1700.45	  390.37
     98.5700	  911.00	  914.10	-1745.85	  390.16
     98.6700	  829.00	  873.15	-1786.90	  389.94
     98.7700	  794.00	  844.22	-1792.97	  389.72
     98.8700	  767.00	  828.27	-1804.02	  389.50
     98.9700	  800.00	  825.96	-1768.71	  389.27
     99.0700	  817.00	  837.74	-1763.49	  389.05
     99.1700	  881.00	  863.82	-1725.57	  388.83
     99.2700	  931.00	  904.22	-1715.97	  388.60
     99.3700	  944.00	  958.77	-1757.52	  388.38
     99.4700	 1053.00	 1026.94	-1716.69	  388.15
     99.5700	 1128.00	 1107.87	-1722.62	  387.93
     99.6700	 1236.00	 1200.17	-1706.92	  387.70
     99.7700	 1227.00	 1301.85	-1817.60	  387.47
     99.8700	 1413.00	 1410.29	-1740.04	  387.25
     99.9700	 1486.00	 1522.06	-1778.81	  387.02
    100.0700	 1664.00	 1633.14	-1711.89	  386.79
    100.1700	 1742.00	 1738.98	-1739.73	  386.56
    100.2700	 1841.00	 1834.98	-1736.73	  386.33
    100.3700	 1954.00	 1916.98	-1705.73	  386.10
    100.4700	 2043.00	 1981.65	-1681.40	  385.87
    100.5700	 2043.00	 2026.62	-1726.37	  385.63
    100.6700	 2085.00	 2050.40	-1708.15	  385.40
    100.7700	 2051.00	 2052.15	-1743.90	  385.17
    100.8700	 2059.00	 2031.77	-1715.52	  384.93
    100.9700	 1984.00	 1990.11	-1748.86	  384.70
    101.0700	 1944.00	 1929.33	-1728.08	  384.46
    101.1700	 1842.00	 1853.00	-1753.75	  384.23
    101.2700	 1830.00	 1765.83	-1678.58	  383.99
    101.3700	 1696.00	 1673.00	-1719.75	  383.76
    101.4700	 1589.00	 1579.63	-1733.38	  383.52
    101.5700	 1519.00	 1490.20	-1713.95	  383.28
    101.6700	 1426.00	 1408.29	-1725.04	  383.05
    101.7700	 1317.00	 1336.46	-1762.21	  382.81
    101.8700	 1323.00	 1276.08	-1695.83	  382.57
    101.9700	 1220.00	 1227.48	-1750.23	  382.33
    102.0700	 1266.00	 1189.94	-1666.69	  382.09
    102.1700	 1216.00	 1161.89	-1688.64	  381.85
    102.2700	 1106.00	 1141.07	-1777.82	  381.61
    102.3700	 1155.00	 1124.71	-1712.46	  381.37
    102.4700	 1097.00	 1109.90	-1755.65	  381.13
    102.5700	 1073.00	 1093.91	-1763.66	  380.89
    102.6700	 1088.00	 1074.55	-1729.30	  380.65
    102.7700	  953.00	 1050.46	-1840.21	  380.41
    102.8700	  981.00	 1021.19	-1782.94	  380.17
    102.9700	  939.00	  987.12	-1790.87	  379.93
    103.0700	  931.00	  949.21	-1760.96	  379.69
    103.1700	  907.00	  908.71	-1744.46	  379.45
    103.2700	  908.00	  867.01	-1701.76	  379.21
    103.3700	  815.00	  825.45	-1753.20	  378.97
    103.4700	  787.00	  785.24	-1740.99	  378.73
    103.5700	  746.00	  747.40	-1744.15	  378.49
    103.6700	  722.00	  712.70	-1733.45	  378.25
    103.7700	  748.00	  681.66	-1676.41	  378.01
    103.8700	  644.00	  654.58	-1753.33	  377.77
    103.9700	  642.00	  631.52	-1732.27	  377.52
    104.0700	  611.00	  612.36	-1744.11	  377.28
    104.1700	  619.00	  596.84	-1720.59	  377.04
    104.2700	  617.00	  584.60	-1710.35	  376.80
    104.3700	  562.00	  575.25	-1756.00	  376.56
    104.4700	  562.00	  568.34	-1749.09	  376.32
    104.5700	  571.00	  563.49	-1735.24	  376.08
    104.6700	  535.00	  560.30	-1768.05	  375.84
    104.7700	  531.00	  558.45	-1770.20	  375.60
    104.8700	  531.00	  557.65	-1769.40	  375.36
    104.9700	  537.00	  557.65	-1763.40	  375.13
    105.0700	  510.00	  558.27	-1791.02	  374.89
    105.1700	  523.00	  559.40	-1779.15	  374.65
    105.2700	  536.00	  560.91	-1767.66	  374.41
    105.3700	  543.00	  562.77	-1762.52	  374.17
    105.4700	  518.00	  564.96	-1789.71	  373.94
    105.5700	  523.00	  567.52	-1787.27	  373.70
    105.6700	  529.00	  570.53	-1784.28	  373.46
    105.7700	  555.00	  574.09	-1761.84	  373.23
    105.8700	  582.00	  578.31	-1739.06	  372.99
    105.9700	  573.00	  583.31	-1753.06	  372.76
    106.0700	  579.00	  589.17	-1752.92	  372.52
    106.1700	  603.00	  595.93	-1735.68	  372.29
    106.2700	  576.00	  603.56	-1770.31	  372.06
    106.3700	  580.00	  612.00	-1774.75	  371.83
    106.4700	  588.00	  621.08	-1775.83	  371.59
    106.5700	  585.00	  630.61	-1788.36	  371.36
    106.6700	  639.00	  640.31	-1744.06	  371.13
    106.7700	  660.00	  649.86	-1732.61	  370.90
    106.8700	  665.00	  658.91	-1736.66	  370.67
    106.9700	  649.00	  667.08	-1760.83	  370.45
    107.0700	  666.00	  674.04	-1750.79	  370.22
    107.1700	  671.00	  679.53	-1751.28	  369.99
    107.2700	  694.00	  683.39	-1732.14	  369.77
    107.3700	  711.00	  685.65	-1717.40	  369.54
    107.4700	  699.00	  686.48	-1730.23	  369.32
    107.5700	  709.00	  686.21	-1719.96	  369.10
    107.6700	  667.00	  685.23	-1760.98	  368.87
    107.7700	  661.00	  683.95	-1765.70	  368.65
    107.8700	  699.00	  682.77	-1726.52	  368.43
    107.9700	  701.00	  682.00	-1723.75	  368.22
    108.0700	  675.00	  681.84	-1749.59	  368.00
    108.1700	  701.00	  682.40	-1724.15	  367.78
    108.2700	  737.00	  683.66	-1689.41	  367.57
    108.3700	  712.00	  685.48	-1716.23	  367.35
    108.4700	  739.00	  687.61	-1691.36	  367.14
    108.5700	  691.00	  689.72	-1741.47	  366.93
    108.6700	  697.00	  691.41	-1737.16	  366.72
    108.7700	  742.00	  692.24	-1692.99	  366.51
    108.8700	  724.00	  691.81	-1710.56	  366.30
    108.9700	  705.00	  689.81	-1727.56	  366.09
    109.0700	  711.00	  686.05	-1717.80	  365.89
    109.1700	  622.00	  680.48	-1801.23	  365.68
    109.2700	  683.00	  673.22	-1732.97	  365.48
    109.3700	  592.00	  664.52	-1815.27	  365.28
    109.4700	  687.00	  654.68	-1710.43	  365.08
    109.5700	  652.00	  644.07	-1734.82	  364.88
    109.6700	  635.00	  633.07	-1740.82	  364.69
    109.7700	  664.00	  622.00	-1700.75	  364.49
    109.8700	  619.00	  611.20	-1734.95	  364.30
    109.9700	  572.00	  600.94	-1771.69	  364.11
    110.0700	  590.00	  591.43	-1744.18	  363.92
    110.1700	  571.00	  582.84	-1754.59	  363.73
    110.2700	  586.00	  575.26	-1732.01	  363.55
    110.3700	  540.00	  568.77	-1771.52	  363.36
    110.4700	  541.00	  563.36	-1765.11	  363.18
    110.5700	  560.00	  558.99	-1741.74	  363.00
    110.6700	  563.00	  555.62	-1735.37	  362.82
    110.7700	  539.00	  553.15	-1756.90	  362.64
    110.8700	  546.00	  551.49	-1748.24	  362.47
    110.9700	  515.00	  550.54	-1778.29	  362.29
    111.0700	  528.00	  550.21	-1764.96	  362.12
    111.1700	  573.00	  550.40	-1720.15	  361.95
    111.2700	  588.00	  551.03	-1705.78	  361.79
    111.3700	  551.00	  552.04	-1743.79	  361.62
    111.4700	  463.00	  553.36	-1833.11	  361.46
    111.5700	  557.00	  554.94	-1740.69	  361.30
    111.6700	  576.00	  556.76	-1723.51	  361.14
    111.7700	  579.00	  558.79	-1722.54	  360.98
    111.8700	  550.00	  561.01	-1753.76	  360.83
    111.9700	  573.00	  563.41	-1733.16	  360.68
    112.0700	  521.00	  566.01	-1787.76	  360.53
    112.1700	  593.00	  568.81	-1718.56	  360.38
    112.2700	  557.00	  571.83	-1757.58	  360.24
    112.3700	  616.00	  575.12	-1701.87	  360.10
    112.4700	  601.00	  578.69	-1720.44	  359.96
    112.5700	  572.00	  582.62	-1753.37	  359.82
    112.6700	  605.00	  586.96	-1724.71	  359.69
    112.7700	  616.00	  591.81	-1718.56	  359.55
    112.8700	  594.00	  597.26	-1746.01	  359.43
    112.9700	  665.00	  603.48	-1681.23	  359.30
    113.0700	  659.00	  610.63	-1694.38	  359.18
    113.1700	  691.00	  618.96	-1670.71	  359.06
    113.2700	  732.00	  628.80	-1639.55	  358.94
    113.3700	  775.00	  640.53	-1608.28	  358.82
    113.4700	  747.00	  654.66	-1650.41	  358.71
    113.5700	  724.00	  671.81	-1690.56	  358.60
    113.6700	  816.00	  692.78	-1619.53	  358.49
    113.7700	  859.00	  718.50	-1602.25	  358.39
    113.8700	  847.00	  750.13	-1645.88	  358.29
    113.9700	  928.00	  789.01	-1603.76	  358.19
    114.0700	  960.00	  836.70	-1619.45	  358.10
    114.1700	 1054.00	  895.02	-1583.77	  358.01
    114.2700	 1044.00	  965.93	-1664.68	  357.92
    114.3700	 1209.00	 1051.59	-1585.34	  357.84
    114.4700	 1307.00	 1154.28	-1590.03	  357.75
    114.5700	 1358.00	 1276.35	-1661.10	  357.68
    114.6700	 1483.00	 1420.10	-1679.85	  357.60
    114.7700	 1639.00	 1587.68	-1691.43	  357.53
    114.8700	 1898.00	 1780.93	-1625.68	  357.46
    114.9700	 2027.00	 2001.23	-1716.98	  357.40
    115.0700	 2356.00	 2249.43	-1636.18	  357.34
    115.1700	 2623.00	 2525.64	-1645.39	  357.28
    115.2700	 2761.00	 2829.00	-1810.75	  357.23
    115.3700	 3073.00	 3157.65	-1827.40	  357.18
    115.4700	 3364.00	 3508.54	-1887.29	  357.13
    115.5700	 3744.00	 3877.54	-1876.29	  357.09
    115.6700	 4132.00	 4259.30	-1870.05	  357.05
    115.7700	 4398.00	 4647.10	-1991.85	  357.01
    115.8700	 4843.00	 5033.13	-1932.88	  356.98
    115.9700	 5288.00	 5408.42	-1863.17	  356.96
    116.0700	 5461.00	 5763.20	-2044.95	  356.93
    116.1700	 5966.00	 6087.02	-1863.77	  356.91
    116.2700	 6304.00	 6369.08	-1807.83	  356.90
    116.3700	 6625.00	 6598.94	-1716.69	  356.89
    116.4700	 6937.00	 6767.25	-1573.00	  356.88
    116.5700	 6926.00	 6866.76	-1683.51	  356.88
    116.6700	 6859.00	 6892.99	-1776.74	  356.88
    116.7700	 6837.00	 6844.89	-1750.64	  356.88
    116.8700	 6971.00	 6725.00	-1496.75	  356.89
    116.9700	 6597.00	 6539.11	-1684.86	  356.91
    117.0700	 6213.00	 6295.46	-1825.21	  356.92
    117.1700	 6056.00	 6003.85	-1690.60	  356.95
    117.2700	 5540.00	 5674.88	-1877.63	  356.98
    117.3700	 5235.00	 5319.17	-1826.92	  357.01
    117.4700	 4842.00	 4946.90	-1847.65	  357.04
    117.5700	 4579.00	 4567.35	-1731.10	  357.08
    117.6700	 4280.00	 4188.79	-1651.54	  357.13
    117.7700	 3938.00	 3818.42	-1623.17	  357.18
    117.8700	 3652.00	 3462.23	-1552.98	  357.24
    117.9700	 3198.00	 3124.99	-1669.74	  357.30
    118.0700	 2926.00	 2810.18	-1626.93	  357.36
    118.1700	 2567.00	 2520.16	-1695.91	  357.43
    118.2700	 2349.00	 2256.33	-1650.08	  357.51
    118.3700	 1946.00	 2019.15	-1815.90	  357.59
    118.4700	 1814.00	 1808.31	-1737.06	  357.67
    118.5700	 1578.00	 1622.82	-1787.57	  357.76
    118.6700	 1358.00	 1461.19	-1845.94	  357.86
    118.7700	 1235.00	 1321.65	-1829.40	  357.96
    118.8700	 1146.00	 1202.18	-1798.93	  358.06
    118.9700	 1019.00	 1100.64	-1824.39	  358.17
    119.0700	  949.00	 1014.90	-1808.65	  358.29
    119.1700	  899.00	  942.87	-1786.62	  358.41
    119.2700	  874.00	  882.64	-1751.39	  358.54
    119.3700	  761.00	  832.44	-1814.19	  358.67
    119.4700	  741.00	  790.70	-1792.45	  358.81
    119.5700	  753.00	  756.02	-1745.77	  358.95
    119.6700	  658.00	  727.22	-1811.97	  359.10
    119.7700	  692.00	  703.28	-1754.03	  359.26
    119.8700	  660.00	  683.36	-1766.11	  359.42
    119.9700	  657.00	  666.77	-1752.52	  359.58
    120.0700	  594.00	  652.94	-1801.69	  359.76
    120.1700	  541.00	  641.40	-1843.15	  359.94
    120.2700	  614.00	  631.77	-1760.52	  360.12
    120.3700	  602.00	  623.78	-1764.53	  360.31
    120.4700	  610.00	  617.17	-1749.92	  360.51
    120.5700	  581.00	  611.78	-1773.53	  360.71
    120.6700	  564.00	  607.45	-1786.20	  360.92
    120.7700	  570.00	  604.08	-1776.83	  361.13
    120.8700	  558.00	  601.57	-1786.32	  361.35
    120.9700	  550.00	  599.87	-1792.62	  361.58
    121.0700	  546.00	  598.90	-1795.65	  361.82
    121.1700	  590.00	  598.63	-1751.38	  362.06
    121.2700	  572.00	  599.01	-1769.76	  362.30
    121.3700	  560.00	  600.00	-1782.75	  362.56
    121.4700	  602.00	  601.54	-1742.29	  362.82
    121.5700	  616.00	  603.59	-1730.34	  363.08
    121.6700	  594.00	  606.09	-1754.84	  363.36
    121.7700	  596.00	  608.97	-1755.72	  363.64
    121.8700	  636.00	  612.14	-1718.89	  363.93
    121.9700	  604.00	  615.54	-1754.29	  364.22
    122.0700	  631.00	  619.08	-1730.83	  364.52
    122.1700	  651.00	  622.65	-1714.40	  364.83
    122.2700	  644.00	  626.14	-1724.89	  365.14
    122.3700	  595.00	  629.44	-1777.19	  365.47
    122.4700	  641.00	  632.44	-1734.19	  365.80
    122.5700	  631.00	  635.03	-1746.78	  366.13
    122.6700	  676.00	  637.13	-1703.88	  366.48
    122.7700	  654.00	  638.66	-1727.41	  366.83
    122.8700	  693.00	  639.54	-1689.29	  367.19
    122.9700	  647.00	  639.76	-1735.51	  367.55
    123.0700	  690.00	  639.32	-1692.07	  367.93
    123.1700	  677.00	  638.22	-1703.97	  368.31
    123.2700	  644.00	  636.53	-1735.28	  368.70
    123.3700	  665.00	  634.29	-1712.04	  369.10
    123.4700	  685.00	  631.58	-1689.33	  369.50
    123.5700	  661.00	  628.49	-1710.24	  369.91
    123.6700	  611.00	  625.09	-1756.84	  370.33
    123.7700	  607.00	  621.46	-1757.21	  370.76
    123.8700	  620.00	  617.68	-1740.43	  371.20
    123.9700	  589.00	  613.84	-1767.59	  371.64
    124.0700	  627.00	  609.99	-1725.74	  372.09
    124.1700	  619.00	  606.19	-1729.94	  372.56
    124.2700	  609.00	  602.51	-1736.26	  373.02
    124.3700	  625.00	  598.99	-1716.74	  373.50
    124.4700	  578.00	  595.66	-1760.41	  373.99
    124.5700	  590.00	  592.54	-1745.29	  374.48
    124.6700	  639.00	  589.66	-1693.41	  374.98
    124.7700	  591.00	  587.04	-1738.79	  375.50
    124.8700	  541.00	  584.68	-1786.43	  376.02
    124.9700	  575.00	  495.50	-1663.25	  376.54
    125.0700	  567.00	  496.04	-1742.75	  377.08
    125.1700	  609.00	  496.59	-1742.75	  377.63
    125.2700	  580.00	  497.14	-1742.75	  378.18
    125.3700	  564.00	  497.71	-1742.75	  378.75
    125.4700	  554.00	  498.28	-1742.75	  379.32
    125.5700	  601.00	  498.86	-1742.75	  379.90
    125.6700	  558.00	  499.45	-1742.75	  380.49
    125.7700	  605.00	  500.05	-1742.75	  381.10
    125.8700	  580.00	  500.66	-1742.75	  381.71
    125.9700	  566.00	  501.28	-1742.75	  382.32
    126.0700	  575.00	  501.91	-1742.75	  382.95
    126.1700	  568.00	  502.55	-1742.75	  383.59
    126.2700	  591.00	  503.20	-1742.75	  384.24
    126.3700	  609.00	  503.86	-1742.75	  384.90
    126.4700	  569.00	  504.52	-1742.75	  385.56
    126.5700	  589.00	  505.20	-1742.75	  386.24
    126.6700	  605.00	  505.89	-1742.75	  386.93
    126.7700	  594.00	  506.58	-1742.75	  387.62
    126.8700	  628.00	  507.29	-1742.75	  388.33
    126.9700	  633.00	  508.01	-1742.75	  389.05
    127.0700	  622.00	  508.73	-1742.75	  389.77
    127.1700	  635.00	  509.47	-1742.75	  390.51
    127.2700	  684.00	  510.22	-1742.75	  391.26
    127.3700	  629.00	  510.98	-1742.75	  392.02
    127.4700	  686.00	  511.74	-1742.75	  392.78
    127.5700	  721.00	  512.52	-1742.75	  393.56
    127.6700	  679.00	  513.31	-1742.75	  394.35
    127.7700	  727.00	  514.11	-1742.75	  395.15
    127.8700	  731.00	  514.92	-1742.75	  395.96
    127.9700	  687.00	  515.74	-1742.75	  396.78
    128.0700	  733.00	  516.57	-1742.75	  397.61
    128.1700	  744.00	  517.42	-1742.75	  398.46
    128.2700	  840.00	  518.27	-1742.75	  399.31
    128.3700	  798.00	  519.13	-1742.75	  400.18
    128.4700	  796.00	  520.01	-1742.75	  401.05
    128.5700	    0.00	  520.90	-1742.75	  401.94
    128.6700	    0.00	  521.79	-1742.75	  402.84
     12.3010	        	        	        	        	       0	(  0  0  2)	  0  1
     24.8795	        	        	        	        	       0	(  0  0  4)	  0  1
     28.3301	        	        	        	        	       0	(  1  0  0)	  0  1
     29.0268	        	        	        	        	       0	(  1  0  1)	  0  1
     31.0317	        	        	        	        	       0	(  1  0  2)	  0  1
     34.1380	        	        	        	        	       0	(  1  0  3)	  0  1
     37.7736	        	        	        	        	       0	(  0  0  6)	  0  1
     38.1127	        	        	        	        	       0	(  1  0  4)	  0  1
     42.7601	        	        	        	        	       0	(  1  0  5)	  0  1
     47.9413	        	        	        	        	       0	(  1  0  6)	  0  1
     50.2667	        	        	        	        	       0	(  1  1  0)	  0  1
     51.1893	        	        	        	        	       0	(  0  0  8)	  0  1
     51.9885	        	        	        	        	       0	(  1  1  2)	  0  1
     53.5686	        	        	        	        	       0	(  1  0  7)	  0  1
     56.9330	        	        	        	        	       0	(  1  1  4)	  0  1
     58.7636	        	        	        	        	       0	(  2  0  0)	  0  1
     59.1549	        	        	        	        	       0	(  2  0  1)	  0  1
     59.5956	        	        	        	        	       0	(  1  0  8)	  0  1
     60.3194	        	        	        	        	       0	(  2  0  2)	  0  1
     62.2313	        	        	        	        	       0	(  2  0  3)	  0  1
     64.6225	        	        	        	        	       0	(  1  1  6)	  0  1
     64.8535	        	        	        	        	       0	(  2  0  4)	  0  1
     65.4110	        	        	        	        	       0	(  0  0 10)	  0  1
     66.0082	        	        	        	        	       0	(  1  0  9)	  0  1
     68.1455	        	        	        	        	       0	(  2  0  5)	  0  1
     72.0702	        	        	        	        	       0	(  2  0  6)	  0  1
     72.8201	        	        	        	        	       0	(  1  0 10)	  0  1
     74.6535	        	        	        	        	       0	(  1  1  8)	  0  1
     76.6012	        	        	        	        	       0	(  2  0  7)	  0  1
     80.0730	        	        	        	        	       0	(  1  0 11)	  0  1
     80.8819	        	        	        	        	       0	(  0  0 12)	  0  1
     81.0044	        	        	        	        	       0	(  2  1  0)	  0  1
     81.3440	        	        	        	        	       0	(  2  1  1)	  0  1
     81.7278	        	        	        	        	       0	(  2  0  8)	  0  1
     82.3611	        	        	        	        	       0	(  2  1  2)	  0  1
     84.0512	        	        	        	        	       0	(  2  1  3)	  0  1
     86.4091	        	        	        	        	       0	(  2  1  4)	  0  1
     86.9162	        	        	        	        	       0	(  1  1 10)	  0  1
     87.4616	        	        	        	        	       0	(  2  0  9)	  0  1
     87.8417	        	        	        	        	       0	(  1  0 12)	  0  1
     89.4326	        	        	        	        	       0	(  2  1  5)	  0  1
     93.1272	        	        	        	        	       0	(  2  1  6)	  0  1
     93.8441	        	        	        	        	       0	(  2  0 10)	  0  1
     94.8930	        	        	        	        	       0	(  3  0  0)	  0  1
     95.2301	        	        	        	        	       0	(  3  0  1)	  0  1
     96.2425	        	        	        	        	       0	(  3  0  2)	  0  1
     96.2481	        	        	        	        	       0	(  1  0 13)	  0  1
     97.5123	        	        	        	        	       0	(  2  1  7)	  0  1
     97.9345	        	        	        	        	       0	(  3  0  3)	  0  1
     98.4073	        	        	        	        	       0	(  0  0 14)	  0  1
    100.3157	        	        	        	        	       0	(  3  0  4)	  0  1
    100.9599	        	        	        	        	       0	(  2  0 11)	  0  1
    101.7743	        	        	        	        	       0	(  1  1 12)	  0  1
    102.6306	        	        	        	        	       0	(  2  1  8)	  0  1
    103.4048	        	        	        	        	       0	(  3  0  5)	  0  1
    105.4919	        	        	        	        	       0	(  1  0 14)	  0  1
    107.2368	        	        	        	        	       0	(  3  0  6)	  0  1
    108.5622	        	        	        	        	       0	(  2  1  9)	  0  1
    108.9636	        	        	        	        	       0	(  2  0 12)	  0  1
    111.8732	        	        	        	        	       0	(  3  0  7)	  0  1
    115.4525	        	        	        	        	       0	(  2  1 10)	  0  1
    115.9232	        	        	        	        	       0	(  1  0 15)	  0  1
    116.6175	        	        	        	        	       0	(  2  2  0)	  0  1
    117.4215	        	        	        	        	       0	(  3  0  8)	  0  1
    118.1315	        	        	        	        	       0	(  2  2  2)	  0  1
    118.1378	        	        	        	        	       0	(  2  0 13)	  0  1
    119.8705	        	        	        	        	       0	(  0  0 16)	  0  1
    120.5976	        	        	        	        	       0	(  1  1 14)	  0  1
    122.8131	        	        	        	        	       0	(  2  2  4)	  0  1
    123.5706	        	        	        	        	       0	(  2  1 11)	  0  1
    124.0748	        	        	        	        	       0	(  3  0  9)	  0  1
    124.6825	        	        	        	        	       0	(  3  1  0)	  0  1
    125.0924	        	        	        	        	       0	(  3  1  1)	  0  1
    126.3349	        	        	        	        	       0	(  3  1  2)	  0  1
    128.2475	        	        	        	        	       0	(  1  0 16)	  0  1
    128.4514	        	        	        	        	       0	(  3  1  3)	  0  1
    129.0524	        	        	        	        	       0	(  2  0 14)	  0  1
    131.2454	        	        	        	        	       0	(  2  2  6)	  0  1
    131.5247	        	        	        	        	       0	(  3  1  4)	  0  1
    132.2059	        	        	        	        	       0	(  3  0 10)	  0  1
    133.4695	        	        	        	        	       0	(  2  1 12)	  0  1
    135.7079	        	        	        	        	       0	(  3  1  5)	  0  1
    141.2977	        	        	        	        	       0	(  3  1  6)	  0  1
    142.6688	        	        	        	        	       0	(  3  0 11)	  0  1
    143.1632	        	        	        	        	       0	(  2  0 15)	  0  1
    144.3775	        	        	        	        	       0	(  1  0 17)	  0  1
    145.4630	        	        	        	        	       0	(  2  2  8)	  0  1
    146.5995	        	        	        	        	       0	(  2  1 13)	  0  1
    148.9615	        	        	        	        	       0	(  3  1  7)	  0  1
    149.4689	        	        	        	        	       0	(  1  1 16)	  0  1
    153.8219	        	        	        	        	       0	(  0  0 18)	  0  1
    158.5042	        	        	        	        	       0	(  3  0 12)	  0  1
    158.8390	        	        	        	        	       0	(  4  0  0)	  0  1
    159.7952	        	        	        	        	       0	(  4  0  1)	  0  1
    160.9324	        	        	        	        	       0	(  3  1  8)	  0  1
    162.9715	        	        	        	        	       0	(  4  0  2)	  0  1
    169.3935	        	        	        	        	       0	(  2  0 16)	  0  1
    170.3107	        	        	        	        	       0	(  4  0  3)	  0  1
    173.7374	        	        	        	        	       0	(  2  1 14)	  0  1
