MSG Master    CELL:    5.92027   5.92027  23.28826   90.0000   90.0000  120.0000   SPGR: P 63/m m c             TEMP:   1074.85
  1   1280     2.52000     0.00000    -0.11940     0.00000     0.00000    0
    99     0     2
       0.00000      10.00000
     125.00000     130.00000
 2Theta	Yobs	Ycal	Yobs-Ycal	Backg	Posr	(hkl)	K
      0.7700	    0.00	  539.65	-1720.50	  419.41
      0.8700	    0.00	  540.44	-1720.50	  420.21
      0.9700	   33.00	  541.23	-1720.50	  421.00
      1.0700	   47.00	  542.01	-1720.50	  421.77
      1.1700	   62.00	  542.77	-1720.50	  422.54
      1.2700	   43.00	  543.53	-1720.50	  423.29
      1.3700	   40.00	  544.27	-1720.50	  424.03
      1.4700	   81.00	  545.00	-1720.50	  424.76
      1.5700	  327.00	  545.72	-1720.50	  425.48
      1.6700	  472.00	  546.43	-1720.50	  426.19
      1.7700	  516.00	  547.13	-1720.50	  426.89
      1.8700	  636.00	  547.81	-1720.50	  427.58
      1.9700	  668.00	  548.49	-1720.50	  428.25
      2.0700	  772.00	  549.15	-1720.50	  428.92
      2.1700	  751.00	  549.81	-1720.50	  429.57
      2.2700	  730.00	  550.45	-1720.50	  430.22
      2.3700	  763.00	  551.09	-1720.50	  430.85
      2.4700	  746.00	  551.71	-1720.50	  431.47
      2.5700	  660.00	  552.32	-1720.50	  432.09
      2.6700	  682.00	  552.93	-1720.50	  432.69
      2.7700	  634.00	  553.52	-1720.50	  433.28
      2.8700	  618.00	  554.10	-1720.50	  433.87
      2.9700	  598.00	  554.67	-1720.50	  434.44
      3.0700	  579.00	  555.24	-1720.50	  435.00
      3.1700	  611.00	  555.79	-1720.50	  435.55
      3.2700	  629.00	  556.33	-1720.50	  436.10
      3.3700	  644.00	  556.86	-1720.50	  436.63
      3.4700	  797.00	  557.39	-1720.50	  437.15
      3.5700	  831.00	  557.90	-1720.50	  437.67
      3.6700	  825.00	  558.41	-1720.50	  438.17
      3.7700	  909.00	  558.90	-1720.50	  438.66
      3.8700	  971.00	  559.39	-1720.50	  439.15
      3.9700	 1090.00	  559.86	-1720.50	  439.63
      4.0700	 1092.00	  560.33	-1720.50	  440.09
      4.1700	 1051.00	  560.78	-1720.50	  440.55
      4.2700	 1126.00	  561.23	-1720.50	  441.00
      4.3700	 1123.00	  561.67	-1720.50	  441.44
      4.4700	 1143.00	  562.10	-1720.50	  441.87
      4.5700	 1049.00	  562.52	-1720.50	  442.29
      4.6700	 1022.00	  562.94	-1720.50	  442.70
      4.7700	 1020.00	  563.34	-1720.50	  443.10
      4.8700	  949.00	  563.73	-1720.50	  443.50
      4.9700	  941.00	  564.12	-1720.50	  443.88
      5.0700	  924.00	  564.50	-1720.50	  444.26
      5.1700	  941.00	  564.87	-1720.50	  444.63
      5.2700	  952.00	  565.23	-1720.50	  444.99
      5.3700	  895.00	  565.58	-1720.50	  445.34
      5.4700	  855.00	  565.92	-1720.50	  445.69
      5.5700	  822.00	  566.26	-1720.50	  446.02
      5.6700	  838.00	  566.59	-1720.50	  446.35
      5.7700	  819.00	  566.90	-1720.50	  446.67
      5.8700	  837.00	  567.22	-1720.50	  446.98
      5.9700	  786.00	  567.52	-1720.50	  447.28
      6.0700	  784.00	  567.81	-1720.50	  447.58
      6.1700	  750.00	  568.10	-1720.50	  447.86
      6.2700	  792.00	  568.38	-1720.50	  448.14
      6.3700	  757.00	  568.65	-1720.50	  448.42
      6.4700	  814.00	  568.91	-1720.50	  448.68
      6.5700	  713.00	  569.17	-1720.50	  448.94
      6.6700	  736.00	  569.42	-1720.50	  449.18
      6.7700	  680.00	  569.66	-1720.50	  449.42
      6.8700	  767.00	  569.89	-1720.50	  449.66
      6.9700	  690.00	  570.12	-1720.50	  449.88
      7.0700	  703.00	  570.34	-1720.50	  450.10
      7.1700	  650.00	  570.55	-1720.50	  450.31
      7.2700	  706.00	  570.75	-1720.50	  450.52
      7.3700	  680.00	  570.95	-1720.50	  450.72
      7.4700	  625.00	  571.14	-1720.50	  450.91
      7.5700	  668.00	  571.33	-1720.50	  451.09
      7.6700	  662.00	  571.50	-1720.50	  451.27
      7.7700	  635.00	  571.67	-1720.50	  451.43
      7.8700	  661.00	  571.83	-1720.50	  451.60
      7.9700	  643.00	  571.99	-1720.50	  451.75
      8.0700	  618.00	  572.14	-1720.50	  451.90
      8.1700	  687.00	  572.28	-1720.50	  452.04
      8.2700	  635.00	  572.41	-1720.50	  452.18
      8.3700	  672.00	  572.54	-1720.50	  452.31
      8.4700	  642.00	  572.67	-1720.50	  452.43
      8.5700	  603.00	  572.78	-1720.50	  452.55
      8.6700	  610.00	  572.89	-1720.50	  452.66
      8.7700	  603.00	  572.99	-1720.50	  452.76
      8.8700	  639.00	  573.09	-1720.50	  452.86
      8.9700	  603.00	  573.18	-1720.50	  452.95
      9.0700	  604.00	  573.27	-1720.50	  453.03
      9.1700	  604.00	  573.35	-1720.50	  453.11
      9.2700	  597.00	  573.42	-1720.50	  453.18
      9.3700	  621.00	  573.48	-1720.50	  453.25
      9.4700	  639.00	  573.54	-1720.50	  453.31
      9.5700	  611.00	  573.60	-1720.50	  453.36
      9.6700	  568.00	  573.65	-1720.50	  453.41
      9.7700	  585.00	  573.69	-1720.50	  453.45
      9.8700	  607.00	  573.73	-1720.50	  453.49
      9.9700	  571.00	  573.76	-1720.50	  453.52
     10.0700	  658.00	  574.93	-1637.43	  453.55
     10.1700	  563.00	  575.08	-1732.58	  453.57
     10.2700	  562.00	  575.26	-1733.76	  453.58
     10.3700	  563.00	  575.48	-1732.98	  453.59
     10.4700	  546.00	  575.78	-1750.28	  453.60
     10.5700	  597.00	  576.22	-1699.72	  453.60
     10.6700	  592.00	  576.90	-1705.40	  453.59
     10.7700	  576.00	  577.92	-1722.42	  453.58
     10.8700	  595.00	  579.35	-1704.85	  453.56
     10.9700	  633.00	  581.21	-1668.71	  453.54
     11.0700	  577.00	  583.45	-1726.95	  453.51
     11.1700	  564.00	  586.10	-1742.60	  453.48
     11.2700	  580.00	  589.18	-1729.68	  453.44
     11.3700	  603.00	  592.80	-1710.30	  453.40
     11.4700	  592.00	  597.09	-1725.59	  453.35
     11.5700	  643.00	  602.29	-1679.79	  453.30
     11.6700	  627.00	  608.78	-1702.28	  453.24
     11.7700	  628.00	  617.18	-1709.68	  453.18
     11.8700	  648.00	  628.17	-1700.67	  453.12
     11.9700	  676.00	  641.80	-1686.30	  453.04
     12.0700	  656.00	  655.96	-1720.46	  452.97
     12.1700	  680.00	  664.97	-1705.47	  452.89
     12.2700	  742.00	  660.71	-1639.21	  452.80
     12.3700	  656.00	  641.24	-1705.74	  452.72
     12.4700	  628.00	  617.38	-1709.88	  452.62
     12.5700	  573.00	  598.85	-1746.35	  452.52
     12.6700	  620.00	  587.61	-1688.11	  452.42
     12.7700	  588.00	  581.74	-1714.24	  452.32
     12.8700	  567.00	  578.78	-1732.28	  452.21
     12.9700	  554.00	  577.14	-1743.64	  452.09
     13.0700	  597.00	  576.05	-1699.55	  451.97
     13.1700	  587.00	  575.26	-1708.76	  451.85
     13.2700	  568.00	  574.62	-1727.12	  451.72
     13.3700	  489.00	  574.11	-1805.61	  451.59
     13.4700	  576.00	  573.67	-1718.17	  451.46
     13.5700	  555.00	  573.28	-1738.78	  451.32
     13.6700	  541.00	  572.94	-1752.44	  451.18
     13.7700	  540.00	  572.63	-1753.13	  451.03
     13.8700	  570.00	  572.35	-1722.85	  450.88
     13.9700	  549.00	  572.08	-1743.58	  450.73
     14.0700	  577.00	  571.82	-1715.32	  450.57
     14.1700	  572.00	  571.58	-1720.08	  450.41
     14.2700	  601.00	  571.34	-1690.84	  450.24
     14.3700	  549.00	  571.11	-1742.61	  450.07
     14.4700	  526.00	  570.89	-1765.39	  449.90
     14.5700	  583.00	  570.66	-1708.16	  449.73
     14.6700	  585.00	  570.44	-1705.94	  449.55
     14.7700	  544.00	  570.22	-1746.72	  449.37
     14.8700	  582.00	  570.00	-1708.50	  449.18
     14.9700	  568.00	  569.78	-1722.28	  448.99
     15.0700	  516.00	  569.56	-1774.06	  448.80
     15.1700	  568.00	  569.34	-1721.84	  448.61
     15.2700	  532.00	  569.15	-1757.65	  448.41
     15.3700	  537.00	  568.93	-1752.43	  448.21
     15.4700	  589.00	  568.71	-1700.21	  448.01
     15.5700	  566.00	  568.49	-1722.99	  447.80
     15.6700	  560.00	  568.26	-1728.76	  447.59
     15.7700	  565.00	  568.04	-1723.54	  447.38
     15.8700	  573.00	  567.81	-1715.31	  447.16
     15.9700	  590.00	  567.58	-1698.08	  446.94
     16.0700	  548.00	  567.35	-1739.85	  446.72
     16.1700	  537.00	  567.11	-1750.61	  446.50
     16.2700	  581.00	  566.88	-1706.38	  446.27
     16.3700	  541.00	  566.64	-1746.14	  446.04
     16.4700	  570.00	  566.40	-1716.90	  445.81
     16.5700	  582.00	  566.16	-1704.66	  445.57
     16.6700	  546.00	  565.91	-1740.41	  445.34
     16.7700	  628.00	  565.67	-1658.17	  445.10
     16.8700	  541.00	  565.42	-1744.92	  444.85
     16.9700	  562.00	  565.17	-1723.67	  444.61
     17.0700	  608.00	  564.92	-1677.42	  444.36
     17.1700	  547.00	  564.66	-1738.16	  444.11
     17.2700	  558.00	  564.41	-1726.91	  443.86
     17.3700	  546.00	  564.15	-1738.65	  443.60
     17.4700	  574.00	  563.89	-1710.39	  443.35
     17.5700	  503.00	  563.63	-1781.13	  443.09
     17.6700	  571.00	  563.37	-1712.87	  442.83
     17.7700	  535.00	  563.10	-1748.60	  442.57
     17.8700	  552.00	  562.83	-1731.33	  442.30
     17.9700	  517.00	  562.57	-1766.07	  442.03
     18.0700	  574.00	  562.29	-1708.79	  441.76
     18.1700	  558.00	  562.13	-1724.63	  441.49
     18.2700	  560.00	  561.86	-1722.36	  441.22
     18.3700	  581.00	  561.59	-1701.09	  440.94
     18.4700	  593.00	  561.31	-1688.81	  440.67
     18.5700	  531.00	  561.03	-1750.53	  440.39
     18.6700	  578.00	  560.76	-1703.26	  440.11
     18.7700	  529.00	  560.48	-1751.98	  439.82
     18.8700	  583.00	  560.28	-1697.78	  439.54
     18.9700	  559.00	  560.00	-1721.50	  439.25
     19.0700	  507.00	  559.72	-1773.22	  438.96
     19.1700	  581.00	  559.43	-1698.93	  438.68
     19.2700	  564.00	  559.15	-1715.65	  438.38
     19.3700	  532.00	  558.86	-1747.36	  438.09
     19.4700	  544.00	  558.57	-1735.07	  437.80
     19.5700	  589.00	  558.29	-1689.79	  437.50
     19.6700	  592.00	  558.00	-1686.50	  437.20
     19.7700	  557.00	  557.71	-1721.21	  436.90
     19.8700	  557.00	  557.42	-1720.92	  436.60
     19.9700	  541.00	  557.12	-1736.62	  436.30
     20.0700	  575.00	  556.83	-1702.33	  436.00
     20.1700	  565.00	  556.54	-1712.04	  435.70
     20.2700	  607.00	  556.24	-1669.74	  435.39
     20.3700	  533.00	  555.95	-1743.45	  435.08
     20.4700	  541.00	  555.65	-1735.15	  434.78
     20.5700	  547.00	  555.36	-1728.86	  434.47
     20.6700	  560.00	  555.10	-1715.60	  434.16
     20.7700	  572.00	  554.80	-1703.30	  433.84
     20.8700	  555.00	  554.51	-1720.01	  433.53
     20.9700	  519.00	  554.21	-1755.71	  433.22
     21.0700	  558.00	  553.92	-1716.42	  432.90
     21.1700	  551.00	  553.62	-1723.12	  432.59
     21.2700	  518.00	  553.33	-1755.83	  432.27
     21.3700	  556.00	  553.04	-1717.54	  431.95
     21.4700	  569.00	  552.70	-1704.20	  431.63
     21.5700	  569.00	  552.41	-1703.91	  431.31
     21.6700	  523.00	  552.12	-1749.62	  430.99
     21.7700	  556.00	  551.83	-1716.33	  430.67
     21.8700	  534.00	  551.55	-1738.05	  430.35
     21.9700	  559.00	  551.26	-1712.76	  430.03
     22.0700	  552.00	  550.98	-1719.48	  429.70
     22.1700	  525.00	  550.70	-1746.20	  429.38
     22.2700	  551.00	  550.43	-1719.93	  429.05
     22.3700	  584.00	  550.16	-1686.66	  428.73
     22.4700	  526.00	  549.89	-1744.39	  428.40
     22.5700	  574.00	  549.63	-1696.13	  428.07
     22.6700	  525.00	  549.38	-1744.88	  427.75
     22.7700	  556.00	  549.14	-1713.64	  427.42
     22.8700	  597.00	  548.91	-1672.41	  427.09
     22.9700	  544.00	  548.69	-1725.19	  426.76
     23.0700	  579.00	  548.49	-1689.99	  426.43
     23.1700	  526.00	  548.31	-1742.81	  426.10
     23.2700	  545.00	  548.15	-1723.65	  425.77
     23.3700	  588.00	  548.18	-1680.68	  425.44
     23.4700	  514.00	  548.12	-1754.62	  425.11
     23.5700	  530.00	  548.11	-1738.61	  424.78
     23.6700	  586.00	  548.20	-1682.70	  424.44
     23.7700	  562.00	  548.45	-1706.95	  424.11
     23.8700	  586.00	  548.99	-1683.49	  423.78
     23.9700	  577.00	  550.05	-1693.55	  423.45
     24.0700	  542.00	  552.06	-1730.56	  423.11
     24.1700	  621.00	  555.64	-1655.14	  422.78
     24.2700	  566.00	  561.55	-1716.05	  422.45
     24.3700	  572.00	  570.58	-1719.08	  422.11
     24.4700	  604.00	  583.27	-1699.77	  421.78
     24.5700	  591.00	  599.08	-1728.58	  421.44
     24.6700	  657.00	  614.95	-1678.45	  421.11
     24.7700	  643.00	  624.44	-1701.94	  420.78
     24.8700	  567.00	  619.96	-1773.46	  420.44
     24.9700	  580.00	  601.99	-1742.49	  420.11
     25.0700	  560.00	  581.05	-1741.55	  419.78
     25.1700	  547.00	  564.83	-1738.33	  419.44
     25.2700	  553.00	  554.81	-1722.31	  419.11
     25.3700	  573.00	  549.44	-1696.94	  418.77
     25.4700	  553.00	  546.69	-1714.19	  418.44
     25.5700	  557.00	  545.16	-1708.66	  418.11
     25.6700	  568.00	  544.18	-1696.68	  417.77
     25.7700	  563.00	  543.47	-1700.97	  417.44
     25.8700	  530.00	  542.93	-1733.43	  417.11
     25.9700	  524.00	  542.53	-1739.03	  416.77
     26.0700	  532.00	  542.23	-1730.73	  416.44
     26.1700	  573.00	  542.02	-1689.52	  416.11
     26.2700	  573.00	  541.89	-1689.39	  415.78
     26.3700	  554.00	  541.86	-1708.36	  415.44
     26.4700	  564.00	  541.92	-1698.42	  415.11
     26.5700	  521.00	  542.07	-1741.57	  414.78
     26.6700	  545.00	  542.35	-1717.85	  414.45
     26.7700	  508.00	  542.78	-1755.28	  414.12
     26.8700	  561.00	  543.38	-1702.88	  413.79
     26.9700	  521.00	  544.22	-1743.72	  413.46
     27.0700	  535.00	  545.38	-1730.88	  413.13
     27.1700	  565.00	  546.98	-1702.48	  412.80
     27.2700	  520.00	  549.29	-1749.79	  412.48
     27.3700	  579.00	  552.85	-1694.35	  412.15
     27.4700	  595.00	  558.70	-1684.20	  411.82
     27.5700	  555.00	  568.75	-1734.25	  411.49
     27.6700	  553.00	  586.09	-1753.59	  411.17
     27.7700	  582.00	  614.78	-1753.28	  410.84
     27.8700	  605.00	  658.48	-1773.98	  410.52
     27.9700	  755.00	  717.70	-1683.20	  410.19
     28.0700	  813.00	  785.85	-1693.35	  409.87
     28.1700	  901.00	  845.72	-1665.22	  409.55
     28.2700	  965.00	  870.93	-1626.43	  409.23
     28.3700	  936.00	  845.23	-1629.73	  408.90
     28.4700	  803.00	  792.42	-1709.92	  408.58
     28.5700	  739.00	  752.90	-1734.40	  408.26
     28.6700	  694.00	  745.19	-1771.69	  407.94
     28.7700	  751.00	  764.60	-1734.10	  407.62
     28.8700	  820.00	  790.56	-1691.06	  407.31
     28.9700	  808.00	  794.62	-1707.12	  406.99
     29.0700	  771.00	  758.74	-1708.24	  406.67
     29.1700	  693.00	  697.61	-1725.11	  406.36
     29.2700	  622.00	  639.09	-1737.59	  406.04
     29.3700	  648.00	  596.63	-1669.13	  405.73
     29.4700	  629.00	  570.77	-1662.27	  405.42
     29.5700	  583.00	  556.69	-1694.19	  405.10
     29.6700	  584.00	  549.21	-1685.71	  404.79
     29.7700	  542.00	  544.98	-1723.48	  404.48
     29.8700	  594.00	  542.37	-1668.87	  404.17
     29.9700	  563.00	  540.74	-1698.24	  403.87
     30.0700	  605.00	  539.96	-1655.46	  403.56
     30.1700	  561.00	  540.20	-1699.70	  403.25
     30.2700	  543.00	  542.01	-1719.51	  402.95
     30.3700	  590.00	  546.42	-1676.92	  402.64
     30.4700	  550.00	  554.99	-1725.49	  402.34
     30.5700	  550.00	  569.17	-1739.67	  402.04
     30.6700	  602.00	  589.22	-1707.72	  401.74
     30.7700	  583.00	  612.52	-1750.02	  401.44
     30.8700	  622.00	  632.46	-1730.96	  401.14
     30.9700	  647.00	  639.18	-1712.68	  400.84
     31.0700	  550.00	  626.16	-1796.66	  400.54
     31.1700	  572.00	  600.11	-1748.61	  400.25
     31.2700	  605.00	  573.85	-1689.35	  399.95
     31.3700	  550.00	  554.16	-1724.66	  399.66
     31.4700	  573.00	  541.89	-1689.39	  399.36
     31.5700	  535.00	  535.13	-1720.63	  399.07
     31.6700	  541.00	  531.57	-1711.07	  398.78
     31.7700	  551.00	  529.59	-1699.09	  398.49
     31.8700	  516.00	  528.36	-1732.86	  398.21
     31.9700	  513.00	  527.53	-1735.03	  397.92
     32.0700	  554.00	  526.96	-1693.46	  397.64
     32.1700	  584.00	  526.59	-1663.09	  397.35
     32.2700	  547.00	  526.41	-1699.91	  397.07
     32.3700	  577.00	  526.39	-1669.89	  396.79
     32.4700	  499.00	  526.56	-1748.06	  396.51
     32.5700	  527.00	  526.93	-1720.43	  396.23
     32.6700	  550.00	  527.53	-1698.03	  395.95
     32.7700	  559.00	  528.41	-1689.91	  395.68
     32.8700	  555.00	  529.68	-1695.18	  395.40
     32.9700	  576.00	  531.46	-1675.96	  395.13
     33.0700	  527.00	  534.02	-1727.52	  394.85
     33.1700	  520.00	  537.95	-1738.45	  394.58
     33.2700	  513.00	  544.48	-1751.98	  394.31
     33.3700	  513.00	  556.15	-1763.65	  394.05
     33.4700	  564.00	  577.55	-1734.05	  393.78
     33.5700	  627.00	  615.48	-1708.98	  393.51
     33.6700	  667.00	  677.01	-1730.51	  393.25
     33.7700	  792.00	  764.01	-1692.51	  392.99
     33.8700	  924.00	  865.90	-1662.40	  392.73
     33.9700	 1015.00	  955.25	-1660.75	  392.47
     34.0700	 1047.00	  991.67	-1665.17	  392.21
     34.1700	 1013.00	  947.37	-1654.87	  391.95
     34.2700	  884.00	  845.19	-1681.69	  391.70
     34.3700	  758.00	  735.69	-1698.19	  391.44
     34.4700	  651.00	  649.52	-1719.02	  391.19
     34.5700	  540.00	  593.47	-1773.97	  390.94
     34.6700	  529.00	  561.64	-1753.14	  390.69
     34.7700	  529.00	  544.83	-1736.33	  390.44
     34.8700	  562.00	  535.75	-1694.25	  390.20
     34.9700	  482.00	  530.28	-1768.78	  389.95
     35.0700	  503.00	  526.54	-1744.04	  389.71
     35.1700	  535.00	  523.72	-1709.22	  389.47
     35.2700	  529.00	  521.51	-1713.01	  389.23
     35.3700	  528.00	  519.71	-1712.21	  388.99
     35.4700	  460.00	  518.23	-1778.73	  388.75
     35.5700	  502.00	  516.98	-1735.48	  388.52
     35.6700	  529.00	  515.91	-1707.41	  388.28
     35.7700	  555.00	  514.98	-1680.48	  388.05
     35.8700	  536.00	  514.18	-1698.68	  387.82
     35.9700	  493.00	  513.46	-1740.96	  387.59
     36.0700	  496.00	  512.83	-1737.33	  387.37
     36.1700	  536.00	  512.72	-1697.22	  387.14
     36.2700	  510.00	  512.22	-1722.72	  386.92
     36.3700	  513.00	  511.77	-1719.27	  386.69
     36.4700	  517.00	  511.38	-1714.88	  386.47
     36.5700	  528.00	  511.03	-1703.53	  386.25
     36.6700	  510.00	  510.75	-1721.25	  386.04
     36.7700	  489.00	  510.54	-1742.04	  385.82
     36.8700	  554.00	  510.44	-1676.94	  385.61
     36.9700	  497.00	  510.56	-1734.06	  385.39
     37.0700	  537.00	  511.08	-1694.58	  385.18
     37.1700	  510.00	  512.28	-1722.78	  384.97
     37.2700	  492.00	  514.51	-1743.01	  384.76
     37.3700	  503.00	  517.97	-1735.47	  384.56
     37.4700	  488.00	  522.43	-1754.93	  384.35
     37.5700	  514.00	  526.91	-1733.41	  384.15
     37.6700	  520.00	  529.79	-1730.29	  383.95
     37.7700	  557.00	  529.50	-1693.00	  383.75
     37.8700	  514.00	  526.15	-1732.65	  383.56
     37.9700	  544.00	  521.51	-1698.01	  383.36
     38.0700	  491.00	  517.03	-1746.53	  383.17
     38.1700	  477.00	  513.29	-1756.79	  382.97
     38.2700	  512.00	  510.45	-1718.95	  382.78
     38.3700	  520.00	  508.48	-1708.98	  382.59
     38.4700	  499.00	  507.16	-1728.66	  382.41
     38.5700	  542.00	  506.18	-1684.68	  382.22
     38.6700	  541.00	  505.59	-1685.09	  382.04
     38.7700	  478.00	  505.16	-1747.66	  381.86
     38.8700	  507.00	  504.97	-1718.47	  381.68
     38.9700	  526.00	  504.68	-1699.18	  381.50
     39.0700	  498.00	  504.43	-1726.93	  381.32
     39.1700	  519.00	  504.20	-1705.70	  381.15
     39.2700	  508.00	  503.91	-1716.41	  380.97
     39.3700	  486.00	  503.71	-1738.21	  380.80
     39.4700	  541.00	  503.53	-1683.03	  380.63
     39.5700	  525.00	  503.37	-1698.87	  380.47
     39.6700	  510.00	  503.21	-1713.71	  380.30
     39.7700	  491.00	  503.07	-1732.57	  380.14
     39.8700	  501.00	  502.93	-1722.43	  379.97
     39.9700	  528.00	  502.81	-1695.31	  379.81
     40.0700	  475.00	  502.70	-1748.20	  379.65
     40.1700	  480.00	  502.60	-1743.10	  379.50
     40.2700	  554.00	  502.52	-1669.02	  379.34
     40.3700	  496.00	  502.44	-1726.94	  379.19
     40.4700	  503.00	  502.39	-1719.89	  379.04
     40.5700	  505.00	  502.35	-1717.85	  378.89
     40.6700	  510.00	  502.33	-1712.83	  378.74
     40.7700	  524.00	  502.33	-1698.83	  378.59
     40.8700	  465.00	  502.36	-1757.86	  378.45
     40.9700	  493.00	  502.42	-1729.92	  378.31
     41.0700	  488.00	  502.52	-1735.02	  378.17
     41.1700	  479.00	  502.67	-1744.17	  378.03
     41.2700	  466.00	  503.34	-1757.84	  377.89
     41.3700	  482.00	  503.63	-1742.13	  377.75
     41.4700	  511.00	  504.02	-1713.52	  377.62
     41.5700	  505.00	  504.53	-1720.03	  377.49
     41.6700	  507.00	  505.29	-1718.79	  377.36
     41.7700	  482.00	  506.46	-1744.96	  377.23
     41.8700	  493.00	  508.40	-1735.90	  377.11
     41.9700	  526.00	  511.89	-1706.39	  376.98
     42.0700	  508.00	  518.25	-1730.75	  376.86
     42.1700	  523.00	  529.34	-1726.84	  376.74
     42.2700	  530.00	  546.99	-1737.49	  376.62
     42.3700	  539.00	  571.75	-1753.25	  376.50
     42.4700	  544.00	  601.25	-1777.75	  376.39
     42.5700	  639.00	  628.71	-1710.21	  376.27
     42.6700	  636.00	  644.11	-1728.61	  376.16
     42.7700	  614.00	  639.34	-1745.84	  376.05
     42.8700	  557.00	  616.24	-1779.74	  375.94
     42.9700	  586.00	  585.75	-1720.25	  375.84
     43.0700	  558.00	  557.47	-1719.97	  375.73
     43.1700	  512.00	  535.95	-1744.45	  375.63
     43.2700	  514.00	  521.82	-1728.32	  375.53
     43.3700	  491.00	  513.48	-1742.98	  375.43
     43.4700	  477.00	  508.88	-1752.38	  375.33
     43.5700	  462.00	  506.36	-1764.86	  375.23
     43.6700	  527.00	  505.05	-1698.55	  375.14
     43.7700	  474.00	  504.07	-1750.57	  375.05
     43.8700	  472.00	  503.36	-1751.86	  374.96
     43.9700	  498.00	  502.83	-1725.33	  374.87
     44.0700	  515.00	  502.41	-1707.91	  374.78
     44.1700	  492.00	  502.08	-1730.58	  374.70
     44.2700	  527.00	  501.83	-1695.33	  374.62
     44.3700	  491.00	  501.63	-1731.13	  374.53
     44.4700	  511.00	  501.48	-1710.98	  374.46
     44.5700	  523.00	  501.36	-1698.86	  374.38
     44.6700	  494.00	  501.29	-1727.79	  374.30
     44.7700	  520.00	  501.24	-1701.74	  374.23
     44.8700	  511.00	  501.23	-1710.73	  374.16
     44.9700	  535.00	  501.24	-1686.74	  374.08
     45.0700	  537.00	  501.32	-1684.82	  374.02
     45.1700	  468.00	  501.38	-1753.89	  373.95
     45.2700	  508.00	  501.47	-1713.97	  373.88
     45.3700	  511.00	  501.59	-1711.09	  373.82
     45.4700	  507.00	  501.72	-1715.22	  373.76
     45.5700	  503.00	  501.89	-1719.39	  373.70
     45.6700	  468.00	  502.08	-1754.58	  373.64
     45.7700	  541.00	  502.30	-1681.80	  373.58
     45.8700	  548.00	  502.55	-1675.05	  373.53
     45.9700	  527.00	  502.84	-1696.34	  373.48
     46.0700	  516.00	  503.17	-1707.67	  373.42
     46.1700	  500.00	  503.54	-1724.04	  373.38
     46.2700	  539.00	  503.96	-1685.46	  373.33
     46.3700	  519.00	  504.44	-1705.94	  373.28
     46.4700	  496.00	  505.00	-1729.50	  373.24
     46.5700	  523.00	  505.64	-1703.14	  373.19
     46.6700	  531.00	  506.39	-1695.89	  373.15
     46.7700	  546.00	  507.36	-1681.86	  373.11
     46.8700	  495.00	  508.54	-1734.04	  373.08
     46.9700	  492.00	  510.14	-1738.64	  373.04
     47.0700	  504.00	  512.53	-1729.03	  373.01
     47.1700	  503.00	  516.40	-1733.90	  372.97
     47.2700	  533.00	  522.69	-1710.19	  372.94
     47.3700	  485.00	  532.55	-1768.05	  372.92
     47.4700	  565.00	  546.75	-1702.25	  372.89
     47.5700	  543.00	  565.00	-1742.50	  372.86
     47.6700	  552.00	  585.18	-1753.68	  372.84
     47.7700	  607.00	  602.75	-1716.25	  372.82
     47.8700	  607.00	  611.87	-1725.37	  372.80
     47.9700	  564.00	  608.75	-1765.25	  372.78
     48.0700	  555.00	  595.52	-1761.02	  372.76
     48.1700	  594.00	  578.28	-1704.78	  372.74
     48.2700	  569.00	  562.31	-1713.81	  372.73
     48.3700	  543.00	  550.42	-1727.92	  372.72
     48.4700	  542.00	  543.34	-1721.84	  372.71
     48.5700	  557.00	  540.56	-1704.06	  372.70
     48.6700	  550.00	  541.09	-1711.59	  372.69
     48.7700	  561.00	  544.04	-1703.54	  372.68
     48.8700	  525.00	  548.96	-1744.46	  372.68
     48.9700	  584.00	  555.83	-1692.33	  372.68
     49.0700	  544.00	  565.27	-1741.77	  372.68
     49.1700	  541.00	  579.17	-1758.67	  372.68
     49.2700	  573.00	  600.24	-1747.74	  372.68
     49.3700	  607.00	  635.39	-1748.89	  372.68
     49.4700	  621.00	  695.90	-1795.40	  372.69
     49.5700	  733.00	  798.16	-1785.66	  372.69
     49.6700	  920.00	  961.12	-1761.62	  372.70
     49.7700	 1157.00	 1199.02	-1762.52	  372.71
     49.8700	 1526.00	 1510.16	-1704.66	  372.72
     49.9700	 1872.00	 1864.45	-1712.95	  372.74
     50.0700	 2304.00	 2194.27	-1610.77	  372.75
     50.1700	 2411.00	 2400.62	-1710.12	  372.77
     50.2700	 2397.00	 2397.36	-1720.86	  372.79
     50.3700	 2158.00	 2184.09	-1746.59	  372.81
     50.4700	 1902.00	 1850.43	-1668.93	  372.83
     50.5700	 1408.00	 1499.15	-1811.65	  372.85
     50.6700	 1088.00	 1196.83	-1829.33	  372.87
     50.7700	  826.00	  971.45	-1865.95	  372.90
     50.8700	  746.00	  822.41	-1796.91	  372.92
     50.9700	  695.00	  732.97	-1758.47	  372.95
     51.0700	  702.00	  681.46	-1699.96	  372.98
     51.1700	  634.00	  649.27	-1735.77	  373.01
     51.2700	  608.00	  625.04	-1737.54	  373.05
     51.3700	  563.00	  604.48	-1761.98	  373.08
     51.4700	  570.00	  586.95	-1737.45	  373.12
     51.5700	  553.00	  572.74	-1740.24	  373.15
     51.6700	  560.00	  561.94	-1722.44	  373.19
     51.7700	  564.00	  554.50	-1711.00	  373.23
     51.8700	  584.00	  549.39	-1685.89	  373.27
     51.9700	  527.00	  546.23	-1739.73	  373.31
     52.0700	  555.00	  544.52	-1710.02	  373.36
     52.1700	  612.00	  543.99	-1652.49	  373.40
     52.2700	  552.00	  544.59	-1713.09	  373.45
     52.3700	  550.00	  546.53	-1717.03	  373.50
     52.4700	  539.00	  550.48	-1731.98	  373.55
     52.5700	  569.00	  557.89	-1709.39	  373.60
     52.6700	  547.00	  571.45	-1744.95	  373.65
     52.7700	  619.00	  595.46	-1696.96	  373.71
     52.8700	  622.00	  635.75	-1734.25	  373.76
     52.9700	  784.00	  698.37	-1634.87	  373.82
     53.0700	  798.00	  786.95	-1709.45	  373.87
     53.1700	  946.00	  899.15	-1673.65	  373.93
     53.2700	 1065.00	 1023.01	-1678.51	  373.99
     53.3700	 1136.00	 1134.99	-1719.49	  374.06
     53.4700	 1189.00	 1202.73	-1734.23	  374.12
     53.5700	 1169.00	 1199.71	-1751.21	  374.18
     53.6700	 1057.00	 1126.78	-1790.28	  374.25
     53.7700	  982.00	 1012.09	-1750.59	  374.31
     53.8700	  869.00	  888.41	-1739.91	  374.38
     53.9700	  755.00	  778.33	-1743.83	  374.45
     54.0700	  635.00	  692.70	-1778.20	  374.52
     54.1700	  619.00	  633.04	-1734.54	  374.59
     54.2700	  619.00	  595.27	-1696.77	  374.67
     54.3700	  589.00	  573.18	-1704.68	  374.74
     54.4700	  546.00	  561.01	-1735.51	  374.82
     54.5700	  551.00	  554.58	-1724.08	  374.89
     54.6700	  546.00	  551.36	-1725.86	  374.97
     54.7700	  595.00	  550.02	-1675.52	  375.05
     54.8700	  563.00	  549.85	-1707.35	  375.13
     54.9700	  580.00	  550.63	-1691.13	  375.21
     55.0700	  589.00	  552.25	-1683.75	  375.29
     55.1700	  560.00	  554.68	-1715.18	  375.38
     55.2700	  568.00	  558.07	-1710.57	  375.46
     55.3700	  561.00	  562.50	-1722.00	  375.55
     55.4700	  572.00	  568.25	-1716.75	  375.63
     55.5700	  579.00	  575.78	-1717.28	  375.72
     55.6700	  592.00	  586.06	-1714.56	  375.81
     55.7700	  593.00	  601.01	-1728.51	  375.90
     55.8700	  590.00	  624.36	-1754.86	  375.99
     55.9700	  673.00	  662.79	-1710.29	  376.08
     56.0700	  674.00	  726.94	-1773.44	  376.18
     56.1700	  812.00	  831.43	-1739.93	  376.27
     56.2700	  903.00	  992.75	-1810.25	  376.37
     56.3700	 1216.00	 1223.84	-1728.34	  376.46
     56.4700	 1391.00	 1526.21	-1855.71	  376.56
     56.5700	 1867.00	 1881.41	-1734.91	  376.66
     56.6700	 2169.00	 2244.00	-1795.50	  376.76
     56.7700	 2447.00	 2540.25	-1813.75	  376.86
     56.8700	 2620.00	 2683.12	-1783.62	  376.96
     56.9700	 2547.00	 2619.21	-1792.71	  377.06
     57.0700	 2340.00	 2373.06	-1753.56	  377.17
     57.1700	 2042.00	 2026.74	-1705.24	  377.27
     57.2700	 1660.00	 1663.55	-1724.05	  377.38
     57.3700	 1296.00	 1340.23	-1764.73	  377.48
     57.4700	 1048.00	 1084.80	-1757.30	  377.59
     57.5700	  870.00	  902.46	-1752.96	  377.70
     57.6700	  770.00	  783.93	-1734.43	  377.81
     57.7700	  759.00	  713.95	-1675.45	  377.92
     57.8700	  720.00	  678.04	-1678.54	  378.03
     57.9700	  676.00	  665.81	-1710.31	  378.14
     58.0700	  671.00	  671.66	-1721.16	  378.25
     58.1700	  739.00	  693.64	-1675.14	  378.37
     58.2700	  716.00	  731.66	-1736.16	  378.48
     58.3700	  799.00	  785.73	-1707.23	  378.60
     58.4700	  926.00	  854.37	-1648.87	  378.71
     58.5700	 1066.00	  933.10	-1587.60	  378.83
     58.6700	 1077.00	 1014.11	-1657.61	  378.95
     58.7700	 1225.00	 1088.46	-1583.96	  379.06
     58.8700	 1290.00	 1150.27	-1580.77	  379.18
     58.9700	 1378.00	 1196.37	-1538.87	  379.30
     59.0700	 1436.00	 1222.24	-1506.74	  379.42
     59.1700	 1418.00	 1223.83	-1526.33	  379.55
     59.2700	 1373.00	 1204.63	-1552.13	  379.67
     59.3700	 1377.00	 1175.70	-1519.20	  379.79
     59.4700	 1279.00	 1148.28	-1589.78	  379.91
     59.5700	 1125.00	 1130.72	-1726.22	  380.04
     59.6700	 1151.00	 1131.44	-1700.94	  380.16
     59.7700	 1135.00	 1159.78	-1745.28	  380.29
     59.8700	 1227.00	 1220.50	-1714.00	  380.42
     59.9700	 1290.00	 1308.22	-1738.72	  380.54
     60.0700	 1511.00	 1405.27	-1614.77	  380.67
     60.1700	 1544.00	 1482.74	-1659.24	  380.80
     60.2700	 1601.00	 1508.14	-1627.64	  380.93
     60.3700	 1538.00	 1462.61	-1645.11	  381.06
     60.4700	 1359.00	 1354.61	-1716.11	  381.19
     60.5700	 1321.00	 1211.75	-1611.25	  381.32
     60.6700	 1090.00	 1062.78	-1693.28	  381.45
     60.7700	  949.00	  928.32	-1699.82	  381.58
     60.8700	  783.00	  819.84	-1757.34	  381.71
     60.9700	  739.00	  741.15	-1722.65	  381.85
     61.0700	  668.00	  691.03	-1743.53	  381.98
     61.1700	  642.00	  666.26	-1744.76	  382.12
     61.2700	  664.00	  664.15	-1720.65	  382.25
     61.3700	  684.00	  684.24	-1720.74	  382.39
     61.4700	  742.00	  728.37	-1706.87	  382.52
     61.5700	  775.00	  799.26	-1744.76	  382.66
     61.6700	  830.00	  898.22	-1788.72	  382.79
     61.7700	  980.00	 1022.41	-1762.91	  382.93
     61.8700	 1099.00	 1162.26	-1783.76	  383.07
     61.9700	 1254.00	 1300.00	-1766.50	  383.21
     62.0700	 1357.00	 1409.68	-1773.18	  383.35
     62.1700	 1290.00	 1462.63	-1893.13	  383.49
     62.2700	 1352.00	 1441.36	-1809.86	  383.63
     62.3700	 1236.00	 1352.46	-1836.96	  383.77
     62.4700	 1219.00	 1221.41	-1722.91	  383.91
     62.5700	 1021.00	 1076.73	-1776.23	  384.05
     62.6700	  923.00	  940.13	-1737.63	  384.19
     62.7700	  786.00	  824.59	-1759.09	  384.33
     62.8700	  730.00	  735.33	-1725.83	  384.47
     62.9700	  648.00	  671.62	-1744.12	  384.61
     63.0700	  604.00	  629.26	-1745.76	  384.76
     63.1700	  585.00	  602.84	-1738.34	  384.90
     63.2700	  578.00	  587.39	-1729.89	  385.04
     63.3700	  560.00	  579.27	-1739.77	  385.18
     63.4700	  565.00	  576.33	-1731.83	  385.33
     63.5700	  585.00	  577.87	-1713.37	  385.47
     63.6700	  585.00	  584.34	-1719.84	  385.62
     63.7700	  649.00	  597.09	-1668.59	  385.76
     63.8700	  682.00	  618.01	-1656.51	  385.91
     63.9700	  671.00	  648.97	-1698.47	  386.05
     64.0700	  757.00	  691.11	-1654.61	  386.20
     64.1700	  793.00	  743.94	-1671.44	  386.34
     64.2700	  818.00	  804.63	-1707.13	  386.49
     64.3700	  911.00	  867.33	-1676.83	  386.63
     64.4700	  962.00	  922.73	-1681.23	  386.78
     64.5700	  987.00	  961.45	-1694.95	  386.93
     64.6700	  999.00	  975.40	-1696.90	  387.07
     64.7700	 1068.00	  962.95	-1615.45	  387.22
     64.8700	  992.00	  928.42	-1656.92	  387.37
     64.9700	  940.00	  879.60	-1660.10	  387.51
     65.0700	  824.00	  825.44	-1721.94	  387.66
     65.1700	  817.00	  773.13	-1676.63	  387.81
     65.2700	  721.00	  726.82	-1726.32	  387.95
     65.3700	  677.00	  687.78	-1731.28	  388.10
     65.4700	  683.00	  655.79	-1693.29	  388.25
     65.5700	  619.00	  630.18	-1731.68	  388.39
     65.6700	  587.00	  610.23	-1743.73	  388.54
     65.7700	  581.00	  595.19	-1734.69	  388.69
     65.8700	  588.00	  584.30	-1716.80	  388.84
     65.9700	  575.00	  576.85	-1722.35	  388.98
     66.0700	  562.00	  572.26	-1730.76	  389.13
     66.1700	  533.00	  570.13	-1757.63	  389.28
     66.2700	  614.00	  569.83	-1676.33	  389.43
     66.3700	  592.00	  571.16	-1699.66	  389.57
     66.4700	  512.00	  574.02	-1782.52	  389.72
     66.5700	  548.00	  578.52	-1751.02	  389.87
     66.6700	  578.00	  585.16	-1727.66	  390.02
     66.7700	  570.00	  595.00	-1745.50	  390.16
     66.8700	  618.00	  610.04	-1712.54	  390.31
     66.9700	  600.00	  633.60	-1754.10	  390.46
     67.0700	  608.00	  670.72	-1783.22	  390.60
     67.1700	  725.00	  728.31	-1723.81	  390.75
     67.2700	  801.00	  814.70	-1734.20	  390.90
     67.3700	  935.00	  938.47	-1723.97	  391.04
     67.4700	 1120.00	 1105.65	-1706.15	  391.19
     67.5700	 1340.00	 1317.43	-1697.93	  391.34
     67.6700	 1569.00	 1566.54	-1718.04	  391.48
     67.7700	 1847.00	 1835.13	-1708.63	  391.63
     67.8700	 2066.00	 2093.25	-1747.75	  391.77
     67.9700	 2357.00	 2300.36	-1663.86	  391.92
     68.0700	 2443.00	 2412.69	-1690.19	  392.06
     68.1700	 2361.00	 2400.94	-1760.44	  392.21
     68.2700	 2244.00	 2268.40	-1744.90	  392.35
     68.3700	 2068.00	 2048.58	-1701.08	  392.50
     68.4700	 1793.00	 1786.10	-1713.60	  392.64
     68.5700	 1555.00	 1519.70	-1685.20	  392.79
     68.6700	 1310.00	 1276.98	-1687.48	  392.93
     68.7700	 1040.00	 1073.77	-1754.27	  393.07
     68.8700	  903.00	  915.48	-1732.98	  393.22
     68.9700	  775.00	  799.89	-1745.39	  393.36
     69.0700	  739.00	  720.07	-1701.57	  393.50
     69.1700	  680.00	  667.46	-1707.96	  393.64
     69.2700	  636.00	  633.89	-1718.39	  393.79
     69.3700	  553.00	  612.78	-1780.28	  393.93
     69.4700	  623.00	  599.44	-1696.94	  394.07
     69.5700	  577.00	  590.78	-1734.28	  394.21
     69.6700	  601.00	  584.98	-1704.48	  394.35
     69.7700	  541.00	  580.99	-1760.49	  394.49
     69.8700	  552.00	  578.29	-1746.79	  394.63
     69.9700	  515.00	  576.56	-1782.06	  394.77
     70.0700	  572.00	  575.67	-1724.17	  394.91
     70.1700	  586.00	  575.59	-1710.09	  395.04
     70.2700	  558.00	  576.35	-1738.85	  395.18
     70.3700	  562.00	  578.11	-1736.61	  395.32
     70.4700	  579.00	  581.20	-1722.70	  395.46
     70.5700	  583.00	  586.19	-1723.69	  395.59
     70.6700	  628.00	  594.15	-1686.65	  395.73
     70.7700	  613.00	  606.82	-1714.32	  395.86
     70.8700	  593.00	  626.90	-1754.40	  396.00
     70.9700	  656.00	  658.17	-1722.67	  396.13
     71.0700	  710.00	  705.40	-1715.90	  396.27
     71.1700	  774.00	  774.04	-1720.54	  396.40
     71.2700	  879.00	  869.16	-1710.66	  396.53
     71.3700	  990.00	  994.08	-1724.58	  396.67
     71.4700	 1103.00	 1148.51	-1766.01	  396.80
     71.5700	 1278.00	 1327.06	-1769.56	  396.93
     71.6700	 1483.00	 1517.87	-1755.37	  397.06
     71.7700	 1641.00	 1703.05	-1782.55	  397.19
     71.8700	 1892.00	 1856.12	-1684.62	  397.32
     71.9700	 1994.00	 1950.36	-1676.86	  397.45
     72.0700	 1874.00	 1964.84	-1811.34	  397.57
     72.1700	 1897.00	 1896.12	-1719.62	  397.70
     72.2700	 1733.00	 1760.28	-1747.78	  397.83
     72.3700	 1626.00	 1583.85	-1678.35	  397.95
     72.4700	 1476.00	 1393.24	-1637.74	  398.08
     72.5700	 1229.00	 1209.33	-1700.83	  398.20
     72.6700	 1060.00	 1045.63	-1706.13	  398.33
     72.7700	  987.00	  910.33	-1643.83	  398.45
     72.8700	  847.00	  804.72	-1678.22	  398.57
     72.9700	  833.00	  726.53	-1614.03	  398.70
     73.0700	  741.00	  671.22	-1650.72	  398.82
     73.1700	  703.00	  633.47	-1650.97	  398.94
     73.2700	  663.00	  608.31	-1665.81	  399.06
     73.3700	  600.00	  591.66	-1712.16	  399.18
     73.4700	  624.00	  580.57	-1677.07	  399.29
     73.5700	  613.00	  573.03	-1680.53	  399.41
     73.6700	  637.00	  567.80	-1651.30	  399.53
     73.7700	  550.00	  564.12	-1734.62	  399.64
     73.8700	  592.00	  561.57	-1690.07	  399.76
     73.9700	  585.00	  559.88	-1695.38	  399.87
     74.0700	  597.00	  558.87	-1682.37	  399.99
     74.1700	  613.00	  558.38	-1665.88	  400.10
     74.2700	  627.00	  558.23	-1651.73	  400.21
     74.3700	  590.00	  558.23	-1688.73	  400.32
     74.4700	  615.00	  558.16	-1663.66	  400.43
     74.5700	  656.00	  557.81	-1622.31	  400.54
     74.6700	  644.00	  557.04	-1633.54	  400.65
     74.7700	  573.00	  555.87	-1703.37	  400.76
     74.8700	  602.00	  554.43	-1672.93	  400.86
     74.9700	  638.00	  552.96	-1635.46	  400.97
     75.0700	  603.00	  551.68	-1669.18	  401.07
     75.1700	  601.00	  550.99	-1670.49	  401.18
     75.2700	  535.00	  551.15	-1736.65	  401.28
     75.3700	  593.00	  552.55	-1680.05	  401.38
     75.4700	  559.00	  555.62	-1717.12	  401.48
     75.5700	  574.00	  560.75	-1707.25	  401.58
     75.6700	  557.00	  568.61	-1732.11	  401.68
     75.7700	  575.00	  579.49	-1724.99	  401.78
     75.8700	  605.00	  593.61	-1709.11	  401.87
     75.9700	  589.00	  610.74	-1742.24	  401.97
     76.0700	  631.00	  630.34	-1719.84	  402.07
     76.1700	  648.00	  651.17	-1723.67	  402.16
     76.2700	  704.00	  671.42	-1687.92	  402.25
     76.3700	  705.00	  688.75	-1704.25	  402.34
     76.4700	  677.00	  700.56	-1744.06	  402.44
     76.5700	  708.00	  704.65	-1717.15	  402.53
     76.6700	  661.00	  700.13	-1759.63	  402.61
     76.7700	  694.00	  687.92	-1714.42	  402.70
     76.8700	  690.00	  670.22	-1700.72	  402.79
     76.9700	  595.00	  649.65	-1775.15	  402.87
     77.0700	  632.00	  628.33	-1716.83	  402.96
     77.1700	  604.00	  608.40	-1724.90	  403.04
     77.2700	  523.00	  590.86	-1788.36	  403.12
     77.3700	  567.00	  576.30	-1729.80	  403.21
     77.4700	  568.00	  564.85	-1717.35	  403.29
     77.5700	  528.00	  556.26	-1748.76	  403.37
     77.6700	  512.00	  550.09	-1758.59	  403.44
     77.7700	  507.00	  545.82	-1759.32	  403.52
     77.8700	  561.00	  542.96	-1702.46	  403.60
     77.9700	  504.00	  541.08	-1757.58	  403.67
     78.0700	  529.00	  539.85	-1731.35	  403.74
     78.1700	  529.00	  539.06	-1730.56	  403.82
     78.2700	  540.00	  538.55	-1719.05	  403.89
     78.3700	  508.00	  538.23	-1750.73	  403.96
     78.4700	  514.00	  538.05	-1744.55	  404.03
     78.5700	  478.00	  538.00	-1780.50	  404.09
     78.6700	  527.00	  538.06	-1731.56	  404.16
     78.7700	  531.00	  538.26	-1727.76	  404.22
     78.8700	  530.00	  538.61	-1729.11	  404.29
     78.9700	  532.00	  539.15	-1727.65	  404.35
     79.0700	  543.00	  539.92	-1717.42	  404.41
     79.1700	  524.00	  540.97	-1737.47	  404.47
     79.2700	  540.00	  542.32	-1722.82	  404.53
     79.3700	  529.00	  544.03	-1735.53	  404.59
     79.4700	  553.00	  545.95	-1713.45	  404.65
     79.5700	  539.00	  548.46	-1729.96	  404.70
     79.6700	  536.00	  551.44	-1735.94	  404.76
     79.7700	  537.00	  554.94	-1738.44	  404.81
     79.8700	  531.00	  559.04	-1748.54	  404.86
     79.9700	  554.00	  563.88	-1730.38	  404.91
     80.0700	  516.00	  569.69	-1774.19	  404.96
     80.1700	  555.00	  576.78	-1742.28	  405.01
     80.2700	  547.00	  585.54	-1759.04	  405.05
     80.3700	  593.00	  596.32	-1723.82	  405.10
     80.4700	  583.00	  609.35	-1746.85	  405.14
     80.5700	  611.00	  624.58	-1734.08	  405.18
     80.6700	  680.00	  641.68	-1682.18	  405.22
     80.7700	  648.00	  659.94	-1732.44	  405.26
     80.8700	  662.00	  678.35	-1736.85	  405.30
     80.9700	  657.00	  695.64	-1759.14	  405.34
     81.0700	  734.00	  710.59	-1697.09	  405.38
     81.1700	  723.00	  722.12	-1719.62	  405.41
     81.2700	  801.00	  729.38	-1648.88	  405.44
     81.3700	  777.00	  731.82	-1675.32	  405.47
     81.4700	  729.00	  729.30	-1720.80	  405.50
     81.5700	  744.00	  722.05	-1698.55	  405.53
     81.6700	  750.00	  710.60	-1681.10	  405.56
     81.7700	  741.00	  695.76	-1675.26	  405.59
     81.8700	  700.00	  678.60	-1699.10	  405.61
     81.9700	  683.00	  660.38	-1697.88	  405.64
     82.0700	  687.00	  642.28	-1675.78	  405.66
     82.1700	  659.00	  625.23	-1686.73	  405.68
     82.2700	  628.00	  609.80	-1702.30	  405.70
     82.3700	  631.00	  596.31	-1685.81	  405.72
     82.4700	  601.00	  584.89	-1704.39	  405.73
     82.5700	  569.00	  575.51	-1727.01	  405.75
     82.6700	  566.00	  568.23	-1722.73	  405.76
     82.7700	  536.00	  562.89	-1747.39	  405.77
     82.8700	  538.00	  559.36	-1741.86	  405.78
     82.9700	  526.00	  557.56	-1752.06	  405.79
     83.0700	  586.00	  557.35	-1691.85	  405.80
     83.1700	  570.00	  558.60	-1709.10	  405.81
     83.2700	  497.00	  561.18	-1784.68	  405.81
     83.3700	  568.00	  564.87	-1717.37	  405.82
     83.4700	  569.00	  569.41	-1720.91	  405.82
     83.5700	  560.00	  574.45	-1734.95	  405.82
     83.6700	  607.00	  579.54	-1693.04	  405.82
     83.7700	  546.00	  584.13	-1758.63	  405.81
     83.8700	  585.00	  587.66	-1723.16	  405.81
     83.9700	  521.00	  589.57	-1789.07	  405.81
     84.0700	  572.00	  589.52	-1738.02	  405.80
     84.1700	  524.00	  587.47	-1783.97	  405.79
     84.2700	  574.00	  583.71	-1730.21	  405.78
     84.3700	  549.00	  578.73	-1750.23	  405.77
     84.4700	  558.00	  573.06	-1735.56	  405.76
     84.5700	  590.00	  567.22	-1697.72	  405.74
     84.6700	  564.00	  561.59	-1718.09	  405.73
     84.7700	  572.00	  556.46	-1704.96	  405.71
     84.8700	  562.00	  552.03	-1710.53	  405.69
     84.9700	  579.00	  548.37	-1689.87	  405.67
     85.0700	  539.00	  545.48	-1726.98	  405.65
     85.1700	  577.00	  543.30	-1686.80	  405.63
     85.2700	  543.00	  541.75	-1719.25	  405.60
     85.3700	  506.00	  540.73	-1755.23	  405.58
     85.4700	  587.00	  540.14	-1673.64	  405.55
     85.5700	  541.00	  539.92	-1719.42	  405.52
     85.6700	  567.00	  540.04	-1693.54	  405.49
     85.7700	  510.00	  540.50	-1751.00	  405.46
     85.8700	  538.00	  541.34	-1723.84	  405.42
     85.9700	  497.00	  542.65	-1766.15	  405.39
     86.0700	  508.00	  544.55	-1757.05	  405.35
     86.1700	  527.00	  547.20	-1740.70	  405.32
     86.2700	  553.00	  550.77	-1718.27	  405.28
     86.3700	  601.00	  555.43	-1674.93	  405.23
     86.4700	  539.00	  561.33	-1742.83	  405.19
     86.5700	  575.00	  568.56	-1714.06	  405.15
     86.6700	  575.00	  577.09	-1722.59	  405.10
     86.7700	  590.00	  586.76	-1717.26	  405.05
     86.8700	  613.00	  597.25	-1704.75	  405.01
     86.9700	  563.00	  608.08	-1765.58	  404.96
     87.0700	  607.00	  618.56	-1732.06	  404.90
     87.1700	  678.00	  627.54	-1670.04	  404.85
     87.2700	  655.00	  634.82	-1700.32	  404.80
     87.3700	  640.00	  639.21	-1719.71	  404.74
     87.4700	  697.00	  640.16	-1663.66	  404.68
     87.5700	  598.00	  637.58	-1760.08	  404.62
     87.6700	  648.00	  631.92	-1704.42	  404.56
     87.7700	  653.00	  623.98	-1691.48	  404.50
     87.8700	  621.00	  614.71	-1714.21	  404.44
     87.9700	  602.00	  605.04	-1723.54	  404.37
     88.0700	  562.00	  595.81	-1754.31	  404.30
     88.1700	  612.00	  587.68	-1696.18	  404.23
     88.2700	  581.00	  581.17	-1720.67	  404.16
     88.3700	  626.00	  576.59	-1671.09	  404.09
     88.4700	  592.00	  574.09	-1702.59	  404.02
     88.5700	  575.00	  573.63	-1719.13	  403.95
     88.6700	  594.00	  575.04	-1701.54	  403.87
     88.7700	  596.00	  578.01	-1702.51	  403.79
     88.8700	  612.00	  582.13	-1690.63	  403.71
     88.9700	  604.00	  586.90	-1703.40	  403.63
     89.0700	  614.00	  591.76	-1698.26	  403.55
     89.1700	  586.00	  596.10	-1730.60	  403.47
     89.2700	  612.00	  599.32	-1707.82	  403.38
     89.3700	  590.00	  600.93	-1731.43	  403.30
     89.4700	  641.00	  600.62	-1680.12	  403.21
     89.5700	  562.00	  598.38	-1756.88	  403.12
     89.6700	  603.00	  594.45	-1711.95	  403.03
     89.7700	  565.00	  589.27	-1744.77	  402.93
     89.8700	  570.00	  583.32	-1733.82	  402.84
     89.9700	  553.00	  577.06	-1744.56	  402.74
     90.0700	  590.00	  570.90	-1701.40	  402.65
     90.1700	  533.00	  565.14	-1752.64	  402.55
     90.2700	  554.00	  559.99	-1726.49	  402.45
     90.3700	  500.00	  555.58	-1776.08	  402.35
     90.4700	  505.00	  551.97	-1767.47	  402.25
     90.5700	  528.00	  549.13	-1741.63	  402.14
     90.6700	  552.00	  547.01	-1715.51	  402.03
     90.7700	  542.00	  545.54	-1724.04	  401.93
     90.8700	  552.00	  544.63	-1713.13	  401.82
     90.9700	  530.00	  544.19	-1734.69	  401.71
     91.0700	  540.00	  544.19	-1724.69	  401.60
     91.1700	  572.00	  544.59	-1693.09	  401.48
     91.2700	  530.00	  545.40	-1735.90	  401.37
     91.3700	  483.00	  546.69	-1784.19	  401.25
     91.4700	  492.00	  548.55	-1777.05	  401.14
     91.5700	  538.00	  551.10	-1733.60	  401.02
     91.6700	  539.00	  554.52	-1736.02	  400.90
     91.7700	  529.00	  559.00	-1750.50	  400.78
     91.8700	  519.00	  564.75	-1766.25	  400.65
     91.9700	  562.00	  571.98	-1730.48	  400.53
     92.0700	  570.00	  580.85	-1731.34	  400.40
     92.1700	  570.00	  591.48	-1741.98	  400.27
     92.2700	  608.00	  603.91	-1716.41	  400.15
     92.3700	  580.00	  617.83	-1758.33	  400.02
     92.4700	  665.00	  633.54	-1689.04	  399.88
     92.5700	  661.00	  650.45	-1709.95	  399.75
     92.6700	  709.00	  668.11	-1679.61	  399.62
     92.7700	  688.00	  685.89	-1718.39	  399.48
     92.8700	  704.00	  703.10	-1719.60	  399.34
     92.9700	  691.00	  719.01	-1748.51	  399.21
     93.0700	  775.00	  733.03	-1678.53	  399.07
     93.1700	  750.00	  744.90	-1715.40	  398.92
     93.2700	  769.00	  754.69	-1706.19	  398.78
     93.3700	  799.00	  762.82	-1684.32	  398.64
     93.4700	  817.00	  769.84	-1673.34	  398.49
     93.5700	  768.00	  776.34	-1728.84	  398.35
     93.6700	  807.00	  782.83	-1696.33	  398.20
     93.7700	  879.00	  789.80	-1631.30	  398.05
     93.8700	  885.00	  797.78	-1633.28	  397.90
     93.9700	  848.00	  807.26	-1679.76	  397.75
     94.0700	  844.00	  818.69	-1695.19	  397.60
     94.1700	  876.00	  832.25	-1676.75	  397.44
     94.2700	  829.00	  847.69	-1739.19	  397.29
     94.3700	  853.00	  864.35	-1731.85	  397.13
     94.4700	  927.00	  881.07	-1674.57	  396.97
     94.5700	  897.00	  896.32	-1719.82	  396.81
     94.6700	  925.00	  908.29	-1703.79	  396.65
     94.7700	  916.00	  915.16	-1719.66	  396.49
     94.8700	  945.00	  915.42	-1690.92	  396.33
     94.9700	  921.00	  908.33	-1707.83	  396.16
     95.0700	  906.00	  894.08	-1708.58	  396.00
     95.1700	  895.00	  873.78	-1699.28	  395.83
     95.2700	  835.00	  849.14	-1734.64	  395.67
     95.3700	  834.00	  822.13	-1708.63	  395.50
     95.4700	  785.00	  794.79	-1730.29	  395.33
     95.5700	  707.00	  769.02	-1782.52	  395.16
     95.6700	  760.00	  746.60	-1707.10	  394.98
     95.7700	  715.00	  729.12	-1734.62	  394.81
     95.8700	  718.00	  717.98	-1720.48	  394.64
     95.9700	  685.00	  714.39	-1749.89	  394.46
     96.0700	  666.00	  719.38	-1773.88	  394.28
     96.1700	  766.00	  733.76	-1688.26	  394.11
     96.2700	  736.00	  758.13	-1742.63	  393.93
     96.3700	  743.00	  792.78	-1770.28	  393.75
     96.4700	  819.00	  837.63	-1739.13	  393.57
     96.5700	  884.00	  892.18	-1728.68	  393.38
     96.6700	  916.00	  955.38	-1759.88	  393.20
     96.7700	 1064.00	 1025.55	-1682.05	  393.02
     96.8700	 1053.00	 1100.38	-1767.88	  392.83
     96.9700	 1104.00	 1176.85	-1793.35	  392.64
     97.0700	 1259.00	 1251.35	-1712.85	  392.46
     97.1700	 1338.00	 1319.72	-1702.22	  392.27
     97.2700	 1404.00	 1377.49	-1693.99	  392.08
     97.3700	 1429.00	 1420.33	-1711.83	  391.89
     97.4700	 1372.00	 1444.74	-1793.24	  391.70
     97.5700	 1397.00	 1448.75	-1772.25	  391.51
     97.6700	 1457.00	 1432.40	-1695.90	  391.31
     97.7700	 1386.00	 1397.66	-1732.16	  391.12
     97.8700	 1358.00	 1347.95	-1710.45	  390.93
     97.9700	 1305.00	 1287.38	-1702.88	  390.73
     98.0700	 1225.00	 1220.22	-1715.72	  390.53
     98.1700	 1120.00	 1150.53	-1751.03	  390.34
     98.2700	 1056.00	 1081.99	-1746.49	  390.14
     98.3700	 1070.00	 1017.79	-1668.29	  389.94
     98.4700	 1003.00	  960.61	-1678.11	  389.74
     98.5700	  916.00	  912.55	-1717.05	  389.54
     98.6700	  800.00	  875.35	-1795.85	  389.34
     98.7700	  795.00	  850.25	-1775.75	  389.13
     98.8700	  807.00	  838.17	-1751.67	  388.93
     98.9700	  835.00	  839.73	-1725.23	  388.73
     99.0700	  848.00	  855.33	-1727.83	  388.52
     99.1700	  857.00	  885.15	-1748.65	  388.32
     99.2700	  958.00	  929.16	-1691.66	  388.11
     99.3700	  991.00	  987.07	-1716.57	  387.91
     99.4700	 1030.00	 1058.23	-1748.73	  387.70
     99.5700	 1156.00	 1141.60	-1706.10	  387.49
     99.6700	 1204.00	 1235.63	-1752.13	  387.28
     99.7700	 1303.00	 1338.12	-1755.62	  387.07
     99.8700	 1437.00	 1446.21	-1729.71	  386.86
     99.9700	 1518.00	 1556.31	-1758.81	  386.65
    100.0700	 1700.00	 1664.30	-1684.80	  386.44
    100.1700	 1847.00	 1765.67	-1639.17	  386.23
    100.2700	 1906.00	 1855.97	-1670.47	  386.02
    100.3700	 1943.00	 1931.33	-1708.83	  385.80
    100.4700	 1984.00	 1988.77	-1725.27	  385.59
    100.5700	 2044.00	 2026.28	-1702.78	  385.38
    100.6700	 2085.00	 2042.67	-1678.17	  385.16
    100.7700	 2035.00	 2037.37	-1722.87	  384.95
    100.8700	 2090.00	 2010.58	-1641.08	  384.73
    100.9700	 1967.00	 1963.58	-1717.08	  384.52
    101.0700	 1871.00	 1898.99	-1748.49	  384.30
    101.1700	 1855.00	 1820.70	-1686.20	  384.08
    101.2700	 1718.00	 1733.53	-1736.03	  383.87
    101.3700	 1615.00	 1642.55	-1748.05	  383.65
    101.4700	 1566.00	 1552.51	-1707.01	  383.43
    101.5700	 1567.00	 1467.42	-1620.92	  383.21
    101.6700	 1388.00	 1390.30	-1722.80	  383.00
    101.7700	 1316.00	 1323.19	-1727.69	  382.78
    101.8700	 1276.00	 1267.05	-1711.55	  382.56
    101.9700	 1223.00	 1221.89	-1719.39	  382.34
    102.0700	 1225.00	 1186.79	-1682.29	  382.12
    102.1700	 1230.00	 1160.09	-1650.59	  381.90
    102.2700	 1177.00	 1139.55	-1683.05	  381.68
    102.3700	 1107.00	 1122.54	-1736.04	  381.46
    102.4700	 1094.00	 1106.38	-1732.88	  381.24
    102.5700	 1041.00	 1088.62	-1768.12	  381.02
    102.6700	 1135.00	 1067.42	-1652.92	  380.80
    102.7700	 1058.00	 1041.73	-1704.23	  380.58
    102.8700	  975.00	 1011.38	-1756.88	  380.36
    102.9700	  968.00	  976.89	-1729.39	  380.14
    103.0700	  924.00	  939.23	-1735.73	  379.92
    103.1700	  842.00	  899.61	-1778.11	  379.70
    103.2700	  825.00	  859.28	-1754.78	  379.48
    103.3700	  817.00	  819.42	-1722.92	  379.25
    103.4700	  762.00	  781.10	-1739.60	  379.03
    103.5700	  752.00	  745.16	-1713.66	  378.81
    103.6700	  740.00	  712.25	-1692.75	  378.59
    103.7700	  693.00	  682.81	-1710.31	  378.37
    103.8700	  665.00	  657.06	-1712.56	  378.15
    103.9700	  644.00	  635.03	-1711.53	  377.93
    104.0700	  627.00	  616.60	-1710.10	  377.71
    104.1700	  586.00	  601.51	-1736.01	  377.49
    104.2700	  599.00	  589.44	-1710.94	  377.27
    104.3700	  553.00	  580.02	-1747.52	  377.05
    104.4700	  578.00	  572.87	-1715.37	  376.83
    104.5700	  546.00	  567.62	-1742.12	  376.62
    104.6700	  608.00	  563.92	-1676.42	  376.40
    104.7700	  561.00	  561.48	-1720.98	  376.18
    104.8700	  520.00	  560.06	-1760.56	  375.96
    104.9700	  575.00	  559.45	-1704.95	  375.74
    105.0700	  579.00	  559.49	-1700.99	  375.53
    105.1700	  532.00	  560.08	-1748.58	  375.31
    105.2700	  564.00	  561.13	-1717.63	  375.09
    105.3700	  583.00	  562.63	-1700.13	  374.88
    105.4700	  536.00	  564.59	-1749.09	  374.66
    105.5700	  529.00	  567.05	-1758.55	  374.45
    105.6700	  578.00	  570.07	-1712.57	  374.23
    105.7700	  582.00	  573.77	-1712.27	  374.02
    105.8700	  569.00	  578.23	-1729.73	  373.81
    105.9700	  542.00	  583.53	-1762.03	  373.60
    106.0700	  605.00	  589.71	-1705.21	  373.38
    106.1700	  640.00	  596.76	-1677.26	  373.17
    106.2700	  627.00	  604.66	-1698.16	  372.96
    106.3700	  612.00	  613.27	-1721.77	  372.75
    106.4700	  601.00	  622.45	-1741.95	  372.54
    106.5700	  618.00	  631.97	-1734.47	  372.34
    106.6700	  641.00	  641.55	-1721.05	  372.13
    106.7700	  673.00	  650.88	-1698.38	  371.92
    106.8700	  671.00	  659.62	-1709.12	  371.72
    106.9700	  638.00	  667.43	-1749.93	  371.51
    107.0700	  655.00	  674.00	-1739.50	  371.31
    107.1700	  688.00	  679.09	-1711.59	  371.11
    107.2700	  646.00	  682.60	-1757.10	  370.90
    107.3700	  698.00	  684.59	-1707.09	  370.70
    107.4700	  666.00	  685.24	-1739.74	  370.50
    107.5700	  674.00	  684.88	-1731.38	  370.31
    107.6700	  660.00	  683.88	-1744.38	  370.11
    107.7700	  699.00	  682.62	-1704.12	  369.91
    107.8700	  679.00	  681.44	-1722.94	  369.72
    107.9700	  693.00	  680.61	-1708.11	  369.52
    108.0700	  693.00	  680.29	-1707.79	  369.33
    108.1700	  689.00	  680.56	-1712.06	  369.14
    108.2700	  686.00	  681.38	-1715.88	  368.95
    108.3700	  672.00	  682.60	-1731.10	  368.76
    108.4700	  658.00	  683.99	-1746.49	  368.57
    108.5700	  652.00	  685.24	-1753.74	  368.38
    108.6700	  663.00	  685.98	-1743.48	  368.20
    108.7700	  659.00	  685.82	-1747.32	  368.01
    108.8700	  676.00	  684.45	-1728.95	  367.83
    108.9700	  681.00	  681.60	-1721.10	  367.65
    109.0700	  679.00	  677.18	-1718.68	  367.47
    109.1700	  707.00	  671.20	-1684.70	  367.29
    109.2700	  651.00	  663.82	-1733.32	  367.12
    109.3700	  643.00	  655.29	-1732.79	  366.94
    109.4700	  647.00	  645.92	-1719.42	  366.77
    109.5700	  675.00	  636.02	-1681.52	  366.60
    109.6700	  660.00	  625.92	-1686.42	  366.43
    109.7700	  594.00	  615.90	-1742.40	  366.26
    109.8700	  623.00	  606.22	-1703.72	  366.10
    109.9700	  593.00	  597.10	-1724.60	  365.93
    110.0700	  631.00	  588.71	-1678.21	  365.77
    110.1700	  574.00	  581.17	-1727.67	  365.61
    110.2700	  605.00	  574.56	-1690.06	  365.45
    110.3700	  584.00	  568.91	-1705.41	  365.29
    110.4700	  583.00	  564.23	-1701.73	  365.14
    110.5700	  579.00	  560.48	-1701.98	  364.99
    110.6700	  540.00	  557.61	-1738.11	  364.84
    110.7700	  528.00	  555.53	-1748.03	  364.69
    110.8700	  571.00	  554.18	-1703.68	  364.54
    110.9700	  582.00	  553.45	-1691.95	  364.40
    111.0700	  570.00	  553.28	-1703.78	  364.25
    111.1700	  559.00	  553.58	-1715.08	  364.11
    111.2700	  569.00	  554.28	-1705.78	  363.98
    111.3700	  561.00	  555.32	-1714.82	  363.84
    111.4700	  547.00	  556.65	-1730.15	  363.71
    111.5700	  517.00	  558.21	-1761.71	  363.58
    111.6700	  586.00	  559.99	-1694.49	  363.45
    111.7700	  555.00	  561.96	-1727.46	  363.32
    111.8700	  528.00	  564.10	-1756.60	  363.20
    111.9700	  568.00	  566.41	-1718.91	  363.08
    112.0700	  591.00	  568.90	-1698.40	  362.96
    112.1700	  556.00	  571.58	-1736.08	  362.84
    112.2700	  601.00	  574.48	-1693.98	  362.73
    112.3700	  586.00	  577.63	-1712.13	  362.62
    112.4700	  560.00	  581.06	-1741.56	  362.51
    112.5700	  554.00	  584.85	-1751.35	  362.40
    112.6700	  628.00	  589.05	-1681.55	  362.30
    112.7700	  643.00	  593.75	-1671.25	  362.20
    112.8700	  620.00	  599.07	-1699.57	  362.10
    112.9700	  639.00	  605.16	-1686.66	  362.01
    113.0700	  653.00	  612.20	-1679.70	  361.92
    113.1700	  656.00	  620.46	-1684.96	  361.83
    113.2700	  678.00	  630.24	-1672.74	  361.75
    113.3700	  704.00	  641.97	-1658.47	  361.66
    113.4700	  663.00	  656.16	-1713.66	  361.59
    113.5700	  711.00	  673.46	-1682.96	  361.51
    113.6700	  728.00	  694.69	-1687.19	  361.44
    113.7700	  818.00	  720.82	-1623.32	  361.37
    113.8700	  823.00	  753.06	-1650.56	  361.30
    113.9700	  846.00	  792.79	-1667.29	  361.24
    114.0700	  938.00	  841.64	-1624.14	  361.18
    114.1700	  962.00	  901.46	-1659.96	  361.12
    114.2700	 1013.00	  974.30	-1681.80	  361.07
    114.3700	 1103.00	 1062.39	-1679.89	  361.02
    114.4700	 1296.00	 1168.04	-1592.54	  360.97
    114.5700	 1339.00	 1293.65	-1675.15	  360.93
    114.6700	 1543.00	 1441.57	-1619.07	  360.89
    114.7700	 1670.00	 1613.93	-1664.43	  360.86
    114.8700	 1869.00	 1812.56	-1664.06	  360.82
    114.9700	 2065.00	 2038.75	-1694.25	  360.80
    115.0700	 2389.00	 2293.25	-1624.75	  360.77
    115.1700	 2698.00	 2576.00	-1598.50	  360.75
    115.2700	 3015.00	 2885.93	-1591.43	  360.73
    115.3700	 3254.00	 3220.89	-1687.39	  360.72
    115.4700	 3537.00	 3577.55	-1761.05	  360.71
    115.5700	 3894.00	 3951.40	-1777.90	  360.71
    115.6700	 4203.00	 4336.72	-1854.22	  360.71
    115.7700	 4613.00	 4726.39	-1833.89	  360.71
    115.8700	 4896.00	 5112.20	-1936.70	  360.72
    115.9700	 5372.00	 5484.82	-1833.32	  360.73
    116.0700	 5716.00	 5834.16	-1838.66	  360.74
    116.1700	 6032.00	 6149.56	-1838.06	  360.76
    116.2700	 6353.00	 6420.15	-1787.65	  360.79
    116.3700	 6563.00	 6635.63	-1793.13	  360.82
    116.4700	 6828.00	 6787.08	-1679.58	  360.85
    116.5700	 6718.00	 6867.86	-1870.36	  360.89
    116.6700	 6882.00	 6874.38	-1712.88	  360.93
    116.7700	 6833.00	 6806.56	-1694.06	  360.98
    116.8700	 6771.00	 6667.89	-1617.39	  361.03
    116.9700	 6398.00	 6464.96	-1787.46	  361.08
    117.0700	 6086.00	 6206.56	-1841.06	  361.14
    117.1700	 5996.00	 5902.84	-1627.34	  361.21
    117.2700	 5357.00	 5564.54	-1928.04	  361.28
    117.3700	 5190.00	 5202.27	-1732.77	  361.35
    117.4700	 4814.00	 4826.13	-1732.63	  361.43
    117.5700	 4349.00	 4445.22	-1816.72	  361.51
    117.6700	 4199.00	 4067.56	-1589.06	  361.60
    117.7700	 3799.00	 3700.12	-1621.62	  361.70
    117.8700	 3531.00	 3348.56	-1538.06	  361.80
    117.9700	 3224.00	 3017.36	-1513.86	  361.90
    118.0700	 2762.00	 2709.66	-1668.16	  362.01
    118.1700	 2483.00	 2427.52	-1665.02	  362.12
    118.2700	 2276.00	 2172.05	-1616.55	  362.24
    118.3700	 1860.00	 1943.42	-1803.92	  362.37
    118.4700	 1722.00	 1741.10	-1739.60	  362.50
    118.5700	 1497.00	 1563.88	-1787.38	  362.64
    118.6700	 1403.00	 1410.12	-1727.62	  362.78
    118.7700	 1226.00	 1277.93	-1772.43	  362.92
    118.8700	 1143.00	 1165.18	-1742.68	  363.08
    118.9700	  978.00	 1069.72	-1812.22	  363.24
    119.0700	  955.00	  989.36	-1754.86	  363.40
    119.1700	  913.00	  922.06	-1729.56	  363.57
    119.2700	  820.00	  865.91	-1766.41	  363.74
    119.3700	  765.00	  819.19	-1774.69	  363.92
    119.4700	  726.00	  780.39	-1774.89	  364.11
    119.5700	  689.00	  748.17	-1779.67	  364.30
    119.6700	  677.00	  721.41	-1764.91	  364.50
    119.7700	  636.00	  699.16	-1783.66	  364.71
    119.8700	  647.00	  680.63	-1754.13	  364.92
    119.9700	  687.00	  665.17	-1698.67	  365.14
    120.0700	  610.00	  652.26	-1762.76	  365.36
    120.1700	  627.00	  641.46	-1734.96	  365.59
    120.2700	  605.00	  632.45	-1747.95	  365.83
    120.3700	  573.00	  624.95	-1772.45	  366.07
    120.4700	  566.00	  618.75	-1773.25	  366.32
    120.5700	  588.00	  613.68	-1746.18	  366.57
    120.6700	  568.00	  609.61	-1762.11	  366.83
    120.7700	  597.00	  606.43	-1729.93	  367.10
    120.8700	  562.00	  604.06	-1762.56	  367.38
    120.9700	  555.00	  602.44	-1767.94	  367.66
    121.0700	  593.00	  601.51	-1729.01	  367.95
    121.1700	  589.00	  601.23	-1732.73	  368.24
    121.2700	  608.00	  601.55	-1714.05	  368.54
    121.3700	  616.00	  602.42	-1706.92	  368.85
    121.4700	  597.00	  603.80	-1727.30	  369.17
    121.5700	  599.00	  605.63	-1727.13	  369.49
    121.6700	  564.00	  607.87	-1764.37	  369.82
    121.7700	  604.00	  610.44	-1726.94	  370.16
    121.8700	  610.00	  613.28	-1723.78	  370.51
    121.9700	  620.00	  616.31	-1716.81	  370.86
    122.0700	  610.00	  619.44	-1729.94	  371.22
    122.1700	  635.00	  622.58	-1708.08	  371.58
    122.2700	  652.00	  625.62	-1694.12	  371.96
    122.3700	  648.00	  628.50	-1701.00	  372.34
    122.4700	  607.00	  631.11	-1744.61	  372.73
    122.5700	  601.00	  633.34	-1752.84	  373.13
    122.6700	  699.00	  635.12	-1656.62	  373.53
    122.7700	  633.00	  636.39	-1723.89	  373.94
    122.8700	  677.00	  637.11	-1680.61	  374.36
    122.9700	  658.00	  637.25	-1699.75	  374.79
    123.0700	  645.00	  636.82	-1712.32	  375.23
    123.1700	  626.00	  635.84	-1730.34	  375.67
    123.2700	  626.00	  634.37	-1728.87	  376.12
    123.3700	  671.00	  632.46	-1681.96	  376.59
    123.4700	  669.00	  630.17	-1681.67	  377.05
    123.5700	  623.00	  627.58	-1725.08	  377.53
    123.6700	  647.00	  624.74	-1698.24	  378.02
    123.7700	  621.00	  621.74	-1721.24	  378.51
    123.8700	  604.00	  618.64	-1735.14	  379.01
    123.9700	  656.00	  615.51	-1680.01	  379.52
    124.0700	  611.00	  612.39	-1721.89	  380.04
    124.1700	  621.00	  609.33	-1708.83	  380.57
    124.2700	  631.00	  606.38	-1695.88	  381.11
    124.3700	  660.00	  603.58	-1664.08	  381.65
    124.4700	  607.00	  600.95	-1714.45	  382.21
    124.5700	  589.00	  598.51	-1730.01	  382.77
    124.6700	  625.00	  596.28	-1691.78	  383.34
    124.7700	  608.00	  594.27	-1706.77	  383.92
    124.8700	  579.00	  592.51	-1734.01	  384.51
    124.9700	  607.00	  505.35	-1618.85	  385.11
    125.0700	  603.00	  505.96	-1720.50	  385.72
    125.1700	  588.00	  506.58	-1720.50	  386.34
    125.2700	  555.00	  507.20	-1720.50	  386.97
    125.3700	  574.00	  507.84	-1720.50	  387.61
    125.4700	  569.00	  508.49	-1720.50	  388.25
    125.5700	  610.00	  509.15	-1720.50	  388.91
    125.6700	  517.00	  509.81	-1720.50	  389.58
    125.7700	  515.00	  510.49	-1720.50	  390.25
    125.8700	  525.00	  511.17	-1720.50	  390.94
    125.9700	  560.00	  511.87	-1720.50	  391.63
    126.0700	  554.00	  512.57	-1720.50	  392.34
    126.1700	  566.00	  513.29	-1720.50	  393.05
    126.2700	  598.00	  514.01	-1720.50	  393.78
    126.3700	  581.00	  514.75	-1720.50	  394.51
    126.4700	  599.00	  515.50	-1720.50	  395.26
    126.5700	  633.00	  516.25	-1720.50	  396.02
    126.6700	  633.00	  517.02	-1720.50	  396.78
    126.7700	  615.00	  517.79	-1720.50	  397.56
    126.8700	  577.00	  518.58	-1720.50	  398.35
    126.9700	  678.00	  519.38	-1720.50	  399.14
    127.0700	  690.00	  520.19	-1720.50	  399.95
    127.1700	  641.00	  521.01	-1720.50	  400.77
    127.2700	  627.00	  521.84	-1720.50	  401.60
    127.3700	  702.00	  522.68	-1720.50	  402.44
    127.4700	  691.00	  523.53	-1720.50	  403.30
    127.5700	  680.00	  524.40	-1720.50	  404.16
    127.6700	  701.00	  525.27	-1720.50	  405.03
    127.7700	  686.00	  526.16	-1720.50	  405.92
    127.8700	  757.00	  527.05	-1720.50	  406.82
    127.9700	  767.00	  527.96	-1720.50	  407.72
    128.0700	  797.00	  528.88	-1720.50	  408.64
    128.1700	  771.00	  529.81	-1720.50	  409.57
    128.2700	  787.00	  530.75	-1720.50	  410.52
    128.3700	  785.00	  531.71	-1720.50	  411.47
    128.4700	  814.00	  532.67	-1720.50	  412.44
    128.5700	    0.00	  533.65	-1720.50	  413.41
    128.6700	    0.00	  534.64	-1720.50	  414.40
     12.3048	        	        	        	        	       0	(  0  0  2)	  0  1
     24.8782	        	        	        	        	       0	(  0  0  4)	  0  1
     28.3333	        	        	        	        	       0	(  1  0  0)	  0  1
     29.0296	        	        	        	        	       0	(  1  0  1)	  0  1
     31.0332	        	        	        	        	       0	(  1  0  2)	  0  1
     34.1378	        	        	        	        	       0	(  1  0  3)	  0  1
     37.7668	        	        	        	        	       0	(  0  0  6)	  0  1
     38.1103	        	        	        	        	       0	(  1  0  4)	  0  1
     42.7552	        	        	        	        	       0	(  1  0  5)	  0  1
     47.9336	        	        	        	        	       0	(  1  0  6)	  0  1
     50.2651	        	        	        	        	       0	(  1  1  0)	  0  1
     51.1763	        	        	        	        	       0	(  0  0  8)	  0  1
     51.9858	        	        	        	        	       0	(  1  1  2)	  0  1
     53.5579	        	        	        	        	       0	(  1  0  7)	  0  1
     56.9271	        	        	        	        	       0	(  1  1  4)	  0  1
     58.7599	        	        	        	        	       0	(  2  0  0)	  0  1
     59.1509	        	        	        	        	       0	(  2  0  1)	  0  1
     59.5816	        	        	        	        	       0	(  1  0  8)	  0  1
     60.3147	        	        	        	        	       0	(  2  0  2)	  0  1
     62.2253	        	        	        	        	       0	(  2  0  3)	  0  1
     64.6119	        	        	        	        	       0	(  1  1  6)	  0  1
     64.8458	        	        	        	        	       0	(  2  0  4)	  0  1
     65.3906	        	        	        	        	       0	(  0  0 10)	  0  1
     65.9905	        	        	        	        	       0	(  1  0  9)	  0  1
     68.1356	        	        	        	        	       0	(  2  0  5)	  0  1
     72.0577	        	        	        	        	       0	(  2  0  6)	  0  1
     72.7983	        	        	        	        	       0	(  1  0 10)	  0  1
     74.6364	        	        	        	        	       0	(  1  1  8)	  0  1
     76.5856	        	        	        	        	       0	(  2  0  7)	  0  1
     80.0465	        	        	        	        	       0	(  1  0 11)	  0  1
     80.8519	        	        	        	        	       0	(  0  0 12)	  0  1
     80.9942	        	        	        	        	       0	(  2  1  0)	  0  1
     81.3336	        	        	        	        	       0	(  2  1  1)	  0  1
     81.7086	        	        	        	        	       0	(  2  0  8)	  0  1
     82.3499	        	        	        	        	       0	(  2  1  2)	  0  1
     84.0387	        	        	        	        	       0	(  2  1  3)	  0  1
     86.3948	        	        	        	        	       0	(  2  1  4)	  0  1
     86.8904	        	        	        	        	       0	(  1  1 10)	  0  1
     87.4382	        	        	        	        	       0	(  2  0  9)	  0  1
     87.8095	        	        	        	        	       0	(  1  0 12)	  0  1
     89.4160	        	        	        	        	       0	(  2  1  5)	  0  1
     93.1076	        	        	        	        	       0	(  2  1  6)	  0  1
     93.8155	        	        	        	        	       0	(  2  0 10)	  0  1
     94.8776	        	        	        	        	       0	(  3  0  0)	  0  1
     95.2144	        	        	        	        	       0	(  3  0  1)	  0  1
     96.2090	        	        	        	        	       0	(  1  0 13)	  0  1
     96.2260	        	        	        	        	       0	(  3  0  2)	  0  1
     97.4891	        	        	        	        	       0	(  2  1  7)	  0  1
     97.9166	        	        	        	        	       0	(  3  0  3)	  0  1
     98.3635	        	        	        	        	       0	(  0  0 14)	  0  1
    100.2957	        	        	        	        	       0	(  3  0  4)	  0  1
    100.9251	        	        	        	        	       0	(  2  0 11)	  0  1
    101.7358	        	        	        	        	       0	(  1  1 12)	  0  1
    102.6027	        	        	        	        	       0	(  2  1  8)	  0  1
    103.3820	        	        	        	        	       0	(  3  0  5)	  0  1
    105.4439	        	        	        	        	       0	(  1  0 14)	  0  1
    107.2104	        	        	        	        	       0	(  3  0  6)	  0  1
    108.5286	        	        	        	        	       0	(  2  1  9)	  0  1
    108.9206	        	        	        	        	       0	(  2  0 12)	  0  1
    111.8420	        	        	        	        	       0	(  3  0  7)	  0  1
    115.4111	        	        	        	        	       0	(  2  1 10)	  0  1
    115.8626	        	        	        	        	       0	(  1  0 15)	  0  1
    116.5904	        	        	        	        	       0	(  2  2  0)	  0  1
    117.3840	        	        	        	        	       0	(  3  0  8)	  0  1
    118.0835	        	        	        	        	       0	(  2  0 13)	  0  1
    118.1026	        	        	        	        	       0	(  2  2  2)	  0  1
    119.8008	        	        	        	        	       0	(  0  0 16)	  0  1
    120.5366	        	        	        	        	       0	(  1  1 14)	  0  1
    122.7786	        	        	        	        	       0	(  2  2  4)	  0  1
    123.5183	        	        	        	        	       0	(  2  1 11)	  0  1
    124.0285	        	        	        	        	       0	(  3  0  9)	  0  1
    124.6490	        	        	        	        	       0	(  3  1  0)	  0  1
    125.0584	        	        	        	        	       0	(  3  1  1)	  0  1
    126.2991	        	        	        	        	       0	(  3  1  2)	  0  1
    128.1663	        	        	        	        	       0	(  1  0 16)	  0  1
    128.4126	        	        	        	        	       0	(  3  1  3)	  0  1
    128.9803	        	        	        	        	       0	(  2  0 14)	  0  1
    131.1987	        	        	        	        	       0	(  2  2  6)	  0  1
    131.4813	        	        	        	        	       0	(  3  1  4)	  0  1
    132.1463	        	        	        	        	       0	(  3  0 10)	  0  1
    133.3997	        	        	        	        	       0	(  2  1 12)	  0  1
    135.6573	        	        	        	        	       0	(  3  1  5)	  0  1
    141.2354	        	        	        	        	       0	(  3  1  6)	  0  1
    142.5848	        	        	        	        	       0	(  3  0 11)	  0  1
    143.0543	        	        	        	        	       0	(  2  0 15)	  0  1
    144.2497	        	        	        	        	       0	(  1  0 17)	  0  1
    145.3850	        	        	        	        	       0	(  2  2  8)	  0  1
    146.4926	        	        	        	        	       0	(  2  1 13)	  0  1
    148.8774	        	        	        	        	       0	(  3  1  7)	  0  1
    149.3279	        	        	        	        	       0	(  1  1 16)	  0  1
    153.6356	        	        	        	        	       0	(  0  0 18)	  0  1
    158.3427	        	        	        	        	       0	(  3  0 12)	  0  1
    158.7289	        	        	        	        	       0	(  4  0  0)	  0  1
    159.6789	        	        	        	        	       0	(  4  0  1)	  0  1
    160.7823	        	        	        	        	       0	(  3  1  8)	  0  1
    162.8301	        	        	        	        	       0	(  4  0  2)	  0  1
    168.9783	        	        	        	        	       0	(  2  0 16)	  0  1
    170.0511	        	        	        	        	       0	(  4  0  3)	  0  1
    173.1163	        	        	        	        	       0	(  2  1 14)	  0  1
