MSG Master    CELL:    5.91566   5.91566  23.25109   90.0000   90.0000  120.0000   SPGR: P 63/m m c             TEMP:   1007.35
  1   1280     2.52000     0.00000    -0.12483     0.00000     0.00000    0
    99     0     2
       0.00000      10.00000
     125.00000     130.00000
 2Theta	Yobs	Ycal	Yobs-Ycal	Backg	Posr	(hkl)	K
      0.7700	    0.00	  555.02	-1803.00	  440.87
      0.8700	    0.00	  555.66	-1803.00	  441.51
      0.9700	   35.00	  556.29	-1803.00	  442.14
      1.0700	   35.00	  556.91	-1803.00	  442.76
      1.1700	   49.00	  557.52	-1803.00	  443.37
      1.2700	   38.00	  558.12	-1803.00	  443.96
      1.3700	   49.00	  558.71	-1803.00	  444.55
      1.4700	   97.00	  559.29	-1803.00	  445.13
      1.5700	  310.00	  559.85	-1803.00	  445.70
      1.6700	  435.00	  560.41	-1803.00	  446.26
      1.7700	  538.00	  560.96	-1803.00	  446.81
      1.8700	  679.00	  561.50	-1803.00	  447.35
      1.9700	  681.00	  562.03	-1803.00	  447.88
      2.0700	  778.00	  562.55	-1803.00	  448.40
      2.1700	  775.00	  563.06	-1803.00	  448.91
      2.2700	  698.00	  563.56	-1803.00	  449.41
      2.3700	  741.00	  564.05	-1803.00	  449.90
      2.4700	  702.00	  564.54	-1803.00	  450.38
      2.5700	  656.00	  565.01	-1803.00	  450.86
      2.6700	  604.00	  565.47	-1803.00	  451.32
      2.7700	  634.00	  565.93	-1803.00	  451.77
      2.8700	  597.00	  566.37	-1803.00	  452.22
      2.9700	  585.00	  566.81	-1803.00	  452.66
      3.0700	  605.00	  567.24	-1803.00	  453.08
      3.1700	  596.00	  567.66	-1803.00	  453.50
      3.2700	  562.00	  568.07	-1803.00	  453.91
      3.3700	  735.00	  568.47	-1803.00	  454.31
      3.4700	  752.00	  568.86	-1803.00	  454.70
      3.5700	  777.00	  569.24	-1803.00	  455.09
      3.6700	  813.00	  569.62	-1803.00	  455.46
      3.7700	  936.00	  569.98	-1803.00	  455.83
      3.8700	  892.00	  570.34	-1803.00	  456.19
      3.9700	  979.00	  570.69	-1803.00	  456.54
      4.0700	 1035.00	  571.03	-1803.00	  456.88
      4.1700	 1072.00	  571.37	-1803.00	  457.21
      4.2700	 1030.00	  571.69	-1803.00	  457.54
      4.3700	 1077.00	  572.01	-1803.00	  457.85
      4.4700	 1028.00	  572.32	-1803.00	  458.16
      4.5700	 1038.00	  572.62	-1803.00	  458.46
      4.6700	 1021.00	  572.91	-1803.00	  458.76
      4.7700	  976.00	  573.19	-1803.00	  459.04
      4.8700	  997.00	  573.47	-1803.00	  459.32
      4.9700	  952.00	  573.74	-1803.00	  459.59
      5.0700	  892.00	  574.00	-1803.00	  459.85
      5.1700	  888.00	  574.26	-1803.00	  460.10
      5.2700	  943.00	  574.50	-1803.00	  460.35
      5.3700	  896.00	  574.74	-1803.00	  460.59
      5.4700	  901.00	  574.97	-1803.00	  460.82
      5.5700	  862.00	  575.20	-1803.00	  461.04
      5.6700	  844.00	  575.41	-1803.00	  461.26
      5.7700	  813.00	  575.62	-1803.00	  461.47
      5.8700	  810.00	  575.83	-1803.00	  461.67
      5.9700	  786.00	  576.02	-1803.00	  461.87
      6.0700	  798.00	  576.21	-1803.00	  462.06
      6.1700	  806.00	  576.39	-1803.00	  462.24
      6.2700	  756.00	  576.56	-1803.00	  462.41
      6.3700	  709.00	  576.73	-1803.00	  462.58
      6.4700	  737.00	  576.89	-1803.00	  462.74
      6.5700	  720.00	  577.05	-1803.00	  462.89
      6.6700	  749.00	  577.19	-1803.00	  463.04
      6.7700	  697.00	  577.33	-1803.00	  463.18
      6.8700	  724.00	  577.47	-1803.00	  463.31
      6.9700	  659.00	  577.59	-1803.00	  463.44
      7.0700	  707.00	  577.71	-1803.00	  463.56
      7.1700	  681.00	  577.83	-1803.00	  463.67
      7.2700	  680.00	  577.93	-1803.00	  463.78
      7.3700	  666.00	  578.03	-1803.00	  463.88
      7.4700	  714.00	  578.13	-1803.00	  463.98
      7.5700	  704.00	  578.22	-1803.00	  464.06
      7.6700	  621.00	  578.30	-1803.00	  464.15
      7.7700	  655.00	  578.38	-1803.00	  464.22
      7.8700	  644.00	  578.45	-1803.00	  464.29
      7.9700	  612.00	  578.51	-1803.00	  464.36
      8.0700	  669.00	  578.57	-1803.00	  464.42
      8.1700	  608.00	  578.62	-1803.00	  464.47
      8.2700	  606.00	  578.67	-1803.00	  464.51
      8.3700	  643.00	  578.71	-1803.00	  464.55
      8.4700	  601.00	  578.74	-1803.00	  464.59
      8.5700	  576.00	  578.77	-1803.00	  464.62
      8.6700	  627.00	  578.80	-1803.00	  464.64
      8.7700	  606.00	  578.81	-1803.00	  464.66
      8.8700	  639.00	  578.83	-1803.00	  464.67
      8.9700	  673.00	  578.83	-1803.00	  464.68
      9.0700	  625.00	  578.83	-1803.00	  464.68
      9.1700	  622.00	  578.83	-1803.00	  464.68
      9.2700	  621.00	  578.82	-1803.00	  464.67
      9.3700	  631.00	  578.81	-1803.00	  464.65
      9.4700	  597.00	  578.79	-1803.00	  464.63
      9.5700	  622.00	  578.76	-1803.00	  464.61
      9.6700	  615.00	  578.73	-1803.00	  464.58
      9.7700	  596.00	  578.69	-1803.00	  464.54
      9.8700	  602.00	  578.65	-1803.00	  464.50
      9.9700	  652.00	  578.61	-1803.00	  464.46
     10.0700	  610.00	  579.35	-1772.35	  464.41
     10.1700	  614.00	  579.37	-1768.37	  464.35
     10.2700	  606.00	  579.41	-1776.41	  464.29
     10.3700	  580.00	  579.47	-1802.47	  464.23
     10.4700	  606.00	  579.57	-1776.57	  464.16
     10.5700	  617.00	  579.77	-1765.77	  464.08
     10.6700	  604.00	  580.15	-1779.15	  464.00
     10.7700	  603.00	  580.82	-1780.82	  463.92
     10.8700	  589.00	  581.85	-1795.85	  463.83
     10.9700	  530.00	  583.26	-1856.26	  463.74
     11.0700	  618.00	  585.01	-1770.01	  463.64
     11.1700	  625.00	  587.08	-1765.08	  463.54
     11.2700	  567.00	  589.50	-1825.50	  463.43
     11.3700	  598.00	  592.34	-1797.34	  463.32
     11.4700	  620.00	  595.73	-1778.73	  463.21
     11.5700	  636.00	  599.83	-1766.83	  463.09
     11.6700	  661.00	  604.97	-1746.97	  462.97
     11.7700	  621.00	  611.69	-1793.69	  462.84
     11.8700	  616.00	  620.86	-1807.86	  462.71
     11.9700	  638.00	  633.28	-1798.28	  462.58
     12.0700	  672.00	  647.88	-1778.88	  462.44
     12.1700	  652.00	  659.34	-1810.34	  462.29
     12.2700	  696.00	  658.25	-1765.25	  462.15
     12.3700	  668.00	  640.01	-1775.01	  462.00
     12.4700	  613.00	  615.48	-1805.48	  461.84
     12.5700	  608.00	  596.75	-1791.75	  461.68
     12.6700	  595.00	  586.34	-1794.34	  461.52
     12.7700	  602.00	  581.59	-1782.59	  461.36
     12.8700	  559.00	  579.46	-1823.46	  461.19
     12.9700	  553.00	  578.31	-1828.31	  461.01
     13.0700	  593.00	  577.52	-1787.52	  460.84
     13.1700	  560.00	  576.90	-1819.90	  460.66
     13.2700	  540.00	  576.40	-1839.40	  460.47
     13.3700	  548.00	  575.97	-1830.97	  460.29
     13.4700	  574.00	  575.59	-1804.59	  460.10
     13.5700	  578.00	  575.24	-1800.24	  459.90
     13.6700	  585.00	  574.92	-1792.92	  459.71
     13.7700	  549.00	  574.62	-1828.62	  459.51
     13.8700	  543.00	  574.33	-1834.33	  459.30
     13.9700	  608.00	  574.05	-1769.05	  459.10
     14.0700	  544.00	  573.78	-1832.78	  458.89
     14.1700	  558.00	  573.52	-1818.52	  458.68
     14.2700	  543.00	  573.26	-1833.26	  458.46
     14.3700	  535.00	  573.00	-1841.00	  458.24
     14.4700	  555.00	  572.75	-1820.75	  458.02
     14.5700	  562.00	  572.49	-1813.49	  457.79
     14.6700	  550.00	  572.24	-1825.24	  457.57
     14.7700	  567.00	  571.99	-1807.99	  457.34
     14.8700	  549.00	  571.73	-1825.73	  457.10
     14.9700	  559.00	  571.48	-1815.48	  456.87
     15.0700	  540.00	  571.22	-1834.22	  456.63
     15.1700	  560.00	  570.97	-1813.97	  456.39
     15.2700	  501.00	  570.71	-1872.71	  456.14
     15.3700	  571.00	  570.45	-1802.45	  455.90
     15.4700	  575.00	  570.19	-1798.19	  455.65
     15.5700	  530.00	  569.93	-1842.93	  455.40
     15.6700	  555.00	  569.66	-1817.66	  455.14
     15.7700	  553.00	  569.40	-1819.40	  454.88
     15.8700	  573.00	  569.13	-1799.13	  454.63
     15.9700	  554.00	  568.86	-1817.86	  454.36
     16.0700	  553.00	  568.59	-1818.59	  454.10
     16.1700	  531.00	  568.32	-1840.32	  453.83
     16.2700	  510.00	  568.07	-1861.07	  453.57
     16.3700	  546.00	  567.80	-1824.80	  453.29
     16.4700	  555.00	  567.52	-1815.52	  453.02
     16.5700	  548.00	  567.24	-1822.24	  452.75
     16.6700	  560.00	  566.96	-1809.96	  452.47
     16.7700	  583.00	  566.68	-1786.68	  452.19
     16.8700	  530.00	  566.39	-1839.39	  451.91
     16.9700	  557.00	  566.11	-1812.11	  451.63
     17.0700	  585.00	  565.82	-1783.82	  451.34
     17.1700	  552.00	  565.53	-1816.53	  451.05
     17.2700	  551.00	  565.24	-1817.24	  450.76
     17.3700	  578.00	  564.94	-1789.94	  450.47
     17.4700	  555.00	  564.65	-1812.65	  450.18
     17.5700	  520.00	  564.35	-1847.35	  449.88
     17.6700	  556.00	  564.05	-1811.05	  449.59
     17.7700	  573.00	  563.76	-1793.76	  449.29
     17.8700	  550.00	  563.45	-1816.45	  448.99
     17.9700	  592.00	  563.26	-1774.26	  448.69
     18.0700	  568.00	  562.95	-1797.95	  448.38
     18.1700	  519.00	  562.65	-1846.65	  448.08
     18.2700	  586.00	  562.35	-1779.35	  447.77
     18.3700	  529.00	  562.04	-1836.04	  447.46
     18.4700	  592.00	  561.73	-1772.73	  447.15
     18.5700	  540.00	  561.42	-1824.42	  446.84
     18.6700	  565.00	  561.11	-1799.11	  446.53
     18.7700	  549.00	  560.80	-1814.80	  446.22
     18.8700	  523.00	  560.59	-1840.59	  445.90
     18.9700	  607.00	  560.28	-1756.28	  445.58
     19.0700	  532.00	  559.96	-1830.96	  445.27
     19.1700	  562.00	  559.65	-1800.65	  444.95
     19.2700	  577.00	  559.34	-1785.34	  444.62
     19.3700	  595.00	  559.02	-1767.02	  444.30
     19.4700	  552.00	  558.70	-1809.70	  443.98
     19.5700	  540.00	  558.39	-1821.39	  443.66
     19.6700	  543.00	  558.07	-1818.07	  443.33
     19.7700	  545.00	  557.75	-1815.75	  443.00
     19.8700	  570.00	  557.43	-1790.43	  442.68
     19.9700	  506.00	  557.11	-1854.11	  442.35
     20.0700	  583.00	  556.79	-1776.79	  442.02
     20.1700	  568.00	  556.47	-1791.47	  441.69
     20.2700	  558.00	  556.15	-1801.15	  441.35
     20.3700	  543.00	  555.83	-1815.83	  441.02
     20.4700	  569.00	  555.51	-1789.51	  440.69
     20.5700	  561.00	  555.16	-1797.16	  440.35
     20.6700	  562.00	  554.84	-1795.84	  440.02
     20.7700	  544.00	  554.51	-1813.51	  439.68
     20.8700	  536.00	  554.23	-1821.23	  439.34
     20.9700	  538.00	  553.91	-1818.91	  439.01
     21.0700	  547.00	  553.59	-1809.59	  438.67
     21.1700	  560.00	  553.27	-1796.27	  438.33
     21.2700	  544.00	  552.95	-1811.95	  437.99
     21.3700	  543.00	  552.63	-1812.63	  437.65
     21.4700	  569.00	  552.31	-1786.31	  437.31
     21.5700	  551.00	  551.99	-1803.99	  436.97
     21.6700	  556.00	  551.68	-1798.68	  436.62
     21.7700	  577.00	  551.36	-1777.36	  436.28
     21.8700	  521.00	  551.05	-1833.05	  435.94
     21.9700	  533.00	  550.74	-1820.74	  435.59
     22.0700	  564.00	  550.43	-1789.43	  435.25
     22.1700	  580.00	  550.12	-1773.12	  434.90
     22.2700	  550.00	  549.82	-1802.82	  434.56
     22.3700	  525.00	  549.52	-1827.52	  434.21
     22.4700	  564.00	  549.22	-1788.22	  433.87
     22.5700	  517.00	  548.93	-1834.93	  433.52
     22.6700	  578.00	  548.64	-1773.64	  433.17
     22.7700	  541.00	  548.36	-1810.36	  432.83
     22.8700	  537.00	  548.09	-1814.09	  432.48
     22.9700	  539.00	  547.82	-1811.82	  432.13
     23.0700	  545.00	  547.57	-1805.57	  431.78
     23.1700	  536.00	  547.34	-1814.34	  431.43
     23.2700	  567.00	  547.12	-1783.12	  431.09
     23.3700	  554.00	  546.93	-1795.93	  430.74
     23.4700	  623.00	  546.77	-1726.77	  430.39
     23.5700	  598.00	  546.65	-1751.65	  430.04
     23.6700	  486.00	  546.59	-1863.59	  429.69
     23.7700	  587.00	  546.77	-1762.77	  429.34
     23.8700	  557.00	  546.99	-1792.99	  428.99
     23.9700	  587.00	  547.57	-1763.57	  428.65
     24.0700	  536.00	  548.89	-1815.89	  428.30
     24.1700	  590.00	  551.56	-1764.56	  427.95
     24.2700	  581.00	  556.40	-1778.40	  427.60
     24.3700	  597.00	  564.37	-1770.37	  427.25
     24.4700	  592.00	  576.53	-1787.53	  426.90
     24.5700	  600.00	  593.55	-1796.55	  426.55
     24.6700	  648.00	  613.66	-1768.66	  426.21
     24.7700	  648.00	  630.14	-1785.14	  425.86
     24.8700	  629.00	  632.10	-1806.10	  425.51
     24.9700	  631.00	  614.29	-1786.29	  425.16
     25.0700	  551.00	  587.98	-1839.98	  424.81
     25.1700	  569.00	  566.48	-1800.48	  424.47
     25.2700	  582.00	  553.68	-1774.68	  424.12
     25.3700	  560.00	  547.51	-1790.51	  423.77
     25.4700	  569.00	  544.75	-1778.75	  423.43
     25.5700	  562.00	  543.37	-1784.37	  423.08
     25.6700	  581.00	  542.50	-1764.50	  422.74
     25.7700	  599.00	  541.88	-1745.88	  422.39
     25.8700	  583.00	  541.42	-1761.42	  422.05
     25.9700	  502.00	  541.06	-1842.06	  421.70
     26.0700	  551.00	  540.80	-1792.80	  421.36
     26.1700	  505.00	  540.62	-1838.62	  421.01
     26.2700	  543.00	  540.51	-1800.51	  420.67
     26.3700	  546.00	  540.49	-1797.49	  420.33
     26.4700	  562.00	  540.55	-1781.55	  419.99
     26.5700	  612.00	  540.71	-1731.71	  419.64
     26.6700	  544.00	  540.98	-1799.98	  419.30
     26.7700	  559.00	  541.39	-1785.39	  418.96
     26.8700	  535.00	  541.97	-1809.97	  418.62
     26.9700	  576.00	  542.78	-1769.78	  418.28
     27.0700	  533.00	  543.88	-1813.88	  417.94
     27.1700	  583.00	  545.39	-1765.39	  417.61
     27.2700	  538.00	  547.55	-1812.55	  417.27
     27.3700	  592.00	  550.81	-1761.81	  416.93
     27.4700	  589.00	  556.05	-1770.05	  416.59
     27.5700	  558.00	  564.85	-1809.85	  416.26
     27.6700	  566.00	  579.78	-1816.78	  415.92
     27.7700	  524.00	  604.29	-1883.29	  415.59
     27.8700	  645.00	  641.63	-1799.63	  415.26
     27.9700	  677.00	  692.61	-1818.61	  414.92
     28.0700	  741.00	  752.52	-1814.52	  414.59
     28.1700	  910.00	  808.23	-1701.23	  414.26
     28.2700	  937.00	  838.38	-1704.38	  413.93
     28.3700	  991.00	  826.28	-1638.28	  413.60
     28.4700	  835.00	  787.01	-1755.01	  413.27
     28.5700	  707.00	  756.60	-1852.60	  412.95
     28.6700	  694.00	  755.40	-1864.40	  412.62
     28.7700	  728.00	  781.61	-1856.61	  412.29
     28.8700	  816.00	  816.42	-1803.42	  411.97
     28.9700	  867.00	  830.08	-1766.08	  411.65
     29.0700	  841.00	  798.50	-1760.50	  411.32
     29.1700	  724.00	  731.91	-1810.91	  411.00
     29.2700	  680.00	  662.99	-1785.99	  410.68
     29.3700	  602.00	  610.88	-1811.88	  410.36
     29.4700	  651.00	  578.29	-1730.29	  410.04
     29.5700	  598.00	  560.32	-1765.32	  409.72
     29.6700	  607.00	  550.85	-1746.85	  409.40
     29.7700	  577.00	  545.61	-1771.61	  409.09
     29.8700	  616.00	  542.40	-1729.40	  408.77
     29.9700	  562.00	  540.36	-1781.36	  408.46
     30.0700	  666.00	  539.22	-1676.22	  408.15
     30.1700	  556.00	  539.07	-1786.07	  407.83
     30.2700	  521.00	  540.40	-1822.40	  407.52
     30.3700	  576.00	  544.22	-1771.22	  407.21
     30.4700	  526.00	  552.13	-1829.13	  406.91
     30.5700	  575.00	  566.02	-1794.02	  406.60
     30.6700	  556.00	  586.85	-1833.85	  406.29
     30.7700	  587.00	  612.71	-1828.71	  405.99
     30.8700	  614.00	  637.25	-1826.25	  405.68
     30.9700	  603.00	  649.62	-1849.62	  405.38
     31.0700	  619.00	  640.11	-1824.11	  405.08
     31.1700	  586.00	  612.64	-1829.64	  404.78
     31.2700	  542.00	  582.04	-1843.04	  404.48
     31.3700	  537.00	  558.12	-1824.12	  404.18
     31.4700	  511.00	  542.98	-1834.98	  403.89
     31.5700	  571.00	  534.67	-1766.67	  403.59
     31.6700	  529.00	  530.38	-1804.38	  403.30
     31.7700	  529.00	  528.06	-1802.06	  403.01
     31.8700	  525.00	  526.63	-1804.63	  402.71
     31.9700	  553.00	  525.65	-1775.65	  402.42
     32.0700	  517.00	  524.94	-1810.94	  402.14
     32.1700	  575.00	  524.45	-1752.45	  401.85
     32.2700	  563.00	  524.12	-1764.12	  401.56
     32.3700	  568.00	  523.95	-1758.95	  401.28
     32.4700	  551.00	  523.95	-1775.95	  400.99
     32.5700	  578.00	  524.11	-1749.11	  400.71
     32.6700	  559.00	  524.47	-1768.47	  400.43
     32.7700	  548.00	  525.06	-1780.06	  400.15
     32.8700	  573.00	  525.95	-1755.95	  399.87
     32.9700	  518.00	  527.23	-1812.23	  399.60
     33.0700	  527.00	  529.09	-1805.09	  399.32
     33.1700	  555.00	  531.90	-1779.90	  399.05
     33.2700	  552.00	  536.51	-1787.51	  398.78
     33.3700	  530.00	  544.84	-1817.84	  398.51
     33.4700	  567.00	  560.65	-1796.65	  398.24
     33.5700	  586.00	  590.32	-1807.32	  397.97
     33.6700	  628.00	  641.99	-1816.99	  397.70
     33.7700	  767.00	  721.27	-1757.27	  397.44
     33.8700	  861.00	  822.96	-1764.96	  397.18
     33.9700	 1026.00	  924.14	-1701.14	  396.91
     34.0700	 1046.00	  984.44	-1741.44	  396.65
     34.1700	 1048.00	  964.71	-1719.71	  396.40
     34.2700	  930.00	  870.88	-1743.88	  396.14
     34.3700	  791.00	  755.13	-1767.13	  395.88
     34.4700	  657.00	  658.92	-1804.92	  395.63
     34.5700	  593.00	  595.29	-1805.29	  395.38
     34.6700	  563.00	  559.59	-1799.59	  395.13
     34.7700	  530.00	  541.44	-1814.44	  394.88
     34.8700	  557.00	  532.18	-1778.18	  394.63
     34.9700	  525.00	  526.87	-1804.87	  394.38
     35.0700	  547.00	  523.34	-1779.34	  394.14
     35.1700	  535.00	  520.71	-1788.71	  393.89
     35.2700	  556.00	  518.67	-1765.67	  393.65
     35.3700	  502.00	  517.01	-1818.01	  393.41
     35.4700	  545.00	  515.64	-1773.64	  393.17
     35.5700	  507.00	  514.48	-1810.48	  392.94
     35.6700	  494.00	  513.49	-1822.49	  392.70
     35.7700	  492.00	  512.63	-1823.63	  392.47
     35.8700	  511.00	  511.88	-1803.88	  392.24
     35.9700	  520.00	  511.71	-1794.71	  392.01
     36.0700	  516.00	  511.12	-1798.12	  391.78
     36.1700	  511.00	  510.58	-1802.58	  391.55
     36.2700	  491.00	  510.10	-1822.10	  391.33
     36.3700	  503.00	  509.67	-1809.67	  391.10
     36.4700	  523.00	  509.27	-1789.27	  390.88
     36.5700	  487.00	  508.92	-1824.92	  390.66
     36.6700	  491.00	  508.60	-1820.60	  390.44
     36.7700	  494.00	  508.33	-1817.33	  390.22
     36.8700	  512.00	  508.12	-1799.12	  390.01
     36.9700	  519.00	  508.01	-1792.01	  389.80
     37.0700	  513.00	  508.09	-1798.09	  389.58
     37.1700	  513.00	  508.57	-1798.57	  389.37
     37.2700	  498.00	  509.78	-1814.78	  389.17
     37.3700	  540.00	  512.13	-1775.13	  388.96
     37.4700	  476.00	  515.85	-1842.85	  388.75
     37.5700	  531.00	  520.62	-1792.62	  388.55
     37.6700	  540.00	  525.29	-1788.29	  388.35
     37.7700	  512.00	  528.11	-1819.11	  388.15
     37.8700	  497.00	  527.93	-1833.93	  387.95
     37.9700	  542.00	  525.38	-1786.38	  387.76
     38.0700	  478.00	  521.72	-1846.72	  387.56
     38.1700	  489.00	  517.53	-1831.53	  387.37
     38.2700	  534.00	  513.33	-1782.33	  387.18
     38.3700	  507.00	  509.78	-1805.78	  386.99
     38.4700	  489.00	  507.17	-1821.17	  386.80
     38.5700	  479.00	  505.45	-1829.45	  386.61
     38.6700	  525.00	  504.38	-1782.38	  386.43
     38.7700	  491.00	  503.63	-1815.63	  386.25
     38.8700	  489.00	  503.20	-1817.20	  386.07
     38.9700	  521.00	  502.87	-1784.87	  385.89
     39.0700	  465.00	  502.59	-1840.59	  385.71
     39.1700	  519.00	  502.35	-1786.35	  385.54
     39.2700	  512.00	  502.13	-1793.13	  385.36
     39.3700	  504.00	  501.84	-1800.84	  385.19
     39.4700	  474.00	  501.65	-1830.65	  385.02
     39.5700	  502.00	  501.48	-1802.48	  384.85
     39.6700	  520.00	  501.44	-1784.44	  384.69
     39.7700	  487.00	  501.29	-1817.29	  384.52
     39.8700	  507.00	  501.15	-1797.15	  384.36
     39.9700	  504.00	  501.02	-1800.02	  384.20
     40.0700	  498.00	  500.90	-1805.90	  384.04
     40.1700	  499.00	  500.80	-1804.80	  383.88
     40.2700	  485.00	  500.70	-1818.70	  383.72
     40.3700	  439.00	  500.61	-1864.61	  383.57
     40.4700	  514.00	  500.54	-1789.54	  383.42
     40.5700	  489.00	  500.48	-1814.48	  383.27
     40.6700	  502.00	  500.44	-1801.44	  383.12
     40.7700	  484.00	  500.42	-1819.42	  382.97
     40.8700	  505.00	  500.42	-1798.42	  382.83
     40.9700	  452.00	  500.44	-1851.44	  382.68
     41.0700	  511.00	  500.49	-1792.49	  382.54
     41.1700	  504.00	  500.59	-1799.59	  382.40
     41.2700	  495.00	  500.73	-1808.73	  382.27
     41.3700	  489.00	  500.89	-1814.89	  382.13
     41.4700	  469.00	  501.16	-1835.16	  382.00
     41.5700	  466.00	  501.98	-1838.98	  381.86
     41.6700	  489.00	  502.51	-1816.51	  381.73
     41.7700	  513.00	  503.29	-1793.29	  381.60
     41.8700	  501.00	  504.55	-1806.55	  381.48
     41.9700	  497.00	  506.82	-1812.82	  381.35
     42.0700	  518.00	  511.19	-1796.19	  381.23
     42.1700	  531.00	  519.57	-1791.57	  381.11
     42.2700	  534.00	  534.59	-1803.59	  380.99
     42.3700	  487.00	  558.24	-1874.24	  380.87
     42.4700	  550.00	  590.19	-1843.19	  380.75
     42.5700	  613.00	  625.16	-1815.16	  380.64
     42.6700	  600.00	  652.45	-1855.45	  380.53
     42.7700	  605.00	  659.56	-1857.56	  380.42
     42.8700	  575.00	  641.52	-1869.52	  380.31
     42.9700	  536.00	  607.82	-1874.82	  380.20
     43.0700	  533.00	  572.36	-1842.36	  380.09
     43.1700	  502.00	  543.77	-1844.77	  379.99
     43.2700	  530.00	  524.58	-1797.58	  379.89
     43.3700	  542.00	  513.43	-1774.43	  379.79
     43.4700	  510.00	  507.57	-1800.57	  379.69
     43.5700	  466.00	  504.58	-1841.58	  379.59
     43.6700	  479.00	  503.14	-1827.15	  379.50
     43.7700	  513.00	  502.14	-1792.14	  379.40
     43.8700	  494.00	  501.44	-1810.44	  379.31
     43.9700	  484.00	  500.92	-1819.92	  379.22
     44.0700	  489.00	  500.52	-1814.52	  379.14
     44.1700	  501.00	  500.25	-1802.25	  379.05
     44.2700	  539.00	  500.01	-1764.01	  378.97
     44.3700	  490.00	  499.82	-1812.82	  378.88
     44.4700	  469.00	  499.68	-1833.68	  378.80
     44.5700	  483.00	  499.58	-1819.58	  378.72
     44.6700	  486.00	  499.39	-1816.39	  378.65
     44.7700	  540.00	  499.36	-1762.36	  378.57
     44.8700	  457.00	  499.35	-1845.35	  378.50
     44.9700	  468.00	  499.37	-1834.37	  378.43
     45.0700	  507.00	  499.41	-1795.41	  378.36
     45.1700	  507.00	  499.47	-1795.47	  378.29
     45.2700	  507.00	  499.74	-1795.74	  378.22
     45.3700	  519.00	  499.85	-1783.85	  378.15
     45.4700	  528.00	  499.99	-1774.99	  378.09
     45.5700	  491.00	  500.15	-1812.15	  378.03
     45.6700	  485.00	  500.33	-1818.33	  377.97
     45.7700	  533.00	  500.54	-1770.54	  377.91
     45.8700	  541.00	  500.77	-1762.77	  377.86
     45.9700	  484.00	  501.04	-1820.04	  377.80
     46.0700	  513.00	  501.34	-1791.34	  377.75
     46.1700	  541.00	  501.68	-1763.68	  377.70
     46.2700	  489.00	  502.06	-1816.06	  377.65
     46.3700	  473.00	  502.48	-1832.48	  377.60
     46.4700	  533.00	  502.97	-1772.97	  377.55
     46.5700	  462.00	  503.51	-1844.51	  377.51
     46.6700	  496.00	  504.14	-1811.14	  377.47
     46.7700	  514.00	  504.87	-1793.87	  377.42
     46.8700	  507.00	  505.73	-1801.73	  377.38
     46.9700	  541.00	  506.82	-1768.82	  377.35
     47.0700	  489.00	  508.32	-1822.32	  377.31
     47.1700	  513.00	  510.63	-1800.63	  377.28
     47.2700	  514.00	  514.44	-1803.44	  377.24
     47.3700	  537.00	  520.90	-1786.90	  377.21
     47.4700	  534.00	  531.14	-1800.14	  377.18
     47.5700	  557.00	  545.85	-1791.85	  377.15
     47.6700	  571.00	  564.33	-1796.33	  377.13
     47.7700	  589.00	  583.59	-1797.59	  377.10
     47.8700	  572.00	  598.35	-1829.35	  377.08
     47.9700	  592.00	  603.00	-1814.00	  377.06
     48.0700	  594.00	  595.83	-1804.83	  377.04
     48.1700	  536.00	  581.11	-1848.11	  377.02
     48.2700	  548.00	  565.06	-1820.06	  377.00
     48.3700	  509.00	  552.03	-1846.03	  376.99
     48.4700	  502.00	  543.85	-1844.85	  376.98
     48.5700	  552.00	  540.43	-1791.43	  376.96
     48.6700	  551.00	  540.80	-1792.80	  376.95
     48.7700	  568.00	  543.92	-1778.92	  376.95
     48.8700	  545.00	  549.14	-1807.14	  376.94
     48.9700	  529.00	  556.37	-1830.37	  376.93
     49.0700	  594.00	  566.07	-1775.07	  376.93
     49.1700	  593.00	  579.62	-1789.62	  376.93
     49.2700	  600.00	  599.92	-1802.92	  376.93
     49.3700	  629.00	  632.67	-1806.67	  376.93
     49.4700	  686.00	  687.76	-1804.76	  376.93
     49.5700	  792.00	  780.39	-1791.39	  376.93
     49.6700	  907.00	  928.14	-1824.14	  376.94
     49.7700	 1078.00	 1147.45	-1872.45	  376.94
     49.8700	 1383.00	 1442.50	-1862.50	  376.95
     49.9700	 1694.00	 1793.88	-1902.88	  376.96
     50.0700	 2192.00	 2147.84	-1758.84	  376.97
     50.1700	 2520.00	 2414.04	-1697.04	  376.99
     50.2700	 2615.00	 2493.47	-1681.47	  377.00
     50.3700	 2373.00	 2347.96	-1777.96	  377.02
     50.4700	 2068.00	 2040.86	-1775.86	  377.03
     50.5700	 1559.00	 1678.92	-1922.92	  377.05
     50.6700	 1139.00	 1344.26	-2008.26	  377.07
     50.7700	  881.00	 1078.74	-2000.74	  377.09
     50.8700	  719.00	  892.48	-1976.48	  377.12
     50.9700	  703.00	  774.97	-1874.97	  377.14
     51.0700	  640.00	  706.34	-1869.34	  377.17
     51.1700	  600.00	  666.21	-1869.21	  377.19
     51.2700	  564.00	  639.05	-1878.05	  377.22
     51.3700	  597.00	  616.66	-1822.66	  377.25
     51.4700	  565.00	  596.81	-1834.81	  377.28
     51.5700	  585.00	  579.87	-1797.86	  377.32
     51.6700	  580.00	  566.41	-1789.41	  377.35
     51.7700	  587.00	  556.49	-1772.49	  377.39
     51.8700	  537.00	  549.62	-1815.62	  377.42
     51.9700	  546.00	  545.02	-1802.02	  377.46
     52.0700	  533.00	  542.00	-1812.00	  377.50
     52.1700	  527.00	  540.10	-1816.10	  377.54
     52.2700	  550.00	  539.35	-1792.35	  377.58
     52.3700	  616.00	  539.31	-1726.31	  377.63
     52.4700	  556.00	  540.45	-1787.45	  377.67
     52.5700	  593.00	  543.42	-1753.42	  377.72
     52.6700	  491.00	  549.74	-1861.74	  377.77
     52.7700	  579.00	  562.36	-1786.36	  377.82
     52.8700	  597.00	  586.34	-1792.34	  377.87
     52.9700	  686.00	  628.75	-1745.75	  377.92
     53.0700	  772.00	  697.04	-1728.04	  377.97
     53.1700	  861.00	  795.45	-1737.45	  378.02
     53.2700	 1007.00	  919.93	-1715.93	  378.08
     53.3700	 1026.00	 1053.89	-1830.89	  378.14
     53.4700	 1205.00	 1167.18	-1765.18	  378.19
     53.5700	 1186.00	 1222.72	-1839.72	  378.25
     53.6700	 1084.00	 1197.00	-1916.00	  378.31
     53.7700	  991.00	 1100.81	-1912.81	  378.38
     53.8700	  950.00	  969.87	-1822.87	  378.44
     53.9700	  813.00	  839.00	-1829.00	  378.50
     54.0700	  734.00	  730.03	-1799.03	  378.57
     54.1700	  651.00	  651.16	-1803.16	  378.63
     54.2700	  606.00	  600.54	-1797.54	  378.70
     54.3700	  567.00	  571.26	-1807.26	  378.77
     54.4700	  561.00	  555.67	-1797.67	  378.84
     54.5700	  569.00	  547.85	-1781.85	  378.91
     54.6700	  534.00	  544.17	-1813.17	  378.98
     54.7700	  532.00	  542.65	-1813.65	  379.05
     54.8700	  567.00	  542.37	-1778.37	  379.13
     54.9700	  572.00	  542.98	-1773.98	  379.20
     55.0700	  566.00	  544.35	-1781.35	  379.28
     55.1700	  575.00	  546.45	-1774.45	  379.36
     55.2700	  598.00	  549.35	-1754.35	  379.44
     55.3700	  584.00	  553.10	-1772.10	  379.52
     55.4700	  544.00	  557.90	-1816.90	  379.60
     55.5700	  572.00	  564.05	-1795.05	  379.68
     55.6700	  576.00	  572.15	-1799.15	  379.76
     55.7700	  542.00	  583.44	-1844.44	  379.85
     55.8700	  646.00	  600.42	-1757.42	  379.93
     55.9700	  622.00	  627.97	-1808.97	  380.02
     56.0700	  627.00	  674.63	-1850.63	  380.10
     56.1700	  640.00	  753.67	-1916.67	  380.19
     56.2700	  828.00	  882.37	-1857.37	  380.28
     56.3700	  973.00	 1078.41	-1908.41	  380.37
     56.4700	 1237.00	 1352.42	-1918.42	  380.46
     56.5700	 1581.00	 1698.26	-1920.26	  380.55
     56.6700	 2043.00	 2083.91	-1843.91	  380.65
     56.7700	 2300.00	 2446.11	-1949.11	  380.74
     56.8700	 2552.00	 2695.36	-1946.36	  380.83
     56.9700	 2648.00	 2747.56	-1902.56	  380.93
     57.0700	 2523.00	 2581.81	-1861.81	  381.03
     57.1700	 2293.00	 2259.99	-1769.99	  381.12
     57.2700	 1919.00	 1876.80	-1760.80	  381.22
     57.3700	 1450.00	 1509.75	-1862.75	  381.32
     57.4700	 1191.00	 1204.70	-1816.70	  381.42
     57.5700	  948.00	  978.53	-1833.53	  381.52
     57.6700	  829.00	  827.15	-1801.15	  381.62
     57.7700	  734.00	  735.54	-1804.54	  381.73
     57.8700	  728.00	  686.59	-1761.59	  381.83
     57.9700	  647.00	  666.74	-1822.74	  381.93
     58.0700	  662.00	  667.75	-1808.75	  382.04
     58.1700	  688.00	  686.07	-1801.07	  382.15
     58.2700	  747.00	  721.10	-1777.10	  382.25
     58.3700	  779.00	  773.19	-1797.19	  382.36
     58.4700	  908.00	  841.84	-1736.84	  382.47
     58.5700	 1065.00	  924.02	-1662.02	  382.58
     58.6700	 1208.00	 1012.88	-1607.88	  382.69
     58.7700	 1347.00	 1098.72	-1554.72	  382.80
     58.8700	 1453.00	 1172.98	-1522.98	  382.91
     58.9700	 1596.00	 1230.83	-1437.83	  383.02
     59.0700	 1695.00	 1267.66	-1375.66	  383.13
     59.1700	 1577.00	 1277.69	-1503.69	  383.25
     59.2700	 1594.00	 1260.71	-1469.71	  383.36
     59.3700	 1424.00	 1227.01	-1606.01	  383.48
     59.4700	 1287.00	 1191.28	-1707.28	  383.59
     59.5700	 1185.00	 1164.49	-1782.49	  383.71
     59.6700	 1140.00	 1153.49	-1816.49	  383.82
     59.7700	 1135.00	 1165.10	-1833.10	  383.94
     59.8700	 1197.00	 1206.00	-1812.00	  384.06
     59.9700	 1271.00	 1276.88	-1808.88	  384.18
     60.0700	 1409.00	 1367.30	-1761.30	  384.30
     60.1700	 1536.00	 1454.35	-1721.35	  384.42
     60.2700	 1642.00	 1506.03	-1667.03	  384.54
     60.3700	 1622.00	 1494.19	-1675.19	  384.66
     60.4700	 1510.00	 1413.06	-1706.06	  384.78
     60.5700	 1324.00	 1282.77	-1761.77	  384.90
     60.6700	 1187.00	 1133.15	-1749.15	  385.02
     60.7700	  995.00	  989.12	-1797.12	  385.15
     60.8700	  860.00	  866.57	-1809.57	  385.27
     60.9700	  704.00	  772.74	-1871.74	  385.40
     61.0700	  685.00	  708.52	-1826.52	  385.52
     61.1700	  678.00	  671.26	-1796.26	  385.65
     61.2700	  670.00	  657.76	-1790.76	  385.77
     61.3700	  638.00	  666.47	-1831.47	  385.90
     61.4700	  644.00	  698.39	-1857.39	  386.02
     61.5700	  666.00	  756.37	-1893.37	  386.15
     61.6700	  743.00	  843.28	-1903.28	  386.28
     61.7700	  929.00	  959.04	-1833.04	  386.41
     61.8700	  953.00	 1097.85	-1947.85	  386.53
     61.9700	 1207.00	 1245.89	-1841.89	  386.66
     62.0700	 1262.00	 1380.25	-1921.25	  386.79
     62.1700	 1417.00	 1471.18	-1857.18	  386.92
     62.2700	 1362.00	 1491.79	-1932.79	  387.05
     62.3700	 1336.00	 1434.60	-1901.60	  387.18
     62.4700	 1299.00	 1317.45	-1821.45	  387.31
     62.5700	 1135.00	 1170.47	-1838.47	  387.44
     62.6700	 1015.00	 1020.94	-1808.94	  387.58
     62.7700	  816.00	  887.50	-1874.50	  387.71
     62.8700	  664.00	  779.77	-1918.77	  387.84
     62.9700	  639.00	  699.96	-1863.96	  387.97
     63.0700	  616.00	  645.14	-1832.14	  388.10
     63.1700	  612.00	  609.90	-1800.90	  388.24
     63.2700	  600.00	  588.52	-1791.52	  388.37
     63.3700	  603.00	  576.31	-1776.31	  388.50
     63.4700	  579.00	  570.12	-1794.12	  388.64
     63.5700	  587.00	  568.35	-1784.35	  388.77
     63.6700	  624.00	  570.79	-1749.79	  388.90
     63.7700	  599.00	  578.33	-1782.33	  389.04
     63.8700	  601.00	  592.71	-1794.71	  389.17
     63.9700	  627.00	  616.14	-1792.14	  389.31
     64.0700	  692.00	  650.62	-1761.62	  389.44
     64.1700	  786.00	  697.02	-1714.02	  389.58
     64.2700	  785.00	  754.14	-1772.14	  389.71
     64.3700	  825.00	  817.79	-1795.79	  389.85
     64.4700	  893.00	  880.43	-1790.43	  389.98
     64.5700	  983.00	  931.68	-1751.68	  390.12
     64.6700	 1054.00	  960.33	-1709.33	  390.25
     64.7700	 1046.00	  961.31	-1718.31	  390.39
     64.8700	  987.00	  935.42	-1751.42	  390.53
     64.9700	  952.00	  889.82	-1740.82	  390.66
     65.0700	  892.00	  834.28	-1745.28	  390.80
     65.1700	  829.00	  778.04	-1752.04	  390.93
     65.2700	  726.00	  727.51	-1804.51	  391.07
     65.3700	  708.00	  685.58	-1780.58	  391.20
     65.4700	  656.00	  652.28	-1799.28	  391.34
     65.5700	  625.00	  626.24	-1804.24	  391.48
     65.6700	  610.00	  605.97	-1798.97	  391.61
     65.7700	  556.00	  590.35	-1837.35	  391.75
     65.8700	  571.00	  578.58	-1810.58	  391.89
     65.9700	  604.00	  570.06	-1769.06	  392.02
     66.0700	  570.00	  564.32	-1797.32	  392.16
     66.1700	  588.00	  560.95	-1775.95	  392.29
     66.2700	  581.00	  559.58	-1781.58	  392.43
     66.3700	  495.00	  559.88	-1867.88	  392.56
     66.4700	  540.00	  561.60	-1824.60	  392.70
     66.5700	  525.00	  564.66	-1842.66	  392.84
     66.6700	  608.00	  569.36	-1764.36	  392.97
     66.7700	  609.00	  576.05	-1770.05	  393.11
     66.8700	  542.00	  586.06	-1847.06	  393.24
     66.9700	  588.00	  601.64	-1816.64	  393.38
     67.0700	  623.00	  626.52	-1806.52	  393.51
     67.1700	  685.00	  666.35	-1784.35	  393.65
     67.2700	  749.00	  728.81	-1782.81	  393.78
     67.3700	  826.00	  823.00	-1800.00	  393.92
     67.4700	  956.00	  957.86	-1804.86	  394.05
     67.5700	 1155.00	 1139.08	-1787.08	  394.18
     67.6700	 1359.00	 1366.01	-1810.01	  394.32
     67.7700	 1616.00	 1628.50	-1815.50	  394.45
     67.8700	 1851.00	 1904.19	-1856.19	  394.59
     67.9700	 2255.00	 2158.18	-1706.18	  394.72
     68.0700	 2404.00	 2346.13	-1745.13	  394.85
     68.1700	 2554.00	 2424.90	-1673.90	  394.98
     68.2700	 2377.00	 2373.14	-1799.14	  395.12
     68.3700	 2212.00	 2205.12	-1796.12	  395.25
     68.4700	 2072.00	 1961.32	-1692.32	  395.38
     68.5700	 1603.00	 1687.19	-1887.19	  395.51
     68.6700	 1374.00	 1420.11	-1849.11	  395.64
     68.7700	 1161.00	 1184.88	-1826.88	  395.77
     68.8700	  898.00	  994.27	-1899.27	  395.90
     68.9700	  869.00	  850.63	-1784.63	  396.03
     69.0700	  702.00	  749.16	-1850.16	  396.16
     69.1700	  657.00	  681.37	-1827.37	  396.29
     69.2700	  672.00	  638.04	-1769.04	  396.42
     69.3700	  571.00	  611.09	-1843.09	  396.55
     69.4700	  610.00	  594.45	-1787.45	  396.68
     69.5700	  551.00	  583.99	-1835.99	  396.81
     69.6700	  565.00	  577.18	-1815.18	  396.93
     69.7700	  615.00	  572.57	-1760.57	  397.06
     69.8700	  606.00	  569.38	-1766.38	  397.19
     69.9700	  556.00	  567.20	-1814.20	  397.31
     70.0700	  598.00	  565.84	-1770.84	  397.44
     70.1700	  509.00	  565.20	-1859.20	  397.56
     70.2700	  573.00	  565.28	-1795.28	  397.69
     70.3700	  573.00	  566.10	-1796.10	  397.81
     70.4700	  571.00	  567.81	-1799.81	  397.93
     70.5700	  586.00	  570.75	-1787.75	  398.06
     70.6700	  544.00	  575.54	-1834.54	  398.18
     70.7700	  561.00	  583.27	-1825.27	  398.30
     70.8700	  578.00	  595.81	-1820.81	  398.42
     70.9700	  575.00	  616.04	-1844.04	  398.54
     71.0700	  595.00	  648.11	-1856.11	  398.66
     71.1700	  687.00	  697.32	-1813.32	  398.78
     71.2700	  705.00	  769.66	-1867.66	  398.90
     71.3700	  859.00	  871.53	-1815.53	  399.02
     71.4700	  993.00	 1004.60	-1814.60	  399.14
     71.5700	 1206.00	 1169.00	-1766.00	  399.25
     71.6700	 1356.00	 1357.97	-1804.97	  399.37
     71.7700	 1503.00	 1557.55	-1857.55	  399.49
     71.8700	 1635.00	 1746.32	-1914.32	  399.60
     71.9700	 1815.00	 1896.84	-1884.84	  399.72
     72.0700	 1938.00	 1980.67	-1845.67	  399.83
     72.1700	 1926.00	 1978.72	-1855.72	  399.94
     72.2700	 1871.00	 1891.69	-1823.69	  400.06
     72.3700	 1784.00	 1739.58	-1758.58	  400.17
     72.4700	 1642.00	 1550.68	-1711.68	  400.28
     72.5700	 1492.00	 1352.90	-1663.90	  400.39
     72.6700	 1286.00	 1166.52	-1683.52	  400.50
     72.7700	 1125.00	 1004.82	-1682.82	  400.61
     72.8700	  968.00	  873.88	-1708.88	  400.72
     72.9700	  942.00	  774.02	-1635.02	  400.82
     73.0700	  865.00	  701.66	-1639.66	  400.93
     73.1700	  734.00	  651.40	-1720.40	  401.03
     73.2700	  733.00	  617.56	-1687.56	  401.14
     73.3700	  677.00	  595.16	-1721.16	  401.24
     73.4700	  688.00	  580.34	-1695.34	  401.35
     73.5700	  636.00	  570.42	-1737.42	  401.45
     73.6700	  627.00	  563.67	-1739.67	  401.55
     73.7700	  602.00	  559.05	-1760.05	  401.65
     73.8700	  607.00	  555.94	-1751.94	  401.75
     73.9700	  613.00	  553.99	-1743.99	  401.85
     74.0700	  578.00	  552.97	-1777.97	  401.95
     74.1700	  526.00	  552.70	-1829.70	  402.05
     74.2700	  572.00	  552.99	-1783.99	  402.14
     74.3700	  582.00	  553.63	-1774.63	  402.24
     74.4700	  615.00	  554.35	-1742.35	  402.33
     74.5700	  654.00	  554.86	-1703.85	  402.43
     74.6700	  586.00	  554.86	-1771.86	  402.52
     74.7700	  620.00	  554.17	-1737.17	  402.61
     74.8700	  620.00	  552.80	-1735.80	  402.70
     74.9700	  665.00	  550.96	-1688.96	  402.79
     75.0700	  589.00	  548.94	-1762.94	  402.88
     75.1700	  602.00	  547.09	-1748.09	  402.97
     75.2700	  568.00	  545.73	-1780.73	  403.06
     75.3700	  537.00	  545.24	-1811.24	  403.14
     75.4700	  593.00	  546.11	-1756.11	  403.23
     75.5700	  541.00	  548.71	-1810.71	  403.31
     75.6700	  575.00	  553.57	-1781.57	  403.40
     75.7700	  536.00	  561.08	-1828.08	  403.48
     75.8700	  613.00	  571.89	-1761.89	  403.56
     75.9700	  591.00	  586.09	-1798.09	  403.64
     76.0700	  575.00	  603.54	-1831.54	  403.72
     76.1700	  611.00	  623.54	-1815.54	  403.80
     76.2700	  615.00	  644.80	-1832.80	  403.87
     76.3700	  704.00	  665.38	-1764.38	  403.95
     76.4700	  703.00	  682.80	-1782.80	  404.02
     76.5700	  675.00	  694.39	-1822.39	  404.10
     76.6700	  642.00	  697.96	-1858.96	  404.17
     76.7700	  686.00	  692.74	-1809.74	  404.24
     76.8700	  670.00	  679.77	-1812.77	  404.31
     76.9700	  630.00	  661.39	-1834.39	  404.38
     77.0700	  660.00	  640.09	-1783.09	  404.45
     77.1700	  607.00	  618.63	-1814.63	  404.52
     77.2700	  629.00	  598.63	-1772.63	  404.58
     77.3700	  557.00	  581.27	-1827.27	  404.65
     77.4700	  544.00	  567.10	-1826.10	  404.71
     77.5700	  540.00	  556.16	-1819.16	  404.77
     77.6700	  520.00	  548.14	-1831.14	  404.83
     77.7700	  547.00	  542.52	-1798.52	  404.89
     77.8700	  577.00	  538.73	-1764.73	  404.95
     77.9700	  528.00	  536.26	-1811.26	  405.01
     78.0700	  492.00	  534.67	-1845.68	  405.07
     78.1700	  537.00	  533.67	-1799.67	  405.12
     78.2700	  566.00	  533.04	-1770.04	  405.17
     78.3700	  521.00	  532.65	-1814.65	  405.23
     78.4700	  542.00	  532.41	-1793.41	  405.28
     78.5700	  528.00	  532.28	-1807.28	  405.33
     78.6700	  530.00	  532.25	-1805.25	  405.38
     78.7700	  558.00	  532.31	-1777.31	  405.43
     78.8700	  552.00	  532.48	-1783.48	  405.47
     78.9700	  555.00	  532.77	-1780.77	  405.52
     79.0700	  506.00	  533.22	-1830.22	  405.56
     79.1700	  492.00	  533.87	-1844.87	  405.60
     79.2700	  532.00	  534.78	-1805.78	  405.64
     79.3700	  513.00	  536.00	-1826.00	  405.68
     79.4700	  530.00	  537.42	-1810.42	  405.72
     79.5700	  506.00	  539.50	-1836.50	  405.76
     79.6700	  477.00	  542.12	-1868.12	  405.80
     79.7700	  497.00	  545.41	-1851.41	  405.83
     79.8700	  548.00	  549.50	-1804.50	  405.87
     79.9700	  524.00	  554.54	-1833.54	  405.90
     80.0700	  533.00	  560.73	-1830.73	  405.93
     80.1700	  517.00	  568.32	-1854.32	  405.96
     80.2700	  549.00	  577.55	-1831.55	  405.99
     80.3700	  522.00	  588.71	-1869.71	  406.01
     80.4700	  548.00	  601.95	-1856.95	  406.04
     80.5700	  563.00	  617.26	-1857.26	  406.06
     80.6700	  602.00	  634.32	-1835.32	  406.08
     80.7700	  627.00	  652.45	-1828.45	  406.11
     80.8700	  629.00	  670.60	-1844.60	  406.13
     80.9700	  663.00	  687.46	-1827.46	  406.14
     81.0700	  690.00	  701.66	-1814.66	  406.16
     81.1700	  726.00	  712.07	-1789.07	  406.18
     81.2700	  707.00	  717.98	-1813.98	  406.19
     81.3700	  771.00	  719.05	-1751.05	  406.20
     81.4700	  760.00	  715.34	-1758.34	  406.21
     81.5700	  745.00	  707.32	-1765.32	  406.22
     81.6700	  723.00	  695.72	-1775.72	  406.23
     81.7700	  739.00	  681.39	-1745.39	  406.24
     81.8700	  715.00	  665.19	-1753.19	  406.25
     81.9700	  680.00	  648.07	-1771.07	  406.25
     82.0700	  729.00	  630.97	-1704.97	  406.25
     82.1700	  629.00	  614.67	-1788.67	  406.25
     82.2700	  632.00	  599.89	-1770.89	  406.25
     82.3700	  607.00	  586.91	-1782.91	  406.25
     82.4700	  668.00	  575.89	-1710.89	  406.25
     82.5700	  594.00	  566.85	-1775.85	  406.24
     82.6700	  551.00	  559.72	-1811.72	  406.24
     82.7700	  567.00	  554.40	-1790.40	  406.23
     82.8700	  557.00	  550.80	-1796.80	  406.22
     82.9700	  523.00	  548.79	-1828.79	  406.21
     83.0700	  567.00	  548.26	-1784.26	  406.20
     83.1700	  548.00	  549.11	-1804.11	  406.18
     83.2700	  495.00	  551.25	-1859.25	  406.17
     83.3700	  564.00	  554.54	-1793.54	  406.15
     83.4700	  535.00	  558.80	-1826.80	  406.13
     83.5700	  548.00	  563.77	-1818.77	  406.11
     83.6700	  546.00	  569.08	-1826.08	  406.09
     83.7700	  536.00	  574.28	-1841.28	  406.07
     83.8700	  514.00	  578.83	-1867.83	  406.04
     83.9700	  561.00	  582.16	-1824.16	  406.02
     84.0700	  558.00	  583.75	-1828.75	  405.99
     84.1700	  563.00	  583.30	-1823.30	  405.96
     84.2700	  543.00	  580.85	-1840.85	  405.93
     84.3700	  512.00	  576.76	-1867.76	  405.90
     84.4700	  554.00	  571.53	-1820.53	  405.87
     84.5700	  519.00	  565.71	-1849.71	  405.83
     84.6700	  550.00	  559.79	-1812.79	  405.79
     84.7700	  542.00	  554.16	-1815.16	  405.76
     84.8700	  528.00	  549.09	-1824.09	  405.72
     84.9700	  515.00	  544.75	-1832.75	  405.67
     85.0700	  509.00	  541.20	-1835.20	  405.63
     85.1700	  528.00	  538.44	-1813.44	  405.59
     85.2700	  511.00	  536.40	-1828.40	  405.54
     85.3700	  510.00	  534.99	-1827.99	  405.49
     85.4700	  538.00	  534.12	-1799.12	  405.44
     85.5700	  522.00	  533.68	-1814.68	  405.39
     85.6700	  522.00	  533.62	-1814.62	  405.34
     85.7700	  518.00	  533.87	-1818.87	  405.29
     85.8700	  545.00	  534.43	-1792.43	  405.23
     85.9700	  481.00	  535.30	-1857.30	  405.17
     86.0700	  502.00	  536.53	-1837.53	  405.11
     86.1700	  497.00	  538.19	-1844.19	  405.05
     86.2700	  576.00	  540.37	-1767.37	  404.99
     86.3700	  508.00	  543.20	-1838.20	  404.93
     86.4700	  560.00	  546.82	-1789.82	  404.86
     86.5700	  545.00	  551.36	-1809.36	  404.79
     86.6700	  562.00	  556.92	-1797.92	  404.73
     86.7700	  594.00	  563.55	-1772.55	  404.66
     86.8700	  531.00	  571.16	-1843.16	  404.58
     86.9700	  633.00	  579.21	-1749.21	  404.51
     87.0700	  591.00	  587.96	-1799.96	  404.44
     87.1700	  646.00	  596.55	-1753.55	  404.36
     87.2700	  672.00	  604.32	-1735.32	  404.28
     87.3700	  639.00	  610.54	-1774.54	  404.20
     87.4700	  656.00	  614.48	-1761.48	  404.12
     87.5700	  634.00	  615.62	-1784.62	  404.04
     87.6700	  698.00	  613.83	-1718.83	  403.95
     87.7700	  668.00	  609.39	-1744.39	  403.86
     87.8700	  649.00	  602.96	-1756.96	  403.78
     87.9700	  600.00	  595.37	-1798.37	  403.69
     88.0700	  589.00	  587.47	-1801.47	  403.60
     88.1700	  586.00	  580.02	-1797.02	  403.50
     88.2700	  609.00	  573.67	-1767.67	  403.41
     88.3700	  587.00	  568.92	-1784.92	  403.31
     88.4700	  534.00	  566.09	-1835.09	  403.21
     88.5700	  564.00	  565.33	-1804.33	  403.12
     88.6700	  564.00	  566.62	-1805.62	  403.01
     88.7700	  581.00	  569.77	-1791.77	  402.91
     88.8700	  572.00	  574.46	-1805.46	  402.81
     88.9700	  591.00	  580.25	-1792.25	  402.70
     89.0700	  569.00	  586.58	-1820.58	  402.59
     89.1700	  621.00	  592.81	-1774.81	  402.49
     89.2700	  608.00	  598.28	-1793.28	  402.37
     89.3700	  585.00	  602.30	-1820.30	  402.26
     89.4700	  577.00	  604.29	-1830.29	  402.15
     89.5700	  571.00	  603.94	-1835.94	  402.03
     89.6700	  580.00	  601.25	-1824.25	  401.92
     89.7700	  554.00	  596.53	-1845.53	  401.80
     89.8700	  549.00	  590.30	-1844.30	  401.68
     89.9700	  559.00	  583.17	-1827.17	  401.55
     90.0700	  570.00	  575.67	-1808.67	  401.43
     90.1700	  565.00	  568.28	-1806.28	  401.31
     90.2700	  536.00	  561.39	-1828.39	  401.18
     90.3700	  548.00	  555.23	-1810.23	  401.05
     90.4700	  517.00	  549.97	-1835.97	  400.92
     90.5700	  543.00	  545.65	-1805.65	  400.79
     90.6700	  491.00	  542.24	-1854.24	  400.66
     90.7700	  506.00	  539.69	-1836.69	  400.52
     90.8700	  565.00	  537.87	-1775.87	  400.39
     90.9700	  496.00	  536.69	-1843.69	  400.25
     91.0700	  493.00	  536.04	-1846.04	  400.11
     91.1700	  576.00	  535.84	-1762.84	  399.97
     91.2700	  544.00	  536.07	-1795.07	  399.82
     91.3700	  537.00	  536.71	-1802.71	  399.68
     91.4700	  513.00	  537.81	-1827.81	  399.53
     91.5700	  466.00	  539.45	-1876.45	  399.39
     91.6700	  503.00	  541.75	-1841.75	  399.24
     91.7700	  563.00	  544.88	-1784.88	  399.09
     91.8700	  503.00	  549.03	-1849.03	  398.94
     91.9700	  553.00	  554.39	-1804.39	  398.78
     92.0700	  564.00	  560.94	-1799.94	  398.63
     92.1700	  562.00	  569.30	-1810.30	  398.47
     92.2700	  572.00	  579.34	-1810.34	  398.31
     92.3700	  588.00	  591.08	-1806.08	  398.15
     92.4700	  604.00	  604.45	-1803.45	  397.99
     92.5700	  630.00	  619.22	-1792.22	  397.83
     92.6700	  653.00	  635.06	-1785.06	  397.66
     92.7700	  649.00	  651.50	-1805.50	  397.50
     92.8700	  684.00	  667.95	-1786.95	  397.33
     92.9700	  683.00	  683.73	-1803.73	  397.16
     93.0700	  738.00	  698.18	-1763.18	  396.99
     93.1700	  780.00	  710.80	-1733.80	  396.82
     93.2700	  781.00	  721.40	-1743.40	  396.65
     93.3700	  810.00	  730.17	-1723.17	  396.47
     93.4700	  764.00	  737.66	-1776.66	  396.30
     93.5700	  796.00	  744.59	-1751.59	  396.12
     93.6700	  838.00	  751.70	-1716.70	  395.94
     93.7700	  867.00	  759.63	-1695.63	  395.76
     93.8700	  846.00	  768.92	-1725.92	  395.58
     93.9700	  880.00	  780.01	-1703.01	  395.39
     94.0700	  891.00	  793.23	-1705.23	  395.21
     94.1700	  864.00	  808.78	-1747.78	  395.02
     94.2700	  863.00	  826.60	-1766.60	  394.83
     94.3700	  846.00	  846.23	-1803.23	  394.64
     94.4700	  932.00	  866.79	-1737.79	  394.45
     94.5700	  900.00	  886.98	-1789.98	  394.26
     94.6700	  913.00	  905.08	-1795.08	  394.07
     94.7700	  903.00	  919.14	-1819.14	  393.87
     94.8700	  870.00	  927.23	-1860.23	  393.67
     94.9700	  897.00	  927.83	-1833.83	  393.48
     95.0700	  907.00	  920.25	-1816.25	  393.28
     95.1700	  849.00	  904.80	-1858.80	  393.08
     95.2700	  823.00	  882.74	-1862.74	  392.87
     95.3700	  868.00	  855.94	-1790.94	  392.67
     95.4700	  814.00	  826.52	-1815.52	  392.47
     95.5700	  818.00	  796.57	-1781.57	  392.26
     95.6700	  757.00	  768.06	-1814.06	  392.05
     95.7700	  665.00	  742.80	-1880.80	  391.84
     95.8700	  736.00	  722.39	-1789.39	  391.63
     95.9700	  687.00	  708.25	-1824.25	  391.42
     96.0700	  675.00	  701.61	-1829.61	  391.21
     96.1700	  682.00	  703.53	-1824.53	  391.00
     96.2700	  660.00	  714.91	-1857.91	  390.78
     96.3700	  749.00	  736.40	-1790.40	  390.57
     96.4700	  756.00	  768.42	-1815.42	  390.35
     96.5700	  754.00	  811.05	-1860.05	  390.13
     96.6700	  844.00	  863.92	-1822.92	  389.91
     96.7700	  904.00	  926.11	-1825.11	  389.69
     96.8700	  972.00	  996.07	-1827.07	  389.46
     96.9700	  949.00	 1071.55	-1925.55	  389.24
     97.0700	 1128.00	 1149.62	-1824.62	  389.02
     97.1700	 1181.00	 1226.65	-1848.65	  388.79
     97.2700	 1351.00	 1298.44	-1750.44	  388.56
     97.3700	 1372.00	 1360.43	-1791.43	  388.33
     97.4700	 1409.00	 1408.11	-1802.11	  388.10
     97.5700	 1436.00	 1437.63	-1804.63	  387.87
     97.6700	 1494.00	 1446.57	-1755.57	  387.64
     97.7700	 1427.00	 1434.44	-1810.44	  387.41
     97.8700	 1394.00	 1402.85	-1811.85	  387.17
     97.9700	 1330.00	 1354.98	-1827.98	  386.94
     98.0700	 1275.00	 1294.95	-1822.95	  386.70
     98.1700	 1268.00	 1227.16	-1762.16	  386.46
     98.2700	 1128.00	 1155.99	-1830.99	  386.22
     98.3700	 1081.00	 1085.38	-1807.38	  385.98
     98.4700	  986.00	 1018.77	-1835.77	  385.74
     98.5700	 1000.00	  959.04	-1762.04	  385.50
     98.6700	  895.00	  908.46	-1816.46	  385.26
     98.7700	  855.00	  868.81	-1816.81	  385.01
     98.8700	  818.00	  841.40	-1826.40	  384.77
     98.9700	  729.00	  827.16	-1901.16	  384.52
     99.0700	  789.00	  826.71	-1840.71	  384.28
     99.1700	  795.00	  840.42	-1848.42	  384.03
     99.2700	  801.00	  868.48	-1870.48	  383.78
     99.3700	  869.00	  910.85	-1844.85	  383.53
     99.4700	  893.00	  967.25	-1877.25	  383.28
     99.5700	 1032.00	 1037.11	-1808.11	  383.03
     99.6700	 1137.00	 1119.47	-1785.47	  382.77
     99.7700	 1193.00	 1212.88	-1822.88	  382.52
     99.8700	 1297.00	 1315.35	-1821.35	  382.27
     99.9700	 1424.00	 1424.19	-1803.19	  382.01
    100.0700	 1541.00	 1536.03	-1798.03	  381.76
    100.1700	 1615.00	 1646.87	-1834.87	  381.50
    100.2700	 1756.00	 1752.29	-1799.29	  381.24
    100.3700	 1863.00	 1847.89	-1787.89	  380.98
    100.4700	 1998.00	 1929.72	-1734.72	  380.72
    100.5700	 2025.00	 1994.74	-1772.74	  380.46
    100.6700	 2087.00	 2040.87	-1756.87	  380.20
    100.7700	 2157.00	 2066.83	-1712.83	  379.94
    100.8700	 2216.00	 2071.81	-1658.81	  379.68
    100.9700	 2084.00	 2055.52	-1774.52	  379.41
    101.0700	 2111.00	 2018.39	-1710.39	  379.15
    101.1700	 1926.00	 1961.98	-1838.98	  378.89
    101.2700	 1915.00	 1889.26	-1777.26	  378.62
    101.3700	 1858.00	 1804.38	-1749.38	  378.36
    101.4700	 1731.00	 1712.30	-1784.30	  378.09
    101.5700	 1668.00	 1618.02	-1753.02	  377.82
    101.6700	 1525.00	 1526.16	-1804.16	  377.55
    101.7700	 1540.00	 1440.49	-1703.49	  377.29
    101.8700	 1462.00	 1363.83	-1704.83	  377.02
    101.9700	 1374.00	 1297.90	-1726.90	  376.75
    102.0700	 1188.00	 1243.36	-1858.36	  376.48
    102.1700	 1171.00	 1199.85	-1831.85	  376.21
    102.2700	 1215.00	 1166.10	-1754.10	  375.94
    102.3700	 1094.00	 1140.13	-1849.13	  375.66
    102.4700	 1149.00	 1119.41	-1773.41	  375.39
    102.5700	 1087.00	 1101.16	-1817.16	  375.12
    102.6700	 1117.00	 1082.72	-1768.72	  374.85
    102.7700	 1049.00	 1061.83	-1815.83	  374.57
    102.8700	 1002.00	 1037.02	-1838.02	  374.30
    102.9700	  990.00	 1007.66	-1820.66	  374.03
    103.0700	  970.00	  973.96	-1806.96	  373.75
    103.1700	  940.00	  936.69	-1799.69	  373.48
    103.2700	  917.00	  896.98	-1782.98	  373.20
    103.3700	  843.00	  856.09	-1816.09	  372.93
    103.4700	  785.00	  815.30	-1833.30	  372.65
    103.5700	  776.00	  775.75	-1802.75	  372.37
    103.6700	  688.00	  738.43	-1853.43	  372.10
    103.7700	  662.00	  704.10	-1845.10	  371.82
    103.8700	  656.00	  673.29	-1820.29	  371.54
    103.9700	  647.00	  646.33	-1802.33	  371.27
    104.0700	  595.00	  623.28	-1831.28	  370.99
    104.1700	  576.00	  604.08	-1831.08	  370.71
    104.2700	  601.00	  588.49	-1790.49	  370.43
    104.3700	  585.00	  576.18	-1794.18	  370.16
    104.4700	  563.00	  566.78	-1806.78	  369.88
    104.5700	  561.00	  559.89	-1801.89	  369.60
    104.6700	  574.00	  555.11	-1784.11	  369.32
    104.7700	  547.00	  552.08	-1808.08	  369.05
    104.8700	  568.00	  550.46	-1785.46	  368.77
    104.9700	  545.00	  549.98	-1807.98	  368.49
    105.0700	  570.00	  550.36	-1783.36	  368.21
    105.1700	  547.00	  551.45	-1807.45	  367.94
    105.2700	  554.00	  553.09	-1802.09	  367.66
    105.3700	  508.00	  555.16	-1850.16	  367.38
    105.4700	  589.00	  557.57	-1771.57	  367.10
    105.5700	  530.00	  560.31	-1833.31	  366.82
    105.6700	  545.00	  563.38	-1821.38	  366.55
    105.7700	  522.00	  566.83	-1847.83	  366.27
    105.8700	  584.00	  570.76	-1789.76	  365.99
    105.9700	  574.00	  575.27	-1804.27	  365.72
    106.0700	  527.00	  580.47	-1856.47	  365.44
    106.1700	  580.00	  586.47	-1809.47	  365.17
    106.2700	  601.00	  593.32	-1795.32	  364.89
    106.3700	  607.00	  601.01	-1797.01	  364.61
    106.4700	  564.00	  609.49	-1848.49	  364.34
    106.5700	  602.00	  618.62	-1819.62	  364.06
    106.6700	  595.00	  628.18	-1836.18	  363.79
    106.7700	  569.00	  637.90	-1871.90	  363.52
    106.8700	  610.00	  647.45	-1840.45	  363.24
    106.9700	  623.00	  656.45	-1836.45	  362.97
    107.0700	  674.00	  664.49	-1793.49	  362.70
    107.1700	  708.00	  671.21	-1766.21	  362.43
    107.2700	  600.00	  676.29	-1879.29	  362.15
    107.3700	  620.00	  679.55	-1862.55	  361.88
    107.4700	  657.00	  680.97	-1826.97	  361.61
    107.5700	  640.00	  680.72	-1843.72	  361.34
    107.6700	  671.00	  679.12	-1811.12	  361.07
    107.7700	  609.00	  676.58	-1870.58	  360.81
    107.8700	  670.00	  673.56	-1806.56	  360.54
    107.9700	  648.00	  670.49	-1825.49	  360.27
    108.0700	  679.00	  667.75	-1791.75	  360.01
    108.1700	  704.00	  665.61	-1764.61	  359.74
    108.2700	  690.00	  664.26	-1777.26	  359.48
    108.3700	  678.00	  663.76	-1788.76	  359.21
    108.4700	  674.00	  664.04	-1793.04	  358.95
    108.5700	  658.00	  664.93	-1809.93	  358.69
    108.6700	  675.00	  666.15	-1794.15	  358.43
    108.7700	  685.00	  667.37	-1785.37	  358.17
    108.8700	  706.00	  668.17	-1765.17	  357.91
    108.9700	  670.00	  668.16	-1801.16	  357.65
    109.0700	  704.00	  666.97	-1765.97	  357.39
    109.1700	  669.00	  664.35	-1798.35	  357.14
    109.2700	  634.00	  660.15	-1829.15	  356.88
    109.3700	  637.00	  654.38	-1820.38	  356.63
    109.4700	  666.00	  647.19	-1784.19	  356.37
    109.5700	  601.00	  638.81	-1840.81	  356.12
    109.6700	  627.00	  629.55	-1805.55	  355.87
    109.7700	  597.00	  619.74	-1825.74	  355.62
    109.8700	  612.00	  609.70	-1800.70	  355.37
    109.9700	  602.00	  599.74	-1800.74	  355.13
    110.0700	  647.00	  590.13	-1746.13	  354.88
    110.1700	  546.00	  581.10	-1838.10	  354.64
    110.2700	  558.00	  572.84	-1817.84	  354.40
    110.3700	  532.00	  565.46	-1836.46	  354.16
    110.4700	  529.00	  559.06	-1833.06	  353.92
    110.5700	  579.00	  553.65	-1777.65	  353.68
    110.6700	  518.00	  549.23	-1834.23	  353.44
    110.7700	  561.00	  545.77	-1787.77	  353.21
    110.8700	  541.00	  543.20	-1805.20	  352.97
    110.9700	  557.00	  541.43	-1787.43	  352.74
    111.0700	  536.00	  540.38	-1807.38	  352.51
    111.1700	  517.00	  539.97	-1825.97	  352.28
    111.2700	  519.00	  540.10	-1824.10	  352.05
    111.3700	  541.00	  540.69	-1802.69	  351.83
    111.4700	  524.00	  541.69	-1820.69	  351.60
    111.5700	  511.00	  543.02	-1835.02	  351.38
    111.6700	  537.00	  544.65	-1810.65	  351.16
    111.7700	  560.00	  546.53	-1789.53	  350.94
    111.8700	  506.00	  548.65	-1845.65	  350.73
    111.9700	  528.00	  550.98	-1825.98	  350.51
    112.0700	  565.00	  553.52	-1791.52	  350.30
    112.1700	  528.00	  556.27	-1831.27	  350.09
    112.2700	  581.00	  559.25	-1781.25	  349.88
    112.3700	  618.00	  562.48	-1747.48	  349.68
    112.4700	  593.00	  565.98	-1775.98	  349.47
    112.5700	  581.00	  569.80	-1791.80	  349.27
    112.6700	  605.00	  574.00	-1772.00	  349.07
    112.7700	  647.00	  578.64	-1734.64	  348.87
    112.8700	  611.00	  583.81	-1775.81	  348.68
    112.9700	  665.00	  589.63	-1727.63	  348.48
    113.0700	  652.00	  596.25	-1747.25	  348.29
    113.1700	  678.00	  603.87	-1728.87	  348.10
    113.2700	  736.00	  612.73	-1679.73	  347.92
    113.3700	  732.00	  623.17	-1694.17	  347.73
    113.4700	  786.00	  635.60	-1652.60	  347.55
    113.5700	  814.00	  650.54	-1639.54	  347.37
    113.6700	  871.00	  668.66	-1600.66	  347.20
    113.7700	  884.00	  690.74	-1609.74	  347.02
    113.8700	  958.00	  717.78	-1562.78	  346.85
    113.9700	  972.00	  750.94	-1581.94	  346.68
    114.0700	 1026.00	  791.61	-1568.61	  346.52
    114.1700	 1073.00	  841.41	-1571.41	  346.35
    114.2700	 1221.00	  902.14	-1484.14	  346.19
    114.3700	 1170.00	  975.83	-1608.83	  346.04
    114.4700	 1258.00	 1064.67	-1609.67	  345.88
    114.5700	 1281.00	 1170.98	-1692.98	  345.73
    114.6700	 1499.00	 1297.15	-1601.15	  345.58
    114.7700	 1583.00	 1445.49	-1665.49	  345.43
    114.8700	 1777.00	 1618.18	-1644.18	  345.29
    114.9700	 1941.00	 1817.06	-1679.06	  345.15
    115.0700	 2169.00	 2043.60	-1677.60	  345.01
    115.1700	 2429.00	 2298.67	-1672.67	  344.88
    115.2700	 2697.00	 2582.34	-1688.34	  344.75
    115.3700	 2876.00	 2893.77	-1820.77	  344.62
    115.4700	 3168.00	 3231.08	-1866.08	  344.50
    115.5700	 3304.00	 3591.32	-2090.32	  344.37
    115.6700	 3752.00	 3970.37	-2021.37	  344.26
    115.7700	 3946.00	 4362.73	-2219.73	  344.14
    115.8700	 4517.00	 4761.74	-2047.74	  344.03
    115.9700	 4875.00	 5159.46	-2087.46	  343.92
    116.0700	 5298.00	 5546.97	-2051.97	  343.82
    116.1700	 5500.00	 5914.37	-2217.37	  343.72
    116.2700	 6116.00	 6250.93	-1937.93	  343.62
    116.3700	 6372.00	 6545.67	-1976.67	  343.53
    116.4700	 6887.00	 6787.82	-1703.82	  343.44
    116.5700	 7053.00	 6967.72	-1717.72	  343.35
    116.6700	 6953.00	 7077.61	-1927.61	  343.27
    116.7700	 7212.00	 7112.55	-1703.55	  343.19
    116.8700	 7208.00	 7071.05	-1666.05	  343.11
    116.9700	 7142.00	 6955.35	-1616.35	  343.04
    117.0700	 7053.00	 6771.01	-1521.01	  342.97
    117.1700	 6584.00	 6526.19	-1745.19	  342.91
    117.2700	 6338.00	 6230.89	-1695.89	  342.85
    117.3700	 5864.00	 5895.90	-1834.90	  342.80
    117.4700	 5412.00	 5532.18	-1923.18	  342.74
    117.5700	 5147.00	 5150.14	-1806.14	  342.70
    117.6700	 4775.00	 4759.39	-1787.39	  342.65
    117.7700	 4357.00	 4368.64	-1814.64	  342.61
    117.8700	 4210.00	 3985.37	-1578.37	  342.58
    117.9700	 3886.00	 3615.90	-1532.90	  342.55
    118.0700	 3345.00	 3265.17	-1723.17	  342.52
    118.1700	 3106.00	 2936.92	-1633.92	  342.50
    118.2700	 2720.00	 2633.81	-1716.81	  342.48
    118.3700	 2324.00	 2357.37	-1836.37	  342.47
    118.4700	 2114.00	 2108.24	-1797.24	  342.46
    118.5700	 1807.00	 1886.12	-1882.12	  342.46
    118.6700	 1560.00	 1690.12	-1933.12	  342.46
    118.7700	 1428.00	 1518.84	-1893.84	  342.47
    118.8700	 1278.00	 1370.52	-1895.52	  342.48
    118.9700	 1135.00	 1243.13	-1911.13	  342.49
    119.0700	  993.00	 1134.50	-1944.50	  342.51
    119.1700	  980.00	 1042.46	-1865.46	  342.54
    119.2700	  902.00	  964.89	-1865.89	  342.57
    119.3700	  820.00	  899.82	-1882.82	  342.60
    119.4700	  725.00	  845.40	-1923.40	  342.64
    119.5700	  720.00	  799.99	-1882.99	  342.69
    119.6700	  669.00	  762.14	-1896.14	  342.74
    119.7700	  651.00	  730.59	-1882.59	  342.79
    119.8700	  656.00	  704.30	-1851.30	  342.85
    119.9700	  611.00	  682.35	-1874.35	  342.92
    120.0700	  613.00	  664.00	-1854.00	  342.99
    120.1700	  580.00	  648.64	-1871.64	  343.06
    120.2700	  584.00	  635.77	-1854.77	  343.14
    120.3700	  568.00	  624.98	-1859.98	  343.23
    120.4700	  578.00	  615.96	-1840.96	  343.32
    120.5700	  588.00	  608.44	-1823.44	  343.42
    120.6700	  580.00	  602.22	-1825.22	  343.52
    120.7700	  558.00	  597.13	-1842.13	  343.63
    120.8700	  540.00	  593.05	-1856.05	  343.75
    120.9700	  543.00	  589.88	-1849.88	  343.87
    121.0700	  570.00	  587.53	-1820.53	  344.00
    121.1700	  514.00	  585.95	-1874.95	  344.13
    121.2700	  566.00	  585.08	-1822.08	  344.27
    121.3700	  539.00	  584.88	-1848.88	  344.41
    121.4700	  594.00	  585.30	-1794.30	  344.56
    121.5700	  591.00	  586.29	-1798.29	  344.72
    121.6700	  551.00	  587.80	-1839.80	  344.88
    121.7700	  589.00	  589.79	-1803.79	  345.05
    121.8700	  606.00	  592.18	-1789.18	  345.22
    121.9700	  618.00	  594.91	-1779.91	  345.41
    122.0700	  614.00	  597.88	-1786.88	  345.59
    122.1700	  579.00	  601.04	-1825.04	  345.79
    122.2700	  611.00	  604.28	-1796.28	  345.99
    122.3700	  588.00	  607.49	-1822.49	  346.19
    122.4700	  600.00	  610.57	-1813.57	  346.41
    122.5700	  638.00	  613.41	-1778.41	  346.63
    122.6700	  615.00	  615.88	-1803.88	  346.85
    122.7700	  661.00	  617.92	-1759.92	  347.09
    122.8700	  644.00	  619.42	-1778.42	  347.33
    122.9700	  612.00	  620.32	-1811.32	  347.58
    123.0700	  631.00	  620.59	-1792.59	  347.83
    123.1700	  623.00	  620.21	-1800.21	  348.09
    123.2700	  603.00	  619.19	-1819.19	  348.36
    123.3700	  662.00	  617.58	-1758.58	  348.63
    123.4700	  624.00	  615.43	-1794.43	  348.92
    123.5700	  627.00	  612.80	-1788.80	  349.21
    123.6700	  644.00	  609.77	-1768.77	  349.50
    123.7700	  601.00	  606.42	-1808.42	  349.81
    123.8700	  634.00	  602.83	-1771.83	  350.12
    123.9700	  618.00	  599.07	-1784.07	  350.44
    124.0700	  592.00	  595.21	-1806.21	  350.76
    124.1700	  613.00	  591.33	-1781.33	  351.10
    124.2700	  609.00	  587.48	-1781.48	  351.44
    124.3700	  609.00	  583.71	-1777.71	  351.79
    124.4700	  610.00	  580.07	-1773.07	  352.15
    124.5700	  634.00	  576.59	-1745.59	  352.51
    124.6700	  600.00	  573.31	-1776.31	  352.88
    124.7700	  550.00	  570.24	-1823.24	  353.26
    124.8700	  595.00	  567.39	-1775.39	  353.65
    124.9700	  582.00	  468.20	-1689.20	  354.05
    125.0700	  619.00	  468.61	-1803.00	  354.45
    125.1700	  547.00	  469.02	-1803.00	  354.87
    125.2700	  603.00	  469.44	-1803.00	  355.29
    125.3700	  563.00	  469.87	-1803.00	  355.72
    125.4700	  604.00	  470.31	-1803.00	  356.16
    125.5700	  530.00	  470.76	-1803.00	  356.60
    125.6700	  593.00	  471.21	-1803.00	  357.06
    125.7700	  603.00	  471.67	-1803.00	  357.52
    125.8700	  525.00	  472.14	-1803.00	  357.99
    125.9700	  581.00	  472.63	-1803.00	  358.47
    126.0700	  557.00	  473.11	-1803.00	  358.96
    126.1700	  550.00	  473.61	-1803.00	  359.46
    126.2700	  529.00	  474.12	-1803.00	  359.97
    126.3700	  541.00	  474.63	-1803.00	  360.48
    126.4700	  578.00	  475.16	-1803.00	  361.01
    126.5700	  563.00	  475.69	-1803.00	  361.54
    126.6700	  586.00	  476.24	-1803.00	  362.08
    126.7700	  631.00	  476.79	-1803.00	  362.63
    126.8700	  606.00	  477.35	-1803.00	  363.20
    126.9700	  588.00	  477.92	-1803.00	  363.77
    127.0700	  621.00	  478.50	-1803.00	  364.35
    127.1700	  579.00	  479.09	-1803.00	  364.94
    127.2700	  595.00	  479.69	-1803.00	  365.54
    127.3700	  626.00	  480.30	-1803.00	  366.14
    127.4700	  662.00	  480.92	-1803.00	  366.76
    127.5700	  620.00	  481.54	-1803.00	  367.39
    127.6700	  664.00	  482.18	-1803.00	  368.03
    127.7700	  687.00	  482.83	-1803.00	  368.68
    127.8700	  714.00	  483.49	-1803.00	  369.33
    127.9700	  711.00	  484.15	-1803.00	  370.00
    128.0700	  747.00	  484.83	-1803.00	  370.68
    128.1700	  721.00	  485.52	-1803.00	  371.37
    128.2700	  736.00	  486.22	-1803.00	  372.06
    128.3700	  786.00	  486.93	-1803.00	  372.77
    128.4700	  757.00	  487.64	-1803.00	  373.49
    128.5700	    1.00	  488.37	-1803.00	  374.22
    128.6700	    1.00	  489.11	-1803.00	  374.96
     12.3193	        	        	        	        	       0	(  0  0  2)	  0  1
     24.9133	        	        	        	        	       0	(  0  0  4)	  0  1
     28.3504	        	        	        	        	       0	(  1  0  0)	  0  1
     29.0484	        	        	        	        	       0	(  1  0  1)	  0  1
     31.0568	        	        	        	        	       0	(  1  0  2)	  0  1
     34.1686	        	        	        	        	       0	(  1  0  3)	  0  1
     37.8241	        	        	        	        	       0	(  0  0  6)	  0  1
     38.1499	        	        	        	        	       0	(  1  0  4)	  0  1
     42.8049	        	        	        	        	       0	(  1  0  5)	  0  1
     47.9944	        	        	        	        	       0	(  1  0  6)	  0  1
     50.3015	        	        	        	        	       0	(  1  1  0)	  0  1
     51.2586	        	        	        	        	       0	(  0  0  8)	  0  1
     52.0266	        	        	        	        	       0	(  1  1  2)	  0  1
     53.6309	        	        	        	        	       0	(  1  0  7)	  0  1
     56.9805	        	        	        	        	       0	(  1  1  4)	  0  1
     58.8046	        	        	        	        	       0	(  2  0  0)	  0  1
     59.1967	        	        	        	        	       0	(  2  0  1)	  0  1
     59.6679	        	        	        	        	       0	(  1  0  8)	  0  1
     60.3635	        	        	        	        	       0	(  2  0  2)	  0  1
     62.2792	        	        	        	        	       0	(  2  0  3)	  0  1
     64.6846	        	        	        	        	       0	(  1  1  6)	  0  1
     64.9067	        	        	        	        	       0	(  2  0  4)	  0  1
     65.5028	        	        	        	        	       0	(  0  0 10)	  0  1
     66.0916	        	        	        	        	       0	(  1  0  9)	  0  1
     68.2052	        	        	        	        	       0	(  2  0  5)	  0  1
     72.1379	        	        	        	        	       0	(  2  0  6)	  0  1
     72.9161	        	        	        	        	       0	(  1  0 10)	  0  1
     74.7353	        	        	        	        	       0	(  1  1  8)	  0  1
     76.6782	        	        	        	        	       0	(  2  0  7)	  0  1
     80.1833	        	        	        	        	       0	(  1  0 11)	  0  1
     81.0025	        	        	        	        	       0	(  0  0 12)	  0  1
     81.0648	        	        	        	        	       0	(  2  1  0)	  0  1
     81.4052	        	        	        	        	       0	(  2  1  1)	  0  1
     81.8158	        	        	        	        	       0	(  2  0  8)	  0  1
     82.4246	        	        	        	        	       0	(  2  1  2)	  0  1
     84.1185	        	        	        	        	       0	(  2  1  3)	  0  1
     86.4818	        	        	        	        	       0	(  2  1  4)	  0  1
     87.0243	        	        	        	        	       0	(  1  1 10)	  0  1
     87.5625	        	        	        	        	       0	(  2  0  9)	  0  1
     87.9690	        	        	        	        	       0	(  1  0 12)	  0  1
     89.5125	        	        	        	        	       0	(  2  1  5)	  0  1
     93.2161	        	        	        	        	       0	(  2  1  6)	  0  1
     93.9604	        	        	        	        	       0	(  2  0 10)	  0  1
     94.9691	        	        	        	        	       0	(  3  0  0)	  0  1
     95.3071	        	        	        	        	       0	(  3  0  1)	  0  1
     96.3221	        	        	        	        	       0	(  3  0  2)	  0  1
     96.3964	        	        	        	        	       0	(  1  0 13)	  0  1
     97.6124	        	        	        	        	       0	(  2  1  7)	  0  1
     98.0185	        	        	        	        	       0	(  3  0  3)	  0  1
     98.5702	        	        	        	        	       0	(  0  0 14)	  0  1
    100.4059	        	        	        	        	       0	(  3  0  4)	  0  1
    101.0954	        	        	        	        	       0	(  2  0 11)	  0  1
    101.9208	        	        	        	        	       0	(  1  1 12)	  0  1
    102.7446	        	        	        	        	       0	(  2  1  8)	  0  1
    103.5035	        	        	        	        	       0	(  3  0  5)	  0  1
    105.6675	        	        	        	        	       0	(  1  0 14)	  0  1
    107.3466	        	        	        	        	       0	(  3  0  6)	  0  1
    108.6940	        	        	        	        	       0	(  2  1  9)	  0  1
    109.1238	        	        	        	        	       0	(  2  0 12)	  0  1
    111.9974	        	        	        	        	       0	(  3  0  7)	  0  1
    115.6077	        	        	        	        	       0	(  2  1 10)	  0  1
    116.1373	        	        	        	        	       0	(  1  0 15)	  0  1
    116.7292	        	        	        	        	       0	(  2  2  0)	  0  1
    117.5649	        	        	        	        	       0	(  3  0  8)	  0  1
    118.2483	        	        	        	        	       0	(  2  2  2)	  0  1
    118.3323	        	        	        	        	       0	(  2  0 13)	  0  1
    120.1120	        	        	        	        	       0	(  0  0 16)	  0  1
    120.8128	        	        	        	        	       0	(  1  1 14)	  0  1
    122.9472	        	        	        	        	       0	(  2  2  4)	  0  1
    123.7590	        	        	        	        	       0	(  2  1 11)	  0  1
    124.2448	        	        	        	        	       0	(  3  0  9)	  0  1
    124.8136	        	        	        	        	       0	(  3  1  0)	  0  1
    125.2251	        	        	        	        	       0	(  3  1  1)	  0  1
    126.4726	        	        	        	        	       0	(  3  1  2)	  0  1
    128.5245	        	        	        	        	       0	(  1  0 16)	  0  1
    128.5981	        	        	        	        	       0	(  3  1  3)	  0  1
    129.3012	        	        	        	        	       0	(  2  0 14)	  0  1
    131.4164	        	        	        	        	       0	(  2  2  6)	  0  1
    131.6857	        	        	        	        	       0	(  3  1  4)	  0  1
    132.4166	        	        	        	        	       0	(  3  0 10)	  0  1
    133.7112	        	        	        	        	       0	(  2  1 12)	  0  1
    135.8908	        	        	        	        	       0	(  3  1  5)	  0  1
    141.5160	        	        	        	        	       0	(  3  1  6)	  0  1
    142.9541	        	        	        	        	       0	(  3  0 11)	  0  1
    143.5249	        	        	        	        	       0	(  2  0 15)	  0  1
    144.7974	        	        	        	        	       0	(  1  0 17)	  0  1
    145.7295	        	        	        	        	       0	(  2  2  8)	  0  1
    146.9553	        	        	        	        	       0	(  2  1 13)	  0  1
    149.2467	        	        	        	        	       0	(  3  1  7)	  0  1
    149.9302	        	        	        	        	       0	(  1  1 16)	  0  1
    154.4255	        	        	        	        	       0	(  0  0 18)	  0  1
    159.0308	        	        	        	        	       0	(  3  0 12)	  0  1
    159.2046	        	        	        	        	       0	(  4  0  0)	  0  1
    160.1800	        	        	        	        	       0	(  4  0  1)	  0  1
    161.4232	        	        	        	        	       0	(  3  1  8)	  0  1
    163.4356	        	        	        	        	       0	(  4  0  2)	  0  1
    170.8000	        	        	        	        	       0	(  2  0 16)	  0  1
    171.1720	        	        	        	        	       0	(  4  0  3)	  0  1
    176.2612	        	        	        	        	       0	(  2  1 14)	  0  1
