MSG Master    CELL:    5.91914   5.91914  23.27050   90.0000   90.0000  120.0000   SPGR: P 63/m m c             TEMP:   1074.85
  1   1280     2.52000     0.00000    -0.12750     0.00000     0.00000    0
    99     0     2
       0.00000      10.00000
     125.00000     130.00000
 2Theta	Yobs	Ycal	Yobs-Ycal	Backg	Posr	(hkl)	K
      0.7700	    0.00	  575.56	-1782.00	  457.01
      0.8700	    0.00	  575.88	-1782.00	  457.32
      0.9700	   43.00	  576.18	-1782.00	  457.62
      1.0700	   46.00	  576.48	-1782.00	  457.92
      1.1700	   42.00	  576.77	-1782.00	  458.21
      1.2700	   44.00	  577.05	-1782.00	  458.50
      1.3700	   56.00	  577.33	-1782.00	  458.77
      1.4700	   88.00	  577.60	-1782.00	  459.04
      1.5700	  281.00	  577.86	-1782.00	  459.30
      1.6700	  414.00	  578.12	-1782.00	  459.56
      1.7700	  545.00	  578.36	-1782.00	  459.81
      1.8700	  666.00	  578.60	-1782.00	  460.05
      1.9700	  766.00	  578.84	-1782.00	  460.28
      2.0700	  785.00	  579.07	-1782.00	  460.51
      2.1700	  725.00	  579.29	-1782.00	  460.73
      2.2700	  821.00	  579.50	-1782.00	  460.94
      2.3700	  721.00	  579.71	-1782.00	  461.15
      2.4700	  733.00	  579.91	-1782.00	  461.35
      2.5700	  690.00	  580.10	-1782.00	  461.54
      2.6700	  661.00	  580.29	-1782.00	  461.73
      2.7700	  653.00	  580.47	-1782.00	  461.91
      2.8700	  612.00	  580.64	-1782.00	  462.09
      2.9700	  621.00	  580.81	-1782.00	  462.25
      3.0700	  636.00	  580.97	-1782.00	  462.42
      3.1700	  575.00	  581.13	-1782.00	  462.57
      3.2700	  635.00	  581.28	-1782.00	  462.72
      3.3700	  675.00	  581.42	-1782.00	  462.87
      3.4700	  753.00	  581.56	-1782.00	  463.00
      3.5700	  864.00	  581.69	-1782.00	  463.13
      3.6700	  899.00	  581.82	-1782.00	  463.26
      3.7700	  904.00	  581.94	-1782.00	  463.38
      3.8700	  967.00	  582.05	-1782.00	  463.49
      3.9700	 1015.00	  582.16	-1782.00	  463.60
      4.0700	  997.00	  582.26	-1782.00	  463.70
      4.1700	 1136.00	  582.35	-1782.00	  463.80
      4.2700	 1084.00	  582.44	-1782.00	  463.89
      4.3700	 1106.00	  582.53	-1782.00	  463.97
      4.4700	 1083.00	  582.61	-1782.00	  464.05
      4.5700	 1034.00	  582.68	-1782.00	  464.12
      4.6700	 1012.00	  582.75	-1782.00	  464.19
      4.7700	 1051.00	  582.81	-1782.00	  464.25
      4.8700	  968.00	  582.87	-1782.00	  464.31
      4.9700	  996.00	  582.92	-1782.00	  464.36
      5.0700	  951.00	  582.97	-1782.00	  464.41
      5.1700	  886.00	  583.01	-1782.00	  464.45
      5.2700	  902.00	  583.04	-1782.00	  464.48
      5.3700	  838.00	  583.07	-1782.00	  464.52
      5.4700	  849.00	  583.10	-1782.00	  464.54
      5.5700	  841.00	  583.12	-1782.00	  464.56
      5.6700	  791.00	  583.13	-1782.00	  464.58
      5.7700	  805.00	  583.14	-1782.00	  464.59
      5.8700	  788.00	  583.15	-1782.00	  464.59
      5.9700	  821.00	  583.15	-1782.00	  464.59
      6.0700	  841.00	  583.14	-1782.00	  464.59
      6.1700	  760.00	  583.14	-1782.00	  464.58
      6.2700	  810.00	  583.12	-1782.00	  464.56
      6.3700	  751.00	  583.10	-1782.00	  464.54
      6.4700	  775.00	  583.08	-1782.00	  464.52
      6.5700	  715.00	  583.05	-1782.00	  464.49
      6.6700	  780.00	  583.02	-1782.00	  464.46
      6.7700	  764.00	  582.98	-1782.00	  464.42
      6.8700	  769.00	  582.94	-1782.00	  464.38
      6.9700	  704.00	  582.89	-1782.00	  464.33
      7.0700	  689.00	  582.84	-1782.00	  464.28
      7.1700	  699.00	  582.79	-1782.00	  464.23
      7.2700	  689.00	  582.73	-1782.00	  464.17
      7.3700	  695.00	  582.66	-1782.00	  464.11
      7.4700	  654.00	  582.60	-1782.00	  464.04
      7.5700	  623.00	  582.52	-1782.00	  463.97
      7.6700	  659.00	  582.45	-1782.00	  463.89
      7.7700	  650.00	  582.37	-1782.00	  463.81
      7.8700	  644.00	  582.28	-1782.00	  463.72
      7.9700	  616.00	  582.19	-1782.00	  463.64
      8.0700	  619.00	  582.10	-1782.00	  463.54
      8.1700	  638.00	  582.00	-1782.00	  463.45
      8.2700	  629.00	  581.90	-1782.00	  463.35
      8.3700	  652.00	  581.80	-1782.00	  463.24
      8.4700	  636.00	  581.69	-1782.00	  463.13
      8.5700	  677.00	  581.58	-1782.00	  463.02
      8.6700	  603.00	  581.46	-1782.00	  462.90
      8.7700	  618.00	  581.34	-1782.00	  462.78
      8.8700	  611.00	  581.22	-1782.00	  462.66
      8.9700	  634.00	  581.09	-1782.00	  462.53
      9.0700	  653.00	  580.96	-1782.00	  462.40
      9.1700	  612.00	  580.83	-1782.00	  462.27
      9.2700	  594.00	  580.69	-1782.00	  462.13
      9.3700	  609.00	  580.55	-1782.00	  461.99
      9.4700	  618.00	  580.40	-1782.00	  461.85
      9.5700	  593.00	  580.26	-1782.00	  461.70
      9.6700	  592.00	  580.11	-1782.00	  461.55
      9.7700	  629.00	  579.95	-1782.00	  461.39
      9.8700	  605.00	  579.79	-1782.00	  461.24
      9.9700	  621.00	  579.63	-1782.00	  461.07
     10.0700	  534.00	  580.14	-1828.14	  460.91
     10.1700	  573.00	  580.04	-1789.04	  460.74
     10.2700	  624.00	  579.95	-1737.95	  460.57
     10.3700	  608.00	  579.89	-1753.89	  460.40
     10.4700	  580.00	  579.87	-1781.87	  460.22
     10.5700	  629.00	  579.95	-1732.95	  460.04
     10.6700	  597.00	  580.21	-1765.21	  459.86
     10.7700	  592.00	  580.75	-1770.75	  459.67
     10.8700	  583.00	  581.64	-1780.64	  459.48
     10.9700	  603.00	  582.88	-1761.88	  459.29
     11.0700	  600.00	  584.41	-1766.41	  459.10
     11.1700	  596.00	  586.25	-1772.25	  458.90
     11.2700	  597.00	  588.41	-1773.41	  458.70
     11.3700	  585.00	  590.98	-1787.98	  458.50
     11.4700	  611.00	  594.06	-1765.06	  458.29
     11.5700	  605.00	  597.83	-1774.83	  458.08
     11.6700	  618.00	  602.60	-1766.60	  457.87
     11.7700	  622.00	  608.93	-1768.93	  457.66
     11.8700	  643.00	  617.68	-1756.68	  457.44
     11.9700	  670.00	  629.60	-1741.60	  457.23
     12.0700	  673.00	  643.41	-1752.41	  457.00
     12.1700	  678.00	  653.37	-1757.37	  456.78
     12.2700	  659.00	  650.21	-1773.21	  456.56
     12.3700	  629.00	  631.11	-1784.11	  456.33
     12.4700	  619.00	  608.01	-1771.01	  456.10
     12.5700	  589.00	  591.44	-1784.44	  455.86
     12.6700	  579.00	  582.70	-1785.70	  455.63
     12.7700	  554.00	  578.85	-1806.85	  455.39
     12.8700	  557.00	  577.09	-1802.09	  455.15
     12.9700	  579.00	  576.06	-1779.06	  454.91
     13.0700	  578.00	  575.32	-1779.32	  454.67
     13.1700	  551.00	  574.72	-1805.72	  454.42
     13.2700	  532.00	  574.20	-1824.20	  454.17
     13.3700	  589.00	  573.75	-1766.75	  453.92
     13.4700	  558.00	  573.33	-1797.33	  453.67
     13.5700	  579.00	  572.95	-1775.95	  453.41
     13.6700	  589.00	  572.59	-1765.59	  453.16
     13.7700	  539.00	  572.25	-1815.25	  452.90
     13.8700	  561.00	  571.92	-1792.92	  452.64
     13.9700	  520.00	  571.60	-1833.60	  452.38
     14.0700	  579.00	  571.28	-1774.28	  452.11
     14.1700	  583.00	  570.97	-1769.97	  451.85
     14.2700	  530.00	  570.67	-1822.67	  451.58
     14.3700	  565.00	  570.36	-1787.36	  451.31
     14.4700	  537.00	  570.07	-1815.07	  451.04
     14.5700	  558.00	  569.77	-1793.77	  450.77
     14.6700	  595.00	  569.47	-1756.47	  450.49
     14.7700	  535.00	  569.18	-1816.18	  450.22
     14.8700	  555.00	  568.88	-1795.88	  449.94
     14.9700	  534.00	  568.59	-1816.59	  449.66
     15.0700	  510.00	  568.29	-1840.29	  449.38
     15.1700	  559.00	  568.00	-1791.00	  449.10
     15.2700	  591.00	  567.70	-1758.70	  448.81
     15.3700	  550.00	  567.41	-1799.41	  448.53
     15.4700	  579.00	  567.11	-1770.11	  448.24
     15.5700	  572.00	  566.81	-1776.81	  447.95
     15.6700	  631.00	  566.52	-1717.52	  447.67
     15.7700	  602.00	  566.22	-1746.22	  447.38
     15.8700	  537.00	  565.92	-1810.92	  447.08
     15.9700	  539.00	  565.62	-1808.62	  446.79
     16.0700	  561.00	  565.32	-1786.32	  446.50
     16.1700	  508.00	  565.02	-1839.02	  446.20
     16.2700	  512.00	  564.72	-1834.72	  445.90
     16.3700	  559.00	  564.44	-1787.44	  445.60
     16.4700	  582.00	  564.14	-1764.14	  445.31
     16.5700	  549.00	  563.83	-1796.83	  445.01
     16.6700	  560.00	  563.53	-1785.53	  444.70
     16.7700	  578.00	  563.22	-1767.22	  444.40
     16.8700	  594.00	  562.92	-1750.92	  444.10
     16.9700	  560.00	  562.61	-1784.61	  443.79
     17.0700	  584.00	  562.30	-1760.30	  443.49
     17.1700	  545.00	  561.99	-1798.99	  443.18
     17.2700	  559.00	  561.68	-1784.68	  442.87
     17.3700	  549.00	  561.37	-1794.37	  442.57
     17.4700	  548.00	  561.06	-1795.06	  442.26
     17.5700	  565.00	  560.75	-1777.75	  441.95
     17.6700	  550.00	  560.44	-1792.44	  441.64
     17.7700	  534.00	  560.13	-1808.13	  441.32
     17.8700	  556.00	  559.82	-1785.82	  441.01
     17.9700	  584.00	  559.60	-1757.60	  440.70
     18.0700	  603.00	  559.29	-1738.29	  440.38
     18.1700	  561.00	  558.98	-1779.98	  440.07
     18.2700	  585.00	  558.67	-1755.67	  439.75
     18.3700	  549.00	  558.35	-1791.35	  439.44
     18.4700	  562.00	  558.04	-1778.04	  439.12
     18.5700	  533.00	  557.72	-1806.72	  438.80
     18.6700	  542.00	  557.41	-1797.41	  438.49
     18.7700	  552.00	  557.09	-1787.09	  438.17
     18.8700	  557.00	  556.78	-1781.78	  437.85
     18.9700	  540.00	  556.55	-1798.55	  437.53
     19.0700	  526.00	  556.23	-1812.23	  437.21
     19.1700	  558.00	  555.92	-1779.92	  436.89
     19.2700	  543.00	  555.60	-1794.60	  436.57
     19.3700	  573.00	  555.29	-1764.29	  436.25
     19.4700	  551.00	  554.97	-1785.97	  435.92
     19.5700	  532.00	  554.66	-1804.66	  435.60
     19.6700	  596.00	  554.34	-1740.34	  435.28
     19.7700	  540.00	  554.03	-1796.03	  434.96
     19.8700	  545.00	  553.71	-1790.71	  434.63
     19.9700	  550.00	  553.40	-1785.40	  434.31
     20.0700	  536.00	  553.08	-1799.08	  433.99
     20.1700	  528.00	  552.77	-1806.77	  433.66
     20.2700	  537.00	  552.46	-1797.46	  433.34
     20.3700	  508.00	  552.14	-1826.14	  433.01
     20.4700	  527.00	  551.80	-1806.80	  432.69
     20.5700	  591.00	  551.49	-1742.49	  432.37
     20.6700	  532.00	  551.18	-1801.18	  432.04
     20.7700	  489.00	  550.87	-1843.87	  431.72
     20.8700	  563.00	  550.56	-1769.56	  431.39
     20.9700	  521.00	  550.28	-1811.28	  431.07
     21.0700	  531.00	  549.97	-1800.97	  430.74
     21.1700	  528.00	  549.66	-1803.66	  430.42
     21.2700	  506.00	  549.36	-1825.36	  430.09
     21.3700	  565.00	  549.05	-1766.05	  429.76
     21.4700	  553.00	  548.75	-1777.75	  429.44
     21.5700	  545.00	  548.45	-1785.45	  429.11
     21.6700	  549.00	  548.15	-1781.15	  428.79
     21.7700	  512.00	  547.85	-1817.85	  428.46
     21.8700	  544.00	  547.55	-1785.55	  428.14
     21.9700	  536.00	  547.25	-1793.25	  427.81
     22.0700	  511.00	  546.96	-1817.96	  427.49
     22.1700	  557.00	  546.67	-1771.67	  427.17
     22.2700	  543.00	  546.39	-1785.39	  426.84
     22.3700	  581.00	  546.10	-1747.10	  426.52
     22.4700	  530.00	  545.83	-1797.83	  426.19
     22.5700	  568.00	  545.55	-1759.55	  425.87
     22.6700	  518.00	  545.29	-1809.29	  425.55
     22.7700	  581.00	  545.02	-1746.02	  425.22
     22.8700	  583.00	  544.77	-1743.77	  424.90
     22.9700	  566.00	  544.53	-1760.53	  424.58
     23.0700	  522.00	  544.30	-1804.30	  424.25
     23.1700	  540.00	  544.08	-1786.08	  423.93
     23.2700	  556.00	  543.89	-1769.89	  423.61
     23.3700	  535.00	  543.71	-1790.71	  423.29
     23.4700	  501.00	  543.57	-1824.57	  422.97
     23.5700	  565.00	  543.47	-1760.47	  422.65
     23.6700	  560.00	  543.44	-1765.44	  422.33
     23.7700	  545.00	  543.50	-1780.50	  422.01
     23.8700	  526.00	  543.88	-1799.88	  421.69
     23.9700	  546.00	  544.55	-1780.55	  421.37
     24.0700	  569.00	  546.04	-1759.04	  421.05
     24.1700	  528.00	  549.01	-1803.01	  420.74
     24.2700	  618.00	  554.32	-1718.32	  420.42
     24.3700	  581.00	  562.91	-1763.91	  420.10
     24.4700	  587.00	  575.90	-1770.90	  419.79
     24.5700	  595.00	  593.73	-1780.73	  419.47
     24.6700	  638.00	  613.79	-1757.79	  419.16
     24.7700	  598.00	  627.98	-1811.98	  418.84
     24.8700	  631.00	  625.19	-1776.19	  418.53
     24.9700	  656.00	  603.81	-1729.81	  418.21
     25.0700	  587.00	  577.86	-1772.86	  417.90
     25.1700	  562.00	  558.72	-1778.72	  417.59
     25.2700	  581.00	  548.25	-1749.25	  417.28
     25.3700	  613.00	  543.52	-1712.52	  416.97
     25.4700	  563.00	  541.44	-1760.44	  416.66
     25.5700	  535.00	  540.36	-1787.36	  416.35
     25.6700	  555.00	  539.66	-1766.66	  416.04
     25.7700	  590.00	  539.15	-1731.15	  415.73
     25.8700	  545.00	  538.77	-1775.77	  415.43
     25.9700	  551.00	  538.48	-1769.48	  415.12
     26.0700	  576.00	  538.28	-1744.28	  414.82
     26.1700	  550.00	  538.15	-1770.15	  414.51
     26.2700	  522.00	  538.10	-1798.10	  414.21
     26.3700	  552.00	  538.12	-1768.12	  413.91
     26.4700	  565.00	  538.23	-1755.23	  413.60
     26.5700	  553.00	  538.43	-1767.43	  413.30
     26.6700	  542.00	  538.74	-1778.74	  413.00
     26.7700	  549.00	  539.20	-1772.20	  412.70
     26.8700	  596.00	  539.82	-1725.82	  412.41
     26.9700	  565.00	  540.68	-1757.68	  412.11
     27.0700	  521.00	  541.83	-1802.83	  411.81
     27.1700	  511.00	  543.43	-1814.43	  411.52
     27.2700	  544.00	  545.71	-1783.71	  411.22
     27.3700	  542.00	  549.21	-1789.21	  410.93
     27.4700	  549.00	  554.89	-1787.89	  410.63
     27.5700	  562.00	  564.54	-1784.54	  410.34
     27.6700	  559.00	  580.96	-1803.96	  410.05
     27.7700	  593.00	  607.72	-1796.72	  409.76
     27.8700	  620.00	  647.91	-1809.91	  409.47
     27.9700	  663.00	  701.60	-1820.60	  409.19
     28.0700	  775.00	  762.56	-1769.56	  408.90
     28.1700	  857.00	  815.45	-1740.45	  408.61
     28.2700	  956.00	  837.41	-1663.41	  408.33
     28.3700	  970.00	  815.42	-1627.42	  408.04
     28.4700	  770.00	  771.69	-1783.69	  407.76
     28.5700	  688.00	  741.85	-1835.85	  407.48
     28.6700	  687.00	  741.95	-1836.95	  407.20
     28.7700	  778.00	  766.92	-1770.92	  406.92
     28.8700	  816.00	  796.21	-1762.21	  406.64
     28.9700	  757.00	  800.91	-1825.91	  406.37
     29.0700	  777.00	  762.94	-1767.94	  406.09
     29.1700	  721.00	  698.74	-1759.74	  405.82
     29.2700	  657.00	  637.83	-1762.82	  405.54
     29.3700	  586.00	  594.11	-1790.11	  405.27
     29.4700	  610.00	  567.86	-1739.86	  405.00
     29.5700	  564.00	  553.76	-1771.76	  404.73
     29.6700	  641.00	  546.35	-1687.35	  404.46
     29.7700	  653.00	  542.16	-1671.16	  404.19
     29.8700	  592.00	  539.54	-1729.54	  403.93
     29.9700	  544.00	  537.87	-1775.87	  403.66
     30.0700	  543.00	  536.98	-1775.98	  403.40
     30.1700	  532.00	  537.02	-1787.02	  403.14
     30.2700	  557.00	  538.50	-1763.50	  402.88
     30.3700	  567.00	  542.43	-1757.43	  402.62
     30.4700	  542.00	  550.36	-1790.36	  402.36
     30.5700	  548.00	  563.95	-1797.95	  402.10
     30.6700	  543.00	  583.71	-1822.71	  401.84
     30.7700	  577.00	  607.19	-1812.19	  401.59
     30.8700	  635.00	  627.69	-1774.69	  401.33
     30.9700	  669.00	  634.89	-1747.89	  401.08
     31.0700	  590.00	  621.82	-1813.82	  400.83
     31.1700	  591.00	  595.38	-1786.38	  400.58
     31.2700	  546.00	  569.01	-1805.01	  400.33
     31.3700	  544.00	  549.65	-1787.65	  400.09
     31.4700	  537.00	  538.00	-1783.00	  399.84
     31.5700	  516.00	  531.84	-1797.84	  399.60
     31.6700	  546.00	  528.71	-1764.71	  399.35
     31.7700	  553.00	  526.99	-1755.99	  399.11
     31.8700	  559.00	  525.91	-1748.91	  398.87
     31.9700	  538.00	  525.17	-1769.17	  398.63
     32.0700	  542.00	  524.64	-1764.64	  398.40
     32.1700	  506.00	  524.29	-1800.29	  398.16
     32.2700	  523.00	  524.08	-1783.08	  397.93
     32.3700	  555.00	  524.02	-1751.02	  397.69
     32.4700	  527.00	  524.10	-1779.10	  397.46
     32.5700	  535.00	  524.35	-1771.35	  397.23
     32.6700	  584.00	  524.78	-1722.78	  397.00
     32.7700	  542.00	  525.43	-1765.43	  396.78
     32.8700	  577.00	  526.39	-1731.39	  396.55
     32.9700	  522.00	  527.74	-1787.74	  396.33
     33.0700	  556.00	  529.69	-1755.69	  396.10
     33.1700	  594.00	  532.68	-1720.68	  395.88
     33.2700	  567.00	  537.69	-1752.69	  395.66
     33.3700	  560.00	  546.95	-1768.95	  395.44
     33.4700	  582.00	  564.73	-1764.73	  395.23
     33.5700	  605.00	  598.03	-1775.03	  395.01
     33.6700	  624.00	  655.03	-1813.03	  394.80
     33.7700	  753.00	  739.69	-1768.69	  394.58
     33.8700	  895.00	  843.08	-1730.08	  394.37
     33.9700	 1026.00	  937.39	-1693.39	  394.16
     34.0700	 1026.00	  979.54	-1735.54	  393.96
     34.1700	 1022.00	  937.54	-1697.54	  393.75
     34.2700	  863.00	  833.24	-1752.24	  393.54
     34.3700	  777.00	  721.12	-1726.12	  393.34
     34.4700	  648.00	  634.84	-1768.84	  393.14
     34.5700	  609.00	  581.16	-1754.16	  392.94
     34.6700	  561.00	  552.53	-1773.53	  392.74
     34.7700	  543.00	  538.38	-1777.38	  392.54
     34.8700	  567.00	  531.09	-1746.09	  392.35
     34.9700	  530.00	  526.76	-1778.76	  392.15
     35.0700	  563.00	  523.78	-1742.78	  391.96
     35.1700	  504.00	  521.53	-1799.53	  391.77
     35.2700	  537.00	  519.76	-1764.76	  391.58
     35.3700	  538.00	  518.34	-1762.34	  391.39
     35.4700	  517.00	  517.16	-1782.16	  391.21
     35.5700	  536.00	  516.16	-1762.16	  391.02
     35.6700	  527.00	  515.31	-1770.31	  390.84
     35.7700	  539.00	  514.57	-1757.57	  390.66
     35.8700	  505.00	  513.92	-1790.92	  390.48
     35.9700	  494.00	  513.83	-1801.83	  390.30
     36.0700	  521.00	  513.33	-1774.33	  390.12
     36.1700	  517.00	  512.88	-1777.88	  389.95
     36.2700	  513.00	  512.47	-1781.47	  389.77
     36.3700	  501.00	  512.10	-1793.10	  389.60
     36.4700	  488.00	  511.78	-1805.78	  389.43
     36.5700	  541.00	  511.48	-1752.48	  389.26
     36.6700	  542.00	  511.22	-1751.22	  389.09
     36.7700	  510.00	  511.00	-1783.00	  388.93
     36.8700	  535.00	  510.84	-1757.84	  388.77
     36.9700	  519.00	  510.78	-1773.78	  388.60
     37.0700	  521.00	  510.92	-1771.92	  388.44
     37.1700	  523.00	  511.47	-1770.47	  388.28
     37.2700	  494.00	  512.76	-1800.76	  388.13
     37.3700	  521.00	  515.12	-1776.12	  387.97
     37.4700	  496.00	  518.62	-1804.62	  387.82
     37.5700	  520.00	  522.72	-1784.72	  387.66
     37.6700	  481.00	  526.15	-1827.15	  387.51
     37.7700	  522.00	  527.44	-1787.44	  387.36
     37.8700	  545.00	  526.12	-1763.12	  387.21
     37.9700	  469.00	  523.29	-1836.29	  387.07
     38.0700	  470.00	  519.97	-1831.97	  386.92
     38.1700	  542.00	  516.59	-1756.59	  386.78
     38.2700	  546.00	  513.50	-1749.50	  386.64
     38.3700	  466.00	  511.09	-1827.09	  386.50
     38.4700	  492.00	  509.40	-1799.40	  386.36
     38.5700	  519.00	  508.33	-1771.33	  386.23
     38.6700	  480.00	  507.68	-1809.68	  386.09
     38.7700	  508.00	  507.18	-1781.18	  385.96
     38.8700	  553.00	  506.90	-1735.90	  385.83
     38.9700	  497.00	  506.68	-1791.68	  385.70
     39.0700	  506.00	  506.49	-1782.49	  385.57
     39.1700	  473.00	  506.24	-1815.24	  385.44
     39.2700	  491.00	  506.09	-1797.09	  385.32
     39.3700	  526.00	  505.95	-1761.95	  385.20
     39.4700	  462.00	  505.83	-1825.83	  385.07
     39.5700	  499.00	  505.71	-1788.71	  384.95
     39.6700	  506.00	  505.60	-1781.60	  384.84
     39.7700	  513.00	  505.62	-1774.62	  384.72
     39.8700	  465.00	  505.54	-1822.54	  384.61
     39.9700	  546.00	  505.46	-1741.46	  384.49
     40.0700	  494.00	  505.39	-1793.39	  384.38
     40.1700	  509.00	  505.33	-1778.33	  384.27
     40.2700	  510.00	  505.28	-1777.28	  384.16
     40.3700	  472.00	  505.24	-1815.24	  384.06
     40.4700	  507.00	  505.21	-1780.21	  383.95
     40.5700	  509.00	  505.19	-1778.19	  383.85
     40.6700	  436.00	  505.19	-1851.19	  383.74
     40.7700	  477.00	  505.21	-1810.21	  383.64
     40.8700	  513.00	  505.25	-1774.25	  383.55
     40.9700	  507.00	  505.32	-1780.32	  383.45
     41.0700	  487.00	  505.41	-1800.41	  383.35
     41.1700	  498.00	  505.51	-1789.51	  383.26
     41.2700	  486.00	  505.68	-1801.68	  383.17
     41.3700	  544.00	  505.91	-1743.91	  383.08
     41.4700	  512.00	  506.22	-1776.22	  382.99
     41.5700	  496.00	  506.64	-1792.64	  382.90
     41.6700	  496.00	  507.62	-1793.62	  382.82
     41.7700	  472.00	  508.47	-1818.47	  382.73
     41.8700	  470.00	  509.87	-1821.87	  382.65
     41.9700	  479.00	  512.47	-1815.47	  382.57
     42.0700	  494.00	  517.56	-1805.56	  382.49
     42.1700	  520.00	  527.26	-1789.26	  382.41
     42.2700	  522.00	  544.14	-1804.14	  382.34
     42.3700	  539.00	  569.84	-1812.84	  382.26
     42.4700	  595.00	  602.50	-1789.50	  382.19
     42.5700	  610.00	  635.12	-1807.12	  382.12
     42.6700	  609.00	  655.92	-1828.92	  382.05
     42.7700	  589.00	  654.08	-1847.08	  381.98
     42.8700	  588.00	  629.72	-1823.72	  381.92
     42.9700	  575.00	  595.24	-1802.24	  381.85
     43.0700	  552.00	  562.91	-1792.91	  381.79
     43.1700	  534.00	  538.85	-1786.85	  381.73
     43.2700	  494.00	  523.79	-1811.79	  381.67
     43.3700	  525.00	  515.55	-1772.55	  381.61
     43.4700	  492.00	  511.40	-1801.40	  381.55
     43.5700	  501.00	  509.30	-1790.30	  381.50
     43.6700	  478.00	  508.14	-1812.14	  381.45
     43.7700	  498.00	  507.57	-1791.57	  381.39
     43.8700	  517.00	  507.05	-1772.05	  381.34
     43.9700	  480.00	  506.66	-1808.66	  381.30
     44.0700	  504.00	  506.37	-1784.37	  381.25
     44.1700	  551.00	  506.15	-1737.15	  381.20
     44.2700	  525.00	  506.02	-1763.02	  381.16
     44.3700	  485.00	  505.91	-1802.91	  381.12
     44.4700	  541.00	  505.84	-1746.84	  381.08
     44.5700	  487.00	  505.68	-1800.68	  381.04
     44.6700	  527.00	  505.67	-1760.67	  381.00
     44.7700	  491.00	  505.69	-1796.69	  380.96
     44.8700	  501.00	  505.73	-1786.73	  380.93
     44.9700	  529.00	  505.79	-1758.79	  380.89
     45.0700	  539.00	  505.88	-1748.88	  380.86
     45.1700	  498.00	  505.98	-1789.98	  380.83
     45.2700	  535.00	  506.28	-1753.28	  380.80
     45.3700	  521.00	  506.43	-1767.43	  380.78
     45.4700	  485.00	  506.60	-1803.60	  380.75
     45.5700	  520.00	  506.79	-1768.79	  380.73
     45.6700	  519.00	  507.01	-1770.01	  380.70
     45.7700	  466.00	  507.25	-1823.25	  380.68
     45.8700	  511.00	  507.52	-1778.52	  380.66
     45.9700	  536.00	  507.81	-1753.81	  380.65
     46.0700	  498.00	  508.14	-1792.14	  380.63
     46.1700	  496.00	  508.51	-1794.51	  380.61
     46.2700	  495.00	  508.92	-1795.92	  380.60
     46.3700	  509.00	  509.37	-1782.37	  380.59
     46.4700	  500.00	  509.88	-1791.88	  380.58
     46.5700	  498.00	  510.46	-1794.46	  380.57
     46.6700	  511.00	  511.11	-1782.11	  380.56
     46.7700	  527.00	  511.87	-1766.87	  380.56
     46.8700	  488.00	  512.79	-1806.79	  380.55
     46.9700	  475.00	  513.96	-1820.96	  380.55
     47.0700	  484.00	  515.64	-1813.64	  380.54
     47.1700	  544.00	  518.31	-1756.31	  380.54
     47.2700	  549.00	  522.87	-1755.87	  380.55
     47.3700	  516.00	  530.53	-1796.53	  380.55
     47.4700	  565.00	  542.35	-1759.35	  380.55
     47.5700	  560.00	  558.69	-1780.69	  380.56
     47.6700	  556.00	  577.97	-1803.97	  380.56
     47.7700	  625.00	  596.15	-1753.15	  380.57
     47.8700	  606.00	  607.35	-1783.35	  380.58
     47.9700	  588.00	  606.93	-1800.93	  380.59
     48.0700	  564.00	  595.76	-1813.76	  380.60
     48.1700	  569.00	  579.64	-1792.64	  380.62
     48.2700	  581.00	  564.35	-1765.35	  380.63
     48.3700	  510.00	  553.23	-1825.23	  380.65
     48.4700	  519.00	  547.09	-1810.09	  380.67
     48.5700	  560.00	  545.34	-1767.34	  380.69
     48.6700	  495.00	  546.85	-1833.85	  380.71
     48.7700	  536.00	  550.66	-1796.66	  380.73
     48.8700	  546.00	  556.34	-1792.34	  380.75
     48.9700	  495.00	  563.98	-1850.98	  380.77
     49.0700	  533.00	  574.28	-1823.28	  380.80
     49.1700	  599.00	  588.93	-1771.93	  380.83
     49.2700	  649.00	  611.49	-1744.49	  380.86
     49.3700	  664.00	  648.69	-1766.69	  380.89
     49.4700	  692.00	  711.83	-1801.83	  380.92
     49.5700	  829.00	  817.04	-1770.04	  380.95
     49.6700	  954.00	  982.94	-1810.94	  380.98
     49.7700	 1082.00	 1222.35	-1922.35	  381.02
     49.8700	 1412.00	 1533.50	-1903.50	  381.05
     49.9700	 1847.00	 1886.88	-1821.88	  381.09
     50.0700	 2270.00	 2216.44	-1728.44	  381.13
     50.1700	 2598.00	 2424.87	-1608.87	  381.17
     50.2700	 2475.00	 2426.12	-1733.12	  381.21
     50.3700	 2325.00	 2217.44	-1674.44	  381.25
     50.4700	 1868.00	 1885.87	-1799.87	  381.30
     50.5700	 1398.00	 1533.33	-1917.33	  381.34
     50.6700	  977.00	 1226.77	-2031.77	  381.39
     50.7700	  795.00	  995.35	-1982.35	  381.44
     50.8700	  768.00	  840.21	-1854.21	  381.48
     50.9700	  642.00	  746.06	-1886.06	  381.53
     51.0700	  635.00	  691.91	-1838.91	  381.59
     51.1700	  614.00	  658.78	-1826.78	  381.64
     51.2700	  637.00	  634.16	-1779.16	  381.69
     51.3700	  608.00	  612.85	-1786.85	  381.75
     51.4700	  585.00	  594.22	-1791.22	  381.80
     51.5700	  591.00	  578.89	-1769.89	  381.86
     51.6700	  568.00	  567.25	-1781.25	  381.92
     51.7700	  583.00	  559.00	-1758.00	  381.97
     51.8700	  568.00	  553.46	-1767.46	  382.04
     51.9700	  510.00	  549.80	-1821.80	  382.10
     52.0700	  557.00	  547.43	-1772.43	  382.16
     52.1700	  524.00	  546.02	-1804.02	  382.22
     52.2700	  594.00	  545.45	-1733.45	  382.29
     52.3700	  594.00	  546.04	-1734.04	  382.35
     52.4700	  526.00	  547.74	-1803.74	  382.42
     52.5700	  548.00	  551.69	-1785.69	  382.49
     52.6700	  577.00	  559.92	-1764.92	  382.56
     52.7700	  605.00	  576.27	-1753.27	  382.63
     52.8700	  658.00	  606.86	-1730.86	  382.70
     52.9700	  742.00	  659.50	-1699.50	  382.77
     53.0700	  805.00	  741.06	-1718.06	  382.85
     53.1700	  866.00	  852.90	-1768.90	  382.92
     53.2700	  990.00	  985.55	-1777.55	  383.00
     53.3700	 1177.00	 1115.46	-1720.46	  383.07
     53.4700	 1193.00	 1207.00	-1796.00	  383.15
     53.5700	 1168.00	 1225.61	-1839.61	  383.23
     53.6700	 1115.00	 1162.57	-1829.57	  383.31
     53.7700	  960.00	 1043.94	-1865.94	  383.39
     53.8700	  849.00	  908.35	-1841.35	  383.47
     53.9700	  800.00	  785.57	-1767.57	  383.55
     54.0700	  648.00	  690.93	-1824.93	  383.64
     54.1700	  649.00	  627.01	-1760.01	  383.72
     54.2700	  590.00	  588.55	-1780.55	  383.81
     54.3700	  573.00	  567.51	-1776.51	  383.89
     54.4700	  565.00	  556.85	-1773.85	  383.98
     54.5700	  561.00	  551.74	-1772.74	  384.07
     54.6700	  566.00	  549.44	-1765.44	  384.16
     54.7700	  532.00	  548.67	-1798.67	  384.25
     54.8700	  567.00	  548.85	-1763.85	  384.34
     54.9700	  546.00	  549.77	-1785.77	  384.43
     55.0700	  552.00	  551.38	-1781.38	  384.52
     55.1700	  575.00	  553.68	-1760.68	  384.62
     55.2700	  553.00	  556.73	-1785.73	  384.71
     55.3700	  564.00	  560.69	-1778.69	  384.81
     55.4700	  578.00	  565.69	-1769.69	  384.90
     55.5700	  569.00	  572.15	-1785.15	  385.00
     55.6700	  593.00	  580.80	-1769.80	  385.10
     55.7700	  577.00	  593.21	-1798.21	  385.20
     55.8700	  570.00	  612.56	-1824.56	  385.30
     55.9700	  601.00	  644.87	-1825.87	  385.40
     56.0700	  654.00	  700.36	-1828.36	  385.50
     56.1700	  708.00	  794.07	-1868.07	  385.60
     56.2700	  857.00	  944.16	-1869.16	  385.70
     56.3700	 1118.00	 1166.78	-1830.78	  385.81
     56.4700	 1382.00	 1467.28	-1867.28	  385.91
     56.5700	 1740.00	 1829.97	-1871.97	  386.02
     56.6700	 2166.00	 2210.38	-1826.38	  386.12
     56.7700	 2490.00	 2532.74	-1824.74	  386.23
     56.8700	 2616.00	 2704.40	-1870.40	  386.33
     56.9700	 2579.00	 2661.69	-1864.69	  386.44
     57.0700	 2329.00	 2421.16	-1874.16	  386.55
     57.1700	 2042.00	 2066.08	-1806.08	  386.66
     57.2700	 1693.00	 1687.22	-1776.22	  386.77
     57.3700	 1326.00	 1348.51	-1804.51	  386.88
     57.4700	 1059.00	 1082.30	-1805.30	  386.99
     57.5700	  831.00	  894.82	-1845.82	  387.11
     57.6700	  806.00	  775.53	-1751.53	  387.22
     57.7700	  745.00	  707.34	-1744.34	  387.33
     57.8700	  698.00	  674.18	-1758.18	  387.45
     57.9700	  674.00	  664.88	-1772.88	  387.56
     58.0700	  710.00	  673.61	-1745.61	  387.68
     58.1700	  706.00	  698.50	-1774.50	  387.79
     58.2700	  727.00	  739.74	-1794.74	  387.91
     58.3700	  828.00	  797.65	-1751.65	  388.03
     58.4700	  943.00	  870.99	-1709.99	  388.14
     58.5700	 1084.00	  955.37	-1653.37	  388.26
     58.6700	 1248.00	 1042.68	-1576.68	  388.38
     58.7700	 1330.00	 1123.28	-1575.28	  388.50
     58.8700	 1526.00	 1190.35	-1446.35	  388.62
     58.9700	 1538.00	 1239.86	-1483.86	  388.74
     59.0700	 1533.00	 1266.55	-1515.55	  388.86
     59.1700	 1587.00	 1265.75	-1460.75	  388.99
     59.2700	 1399.00	 1241.23	-1624.23	  389.11
     59.3700	 1351.00	 1205.66	-1636.66	  389.23
     59.4700	 1289.00	 1172.15	-1665.15	  389.35
     59.5700	 1197.00	 1149.53	-1734.53	  389.48
     59.6700	 1088.00	 1144.98	-1838.98	  389.60
     59.7700	 1122.00	 1166.71	-1826.71	  389.73
     59.8700	 1195.00	 1220.17	-1807.17	  389.85
     59.9700	 1341.00	 1301.66	-1742.66	  389.98
     60.0700	 1462.00	 1395.11	-1715.11	  390.10
     60.1700	 1580.00	 1472.57	-1674.57	  390.23
     60.2700	 1591.00	 1501.18	-1692.18	  390.36
     60.3700	 1584.00	 1460.21	-1658.21	  390.48
     60.4700	 1451.00	 1355.94	-1686.94	  390.61
     60.5700	 1336.00	 1215.04	-1661.04	  390.74
     60.6700	 1006.00	 1066.48	-1842.48	  390.87
     60.7700	  949.00	  931.49	-1764.49	  391.00
     60.8700	  798.00	  822.05	-1806.05	  391.13
     60.9700	  690.00	  742.29	-1834.29	  391.26
     61.0700	  597.00	  691.02	-1876.02	  391.39
     61.1700	  629.00	  664.85	-1817.85	  391.52
     61.2700	  627.00	  661.00	-1816.00	  391.65
     61.3700	  646.00	  678.93	-1814.93	  391.78
     61.4700	  682.00	  720.65	-1820.65	  391.91
     61.5700	  749.00	  789.40	-1822.40	  392.04
     61.6700	  796.00	  887.24	-1873.24	  392.17
     61.7700	  901.00	 1012.07	-1893.07	  392.30
     61.8700	 1070.00	 1154.86	-1866.86	  392.44
     61.9700	 1240.00	 1297.89	-1839.89	  392.57
     62.0700	 1330.00	 1414.89	-1866.89	  392.70
     62.1700	 1417.00	 1475.85	-1840.85	  392.83
     62.2700	 1383.00	 1460.93	-1859.93	  392.97
     62.3700	 1298.00	 1374.58	-1858.58	  393.10
     62.4700	 1245.00	 1242.18	-1779.18	  393.24
     62.5700	 1036.00	 1093.61	-1839.61	  393.37
     62.6700	  955.00	  952.24	-1779.24	  393.50
     62.7700	  767.00	  832.36	-1847.36	  393.64
     62.8700	  672.00	  739.81	-1849.81	  393.77
     62.9700	  643.00	  674.02	-1813.02	  393.91
     63.0700	  623.00	  630.52	-1789.52	  394.04
     63.1700	  596.00	  603.50	-1789.50	  394.18
     63.2700	  601.00	  587.66	-1768.66	  394.31
     63.3700	  593.00	  579.04	-1768.04	  394.45
     63.4700	  539.00	  575.31	-1818.31	  394.58
     63.5700	  584.00	  575.63	-1773.63	  394.72
     63.6700	  637.00	  580.34	-1725.34	  394.85
     63.7700	  616.00	  590.85	-1756.85	  394.99
     63.8700	  649.00	  609.20	-1742.20	  395.13
     63.9700	  661.00	  637.63	-1758.63	  395.26
     64.0700	  718.00	  677.72	-1741.72	  395.40
     64.1700	  767.00	  729.37	-1744.37	  395.53
     64.2700	  837.00	  789.86	-1734.86	  395.67
     64.3700	  922.00	  853.23	-1713.23	  395.81
     64.4700	 1042.00	  910.21	-1650.21	  395.94
     64.5700	  973.00	  949.85	-1758.85	  396.08
     64.6700	  997.00	  963.01	-1748.01	  396.21
     64.7700	  984.00	  948.58	-1746.58	  396.35
     64.8700	 1015.00	  911.19	-1678.19	  396.49
     64.9700	  923.00	  859.82	-1718.82	  396.62
     65.0700	  882.00	  804.14	-1704.14	  396.76
     65.1700	  810.00	  751.84	-1723.84	  396.89
     65.2700	  690.00	  707.19	-1799.19	  397.03
     65.3700	  671.00	  671.19	-1782.19	  397.17
     65.4700	  578.00	  642.85	-1846.85	  397.30
     65.5700	  620.00	  620.64	-1782.64	  397.44
     65.6700	  601.00	  603.35	-1784.35	  397.57
     65.7700	  588.00	  590.12	-1784.12	  397.71
     65.8700	  577.00	  580.34	-1785.34	  397.84
     65.9700	  566.00	  573.52	-1789.52	  397.98
     66.0700	  589.00	  569.24	-1762.24	  398.11
     66.1700	  551.00	  567.10	-1798.10	  398.25
     66.2700	  594.00	  566.73	-1754.73	  398.38
     66.3700	  597.00	  567.81	-1752.81	  398.52
     66.4700	  548.00	  570.19	-1804.19	  398.65
     66.5700	  536.00	  573.88	-1819.88	  398.79
     66.6700	  567.00	  579.23	-1794.23	  398.92
     66.7700	  566.00	  587.19	-1803.19	  399.05
     66.8700	  582.00	  599.22	-1799.22	  399.19
     66.9700	  560.00	  618.31	-1840.31	  399.32
     67.0700	  617.00	  649.14	-1814.14	  399.46
     67.1700	  652.00	  698.48	-1828.48	  399.59
     67.2700	  724.00	  774.99	-1832.99	  399.72
     67.3700	  868.00	  888.20	-1802.20	  399.85
     67.4700	 1057.00	 1046.08	-1771.08	  399.99
     67.5700	 1287.00	 1251.89	-1746.89	  400.12
     67.6700	 1543.00	 1500.41	-1739.41	  400.25
     67.7700	 1847.00	 1774.99	-1709.99	  400.38
     67.8700	 2075.00	 2046.31	-1753.31	  400.51
     67.9700	 2305.00	 2273.12	-1750.12	  400.64
     68.0700	 2448.00	 2409.08	-1743.08	  400.77
     68.1700	 2421.00	 2419.43	-1780.43	  400.90
     68.2700	 2287.00	 2301.27	-1796.27	  401.03
     68.3700	 2106.00	 2085.54	-1761.54	  401.16
     68.4700	 1836.00	 1818.37	-1764.37	  401.29
     68.5700	 1537.00	 1542.35	-1787.35	  401.42
     68.6700	 1293.00	 1288.86	-1777.86	  401.55
     68.7700	  992.00	 1076.51	-1866.51	  401.68
     68.8700	  856.00	  911.83	-1837.83	  401.80
     68.9700	  769.00	  792.77	-1805.77	  401.93
     69.0700	  675.00	  711.82	-1818.82	  402.06
     69.1700	  643.00	  659.45	-1798.45	  402.19
     69.2700	  699.00	  626.80	-1709.80	  402.31
     69.3700	  679.00	  606.76	-1709.76	  402.44
     69.4700	  571.00	  594.37	-1805.37	  402.56
     69.5700	  625.00	  586.47	-1743.47	  402.69
     69.6700	  598.00	  581.21	-1765.21	  402.81
     69.7700	  612.00	  577.58	-1747.58	  402.93
     69.8700	  642.00	  575.05	-1715.05	  403.06
     69.9700	  563.00	  573.37	-1792.37	  403.18
     70.0700	  594.00	  572.40	-1760.40	  403.30
     70.1700	  564.00	  572.09	-1790.09	  403.42
     70.2700	  603.00	  572.47	-1751.47	  403.54
     70.3700	  571.00	  573.62	-1784.62	  403.67
     70.4700	  596.00	  575.75	-1761.75	  403.79
     70.5700	  562.00	  579.29	-1799.29	  403.90
     70.6700	  567.00	  585.07	-1800.07	  404.02
     70.7700	  605.00	  594.52	-1771.52	  404.14
     70.8700	  608.00	  609.96	-1783.96	  404.26
     70.9700	  623.00	  634.87	-1793.87	  404.38
     71.0700	  677.00	  673.99	-1778.99	  404.49
     71.1700	  702.00	  733.07	-1813.07	  404.61
     71.2700	  784.00	  818.00	-1816.00	  404.73
     71.3700	  955.00	  933.46	-1760.46	  404.84
     71.4700	 1010.00	 1081.63	-1853.63	  404.95
     71.5700	 1184.00	 1257.08	-1855.08	  405.07
     71.6700	 1404.00	 1449.99	-1827.99	  405.18
     71.7700	 1592.00	 1642.22	-1832.22	  405.29
     71.8700	 1800.00	 1808.94	-1790.94	  405.41
     71.9700	 1927.00	 1921.52	-1776.52	  405.52
     72.0700	 1909.00	 1955.87	-1828.87	  405.63
     72.1700	 1844.00	 1903.74	-1841.74	  405.74
     72.2700	 1733.00	 1777.40	-1826.40	  405.84
     72.3700	 1669.00	 1603.76	-1716.76	  405.95
     72.4700	 1504.00	 1410.68	-1688.68	  406.06
     72.5700	 1364.00	 1221.52	-1639.52	  406.17
     72.6700	 1153.00	 1052.47	-1681.47	  406.27
     72.7700	 1035.00	  912.39	-1659.39	  406.38
     72.8700	  947.00	  803.56	-1638.56	  406.48
     72.9700	  875.00	  723.71	-1630.71	  406.59
     73.0700	  823.00	  667.86	-1626.86	  406.69
     73.1700	  738.00	  630.26	-1674.26	  406.79
     73.2700	  723.00	  605.56	-1664.56	  406.89
     73.3700	  646.00	  589.47	-1725.47	  406.99
     73.4700	  617.00	  578.92	-1743.92	  407.09
     73.5700	  618.00	  571.88	-1735.88	  407.19
     73.6700	  647.00	  567.12	-1702.12	  407.29
     73.7700	  582.00	  563.93	-1763.93	  407.39
     73.8700	  637.00	  561.91	-1706.91	  407.49
     73.9700	  644.00	  560.83	-1698.83	  407.58
     74.0700	  583.00	  560.52	-1759.52	  407.68
     74.1700	  597.00	  560.81	-1745.81	  407.77
     74.2700	  625.00	  561.50	-1718.50	  407.87
     74.3700	  568.00	  562.35	-1776.35	  407.96
     74.4700	  638.00	  563.07	-1707.07	  408.05
     74.5700	  684.00	  563.36	-1661.36	  408.14
     74.6700	  629.00	  562.98	-1715.98	  408.23
     74.7700	  612.00	  561.86	-1731.86	  408.32
     74.8700	  664.00	  560.14	-1678.14	  408.41
     74.9700	  606.00	  558.11	-1734.11	  408.49
     75.0700	  595.00	  556.08	-1743.08	  408.58
     75.1700	  660.00	  554.46	-1676.46	  408.67
     75.2700	  588.00	  553.51	-1747.51	  408.75
     75.3700	  572.00	  553.71	-1763.71	  408.83
     75.4700	  539.00	  555.43	-1798.43	  408.92
     75.5700	  574.00	  559.13	-1767.13	  409.00
     75.6700	  548.00	  565.23	-1799.23	  409.08
     75.7700	  591.00	  574.38	-1765.38	  409.16
     75.8700	  595.00	  586.81	-1773.81	  409.24
     75.9700	  627.00	  602.51	-1757.51	  409.31
     76.0700	  646.00	  621.03	-1757.03	  409.39
     76.1700	  603.00	  641.33	-1820.33	  409.47
     76.2700	  678.00	  661.73	-1765.73	  409.54
     76.3700	  620.00	  680.00	-1842.00	  409.61
     76.4700	  683.00	  693.54	-1792.54	  409.69
     76.5700	  692.00	  699.95	-1789.95	  409.76
     76.6700	  684.00	  697.90	-1795.90	  409.83
     76.7700	  651.00	  687.79	-1818.79	  409.90
     76.8700	  640.00	  671.56	-1813.56	  409.97
     76.9700	  652.00	  651.60	-1781.60	  410.03
     77.0700	  601.00	  630.74	-1811.74	  410.10
     77.1700	  575.00	  610.78	-1817.78	  410.17
     77.2700	  579.00	  593.09	-1796.09	  410.23
     77.3700	  576.00	  578.40	-1784.40	  410.29
     77.4700	  507.00	  566.90	-1841.90	  410.36
     77.5700	  565.00	  558.37	-1775.37	  410.42
     77.6700	  521.00	  552.33	-1813.33	  410.48
     77.7700	  501.00	  548.24	-1829.24	  410.54
     77.8700	  522.00	  545.57	-1805.57	  410.59
     77.9700	  501.00	  543.86	-1824.86	  410.65
     78.0700	  493.00	  542.79	-1831.79	  410.71
     78.1700	  565.00	  542.12	-1759.12	  410.76
     78.2700	  530.00	  541.70	-1793.70	  410.81
     78.3700	  531.00	  541.45	-1792.45	  410.87
     78.4700	  495.00	  541.31	-1828.31	  410.92
     78.5700	  536.00	  541.26	-1787.26	  410.97
     78.6700	  498.00	  541.30	-1825.30	  411.01
     78.7700	  543.00	  541.44	-1780.44	  411.06
     78.8700	  508.00	  541.69	-1815.69	  411.11
     78.9700	  521.00	  542.09	-1803.09	  411.15
     79.0700	  536.00	  542.68	-1788.68	  411.20
     79.1700	  540.00	  543.50	-1785.50	  411.24
     79.2700	  528.00	  544.44	-1798.44	  411.28
     79.3700	  512.00	  545.91	-1815.91	  411.32
     79.4700	  565.00	  547.80	-1764.80	  411.36
     79.5700	  527.00	  550.18	-1805.18	  411.40
     79.6700	  511.00	  553.12	-1824.12	  411.44
     79.7700	  547.00	  556.74	-1791.74	  411.47
     79.8700	  541.00	  561.14	-1802.14	  411.51
     79.9700	  518.00	  566.50	-1830.50	  411.54
     80.0700	  558.00	  573.01	-1797.01	  411.57
     80.1700	  555.00	  580.95	-1807.95	  411.60
     80.2700	  555.00	  590.59	-1817.59	  411.63
     80.3700	  541.00	  602.20	-1843.20	  411.66
     80.4700	  627.00	  615.86	-1770.86	  411.69
     80.5700	  601.00	  631.43	-1812.43	  411.71
     80.6700	  621.00	  648.40	-1809.40	  411.74
     80.7700	  669.00	  665.95	-1778.95	  411.76
     80.8700	  646.00	  682.88	-1818.88	  411.78
     80.9700	  671.00	  697.85	-1808.85	  411.80
     81.0700	  715.00	  709.64	-1776.64	  411.82
     81.1700	  699.00	  717.33	-1800.33	  411.84
     81.2700	  698.00	  720.39	-1804.39	  411.85
     81.3700	  747.00	  718.65	-1753.65	  411.87
     81.4700	  701.00	  712.40	-1793.40	  411.88
     81.5700	  714.00	  702.27	-1770.27	  411.90
     81.6700	  765.00	  689.11	-1706.11	  411.91
     81.7700	  785.00	  673.83	-1670.83	  411.92
     81.8700	  734.00	  657.37	-1705.37	  411.93
     81.9700	  705.00	  640.67	-1717.67	  411.93
     82.0700	  705.00	  624.69	-1701.69	  411.94
     82.1700	  673.00	  610.04	-1719.04	  411.94
     82.2700	  643.00	  597.10	-1736.10	  411.95
     82.3700	  639.00	  586.04	-1729.04	  411.95
     82.4700	  616.00	  576.91	-1742.91	  411.95
     82.5700	  582.00	  569.62	-1769.62	  411.95
     82.6700	  562.00	  564.11	-1784.11	  411.95
     82.7700	  549.00	  560.27	-1793.27	  411.95
     82.8700	  543.00	  557.97	-1796.97	  411.94
     82.9700	  562.00	  557.11	-1777.11	  411.93
     83.0700	  542.00	  557.63	-1797.63	  411.93
     83.1700	  562.00	  559.45	-1779.45	  411.92
     83.2700	  578.00	  562.47	-1766.47	  411.91
     83.3700	  588.00	  566.53	-1760.53	  411.90
     83.4700	  562.00	  571.40	-1791.40	  411.88
     83.5700	  591.00	  576.76	-1767.76	  411.87
     83.6700	  573.00	  582.19	-1791.19	  411.85
     83.7700	  575.00	  587.15	-1794.15	  411.84
     83.8700	  629.00	  591.06	-1744.06	  411.82
     83.9700	  567.00	  593.37	-1808.37	  411.80
     84.0700	  585.00	  593.67	-1790.67	  411.78
     84.1700	  571.00	  591.88	-1802.88	  411.75
     84.2700	  548.00	  588.25	-1822.25	  411.73
     84.3700	  517.00	  583.28	-1848.28	  411.71
     84.4700	  623.00	  577.52	-1736.52	  411.68
     84.5700	  552.00	  571.49	-1801.49	  411.65
     84.6700	  574.00	  565.64	-1773.64	  411.62
     84.7700	  526.00	  560.27	-1816.27	  411.59
     84.8700	  523.00	  555.61	-1814.61	  411.56
     84.9700	  558.00	  551.73	-1775.73	  411.52
     85.0700	  521.00	  548.67	-1809.67	  411.49
     85.1700	  536.00	  546.36	-1792.36	  411.45
     85.2700	  508.00	  544.72	-1818.72	  411.41
     85.3700	  498.00	  543.63	-1827.63	  411.37
     85.4700	  523.00	  543.01	-1802.01	  411.33
     85.5700	  544.00	  542.77	-1780.77	  411.29
     85.6700	  546.00	  542.84	-1778.84	  411.25
     85.7700	  546.00	  543.21	-1779.21	  411.20
     85.8700	  514.00	  543.86	-1811.86	  411.15
     85.9700	  513.00	  544.83	-1813.83	  411.11
     86.0700	  558.00	  546.19	-1770.19	  411.06
     86.1700	  525.00	  548.01	-1805.01	  411.01
     86.2700	  556.00	  550.42	-1776.42	  410.95
     86.3700	  522.00	  553.55	-1813.55	  410.90
     86.4700	  537.00	  557.52	-1802.52	  410.84
     86.5700	  572.00	  562.45	-1772.45	  410.79
     86.6700	  580.00	  568.39	-1770.39	  410.73
     86.7700	  553.00	  574.99	-1803.99	  410.67
     86.8700	  538.00	  582.66	-1826.66	  410.61
     86.9700	  606.00	  590.79	-1766.79	  410.54
     87.0700	  654.00	  598.89	-1726.89	  410.48
     87.1700	  628.00	  606.37	-1760.37	  410.42
     87.2700	  618.00	  612.54	-1776.54	  410.35
     87.3700	  665.00	  616.70	-1733.70	  410.28
     87.4700	  648.00	  618.33	-1752.33	  410.21
     87.5700	  674.00	  617.22	-1725.22	  410.14
     87.6700	  577.00	  613.55	-1818.55	  410.07
     87.7700	  622.00	  607.88	-1767.88	  409.99
     87.8700	  671.00	  600.96	-1711.96	  409.92
     87.9700	  627.00	  593.59	-1748.59	  409.84
     88.0700	  581.00	  586.51	-1787.51	  409.76
     88.1700	  593.00	  580.36	-1769.36	  409.68
     88.2700	  574.00	  575.62	-1783.62	  409.60
     88.3700	  581.00	  572.64	-1773.64	  409.52
     88.4700	  562.00	  571.58	-1791.58	  409.43
     88.5700	  603.00	  572.46	-1751.46	  409.35
     88.6700	  550.00	  575.15	-1807.15	  409.26
     88.7700	  585.00	  579.36	-1776.36	  409.17
     88.8700	  572.00	  584.70	-1794.70	  409.08
     88.9700	  610.00	  590.69	-1762.69	  408.99
     89.0700	  613.00	  596.73	-1765.73	  408.90
     89.1700	  634.00	  602.20	-1750.20	  408.80
     89.2700	  606.00	  606.46	-1782.46	  408.70
     89.3700	  615.00	  608.92	-1775.92	  408.61
     89.4700	  616.00	  609.22	-1775.22	  408.51
     89.5700	  577.00	  607.26	-1812.26	  408.41
     89.6700	  581.00	  603.29	-1804.29	  408.31
     89.7700	  549.00	  597.76	-1830.76	  408.20
     89.8700	  577.00	  591.22	-1796.22	  408.10
     89.9700	  584.00	  584.22	-1782.22	  407.99
     90.0700	  525.00	  577.22	-1834.22	  407.89
     90.1700	  558.00	  570.61	-1794.61	  407.78
     90.2700	  519.00	  564.65	-1827.65	  407.67
     90.3700	  527.00	  559.52	-1814.52	  407.55
     90.4700	  519.00	  555.27	-1818.27	  407.44
     90.5700	  529.00	  551.91	-1804.91	  407.33
     90.6700	  526.00	  549.36	-1805.36	  407.21
     90.7700	  538.00	  547.54	-1791.54	  407.09
     90.8700	  561.00	  546.33	-1767.33	  406.98
     90.9700	  541.00	  545.64	-1786.64	  406.86
     91.0700	  539.00	  545.39	-1788.39	  406.73
     91.1700	  500.00	  545.53	-1827.53	  406.61
     91.2700	  511.00	  546.06	-1817.06	  406.49
     91.3700	  484.00	  547.00	-1845.00	  406.36
     91.4700	  550.00	  548.43	-1780.43	  406.23
     91.5700	  553.00	  550.46	-1779.46	  406.10
     91.6700	  517.00	  553.23	-1818.23	  405.97
     91.7700	  525.00	  556.94	-1813.94	  405.84
     91.8700	  554.00	  561.55	-1789.55	  405.71
     91.9700	  552.00	  567.70	-1797.70	  405.58
     92.0700	  520.00	  575.35	-1837.35	  405.44
     92.1700	  523.00	  584.62	-1843.62	  405.30
     92.2700	  568.00	  595.56	-1809.56	  405.17
     92.3700	  610.00	  608.14	-1780.14	  405.03
     92.4700	  627.00	  622.17	-1777.17	  404.89
     92.5700	  604.00	  637.38	-1815.38	  404.74
     92.6700	  644.00	  653.34	-1791.34	  404.60
     92.7700	  636.00	  669.50	-1815.50	  404.45
     92.8700	  739.00	  685.24	-1728.24	  404.31
     92.9700	  812.00	  699.89	-1669.89	  404.16
     93.0700	  824.00	  712.92	-1670.92	  404.01
     93.1700	  774.00	  724.04	-1732.04	  403.86
     93.2700	  798.00	  733.33	-1717.33	  403.71
     93.3700	  809.00	  741.23	-1714.23	  403.56
     93.4700	  773.00	  748.37	-1757.37	  403.40
     93.5700	  823.00	  755.44	-1714.44	  403.25
     93.6700	  840.00	  763.07	-1705.07	  403.09
     93.7700	  786.00	  771.79	-1767.79	  402.93
     93.8700	  810.00	  782.06	-1754.06	  402.77
     93.9700	  885.00	  794.28	-1691.28	  402.61
     94.0700	  853.00	  808.72	-1737.72	  402.45
     94.1700	  880.00	  825.44	-1727.44	  402.29
     94.2700	  884.00	  844.12	-1742.12	  402.12
     94.3700	  886.00	  864.01	-1760.01	  401.96
     94.4700	  856.00	  883.92	-1809.92	  401.79
     94.5700	  878.00	  902.26	-1806.26	  401.62
     94.6700	  892.00	  917.16	-1807.16	  401.45
     94.7700	  907.00	  926.65	-1801.65	  401.28
     94.8700	  962.00	  929.12	-1749.12	  401.11
     94.9700	  900.00	  923.64	-1805.64	  400.93
     95.0700	  978.00	  910.27	-1714.27	  400.76
     95.1700	  861.00	  890.06	-1811.06	  400.58
     95.2700	  845.00	  864.72	-1801.72	  400.41
     95.3700	  848.00	  836.32	-1770.32	  400.23
     95.4700	  782.00	  806.94	-1806.94	  400.05
     95.5700	  831.00	  778.58	-1729.58	  399.87
     95.6700	  703.00	  753.06	-1832.06	  399.69
     95.7700	  666.00	  732.02	-1848.02	  399.50
     95.8700	  620.00	  716.90	-1878.90	  399.32
     95.9700	  687.00	  708.99	-1803.99	  399.13
     96.0700	  679.00	  709.39	-1812.39	  398.95
     96.1700	  675.00	  719.01	-1826.01	  398.76
     96.2700	  736.00	  738.59	-1784.59	  398.57
     96.3700	  768.00	  768.62	-1782.62	  398.38
     96.4700	  753.00	  809.22	-1838.22	  398.19
     96.5700	  859.00	  860.13	-1783.13	  398.00
     96.6700	  924.00	  920.52	-1778.52	  397.81
     96.7700	  982.00	  988.94	-1788.94	  397.61
     96.8700	 1040.00	 1063.26	-1805.26	  397.42
     96.9700	 1131.00	 1140.60	-1791.60	  397.22
     97.0700	 1182.00	 1217.42	-1817.42	  397.02
     97.1700	 1254.00	 1289.58	-1817.58	  396.82
     97.2700	 1324.00	 1352.52	-1810.52	  396.62
     97.3700	 1359.00	 1401.73	-1824.73	  396.42
     97.4700	 1388.00	 1433.23	-1827.23	  396.22
     97.5700	 1406.00	 1444.40	-1820.40	  396.02
     97.6700	 1452.00	 1434.53	-1764.53	  395.82
     97.7700	 1393.00	 1404.99	-1793.99	  395.61
     97.8700	 1332.00	 1358.79	-1808.79	  395.41
     97.9700	 1322.00	 1300.02	-1760.02	  395.20
     98.0700	 1248.00	 1233.05	-1767.05	  394.99
     98.1700	 1139.00	 1162.23	-1805.23	  394.78
     98.2700	 1094.00	 1091.56	-1779.56	  394.57
     98.3700	 1034.00	 1024.53	-1772.53	  394.36
     98.4700	  989.00	  964.06	-1757.06	  394.15
     98.5700	  907.00	  912.48	-1787.48	  393.94
     98.6700	  856.00	  871.58	-1797.58	  393.72
     98.7700	  772.00	  842.72	-1852.72	  393.51
     98.8700	  808.00	  826.82	-1800.82	  393.30
     98.9700	  762.00	  824.53	-1844.53	  393.08
     99.0700	  781.00	  836.26	-1837.26	  392.86
     99.1700	  842.00	  862.21	-1802.21	  392.65
     99.2700	  879.00	  902.39	-1805.39	  392.43
     99.3700	  987.00	  956.60	-1751.60	  392.21
     99.4700	 1004.00	 1024.33	-1802.33	  391.99
     99.5700	 1034.00	 1104.74	-1852.74	  391.77
     99.6700	 1177.00	 1196.46	-1801.46	  391.54
     99.7700	 1267.00	 1297.58	-1812.58	  391.32
     99.8700	 1369.00	 1405.55	-1818.55	  391.10
     99.9700	 1530.00	 1517.04	-1769.04	  390.87
    100.0700	 1665.00	 1628.09	-1745.09	  390.65
    100.1700	 1692.00	 1734.25	-1824.25	  390.42
    100.2700	 1883.00	 1830.99	-1729.99	  390.20
    100.3700	 1979.00	 1914.19	-1717.19	  389.97
    100.4700	 2030.00	 1980.57	-1732.57	  389.74
    100.5700	 2082.00	 2027.79	-1727.79	  389.51
    100.6700	 2086.00	 2054.36	-1750.36	  389.28
    100.7700	 2142.00	 2059.45	-1699.45	  389.05
    100.8700	 2080.00	 2042.77	-1744.77	  388.82
    100.9700	 2051.00	 2004.84	-1735.84	  388.59
    101.0700	 1854.00	 1947.36	-1875.36	  388.36
    101.1700	 1887.00	 1873.44	-1768.44	  388.13
    101.2700	 1796.00	 1787.39	-1773.39	  387.90
    101.3700	 1761.00	 1694.23	-1715.23	  387.66
    101.4700	 1654.00	 1599.10	-1727.10	  387.43
    101.5700	 1475.00	 1506.62	-1813.62	  387.19
    101.6700	 1488.00	 1420.65	-1714.65	  386.96
    101.7700	 1458.00	 1344.01	-1668.01	  386.72
    101.8700	 1281.00	 1278.41	-1779.41	  386.49
    101.9700	 1218.00	 1224.51	-1788.51	  386.25
    102.0700	 1132.00	 1181.90	-1831.90	  386.01
    102.1700	 1109.00	 1149.29	-1822.29	  385.77
    102.2700	 1087.00	 1124.62	-1819.62	  385.54
    102.3700	 1143.00	 1105.33	-1744.33	  385.30
    102.4700	 1117.00	 1088.62	-1753.62	  385.06
    102.5700	 1044.00	 1071.78	-1809.78	  384.82
    102.6700	 1129.00	 1052.54	-1705.54	  384.58
    102.7700	 1050.00	 1029.41	-1761.41	  384.34
    102.8700	 1027.00	 1001.73	-1756.73	  384.10
    102.9700	  936.00	  969.66	-1815.66	  383.86
    103.0700	  984.00	  933.97	-1731.97	  383.61
    103.1700	  849.00	  895.77	-1828.77	  383.37
    103.2700	  873.00	  856.32	-1765.32	  383.13
    103.3700	  787.00	  816.87	-1811.87	  382.89
    103.4700	  755.00	  778.57	-1805.57	  382.65
    103.5700	  717.00	  742.41	-1807.41	  382.40
    103.6700	  707.00	  709.16	-1784.16	  382.16
    103.7700	  643.00	  679.35	-1818.35	  381.92
    103.8700	  633.00	  653.28	-1802.28	  381.67
    103.9700	  634.00	  631.04	-1779.04	  381.43
    104.0700	  618.00	  612.55	-1776.55	  381.19
    104.1700	  565.00	  597.57	-1814.57	  380.94
    104.2700	  564.00	  585.79	-1803.79	  380.70
    104.3700	  560.00	  576.82	-1798.82	  380.45
    104.4700	  556.00	  570.26	-1796.26	  380.21
    104.5700	  569.00	  565.74	-1778.74	  379.97
    104.6700	  542.00	  562.89	-1802.89	  379.72
    104.7700	  583.00	  561.38	-1760.38	  379.48
    104.8700	  540.00	  560.93	-1802.93	  379.23
    104.9700	  572.00	  561.31	-1771.31	  378.99
    105.0700	  566.00	  562.34	-1778.34	  378.74
    105.1700	  557.00	  563.89	-1788.89	  378.50
    105.2700	  578.00	  565.83	-1769.83	  378.25
    105.3700	  574.00	  568.09	-1776.09	  378.01
    105.4700	  551.00	  570.69	-1801.69	  377.77
    105.5700	  534.00	  573.63	-1821.63	  377.52
    105.6700	  546.00	  576.98	-1812.98	  377.28
    105.7700	  557.00	  580.83	-1805.83	  377.03
    105.8700	  601.00	  585.32	-1766.32	  376.79
    105.9700	  583.00	  590.55	-1789.55	  376.55
    106.0700	  554.00	  596.62	-1824.62	  376.30
    106.1700	  577.00	  603.60	-1808.60	  376.06
    106.2700	  617.00	  611.46	-1776.46	  375.82
    106.3700	  583.00	  620.14	-1819.14	  375.57
    106.4700	  625.00	  629.49	-1786.49	  375.33
    106.5700	  607.00	  639.30	-1814.30	  375.09
    106.6700	  620.00	  649.29	-1811.29	  374.85
    106.7700	  626.00	  659.11	-1815.11	  374.61
    106.8700	  665.00	  668.38	-1785.38	  374.37
    106.9700	  668.00	  676.70	-1790.70	  374.12
    107.0700	  627.00	  683.69	-1838.69	  373.88
    107.1700	  674.00	  689.05	-1797.05	  373.64
    107.2700	  686.00	  692.60	-1788.60	  373.41
    107.3700	  668.00	  694.33	-1808.33	  373.17
    107.4700	  674.00	  694.42	-1802.42	  372.93
    107.5700	  695.00	  693.17	-1780.17	  372.69
    107.6700	  703.00	  691.03	-1770.03	  372.45
    107.7700	  650.00	  688.44	-1820.44	  372.22
    107.8700	  683.00	  685.84	-1784.84	  371.98
    107.9700	  683.00	  683.59	-1782.59	  371.74
    108.0700	  647.00	  681.96	-1816.96	  371.51
    108.1700	  663.00	  681.12	-1800.12	  371.28
    108.2700	  671.00	  681.10	-1792.10	  371.04
    108.3700	  692.00	  681.82	-1771.82	  370.81
    108.4700	  712.00	  683.07	-1753.07	  370.58
    108.5700	  669.00	  684.56	-1797.56	  370.35
    108.6700	  746.00	  685.91	-1721.91	  370.11
    108.7700	  702.00	  686.71	-1766.71	  369.88
    108.8700	  659.00	  686.53	-1809.53	  369.66
    108.9700	  667.00	  685.03	-1800.03	  369.43
    109.0700	  688.00	  681.97	-1775.97	  369.20
    109.1700	  720.00	  677.24	-1739.24	  368.97
    109.2700	  687.00	  670.88	-1765.88	  368.75
    109.3700	  698.00	  663.07	-1747.07	  368.52
    109.4700	  673.00	  654.09	-1763.09	  368.30
    109.5700	  655.00	  644.26	-1771.26	  368.08
    109.6700	  645.00	  633.92	-1770.92	  367.86
    109.7700	  590.00	  623.42	-1815.42	  367.63
    109.8700	  640.00	  613.08	-1755.08	  367.42
    109.9700	  607.00	  603.17	-1778.17	  367.20
    110.0700	  566.00	  593.91	-1809.91	  366.98
    110.1700	  598.00	  585.49	-1769.49	  366.76
    110.2700	  566.00	  578.02	-1794.02	  366.55
    110.3700	  612.00	  571.58	-1741.58	  366.33
    110.4700	  565.00	  566.18	-1783.18	  366.12
    110.5700	  538.00	  561.79	-1805.79	  365.91
    110.6700	  506.00	  558.38	-1834.38	  365.70
    110.7700	  563.00	  555.86	-1774.86	  365.49
    110.8700	  524.00	  554.14	-1812.14	  365.28
    110.9700	  567.00	  553.14	-1768.14	  365.08
    111.0700	  592.00	  552.75	-1742.75	  364.87
    111.1700	  588.00	  552.89	-1746.89	  364.67
    111.2700	  546.00	  553.48	-1789.48	  364.47
    111.3700	  546.00	  554.46	-1790.46	  364.27
    111.4700	  537.00	  555.75	-1800.75	  364.07
    111.5700	  563.00	  557.32	-1776.32	  363.87
    111.6700	  570.00	  559.14	-1771.14	  363.68
    111.7700	  544.00	  561.17	-1799.17	  363.48
    111.8700	  566.00	  563.41	-1779.41	  363.29
    111.9700	  553.00	  565.86	-1794.86	  363.10
    112.0700	  539.00	  568.50	-1811.50	  362.91
    112.1700	  569.00	  571.36	-1784.36	  362.72
    112.2700	  585.00	  574.46	-1771.46	  362.54
    112.3700	  636.00	  577.82	-1723.82	  362.35
    112.4700	  597.00	  581.50	-1766.50	  362.17
    112.5700	  607.00	  585.52	-1760.52	  361.99
    112.6700	  604.00	  589.98	-1767.98	  361.81
    112.7700	  601.00	  594.94	-1775.94	  361.63
    112.8700	  649.00	  600.52	-1733.52	  361.46
    112.9700	  715.00	  606.88	-1673.88	  361.28
    113.0700	  691.00	  614.18	-1705.18	  361.11
    113.1700	  704.00	  622.70	-1700.70	  360.94
    113.2700	  741.00	  632.74	-1673.74	  360.78
    113.3700	  803.00	  644.71	-1623.71	  360.61
    113.4700	  808.00	  659.11	-1633.11	  360.45
    113.5700	  808.00	  676.59	-1650.59	  360.29
    113.6700	  868.00	  697.95	-1611.95	  360.13
    113.7700	  866.00	  724.14	-1640.14	  359.97
    113.8700	  923.00	  756.33	-1615.33	  359.82
    113.9700	  985.00	  795.88	-1592.88	  359.67
    114.0700	 1049.00	  844.38	-1577.38	  359.52
    114.1700	 1068.00	  903.63	-1617.63	  359.37
    114.2700	 1201.00	  975.64	-1556.64	  359.22
    114.3700	 1279.00	 1062.59	-1565.59	  359.08
    114.4700	 1342.00	 1166.77	-1606.77	  358.94
    114.5700	 1442.00	 1290.51	-1630.51	  358.80
    114.6700	 1558.00	 1436.13	-1660.13	  358.67
    114.7700	 1669.00	 1605.80	-1718.80	  358.54
    114.8700	 2044.00	 1801.35	-1539.35	  358.40
    114.9700	 2103.00	 2024.19	-1703.19	  358.28
    115.0700	 2321.00	 2275.09	-1736.09	  358.15
    115.1700	 2468.00	 2554.12	-1868.12	  358.03
    115.2700	 2890.00	 2860.47	-1752.47	  357.91
    115.3700	 3187.00	 3192.22	-1787.22	  357.79
    115.4700	 3412.00	 3546.34	-1916.34	  357.68
    115.5700	 3743.00	 3918.53	-1957.53	  357.57
    115.6700	 4192.00	 4303.38	-1893.38	  357.46
    115.7700	 4517.00	 4694.25	-1959.25	  357.35
    115.8700	 4645.00	 5083.22	-2220.22	  357.25
    115.9700	 5249.00	 5461.29	-1994.29	  357.15
    116.0700	 5478.00	 5818.53	-2122.53	  357.05
    116.1700	 5949.00	 6144.41	-1977.41	  356.96
    116.2700	 6399.00	 6428.15	-1811.15	  356.86
    116.3700	 6615.00	 6659.20	-1826.20	  356.78
    116.4700	 6886.00	 6828.18	-1724.18	  356.69
    116.5700	 6973.00	 6927.70	-1736.70	  356.61
    116.6700	 7128.00	 6953.33	-1607.33	  356.53
    116.7700	 7052.00	 6904.01	-1634.01	  356.45
    116.8700	 6668.00	 6782.33	-1896.33	  356.38
    116.9700	 6818.00	 6594.11	-1558.11	  356.31
    117.0700	 6409.00	 6347.74	-1720.74	  356.25
    117.1700	 5972.00	 6053.12	-1863.12	  356.19
    117.2700	 5581.00	 5720.88	-1921.88	  356.13
    117.3700	 5326.00	 5361.75	-1817.75	  356.07
    117.4700	 5094.00	 4985.96	-1673.96	  356.02
    117.5700	 4680.00	 4602.98	-1704.98	  355.97
    117.6700	 4372.00	 4221.12	-1631.12	  355.92
    117.7700	 3943.00	 3847.53	-1686.53	  355.88
    117.8700	 3688.00	 3488.29	-1582.29	  355.85
    117.9700	 3322.00	 3148.16	-1608.16	  355.81
    118.0700	 2978.00	 2830.74	-1634.74	  355.78
    118.1700	 2617.00	 2538.37	-1703.37	  355.75
    118.2700	 2237.00	 2272.38	-1817.38	  355.73
    118.3700	 1925.00	 2033.24	-1890.24	  355.71
    118.4700	 1742.00	 1820.62	-1860.62	  355.70
    118.5700	 1556.00	 1633.56	-1859.56	  355.68
    118.6700	 1456.00	 1470.55	-1796.55	  355.68
    118.7700	 1236.00	 1329.75	-1875.75	  355.67
    118.8700	 1117.00	 1209.14	-1874.14	  355.67
    118.9700	 1012.00	 1106.59	-1876.59	  355.68
    119.0700	  905.00	 1019.96	-1896.96	  355.69
    119.1700	  943.00	  947.15	-1786.15	  355.70
    119.2700	  807.00	  886.21	-1861.21	  355.72
    119.3700	  754.00	  835.38	-1863.38	  355.74
    119.4700	  695.00	  793.07	-1880.07	  355.76
    119.5700	  701.00	  757.89	-1838.89	  355.79
    119.6700	  721.00	  728.64	-1789.64	  355.83
    119.7700	  665.00	  704.31	-1821.31	  355.87
    119.8700	  623.00	  684.03	-1843.03	  355.91
    119.9700	  564.00	  667.11	-1885.11	  355.96
    120.0700	  642.00	  652.97	-1792.97	  356.01
    120.1700	  607.00	  641.14	-1816.14	  356.06
    120.2700	  587.00	  631.23	-1826.23	  356.12
    120.3700	  575.00	  622.96	-1829.96	  356.19
    120.4700	  577.00	  616.08	-1821.08	  356.26
    120.5700	  558.00	  610.40	-1834.40	  356.34
    120.6700	  587.00	  605.77	-1800.77	  356.42
    120.7700	  588.00	  602.08	-1796.08	  356.50
    120.8700	  543.00	  599.24	-1838.24	  356.59
    120.9700	  566.00	  597.17	-1813.17	  356.68
    121.0700	  596.00	  595.83	-1781.83	  356.78
    121.1700	  563.00	  595.16	-1814.16	  356.89
    121.2700	  538.00	  595.12	-1839.12	  357.00
    121.3700	  526.00	  595.67	-1851.67	  357.11
    121.4700	  610.00	  596.76	-1768.76	  357.23
    121.5700	  615.00	  598.35	-1765.35	  357.36
    121.6700	  546.00	  600.39	-1836.39	  357.49
    121.7700	  592.00	  602.78	-1792.78	  357.62
    121.8700	  606.00	  605.50	-1781.50	  357.76
    121.9700	  617.00	  608.45	-1773.45	  357.91
    122.0700	  603.00	  611.54	-1790.54	  358.06
    122.1700	  601.00	  614.68	-1795.68	  358.22
    122.2700	  619.00	  617.75	-1780.75	  358.38
    122.3700	  600.00	  620.66	-1802.66	  358.55
    122.4700	  615.00	  623.31	-1790.31	  358.72
    122.5700	  647.00	  625.59	-1760.59	  358.90
    122.6700	  660.00	  627.40	-1749.40	  359.08
    122.7700	  686.00	  628.66	-1724.66	  359.28
    122.8700	  646.00	  629.33	-1765.33	  359.47
    122.9700	  674.00	  629.37	-1737.37	  359.67
    123.0700	  635.00	  628.78	-1775.78	  359.88
    123.1700	  644.00	  627.58	-1765.58	  360.10
    123.2700	  647.00	  625.80	-1760.80	  360.32
    123.3700	  678.00	  623.51	-1727.51	  360.54
    123.4700	  622.00	  620.78	-1780.78	  360.77
    123.5700	  627.00	  617.68	-1772.68	  361.01
    123.6700	  650.00	  614.29	-1746.29	  361.26
    123.7700	  565.00	  610.68	-1827.68	  361.51
    123.8700	  620.00	  606.93	-1768.93	  361.76
    123.9700	  617.00	  603.10	-1768.10	  362.03
    124.0700	  626.00	  599.27	-1755.27	  362.30
    124.1700	  597.00	  595.49	-1780.49	  362.57
    124.2700	  635.00	  591.80	-1738.80	  362.86
    124.3700	  599.00	  588.24	-1771.24	  363.14
    124.4700	  615.00	  584.85	-1751.85	  363.44
    124.5700	  599.00	  581.65	-1764.65	  363.74
    124.6700	  556.00	  578.66	-1804.66	  364.05
    124.7700	  548.00	  575.90	-1809.90	  364.37
    124.8700	  597.00	  573.37	-1758.37	  364.69
    124.9700	  577.00	  483.58	-1688.58	  365.02
    125.0700	  610.00	  483.91	-1782.00	  365.35
    125.1700	  583.00	  484.26	-1782.00	  365.70
    125.2700	  551.00	  484.61	-1782.00	  366.05
    125.3700	  551.00	  484.96	-1782.00	  366.41
    125.4700	  550.00	  485.33	-1782.00	  366.77
    125.5700	  578.00	  485.70	-1782.00	  367.14
    125.6700	  580.00	  486.08	-1782.00	  367.52
    125.7700	  553.00	  486.46	-1782.00	  367.91
    125.8700	  576.00	  486.86	-1782.00	  368.30
    125.9700	  608.00	  487.26	-1782.00	  368.70
    126.0700	  560.00	  487.66	-1782.00	  369.11
    126.1700	  587.00	  488.08	-1782.00	  369.52
    126.2700	  608.00	  488.50	-1782.00	  369.95
    126.3700	  593.00	  488.93	-1782.00	  370.38
    126.4700	  627.00	  489.37	-1782.00	  370.81
    126.5700	  585.00	  489.82	-1782.00	  371.26
    126.6700	  594.00	  490.27	-1782.00	  371.71
    126.7700	  601.00	  490.73	-1782.00	  372.18
    126.8700	  567.00	  491.20	-1782.00	  372.64
    126.9700	  618.00	  491.68	-1782.00	  373.12
    127.0700	  599.00	  492.16	-1782.00	  373.61
    127.1700	  633.00	  492.66	-1782.00	  374.10
    127.2700	  660.00	  493.16	-1782.00	  374.60
    127.3700	  646.00	  493.67	-1782.00	  375.11
    127.4700	  646.00	  494.19	-1782.00	  375.63
    127.5700	  717.00	  494.71	-1782.00	  376.16
    127.6700	  670.00	  495.25	-1782.00	  376.69
    127.7700	  713.00	  495.79	-1782.00	  377.23
    127.8700	  731.00	  496.34	-1782.00	  377.78
    127.9700	  763.00	  496.90	-1782.00	  378.34
    128.0700	  731.00	  497.47	-1782.00	  378.91
    128.1700	  748.00	  498.05	-1782.00	  379.49
    128.2700	  757.00	  498.63	-1782.00	  380.07
    128.3700	  800.00	  499.23	-1782.00	  380.67
    128.4700	  821.00	  499.83	-1782.00	  381.27
    128.5700	    0.00	  500.44	-1782.00	  381.88
    128.6700	    0.00	  501.06	-1782.00	  382.50
     12.3062	        	        	        	        	       0	(  0  0  2)	  0  1
     24.8893	        	        	        	        	       0	(  0  0  4)	  0  1
     28.3307	        	        	        	        	       0	(  1  0  0)	  0  1
     29.0279	        	        	        	        	       0	(  1  0  1)	  0  1
     31.0341	        	        	        	        	       0	(  1  0  2)	  0  1
     34.1425	        	        	        	        	       0	(  1  0  3)	  0  1
     37.7884	        	        	        	        	       0	(  0  0  6)	  0  1
     38.1195	        	        	        	        	       0	(  1  0  4)	  0  1
     42.7696	        	        	        	        	       0	(  1  0  5)	  0  1
     47.9536	        	        	        	        	       0	(  1  0  6)	  0  1
     50.2672	        	        	        	        	       0	(  1  1  0)	  0  1
     51.2098	        	        	        	        	       0	(  0  0  8)	  0  1
     51.9902	        	        	        	        	       0	(  1  1  2)	  0  1
     53.5839	        	        	        	        	       0	(  1  0  7)	  0  1
     56.9381	        	        	        	        	       0	(  1  1  4)	  0  1
     58.7640	        	        	        	        	       0	(  2  0  0)	  0  1
     59.1556	        	        	        	        	       0	(  2  0  1)	  0  1
     59.6141	        	        	        	        	       0	(  1  0  8)	  0  1
     60.3210	        	        	        	        	       0	(  2  0  2)	  0  1
     62.2342	        	        	        	        	       0	(  2  0  3)	  0  1
     64.6326	        	        	        	        	       0	(  1  1  6)	  0  1
     64.8582	        	        	        	        	       0	(  2  0  4)	  0  1
     65.4383	        	        	        	        	       0	(  0  0 10)	  0  1
     66.0302	        	        	        	        	       0	(  1  0  9)	  0  1
     68.1524	        	        	        	        	       0	(  2  0  5)	  0  1
     72.0798	        	        	        	        	       0	(  2  0  6)	  0  1
     72.8460	        	        	        	        	       0	(  1  0 10)	  0  1
     74.6701	        	        	        	        	       0	(  1  1  8)	  0  1
     76.6138	        	        	        	        	       0	(  2  0  7)	  0  1
     80.1033	        	        	        	        	       0	(  1  0 11)	  0  1
     80.9178	        	        	        	        	       0	(  0  0 12)	  0  1
     81.0047	        	        	        	        	       0	(  2  1  0)	  0  1
     81.3445	        	        	        	        	       0	(  2  1  1)	  0  1
     81.7439	        	        	        	        	       0	(  2  0  8)	  0  1
     82.3624	        	        	        	        	       0	(  2  1  2)	  0  1
     84.0536	        	        	        	        	       0	(  2  1  3)	  0  1
     86.4132	        	        	        	        	       0	(  2  1  4)	  0  1
     86.9409	        	        	        	        	       0	(  1  1 10)	  0  1
     87.4817	        	        	        	        	       0	(  2  0  9)	  0  1
     87.8772	        	        	        	        	       0	(  1  0 12)	  0  1
     89.4389	        	        	        	        	       0	(  2  1  5)	  0  1
     93.1362	        	        	        	        	       0	(  2  1  6)	  0  1
     93.8688	        	        	        	        	       0	(  2  0 10)	  0  1
     94.8931	        	        	        	        	       0	(  3  0  0)	  0  1
     95.2305	        	        	        	        	       0	(  3  0  1)	  0  1
     96.2436	        	        	        	        	       0	(  3  0  2)	  0  1
     96.2898	        	        	        	        	       0	(  1  0 13)	  0  1
     97.5246	        	        	        	        	       0	(  2  1  7)	  0  1
     97.9369	        	        	        	        	       0	(  3  0  3)	  0  1
     98.4559	        	        	        	        	       0	(  0  0 14)	  0  1
    100.3198	        	        	        	        	       0	(  3  0  4)	  0  1
    100.9902	        	        	        	        	       0	(  2  0 11)	  0  1
    101.8104	        	        	        	        	       0	(  1  1 12)	  0  1
    102.6467	        	        	        	        	       0	(  2  1  8)	  0  1
    103.4112	        	        	        	        	       0	(  3  0  5)	  0  1
    105.5418	        	        	        	        	       0	(  1  0 14)	  0  1
    107.2461	        	        	        	        	       0	(  3  0  6)	  0  1
    108.5832	        	        	        	        	       0	(  2  1  9)	  0  1
    109.0009	        	        	        	        	       0	(  2  0 12)	  0  1
    111.8861	        	        	        	        	       0	(  3  0  7)	  0  1
    115.4795	        	        	        	        	       0	(  2  1 10)	  0  1
    115.9844	        	        	        	        	       0	(  1  0 15)	  0  1
    116.6174	        	        	        	        	       0	(  2  2  0)	  0  1
    117.4391	        	        	        	        	       0	(  3  0  8)	  0  1
    118.1325	        	        	        	        	       0	(  2  2  2)	  0  1
    118.1846	        	        	        	        	       0	(  2  0 13)	  0  1
    119.9427	        	        	        	        	       0	(  0  0 16)	  0  1
    120.6533	        	        	        	        	       0	(  1  1 14)	  0  1
    122.8176	        	        	        	        	       0	(  2  2  4)	  0  1
    123.6060	        	        	        	        	       0	(  2  1 11)	  0  1
    124.0985	        	        	        	        	       0	(  3  0  9)	  0  1
    124.6823	        	        	        	        	       0	(  3  1  0)	  0  1
    125.0925	        	        	        	        	       0	(  3  1  1)	  0  1
    126.3358	        	        	        	        	       0	(  3  1  2)	  0  1
    128.3272	        	        	        	        	       0	(  1  0 16)	  0  1
    128.4539	        	        	        	        	       0	(  3  1  3)	  0  1
    129.1139	        	        	        	        	       0	(  2  0 14)	  0  1
    131.2568	        	        	        	        	       0	(  2  2  6)	  0  1
    131.5295	        	        	        	        	       0	(  3  1  4)	  0  1
    132.2386	        	        	        	        	       0	(  3  0 10)	  0  1
    133.5177	        	        	        	        	       0	(  2  1 12)	  0  1
    135.7162	        	        	        	        	       0	(  3  1  5)	  0  1
    141.3111	        	        	        	        	       0	(  3  1  6)	  0  1
    142.7171	        	        	        	        	       0	(  3  0 11)	  0  1
    143.2546	        	        	        	        	       0	(  2  0 15)	  0  1
    144.4986	        	        	        	        	       0	(  1  0 17)	  0  1
    145.4898	        	        	        	        	       0	(  2  2  8)	  0  1
    146.6740	        	        	        	        	       0	(  2  1 13)	  0  1
    148.9838	        	        	        	        	       0	(  3  1  7)	  0  1
    149.5918	        	        	        	        	       0	(  1  1 16)	  0  1
    154.0017	        	        	        	        	       0	(  0  0 18)	  0  1
    158.5993	        	        	        	        	       0	(  3  0 12)	  0  1
    158.8371	        	        	        	        	       0	(  4  0  0)	  0  1
    159.7938	        	        	        	        	       0	(  4  0  1)	  0  1
    160.9785	        	        	        	        	       0	(  3  1  8)	  0  1
    162.9723	        	        	        	        	       0	(  4  0  2)	  0  1
    169.7390	        	        	        	        	       0	(  2  0 16)	  0  1
    170.3187	        	        	        	        	       0	(  4  0  3)	  0  1
    174.1947	        	        	        	        	       0	(  2  1 14)	  0  1
