MSG Master    CELL:    5.91701   5.91701  23.26052   90.0000   90.0000  120.0000   SPGR: P 63/m m c             TEMP:   1031.75
  1   1280     2.52000     0.00000    -0.12576     0.00000     0.00000    0
    99     0     2
       0.00000      10.00000
     125.00000     130.00000
 2Theta	Yobs	Ycal	Yobs-Ycal	Backg	Posr	(hkl)	K
      0.7700	    0.00	  527.95	-1795.25	  410.57
      0.8700	    0.00	  528.88	-1795.25	  411.49
      0.9700	   39.00	  529.79	-1795.25	  412.41
      1.0700	   46.00	  530.69	-1795.25	  413.31
      1.1700	   45.00	  531.58	-1795.25	  414.20
      1.2700	   42.00	  532.46	-1795.25	  415.07
      1.3700	   45.00	  533.32	-1795.25	  415.94
      1.4700	   87.00	  534.18	-1795.25	  416.79
      1.5700	  281.00	  535.02	-1795.25	  417.63
      1.6700	  460.00	  535.85	-1795.25	  418.46
      1.7700	  555.00	  536.67	-1795.25	  419.28
      1.8700	  653.00	  537.47	-1795.25	  420.09
      1.9700	  788.00	  538.27	-1795.25	  420.88
      2.0700	  770.00	  539.05	-1795.25	  421.66
      2.1700	  808.00	  539.82	-1795.25	  422.44
      2.2700	  732.00	  540.58	-1795.25	  423.20
      2.3700	  781.00	  541.33	-1795.25	  423.95
      2.4700	  708.00	  542.07	-1795.25	  424.68
      2.5700	  686.00	  542.80	-1795.25	  425.41
      2.6700	  675.00	  543.51	-1795.25	  426.13
      2.7700	  656.00	  544.22	-1795.25	  426.83
      2.8700	  665.00	  544.91	-1795.25	  427.53
      2.9700	  630.00	  545.60	-1795.25	  428.21
      3.0700	  635.00	  546.27	-1795.25	  428.88
      3.1700	  575.00	  546.93	-1795.25	  429.54
      3.2700	  616.00	  547.58	-1795.25	  430.20
      3.3700	  653.00	  548.22	-1795.25	  430.84
      3.4700	  779.00	  548.85	-1795.25	  431.47
      3.5700	  777.00	  549.48	-1795.25	  432.09
      3.6700	  850.00	  550.09	-1795.25	  432.70
      3.7700	  886.00	  550.69	-1795.25	  433.30
      3.8700	  932.00	  551.28	-1795.25	  433.89
      3.9700	  987.00	  551.86	-1795.25	  434.47
      4.0700	 1062.00	  552.43	-1795.25	  435.04
      4.1700	 1032.00	  552.98	-1795.25	  435.60
      4.2700	 1080.00	  553.54	-1795.25	  436.15
      4.3700	 1070.00	  554.08	-1795.25	  436.69
      4.4700	 1039.00	  554.61	-1795.25	  437.22
      4.5700	 1043.00	  555.13	-1795.25	  437.74
      4.6700	  995.00	  555.64	-1795.25	  438.25
      4.7700	 1020.00	  556.14	-1795.25	  438.75
      4.8700	  974.00	  556.63	-1795.25	  439.25
      4.9700	  948.00	  557.12	-1795.25	  439.73
      5.0700	  948.00	  557.59	-1795.25	  440.20
      5.1700	  931.00	  558.05	-1795.25	  440.67
      5.2700	  862.00	  558.51	-1795.25	  441.12
      5.3700	  886.00	  558.96	-1795.25	  441.57
      5.4700	  848.00	  559.39	-1795.25	  442.01
      5.5700	  852.00	  559.82	-1795.25	  442.44
      5.6700	  850.00	  560.24	-1795.25	  442.86
      5.7700	  832.00	  560.65	-1795.25	  443.27
      5.8700	  819.00	  561.06	-1795.25	  443.67
      5.9700	  813.00	  561.45	-1795.25	  444.06
      6.0700	  758.00	  561.83	-1795.25	  444.45
      6.1700	  756.00	  562.21	-1795.25	  444.82
      6.2700	  770.00	  562.58	-1795.25	  445.19
      6.3700	  775.00	  562.94	-1795.25	  445.55
      6.4700	  739.00	  563.29	-1795.25	  445.90
      6.5700	  781.00	  563.63	-1795.25	  446.24
      6.6700	  746.00	  563.96	-1795.25	  446.58
      6.7700	  708.00	  564.29	-1795.25	  446.90
      6.8700	  701.00	  564.61	-1795.25	  447.22
      6.9700	  684.00	  564.92	-1795.25	  447.53
      7.0700	  675.00	  565.22	-1795.25	  447.83
      7.1700	  714.00	  565.52	-1795.25	  448.13
      7.2700	  638.00	  565.80	-1795.25	  448.42
      7.3700	  685.00	  566.08	-1795.25	  448.69
      7.4700	  690.00	  566.35	-1795.25	  448.96
      7.5700	  630.00	  566.61	-1795.25	  449.23
      7.6700	  666.00	  566.87	-1795.25	  449.48
      7.7700	  646.00	  567.12	-1795.25	  449.73
      7.8700	  704.00	  567.36	-1795.25	  449.97
      7.9700	  650.00	  567.59	-1795.25	  450.21
      8.0700	  610.00	  567.82	-1795.25	  450.43
      8.1700	  641.00	  568.04	-1795.25	  450.65
      8.2700	  635.00	  568.25	-1795.25	  450.86
      8.3700	  650.00	  568.45	-1795.25	  451.06
      8.4700	  645.00	  568.65	-1795.25	  451.26
      8.5700	  651.00	  568.84	-1795.25	  451.45
      8.6700	  590.00	  569.02	-1795.25	  451.63
      8.7700	  626.00	  569.20	-1795.25	  451.81
      8.8700	  596.00	  569.37	-1795.25	  451.98
      8.9700	  602.00	  569.53	-1795.25	  452.14
      9.0700	  603.00	  569.68	-1795.25	  452.30
      9.1700	  626.00	  569.83	-1795.25	  452.45
      9.2700	  564.00	  569.97	-1795.25	  452.59
      9.3700	  613.00	  570.11	-1795.25	  452.72
      9.4700	  636.00	  570.24	-1795.25	  452.85
      9.5700	  572.00	  570.36	-1795.25	  452.98
      9.6700	  563.00	  570.48	-1795.25	  453.09
      9.7700	  594.00	  570.59	-1795.25	  453.20
      9.8700	  570.00	  570.69	-1795.25	  453.30
      9.9700	  632.00	  570.79	-1795.25	  453.40
     10.0700	  610.00	  571.73	-1756.98	  453.49
     10.1700	  599.00	  571.90	-1768.15	  453.58
     10.2700	  623.00	  572.08	-1744.33	  453.66
     10.3700	  594.00	  572.30	-1773.55	  453.73
     10.4700	  593.00	  572.56	-1774.81	  453.80
     10.5700	  566.00	  572.93	-1802.18	  453.86
     10.6700	  567.00	  573.51	-1801.76	  453.91
     10.7700	  584.00	  574.42	-1785.67	  453.96
     10.8700	  583.00	  575.73	-1787.98	  454.00
     10.9700	  588.00	  577.44	-1784.69	  454.04
     11.0700	  582.00	  579.52	-1792.77	  454.07
     11.1700	  600.00	  581.96	-1777.21	  454.10
     11.2700	  586.00	  584.78	-1794.03	  454.12
     11.3700	  614.00	  588.08	-1769.33	  454.14
     11.4700	  557.00	  591.97	-1830.22	  454.15
     11.5700	  593.00	  596.68	-1798.93	  454.15
     11.6700	  623.00	  602.55	-1774.80	  454.15
     11.7700	  591.00	  610.20	-1814.45	  454.14
     11.8700	  622.00	  620.60	-1793.85	  454.13
     11.9700	  647.00	  634.54	-1782.79	  454.12
     12.0700	  700.00	  650.65	-1745.90	  454.09
     12.1700	  686.00	  662.73	-1771.98	  454.07
     12.2700	  642.00	  660.50	-1813.75	  454.04
     12.3700	  621.00	  639.80	-1814.05	  454.00
     12.4700	  601.00	  613.24	-1807.49	  453.96
     12.5700	  630.00	  593.42	-1758.67	  453.91
     12.6700	  574.00	  582.58	-1803.83	  453.86
     12.7700	  575.00	  577.72	-1797.97	  453.80
     12.8700	  577.00	  575.58	-1793.83	  453.74
     12.9700	  548.00	  574.46	-1821.71	  453.68
     13.0700	  584.00	  573.72	-1784.97	  453.61
     13.1700	  581.00	  573.18	-1787.43	  453.53
     13.2700	  607.00	  572.75	-1761.00	  453.45
     13.3700	  533.00	  572.40	-1834.65	  453.37
     13.4700	  512.00	  572.10	-1855.35	  453.28
     13.5700	  538.00	  571.84	-1829.09	  453.19
     13.6700	  581.00	  571.61	-1785.86	  453.09
     13.7700	  562.00	  571.39	-1804.64	  452.99
     13.8700	  588.00	  571.20	-1778.45	  452.88
     13.9700	  522.00	  571.01	-1844.26	  452.77
     14.0700	  571.00	  570.83	-1795.08	  452.66
     14.1700	  550.00	  570.65	-1815.90	  452.54
     14.2700	  577.00	  570.48	-1788.73	  452.42
     14.3700	  561.00	  570.31	-1804.56	  452.29
     14.4700	  512.00	  570.15	-1853.40	  452.16
     14.5700	  533.00	  569.98	-1832.23	  452.03
     14.6700	  592.00	  569.81	-1773.06	  451.89
     14.7700	  543.00	  569.65	-1821.90	  451.75
     14.8700	  532.00	  569.48	-1832.73	  451.60
     14.9700	  527.00	  569.31	-1837.56	  451.46
     15.0700	  561.00	  569.14	-1803.39	  451.30
     15.1700	  603.00	  568.96	-1761.21	  451.15
     15.2700	  574.00	  568.79	-1790.04	  450.99
     15.3700	  601.00	  568.61	-1762.86	  450.82
     15.4700	  607.00	  568.43	-1756.68	  450.65
     15.5700	  564.00	  568.25	-1799.50	  450.48
     15.6700	  505.00	  568.06	-1858.31	  450.31
     15.7700	  562.00	  567.88	-1801.13	  450.13
     15.8700	  537.00	  567.69	-1825.94	  449.95
     15.9700	  507.00	  567.49	-1855.74	  449.77
     16.0700	  550.00	  567.30	-1812.55	  449.58
     16.1700	  572.00	  567.13	-1790.38	  449.39
     16.2700	  593.00	  566.93	-1769.18	  449.19
     16.3700	  577.00	  566.72	-1784.97	  449.00
     16.4700	  589.00	  566.52	-1772.77	  448.80
     16.5700	  538.00	  566.31	-1823.56	  448.59
     16.6700	  569.00	  566.10	-1792.35	  448.39
     16.7700	  526.00	  565.89	-1835.14	  448.18
     16.8700	  557.00	  565.67	-1803.92	  447.97
     16.9700	  539.00	  565.45	-1821.70	  447.75
     17.0700	  517.00	  565.23	-1843.48	  447.53
     17.1700	  562.00	  565.01	-1798.26	  447.31
     17.2700	  540.00	  564.78	-1820.03	  447.09
     17.3700	  547.00	  564.56	-1812.81	  446.86
     17.4700	  499.00	  564.32	-1860.57	  446.63
     17.5700	  552.00	  564.09	-1807.34	  446.40
     17.6700	  576.00	  563.86	-1783.11	  446.17
     17.7700	  602.00	  563.62	-1756.87	  445.93
     17.8700	  504.00	  563.38	-1854.63	  445.69
     17.9700	  592.00	  563.24	-1766.49	  445.45
     18.0700	  575.00	  562.99	-1783.24	  445.20
     18.1700	  577.00	  562.75	-1781.00	  444.96
     18.2700	  520.00	  562.50	-1837.75	  444.71
     18.3700	  541.00	  562.25	-1816.50	  444.46
     18.4700	  587.00	  562.00	-1770.25	  444.20
     18.5700	  556.00	  561.75	-1801.00	  443.95
     18.6700	  547.00	  561.49	-1809.74	  443.69
     18.7700	  555.00	  561.23	-1801.48	  443.43
     18.8700	  559.00	  561.06	-1797.31	  443.17
     18.9700	  561.00	  560.80	-1795.05	  442.90
     19.0700	  578.00	  560.53	-1777.78	  442.63
     19.1700	  585.00	  560.27	-1770.52	  442.36
     19.2700	  597.00	  560.01	-1758.26	  442.09
     19.3700	  592.00	  559.74	-1762.99	  441.82
     19.4700	  545.00	  559.47	-1809.72	  441.55
     19.5700	  603.00	  559.20	-1751.45	  441.27
     19.6700	  566.00	  558.93	-1788.18	  440.99
     19.7700	  533.00	  558.66	-1820.91	  440.71
     19.8700	  533.00	  558.38	-1820.63	  440.43
     19.9700	  573.00	  558.11	-1780.36	  440.14
     20.0700	  566.00	  557.83	-1787.08	  439.86
     20.1700	  534.00	  557.55	-1818.80	  439.57
     20.2700	  544.00	  557.27	-1808.52	  439.28
     20.3700	  590.00	  556.99	-1762.24	  438.99
     20.4700	  582.00	  556.71	-1769.96	  438.70
     20.5700	  544.00	  556.40	-1807.65	  438.40
     20.6700	  574.00	  556.11	-1777.36	  438.11
     20.7700	  529.00	  555.83	-1822.08	  437.81
     20.8700	  541.00	  555.58	-1809.83	  437.51
     20.9700	  557.00	  555.30	-1793.55	  437.21
     21.0700	  571.00	  555.01	-1779.26	  436.91
     21.1700	  595.00	  554.73	-1754.98	  436.60
     21.2700	  528.00	  554.44	-1821.69	  436.30
     21.3700	  560.00	  554.16	-1789.41	  435.99
     21.4700	  561.00	  553.87	-1788.12	  435.69
     21.5700	  578.00	  553.59	-1770.84	  435.38
     21.6700	  581.00	  553.30	-1767.55	  435.07
     21.7700	  579.00	  553.02	-1769.27	  434.76
     21.8700	  578.00	  552.74	-1769.99	  434.45
     21.9700	  543.00	  552.45	-1804.70	  434.13
     22.0700	  552.00	  552.17	-1795.42	  433.82
     22.1700	  579.00	  551.89	-1768.14	  433.51
     22.2700	  563.00	  551.62	-1783.87	  433.19
     22.3700	  569.00	  551.34	-1777.59	  432.87
     22.4700	  607.00	  551.07	-1739.32	  432.55
     22.5700	  557.00	  550.80	-1789.05	  432.23
     22.6700	  581.00	  550.54	-1764.79	  431.91
     22.7700	  554.00	  550.29	-1791.54	  431.59
     22.8700	  555.00	  550.04	-1790.29	  431.27
     22.9700	  498.00	  549.80	-1847.05	  430.95
     23.0700	  583.00	  549.57	-1761.82	  430.63
     23.1700	  484.00	  549.35	-1860.60	  430.30
     23.2700	  594.00	  549.15	-1750.40	  429.98
     23.3700	  537.00	  548.98	-1807.23	  429.65
     23.4700	  550.00	  548.84	-1794.09	  429.32
     23.5700	  567.00	  548.74	-1776.99	  429.00
     23.6700	  538.00	  548.70	-1805.95	  428.67
     23.7700	  574.00	  548.88	-1770.13	  428.34
     23.8700	  544.00	  549.13	-1800.38	  428.01
     23.9700	  512.00	  549.74	-1832.99	  427.68
     24.0700	  587.00	  551.11	-1759.36	  427.35
     24.1700	  568.00	  553.84	-1781.09	  427.02
     24.2700	  593.00	  558.73	-1760.98	  426.69
     24.3700	  572.00	  566.67	-1789.92	  426.36
     24.4700	  572.00	  578.66	-1801.91	  426.03
     24.5700	  618.00	  595.17	-1772.42	  425.70
     24.6700	  650.00	  614.05	-1759.30	  425.36
     24.7700	  580.00	  628.41	-1843.66	  425.03
     24.8700	  634.00	  628.02	-1789.27	  424.70
     24.9700	  643.00	  609.58	-1761.83	  424.36
     25.0700	  593.00	  584.95	-1787.20	  424.03
     25.1700	  579.00	  565.66	-1781.91	  423.70
     25.2700	  549.00	  554.47	-1800.72	  423.36
     25.3700	  558.00	  549.14	-1786.39	  423.03
     25.4700	  564.00	  546.74	-1777.99	  422.69
     25.5700	  552.00	  545.49	-1788.74	  422.36
     25.6700	  529.00	  544.70	-1810.95	  422.02
     25.7700	  553.00	  544.12	-1786.37	  421.69
     25.8700	  545.00	  543.68	-1793.93	  421.35
     25.9700	  617.00	  543.35	-1721.60	  421.02
     26.0700	  574.00	  543.10	-1764.35	  420.68
     26.1700	  536.00	  542.93	-1802.18	  420.35
     26.2700	  567.00	  542.83	-1771.08	  420.01
     26.3700	  553.00	  542.81	-1785.06	  419.68
     26.4700	  530.00	  542.87	-1808.12	  419.34
     26.5700	  587.00	  543.02	-1751.27	  419.01
     26.6700	  556.00	  543.29	-1782.54	  418.67
     26.7700	  564.00	  543.69	-1774.94	  418.34
     26.8700	  576.00	  544.26	-1763.51	  418.00
     26.9700	  553.00	  545.05	-1787.30	  417.67
     27.0700	  553.00	  546.14	-1788.39	  417.33
     27.1700	  537.00	  547.64	-1805.89	  417.00
     27.2700	  575.00	  549.81	-1770.06	  416.66
     27.3700	  535.00	  553.11	-1813.36	  416.33
     27.4700	  595.00	  558.45	-1758.70	  416.00
     27.5700	  548.00	  567.50	-1814.75	  415.66
     27.6700	  578.00	  582.94	-1800.19	  415.33
     27.7700	  580.00	  608.29	-1823.54	  415.00
     27.8700	  595.00	  646.77	-1847.02	  414.67
     27.9700	  680.00	  698.94	-1814.19	  414.33
     28.0700	  783.00	  759.47	-1771.72	  414.00
     28.1700	  882.00	  814.22	-1727.47	  413.67
     28.2700	  969.00	  840.83	-1667.08	  413.34
     28.3700	  929.00	  823.46	-1689.71	  413.01
     28.4700	  825.00	  779.79	-1750.04	  412.68
     28.5700	  680.00	  745.87	-1861.12	  412.35
     28.6700	  695.00	  740.48	-1840.73	  412.02
     28.7700	  722.00	  760.98	-1834.23	  411.70
     28.8700	  813.00	  789.11	-1771.36	  411.37
     28.9700	  828.00	  797.44	-1764.69	  411.04
     29.0700	  790.00	  765.73	-1770.98	  410.71
     29.1700	  681.00	  705.47	-1819.72	  410.39
     29.2700	  639.00	  645.34	-1801.59	  410.06
     29.3700	  633.00	  600.78	-1763.03	  409.74
     29.4700	  649.00	  573.32	-1719.57	  409.41
     29.5700	  569.00	  558.29	-1784.54	  409.09
     29.6700	  620.00	  550.36	-1725.61	  408.77
     29.7700	  599.00	  545.91	-1742.16	  408.45
     29.8700	  539.00	  543.16	-1799.41	  408.13
     29.9700	  604.00	  541.42	-1732.67	  407.81
     30.0700	  558.00	  540.49	-1777.74	  407.49
     30.1700	  556.00	  540.52	-1779.77	  407.17
     30.2700	  561.00	  542.00	-1776.25	  406.85
     30.3700	  582.00	  545.96	-1759.21	  406.53
     30.4700	  522.00	  554.01	-1827.26	  406.22
     30.5700	  584.00	  567.93	-1779.18	  405.90
     30.6700	  557.00	  588.49	-1826.74	  405.59
     30.7700	  594.00	  613.54	-1814.79	  405.27
     30.8700	  615.00	  636.53	-1816.78	  404.96
     30.9700	  634.00	  646.79	-1808.04	  404.65
     31.0700	  607.00	  635.67	-1823.92	  404.34
     31.1700	  590.00	  608.35	-1813.60	  404.03
     31.2700	  548.00	  579.28	-1826.53	  403.72
     31.3700	  499.00	  557.10	-1853.35	  403.41
     31.4700	  544.00	  543.30	-1794.55	  403.10
     31.5700	  586.00	  535.81	-1745.06	  402.79
     31.6700	  559.00	  531.95	-1768.20	  402.49
     31.7700	  550.00	  529.84	-1775.09	  402.18
     31.8700	  559.00	  528.51	-1764.76	  401.88
     31.9700	  535.00	  527.60	-1787.85	  401.58
     32.0700	  518.00	  526.93	-1804.18	  401.28
     32.1700	  552.00	  526.46	-1769.71	  400.98
     32.2700	  535.00	  526.16	-1786.41	  400.68
     32.3700	  552.00	  526.01	-1769.26	  400.38
     32.4700	  563.00	  526.01	-1758.26	  400.08
     32.5700	  550.00	  526.18	-1771.43	  399.79
     32.6700	  569.00	  526.54	-1752.79	  399.49
     32.7700	  498.00	  527.14	-1824.39	  399.20
     32.8700	  563.00	  528.04	-1760.29	  398.91
     32.9700	  553.00	  529.33	-1771.58	  398.62
     33.0700	  548.00	  531.22	-1778.47	  398.33
     33.1700	  564.00	  534.10	-1765.35	  398.04
     33.2700	  522.00	  538.90	-1812.15	  397.75
     33.3700	  589.00	  547.62	-1753.87	  397.47
     33.4700	  565.00	  564.25	-1794.50	  397.18
     33.5700	  624.00	  595.30	-1766.55	  396.90
     33.6700	  663.00	  648.89	-1781.14	  396.62
     33.7700	  709.00	  729.80	-1816.05	  396.33
     33.8700	  810.00	  831.41	-1816.66	  396.06
     33.9700	 1026.00	  929.08	-1698.33	  395.78
     34.0700	 1121.00	  981.77	-1656.02	  395.50
     34.1700	 1057.00	  953.22	-1691.47	  395.22
     34.2700	  899.00	  855.68	-1751.93	  394.95
     34.3700	  708.00	  742.09	-1829.34	  394.68
     34.4700	  643.00	  650.41	-1802.66	  394.40
     34.5700	  568.00	  591.00	-1818.25	  394.13
     34.6700	  540.00	  558.16	-1813.41	  393.86
     34.7700	  582.00	  541.56	-1754.81	  393.60
     34.8700	  519.00	  533.01	-1809.26	  393.33
     34.9700	  523.00	  528.03	-1800.28	  393.07
     35.0700	  528.00	  524.65	-1791.90	  392.80
     35.1700	  525.00	  522.12	-1792.37	  392.54
     35.2700	  502.00	  520.15	-1813.40	  392.28
     35.3700	  529.00	  518.52	-1784.77	  392.02
     35.4700	  500.00	  517.18	-1812.43	  391.76
     35.5700	  474.00	  516.04	-1837.29	  391.51
     35.6700	  501.00	  515.06	-1809.31	  391.25
     35.7700	  509.00	  514.20	-1800.45	  391.00
     35.8700	  534.00	  513.45	-1774.70	  390.75
     35.9700	  508.00	  513.27	-1800.52	  390.50
     36.0700	  503.00	  512.67	-1804.92	  390.25
     36.1700	  536.00	  512.13	-1771.38	  390.00
     36.2700	  496.00	  511.64	-1810.89	  389.75
     36.3700	  535.00	  511.20	-1771.45	  389.51
     36.4700	  537.00	  510.79	-1769.04	  389.27
     36.5700	  547.00	  510.43	-1758.68	  389.03
     36.6700	  533.00	  510.10	-1772.35	  388.79
     36.7700	  531.00	  509.82	-1774.07	  388.55
     36.8700	  495.00	  509.61	-1809.86	  388.31
     36.9700	  496.00	  509.51	-1808.76	  388.08
     37.0700	  477.00	  509.64	-1827.89	  387.84
     37.1700	  495.00	  510.21	-1810.46	  387.61
     37.2700	  506.00	  511.59	-1800.84	  387.38
     37.3700	  508.00	  514.19	-1801.44	  387.15
     37.4700	  542.00	  518.18	-1771.43	  386.93
     37.5700	  534.00	  523.10	-1784.35	  386.70
     37.6700	  514.00	  527.65	-1808.90	  386.48
     37.7700	  529.00	  530.10	-1796.35	  386.25
     37.8700	  504.00	  529.52	-1820.77	  386.03
     37.9700	  525.00	  526.80	-1797.05	  385.81
     38.0700	  531.00	  523.07	-1787.32	  385.60
     38.1700	  501.00	  518.78	-1813.03	  385.38
     38.2700	  502.00	  514.48	-1807.73	  385.17
     38.3700	  502.00	  510.87	-1804.12	  384.96
     38.4700	  517.00	  508.24	-1786.49	  384.75
     38.5700	  508.00	  506.51	-1793.76	  384.54
     38.6700	  478.00	  505.45	-1822.70	  384.33
     38.7700	  492.00	  504.69	-1807.94	  384.12
     38.8700	  521.00	  504.23	-1778.48	  383.92
     38.9700	  502.00	  503.88	-1797.14	  383.72
     39.0700	  515.00	  503.59	-1783.84	  383.52
     39.1700	  481.00	  503.32	-1817.57	  383.32
     39.2700	  468.00	  503.00	-1830.25	  383.12
     39.3700	  518.00	  502.77	-1780.02	  382.93
     39.4700	  436.00	  502.56	-1861.81	  382.73
     39.5700	  518.00	  502.49	-1779.74	  382.54
     39.6700	  470.00	  502.31	-1827.56	  382.35
     39.7700	  472.00	  502.13	-1825.38	  382.16
     39.8700	  525.00	  501.97	-1772.22	  381.97
     39.9700	  491.00	  501.82	-1806.07	  381.79
     40.0700	  488.00	  501.68	-1808.93	  381.61
     40.1700	  514.00	  501.54	-1782.79	  381.42
     40.2700	  523.00	  501.42	-1773.67	  381.24
     40.3700	  466.00	  501.32	-1830.57	  381.07
     40.4700	  488.00	  501.22	-1808.47	  380.89
     40.5700	  512.00	  501.14	-1784.39	  380.72
     40.6700	  527.00	  501.08	-1769.33	  380.54
     40.7700	  465.00	  501.03	-1831.28	  380.37
     40.8700	  460.00	  501.01	-1836.26	  380.20
     40.9700	  521.00	  501.02	-1775.27	  380.03
     41.0700	  513.00	  501.05	-1783.30	  379.87
     41.1700	  456.00	  501.13	-1840.38	  379.70
     41.2700	  471.00	  501.22	-1825.47	  379.54
     41.3700	  516.00	  501.40	-1780.65	  379.38
     41.4700	  460.00	  501.67	-1836.92	  379.22
     41.5700	  491.00	  502.48	-1806.73	  379.07
     41.6700	  509.00	  503.02	-1789.27	  378.91
     41.7700	  471.00	  503.84	-1828.09	  378.76
     41.8700	  490.00	  505.19	-1810.44	  378.61
     41.9700	  470.00	  507.68	-1832.93	  378.46
     42.0700	  531.00	  512.54	-1776.79	  378.31
     42.1700	  533.00	  521.79	-1784.04	  378.16
     42.2700	  523.00	  538.11	-1810.36	  378.02
     42.3700	  548.00	  563.26	-1810.51	  377.88
     42.4700	  539.00	  596.26	-1852.51	  377.73
     42.5700	  604.00	  630.94	-1822.19	  377.60
     42.6700	  568.00	  655.88	-1883.13	  377.46
     42.7700	  590.00	  659.01	-1864.26	  377.32
     42.8700	  533.00	  637.51	-1899.76	  377.19
     42.9700	  554.00	  602.55	-1843.80	  377.06
     43.0700	  559.00	  567.63	-1803.88	  376.93
     43.1700	  449.00	  540.35	-1886.60	  376.80
     43.2700	  513.00	  522.47	-1804.72	  376.67
     43.3700	  514.00	  512.27	-1793.52	  376.55
     43.4700	  483.00	  506.94	-1819.19	  376.42
     43.5700	  545.00	  504.20	-1754.45	  376.30
     43.6700	  501.00	  502.67	-1796.92	  376.18
     43.7700	  481.00	  501.88	-1816.13	  376.07
     43.8700	  494.00	  501.18	-1802.44	  375.95
     43.9700	  533.00	  500.66	-1762.91	  375.84
     44.0700	  497.00	  500.28	-1798.53	  375.73
     44.1700	  455.00	  499.95	-1840.20	  375.61
     44.2700	  488.00	  499.69	-1806.94	  375.51
     44.3700	  493.00	  499.49	-1801.74	  375.40
     44.4700	  507.00	  499.33	-1787.58	  375.29
     44.5700	  531.00	  499.21	-1763.46	  375.19
     44.6700	  518.00	  499.00	-1776.25	  375.09
     44.7700	  500.00	  498.94	-1794.19	  374.99
     44.8700	  522.00	  498.91	-1772.16	  374.89
     44.9700	  545.00	  498.91	-1749.16	  374.80
     45.0700	  516.00	  498.92	-1778.17	  374.70
     45.1700	  543.00	  498.97	-1751.22	  374.61
     45.2700	  512.00	  499.22	-1782.47	  374.52
     45.3700	  475.00	  499.31	-1819.56	  374.43
     45.4700	  483.00	  499.42	-1811.67	  374.34
     45.5700	  494.00	  499.56	-1800.81	  374.26
     45.6700	  507.00	  499.72	-1787.97	  374.17
     45.7700	  476.00	  499.91	-1819.16	  374.09
     45.8700	  520.00	  500.12	-1775.37	  374.01
     45.9700	  507.00	  500.37	-1788.62	  373.93
     46.0700	  460.00	  500.65	-1835.90	  373.86
     46.1700	  496.00	  500.97	-1800.22	  373.78
     46.2700	  441.00	  501.34	-1855.59	  373.71
     46.3700	  516.00	  501.76	-1781.01	  373.64
     46.4700	  488.00	  502.23	-1809.48	  373.57
     46.5700	  497.00	  502.78	-1801.03	  373.50
     46.6700	  538.00	  503.41	-1760.66	  373.44
     46.7700	  541.00	  504.14	-1758.39	  373.37
     46.8700	  488.00	  505.04	-1812.29	  373.31
     46.9700	  514.00	  506.20	-1787.45	  373.25
     47.0700	  572.00	  507.86	-1731.11	  373.19
     47.1700	  509.00	  510.51	-1796.76	  373.13
     47.2700	  501.00	  515.01	-1809.26	  373.08
     47.3700	  506.00	  522.51	-1811.76	  373.02
     47.4700	  545.00	  534.33	-1784.58	  372.97
     47.5700	  559.00	  551.00	-1787.25	  372.92
     47.6700	  592.00	  571.35	-1774.60	  372.87
     47.7700	  585.00	  591.66	-1801.91	  372.83
     47.8700	  564.00	  605.85	-1837.10	  372.78
     47.9700	  561.00	  608.26	-1842.51	  372.74
     48.0700	  620.00	  598.27	-1773.52	  372.69
     48.1700	  582.00	  581.32	-1794.57	  372.65
     48.2700	  545.00	  564.00	-1814.25	  372.62
     48.3700	  549.00	  550.45	-1796.70	  372.58
     48.4700	  536.00	  542.20	-1801.45	  372.54
     48.5700	  515.00	  538.88	-1819.13	  372.51
     48.6700	  524.00	  539.37	-1810.62	  372.48
     48.7700	  549.00	  542.56	-1788.81	  372.45
     48.8700	  565.00	  547.84	-1778.09	  372.42
     48.9700	  552.00	  555.12	-1798.37	  372.39
     49.0700	  577.00	  564.96	-1783.21	  372.37
     49.1700	  584.00	  578.83	-1790.08	  372.35
     49.2700	  638.00	  599.87	-1757.12	  372.32
     49.3700	  641.00	  634.17	-1788.42	  372.30
     49.4700	  724.00	  692.22	-1763.47	  372.29
     49.5700	  762.00	  789.79	-1823.04	  372.27
     49.6700	  900.00	  944.81	-1840.06	  372.25
     49.7700	 1130.00	 1172.94	-1838.19	  372.24
     49.8700	 1348.00	 1476.24	-1923.49	  372.23
     49.9700	 1809.00	 1831.43	-1817.68	  372.22
     50.0700	 2151.00	 2179.50	-1823.75	  372.21
     50.1700	 2489.00	 2426.35	-1732.60	  372.20
     50.2700	 2547.00	 2476.02	-1724.27	  372.20
     50.3700	 2373.00	 2303.49	-1725.74	  372.19
     50.4700	 2003.00	 1982.99	-1775.24	  372.19
     50.5700	 1571.00	 1621.16	-1845.41	  372.19
     50.6700	 1123.00	 1294.73	-1966.98	  372.19
     50.7700	  840.00	 1040.78	-1996.03	  372.19
     50.8700	  722.00	  865.69	-1938.94	  372.20
     50.9700	  644.00	  756.76	-1908.01	  372.20
     51.0700	  618.00	  693.48	-1870.73	  372.21
     51.1700	  623.00	  655.92	-1828.17	  372.22
     51.2700	  594.00	  629.79	-1831.04	  372.23
     51.3700	  611.00	  608.14	-1792.39	  372.24
     51.4700	  585.00	  589.34	-1799.59	  372.25
     51.5700	  577.00	  573.68	-1791.93	  372.27
     51.6700	  542.00	  561.55	-1814.80	  372.29
     51.7700	  533.00	  552.79	-1815.04	  372.30
     51.8700	  569.00	  546.79	-1773.04	  372.32
     51.9700	  534.00	  542.74	-1803.99	  372.34
     52.0700	  553.00	  540.00	-1782.25	  372.37
     52.1700	  536.00	  538.22	-1797.47	  372.39
     52.2700	  564.00	  537.53	-1768.78	  372.41
     52.3700	  525.00	  537.59	-1807.84	  372.44
     52.4700	  547.00	  538.94	-1787.19	  372.47
     52.5700	  561.00	  542.42	-1776.67	  372.50
     52.6700	  523.00	  549.77	-1822.02	  372.53
     52.7700	  589.00	  564.40	-1770.65	  372.56
     52.8700	  607.00	  591.81	-1780.06	  372.60
     52.9700	  714.00	  639.38	-1720.63	  372.63
     53.0700	  771.00	  714.24	-1738.49	  372.67
     53.1700	  896.00	  819.25	-1718.50	  372.71
     53.2700	 1045.00	  947.94	-1698.19	  372.75
     53.3700	 1071.00	 1080.70	-1804.95	  372.79
     53.4700	 1170.00	 1184.85	-1810.10	  372.83
     53.5700	 1228.00	 1223.96	-1791.21	  372.87
     53.6700	 1079.00	 1180.79	-1897.04	  372.92
     53.7700	 1013.00	 1073.52	-1855.77	  372.96
     53.8700	  848.00	  939.70	-1886.95	  373.01
     53.9700	  756.00	  811.86	-1851.11	  373.06
     54.0700	  674.00	  708.78	-1830.03	  373.11
     54.1700	  643.00	  636.13	-1788.38	  373.16
     54.2700	  604.00	  590.54	-1781.79	  373.22
     54.3700	  600.00	  564.63	-1759.88	  373.27
     54.4700	  557.00	  550.98	-1789.23	  373.33
     54.5700	  607.00	  544.21	-1732.46	  373.38
     54.6700	  514.00	  541.03	-1822.28	  373.44
     54.7700	  568.00	  539.74	-1766.99	  373.50
     54.8700	  560.00	  539.60	-1774.85	  373.56
     54.9700	  565.00	  540.30	-1770.55	  373.62
     55.0700	  550.00	  541.73	-1786.98	  373.69
     55.1700	  545.00	  543.89	-1794.14	  373.75
     55.2700	  552.00	  546.86	-1790.11	  373.82
     55.3700	  569.00	  550.69	-1776.94	  373.89
     55.4700	  548.00	  555.60	-1802.85	  373.95
     55.5700	  570.00	  561.91	-1787.16	  374.02
     55.6700	  626.00	  570.30	-1739.55	  374.10
     55.7700	  547.00	  582.13	-1830.38	  374.17
     55.8700	  602.00	  600.19	-1793.44	  374.24
     55.9700	  651.00	  629.81	-1774.06	  374.31
     56.0700	  625.00	  680.23	-1850.48	  374.39
     56.1700	  711.00	  765.35	-1849.60	  374.47
     56.2700	  811.00	  902.79	-1887.04	  374.55
     56.3700	  994.00	 1109.50	-1910.75	  374.62
     56.4700	 1349.00	 1393.96	-1840.21	  374.70
     56.5700	 1673.00	 1746.30	-1868.55	  374.79
     56.6700	 1991.00	 2129.56	-1933.81	  374.87
     56.7700	 2328.00	 2475.75	-1943.00	  374.95
     56.8700	 2657.00	 2693.66	-1831.91	  375.04
     56.9700	 2672.00	 2706.71	-1829.96	  375.12
     57.0700	 2439.00	 2509.30	-1865.55	  375.21
     57.1700	 2253.00	 2173.20	-1715.45	  375.30
     57.2700	 1799.00	 1791.77	-1788.02	  375.39
     57.3700	 1391.00	 1436.76	-1841.01	  375.48
     57.4700	 1125.00	 1148.14	-1818.39	  375.57
     57.5700	  889.00	  938.25	-1844.50	  375.66
     57.6700	  778.00	  800.40	-1817.65	  375.75
     57.7700	  760.00	  718.67	-1753.92	  375.85
     57.8700	  713.00	  676.47	-1758.72	  375.94
     57.9700	  672.00	  661.28	-1784.53	  376.04
     58.0700	  692.00	  665.94	-1769.19	  376.13
     58.1700	  720.00	  687.73	-1762.98	  376.23
     58.2700	  775.00	  726.47	-1746.72	  376.33
     58.3700	  790.00	  782.56	-1787.81	  376.43
     58.4700	  912.00	  855.20	-1738.45	  376.53
     58.5700	 1143.00	  940.71	-1592.96	  376.64
     58.6700	 1179.00	 1031.44	-1647.69	  376.74
     58.7700	 1376.00	 1117.32	-1536.57	  376.84
     58.8700	 1546.00	 1190.25	-1439.50	  376.95
     58.9700	 1636.00	 1245.79	-1405.04	  377.05
     59.0700	 1663.00	 1279.12	-1411.37	  377.16
     59.1700	 1592.00	 1284.63	-1487.88	  377.27
     59.2700	 1547.00	 1263.58	-1511.83	  377.37
     59.3700	 1401.00	 1227.44	-1621.69	  377.48
     59.4700	 1293.00	 1190.50	-1692.75	  377.59
     59.5700	 1184.00	 1162.82	-1774.07	  377.70
     59.6700	 1158.00	 1151.35	-1788.60	  377.82
     59.7700	 1142.00	 1163.82	-1817.07	  377.93
     59.8700	 1231.00	 1206.88	-1771.13	  378.04
     59.9700	 1294.00	 1279.78	-1781.03	  378.16
     60.0700	 1430.00	 1369.91	-1735.16	  378.27
     60.1700	 1529.00	 1452.41	-1718.66	  378.39
     60.2700	 1583.00	 1494.72	-1706.97	  378.50
     60.3700	 1529.00	 1471.27	-1737.52	  378.62
     60.4700	 1446.00	 1380.98	-1730.23	  378.74
     60.5700	 1306.00	 1246.75	-1736.00	  378.86
     60.6700	 1199.00	 1098.07	-1694.32	  378.98
     60.7700	  983.00	  958.34	-1770.59	  379.10
     60.8700	  824.00	  841.76	-1813.01	  379.22
     60.9700	  763.00	  754.28	-1786.53	  379.34
     61.0700	  634.00	  695.99	-1857.24	  379.46
     61.1700	  629.00	  664.02	-1830.27	  379.59
     61.2700	  600.00	  655.46	-1850.71	  379.71
     61.3700	  632.00	  669.40	-1832.65	  379.83
     61.4700	  685.00	  707.50	-1817.75	  379.96
     61.5700	  722.00	  773.09	-1846.34	  380.08
     61.6700	  819.00	  868.94	-1845.19	  380.21
     61.7700	  905.00	  994.25	-1884.50	  380.34
     61.8700	 1019.00	 1141.63	-1917.88	  380.46
     61.9700	 1132.00	 1295.07	-1958.32	  380.59
     62.0700	 1365.00	 1429.14	-1859.39	  380.72
     62.1700	 1465.00	 1512.36	-1842.61	  380.85
     62.2700	 1373.00	 1519.11	-1941.36	  380.98
     62.3700	 1417.00	 1446.52	-1824.77	  381.11
     62.4700	 1314.00	 1316.85	-1798.10	  381.24
     62.5700	 1073.00	 1161.81	-1884.06	  381.37
     62.6700	  920.00	 1008.41	-1883.66	  381.50
     62.7700	  811.00	  874.25	-1858.50	  381.64
     62.8700	  664.00	  767.84	-1899.09	  381.77
     62.9700	  641.00	  690.22	-1844.47	  381.90
     63.0700	  581.00	  637.67	-1851.92	  382.04
     63.1700	  584.00	  604.32	-1815.57	  382.17
     63.2700	  570.00	  584.34	-1809.59	  382.31
     63.3700	  577.00	  573.12	-1791.37	  382.44
     63.4700	  621.00	  567.71	-1741.96	  382.58
     63.5700	  588.00	  566.74	-1773.99	  382.71
     63.6700	  558.00	  570.24	-1807.49	  382.85
     63.7700	  616.00	  579.33	-1758.58	  382.99
     63.8700	  569.00	  595.94	-1822.19	  383.12
     63.9700	  644.00	  622.35	-1773.60	  383.26
     64.0700	  711.00	  660.46	-1744.71	  383.40
     64.1700	  776.00	  710.78	-1730.03	  383.54
     64.2700	  818.00	  771.42	-1748.67	  383.68
     64.3700	  866.00	  837.33	-1766.58	  383.82
     64.4700	  963.00	  899.97	-1732.22	  383.96
     64.5700	 1023.00	  948.20	-1720.45	  384.10
     64.6700	 1078.00	  971.23	-1688.48	  384.24
     64.7700	 1070.00	  965.25	-1690.50	  384.38
     64.8700	 1017.00	  932.75	-1711.00	  384.52
     64.9700	  955.00	  881.95	-1722.20	  384.66
     65.0700	  847.00	  822.97	-1771.22	  384.80
     65.1700	  773.00	  764.90	-1787.15	  384.94
     65.2700	  756.00	  713.69	-1752.94	  385.08
     65.3700	  673.00	  671.74	-1793.99	  385.22
     65.4700	  662.00	  638.86	-1772.11	  385.37
     65.5700	  592.00	  613.64	-1816.89	  385.51
     65.6700	  587.00	  594.57	-1802.82	  385.65
     65.7700	  581.00	  580.41	-1794.66	  385.79
     65.8700	  541.00	  570.15	-1824.40	  385.94
     65.9700	  572.00	  563.04	-1786.29	  386.08
     66.0700	  545.00	  558.51	-1808.76	  386.22
     66.1700	  579.00	  556.09	-1772.34	  386.37
     66.2700	  525.00	  555.41	-1825.66	  386.51
     66.3700	  556.00	  556.18	-1795.43	  386.65
     66.4700	  563.00	  558.21	-1790.46	  386.80
     66.5700	  562.00	  561.51	-1794.76	  386.94
     66.6700	  577.00	  566.44	-1784.69	  387.08
     66.7700	  510.00	  573.49	-1858.74	  387.23
     66.8700	  559.00	  584.12	-1820.37	  387.37
     66.9700	  541.00	  600.80	-1855.05	  387.52
     67.0700	  599.00	  627.52	-1823.77	  387.66
     67.1700	  637.00	  670.23	-1828.48	  387.80
     67.2700	  739.00	  736.81	-1793.06	  387.95
     67.3700	  841.00	  836.26	-1790.51	  388.09
     67.4700	 1000.00	  976.94	-1772.19	  388.24
     67.5700	 1180.00	 1163.21	-1778.46	  388.38
     67.6700	 1426.00	 1393.08	-1762.33	  388.53
     67.7700	 1698.00	 1653.90	-1751.15	  388.67
     67.8700	 1954.00	 1921.24	-1762.49	  388.81
     67.9700	 2150.00	 2158.61	-1803.86	  388.96
     68.0700	 2347.00	 2321.72	-1769.97	  389.10
     68.1700	 2438.00	 2371.33	-1728.58	  389.24
     68.2700	 2250.00	 2293.71	-1838.96	  389.39
     68.3700	 2076.00	 2109.93	-1829.18	  389.53
     68.4700	 1875.00	 1862.24	-1782.49	  389.68
     68.5700	 1579.00	 1594.07	-1810.32	  389.82
     68.6700	 1314.00	 1339.01	-1820.26	  389.96
     68.7700	 1117.00	 1118.83	-1797.08	  390.11
     68.8700	  859.00	  943.53	-1879.78	  390.25
     68.9700	  802.00	  813.48	-1806.73	  390.39
     69.0700	  719.00	  722.89	-1799.14	  390.53
     69.1700	  629.00	  663.09	-1829.34	  390.68
     69.2700	  656.00	  625.19	-1764.44	  390.82
     69.3700	  610.00	  601.75	-1787.00	  390.96
     69.4700	  594.00	  587.27	-1788.52	  391.10
     69.5700	  568.00	  578.13	-1805.38	  391.24
     69.6700	  618.00	  572.14	-1749.39	  391.38
     69.7700	  572.00	  568.07	-1791.32	  391.53
     69.8700	  563.00	  565.27	-1797.52	  391.67
     69.9700	  605.00	  563.41	-1753.66	  391.81
     70.0700	  573.00	  562.31	-1784.56	  391.95
     70.1700	  529.00	  561.91	-1828.16	  392.09
     70.2700	  565.00	  562.22	-1792.47	  392.23
     70.3700	  586.00	  563.28	-1772.53	  392.37
     70.4700	  524.00	  565.28	-1836.53	  392.51
     70.5700	  550.00	  568.61	-1813.86	  392.64
     70.6700	  548.00	  573.97	-1821.22	  392.78
     70.7700	  550.00	  582.61	-1827.86	  392.92
     70.8700	  563.00	  596.61	-1828.86	  393.06
     70.9700	  581.00	  619.12	-1833.37	  393.19
     71.0700	  660.00	  654.54	-1789.79	  393.33
     71.1700	  681.00	  708.38	-1822.63	  393.47
     71.2700	  753.00	  786.64	-1828.89	  393.60
     71.3700	  856.00	  894.49	-1833.74	  393.74
     71.4700	  992.00	 1035.36	-1838.61	  393.87
     71.5700	 1220.00	 1205.50	-1780.75	  394.01
     71.6700	 1337.00	 1397.38	-1855.63	  394.14
     71.7700	 1560.00	 1595.36	-1830.61	  394.28
     71.8700	 1800.00	 1776.46	-1771.71	  394.41
     71.9700	 1854.00	 1912.46	-1853.71	  394.54
     72.0700	 1885.00	 1976.24	-1886.49	  394.67
     72.1700	 1869.00	 1952.96	-1879.21	  394.81
     72.2700	 1860.00	 1848.60	-1783.85	  394.94
     72.3700	 1726.00	 1686.32	-1755.57	  395.07
     72.4700	 1592.00	 1494.53	-1697.78	  395.20
     72.5700	 1439.00	 1299.68	-1655.93	  395.33
     72.6700	 1267.00	 1120.10	-1648.35	  395.46
     72.7700	 1076.00	  967.01	-1686.26	  395.59
     72.8700	 1051.00	  844.85	-1589.10	  395.71
     72.9700	  903.00	  752.78	-1645.03	  395.84
     73.0700	  843.00	  686.66	-1638.91	  395.97
     73.1700	  783.00	  640.98	-1653.23	  396.09
     73.2700	  756.00	  610.25	-1649.50	  396.22
     73.3700	  691.00	  589.80	-1694.05	  396.34
     73.4700	  672.00	  576.17	-1699.42	  396.47
     73.5700	  557.00	  566.96	-1805.21	  396.59
     73.6700	  606.00	  560.63	-1749.88	  396.71
     73.7700	  591.00	  556.28	-1760.53	  396.84
     73.8700	  609.00	  553.35	-1739.60	  396.96
     73.9700	  578.00	  551.51	-1768.76	  397.08
     74.0700	  601.00	  550.54	-1744.79	  397.20
     74.1700	  589.00	  550.26	-1756.51	  397.32
     74.2700	  561.00	  550.47	-1784.72	  397.44
     74.3700	  615.00	  550.96	-1731.21	  397.56
     74.4700	  617.00	  551.48	-1729.73	  397.67
     74.5700	  664.00	  551.75	-1683.00	  397.79
     74.6700	  629.00	  551.53	-1717.78	  397.91
     74.7700	  581.00	  550.71	-1764.96	  398.02
     74.8700	  593.00	  549.33	-1751.58	  398.13
     74.9700	  631.00	  547.62	-1711.87	  398.25
     75.0700	  572.00	  545.88	-1769.13	  398.36
     75.1700	  600.00	  544.42	-1739.67	  398.47
     75.2700	  543.00	  543.56	-1795.81	  398.58
     75.3700	  578.00	  543.66	-1760.91	  398.69
     75.4700	  559.00	  545.23	-1781.48	  398.80
     75.5700	  545.00	  548.69	-1798.94	  398.91
     75.6700	  557.00	  554.48	-1792.73	  399.02
     75.7700	  553.00	  563.31	-1805.56	  399.13
     75.8700	  561.00	  575.51	-1809.76	  399.23
     75.9700	  584.00	  591.21	-1802.46	  399.34
     76.0700	  619.00	  610.10	-1786.35	  399.44
     76.1700	  610.00	  631.32	-1816.57	  399.54
     76.2700	  610.00	  653.35	-1838.60	  399.65
     76.3700	  706.00	  674.03	-1763.28	  399.75
     76.4700	  683.00	  690.68	-1802.93	  399.85
     76.5700	  675.00	  700.58	-1820.83	  399.95
     76.6700	  716.00	  701.79	-1781.04	  400.05
     76.7700	  723.00	  694.03	-1766.28	  400.15
     76.8700	  694.00	  678.85	-1780.10	  400.24
     76.9700	  625.00	  658.84	-1829.09	  400.34
     77.0700	  698.00	  636.56	-1733.81	  400.43
     77.1700	  576.00	  614.69	-1833.94	  400.53
     77.2700	  545.00	  594.74	-1844.99	  400.62
     77.3700	  618.00	  577.73	-1754.98	  400.71
     77.4700	  568.00	  564.09	-1791.34	  400.80
     77.5700	  514.00	  553.72	-1834.97	  400.89
     77.6700	  517.00	  546.23	-1824.48	  400.98
     77.7700	  532.00	  541.05	-1804.30	  401.07
     77.8700	  486.00	  537.61	-1846.86	  401.16
     77.9700	  460.00	  535.39	-1870.64	  401.24
     78.0700	  506.00	  533.99	-1823.24	  401.33
     78.1700	  522.00	  533.11	-1806.36	  401.41
     78.2700	  532.00	  532.58	-1795.83	  401.49
     78.3700	  540.00	  532.26	-1787.51	  401.57
     78.4700	  525.00	  532.08	-1802.33	  401.65
     78.5700	  534.00	  532.02	-1793.27	  401.73
     78.6700	  537.00	  532.05	-1790.30	  401.81
     78.7700	  529.00	  532.19	-1798.44	  401.89
     78.8700	  573.00	  532.44	-1754.69	  401.96
     78.9700	  498.00	  532.84	-1830.09	  402.04
     79.0700	  475.00	  533.41	-1853.66	  402.11
     79.1700	  511.00	  534.21	-1818.46	  402.18
     79.2700	  503.00	  535.29	-1827.54	  402.26
     79.3700	  516.00	  536.54	-1815.79	  402.33
     79.4700	  513.00	  538.40	-1820.65	  402.39
     79.5700	  504.00	  540.76	-1832.01	  402.46
     79.6700	  571.00	  543.71	-1767.96	  402.53
     79.7700	  536.00	  547.37	-1806.62	  402.59
     79.8700	  543.00	  551.90	-1804.15	  402.66
     79.9700	  519.00	  557.46	-1833.71	  402.72
     80.0700	  578.00	  564.31	-1781.56	  402.78
     80.1700	  556.00	  572.73	-1811.98	  402.84
     80.2700	  563.00	  583.04	-1815.29	  402.90
     80.3700	  564.00	  595.57	-1826.82	  402.96
     80.4700	  538.00	  610.48	-1867.73	  403.02
     80.5700	  612.00	  627.71	-1810.96	  403.07
     80.6700	  606.00	  646.85	-1836.10	  403.13
     80.7700	  642.00	  667.07	-1820.32	  403.18
     80.8700	  632.00	  687.12	-1850.37	  403.23
     80.9700	  714.00	  705.49	-1786.74	  403.28
     81.0700	  722.00	  720.65	-1793.90	  403.33
     81.1700	  728.00	  731.31	-1798.56	  403.38
     81.2700	  769.00	  736.62	-1762.87	  403.43
     81.3700	  783.00	  736.15	-1748.40	  403.47
     81.4700	  732.00	  730.02	-1793.27	  403.52
     81.5700	  735.00	  718.89	-1779.14	  403.56
     81.6700	  803.00	  703.79	-1696.04	  403.60
     81.7700	  727.00	  685.90	-1754.15	  403.64
     81.8700	  716.00	  666.39	-1745.64	  403.68
     81.9700	  700.00	  646.44	-1741.69	  403.72
     82.0700	  702.00	  627.08	-1720.33	  403.75
     82.1700	  684.00	  609.31	-1720.56	  403.79
     82.2700	  638.00	  593.64	-1750.89	  403.82
     82.3700	  638.00	  580.37	-1737.62	  403.86
     82.4700	  617.00	  569.58	-1747.83	  403.89
     82.5700	  624.00	  561.16	-1732.41	  403.92
     82.6700	  566.00	  554.93	-1784.18	  403.94
     82.7700	  592.00	  550.72	-1753.97	  403.97
     82.8700	  500.00	  548.29	-1843.54	  404.00
     82.9700	  526.00	  547.47	-1816.72	  404.02
     83.0700	  546.00	  548.12	-1797.37	  404.04
     83.1700	  547.00	  550.11	-1798.36	  404.06
     83.2700	  516.00	  553.35	-1832.60	  404.08
     83.3700	  557.00	  557.67	-1795.92	  404.10
     83.4700	  572.00	  562.89	-1786.14	  404.12
     83.5700	  540.00	  568.70	-1823.95	  404.13
     83.6700	  554.00	  574.70	-1815.95	  404.15
     83.7700	  525.00	  580.39	-1850.64	  404.16
     83.8700	  602.00	  585.18	-1778.43	  404.17
     83.9700	  618.00	  588.46	-1765.71	  404.18
     84.0700	  568.00	  589.72	-1816.97	  404.19
     84.1700	  590.00	  588.74	-1793.99	  404.20
     84.2700	  590.00	  585.65	-1790.90	  404.20
     84.3700	  537.00	  580.90	-1839.15	  404.20
     84.4700	  571.00	  575.07	-1799.32	  404.21
     84.5700	  536.00	  568.76	-1828.01	  404.21
     84.6700	  521.00	  562.46	-1836.71	  404.21
     84.7700	  511.00	  556.57	-1840.82	  404.21
     84.8700	  545.00	  551.36	-1801.61	  404.20
     84.9700	  552.00	  546.99	-1790.24	  404.20
     85.0700	  522.00	  543.52	-1816.77	  404.19
     85.1700	  507.00	  540.93	-1829.18	  404.18
     85.2700	  554.00	  539.14	-1780.39	  404.17
     85.3700	  506.00	  538.07	-1827.32	  404.16
     85.4700	  500.00	  537.62	-1832.87	  404.15
     85.5700	  537.00	  537.70	-1795.95	  404.14
     85.6700	  507.00	  538.24	-1826.49	  404.12
     85.7700	  519.00	  539.20	-1815.45	  404.10
     85.8700	  564.00	  540.55	-1771.80	  404.09
     85.9700	  556.00	  542.30	-1781.55	  404.07
     86.0700	  492.00	  544.48	-1847.73	  404.04
     86.1700	  540.00	  547.14	-1802.39	  404.02
     86.2700	  548.00	  550.36	-1797.61	  404.00
     86.3700	  561.00	  554.24	-1788.49	  403.97
     86.4700	  537.00	  558.92	-1817.17	  403.94
     86.5700	  577.00	  564.53	-1782.78	  403.91
     86.6700	  532.00	  571.19	-1834.44	  403.88
     86.7700	  533.00	  578.92	-1841.17	  403.85
     86.8700	  610.00	  587.31	-1772.56	  403.82
     86.9700	  630.00	  596.69	-1761.94	  403.78
     87.0700	  653.00	  606.29	-1748.54	  403.75
     87.1700	  579.00	  615.46	-1831.71	  403.71
     87.2700	  688.00	  623.40	-1730.65	  403.67
     87.3700	  670.00	  629.28	-1754.53	  403.63
     87.4700	  638.00	  632.32	-1789.57	  403.58
     87.5700	  656.00	  632.06	-1771.31	  403.54
     87.6700	  670.00	  628.51	-1753.76	  403.49
     87.7700	  635.00	  622.15	-1782.41	  403.45
     87.8700	  643.00	  613.83	-1766.08	  403.40
     87.9700	  618.00	  604.49	-1781.74	  403.35
     88.0700	  584.00	  595.05	-1806.30	  403.29
     88.1700	  617.00	  586.33	-1764.58	  403.24
     88.2700	  578.00	  578.99	-1796.24	  403.18
     88.3700	  586.00	  573.47	-1782.72	  403.13
     88.4700	  564.00	  570.07	-1801.32	  403.07
     88.5700	  576.00	  568.87	-1788.12	  403.01
     88.6700	  597.00	  569.77	-1768.02	  402.95
     88.7700	  569.00	  572.54	-1798.79	  402.88
     88.8700	  558.00	  576.80	-1814.05	  402.82
     88.9700	  619.00	  582.06	-1758.31	  402.75
     89.0700	  627.00	  587.75	-1756.00	  402.69
     89.1700	  611.00	  593.25	-1777.50	  402.62
     89.2700	  591.00	  597.90	-1802.15	  402.55
     89.3700	  596.00	  601.06	-1800.31	  402.47
     89.4700	  582.00	  602.26	-1815.51	  402.40
     89.5700	  591.00	  601.27	-1805.52	  402.32
     89.6700	  614.00	  598.19	-1779.44	  402.25
     89.7700	  579.00	  593.37	-1809.62	  402.17
     89.8700	  544.00	  587.32	-1838.57	  402.09
     89.9700	  522.00	  580.60	-1853.85	  402.01
     90.0700	  554.00	  573.69	-1814.94	  401.92
     90.1700	  542.00	  567.01	-1820.26	  401.84
     90.2700	  509.00	  560.86	-1847.11	  401.75
     90.3700	  543.00	  555.45	-1807.70	  401.66
     90.4700	  523.00	  550.89	-1823.14	  401.57
     90.5700	  561.00	  547.21	-1781.46	  401.48
     90.6700	  487.00	  544.37	-1852.62	  401.39
     90.7700	  530.00	  542.29	-1807.54	  401.29
     90.8700	  516.00	  540.86	-1820.11	  401.20
     90.9700	  523.00	  539.99	-1812.24	  401.10
     91.0700	  505.00	  539.60	-1829.85	  401.00
     91.1700	  537.00	  539.63	-1797.88	  400.90
     91.2700	  520.00	  540.05	-1815.30	  400.80
     91.3700	  514.00	  540.89	-1822.14	  400.70
     91.4700	  515.00	  542.20	-1822.45	  400.59
     91.5700	  525.00	  544.08	-1814.33	  400.48
     91.6700	  531.00	  546.68	-1810.93	  400.38
     91.7700	  522.00	  550.16	-1823.41	  400.27
     91.8700	  550.00	  554.72	-1799.97	  400.15
     91.9700	  520.00	  560.34	-1835.59	  400.04
     92.0700	  541.00	  567.65	-1821.90	  399.93
     92.1700	  539.00	  576.59	-1832.84	  399.81
     92.2700	  597.00	  587.22	-1785.47	  399.69
     92.3700	  588.00	  599.52	-1806.77	  399.58
     92.4700	  551.00	  613.36	-1857.61	  399.45
     92.5700	  618.00	  628.48	-1805.73	  399.33
     92.6700	  599.00	  644.46	-1840.71	  399.21
     92.7700	  684.00	  660.79	-1772.04	  399.08
     92.8700	  653.00	  676.81	-1819.06	  398.96
     92.9700	  763.00	  691.84	-1724.09	  398.83
     93.0700	  806.00	  705.23	-1694.48	  398.70
     93.1700	  772.00	  716.57	-1739.82	  398.57
     93.2700	  785.00	  725.79	-1736.04	  398.44
     93.3700	  835.00	  733.28	-1693.53	  398.30
     93.4700	  822.00	  739.67	-1712.92	  398.17
     93.5700	  838.00	  745.78	-1703.03	  398.03
     93.6700	  822.00	  752.39	-1725.64	  397.89
     93.7700	  816.00	  760.18	-1739.43	  397.75
     93.8700	  863.00	  769.71	-1701.96	  397.61
     93.9700	  839.00	  781.44	-1737.69	  397.47
     94.0700	  823.00	  795.70	-1767.95	  397.33
     94.1700	  905.00	  812.60	-1702.85	  397.18
     94.2700	  888.00	  831.92	-1739.17	  397.03
     94.3700	  857.00	  853.02	-1791.27	  396.89
     94.4700	  887.00	  874.81	-1783.06	  396.74
     94.5700	  844.00	  895.76	-1847.01	  396.58
     94.6700	  923.00	  914.00	-1786.25	  396.43
     94.7700	  901.00	  927.46	-1821.71	  396.28
     94.8700	  927.00	  934.26	-1802.51	  396.12
     94.9700	  915.00	  933.03	-1813.28	  395.97
     95.0700	  909.00	  923.36	-1809.61	  395.81
     95.1700	  865.00	  905.91	-1836.16	  395.65
     95.2700	  831.00	  882.18	-1846.43	  395.49
     95.3700	  862.00	  854.18	-1787.43	  395.32
     95.4700	  742.00	  824.11	-1877.36	  395.16
     95.5700	  745.00	  794.07	-1844.32	  395.00
     95.6700	  718.00	  766.04	-1843.29	  394.83
     95.7700	  694.00	  741.79	-1843.04	  394.66
     95.8700	  668.00	  722.86	-1850.11	  394.49
     95.9700	  681.00	  710.64	-1824.89	  394.32
     96.0700	  670.00	  706.31	-1831.56	  394.15
     96.1700	  714.00	  710.86	-1792.11	  393.98
     96.2700	  673.00	  725.11	-1847.36	  393.80
     96.3700	  735.00	  749.63	-1809.88	  393.63
     96.4700	  753.00	  784.68	-1826.93	  393.45
     96.5700	  784.00	  830.19	-1841.44	  393.27
     96.6700	  852.00	  885.59	-1828.84	  393.09
     96.7700	  904.00	  949.73	-1840.98	  392.91
     96.8700	 1085.00	 1020.83	-1731.08	  392.73
     96.9700	 1151.00	 1096.37	-1740.62	  392.55
     97.0700	 1189.00	 1173.21	-1779.46	  392.36
     97.1700	 1178.00	 1247.54	-1864.79	  392.18
     97.2700	 1266.00	 1315.03	-1844.28	  391.99
     97.3700	 1401.00	 1371.16	-1765.41	  391.80
     97.4700	 1388.00	 1411.63	-1818.88	  391.61
     97.5700	 1480.00	 1433.10	-1748.35	  391.42
     97.6700	 1423.00	 1433.86	-1806.11	  391.23
     97.7700	 1358.00	 1414.26	-1851.51	  391.04
     97.8700	 1438.00	 1376.56	-1733.81	  390.85
     97.9700	 1353.00	 1324.36	-1766.61	  390.65
     98.0700	 1229.00	 1261.90	-1828.15	  390.45
     98.1700	 1208.00	 1193.58	-1780.83	  390.26
     98.2700	 1130.00	 1123.53	-1788.78	  390.06
     98.3700	 1013.00	 1055.44	-1837.69	  389.86
     98.4700	  989.00	  992.49	-1798.74	  389.66
     98.5700	  979.00	  937.26	-1753.51	  389.46
     98.6700	  843.00	  891.80	-1844.05	  389.25
     98.7700	  850.00	  857.69	-1802.94	  389.05
     98.8700	  791.00	  836.07	-1840.32	  388.84
     98.9700	  739.00	  827.78	-1884.03	  388.64
     99.0700	  756.00	  833.35	-1872.60	  388.43
     99.1700	  827.00	  853.12	-1821.37	  388.22
     99.2700	  882.00	  887.20	-1800.45	  388.01
     99.3700	  892.00	  935.52	-1838.77	  387.80
     99.4700	 1029.00	  997.72	-1763.97	  387.59
     99.5700	 1008.00	 1073.10	-1860.35	  387.38
     99.6700	 1146.00	 1160.54	-1809.79	  387.17
     99.7700	 1267.00	 1258.37	-1786.62	  386.95
     99.8700	 1261.00	 1364.32	-1898.57	  386.74
     99.9700	 1460.00	 1475.39	-1810.64	  386.52
    100.0700	 1596.00	 1587.89	-1787.14	  386.31
    100.1700	 1759.00	 1697.55	-1733.80	  386.09
    100.2700	 1810.00	 1799.82	-1785.07	  385.87
    100.3700	 1820.00	 1890.31	-1865.56	  385.65
    100.4700	 1965.00	 1965.33	-1795.58	  385.43
    100.5700	 2166.00	 2022.16	-1651.41	  385.21
    100.6700	 2035.00	 2059.03	-1819.28	  384.99
    100.7700	 2051.00	 2074.95	-1819.20	  384.76
    100.8700	 2156.00	 2069.38	-1708.63	  384.54
    100.9700	 2112.00	 2042.43	-1725.68	  384.32
    101.0700	 2005.00	 1995.13	-1785.38	  384.09
    101.1700	 1990.00	 1929.75	-1735.00	  383.87
    101.2700	 1869.00	 1849.94	-1776.19	  383.64
    101.3700	 1845.00	 1760.31	-1710.56	  383.41
    101.4700	 1710.00	 1665.93	-1751.18	  383.18
    101.5700	 1551.00	 1571.66	-1815.91	  382.95
    101.6700	 1519.00	 1481.72	-1757.97	  382.73
    101.7700	 1362.00	 1399.41	-1832.66	  382.50
    101.8700	 1368.00	 1327.03	-1754.28	  382.26
    101.9700	 1343.00	 1265.79	-1718.04	  382.03
    102.0700	 1244.00	 1215.87	-1767.12	  381.80
    102.1700	 1122.00	 1176.52	-1849.77	  381.57
    102.2700	 1145.00	 1146.13	-1796.38	  381.34
    102.3700	 1191.00	 1122.52	-1726.77	  381.10
    102.4700	 1170.00	 1103.07	-1728.32	  380.87
    102.5700	 1111.00	 1085.07	-1769.32	  380.63
    102.6700	 1016.00	 1066.03	-1845.28	  380.40
    102.7700	 1042.00	 1044.05	-1797.30	  380.16
    102.8700	 1001.00	 1018.02	-1812.27	  379.92
    102.9700	  953.00	  987.67	-1829.92	  379.69
    103.0700	  948.00	  953.44	-1800.69	  379.45
    103.1700	  903.00	  916.24	-1808.49	  379.21
    103.2700	  835.00	  877.23	-1837.48	  378.97
    103.3700	  819.00	  837.63	-1813.88	  378.73
    103.4700	  781.00	  798.63	-1812.88	  378.50
    103.5700	  805.00	  761.26	-1751.51	  378.26
    103.6700	  761.00	  726.38	-1760.63	  378.02
    103.7700	  692.00	  694.65	-1797.90	  377.78
    103.8700	  697.00	  666.49	-1764.74	  377.54
    103.9700	  624.00	  642.11	-1813.36	  377.29
    104.0700	  588.00	  621.51	-1828.76	  377.05
    104.1700	  602.00	  604.57	-1797.82	  376.81
    104.2700	  538.00	  591.02	-1848.27	  376.57
    104.3700	  600.00	  580.51	-1775.76	  376.33
    104.4700	  567.00	  572.69	-1800.94	  376.09
    104.5700	  527.00	  567.15	-1835.40	  375.85
    104.6700	  571.00	  563.52	-1787.77	  375.60
    104.7700	  584.00	  561.45	-1772.70	  375.36
    104.8700	  559.00	  560.65	-1796.90	  375.12
    104.9700	  556.00	  560.84	-1800.09	  374.88
    105.0700	  565.00	  561.79	-1792.04	  374.63
    105.1700	  537.00	  563.33	-1821.58	  374.39
    105.2700	  539.00	  565.33	-1821.58	  374.15
    105.3700	  538.00	  567.66	-1824.91	  373.90
    105.4700	  560.00	  570.29	-1805.54	  373.66
    105.5700	  563.00	  573.20	-1805.45	  373.42
    105.6700	  567.00	  576.41	-1804.66	  373.18
    105.7700	  536.00	  580.00	-1839.25	  372.93
    105.8700	  585.00	  584.09	-1794.34	  372.69
    105.9700	  552.00	  588.81	-1832.06	  372.45
    106.0700	  593.00	  594.27	-1796.52	  372.20
    106.1700	  608.00	  600.57	-1787.82	  371.96
    106.2700	  581.00	  607.75	-1822.00	  371.72
    106.3700	  600.00	  615.78	-1811.03	  371.48
    106.4700	  544.00	  624.58	-1875.83	  371.24
    106.5700	  591.00	  633.97	-1838.22	  371.00
    106.6700	  560.00	  643.72	-1878.97	  370.75
    106.7700	  626.00	  653.49	-1822.74	  370.51
    106.8700	  587.00	  662.94	-1871.19	  370.27
    106.9700	  703.00	  671.66	-1763.91	  370.03
    107.0700	  738.00	  679.23	-1736.48	  369.79
    107.1700	  676.00	  685.28	-1804.53	  369.55
    107.2700	  633.00	  689.53	-1851.78	  369.31
    107.3700	  691.00	  691.86	-1796.11	  369.08
    107.4700	  703.00	  692.31	-1784.56	  368.84
    107.5700	  675.00	  691.10	-1811.35	  368.60
    107.6700	  704.00	  688.61	-1779.86	  368.36
    107.7700	  624.00	  685.26	-1856.51	  368.13
    107.8700	  700.00	  681.52	-1776.77	  367.89
    107.9700	  697.00	  677.81	-1776.06	  367.65
    108.0700	  667.00	  674.47	-1802.72	  367.42
    108.1700	  664.00	  671.76	-1803.01	  367.18
    108.2700	  640.00	  669.83	-1825.08	  366.95
    108.3700	  681.00	  668.68	-1782.93	  366.72
    108.4700	  665.00	  668.25	-1798.50	  366.49
    108.5700	  659.00	  668.34	-1804.59	  366.25
    108.6700	  671.00	  668.67	-1792.92	  366.02
    108.7700	  683.00	  668.89	-1781.14	  365.79
    108.8700	  702.00	  668.63	-1761.88	  365.56
    108.9700	  673.00	  667.52	-1789.77	  365.34
    109.0700	  676.00	  665.28	-1784.53	  365.11
    109.1700	  681.00	  661.71	-1775.96	  364.88
    109.2700	  664.00	  656.76	-1788.01	  364.66
    109.3700	  643.00	  650.48	-1802.73	  364.43
    109.4700	  633.00	  643.05	-1805.30	  364.21
    109.5700	  618.00	  634.73	-1811.98	  363.99
    109.6700	  609.00	  625.80	-1812.05	  363.76
    109.7700	  610.00	  616.55	-1801.80	  363.54
    109.8700	  609.00	  607.28	-1793.53	  363.32
    109.9700	  658.00	  598.24	-1735.49	  363.11
    110.0700	  632.00	  589.65	-1752.90	  362.89
    110.1700	  579.00	  581.71	-1797.96	  362.67
    110.2700	  574.00	  574.54	-1795.79	  362.46
    110.3700	  534.00	  568.24	-1829.49	  362.24
    110.4700	  596.00	  562.85	-1762.10	  362.03
    110.5700	  562.00	  558.38	-1791.63	  361.82
    110.6700	  561.00	  554.81	-1789.06	  361.61
    110.7700	  535.00	  552.07	-1812.32	  361.40
    110.8700	  538.00	  550.11	-1807.36	  361.20
    110.9700	  541.00	  548.85	-1803.10	  360.99
    111.0700	  560.00	  548.20	-1783.45	  360.79
    111.1700	  537.00	  548.09	-1806.34	  360.58
    111.2700	  545.00	  548.45	-1798.70	  360.38
    111.3700	  532.00	  549.21	-1812.46	  360.18
    111.4700	  556.00	  550.32	-1789.57	  359.99
    111.5700	  557.00	  551.73	-1789.98	  359.79
    111.6700	  554.00	  553.42	-1794.67	  359.60
    111.7700	  590.00	  555.35	-1760.60	  359.40
    111.8700	  518.00	  557.51	-1834.76	  359.21
    111.9700	  582.00	  559.89	-1773.14	  359.02
    112.0700	  578.00	  562.50	-1779.75	  358.83
    112.1700	  524.00	  565.34	-1836.59	  358.65
    112.2700	  605.00	  568.43	-1758.68	  358.46
    112.3700	  587.00	  571.79	-1780.04	  358.28
    112.4700	  571.00	  575.46	-1799.71	  358.10
    112.5700	  576.00	  579.46	-1798.71	  357.92
    112.6700	  628.00	  583.87	-1751.12	  357.75
    112.7700	  652.00	  588.76	-1732.01	  357.57
    112.8700	  662.00	  594.21	-1727.46	  357.40
    112.9700	  685.00	  600.36	-1710.61	  357.23
    113.0700	  679.00	  607.37	-1723.62	  357.06
    113.1700	  700.00	  615.45	-1710.70	  356.90
    113.2700	  697.00	  624.89	-1723.14	  356.73
    113.3700	  748.00	  636.03	-1683.28	  356.57
    113.4700	  789.00	  649.34	-1655.59	  356.41
    113.5700	  885.00	  665.37	-1575.62	  356.25
    113.6700	  846.00	  684.84	-1634.09	  356.10
    113.7700	  945.00	  708.61	-1558.86	  355.95
    113.8700	  971.00	  737.73	-1561.98	  355.80
    113.9700	  993.00	  773.45	-1575.70	  355.65
    114.0700	 1028.00	  817.22	-1584.47	  355.50
    114.1700	 1129.00	  870.74	-1536.99	  355.36
    114.2700	 1124.00	  935.89	-1607.14	  355.22
    114.3700	 1241.00	 1014.76	-1569.01	  355.08
    114.4700	 1301.00	 1109.56	-1603.81	  354.95
    114.5700	 1454.00	 1222.64	-1563.89	  354.82
    114.6700	 1587.00	 1356.37	-1564.62	  354.69
    114.7700	 1605.00	 1513.00	-1703.25	  354.56
    114.8700	 1842.00	 1694.58	-1647.83	  354.44
    114.9700	 1995.00	 1902.78	-1703.03	  354.32
    115.0700	 2230.00	 2138.83	-1704.08	  354.20
    115.1700	 2460.00	 2403.32	-1738.57	  354.08
    115.2700	 2662.00	 2695.94	-1829.19	  353.97
    115.3700	 2891.00	 3015.46	-1919.71	  353.86
    115.4700	 3203.00	 3359.53	-1951.78	  353.75
    115.5700	 3604.00	 3724.73	-1915.98	  353.65
    115.6700	 3871.00	 4106.45	-2030.70	  353.55
    115.7700	 4417.00	 4498.71	-1876.96	  353.45
    115.8700	 4549.00	 4894.36	-2140.61	  353.36
    115.9700	 4957.00	 5285.06	-2123.31	  353.27
    116.0700	 5332.00	 5661.51	-2124.76	  353.18
    116.1700	 5784.00	 6013.55	-2024.80	  353.10
    116.2700	 6085.00	 6330.34	-2040.59	  353.01
    116.3700	 6499.00	 6601.01	-1897.26	  352.94
    116.4700	 6770.00	 6815.22	-1840.47	  352.86
    116.5700	 7044.00	 6964.08	-1715.33	  352.79
    116.6700	 7181.00	 7041.06	-1655.31	  352.73
    116.7700	 7101.00	 7042.63	-1736.88	  352.66
    116.8700	 6912.00	 6968.94	-1852.19	  352.60
    116.9700	 6955.00	 6823.70	-1663.95	  352.54
    117.0700	 6920.00	 6613.69	-1488.94	  352.49
    117.1700	 6580.00	 6347.87	-1563.12	  352.44
    117.2700	 6050.00	 6036.62	-1781.87	  352.40
    117.3700	 5865.00	 5690.80	-1621.05	  352.36
    117.4700	 5363.00	 5321.14	-1753.39	  352.32
    117.5700	 4992.00	 4937.68	-1740.93	  352.28
    117.6700	 4408.00	 4549.53	-1936.78	  352.25
    117.7700	 4324.00	 4164.85	-1636.10	  352.23
    117.8700	 3979.00	 3790.54	-1606.79	  352.21
    117.9700	 3552.00	 3432.31	-1675.56	  352.19
    118.0700	 3185.00	 3094.53	-1704.78	  352.17
    118.1700	 2816.00	 2780.37	-1759.62	  352.17
    118.2700	 2534.00	 2491.99	-1753.24	  352.16
    118.3700	 2109.00	 2230.45	-1916.70	  352.16
    118.4700	 1973.00	 1996.00	-1818.25	  352.16
    118.5700	 1737.00	 1788.03	-1846.28	  352.17
    118.6700	 1517.00	 1605.40	-1883.65	  352.18
    118.7700	 1273.00	 1446.53	-1968.78	  352.20
    118.8700	 1195.00	 1309.53	-1909.78	  352.22
    118.9700	 1114.00	 1192.32	-1873.57	  352.24
    119.0700	  973.00	 1092.73	-1914.98	  352.27
    119.1700	  907.00	 1008.60	-1896.85	  352.31
    119.2700	  867.00	  937.89	-1866.14	  352.35
    119.3700	  815.00	  878.69	-1858.94	  352.39
    119.4700	  740.00	  829.28	-1884.53	  352.44
    119.5700	  671.00	  788.09	-1912.34	  352.49
    119.6700	  720.00	  753.79	-1829.04	  352.55
    119.7700	  672.00	  725.22	-1848.47	  352.61
    119.8700	  662.00	  701.41	-1834.66	  352.68
    119.9700	  631.00	  681.53	-1845.78	  352.76
    120.0700	  621.00	  664.91	-1839.16	  352.83
    120.1700	  591.00	  650.99	-1855.24	  352.92
    120.2700	  588.00	  639.32	-1846.57	  353.01
    120.3700	  556.00	  629.54	-1868.79	  353.10
    120.4700	  571.00	  621.34	-1845.59	  353.20
    120.5700	  574.00	  614.51	-1835.76	  353.30
    120.6700	  569.00	  608.85	-1835.10	  353.41
    120.7700	  555.00	  604.21	-1844.46	  353.53
    120.8700	  605.00	  600.48	-1790.73	  353.65
    120.9700	  546.00	  597.57	-1846.82	  353.77
    121.0700	  557.00	  595.41	-1833.66	  353.90
    121.1700	  563.00	  593.94	-1826.19	  354.04
    121.2700	  577.00	  593.11	-1811.36	  354.18
    121.3700	  565.00	  592.88	-1823.13	  354.33
    121.4700	  585.00	  593.21	-1803.46	  354.49
    121.5700	  566.00	  594.05	-1823.30	  354.65
    121.6700	  549.00	  595.36	-1841.61	  354.81
    121.7700	  547.00	  597.08	-1845.33	  354.99
    121.8700	  603.00	  599.16	-1791.41	  355.16
    121.9700	  582.00	  601.51	-1814.76	  355.35
    122.0700	  622.00	  604.09	-1777.34	  355.54
    122.1700	  600.00	  606.80	-1802.05	  355.73
    122.2700	  621.00	  609.55	-1783.80	  355.94
    122.3700	  615.00	  612.26	-1792.51	  356.15
    122.4700	  609.00	  614.81	-1801.06	  356.36
    122.5700	  676.00	  617.12	-1736.37	  356.58
    122.6700	  658.00	  619.09	-1756.34	  356.81
    122.7700	  603.00	  620.65	-1812.90	  357.04
    122.8700	  690.00	  621.71	-1726.96	  357.28
    122.9700	  626.00	  622.24	-1791.49	  357.53
    123.0700	  660.00	  622.20	-1757.45	  357.79
    123.1700	  584.00	  621.61	-1832.86	  358.05
    123.2700	  656.00	  620.48	-1759.73	  358.31
    123.3700	  642.00	  618.86	-1772.11	  358.59
    123.4700	  633.00	  616.80	-1779.05	  358.87
    123.5700	  640.00	  614.36	-1769.61	  359.16
    123.6700	  627.00	  611.61	-1779.86	  359.45
    123.7700	  621.00	  608.61	-1782.86	  359.76
    123.8700	  611.00	  605.45	-1789.70	  360.06
    123.9700	  589.00	  602.18	-1808.43	  360.38
    124.0700	  674.00	  598.86	-1720.11	  360.71
    124.1700	  625.00	  595.54	-1765.79	  361.04
    124.2700	  636.00	  592.28	-1751.53	  361.37
    124.3700	  592.00	  589.11	-1792.36	  361.72
    124.4700	  612.00	  586.07	-1769.32	  362.07
    124.5700	  577.00	  583.17	-1801.42	  362.43
    124.6700	  572.00	  580.45	-1803.70	  362.80
    124.7700	  558.00	  577.92	-1815.17	  363.18
    124.8700	  612.00	  575.58	-1758.83	  363.56
    124.9700	  610.00	  481.34	-1666.59	  363.95
    125.0700	  579.00	  481.74	-1795.25	  364.35
    125.1700	  574.00	  482.15	-1795.25	  364.76
    125.2700	  554.00	  482.56	-1795.25	  365.18
    125.3700	  573.00	  482.98	-1795.25	  365.60
    125.4700	  588.00	  483.42	-1795.25	  366.03
    125.5700	  569.00	  483.85	-1795.25	  366.47
    125.6700	  551.00	  484.30	-1795.25	  366.92
    125.7700	  532.00	  484.76	-1795.25	  367.37
    125.8700	  584.00	  485.22	-1795.25	  367.84
    125.9700	  563.00	  485.69	-1795.25	  368.31
    126.0700	  522.00	  486.18	-1795.25	  368.79
    126.1700	  563.00	  486.67	-1795.25	  369.28
    126.2700	  569.00	  487.16	-1795.25	  369.78
    126.3700	  577.00	  487.67	-1795.25	  370.28
    126.4700	  598.00	  488.19	-1795.25	  370.80
    126.5700	  592.00	  488.71	-1795.25	  371.32
    126.6700	  615.00	  489.24	-1795.25	  371.86
    126.7700	  587.00	  489.78	-1795.25	  372.40
    126.8700	  630.00	  490.34	-1795.25	  372.95
    126.9700	  611.00	  490.90	-1795.25	  373.51
    127.0700	  575.00	  491.46	-1795.25	  374.08
    127.1700	  619.00	  492.04	-1795.25	  374.66
    127.2700	  655.00	  492.63	-1795.25	  375.24
    127.3700	  621.00	  493.23	-1795.25	  375.84
    127.4700	  609.00	  493.83	-1795.25	  376.45
    127.5700	  620.00	  494.45	-1795.25	  377.06
    127.6700	  634.00	  495.07	-1795.25	  377.69
    127.7700	  664.00	  495.71	-1795.25	  378.32
    127.8700	  696.00	  496.35	-1795.25	  378.97
    127.9700	  728.00	  497.01	-1795.25	  379.62
    128.0700	  755.00	  497.67	-1795.25	  380.29
    128.1700	  711.00	  498.35	-1795.25	  380.96
    128.2700	  752.00	  499.03	-1795.25	  381.64
    128.3700	  741.00	  499.72	-1795.25	  382.34
    128.4700	  746.00	  500.43	-1795.25	  383.04
    128.5700	    0.00	  501.14	-1795.25	  383.75
    128.6700	    0.00	  501.86	-1795.25	  384.48
     12.3133	        	        	        	        	       0	(  0  0  2)	  0  1
     24.9020	        	        	        	        	       0	(  0  0  4)	  0  1
     28.3429	        	        	        	        	       0	(  1  0  0)	  0  1
     29.0405	        	        	        	        	       0	(  1  0  1)	  0  1
     31.0477	        	        	        	        	       0	(  1  0  2)	  0  1
     34.1577	        	        	        	        	       0	(  1  0  3)	  0  1
     37.8071	        	        	        	        	       0	(  0  0  6)	  0  1
     38.1368	        	        	        	        	       0	(  1  0  4)	  0  1
     42.7893	        	        	        	        	       0	(  1  0  5)	  0  1
     47.9760	        	        	        	        	       0	(  1  0  6)	  0  1
     50.2883	        	        	        	        	       0	(  1  1  0)	  0  1
     51.2353	        	        	        	        	       0	(  0  0  8)	  0  1
     52.0124	        	        	        	        	       0	(  1  1  2)	  0  1
     53.6094	        	        	        	        	       0	(  1  0  7)	  0  1
     56.9631	        	        	        	        	       0	(  1  1  4)	  0  1
     58.7890	        	        	        	        	       0	(  2  0  0)	  0  1
     59.1808	        	        	        	        	       0	(  2  0  1)	  0  1
     59.6431	        	        	        	        	       0	(  1  0  8)	  0  1
     60.3469	        	        	        	        	       0	(  2  0  2)	  0  1
     62.2613	        	        	        	        	       0	(  2  0  3)	  0  1
     64.6624	        	        	        	        	       0	(  1  1  6)	  0  1
     64.8871	        	        	        	        	       0	(  2  0  4)	  0  1
     65.4719	        	        	        	        	       0	(  0  0 10)	  0  1
     66.0631	        	        	        	        	       0	(  1  0  9)	  0  1
     68.1834	        	        	        	        	       0	(  2  0  5)	  0  1
     72.1134	        	        	        	        	       0	(  2  0  6)	  0  1
     72.8833	        	        	        	        	       0	(  1  0 10)	  0  1
     74.7065	        	        	        	        	       0	(  1  1  8)	  0  1
     76.6506	        	        	        	        	       0	(  2  0  7)	  0  1
     80.1457	        	        	        	        	       0	(  1  0 11)	  0  1
     80.9618	        	        	        	        	       0	(  0  0 12)	  0  1
     81.0417	        	        	        	        	       0	(  2  1  0)	  0  1
     81.3818	        	        	        	        	       0	(  2  1  1)	  0  1
     81.7845	        	        	        	        	       0	(  2  0  8)	  0  1
     82.4004	        	        	        	        	       0	(  2  1  2)	  0  1
     84.0930	        	        	        	        	       0	(  2  1  3)	  0  1
     86.4545	        	        	        	        	       0	(  2  1  4)	  0  1
     86.9866	        	        	        	        	       0	(  1  1 10)	  0  1
     87.5269	        	        	        	        	       0	(  2  0  9)	  0  1
     87.9256	        	        	        	        	       0	(  1  0 12)	  0  1
     89.4828	        	        	        	        	       0	(  2  1  5)	  0  1
     93.1833	        	        	        	        	       0	(  2  1  6)	  0  1
     93.9195	        	        	        	        	       0	(  2  0 10)	  0  1
     94.9399	        	        	        	        	       0	(  3  0  0)	  0  1
     95.2775	        	        	        	        	       0	(  3  0  1)	  0  1
     96.2916	        	        	        	        	       0	(  3  0  2)	  0  1
     96.3459	        	        	        	        	       0	(  1  0 13)	  0  1
     97.5758	        	        	        	        	       0	(  2  1  7)	  0  1
     97.9865	        	        	        	        	       0	(  3  0  3)	  0  1
     98.5151	        	        	        	        	       0	(  0  0 14)	  0  1
    100.3718	        	        	        	        	       0	(  3  0  4)	  0  1
    101.0480	        	        	        	        	       0	(  2  0 11)	  0  1
    101.8701	        	        	        	        	       0	(  1  1 12)	  0  1
    102.7032	        	        	        	        	       0	(  2  1  8)	  0  1
    103.4665	        	        	        	        	       0	(  3  0  5)	  0  1
    105.6077	        	        	        	        	       0	(  1  0 14)	  0  1
    107.3057	        	        	        	        	       0	(  3  0  6)	  0  1
    108.6465	        	        	        	        	       0	(  2  1  9)	  0  1
    109.0679	        	        	        	        	       0	(  2  0 12)	  0  1
    111.9515	        	        	        	        	       0	(  3  0  7)	  0  1
    115.5521	        	        	        	        	       0	(  2  1 10)	  0  1
    116.0644	        	        	        	        	       0	(  1  0 15)	  0  1
    116.6861	        	        	        	        	       0	(  2  2  0)	  0  1
    117.5124	        	        	        	        	       0	(  3  0  8)	  0  1
    118.2034	        	        	        	        	       0	(  2  2  2)	  0  1
    118.2646	        	        	        	        	       0	(  2  0 13)	  0  1
    120.0302	        	        	        	        	       0	(  0  0 16)	  0  1
    120.7385	        	        	        	        	       0	(  1  1 14)	  0  1
    122.8961	        	        	        	        	       0	(  2  2  4)	  0  1
    123.6918	        	        	        	        	       0	(  2  1 11)	  0  1
    124.1829	        	        	        	        	       0	(  3  0  9)	  0  1
    124.7629	        	        	        	        	       0	(  3  1  0)	  0  1
    125.1739	        	        	        	        	       0	(  3  1  1)	  0  1
    126.4195	        	        	        	        	       0	(  3  1  2)	  0  1
    128.4301	        	        	        	        	       0	(  1  0 16)	  0  1
    128.5418	        	        	        	        	       0	(  3  1  3)	  0  1
    129.2148	        	        	        	        	       0	(  2  0 14)	  0  1
    131.3521	        	        	        	        	       0	(  2  2  6)	  0  1
    131.6242	        	        	        	        	       0	(  3  1  4)	  0  1
    132.3404	        	        	        	        	       0	(  3  0 10)	  0  1
    133.6254	        	        	        	        	       0	(  2  1 12)	  0  1
    135.8214	        	        	        	        	       0	(  3  1  5)	  0  1
    141.4336	        	        	        	        	       0	(  3  1  6)	  0  1
    142.8513	        	        	        	        	       0	(  3  0 11)	  0  1
    143.3993	        	        	        	        	       0	(  2  0 15)	  0  1
    144.6539	        	        	        	        	       0	(  1  0 17)	  0  1
    145.6305	        	        	        	        	       0	(  2  2  8)	  0  1
    146.8292	        	        	        	        	       0	(  2  1 13)	  0  1
    149.1397	        	        	        	        	       0	(  3  1  7)	  0  1
    149.7708	        	        	        	        	       0	(  1  1 16)	  0  1
    154.2194	        	        	        	        	       0	(  0  0 18)	  0  1
    158.8409	        	        	        	        	       0	(  3  0 12)	  0  1
    159.0619	        	        	        	        	       0	(  4  0  0)	  0  1
    160.0299	        	        	        	        	       0	(  4  0  1)	  0  1
    161.2391	        	        	        	        	       0	(  3  1  8)	  0  1
    163.2544	        	        	        	        	       0	(  4  0  2)	  0  1
    170.2904	        	        	        	        	       0	(  2  0 16)	  0  1
    170.8298	        	        	        	        	       0	(  4  0  3)	  0  1
    175.2139	        	        	        	        	       0	(  2  1 14)	  0  1
