MSG Master    CELL:    5.91903   5.91903  23.26974   90.0000   90.0000  120.0000   SPGR: P 63/m m c             TEMP:   1066.55
  1   1280     2.52000     0.00000    -0.12942     0.00000     0.00000    0
    99     0     2
       0.00000      10.00000
     125.00000     130.00000
 2Theta	Yobs	Ycal	Yobs-Ycal	Backg	Posr	(hkl)	K
      0.7700	    0.00	  558.55	-1769.25	  441.55
      0.8700	    0.00	  559.15	-1769.25	  442.16
      0.9700	   37.00	  559.75	-1769.25	  442.75
      1.0700	   44.00	  560.33	-1769.25	  443.34
      1.1700	   39.00	  560.91	-1769.25	  443.91
      1.2700	   41.00	  561.47	-1769.25	  444.48
      1.3700	   53.00	  562.03	-1769.25	  445.03
      1.4700	   85.00	  562.57	-1769.25	  445.58
      1.5700	  322.00	  563.11	-1769.25	  446.11
      1.6700	  491.00	  563.63	-1769.25	  446.64
      1.7700	  565.00	  564.15	-1769.25	  447.15
      1.8700	  697.00	  564.65	-1769.25	  447.66
      1.9700	  734.00	  565.15	-1769.25	  448.16
      2.0700	  752.00	  565.64	-1769.25	  448.64
      2.1700	  843.00	  566.12	-1769.25	  449.12
      2.2700	  745.00	  566.59	-1769.25	  449.59
      2.3700	  718.00	  567.05	-1769.25	  450.05
      2.4700	  690.00	  567.50	-1769.25	  450.50
      2.5700	  685.00	  567.94	-1769.25	  450.95
      2.6700	  648.00	  568.37	-1769.25	  451.38
      2.7700	  655.00	  568.80	-1769.25	  451.80
      2.8700	  642.00	  569.21	-1769.25	  452.22
      2.9700	  582.00	  569.62	-1769.25	  452.63
      3.0700	  623.00	  570.02	-1769.25	  453.02
      3.1700	  592.00	  570.41	-1769.25	  453.41
      3.2700	  577.00	  570.79	-1769.25	  453.79
      3.3700	  727.00	  571.16	-1769.25	  454.17
      3.4700	  724.00	  571.52	-1769.25	  454.53
      3.5700	  818.00	  571.88	-1769.25	  454.88
      3.6700	  815.00	  572.23	-1769.25	  455.23
      3.7700	  890.00	  572.57	-1769.25	  455.57
      3.8700	  955.00	  572.90	-1769.25	  455.90
      3.9700	 1000.00	  573.22	-1769.25	  456.22
      4.0700	 1059.00	  573.53	-1769.25	  456.54
      4.1700	 1046.00	  573.84	-1769.25	  456.85
      4.2700	 1041.00	  574.14	-1769.25	  457.14
      4.3700	 1089.00	  574.43	-1769.25	  457.44
      4.4700	 1062.00	  574.71	-1769.25	  457.72
      4.5700	 1007.00	  574.99	-1769.25	  457.99
      4.6700	  989.00	  575.26	-1769.25	  458.26
      4.7700	  971.00	  575.52	-1769.25	  458.52
      4.8700	 1007.00	  575.77	-1769.25	  458.77
      4.9700	  889.00	  576.01	-1769.25	  459.02
      5.0700	  940.00	  576.25	-1769.25	  459.26
      5.1700	  912.00	  576.48	-1769.25	  459.49
      5.2700	  828.00	  576.70	-1769.25	  459.71
      5.3700	  905.00	  576.92	-1769.25	  459.92
      5.4700	  874.00	  577.13	-1769.25	  460.13
      5.5700	  824.00	  577.33	-1769.25	  460.33
      5.6700	  828.00	  577.52	-1769.25	  460.53
      5.7700	  798.00	  577.71	-1769.25	  460.71
      5.8700	  857.00	  577.89	-1769.25	  460.89
      5.9700	  768.00	  578.06	-1769.25	  461.07
      6.0700	  794.00	  578.23	-1769.25	  461.23
      6.1700	  753.00	  578.39	-1769.25	  461.39
      6.2700	  739.00	  578.54	-1769.25	  461.55
      6.3700	  795.00	  578.69	-1769.25	  461.69
      6.4700	  773.00	  578.83	-1769.25	  461.83
      6.5700	  779.00	  578.96	-1769.25	  461.96
      6.6700	  755.00	  579.09	-1769.25	  462.09
      6.7700	  716.00	  579.21	-1769.25	  462.21
      6.8700	  720.00	  579.32	-1769.25	  462.32
      6.9700	  726.00	  579.43	-1769.25	  462.43
      7.0700	  731.00	  579.53	-1769.25	  462.53
      7.1700	  669.00	  579.62	-1769.25	  462.63
      7.2700	  676.00	  579.71	-1769.25	  462.71
      7.3700	  684.00	  579.79	-1769.25	  462.80
      7.4700	  640.00	  579.87	-1769.25	  462.87
      7.5700	  668.00	  579.94	-1769.25	  462.94
      7.6700	  642.00	  580.00	-1769.25	  463.01
      7.7700	  636.00	  580.06	-1769.25	  463.07
      7.8700	  685.00	  580.11	-1769.25	  463.12
      7.9700	  632.00	  580.16	-1769.25	  463.17
      8.0700	  636.00	  580.20	-1769.25	  463.21
      8.1700	  643.00	  580.24	-1769.25	  463.24
      8.2700	  667.00	  580.27	-1769.25	  463.27
      8.3700	  648.00	  580.29	-1769.25	  463.29
      8.4700	  640.00	  580.31	-1769.25	  463.31
      8.5700	  593.00	  580.32	-1769.25	  463.33
      8.6700	  646.00	  580.33	-1769.25	  463.33
      8.7700	  631.00	  580.33	-1769.25	  463.34
      8.8700	  648.00	  580.33	-1769.25	  463.33
      8.9700	  614.00	  580.32	-1769.25	  463.32
      9.0700	  627.00	  580.31	-1769.25	  463.31
      9.1700	  619.00	  580.29	-1769.25	  463.29
      9.2700	  591.00	  580.26	-1769.25	  463.27
      9.3700	  599.00	  580.23	-1769.25	  463.24
      9.4700	  595.00	  580.20	-1769.25	  463.20
      9.5700	  657.00	  580.16	-1769.25	  463.16
      9.6700	  616.00	  580.12	-1769.25	  463.12
      9.7700	  631.00	  580.07	-1769.25	  463.07
      9.8700	  595.00	  580.01	-1769.25	  463.02
      9.9700	  643.00	  579.95	-1769.25	  462.96
     10.0700	  603.00	  580.63	-1746.88	  462.90
     10.1700	  604.00	  580.64	-1745.89	  462.83
     10.2700	  587.00	  580.66	-1762.91	  462.75
     10.3700	  576.00	  580.71	-1773.96	  462.68
     10.4700	  575.00	  580.81	-1775.06	  462.60
     10.5700	  590.00	  581.01	-1760.26	  462.51
     10.6700	  609.00	  581.42	-1741.67	  462.42
     10.7700	  585.00	  582.14	-1766.39	  462.32
     10.8700	  571.00	  583.24	-1781.49	  462.22
     10.9700	  587.00	  584.72	-1766.97	  462.12
     11.0700	  548.00	  586.53	-1807.78	  462.01
     11.1700	  600.00	  588.66	-1757.91	  461.90
     11.2700	  569.00	  591.16	-1791.41	  461.78
     11.3700	  600.00	  594.11	-1763.36	  461.66
     11.4700	  579.00	  597.62	-1787.87	  461.54
     11.5700	  650.00	  601.90	-1721.15	  461.41
     11.6700	  633.00	  607.29	-1743.54	  461.28
     11.7700	  656.00	  614.40	-1727.65	  461.14
     11.8700	  664.00	  624.19	-1729.44	  461.00
     11.9700	  691.00	  637.43	-1715.68	  460.85
     12.0700	  702.00	  652.61	-1719.86	  460.71
     12.1700	  672.00	  663.38	-1760.63	  460.55
     12.2700	  688.00	  659.68	-1740.93	  460.40
     12.3700	  703.00	  638.71	-1704.96	  460.24
     12.4700	  636.00	  613.58	-1746.83	  460.08
     12.5700	  548.00	  595.62	-1816.87	  459.91
     12.6700	  635.00	  586.17	-1720.42	  459.74
     12.7700	  558.00	  582.02	-1793.27	  459.57
     12.8700	  626.00	  580.16	-1723.41	  459.39
     12.9700	  576.00	  579.10	-1772.35	  459.21
     13.0700	  561.00	  578.36	-1786.61	  459.02
     13.1700	  551.00	  577.77	-1796.02	  458.84
     13.2700	  548.00	  577.28	-1798.53	  458.65
     13.3700	  540.00	  576.86	-1806.11	  458.45
     13.4700	  561.00	  576.48	-1784.73	  458.26
     13.5700	  541.00	  576.14	-1804.39	  458.06
     13.6700	  526.00	  575.82	-1819.07	  457.85
     13.7700	  575.00	  575.52	-1769.77	  457.65
     13.8700	  577.00	  575.23	-1767.48	  457.44
     13.9700	  579.00	  574.95	-1765.20	  457.22
     14.0700	  532.00	  574.68	-1811.93	  457.01
     14.1700	  590.00	  574.41	-1753.66	  456.79
     14.2700	  577.00	  574.15	-1766.40	  456.57
     14.3700	  547.00	  573.89	-1796.14	  456.34
     14.4700	  550.00	  573.63	-1792.88	  456.12
     14.5700	  551.00	  573.37	-1791.62	  455.89
     14.6700	  583.00	  573.11	-1759.36	  455.66
     14.7700	  622.00	  572.85	-1720.10	  455.42
     14.8700	  550.00	  572.60	-1791.85	  455.18
     14.9700	  543.00	  572.34	-1798.59	  454.94
     15.0700	  577.00	  572.08	-1764.33	  454.70
     15.1700	  571.00	  571.82	-1770.07	  454.45
     15.2700	  559.00	  571.56	-1781.81	  454.21
     15.3700	  540.00	  571.30	-1800.55	  453.95
     15.4700	  544.00	  571.03	-1796.28	  453.70
     15.5700	  545.00	  570.77	-1795.02	  453.45
     15.6700	  547.00	  570.50	-1792.75	  453.19
     15.7700	  573.00	  570.23	-1766.48	  452.93
     15.8700	  596.00	  569.96	-1743.21	  452.67
     15.9700	  563.00	  569.69	-1775.94	  452.40
     16.0700	  559.00	  569.42	-1779.67	  452.14
     16.1700	  555.00	  569.14	-1783.39	  451.87
     16.2700	  585.00	  568.87	-1753.12	  451.60
     16.3700	  598.00	  568.62	-1739.87	  451.32
     16.4700	  579.00	  568.34	-1758.59	  451.05
     16.5700	  550.00	  568.05	-1787.30	  450.77
     16.6700	  530.00	  567.77	-1807.02	  450.49
     16.7700	  564.00	  567.49	-1772.74	  450.21
     16.8700	  576.00	  567.20	-1760.45	  449.93
     16.9700	  549.00	  566.91	-1787.16	  449.64
     17.0700	  560.00	  566.62	-1775.88	  449.35
     17.1700	  588.00	  566.33	-1747.58	  449.07
     17.2700	  571.00	  566.04	-1764.29	  448.78
     17.3700	  559.00	  565.75	-1776.00	  448.48
     17.4700	  578.00	  565.45	-1756.70	  448.19
     17.5700	  594.00	  565.16	-1740.41	  447.89
     17.6700	  543.00	  564.86	-1791.11	  447.60
     17.7700	  528.00	  564.56	-1805.81	  447.30
     17.8700	  533.00	  564.26	-1800.51	  447.00
     17.9700	  578.00	  564.05	-1755.30	  446.69
     18.0700	  528.00	  563.75	-1805.00	  446.39
     18.1700	  579.00	  563.45	-1753.70	  446.09
     18.2700	  535.00	  563.14	-1797.39	  445.78
     18.3700	  533.00	  562.84	-1799.09	  445.47
     18.4700	  599.00	  562.53	-1732.78	  445.16
     18.5700	  603.00	  562.22	-1728.47	  444.85
     18.6700	  576.00	  561.91	-1755.16	  444.54
     18.7700	  586.00	  561.60	-1744.85	  444.23
     18.8700	  554.00	  561.38	-1776.63	  443.91
     18.9700	  554.00	  561.07	-1776.32	  443.60
     19.0700	  541.00	  560.76	-1789.01	  443.28
     19.1700	  579.00	  560.45	-1750.70	  442.96
     19.2700	  552.00	  560.14	-1777.39	  442.64
     19.3700	  570.00	  559.82	-1759.07	  442.32
     19.4700	  574.00	  559.51	-1754.76	  442.00
     19.5700	  590.00	  559.19	-1738.44	  441.68
     19.6700	  549.00	  558.88	-1779.13	  441.35
     19.7700	  595.00	  558.56	-1732.81	  441.03
     19.8700	  557.00	  558.24	-1770.49	  440.70
     19.9700	  536.00	  557.92	-1791.17	  440.38
     20.0700	  515.00	  557.61	-1811.86	  440.05
     20.1700	  548.00	  557.29	-1778.54	  439.72
     20.2700	  537.00	  556.97	-1789.22	  439.39
     20.3700	  560.00	  556.65	-1765.90	  439.06
     20.4700	  588.00	  556.30	-1737.55	  438.73
     20.5700	  529.00	  555.98	-1796.23	  438.40
     20.6700	  528.00	  555.66	-1796.91	  438.06
     20.7700	  536.00	  555.34	-1788.59	  437.73
     20.8700	  553.00	  555.02	-1771.27	  437.40
     20.9700	  519.00	  554.74	-1804.99	  437.06
     21.0700	  561.00	  554.42	-1762.67	  436.73
     21.1700	  556.00	  554.11	-1767.36	  436.39
     21.2700	  509.00	  553.79	-1814.04	  436.06
     21.3700	  493.00	  553.47	-1829.72	  435.72
     21.4700	  551.00	  553.16	-1771.41	  435.38
     21.5700	  546.00	  552.84	-1776.09	  435.04
     21.6700	  545.00	  552.53	-1776.78	  434.71
     21.7700	  534.00	  552.22	-1787.47	  434.37
     21.8700	  528.00	  551.91	-1793.16	  434.03
     21.9700	  507.00	  551.60	-1813.85	  433.69
     22.0700	  537.00	  551.29	-1783.54	  433.35
     22.1700	  506.00	  550.99	-1814.24	  433.01
     22.2700	  544.00	  550.69	-1775.94	  432.67
     22.3700	  566.00	  550.39	-1753.64	  432.33
     22.4700	  578.00	  550.09	-1741.34	  431.98
     22.5700	  570.00	  549.81	-1749.06	  431.64
     22.6700	  564.00	  549.52	-1754.77	  431.30
     22.7700	  555.00	  549.25	-1763.50	  430.96
     22.8700	  532.00	  548.98	-1786.23	  430.62
     22.9700	  567.00	  548.72	-1750.97	  430.27
     23.0700	  568.00	  548.47	-1749.72	  429.93
     23.1700	  533.00	  548.24	-1784.49	  429.59
     23.2700	  567.00	  548.03	-1750.28	  429.25
     23.3700	  553.00	  547.84	-1764.09	  428.90
     23.4700	  554.00	  547.68	-1762.93	  428.56
     23.5700	  540.00	  547.57	-1776.82	  428.22
     23.6700	  536.00	  547.53	-1780.78	  427.88
     23.7700	  550.00	  547.71	-1766.96	  427.53
     23.8700	  559.00	  547.98	-1758.23	  427.19
     23.9700	  566.00	  548.67	-1751.92	  426.85
     24.0700	  601.00	  550.22	-1718.47	  426.50
     24.1700	  535.00	  553.31	-1787.56	  426.16
     24.2700	  591.00	  558.81	-1737.06	  425.82
     24.3700	  580.00	  567.71	-1756.96	  425.48
     24.4700	  556.00	  581.10	-1794.35	  425.14
     24.5700	  625.00	  599.39	-1743.64	  424.79
     24.6700	  548.00	  619.78	-1841.03	  424.45
     24.7700	  594.00	  633.97	-1809.22	  424.11
     24.8700	  594.00	  630.74	-1805.99	  423.77
     24.9700	  612.00	  608.76	-1766.01	  423.43
     25.0700	  577.00	  582.34	-1774.59	  423.09
     25.1700	  583.00	  562.89	-1749.14	  422.75
     25.2700	  579.00	  552.20	-1742.45	  422.41
     25.3700	  527.00	  547.33	-1789.58	  422.07
     25.4700	  595.00	  545.16	-1719.41	  421.73
     25.5700	  584.00	  544.02	-1729.27	  421.39
     25.6700	  560.00	  543.26	-1752.51	  421.05
     25.7700	  580.00	  542.71	-1731.96	  420.72
     25.8700	  551.00	  542.28	-1760.53	  420.38
     25.9700	  568.00	  541.96	-1743.21	  420.04
     26.0700	  604.00	  541.72	-1706.97	  419.70
     26.1700	  542.00	  541.56	-1768.81	  419.37
     26.2700	  581.00	  541.47	-1729.72	  419.03
     26.3700	  585.00	  541.46	-1725.71	  418.70
     26.4700	  564.00	  541.54	-1746.79	  418.36
     26.5700	  565.00	  541.71	-1745.96	  418.03
     26.6700	  593.00	  541.99	-1718.24	  417.70
     26.7700	  549.00	  542.41	-1762.66	  417.37
     26.8700	  548.00	  543.00	-1764.25	  417.03
     26.9700	  525.00	  543.82	-1788.07	  416.70
     27.0700	  559.00	  544.94	-1755.19	  416.37
     27.1700	  550.00	  546.50	-1765.75	  416.04
     27.2700	  583.00	  548.75	-1735.00	  415.71
     27.3700	  517.00	  552.18	-1804.44	  415.39
     27.4700	  580.00	  557.79	-1747.04	  415.06
     27.5700	  528.00	  567.27	-1808.52	  414.73
     27.6700	  559.00	  583.34	-1793.59	  414.41
     27.7700	  598.00	  609.45	-1780.70	  414.08
     27.8700	  579.00	  648.47	-1838.72	  413.76
     27.9700	  700.00	  700.38	-1769.63	  413.43
     28.0700	  767.00	  759.09	-1761.34	  413.11
     28.1700	  917.00	  809.92	-1662.17	  412.79
     28.2700	  905.00	  831.23	-1695.48	  412.47
     28.3700	  917.00	  811.31	-1663.56	  412.15
     28.4700	  823.00	  772.19	-1718.44	  411.83
     28.5700	  763.00	  748.00	-1754.25	  411.51
     28.6700	  715.00	  753.74	-1807.99	  411.19
     28.7700	  746.00	  783.63	-1806.88	  410.88
     28.8700	  799.00	  816.20	-1786.45	  410.56
     28.9700	  870.00	  821.31	-1720.56	  410.25
     29.0700	  796.00	  780.56	-1753.81	  409.93
     29.1700	  733.00	  712.10	-1748.35	  409.62
     29.2700	  622.00	  647.30	-1794.55	  409.31
     29.3700	  649.00	  600.78	-1721.03	  409.00
     29.4700	  605.00	  572.79	-1737.04	  408.69
     29.5700	  558.00	  557.71	-1768.96	  408.38
     29.6700	  627.00	  549.76	-1692.01	  408.07
     29.7700	  565.00	  545.26	-1749.51	  407.77
     29.8700	  560.00	  542.44	-1751.69	  407.46
     29.9700	  568.00	  540.64	-1741.89	  407.16
     30.0700	  572.00	  539.67	-1736.92	  406.86
     30.1700	  553.00	  539.70	-1755.95	  406.55
     30.2700	  566.00	  541.26	-1744.51	  406.25
     30.3700	  574.00	  545.40	-1740.65	  405.95
     30.4700	  557.00	  553.74	-1765.99	  405.66
     30.5700	  565.00	  567.98	-1772.23	  405.36
     30.6700	  605.00	  588.58	-1752.83	  405.06
     30.7700	  591.00	  612.93	-1791.18	  404.77
     30.8700	  578.00	  634.01	-1825.26	  404.47
     30.9700	  616.00	  641.16	-1794.41	  404.18
     31.0700	  600.00	  627.32	-1796.57	  403.89
     31.1700	  515.00	  599.83	-1854.08	  403.60
     31.2700	  540.00	  572.45	-1801.70	  403.31
     31.3700	  555.00	  552.36	-1766.61	  403.03
     31.4700	  541.00	  540.22	-1768.47	  402.74
     31.5700	  525.00	  533.77	-1778.02	  402.46
     31.6700	  562.00	  530.45	-1737.70	  402.17
     31.7700	  523.00	  528.60	-1774.85	  401.89
     31.8700	  510.00	  527.42	-1786.67	  401.61
     31.9700	  555.00	  526.60	-1740.85	  401.33
     32.0700	  568.00	  526.00	-1727.25	  401.05
     32.1700	  575.00	  525.59	-1719.84	  400.78
     32.2700	  578.00	  525.33	-1716.58	  400.50
     32.3700	  553.00	  525.21	-1741.46	  400.23
     32.4700	  570.00	  525.25	-1724.50	  399.96
     32.5700	  536.00	  525.45	-1758.70	  399.69
     32.6700	  583.00	  525.84	-1712.09	  399.42
     32.7700	  509.00	  526.46	-1786.71	  399.15
     32.8700	  553.00	  527.38	-1743.63	  398.88
     32.9700	  570.00	  528.71	-1727.96	  398.62
     33.0700	  534.00	  530.65	-1765.90	  398.35
     33.1700	  540.00	  533.65	-1762.90	  398.09
     33.2700	  525.00	  538.71	-1782.96	  397.83
     33.3700	  547.00	  548.07	-1770.31	  397.57
     33.4700	  578.00	  566.03	-1757.28	  397.31
     33.5700	  587.00	  599.47	-1781.72	  397.06
     33.6700	  655.00	  656.46	-1770.71	  396.80
     33.7700	  732.00	  740.66	-1777.91	  396.55
     33.8700	  881.00	  842.92	-1731.17	  396.30
     33.9700	 1014.00	  935.61	-1690.86	  396.05
     34.0700	 1108.00	  976.24	-1637.49	  395.80
     34.1700	 1013.00	  933.77	-1690.02	  395.55
     34.2700	  894.00	  830.37	-1705.62	  395.30
     34.3700	  721.00	  719.68	-1767.93	  395.06
     34.4700	  622.00	  634.47	-1781.72	  394.82
     34.5700	  566.00	  581.31	-1784.56	  394.58
     34.6700	  538.00	  552.81	-1784.06	  394.34
     34.7700	  488.00	  538.61	-1819.86	  394.10
     34.8700	  543.00	  531.25	-1757.50	  393.86
     34.9700	  552.00	  526.86	-1744.10	  393.63
     35.0700	  515.00	  523.81	-1778.06	  393.40
     35.1700	  540.00	  521.51	-1750.76	  393.16
     35.2700	  539.00	  519.68	-1749.93	  392.94
     35.3700	  516.00	  518.22	-1771.47	  392.71
     35.4700	  530.00	  516.98	-1756.23	  392.48
     35.5700	  541.00	  515.94	-1744.19	  392.26
     35.6700	  525.00	  515.04	-1759.29	  392.03
     35.7700	  493.00	  514.26	-1790.51	  391.81
     35.8700	  548.00	  513.57	-1734.82	  391.59
     35.9700	  536.00	  513.43	-1746.68	  391.37
     36.0700	  500.00	  512.89	-1782.14	  391.16
     36.1700	  536.00	  512.40	-1745.65	  390.94
     36.2700	  501.00	  511.95	-1780.20	  390.73
     36.3700	  516.00	  511.55	-1764.80	  390.52
     36.4700	  564.00	  511.18	-1716.43	  390.31
     36.5700	  517.00	  510.85	-1763.10	  390.10
     36.6700	  495.00	  510.56	-1784.81	  389.89
     36.7700	  512.00	  510.31	-1767.56	  389.69
     36.8700	  523.00	  510.12	-1756.37	  389.48
     36.9700	  499.00	  510.04	-1780.29	  389.28
     37.0700	  515.00	  510.18	-1764.43	  389.08
     37.1700	  501.00	  510.78	-1779.03	  388.88
     37.2700	  540.00	  512.17	-1741.42	  388.69
     37.3700	  521.00	  514.72	-1762.97	  388.49
     37.4700	  520.00	  518.49	-1767.74	  388.30
     37.5700	  527.00	  522.89	-1765.14	  388.11
     37.6700	  529.00	  526.54	-1766.79	  387.92
     37.7700	  531.00	  527.84	-1766.09	  387.73
     37.8700	  568.00	  526.33	-1727.58	  387.55
     37.9700	  485.00	  523.19	-1807.44	  387.36
     38.0700	  482.00	  519.55	-1806.80	  387.18
     38.1700	  558.00	  515.87	-1727.12	  387.00
     38.2700	  514.00	  512.56	-1767.81	  386.82
     38.3700	  496.00	  509.97	-1783.22	  386.64
     38.4700	  512.00	  508.16	-1765.41	  386.47
     38.5700	  528.00	  507.00	-1748.25	  386.29
     38.6700	  522.00	  506.28	-1753.53	  386.12
     38.7700	  472.00	  505.72	-1802.97	  385.95
     38.8700	  575.00	  505.39	-1699.64	  385.78
     38.9700	  489.00	  505.13	-1785.38	  385.62
     39.0700	  502.00	  504.90	-1772.15	  385.45
     39.1700	  499.00	  504.69	-1774.94	  385.29
     39.2700	  463.00	  504.41	-1810.66	  385.13
     39.3700	  531.00	  504.24	-1742.49	  384.97
     39.4700	  512.00	  504.07	-1761.32	  384.81
     39.5700	  503.00	  503.92	-1770.17	  384.65
     39.6700	  501.00	  503.90	-1772.15	  384.50
     39.7700	  497.00	  503.77	-1776.02	  384.35
     39.8700	  518.00	  503.65	-1754.90	  384.20
     39.9700	  489.00	  503.53	-1783.78	  384.05
     40.0700	  492.00	  503.43	-1780.68	  383.90
     40.1700	  481.00	  503.33	-1791.58	  383.75
     40.2700	  460.00	  503.25	-1812.50	  383.61
     40.3700	  487.00	  503.18	-1785.43	  383.47
     40.4700	  471.00	  503.12	-1801.37	  383.33
     40.5700	  498.00	  503.08	-1774.33	  383.19
     40.6700	  455.00	  503.05	-1817.30	  383.06
     40.7700	  493.00	  503.04	-1779.29	  382.92
     40.8700	  487.00	  503.05	-1785.30	  382.79
     40.9700	  511.00	  503.09	-1761.34	  382.66
     41.0700	  508.00	  503.16	-1764.41	  382.53
     41.1700	  486.00	  503.27	-1786.52	  382.40
     41.2700	  515.00	  503.39	-1757.64	  382.27
     41.3700	  515.00	  503.61	-1757.86	  382.15
     41.4700	  478.00	  503.91	-1795.16	  382.03
     41.5700	  516.00	  504.32	-1757.57	  381.91
     41.6700	  520.00	  505.33	-1754.58	  381.79
     41.7700	  522.00	  506.20	-1753.45	  381.67
     41.8700	  482.00	  507.67	-1794.92	  381.56
     41.9700	  519.00	  510.41	-1760.66	  381.45
     42.0700	  513.00	  515.78	-1772.03	  381.33
     42.1700	  513.00	  525.98	-1782.23	  381.22
     42.2700	  545.00	  543.71	-1767.96	  381.12
     42.3700	  558.00	  570.44	-1781.69	  381.01
     42.4700	  536.00	  604.35	-1837.60	  380.91
     42.5700	  588.00	  638.09	-1819.34	  380.80
     42.6700	  582.00	  659.45	-1846.70	  380.70
     42.7700	  620.00	  657.32	-1806.57	  380.61
     42.8700	  585.00	  631.91	-1816.16	  380.51
     42.9700	  563.00	  596.10	-1802.35	  380.41
     43.0700	  514.00	  562.56	-1817.81	  380.32
     43.1700	  488.00	  537.54	-1818.79	  380.23
     43.2700	  504.00	  521.82	-1787.07	  380.14
     43.3700	  523.00	  513.17	-1759.42	  380.05
     43.4700	  504.00	  508.77	-1774.02	  379.96
     43.5700	  470.00	  506.53	-1805.78	  379.88
     43.6700	  506.00	  505.26	-1768.51	  379.80
     43.7700	  551.00	  504.62	-1722.87	  379.71
     43.8700	  507.00	  504.04	-1766.29	  379.64
     43.9700	  518.00	  503.60	-1754.85	  379.56
     44.0700	  522.00	  503.26	-1750.51	  379.48
     44.1700	  515.00	  503.03	-1757.28	  379.41
     44.2700	  499.00	  502.83	-1773.08	  379.34
     44.3700	  519.00	  502.68	-1752.93	  379.27
     44.4700	  539.00	  502.57	-1732.82	  379.20
     44.5700	  536.00	  502.37	-1735.62	  379.13
     44.6700	  473.00	  502.33	-1798.58	  379.06
     44.7700	  505.00	  502.31	-1766.56	  379.00
     44.8700	  504.00	  502.33	-1767.58	  378.94
     44.9700	  515.00	  502.36	-1756.61	  378.88
     45.0700	  550.00	  502.42	-1721.67	  378.82
     45.1700	  503.00	  502.49	-1768.74	  378.76
     45.2700	  473.00	  502.77	-1799.02	  378.71
     45.3700	  468.00	  502.90	-1804.15	  378.65
     45.4700	  518.00	  503.04	-1754.29	  378.60
     45.5700	  554.00	  503.21	-1718.46	  378.55
     45.6700	  505.00	  503.40	-1767.65	  378.50
     45.7700	  482.00	  503.62	-1790.86	  378.46
     45.8700	  477.00	  503.86	-1796.11	  378.41
     45.9700	  503.00	  504.13	-1770.38	  378.37
     46.0700	  504.00	  504.44	-1769.69	  378.33
     46.1700	  490.00	  504.78	-1784.03	  378.29
     46.2700	  495.00	  505.17	-1779.42	  378.25
     46.3700	  489.00	  505.60	-1785.85	  378.21
     46.4700	  520.00	  506.09	-1755.34	  378.18
     46.5700	  500.00	  506.65	-1775.90	  378.15
     46.6700	  538.00	  507.28	-1738.53	  378.12
     46.7700	  490.00	  508.02	-1787.27	  378.09
     46.8700	  492.00	  508.91	-1786.16	  378.06
     46.9700	  499.00	  510.07	-1780.32	  378.03
     47.0700	  483.00	  511.72	-1797.97	  378.01
     47.1700	  522.00	  514.35	-1761.60	  377.98
     47.2700	  474.00	  518.82	-1814.07	  377.96
     47.3700	  495.00	  526.30	-1800.55	  377.94
     47.4700	  533.00	  537.79	-1774.04	  377.92
     47.5700	  534.00	  553.61	-1788.86	  377.91
     47.6700	  586.00	  572.23	-1755.48	  377.89
     47.7700	  604.00	  589.75	-1755.00	  377.88
     47.8700	  606.00	  600.53	-1763.78	  377.87
     47.9700	  567.00	  600.12	-1802.37	  377.86
     48.0700	  582.00	  589.41	-1776.66	  377.85
     48.1700	  581.00	  574.00	-1762.25	  377.84
     48.2700	  564.00	  559.37	-1764.62	  377.83
     48.3700	  538.00	  548.72	-1779.97	  377.83
     48.4700	  524.00	  542.92	-1788.17	  377.83
     48.5700	  554.00	  541.36	-1756.61	  377.83
     48.6700	  528.00	  542.98	-1784.23	  377.83
     48.7700	  495.00	  546.88	-1821.13	  377.83
     48.8700	  563.00	  552.65	-1758.90	  377.83
     48.9700	  549.00	  560.40	-1780.65	  377.84
     49.0700	  533.00	  570.85	-1807.10	  377.85
     49.1700	  580.00	  585.75	-1775.00	  377.86
     49.2700	  615.00	  608.68	-1762.93	  377.87
     49.3700	  691.00	  646.44	-1724.69	  377.88
     49.4700	  691.00	  710.34	-1788.59	  377.89
     49.5700	  820.00	  816.72	-1765.97	  377.90
     49.6700	  934.00	  982.92	-1818.17	  377.92
     49.7700	 1072.00	 1222.31	-1919.56	  377.94
     49.8700	 1502.00	 1532.35	-1799.60	  377.96
     49.9700	 1892.00	 1883.37	-1760.62	  377.98
     50.0700	 2223.00	 2209.68	-1755.93	  378.00
     50.1700	 2443.00	 2414.63	-1740.88	  378.02
     50.2700	 2522.00	 2413.66	-1660.91	  378.05
     50.3700	 2286.00	 2205.05	-1688.30	  378.07
     50.4700	 1835.00	 1875.51	-1809.76	  378.10
     50.5700	 1410.00	 1525.64	-1884.89	  378.13
     50.6700	 1015.00	 1221.52	-1975.77	  378.16
     50.7700	  789.00	  991.68	-1971.93	  378.19
     50.8700	  696.00	  837.32	-1910.57	  378.23
     50.9700	  744.00	  743.40	-1768.65	  378.26
     51.0700	  632.00	  689.17	-1826.42	  378.30
     51.1700	  639.00	  655.87	-1786.12	  378.33
     51.2700	  604.00	  631.03	-1796.28	  378.37
     51.3700	  551.00	  609.52	-1827.77	  378.41
     51.4700	  564.00	  590.71	-1795.96	  378.46
     51.5700	  590.00	  575.23	-1754.48	  378.50
     51.6700	  636.00	  563.45	-1696.70	  378.54
     51.7700	  545.00	  555.11	-1779.36	  378.59
     51.8700	  557.00	  549.49	-1761.74	  378.64
     51.9700	  537.00	  545.80	-1778.05	  378.68
     52.0700	  592.00	  543.42	-1720.67	  378.73
     52.1700	  585.00	  542.02	-1726.27	  378.78
     52.2700	  538.00	  541.50	-1772.75	  378.84
     52.3700	  532.00	  542.18	-1779.43	  378.89
     52.4700	  551.00	  544.00	-1762.25	  378.95
     52.5700	  570.00	  548.16	-1747.41	  379.00
     52.6700	  602.00	  556.77	-1724.02	  379.06
     52.7700	  602.00	  573.75	-1741.00	  379.12
     52.8700	  620.00	  605.36	-1754.61	  379.18
     52.9700	  716.00	  659.50	-1712.75	  379.24
     53.0700	  786.00	  743.07	-1726.32	  379.30
     53.1700	  895.00	  857.32	-1731.57	  379.37
     53.2700	 1023.00	  992.53	-1738.78	  379.43
     53.3700	 1213.00	 1124.74	-1680.99	  379.50
     53.4700	 1154.00	 1217.75	-1833.00	  379.56
     53.5700	 1205.00	 1236.46	-1800.71	  379.63
     53.6700	 1078.00	 1172.11	-1863.36	  379.70
     53.7700	  952.00	 1051.26	-1868.51	  379.77
     53.8700	  853.00	  913.15	-1829.40	  379.85
     53.9700	  752.00	  787.98	-1805.23	  379.92
     54.0700	  684.00	  691.29	-1776.54	  379.99
     54.1700	  558.00	  625.81	-1837.06	  380.07
     54.2700	  607.00	  586.25	-1748.50	  380.15
     54.3700	  610.00	  564.54	-1723.79	  380.22
     54.4700	  548.00	  553.44	-1774.69	  380.30
     54.5700	  595.00	  548.08	-1722.33	  380.38
     54.6700	  563.00	  545.66	-1751.91	  380.46
     54.7700	  545.00	  544.81	-1769.06	  380.55
     54.8700	  549.00	  544.96	-1765.21	  380.63
     54.9700	  512.00	  545.87	-1803.12	  380.71
     55.0700	  519.00	  547.50	-1797.75	  380.80
     55.1700	  542.00	  549.84	-1777.09	  380.89
     55.2700	  562.00	  552.96	-1760.21	  380.97
     55.3700	  567.00	  557.01	-1759.26	  381.06
     55.4700	  554.00	  562.14	-1777.39	  381.15
     55.5700	  541.00	  568.76	-1797.01	  381.24
     55.6700	  553.00	  577.66	-1793.91	  381.33
     55.7700	  614.00	  590.44	-1745.69	  381.43
     55.8700	  594.00	  610.37	-1785.62	  381.52
     55.9700	  607.00	  643.59	-1805.84	  381.61
     56.0700	  664.00	  700.44	-1805.69	  381.71
     56.1700	  759.00	  796.08	-1806.33	  381.81
     56.2700	  884.00	  948.67	-1833.92	  381.90
     56.3700	 1090.00	 1174.21	-1853.46	  382.00
     56.4700	 1436.00	 1477.74	-1810.99	  382.10
     56.5700	 1715.00	 1843.20	-1897.45	  382.20
     56.6700	 2088.00	 2225.73	-1906.98	  382.30
     56.7700	 2410.00	 2549.15	-1908.40	  382.41
     56.8700	 2611.00	 2720.49	-1878.74	  382.51
     56.9700	 2677.00	 2676.19	-1768.44	  382.61
     57.0700	 2370.00	 2433.45	-1832.70	  382.72
     57.1700	 2080.00	 2076.02	-1765.27	  382.82
     57.2700	 1650.00	 1694.92	-1814.17	  382.93
     57.3700	 1279.00	 1354.12	-1844.37	  383.04
     57.4700	 1101.00	 1085.90	-1754.15	  383.15
     57.5700	  835.00	  896.65	-1830.90	  383.26
     57.6700	  759.00	  775.90	-1786.15	  383.36
     57.7700	  704.00	  706.64	-1771.89	  383.48
     57.8700	  708.00	  672.80	-1734.05	  383.59
     57.9700	  652.00	  663.14	-1780.39	  383.70
     58.0700	  686.00	  671.74	-1754.99	  383.81
     58.1700	  723.00	  696.69	-1742.94	  383.93
     58.2700	  818.00	  738.12	-1689.37	  384.04
     58.3700	  851.00	  796.36	-1714.61	  384.16
     58.4700	  975.00	  870.21	-1664.46	  384.27
     58.5700	 1071.00	  955.31	-1653.56	  384.39
     58.6700	 1194.00	 1043.56	-1618.81	  384.51
     58.7700	 1401.00	 1125.36	-1493.61	  384.62
     58.8700	 1589.00	 1193.78	-1374.03	  384.74
     58.9700	 1650.00	 1244.55	-1363.80	  384.86
     59.0700	 1607.00	 1272.04	-1434.29	  384.98
     59.1700	 1602.00	 1271.35	-1438.60	  385.10
     59.2700	 1466.00	 1246.27	-1549.52	  385.23
     59.3700	 1329.00	 1209.70	-1649.95	  385.35
     59.4700	 1298.00	 1174.93	-1646.18	  385.47
     59.5700	 1160.00	 1150.89	-1760.14	  385.59
     59.6700	 1103.00	 1144.66	-1810.91	  385.72
     59.7700	 1137.00	 1164.36	-1796.61	  385.84
     59.8700	 1214.00	 1215.39	-1770.64	  385.97
     59.9700	 1280.00	 1294.07	-1783.32	  386.09
     60.0700	 1513.00	 1384.61	-1640.86	  386.22
     60.1700	 1566.00	 1459.47	-1662.72	  386.35
     60.2700	 1667.00	 1486.39	-1588.64	  386.48
     60.3700	 1537.00	 1445.11	-1677.36	  386.60
     60.4700	 1435.00	 1341.94	-1676.19	  386.73
     60.5700	 1282.00	 1203.09	-1690.34	  386.86
     60.6700	 1085.00	 1056.88	-1741.13	  386.99
     60.7700	  953.00	  924.11	-1740.36	  387.12
     60.8700	  779.00	  816.47	-1806.72	  387.25
     60.9700	  682.00	  738.06	-1825.31	  387.38
     61.0700	  637.00	  687.80	-1820.05	  387.51
     61.1700	  620.00	  662.53	-1811.78	  387.65
     61.2700	  646.00	  659.69	-1782.94	  387.78
     61.3700	  656.00	  679.02	-1792.27	  387.91
     61.4700	  718.00	  722.68	-1773.93	  388.05
     61.5700	  752.00	  794.03	-1811.28	  388.18
     61.6700	  807.00	  895.15	-1857.40	  388.31
     61.7700	  950.00	 1023.79	-1843.04	  388.45
     61.8700	 1115.00	 1170.64	-1824.89	  388.58
     61.9700	 1262.00	 1317.52	-1824.77	  388.72
     62.0700	 1384.00	 1437.39	-1822.64	  388.85
     62.1700	 1364.00	 1499.57	-1904.82	  388.99
     62.2700	 1362.00	 1483.83	-1891.08	  389.13
     62.3700	 1273.00	 1394.87	-1891.12	  389.26
     62.4700	 1195.00	 1258.81	-1833.06	  389.40
     62.5700	 1019.00	 1106.21	-1856.46	  389.54
     62.6700	  891.00	  961.01	-1839.26	  389.67
     62.7700	  791.00	  837.78	-1816.03	  389.81
     62.8700	  707.00	  742.52	-1804.77	  389.95
     62.9700	  635.00	  674.67	-1808.92	  390.09
     63.0700	  618.00	  629.70	-1780.95	  390.23
     63.1700	  584.00	  601.70	-1786.95	  390.37
     63.2700	  562.00	  585.22	-1792.47	  390.51
     63.3700	  547.00	  576.23	-1798.48	  390.65
     63.4700	  577.00	  572.33	-1764.58	  390.78
     63.5700	  584.00	  572.61	-1757.86	  390.92
     63.6700	  644.00	  577.42	-1702.67	  391.06
     63.7700	  583.00	  588.18	-1774.43	  391.20
     63.8700	  630.00	  606.95	-1746.20	  391.34
     63.9700	  686.00	  636.01	-1719.26	  391.49
     64.0700	  649.00	  676.93	-1797.18	  391.63
     64.1700	  795.00	  729.66	-1703.91	  391.77
     64.2700	  830.00	  791.49	-1730.74	  391.91
     64.3700	  922.00	  856.38	-1703.63	  392.05
     64.4700	  960.00	  914.99	-1724.24	  392.19
     64.5700	 1004.00	  956.21	-1721.46	  392.33
     64.6700	 1018.00	  970.53	-1721.78	  392.47
     64.7700	 1022.00	  956.75	-1704.00	  392.61
     64.8700	  985.00	  919.27	-1703.52	  392.75
     64.9700	  963.00	  867.07	-1673.32	  392.90
     65.0700	  910.00	  810.04	-1669.29	  393.04
     65.1700	  803.00	  756.13	-1722.38	  393.18
     65.2700	  719.00	  709.82	-1760.07	  393.32
     65.3700	  677.00	  672.30	-1764.55	  393.46
     65.4700	  621.00	  642.64	-1790.89	  393.60
     65.5700	  625.00	  619.37	-1763.62	  393.74
     65.6700	  591.00	  601.27	-1779.52	  393.88
     65.7700	  561.00	  587.44	-1795.69	  394.03
     65.8700	  559.00	  577.22	-1787.47	  394.17
     65.9700	  558.00	  570.08	-1781.33	  394.31
     66.0700	  586.00	  565.58	-1748.83	  394.45
     66.1700	  533.00	  563.29	-1799.54	  394.59
     66.2700	  486.00	  562.81	-1846.06	  394.73
     66.3700	  575.00	  563.83	-1758.08	  394.87
     66.4700	  520.00	  566.17	-1815.42	  395.01
     66.5700	  588.00	  569.86	-1751.11	  395.15
     66.6700	  579.00	  575.25	-1765.50	  395.29
     66.7700	  556.00	  583.28	-1796.53	  395.43
     66.8700	  550.00	  595.42	-1814.67	  395.57
     66.9700	  575.00	  614.68	-1808.93	  395.71
     67.0700	  637.00	  645.72	-1777.97	  395.85
     67.1700	  698.00	  695.25	-1766.50	  395.99
     67.2700	  765.00	  771.83	-1776.08	  396.13
     67.3700	  894.00	  884.84	-1760.09	  396.27
     67.4700	  998.00	 1042.16	-1813.41	  396.41
     67.5700	 1244.00	 1246.60	-1771.85	  396.55
     67.6700	 1488.00	 1493.20	-1774.45	  396.69
     67.7700	 1789.00	 1765.33	-1745.58	  396.83
     67.8700	 2164.00	 2034.00	-1639.25	  396.96
     67.9700	 2282.00	 2258.41	-1745.66	  397.10
     68.0700	 2383.00	 2392.75	-1779.00	  397.24
     68.1700	 2438.00	 2402.69	-1733.94	  397.38
     68.2700	 2273.00	 2285.43	-1781.68	  397.51
     68.3700	 2066.00	 2071.68	-1774.93	  397.65
     68.4700	 1844.00	 1807.03	-1732.28	  397.78
     68.5700	 1587.00	 1533.58	-1715.83	  397.92
     68.6700	 1277.00	 1282.28	-1774.53	  398.06
     68.7700	 1068.00	 1071.53	-1772.78	  398.19
     68.8700	  859.00	  907.83	-1818.08	  398.33
     68.9700	  742.00	  789.29	-1816.54	  398.46
     69.0700	  707.00	  708.43	-1770.68	  398.59
     69.1700	  682.00	  656.01	-1743.26	  398.73
     69.2700	  662.00	  623.24	-1730.49	  398.86
     69.3700	  608.00	  603.09	-1764.34	  398.99
     69.4700	  605.00	  590.61	-1754.86	  399.12
     69.5700	  598.00	  582.64	-1753.89	  399.26
     69.6700	  548.00	  577.35	-1798.60	  399.39
     69.7700	  570.00	  573.71	-1772.96	  399.52
     69.8700	  586.00	  571.19	-1754.44	  399.65
     69.9700	  607.00	  569.53	-1731.78	  399.78
     70.0700	  605.00	  568.60	-1732.85	  399.91
     70.1700	  587.00	  568.34	-1750.59	  400.04
     70.2700	  588.00	  568.80	-1750.05	  400.16
     70.3700	  513.00	  570.03	-1826.28	  400.29
     70.4700	  556.00	  572.27	-1785.52	  400.42
     70.5700	  599.00	  575.98	-1746.23	  400.55
     70.6700	  609.00	  581.99	-1742.24	  400.67
     70.7700	  567.00	  591.77	-1794.02	  400.80
     70.8700	  612.00	  607.70	-1764.95	  400.92
     70.9700	  634.00	  633.30	-1768.55	  401.05
     71.0700	  722.00	  673.38	-1720.63	  401.17
     71.1700	  659.00	  733.73	-1843.98	  401.29
     71.2700	  787.00	  820.31	-1802.56	  401.42
     71.3700	  896.00	  937.74	-1810.99	  401.54
     71.4700	  997.00	 1088.22	-1860.47	  401.66
     71.5700	 1192.00	 1266.13	-1843.38	  401.78
     71.6700	 1374.00	 1461.56	-1856.81	  401.90
     71.7700	 1606.00	 1656.29	-1819.54	  402.02
     71.8700	 1879.00	 1825.15	-1715.40	  402.14
     71.9700	 1914.00	 1939.26	-1794.51	  402.26
     72.0700	 1936.00	 1974.22	-1807.47	  402.37
     72.1700	 1911.00	 1921.74	-1779.99	  402.49
     72.2700	 1837.00	 1794.62	-1726.87	  402.60
     72.3700	 1613.00	 1618.86	-1775.11	  402.72
     72.4700	 1526.00	 1423.79	-1667.04	  402.83
     72.5700	 1330.00	 1232.58	-1671.83	  402.95
     72.6700	 1162.00	 1061.53	-1668.78	  403.06
     72.7700	 1098.00	  919.46	-1590.71	  403.17
     72.8700	  994.00	  808.79	-1584.04	  403.28
     72.9700	  881.00	  727.22	-1615.47	  403.39
     73.0700	  817.00	  669.87	-1622.12	  403.50
     73.1700	  784.00	  630.97	-1616.22	  403.61
     73.2700	  724.00	  605.20	-1650.45	  403.72
     73.3700	  685.00	  588.26	-1672.51	  403.83
     73.4700	  618.00	  577.07	-1728.32	  403.93
     73.5700	  614.00	  569.58	-1724.83	  404.04
     73.6700	  598.00	  564.54	-1735.79	  404.14
     73.7700	  618.00	  561.22	-1712.47	  404.25
     73.8700	  599.00	  559.21	-1729.46	  404.35
     73.9700	  581.00	  558.26	-1746.51	  404.45
     74.0700	  577.00	  558.18	-1750.43	  404.55
     74.1700	  589.00	  558.78	-1739.03	  404.65
     74.2700	  621.00	  559.83	-1708.08	  404.75
     74.3700	  618.00	  561.05	-1712.30	  404.85
     74.4700	  627.00	  562.07	-1704.32	  404.95
     74.5700	  615.00	  562.56	-1716.81	  405.05
     74.6700	  647.00	  562.22	-1684.47	  405.14
     74.7700	  628.00	  560.98	-1702.23	  405.24
     74.8700	  648.00	  559.00	-1680.25	  405.33
     74.9700	  631.00	  556.62	-1694.87	  405.42
     75.0700	  598.00	  554.24	-1725.49	  405.52
     75.1700	  557.00	  552.22	-1764.47	  405.61
     75.2700	  541.00	  551.03	-1779.28	  405.70
     75.3700	  581.00	  550.98	-1739.23	  405.79
     75.4700	  529.00	  552.64	-1792.89	  405.87
     75.5700	  563.00	  556.42	-1762.67	  405.96
     75.6700	  568.00	  562.76	-1764.01	  406.05
     75.7700	  556.00	  572.33	-1785.58	  406.13
     75.8700	  605.00	  585.34	-1749.59	  406.21
     75.9700	  601.00	  601.79	-1770.04	  406.30
     76.0700	  593.00	  621.18	-1797.43	  406.38
     76.1700	  601.00	  642.42	-1810.67	  406.46
     76.2700	  601.00	  663.78	-1832.03	  406.54
     76.3700	  663.00	  682.91	-1789.16	  406.62
     76.4700	  659.00	  697.09	-1807.34	  406.69
     76.5700	  682.00	  703.81	-1791.06	  406.77
     76.6700	  686.00	  701.69	-1784.94	  406.85
     76.7700	  687.00	  691.13	-1773.38	  406.92
     76.8700	  658.00	  674.15	-1785.40	  406.99
     76.9700	  645.00	  653.27	-1777.52	  407.06
     77.0700	  630.00	  631.44	-1770.69	  407.13
     77.1700	  616.00	  610.52	-1763.77	  407.20
     77.2700	  588.00	  591.96	-1773.21	  407.27
     77.3700	  534.00	  576.53	-1811.78	  407.34
     77.4700	  527.00	  564.43	-1806.68	  407.41
     77.5700	  525.00	  555.44	-1799.69	  407.47
     77.6700	  517.00	  549.06	-1801.31	  407.53
     77.7700	  540.00	  544.73	-1773.98	  407.60
     77.8700	  512.00	  541.89	-1799.14	  407.66
     77.9700	  504.00	  540.07	-1805.32	  407.72
     78.0700	  513.00	  538.92	-1795.17	  407.78
     78.1700	  523.00	  538.20	-1784.45	  407.83
     78.2700	  575.00	  537.75	-1732.00	  407.89
     78.3700	  511.00	  537.47	-1795.72	  407.95
     78.4700	  560.00	  537.32	-1746.57	  408.00
     78.5700	  525.00	  537.26	-1781.51	  408.05
     78.6700	  524.00	  537.29	-1782.54	  408.10
     78.7700	  515.00	  537.41	-1791.66	  408.15
     78.8700	  523.00	  537.65	-1783.90	  408.20
     78.9700	  561.00	  538.02	-1746.27	  408.25
     79.0700	  557.00	  538.57	-1750.82	  408.30
     79.1700	  546.00	  539.34	-1762.59	  408.34
     79.2700	  521.00	  540.39	-1788.64	  408.38
     79.3700	  528.00	  541.60	-1782.85	  408.43
     79.4700	  537.00	  543.40	-1775.65	  408.47
     79.5700	  519.00	  545.69	-1795.94	  408.51
     79.6700	  521.00	  548.58	-1796.83	  408.55
     79.7700	  532.00	  552.19	-1789.44	  408.58
     79.8700	  506.00	  556.67	-1819.92	  408.62
     79.9700	  514.00	  562.22	-1817.47	  408.65
     80.0700	  540.00	  569.07	-1798.32	  408.69
     80.1700	  559.00	  577.51	-1787.76	  408.72
     80.2700	  565.00	  587.81	-1792.06	  408.75
     80.3700	  574.00	  600.21	-1795.46	  408.78
     80.4700	  573.00	  614.76	-1811.01	  408.81
     80.5700	  602.00	  631.25	-1798.50	  408.83
     80.6700	  671.00	  649.14	-1747.39	  408.86
     80.7700	  671.00	  667.52	-1765.77	  408.88
     80.8700	  675.00	  685.15	-1779.40	  408.90
     80.9700	  692.00	  700.65	-1777.90	  408.92
     81.0700	  707.00	  712.76	-1775.01	  408.94
     81.1700	  713.00	  720.60	-1776.85	  408.96
     81.2700	  737.00	  723.66	-1755.91	  408.98
     81.3700	  751.00	  721.83	-1740.08	  408.99
     81.4700	  754.00	  715.40	-1730.65	  409.01
     81.5700	  732.00	  704.99	-1742.24	  409.02
     81.6700	  710.00	  691.45	-1750.70	  409.03
     81.7700	  726.00	  675.65	-1718.90	  409.04
     81.8700	  718.00	  658.55	-1709.80	  409.05
     81.9700	  711.00	  641.11	-1699.36	  409.05
     82.0700	  715.00	  624.34	-1678.59	  409.06
     82.1700	  715.00	  608.89	-1663.14	  409.06
     82.2700	  649.00	  595.21	-1715.46	  409.06
     82.3700	  623.00	  583.50	-1729.75	  409.06
     82.4700	  591.00	  573.81	-1752.06	  409.06
     82.5700	  580.00	  566.08	-1755.33	  409.06
     82.6700	  589.00	  560.23	-1740.48	  409.06
     82.7700	  612.00	  556.11	-1713.36	  409.05
     82.8700	  569.00	  553.57	-1753.82	  409.05
     82.9700	  538.00	  552.50	-1783.75	  409.04
     83.0700	  544.00	  552.79	-1778.04	  409.03
     83.1700	  503.00	  554.35	-1820.60	  409.02
     83.2700	  527.00	  557.04	-1799.29	  409.00
     83.3700	  575.00	  560.74	-1754.99	  408.99
     83.4700	  544.00	  565.19	-1790.44	  408.97
     83.5700	  568.00	  570.11	-1771.36	  408.96
     83.6700	  573.00	  575.10	-1771.35	  408.94
     83.7700	  525.00	  579.65	-1823.90	  408.92
     83.8700	  545.00	  583.25	-1807.50	  408.90
     83.9700	  557.00	  585.36	-1797.61	  408.87
     84.0700	  565.00	  585.63	-1789.88	  408.85
     84.1700	  550.00	  583.96	-1803.21	  408.82
     84.2700	  580.00	  580.60	-1769.85	  408.79
     84.3700	  556.00	  575.99	-1789.24	  408.77
     84.4700	  496.00	  570.66	-1843.91	  408.73
     84.5700	  559.00	  565.08	-1775.33	  408.70
     84.6700	  525.00	  559.67	-1803.92	  408.67
     84.7700	  531.00	  554.71	-1792.96	  408.63
     84.8700	  506.00	  550.40	-1813.65	  408.59
     84.9700	  516.00	  546.84	-1800.09	  408.56
     85.0700	  512.00	  544.03	-1801.28	  408.52
     85.1700	  530.00	  541.93	-1781.18	  408.47
     85.2700	  534.00	  540.47	-1775.72	  408.43
     85.3700	  502.00	  539.55	-1806.80	  408.39
     85.4700	  516.00	  539.09	-1792.34	  408.34
     85.5700	  530.00	  539.01	-1778.26	  408.29
     85.6700	  521.00	  539.26	-1787.51	  408.24
     85.7700	  486.00	  539.82	-1823.07	  408.19
     85.8700	  522.00	  540.69	-1787.94	  408.14
     85.9700	  515.00	  541.91	-1796.16	  408.08
     86.0700	  531.00	  543.54	-1781.79	  408.03
     86.1700	  504.00	  545.68	-1810.93	  407.97
     86.2700	  567.00	  548.45	-1750.70	  407.91
     86.3700	  512.00	  551.99	-1809.24	  407.85
     86.4700	  549.00	  556.45	-1776.70	  407.79
     86.5700	  539.00	  561.94	-1792.19	  407.72
     86.6700	  583.00	  568.53	-1754.78	  407.66
     86.7700	  604.00	  575.87	-1741.12	  407.59
     86.8700	  626.00	  584.39	-1727.64	  407.52
     86.9700	  614.00	  593.42	-1748.67	  407.45
     87.0700	  603.00	  602.44	-1768.69	  407.38
     87.1700	  660.00	  610.77	-1720.02	  407.31
     87.2700	  672.00	  617.65	-1714.90	  407.23
     87.3700	  634.00	  622.31	-1757.56	  407.16
     87.4700	  680.00	  624.13	-1713.38	  407.08
     87.5700	  694.00	  622.88	-1698.13	  407.00
     87.6700	  633.00	  618.77	-1755.02	  406.92
     87.7700	  650.00	  612.40	-1731.65	  406.84
     87.8700	  617.00	  604.63	-1756.88	  406.75
     87.9700	  628.00	  596.34	-1737.59	  406.67
     88.0700	  609.00	  588.35	-1748.60	  406.58
     88.1700	  617.00	  581.39	-1733.64	  406.49
     88.2700	  581.00	  575.99	-1764.24	  406.40
     88.3700	  595.00	  572.53	-1746.78	  406.31
     88.4700	  614.00	  571.22	-1726.47	  406.21
     88.5700	  571.00	  572.06	-1770.31	  406.12
     88.6700	  557.00	  574.90	-1787.15	  406.02
     88.7700	  590.00	  579.44	-1758.69	  405.92
     88.8700	  605.00	  585.24	-1749.49	  405.82
     88.9700	  598.00	  591.76	-1763.01	  405.72
     89.0700	  618.00	  598.36	-1749.61	  405.62
     89.1700	  622.00	  604.34	-1751.59	  405.51
     89.2700	  635.00	  608.99	-1743.24	  405.40
     89.3700	  622.00	  611.67	-1758.92	  405.30
     89.4700	  634.00	  611.98	-1747.23	  405.19
     89.5700	  584.00	  609.82	-1795.07	  405.07
     89.6700	  588.00	  605.43	-1786.68	  404.96
     89.7700	  580.00	  599.33	-1788.58	  404.85
     89.8700	  529.00	  592.12	-1832.37	  404.73
     89.9700	  556.00	  584.39	-1797.64	  404.61
     90.0700	  546.00	  576.66	-1799.91	  404.49
     90.1700	  505.00	  569.35	-1833.60	  404.37
     90.2700	  546.00	  562.75	-1786.00	  404.25
     90.3700	  484.00	  557.06	-1842.31	  404.13
     90.4700	  588.00	  552.33	-1733.58	  404.00
     90.5700	  523.00	  548.57	-1794.82	  403.88
     90.6700	  548.00	  545.71	-1766.96	  403.75
     90.7700	  559.00	  543.64	-1753.89	  403.62
     90.8700	  512.00	  542.25	-1799.50	  403.49
     90.9700	  532.00	  541.42	-1778.67	  403.35
     91.0700	  493.00	  541.06	-1817.31	  403.22
     91.1700	  516.00	  541.13	-1794.38	  403.08
     91.2700	  494.00	  541.61	-1816.86	  402.95
     91.3700	  511.00	  542.52	-1800.77	  402.81
     91.4700	  497.00	  543.92	-1816.17	  402.67
     91.5700	  512.00	  545.93	-1803.18	  402.52
     91.6700	  548.00	  548.70	-1769.95	  402.38
     91.7700	  539.00	  552.39	-1782.64	  402.23
     91.8700	  555.00	  557.00	-1771.25	  402.09
     91.9700	  563.00	  563.14	-1769.39	  401.94
     92.0700	  518.00	  570.77	-1822.02	  401.79
     92.1700	  558.00	  580.02	-1791.27	  401.64
     92.2700	  599.00	  590.93	-1761.18	  401.49
     92.3700	  558.00	  603.44	-1814.69	  401.33
     92.4700	  582.00	  617.40	-1804.65	  401.18
     92.5700	  645.00	  632.50	-1756.75	  401.02
     92.6700	  677.00	  648.33	-1740.57	  400.86
     92.7700	  664.00	  664.32	-1769.57	  400.70
     92.8700	  710.00	  679.86	-1739.11	  400.54
     92.9700	  689.00	  694.28	-1774.53	  400.38
     93.0700	  756.00	  707.05	-1720.30	  400.21
     93.1700	  760.00	  717.90	-1727.15	  400.05
     93.2700	  786.00	  726.91	-1710.16	  399.88
     93.3700	  781.00	  734.53	-1722.78	  399.71
     93.4700	  802.00	  741.43	-1708.68	  399.54
     93.5700	  819.00	  748.29	-1698.54	  399.37
     93.6700	  883.00	  755.77	-1642.02	  399.20
     93.7700	  812.00	  764.41	-1721.66	  399.02
     93.8700	  821.00	  774.68	-1722.93	  398.85
     93.9700	  797.00	  786.96	-1759.21	  398.67
     94.0700	  875.00	  801.51	-1695.76	  398.49
     94.1700	  902.00	  818.37	-1685.62	  398.31
     94.2700	  908.00	  837.19	-1698.44	  398.13
     94.3700	  883.00	  857.23	-1743.48	  397.95
     94.4700	  874.00	  877.28	-1772.53	  397.77
     94.5700	  888.00	  895.74	-1776.99	  397.58
     94.6700	  903.00	  910.74	-1776.99	  397.39
     94.7700	  901.00	  920.32	-1788.57	  397.21
     94.8700	  963.00	  922.86	-1729.11	  397.02
     94.9700	  857.00	  917.44	-1829.69	  396.83
     95.0700	  928.00	  904.13	-1745.38	  396.63
     95.1700	  892.00	  883.99	-1761.24	  396.44
     95.2700	  847.00	  858.74	-1780.99	  396.25
     95.3700	  830.00	  830.44	-1769.69	  396.05
     95.4700	  731.00	  801.17	-1839.42	  395.85
     95.5700	  730.00	  772.94	-1812.19	  395.66
     95.6700	  736.00	  747.54	-1780.79	  395.46
     95.7700	  689.00	  726.62	-1806.87	  395.26
     95.8700	  739.00	  711.63	-1741.88	  395.05
     95.9700	  701.00	  703.84	-1772.09	  394.85
     96.0700	  702.00	  704.36	-1771.61	  394.65
     96.1700	  745.00	  714.12	-1738.37	  394.44
     96.2700	  706.00	  733.84	-1797.09	  394.23
     96.3700	  723.00	  764.02	-1810.27	  394.03
     96.4700	  754.00	  804.78	-1820.03	  393.82
     96.5700	  843.00	  855.87	-1782.12	  393.61
     96.6700	  897.00	  916.45	-1788.70	  393.40
     96.7700	  950.00	  985.09	-1804.34	  393.18
     96.8700	 1069.00	 1059.67	-1759.92	  392.97
     96.9700	 1070.00	 1137.31	-1836.56	  392.75
     97.0700	 1235.00	 1214.50	-1748.75	  392.54
     97.1700	 1291.00	 1287.09	-1765.34	  392.32
     97.2700	 1326.00	 1350.55	-1793.80	  392.10
     97.3700	 1447.00	 1400.35	-1722.60	  391.88
     97.4700	 1456.00	 1432.50	-1745.75	  391.66
     97.5700	 1390.00	 1444.34	-1823.59	  391.44
     97.6700	 1401.00	 1435.13	-1803.38	  391.22
     97.7700	 1457.00	 1406.19	-1718.44	  391.00
     97.8700	 1310.00	 1360.51	-1819.76	  390.77
     97.9700	 1272.00	 1302.09	-1799.34	  390.55
     98.0700	 1250.00	 1235.36	-1754.61	  390.32
     98.1700	 1121.00	 1164.63	-1812.88	  390.09
     98.2700	 1094.00	 1093.92	-1769.17	  389.86
     98.3700	 1069.00	 1026.72	-1726.97	  389.63
     98.4700	  921.00	  965.97	-1814.22	  389.40
     98.5700	  874.00	  914.03	-1809.28	  389.17
     98.6700	  876.00	  872.74	-1765.99	  388.94
     98.7700	  814.00	  843.46	-1798.71	  388.70
     98.8700	  763.00	  827.16	-1833.41	  388.47
     98.9700	  809.00	  824.50	-1784.75	  388.24
     99.0700	  777.00	  835.92	-1828.17	  388.00
     99.1700	  797.00	  861.63	-1833.88	  387.76
     99.2700	  866.00	  901.65	-1804.90	  387.52
     99.3700	  921.00	  955.77	-1804.02	  387.29
     99.4700	 1005.00	 1023.48	-1787.73	  387.05
     99.5700	 1105.00	 1103.91	-1768.16	  386.81
     99.6700	 1128.00	 1195.73	-1836.98	  386.57
     99.7700	 1259.00	 1296.99	-1807.24	  386.32
     99.8700	 1387.00	 1405.11	-1787.36	  386.08
     99.9700	 1527.00	 1516.77	-1759.02	  385.84
    100.0700	 1626.00	 1628.03	-1771.28	  385.59
    100.1700	 1752.00	 1734.42	-1751.67	  385.35
    100.2700	 1865.00	 1831.39	-1735.64	  385.10
    100.3700	 1935.00	 1914.85	-1749.10	  384.86
    100.4700	 2100.00	 1981.48	-1650.73	  384.61
    100.5700	 2035.00	 2029.01	-1763.26	  384.36
    100.6700	 2118.00	 2055.97	-1707.22	  384.11
    100.7700	 2058.00	 2061.49	-1772.74	  383.86
    100.8700	 2117.00	 2045.32	-1697.57	  383.61
    100.9700	 2096.00	 2007.96	-1681.21	  383.36
    101.0700	 2083.00	 1951.08	-1637.33	  383.11
    101.1700	 1916.00	 1877.74	-1730.99	  382.86
    101.2700	 1885.00	 1792.24	-1676.49	  382.61
    101.3700	 1743.00	 1699.59	-1725.84	  382.36
    101.4700	 1606.00	 1604.90	-1768.15	  382.11
    101.5700	 1463.00	 1512.79	-1819.04	  381.85
    101.6700	 1423.00	 1427.09	-1773.34	  381.60
    101.7700	 1372.00	 1350.63	-1747.88	  381.34
    101.8700	 1269.00	 1285.13	-1785.38	  381.09
    101.9700	 1297.00	 1231.25	-1703.50	  380.83
    102.0700	 1183.00	 1188.58	-1774.83	  380.58
    102.1700	 1147.00	 1155.83	-1778.08	  380.32
    102.2700	 1182.00	 1130.97	-1718.22	  380.06
    102.3700	 1083.00	 1111.44	-1797.69	  379.81
    102.4700	 1117.00	 1094.42	-1746.67	  379.55
    102.5700	 1087.00	 1077.19	-1759.44	  379.29
    102.6700	 1084.00	 1057.50	-1742.75	  379.03
    102.7700	 1070.00	 1033.82	-1733.07	  378.78
    102.8700	  986.00	 1005.50	-1788.75	  378.52
    102.9700	  966.00	  972.73	-1775.98	  378.26
    103.0700	  962.00	  936.27	-1743.52	  378.00
    103.1700	  892.00	  897.28	-1774.53	  377.74
    103.2700	  808.00	  857.01	-1818.26	  377.48
    103.3700	  855.00	  816.76	-1731.01	  377.22
    103.4700	  729.00	  777.70	-1817.95	  376.96
    103.5700	  733.00	  740.82	-1777.07	  376.70
    103.6700	  704.00	  706.91	-1772.16	  376.44
    103.7700	  683.00	  676.50	-1762.75	  376.18
    103.8700	  618.00	  649.91	-1801.16	  375.92
    103.9700	  629.00	  627.23	-1767.48	  375.66
    104.0700	  597.00	  608.39	-1780.64	  375.40
    104.1700	  609.00	  593.14	-1753.39	  375.14
    104.2700	  588.00	  581.17	-1762.42	  374.88
    104.3700	  569.00	  572.09	-1772.34	  374.62
    104.4700	  577.00	  565.50	-1757.75	  374.36
    104.5700	  541.00	  561.00	-1789.25	  374.10
    104.6700	  581.00	  558.23	-1746.48	  373.84
    104.7700	  559.00	  556.84	-1767.09	  373.58
    104.8700	  549.00	  556.55	-1776.80	  373.32
    104.9700	  542.00	  557.11	-1784.36	  373.06
    105.0700	  577.00	  558.32	-1750.57	  372.80
    105.1700	  523.00	  560.04	-1806.29	  372.54
    105.2700	  494.00	  562.14	-1837.39	  372.28
    105.3700	  523.00	  564.53	-1810.78	  372.02
    105.4700	  538.00	  567.22	-1798.47	  371.76
    105.5700	  560.00	  570.19	-1779.44	  371.51
    105.6700	  515.00	  573.53	-1827.78	  371.25
    105.7700	  545.00	  577.32	-1801.57	  370.99
    105.8700	  559.00	  581.70	-1791.95	  370.73
    105.9700	  560.00	  586.78	-1796.03	  370.48
    106.0700	  587.00	  592.68	-1774.93	  370.22
    106.1700	  549.00	  599.46	-1819.71	  369.96
    106.2700	  602.00	  607.12	-1774.37	  369.71
    106.3700	  591.00	  615.60	-1793.85	  369.45
    106.4700	  619.00	  624.76	-1775.01	  369.20
    106.5700	  635.00	  634.40	-1768.65	  368.94
    106.6700	  619.00	  644.23	-1794.48	  368.69
    106.7700	  649.00	  653.91	-1774.16	  368.44
    106.8700	  601.00	  663.07	-1831.32	  368.19
    106.9700	  687.00	  671.29	-1753.54	  367.93
    107.0700	  677.00	  678.20	-1770.45	  367.68
    107.1700	  714.00	  683.48	-1738.73	  367.43
    107.2700	  685.00	  686.95	-1771.20	  367.18
    107.3700	  667.00	  688.59	-1790.84	  366.93
    107.4700	  632.00	  688.57	-1825.82	  366.68
    107.5700	  665.00	  687.20	-1791.45	  366.44
    107.6700	  701.00	  684.91	-1753.16	  366.19
    107.7700	  641.00	  682.15	-1810.40	  365.94
    107.8700	  722.00	  679.35	-1726.60	  365.70
    107.9700	  673.00	  676.88	-1773.13	  365.46
    108.0700	  673.00	  675.02	-1771.27	  365.21
    108.1700	  698.00	  673.94	-1745.19	  364.97
    108.2700	  714.00	  673.67	-1728.92	  364.73
    108.3700	  667.00	  674.15	-1776.40	  364.49
    108.4700	  671.00	  675.16	-1773.41	  364.25
    108.5700	  636.00	  676.44	-1809.69	  364.01
    108.6700	  681.00	  677.60	-1765.85	  363.77
    108.7700	  708.00	  678.25	-1739.50	  363.54
    108.8700	  645.00	  677.98	-1802.23	  363.30
    108.9700	  673.00	  676.42	-1772.67	  363.07
    109.0700	  699.00	  673.35	-1743.60	  362.84
    109.1700	  655.00	  668.65	-1782.90	  362.61
    109.2700	  667.00	  662.36	-1764.61	  362.38
    109.3700	  671.00	  654.65	-1752.90	  362.15
    109.4700	  648.00	  645.79	-1767.04	  361.92
    109.5700	  627.00	  636.10	-1778.35	  361.69
    109.6700	  622.00	  625.91	-1773.16	  361.47
    109.7700	  645.00	  615.56	-1739.81	  361.25
    109.8700	  568.00	  605.35	-1806.60	  361.02
    109.9700	  608.00	  595.57	-1756.82	  360.80
    110.0700	  556.00	  586.44	-1799.69	  360.59
    110.1700	  581.00	  578.12	-1766.37	  360.37
    110.2700	  586.00	  570.73	-1753.98	  360.15
    110.3700	  583.00	  564.36	-1750.61	  359.94
    110.4700	  562.00	  559.01	-1766.26	  359.73
    110.5700	  506.00	  554.67	-1817.92	  359.52
    110.6700	  534.00	  551.29	-1786.54	  359.31
    110.7700	  542.00	  548.79	-1776.04	  359.10
    110.8700	  529.00	  547.09	-1787.34	  358.89
    110.9700	  540.00	  546.09	-1775.34	  358.69
    111.0700	  480.00	  545.72	-1834.97	  358.49
    111.1700	  552.00	  545.87	-1763.12	  358.29
    111.2700	  513.00	  546.47	-1802.72	  358.09
    111.3700	  536.00	  547.45	-1780.70	  357.89
    111.4700	  534.00	  548.76	-1784.01	  357.70
    111.5700	  563.00	  550.36	-1756.61	  357.51
    111.6700	  564.00	  552.20	-1757.45	  357.32
    111.7700	  583.00	  554.26	-1740.51	  357.13
    111.8700	  558.00	  556.54	-1767.79	  356.94
    111.9700	  560.00	  559.02	-1768.27	  356.76
    112.0700	  565.00	  561.72	-1765.97	  356.57
    112.1700	  568.00	  564.63	-1765.88	  356.39
    112.2700	  564.00	  567.79	-1773.04	  356.22
    112.3700	  572.00	  571.23	-1768.48	  356.04
    112.4700	  639.00	  574.98	-1705.23	  355.87
    112.5700	  571.00	  579.09	-1777.34	  355.70
    112.6700	  616.00	  583.64	-1736.89	  355.53
    112.7700	  675.00	  588.71	-1682.96	  355.36
    112.8700	  627.00	  594.42	-1736.67	  355.20
    112.9700	  687.00	  600.91	-1683.16	  355.04
    113.0700	  729.00	  608.36	-1648.61	  354.88
    113.1700	  709.00	  617.06	-1677.31	  354.73
    113.2700	  783.00	  627.30	-1613.55	  354.57
    113.3700	  776.00	  639.50	-1632.75	  354.42
    113.4700	  790.00	  654.16	-1633.41	  354.27
    113.5700	  795.00	  671.94	-1646.19	  354.13
    113.6700	  869.00	  693.64	-1593.89	  353.99
    113.7700	  931.00	  720.21	-1558.46	  353.85
    113.8700	  962.00	  752.81	-1560.06	  353.71
    113.9700	 1028.00	  792.81	-1534.06	  353.57
    114.0700	 1047.00	  841.78	-1564.03	  353.44
    114.1700	 1146.00	  901.53	-1524.78	  353.31
    114.2700	 1256.00	  974.04	-1487.29	  353.19
    114.3700	 1275.00	 1061.47	-1555.72	  353.07
    114.4700	 1324.00	 1166.08	-1611.33	  352.95
    114.5700	 1451.00	 1290.20	-1608.45	  352.83
    114.6700	 1588.00	 1436.13	-1617.38	  352.72
    114.7700	 1742.00	 1605.97	-1633.22	  352.61
    114.8700	 1910.00	 1801.53	-1660.78	  352.50
    114.9700	 2098.00	 2024.17	-1695.42	  352.40
    115.0700	 2325.00	 2274.68	-1718.93	  352.30
    115.1700	 2570.00	 2553.14	-1752.39	  352.20
    115.2700	 2790.00	 2858.66	-1837.91	  352.11
    115.3700	 3006.00	 3189.34	-1952.59	  352.02
    115.4700	 3439.00	 3542.12	-1872.37	  351.93
    115.5700	 3783.00	 3912.85	-1899.10	  351.85
    115.6700	 4226.00	 4296.18	-1839.43	  351.77
    115.7700	 4398.00	 4685.42	-2056.67	  351.69
    115.8700	 4812.00	 5072.75	-2030.00	  351.62
    115.9700	 5140.00	 5449.24	-2078.49	  351.55
    116.0700	 5453.00	 5805.12	-2121.37	  351.49
    116.1700	 5952.00	 6129.96	-1947.21	  351.43
    116.2700	 6260.00	 6412.93	-1922.18	  351.37
    116.3700	 6552.00	 6643.60	-1860.85	  351.31
    116.4700	 6668.00	 6812.56	-1913.81	  351.26
    116.5700	 6941.00	 6912.53	-1740.78	  351.22
    116.6700	 6934.00	 6938.98	-1774.23	  351.18
    116.7700	 7077.00	 6890.82	-1583.07	  351.14
    116.8700	 6922.00	 6770.57	-1617.82	  351.10
    116.9700	 6874.00	 6584.03	-1479.28	  351.07
    117.0700	 6377.00	 6339.43	-1731.68	  351.05
    117.1700	 6159.00	 6046.61	-1656.86	  351.03
    117.2700	 5664.00	 5716.21	-1821.46	  351.01
    117.3700	 5295.00	 5358.87	-1833.12	  351.00
    117.4700	 5007.00	 4984.82	-1747.07	  350.99
    117.5700	 4669.00	 4603.36	-1703.61	  350.99
    117.6700	 4196.00	 4222.77	-1796.02	  350.99
    117.7700	 3998.00	 3850.29	-1621.54	  350.99
    117.8700	 3718.00	 3491.92	-1543.17	  351.00
    117.9700	 3283.00	 3152.46	-1638.71	  351.01
    118.0700	 2928.00	 2835.40	-1676.65	  351.03
    118.1700	 2590.00	 2543.14	-1722.39	  351.05
    118.2700	 2311.00	 2277.08	-1735.33	  351.08
    118.3700	 2007.00	 2037.72	-1799.97	  351.11
    118.4700	 1814.00	 1824.74	-1779.99	  351.15
    118.5700	 1554.00	 1637.18	-1852.43	  351.19
    118.6700	 1393.00	 1473.58	-1849.83	  351.24
    118.7700	 1172.00	 1332.16	-1929.41	  351.29
    118.8700	 1109.00	 1210.91	-1871.16	  351.35
    118.9700	 1001.00	 1107.73	-1875.98	  351.41
    119.0700	  869.00	 1020.48	-1920.73	  351.48
    119.1700	  867.00	  947.08	-1849.33	  351.55
    119.2700	  766.00	  885.60	-1888.85	  351.63
    119.3700	  776.00	  834.28	-1827.53	  351.71
    119.4700	  667.00	  791.54	-1893.79	  351.80
    119.5700	  697.00	  755.98	-1828.23	  351.89
    119.6700	  617.00	  726.40	-1878.65	  351.99
    119.7700	  643.00	  701.78	-1828.03	  352.09
    119.8700	  643.00	  681.27	-1807.52	  352.20
    119.9700	  632.00	  664.16	-1801.41	  352.32
    120.0700	  576.00	  649.87	-1843.12	  352.44
    120.1700	  589.00	  637.92	-1818.17	  352.56
    120.2700	  585.00	  627.94	-1812.19	  352.70
    120.3700	  612.00	  619.61	-1776.86	  352.83
    120.4700	  584.00	  612.71	-1797.96	  352.98
    120.5700	  570.00	  607.03	-1806.28	  353.13
    120.6700	  575.00	  602.42	-1796.67	  353.28
    120.7700	  558.00	  598.77	-1810.02	  353.44
    120.8700	  561.00	  595.99	-1804.24	  353.61
    120.9700	  611.00	  594.00	-1752.25	  353.78
    121.0700	  497.00	  592.75	-1865.00	  353.96
    121.1700	  574.00	  592.18	-1787.43	  354.15
    121.2700	  595.00	  592.25	-1766.50	  354.34
    121.3700	  553.00	  592.91	-1809.16	  354.54
    121.4700	  610.00	  594.13	-1753.38	  354.74
    121.5700	  581.00	  595.84	-1784.09	  354.95
    121.6700	  572.00	  598.01	-1795.26	  355.17
    121.7700	  578.00	  600.55	-1791.80	  355.39
    121.8700	  639.00	  603.39	-1733.64	  355.62
    121.9700	  614.00	  606.47	-1761.72	  355.86
    122.0700	  560.00	  609.70	-1818.95	  356.10
    122.1700	  618.00	  612.97	-1764.22	  356.35
    122.2700	  670.00	  616.18	-1715.43	  356.61
    122.3700	  554.00	  619.23	-1834.48	  356.87
    122.4700	  605.00	  622.00	-1786.25	  357.14
    122.5700	  622.00	  624.40	-1771.65	  357.42
    122.6700	  645.00	  626.33	-1750.58	  357.70
    122.7700	  665.00	  627.71	-1731.96	  357.99
    122.8700	  637.00	  628.49	-1760.74	  358.29
    122.9700	  678.00	  628.64	-1719.89	  358.60
    123.0700	  645.00	  628.14	-1752.39	  358.91
    123.1700	  677.00	  627.03	-1719.28	  359.23
    123.2700	  670.00	  625.34	-1724.59	  359.56
    123.3700	  667.00	  623.14	-1725.39	  359.89
    123.4700	  661.00	  620.49	-1728.74	  360.24
    123.5700	  652.00	  617.47	-1734.72	  360.59
    123.6700	  605.00	  614.16	-1778.41	  360.94
    123.7700	  639.00	  610.64	-1740.89	  361.31
    123.8700	  632.00	  606.98	-1744.23	  361.68
    123.9700	  617.00	  603.25	-1755.50	  362.06
    124.0700	  595.00	  599.52	-1773.77	  362.45
    124.1700	  615.00	  595.84	-1750.09	  362.85
    124.2700	  597.00	  592.26	-1764.51	  363.25
    124.3700	  600.00	  588.82	-1758.07	  363.66
    124.4700	  601.00	  585.56	-1753.81	  364.08
    124.5700	  558.00	  582.50	-1793.75	  364.51
    124.6700	  621.00	  579.66	-1727.91	  364.95
    124.7700	  572.00	  577.04	-1774.29	  365.39
    124.8700	  619.00	  574.67	-1724.92	  365.85
    124.9700	  586.00	  483.30	-1666.55	  366.31
    125.0700	  586.00	  483.77	-1769.25	  366.78
    125.1700	  560.00	  484.25	-1769.25	  367.26
    125.2700	  561.00	  484.74	-1769.25	  367.74
    125.3700	  567.00	  485.23	-1769.25	  368.24
    125.4700	  577.00	  485.74	-1769.25	  368.74
    125.5700	  571.00	  486.25	-1769.25	  369.26
    125.6700	  542.00	  486.77	-1769.25	  369.78
    125.7700	  563.00	  487.30	-1769.25	  370.31
    125.8700	  573.00	  487.84	-1769.25	  370.85
    125.9700	  598.00	  488.39	-1769.25	  371.40
    126.0700	  542.00	  488.95	-1769.25	  371.96
    126.1700	  570.00	  489.52	-1769.25	  372.52
    126.2700	  548.00	  490.09	-1769.25	  373.10
    126.3700	  559.00	  490.68	-1769.25	  373.68
    126.4700	  598.00	  491.27	-1769.25	  374.28
    126.5700	  577.00	  491.88	-1769.25	  374.88
    126.6700	  612.00	  492.49	-1769.25	  375.50
    126.7700	  619.00	  493.12	-1769.25	  376.12
    126.8700	  615.00	  493.75	-1769.25	  376.75
    126.9700	  593.00	  494.39	-1769.25	  377.40
    127.0700	  632.00	  495.04	-1769.25	  378.05
    127.1700	  645.00	  495.71	-1769.25	  378.71
    127.2700	  644.00	  496.38	-1769.25	  379.38
    127.3700	  624.00	  497.06	-1769.25	  380.06
    127.4700	  635.00	  497.75	-1769.25	  380.76
    127.5700	  621.00	  498.45	-1769.25	  381.46
    127.6700	  652.00	  499.17	-1769.25	  382.17
    127.7700	  725.00	  499.89	-1769.25	  382.89
    127.8700	  694.00	  500.62	-1769.25	  383.63
    127.9700	  736.00	  501.36	-1769.25	  384.37
    128.0700	  798.00	  502.12	-1769.25	  385.12
    128.1700	  795.00	  502.88	-1769.25	  385.89
    128.2700	  747.00	  503.66	-1769.25	  386.66
    128.3700	  764.00	  504.44	-1769.25	  387.45
    128.4700	  772.00	  505.24	-1769.25	  388.24
    128.5700	    0.00	  506.04	-1769.25	  389.05
    128.6700	    0.00	  506.86	-1769.25	  389.87
     12.3047	        	        	        	        	       0	(  0  0  2)	  0  1
     24.8883	        	        	        	        	       0	(  0  0  4)	  0  1
     28.3293	        	        	        	        	       0	(  1  0  0)	  0  1
     29.0266	        	        	        	        	       0	(  1  0  1)	  0  1
     31.0329	        	        	        	        	       0	(  1  0  2)	  0  1
     34.1414	        	        	        	        	       0	(  1  0  3)	  0  1
     37.7879	        	        	        	        	       0	(  0  0  6)	  0  1
     38.1187	        	        	        	        	       0	(  1  0  4)	  0  1
     42.7689	        	        	        	        	       0	(  1  0  5)	  0  1
     47.9531	        	        	        	        	       0	(  1  0  6)	  0  1
     50.2663	        	        	        	        	       0	(  1  1  0)	  0  1
     51.2098	        	        	        	        	       0	(  0  0  8)	  0  1
     51.9894	        	        	        	        	       0	(  1  1  2)	  0  1
     53.5837	        	        	        	        	       0	(  1  0  7)	  0  1
     56.9375	        	        	        	        	       0	(  1  1  4)	  0  1
     58.7633	        	        	        	        	       0	(  2  0  0)	  0  1
     59.1549	        	        	        	        	       0	(  2  0  1)	  0  1
     59.6143	        	        	        	        	       0	(  1  0  8)	  0  1
     60.3204	        	        	        	        	       0	(  2  0  2)	  0  1
     62.2337	        	        	        	        	       0	(  2  0  3)	  0  1
     64.6325	        	        	        	        	       0	(  1  1  6)	  0  1
     64.8579	        	        	        	        	       0	(  2  0  4)	  0  1
     65.4389	        	        	        	        	       0	(  0  0 10)	  0  1
     66.0307	        	        	        	        	       0	(  1  0  9)	  0  1
     68.1523	        	        	        	        	       0	(  2  0  5)	  0  1
     72.0799	        	        	        	        	       0	(  2  0  6)	  0  1
     72.8468	        	        	        	        	       0	(  1  0 10)	  0  1
     74.6705	        	        	        	        	       0	(  1  1  8)	  0  1
     76.6142	        	        	        	        	       0	(  2  0  7)	  0  1
     80.1046	        	        	        	        	       0	(  1  0 11)	  0  1
     80.9193	        	        	        	        	       0	(  0  0 12)	  0  1
     81.0046	        	        	        	        	       0	(  2  1  0)	  0  1
     81.3445	        	        	        	        	       0	(  2  1  1)	  0  1
     81.7446	        	        	        	        	       0	(  2  0  8)	  0  1
     82.3624	        	        	        	        	       0	(  2  1  2)	  0  1
     84.0538	        	        	        	        	       0	(  2  1  3)	  0  1
     86.4135	        	        	        	        	       0	(  2  1  4)	  0  1
     86.9421	        	        	        	        	       0	(  1  1 10)	  0  1
     87.4827	        	        	        	        	       0	(  2  0  9)	  0  1
     87.8789	        	        	        	        	       0	(  1  0 12)	  0  1
     89.4394	        	        	        	        	       0	(  2  1  5)	  0  1
     93.1369	        	        	        	        	       0	(  2  1  6)	  0  1
     93.8702	        	        	        	        	       0	(  2  0 10)	  0  1
     94.8936	        	        	        	        	       0	(  3  0  0)	  0  1
     95.2309	        	        	        	        	       0	(  3  0  1)	  0  1
     96.2442	        	        	        	        	       0	(  3  0  2)	  0  1
     96.2922	        	        	        	        	       0	(  1  0 13)	  0  1
     97.5256	        	        	        	        	       0	(  2  1  7)	  0  1
     97.9376	        	        	        	        	       0	(  3  0  3)	  0  1
     98.4587	        	        	        	        	       0	(  0  0 14)	  0  1
    100.3206	        	        	        	        	       0	(  3  0  4)	  0  1
    100.9923	        	        	        	        	       0	(  2  0 11)	  0  1
    101.8127	        	        	        	        	       0	(  1  1 12)	  0  1
    102.6482	        	        	        	        	       0	(  2  1  8)	  0  1
    103.4123	        	        	        	        	       0	(  3  0  5)	  0  1
    105.5449	        	        	        	        	       0	(  1  0 14)	  0  1
    107.2475	        	        	        	        	       0	(  3  0  6)	  0  1
    108.5852	        	        	        	        	       0	(  2  1  9)	  0  1
    109.0037	        	        	        	        	       0	(  2  0 12)	  0  1
    111.8880	        	        	        	        	       0	(  3  0  7)	  0  1
    115.4822	        	        	        	        	       0	(  2  1 10)	  0  1
    115.9887	        	        	        	        	       0	(  1  0 15)	  0  1
    116.6190	        	        	        	        	       0	(  2  2  0)	  0  1
    117.4415	        	        	        	        	       0	(  3  0  8)	  0  1
    118.1342	        	        	        	        	       0	(  2  2  2)	  0  1
    118.1884	        	        	        	        	       0	(  2  0 13)	  0  1
    119.9477	        	        	        	        	       0	(  0  0 16)	  0  1
    120.6576	        	        	        	        	       0	(  1  1 14)	  0  1
    122.8199	        	        	        	        	       0	(  2  2  4)	  0  1
    123.6097	        	        	        	        	       0	(  2  1 11)	  0  1
    124.1018	        	        	        	        	       0	(  3  0  9)	  0  1
    124.6845	        	        	        	        	       0	(  3  1  0)	  0  1
    125.0948	        	        	        	        	       0	(  3  1  1)	  0  1
    126.3382	        	        	        	        	       0	(  3  1  2)	  0  1
    128.3333	        	        	        	        	       0	(  1  0 16)	  0  1
    128.4566	        	        	        	        	       0	(  3  1  3)	  0  1
    129.1193	        	        	        	        	       0	(  2  0 14)	  0  1
    131.2601	        	        	        	        	       0	(  2  2  6)	  0  1
    131.5327	        	        	        	        	       0	(  3  1  4)	  0  1
    132.2431	        	        	        	        	       0	(  3  0 10)	  0  1
    133.5230	        	        	        	        	       0	(  2  1 12)	  0  1
    135.7200	        	        	        	        	       0	(  3  1  5)	  0  1
    141.3160	        	        	        	        	       0	(  3  1  6)	  0  1
    142.7238	        	        	        	        	       0	(  3  0 11)	  0  1
    143.2633	        	        	        	        	       0	(  2  0 15)	  0  1
    144.5088	        	        	        	        	       0	(  1  0 17)	  0  1
    145.4961	        	        	        	        	       0	(  2  2  8)	  0  1
    146.6827	        	        	        	        	       0	(  2  1 13)	  0  1
    148.9908	        	        	        	        	       0	(  3  1  7)	  0  1
    149.6034	        	        	        	        	       0	(  1  1 16)	  0  1
    154.0172	        	        	        	        	       0	(  0  0 18)	  0  1
    158.6132	        	        	        	        	       0	(  3  0 12)	  0  1
    158.8468	        	        	        	        	       0	(  4  0  0)	  0  1
    159.8042	        	        	        	        	       0	(  4  0  1)	  0  1
    160.9917	        	        	        	        	       0	(  3  1  8)	  0  1
    162.9852	        	        	        	        	       0	(  4  0  2)	  0  1
    169.7773	        	        	        	        	       0	(  2  0 16)	  0  1
    170.3434	        	        	        	        	       0	(  4  0  3)	  0  1
    174.2583	        	        	        	        	       0	(  2  1 14)	  0  1
