MSG Master    CELL:    5.90021   5.90021  23.17683   90.0000   90.0000  120.0000   SPGR: P 63/m m c             TEMP:    781.35
  1   1280     2.52000     0.00000    -0.12154     0.00000     0.00000    0
    97     0     2
       0.00000      10.00000
     125.00000     130.00000
 2Theta	Yobs	Ycal	Yobs-Ycal	Backg	Posr	(hkl)	K
      0.7700	    0.00	  460.03	-1763.59	  354.08
      0.8700	    0.00	  462.41	-1763.59	  356.45
      0.9700	   40.00	  464.76	-1763.59	  358.80
      1.0700	   37.00	  467.08	-1763.59	  361.12
      1.1700	   38.00	  469.38	-1763.59	  363.42
      1.2700	   38.00	  471.65	-1763.59	  365.70
      1.3700	   41.00	  473.91	-1763.59	  367.95
      1.4700	   86.00	  476.14	-1763.59	  370.18
      1.5700	  309.00	  478.34	-1763.59	  372.38
      1.6700	  459.00	  480.52	-1763.59	  374.57
      1.7700	  574.00	  482.68	-1763.59	  376.72
      1.8700	  697.00	  484.82	-1763.59	  378.86
      1.9700	  729.00	  486.93	-1763.59	  380.97
      2.0700	  763.00	  489.02	-1763.59	  383.06
      2.1700	  771.00	  491.09	-1763.59	  385.13
      2.2700	  737.00	  493.13	-1763.59	  387.17
      2.3700	  732.00	  495.15	-1763.59	  389.20
      2.4700	  706.00	  497.15	-1763.59	  391.20
      2.5700	  677.00	  499.13	-1763.59	  393.18
      2.6700	  632.00	  501.09	-1763.59	  395.13
      2.7700	  630.00	  503.02	-1763.59	  397.07
      2.8700	  689.00	  504.94	-1763.59	  398.98
      2.9700	  641.00	  506.83	-1763.59	  400.87
      3.0700	  580.00	  508.70	-1763.59	  402.74
      3.1700	  580.00	  510.54	-1763.59	  404.59
      3.2700	  688.00	  512.37	-1763.59	  406.41
      3.3700	  792.00	  514.18	-1763.59	  408.22
      3.4700	  983.00	  515.96	-1763.59	  410.00
      3.5700	 1109.00	  517.73	-1763.59	  411.77
      3.6700	 1224.00	  519.47	-1763.59	  413.51
      3.7700	 1295.00	  521.19	-1763.59	  415.23
      3.8700	 1393.00	  522.89	-1763.59	  416.94
      3.9700	 1456.00	  524.58	-1763.59	  418.62
      4.0700	 1471.00	  526.24	-1763.59	  420.28
      4.1700	 1550.00	  527.88	-1763.59	  421.92
      4.2700	 1498.00	  529.50	-1763.59	  423.55
      4.3700	 1499.00	  531.11	-1763.59	  425.15
      4.4700	 1418.00	  532.69	-1763.59	  426.73
      4.5700	 1350.00	  534.25	-1763.59	  428.29
      4.6700	 1288.00	  535.79	-1763.59	  429.84
      4.7700	 1372.00	  537.32	-1763.59	  431.36
      4.8700	 1242.00	  538.82	-1763.59	  432.87
      4.9700	 1231.00	  540.31	-1763.59	  434.35
      5.0700	 1201.00	  541.78	-1763.59	  435.82
      5.1700	 1117.00	  543.23	-1763.59	  437.27
      5.2700	 1085.00	  544.66	-1763.59	  438.70
      5.3700	 1087.00	  546.07	-1763.59	  440.11
      5.4700	 1042.00	  547.46	-1763.59	  441.50
      5.5700	  998.00	  548.83	-1763.59	  442.88
      5.6700	 1017.00	  550.19	-1763.59	  444.23
      5.7700	 1009.00	  551.53	-1763.59	  445.57
      5.8700	  967.00	  552.85	-1763.59	  446.89
      5.9700	  955.00	  554.15	-1763.59	  448.19
      6.0700	  921.00	  555.43	-1763.59	  449.48
      6.1700	  903.00	  556.70	-1763.59	  450.74
      6.2700	  861.00	  557.95	-1763.59	  451.99
      6.3700	  871.00	  559.18	-1763.59	  453.23
      6.4700	  912.00	  560.40	-1763.59	  454.44
      6.5700	  904.00	  561.60	-1763.59	  455.64
      6.6700	  905.00	  562.78	-1763.59	  456.82
      6.7700	  828.00	  563.94	-1763.59	  457.98
      6.8700	  822.00	  565.09	-1763.59	  459.13
      6.9700	  774.00	  566.22	-1763.59	  460.26
      7.0700	  774.00	  567.33	-1763.59	  461.37
      7.1700	  790.00	  568.43	-1763.59	  462.47
      7.2700	  752.00	  569.51	-1763.59	  463.55
      7.3700	  758.00	  570.57	-1763.59	  464.62
      7.4700	  742.00	  571.62	-1763.59	  465.66
      7.5700	  734.00	  572.65	-1763.59	  466.70
      7.6700	  761.00	  573.67	-1763.59	  467.71
      7.7700	  694.00	  574.67	-1763.59	  468.71
      7.8700	  696.00	  575.66	-1763.59	  469.70
      7.9700	  701.00	  576.62	-1763.59	  470.67
      8.0700	  676.00	  577.58	-1763.59	  471.62
      8.1700	  686.00	  578.52	-1763.59	  472.56
      8.2700	  711.00	  579.44	-1763.59	  473.48
      8.3700	  689.00	  580.35	-1763.59	  474.39
      8.4700	  681.00	  581.24	-1763.59	  475.28
      8.5700	  658.00	  582.12	-1763.59	  476.16
      8.6700	  710.00	  582.98	-1763.59	  477.03
      8.7700	  692.00	  583.83	-1763.59	  477.87
      8.8700	  694.00	  584.67	-1763.59	  478.71
      8.9700	  670.00	  585.49	-1763.59	  479.53
      9.0700	  654.00	  586.29	-1763.59	  480.33
      9.1700	  699.00	  587.08	-1763.59	  481.12
      9.2700	  656.00	  587.86	-1763.59	  481.90
      9.3700	  671.00	  588.62	-1763.59	  482.66
      9.4700	  631.00	  589.37	-1763.59	  483.41
      9.5700	  688.00	  590.10	-1763.59	  484.15
      9.6700	  624.00	  590.83	-1763.59	  484.87
      9.7700	  620.00	  591.53	-1763.59	  485.58
      9.8700	  657.00	  592.23	-1763.59	  486.27
      9.9700	  612.00	  592.91	-1763.59	  486.95
     10.0700	  631.00	  596.58	-1729.17	  487.62
     10.1700	  637.00	  597.44	-1724.03	  488.27
     10.2700	  624.00	  598.35	-1737.94	  488.91
     10.3700	  626.00	  599.30	-1736.89	  489.54
     10.4700	  630.00	  600.34	-1733.93	  490.15
     10.5700	  580.00	  601.51	-1785.10	  490.75
     10.6700	  621.00	  602.90	-1745.49	  491.34
     10.7700	  669.00	  604.59	-1699.18	  491.92
     10.8700	  709.00	  606.67	-1661.26	  492.48
     10.9700	  632.00	  609.19	-1740.77	  493.03
     11.0700	  615.00	  612.16	-1760.75	  493.57
     11.1700	  626.00	  615.59	-1753.18	  494.10
     11.2700	  655.00	  619.53	-1728.12	  494.61
     11.3700	  591.00	  624.02	-1796.61	  495.11
     11.4700	  632.00	  629.21	-1760.80	  495.60
     11.5700	  676.00	  635.29	-1722.88	  496.08
     11.6700	  684.00	  642.54	-1722.12	  496.55
     11.7700	  647.00	  651.31	-1767.90	  497.00
     11.8700	  695.00	  661.87	-1730.46	  497.45
     11.9700	  722.00	  674.03	-1715.62	  497.88
     12.0700	  755.00	  686.55	-1695.14	  498.30
     12.1700	  740.00	  696.46	-1720.05	  498.71
     12.2700	  758.00	  698.89	-1704.48	  499.10
     12.3700	  699.00	  689.69	-1754.28	  499.49
     12.4700	  698.00	  671.67	-1737.26	  499.87
     12.5700	  659.00	  652.89	-1757.48	  500.23
     12.6700	  636.00	  638.21	-1765.80	  500.58
     12.7700	  582.00	  628.36	-1809.95	  500.93
     12.8700	  647.00	  622.37	-1738.96	  501.26
     12.9700	  526.00	  618.90	-1856.49	  501.58
     13.0700	  615.00	  616.89	-1765.48	  501.89
     13.1700	  585.00	  615.66	-1794.25	  502.19
     13.2700	  623.00	  614.87	-1755.46	  502.48
     13.3700	  619.00	  614.38	-1758.97	  502.76
     13.4700	  596.00	  614.02	-1781.61	  503.03
     13.5700	  624.00	  613.78	-1753.37	  503.29
     13.6700	  622.00	  613.62	-1755.21	  503.54
     13.7700	  652.00	  613.53	-1725.12	  503.78
     13.8700	  609.00	  613.49	-1768.08	  504.01
     13.9700	  596.00	  613.48	-1781.07	  504.23
     14.0700	  588.00	  613.49	-1789.08	  504.44
     14.1700	  598.00	  613.53	-1779.12	  504.64
     14.2700	  570.00	  613.57	-1807.16	  504.83
     14.3700	  643.00	  613.63	-1734.22	  505.02
     14.4700	  552.00	  613.70	-1825.29	  505.19
     14.5700	  567.00	  613.77	-1810.36	  505.35
     14.6700	  585.00	  613.84	-1792.43	  505.51
     14.7700	  594.00	  613.91	-1783.50	  505.65
     14.8700	  629.00	  613.98	-1748.57	  505.79
     14.9700	  574.00	  614.05	-1803.64	  505.92
     15.0700	  599.00	  614.12	-1778.71	  506.03
     15.1700	  548.00	  614.18	-1829.77	  506.14
     15.2700	  560.00	  614.24	-1817.83	  506.25
     15.3700	  599.00	  614.29	-1778.88	  506.34
     15.4700	  557.00	  614.34	-1820.93	  506.42
     15.5700	  605.00	  614.39	-1772.98	  506.50
     15.6700	  615.00	  614.43	-1763.02	  506.57
     15.7700	  615.00	  614.46	-1763.05	  506.63
     15.8700	  629.00	  614.49	-1749.08	  506.68
     15.9700	  583.00	  614.51	-1795.10	  506.72
     16.0700	  596.00	  614.53	-1782.12	  506.75
     16.1700	  618.00	  614.54	-1760.13	  506.78
     16.2700	  602.00	  614.54	-1776.13	  506.80
     16.3700	  568.00	  614.54	-1810.13	  506.81
     16.4700	  595.00	  614.53	-1783.12	  506.82
     16.5700	  630.00	  614.51	-1748.10	  506.81
     16.6700	  576.00	  614.49	-1802.08	  506.80
     16.7700	  603.00	  614.46	-1775.05	  506.78
     16.8700	  588.00	  614.42	-1790.01	  506.76
     16.9700	  578.00	  614.38	-1799.97	  506.72
     17.0700	  596.00	  614.33	-1781.92	  506.68
     17.1700	  613.00	  614.28	-1764.87	  506.63
     17.2700	  574.00	  614.22	-1803.81	  506.58
     17.3700	  625.00	  614.26	-1752.85	  506.52
     17.4700	  593.00	  614.19	-1784.78	  506.45
     17.5700	  604.00	  614.11	-1773.70	  506.37
     17.6700	  585.00	  614.03	-1792.62	  506.29
     17.7700	  599.00	  614.07	-1778.66	  506.20
     17.8700	  592.00	  613.97	-1785.56	  506.10
     17.9700	  617.00	  613.87	-1760.46	  506.00
     18.0700	  609.00	  613.77	-1768.35	  505.89
     18.1700	  577.00	  613.65	-1800.24	  505.77
     18.2700	  655.00	  613.54	-1722.12	  505.65
     18.3700	  549.00	  613.41	-1828.00	  505.52
     18.4700	  617.00	  613.28	-1759.87	  505.39
     18.5700	  579.00	  613.15	-1797.74	  505.25
     18.6700	  593.00	  613.01	-1783.60	  505.10
     18.7700	  624.00	  612.86	-1752.45	  504.95
     18.8700	  561.00	  612.71	-1815.30	  504.79
     18.9700	  642.00	  612.55	-1734.14	  504.63
     19.0700	  655.00	  612.39	-1720.98	  504.45
     19.1700	  580.00	  612.23	-1795.81	  504.28
     19.2700	  556.00	  612.05	-1819.64	  504.10
     19.3700	  567.00	  611.92	-1808.51	  503.91
     19.4700	  597.00	  611.74	-1778.33	  503.72
     19.5700	  561.00	  611.55	-1814.14	  503.52
     19.6700	  606.00	  611.36	-1768.95	  503.31
     19.7700	  553.00	  611.17	-1821.76	  503.10
     19.8700	  596.00	  610.97	-1778.56	  502.89
     19.9700	  573.00	  610.76	-1801.35	  502.67
     20.0700	  590.00	  610.56	-1784.15	  502.44
     20.1700	  574.00	  610.34	-1799.93	  502.21
     20.2700	  598.00	  610.13	-1775.72	  501.98
     20.3700	  585.00	  609.91	-1788.50	  501.74
     20.4700	  589.00	  609.68	-1784.27	  501.49
     20.5700	  643.00	  609.46	-1730.05	  501.24
     20.6700	  621.00	  609.23	-1751.82	  500.99
     20.7700	  578.00	  608.99	-1794.58	  500.73
     20.8700	  588.00	  608.75	-1784.34	  500.46
     20.9700	  562.00	  608.51	-1810.10	  500.19
     21.0700	  578.00	  608.27	-1793.86	  499.92
     21.1700	  564.00	  608.03	-1807.62	  499.64
     21.2700	  585.00	  607.78	-1786.37	  499.36
     21.3700	  606.00	  607.53	-1765.12	  499.07
     21.4700	  593.00	  607.28	-1777.87	  498.78
     21.5700	  574.00	  607.02	-1796.61	  498.49
     21.6700	  589.00	  606.77	-1781.36	  498.19
     21.7700	  619.00	  606.52	-1751.10	  497.88
     21.8700	  626.00	  606.41	-1744.00	  497.58
     21.9700	  570.00	  606.16	-1799.75	  497.26
     22.0700	  621.00	  605.91	-1748.50	  496.95
     22.1700	  595.00	  605.66	-1774.25	  496.63
     22.2700	  654.00	  605.41	-1715.00	  496.31
     22.3700	  617.00	  605.17	-1751.76	  495.98
     22.4700	  630.00	  604.93	-1738.52	  495.65
     22.5700	  602.00	  604.70	-1766.29	  495.31
     22.6700	  622.00	  604.47	-1746.06	  494.98
     22.7700	  608.00	  604.26	-1759.85	  494.63
     22.8700	  607.00	  604.05	-1760.64	  494.29
     22.9700	  641.00	  603.86	-1726.45	  493.94
     23.0700	  578.00	  603.70	-1789.28	  493.59
     23.1700	  643.00	  603.55	-1724.14	  493.23
     23.2700	  600.00	  603.44	-1767.03	  492.88
     23.3700	  596.00	  603.36	-1770.95	  492.51
     23.4700	  598.00	  603.29	-1768.88	  492.15
     23.5700	  567.00	  603.34	-1799.93	  491.78
     23.6700	  584.00	  603.49	-1783.08	  491.41
     23.7700	  622.00	  603.78	-1745.37	  491.04
     23.8700	  606.00	  604.31	-1761.89	  490.66
     23.9700	  556.00	  605.19	-1812.78	  490.28
     24.0700	  633.00	  606.69	-1737.28	  489.90
     24.1700	  593.00	  609.15	-1779.74	  489.51
     24.2700	  647.00	  613.09	-1729.68	  489.12
     24.3700	  651.00	  619.08	-1731.67	  488.73
     24.4700	  574.00	  627.55	-1817.13	  488.34
     24.5700	  634.00	  638.50	-1768.09	  487.94
     24.6700	  716.00	  651.12	-1698.71	  487.54
     24.7700	  676.00	  663.23	-1750.82	  487.14
     24.8700	  695.00	  670.89	-1739.48	  486.74
     24.9700	  726.00	  669.37	-1706.95	  486.33
     25.0700	  678.00	  657.82	-1743.41	  485.92
     25.1700	  630.00	  641.86	-1775.45	  485.51
     25.2700	  665.00	  627.33	-1725.92	  485.10
     25.3700	  580.00	  616.47	-1800.06	  484.68
     25.4700	  677.00	  609.24	-1695.83	  484.27
     25.5700	  623.00	  604.73	-1745.32	  483.85
     25.6700	  604.00	  601.95	-1761.54	  483.43
     25.7700	  633.00	  600.18	-1730.77	  483.00
     25.8700	  662.00	  598.98	-1700.57	  482.58
     25.9700	  601.00	  598.10	-1760.69	  482.15
     26.0700	  626.00	  597.45	-1735.04	  481.72
     26.1700	  664.00	  596.97	-1696.56	  481.29
     26.2700	  650.00	  596.63	-1710.22	  480.85
     26.3700	  624.00	  596.42	-1736.01	  480.42
     26.4700	  664.00	  596.34	-1695.93	  479.98
     26.5700	  651.00	  596.38	-1708.97	  479.55
     26.6700	  647.00	  596.57	-1713.16	  479.11
     26.7700	  613.00	  596.92	-1747.51	  478.66
     26.8700	  695.00	  597.46	-1666.05	  478.22
     26.9700	  639.00	  598.24	-1722.83	  477.78
     27.0700	  674.00	  599.33	-1688.92	  477.33
     27.1700	  667.00	  600.82	-1697.40	  476.88
     27.2700	  656.00	  602.88	-1710.47	  476.44
     27.3700	  695.00	  605.85	-1674.44	  475.99
     27.4700	  646.00	  610.30	-1727.89	  475.53
     27.5700	  680.00	  617.34	-1700.93	  475.08
     27.6700	  702.00	  628.80	-1690.39	  474.63
     27.7700	  682.00	  647.40	-1728.99	  474.17
     27.8700	  708.00	  676.37	-1731.96	  473.72
     27.9700	  726.00	  718.06	-1755.65	  473.26
     28.0700	  814.00	  771.71	-1721.30	  472.80
     28.1700	  861.00	  831.12	-1733.71	  472.34
     28.2700	  957.00	  882.68	-1689.27	  471.88
     28.3700	  971.00	  907.12	-1699.71	  471.42
     28.4700	  967.00	  894.63	-1691.22	  470.96
     28.5700	  857.00	  865.14	-1771.73	  470.50
     28.6700	  793.00	  849.26	-1819.85	  470.04
     28.7700	  801.00	  860.04	-1822.63	  469.57
     28.8700	  889.00	  891.49	-1766.08	  469.11
     28.9700	  944.00	  923.36	-1742.95	  468.64
     29.0700	  973.00	  927.48	-1718.07	  468.18
     29.1700	  937.00	  886.17	-1712.75	  467.71
     29.2700	  803.00	  814.76	-1775.35	  467.24
     29.3700	  794.00	  743.11	-1712.69	  466.77
     29.4700	  725.00	  687.25	-1725.83	  466.31
     29.5700	  712.00	  649.67	-1701.26	  465.84
     29.6700	  668.00	  626.73	-1722.32	  465.37
     29.7700	  643.00	  613.37	-1733.96	  464.90
     29.8700	  697.00	  605.48	-1672.07	  464.43
     29.9700	  693.00	  600.61	-1671.20	  463.96
     30.0700	  674.00	  597.55	-1687.14	  463.49
     30.1700	  655.00	  595.89	-1704.48	  463.02
     30.2700	  627.00	  595.68	-1732.26	  462.55
     30.3700	  667.00	  597.38	-1693.97	  462.08
     30.4700	  648.00	  601.86	-1717.45	  461.60
     30.5700	  630.00	  610.26	-1743.85	  461.13
     30.6700	  630.00	  623.47	-1757.06	  460.66
     30.7700	  689.00	  641.27	-1715.86	  460.19
     30.8700	  655.00	  661.35	-1769.94	  459.72
     30.9700	  703.00	  678.58	-1739.17	  459.25
     31.0700	  702.00	  685.45	-1747.04	  458.78
     31.1700	  689.00	  676.31	-1750.90	  458.31
     31.2700	  631.00	  654.83	-1787.42	  457.83
     31.3700	  665.00	  630.88	-1729.46	  457.36
     31.4700	  618.00	  610.91	-1756.50	  456.89
     31.5700	  623.00	  596.71	-1737.30	  456.42
     31.6700	  610.00	  587.60	-1741.19	  455.95
     31.7700	  638.00	  582.08	-1707.67	  455.48
     31.8700	  593.00	  578.74	-1749.33	  455.01
     31.9700	  592.00	  576.61	-1748.20	  454.54
     32.0700	  600.00	  575.17	-1738.76	  454.07
     32.1700	  595.00	  574.15	-1742.74	  453.60
     32.2700	  586.00	  573.44	-1751.03	  453.13
     32.3700	  572.00	  572.98	-1764.57	  452.67
     32.4700	  597.00	  572.77	-1739.36	  452.20
     32.5700	  576.00	  572.79	-1760.38	  451.73
     32.6700	  583.00	  573.08	-1753.67	  451.27
     32.7700	  607.00	  573.66	-1730.25	  450.80
     32.8700	  577.00	  574.63	-1761.22	  450.33
     32.9700	  619.00	  576.04	-1720.63	  449.87
     33.0700	  640.00	  578.09	-1701.68	  449.41
     33.1700	  535.00	  581.09	-1809.68	  448.94
     33.2700	  588.00	  585.64	-1761.23	  448.48
     33.3700	  608.00	  592.90	-1748.49	  448.02
     33.4700	  630.00	  604.89	-1738.48	  447.56
     33.5700	  628.00	  624.83	-1760.42	  447.10
     33.6700	  584.00	  656.94	-1836.53	  446.64
     33.7700	  693.00	  705.12	-1775.71	  446.18
     33.8700	  756.00	  770.13	-1777.72	  445.72
     33.9700	  883.00	  845.85	-1726.44	  445.26
     34.0700	  927.00	  916.44	-1753.03	  444.81
     34.1700	 1040.00	  956.87	-1680.46	  444.35
     34.2700	  984.00	  943.92	-1723.51	  443.90
     34.3700	  931.00	  880.80	-1713.39	  443.44
     34.4700	  838.00	  797.95	-1723.54	  442.99
     34.5700	  683.00	  722.27	-1802.86	  442.54
     34.6700	  661.00	  664.68	-1767.27	  442.09
     34.7700	  605.00	  625.72	-1784.31	  441.64
     34.8700	  642.00	  601.38	-1722.97	  441.19
     34.9700	  625.00	  586.68	-1725.26	  440.74
     35.0700	  584.00	  577.59	-1757.18	  440.30
     35.1700	  554.00	  571.56	-1781.15	  439.85
     35.2700	  585.00	  567.22	-1745.81	  439.41
     35.3700	  536.00	  563.85	-1791.44	  438.97
     35.4700	  570.00	  561.63	-1755.21	  438.53
     35.5700	  555.00	  559.37	-1767.96	  438.09
     35.6700	  573.00	  557.47	-1748.06	  437.65
     35.7700	  562.00	  555.83	-1757.42	  437.21
     35.8700	  554.00	  554.39	-1763.98	  436.77
     35.9700	  486.00	  553.13	-1830.72	  436.34
     36.0700	  532.00	  552.00	-1783.59	  435.91
     36.1700	  574.00	  550.99	-1740.58	  435.47
     36.2700	  565.00	  550.07	-1748.66	  435.04
     36.3700	  524.00	  549.23	-1788.82	  434.61
     36.4700	  498.00	  548.44	-1814.03	  434.18
     36.5700	  573.00	  547.75	-1738.34	  433.76
     36.6700	  531.00	  547.13	-1779.72	  433.33
     36.7700	  507.00	  546.58	-1803.17	  432.91
     36.8700	  532.00	  546.12	-1777.71	  432.49
     36.9700	  533.00	  545.77	-1776.36	  432.07
     37.0700	  491.00	  545.61	-1818.19	  431.65
     37.1700	  573.00	  545.90	-1736.49	  431.23
     37.2700	  526.00	  546.44	-1784.03	  430.81
     37.3700	  575.00	  547.57	-1736.16	  430.40
     37.4700	  544.00	  549.45	-1769.04	  429.99
     37.5700	  505.00	  552.07	-1810.66	  429.58
     37.6700	  549.00	  555.14	-1769.73	  429.17
     37.7700	  559.00	  557.97	-1762.56	  428.76
     37.8700	  583.00	  559.54	-1740.13	  428.35
     37.9700	  501.00	  558.98	-1821.57	  427.95
     38.0700	  537.00	  556.46	-1783.05	  427.55
     38.1700	  522.00	  552.95	-1794.53	  427.14
     38.2700	  518.00	  549.24	-1794.83	  426.75
     38.3700	  524.00	  545.79	-1785.38	  426.35
     38.4700	  525.00	  542.90	-1781.49	  425.95
     38.5700	  518.00	  540.66	-1786.25	  425.56
     38.6700	  490.00	  539.00	-1812.59	  425.17
     38.7700	  485.00	  537.78	-1816.37	  424.78
     38.8700	  478.00	  536.85	-1822.44	  424.39
     38.9700	  515.00	  536.11	-1784.70	  424.00
     39.0700	  552.00	  535.49	-1747.08	  423.61
     39.1700	  503.00	  534.94	-1795.53	  423.23
     39.2700	  509.00	  534.49	-1789.08	  422.85
     39.3700	  506.00	  534.02	-1791.61	  422.47
     39.4700	  540.00	  533.47	-1757.06	  422.09
     39.5700	  509.00	  533.06	-1787.65	  421.72
     39.6700	  512.00	  532.66	-1784.25	  421.34
     39.7700	  517.00	  532.28	-1778.87	  420.97
     39.8700	  504.00	  531.92	-1791.51	  420.60
     39.9700	  481.00	  532.12	-1814.71	  420.23
     40.0700	  516.00	  531.79	-1779.38	  419.87
     40.1700	  529.00	  531.48	-1766.07	  419.51
     40.2700	  531.00	  531.18	-1763.77	  419.14
     40.3700	  539.00	  530.90	-1755.49	  418.78
     40.4700	  530.00	  530.50	-1764.09	  418.43
     40.5700	  491.00	  530.26	-1802.85	  418.07
     40.6700	  514.00	  530.03	-1779.62	  417.72
     40.7700	  475.00	  529.83	-1818.42	  417.36
     40.8700	  591.00	  529.65	-1702.24	  417.01
     40.9700	  516.00	  529.50	-1777.09	  416.67
     41.0700	  508.00	  529.39	-1784.98	  416.32
     41.1700	  498.00	  529.32	-1794.91	  415.98
     41.2700	  494.00	  529.30	-1798.89	  415.64
     41.3700	  510.00	  529.34	-1782.92	  415.30
     41.4700	  524.00	  529.45	-1769.04	  414.96
     41.5700	  514.00	  529.73	-1779.31	  414.63
     41.6700	  523.00	  530.08	-1770.67	  414.29
     41.7700	  497.00	  530.70	-1797.28	  413.96
     41.8700	  504.00	  531.59	-1791.18	  413.63
     41.9700	  515.00	  533.14	-1781.73	  413.31
     42.0700	  509.00	  535.57	-1790.16	  412.98
     42.1700	  490.00	  539.61	-1813.20	  412.66
     42.2700	  543.00	  546.14	-1766.72	  412.34
     42.3700	  566.00	  556.05	-1753.64	  412.02
     42.4700	  558.00	  569.92	-1775.50	  411.71
     42.5700	  526.00	  587.36	-1824.95	  411.39
     42.6700	  564.00	  606.54	-1806.12	  411.08
     42.7700	  602.00	  622.70	-1784.29	  410.77
     42.8700	  626.00	  630.21	-1767.80	  410.47
     42.9700	  571.00	  625.23	-1817.82	  410.16
     43.0700	  612.00	  609.78	-1761.37	  409.86
     43.1700	  600.00	  590.08	-1753.67	  409.56
     43.2700	  577.00	  571.35	-1757.94	  409.26
     43.3700	  529.00	  556.12	-1790.71	  408.97
     43.4700	  511.00	  544.98	-1797.57	  408.67
     43.5700	  541.00	  537.46	-1760.05	  408.38
     43.6700	  524.00	  532.62	-1772.21	  408.10
     43.7700	  532.00	  529.56	-1761.15	  407.81
     43.8700	  498.00	  527.57	-1793.16	  407.52
     43.9700	  530.00	  526.40	-1759.99	  407.24
     44.0700	  505.00	  525.37	-1783.96	  406.96
     44.1700	  505.00	  524.56	-1783.15	  406.69
     44.2700	  484.00	  523.90	-1803.49	  406.41
     44.3700	  539.00	  523.35	-1747.94	  406.14
     44.4700	  532.00	  522.89	-1754.48	  405.87
     44.5700	  489.00	  522.49	-1797.08	  405.60
     44.6700	  525.00	  522.16	-1760.75	  405.33
     44.7700	  500.00	  521.87	-1785.46	  405.07
     44.8700	  472.00	  521.63	-1813.22	  404.81
     44.9700	  537.00	  521.43	-1748.01	  404.55
     45.0700	  515.00	  521.26	-1769.85	  404.30
     45.1700	  510.00	  521.12	-1774.71	  404.04
     45.2700	  537.00	  521.02	-1747.61	  403.79
     45.3700	  522.00	  521.03	-1762.62	  403.54
     45.4700	  546.00	  520.99	-1738.58	  403.29
     45.5700	  559.00	  521.00	-1725.59	  403.05
     45.6700	  554.00	  521.07	-1730.66	  402.81
     45.7700	  522.00	  521.13	-1762.72	  402.57
     45.8700	  546.00	  521.22	-1738.81	  402.33
     45.9700	  549.00	  521.36	-1735.95	  402.09
     46.0700	  507.00	  521.54	-1778.13	  401.86
     46.1700	  521.00	  521.77	-1764.35	  401.63
     46.2700	  502.00	  522.04	-1783.63	  401.40
     46.3700	  556.00	  522.38	-1729.97	  401.17
     46.4700	  520.00	  522.79	-1766.38	  400.95
     46.5700	  524.00	  523.13	-1762.72	  400.73
     46.6700	  545.00	  523.72	-1742.31	  400.51
     46.7700	  536.00	  524.44	-1752.02	  400.29
     46.8700	  526.00	  525.31	-1762.90	  400.08
     46.9700	  530.00	  526.41	-1760.00	  399.87
     47.0700	  500.00	  527.87	-1791.46	  399.66
     47.1700	  532.00	  529.90	-1761.49	  399.45
     47.2700	  579.00	  532.86	-1717.45	  399.25
     47.3700	  554.00	  537.24	-1746.83	  399.04
     47.4700	  573.00	  543.68	-1734.27	  398.84
     47.5700	  552.00	  552.77	-1764.36	  398.65
     47.6700	  577.00	  564.82	-1751.40	  398.45
     47.7700	  601.00	  579.47	-1742.06	  398.26
     47.8700	  609.00	  595.75	-1750.34	  398.07
     47.9700	  633.00	  609.93	-1740.52	  397.88
     48.0700	  614.00	  618.49	-1768.08	  397.69
     48.1700	  610.00	  618.47	-1772.06	  397.51
     48.2700	  594.00	  610.57	-1780.16	  397.33
     48.3700	  627.00	  598.65	-1735.24	  397.15
     48.4700	  596.00	  586.65	-1754.24	  396.97
     48.5700	  581.00	  576.93	-1759.52	  396.80
     48.6700	  549.00	  570.54	-1785.13	  396.63
     48.7700	  585.00	  567.61	-1746.20	  396.46
     48.8700	  564.00	  567.86	-1767.45	  396.29
     48.9700	  564.00	  570.88	-1770.47	  396.12
     49.0700	  521.00	  576.46	-1819.05	  395.96
     49.1700	  547.00	  584.79	-1801.38	  395.80
     49.2700	  567.00	  596.79	-1793.38	  395.64
     49.3700	  574.00	  614.61	-1804.20	  395.49
     49.4700	  622.00	  642.41	-1784.00	  395.33
     49.5700	  681.00	  687.35	-1769.94	  395.18
     49.6700	  651.00	  760.13	-1872.72	  395.03
     49.7700	  810.00	  874.18	-1827.77	  394.89
     49.8700	  912.00	 1042.35	-1893.94	  394.74
     49.9700	 1266.00	 1271.04	-1768.63	  394.60
     50.0700	 1544.00	 1552.05	-1771.64	  394.46
     50.1700	 1902.00	 1854.33	-1715.92	  394.32
     50.2700	 2164.00	 2117.41	-1717.00	  394.19
     50.3700	 2353.00	 2260.35	-1670.94	  394.06
     50.4700	 2324.00	 2222.97	-1662.56	  393.92
     50.5700	 2124.00	 2021.04	-1660.63	  393.80
     50.6700	 1653.00	 1732.44	-1843.03	  393.67
     50.7700	 1355.00	 1435.76	-1844.35	  393.55
     50.8700	 1096.00	 1179.32	-1846.91	  393.42
     50.9700	  894.00	  983.04	-1852.63	  393.31
     51.0700	  793.00	  847.30	-1817.89	  393.19
     51.1700	  737.00	  760.99	-1787.58	  393.07
     51.2700	  673.00	  708.85	-1799.44	  392.96
     51.3700	  635.00	  676.43	-1805.02	  392.85
     51.4700	  661.00	  653.28	-1755.87	  392.74
     51.5700	  615.00	  634.05	-1782.64	  392.64
     51.6700	  565.00	  617.22	-1815.81	  392.53
     51.7700	  614.00	  602.81	-1752.40	  392.43
     51.8700	  576.00	  591.04	-1778.63	  392.33
     51.9700	  594.00	  581.97	-1751.56	  392.23
     52.0700	  516.00	  575.41	-1823.00	  392.14
     52.1700	  582.00	  571.09	-1752.68	  392.05
     52.2700	  617.00	  568.70	-1715.29	  391.95
     52.3700	  565.00	  568.00	-1766.59	  391.87
     52.4700	  596.00	  568.95	-1736.54	  391.78
     52.5700	  588.00	  571.77	-1747.36	  391.69
     52.6700	  557.00	  577.14	-1783.73	  391.61
     52.7700	  666.00	  586.33	-1683.92	  391.53
     52.8700	  592.00	  601.42	-1773.01	  391.45
     52.9700	  625.00	  625.35	-1763.94	  391.38
     53.0700	  722.00	  661.69	-1703.28	  391.30
     53.1700	  737.00	  713.90	-1740.49	  391.23
     53.2700	  772.00	  784.07	-1775.66	  391.16
     53.3700	  919.00	  871.17	-1715.76	  391.10
     53.4700	 1029.00	  969.28	-1703.87	  391.03
     53.5700	 1087.00	 1065.40	-1741.99	  390.97
     53.6700	 1175.00	 1138.81	-1727.40	  390.91
     53.7700	 1223.00	 1166.57	-1707.16	  390.85
     53.8700	 1163.00	 1137.81	-1738.39	  390.79
     53.9700	 1081.00	 1063.48	-1746.07	  390.73
     54.0700	  933.00	  967.12	-1797.71	  390.68
     54.1700	  868.00	  869.61	-1765.20	  390.63
     54.2700	  815.00	  783.68	-1732.27	  390.58
     54.3700	  739.00	  714.98	-1739.57	  390.53
     54.4700	  616.00	  664.28	-1811.87	  390.49
     54.5700	  633.00	  629.41	-1760.00	  390.44
     54.6700	  584.00	  606.83	-1786.42	  390.40
     54.7700	  566.00	  593.00	-1790.59	  390.36
     54.8700	  590.00	  584.99	-1758.58	  390.33
     54.9700	  544.00	  580.72	-1800.31	  390.29
     55.0700	  607.00	  578.93	-1735.52	  390.26
     55.1700	  629.00	  578.89	-1713.48	  390.22
     55.2700	  577.00	  580.28	-1766.87	  390.19
     55.3700	  573.00	  582.98	-1773.56	  390.17
     55.4700	  595.00	  587.01	-1755.60	  390.14
     55.5700	  611.00	  592.54	-1745.13	  390.12
     55.6700	  616.00	  599.93	-1747.52	  390.09
     55.7700	  688.00	  609.84	-1685.43	  390.07
     55.8700	  631.00	  623.50	-1756.09	  390.06
     55.9700	  642.00	  643.15	-1764.74	  390.04
     56.0700	  701.00	  672.59	-1735.18	  390.02
     56.1700	  693.00	  717.86	-1788.45	  390.01
     56.2700	  770.00	  787.56	-1781.15	  390.00
     56.3700	  855.00	  892.24	-1800.83	  389.99
     56.4700	  913.00	 1042.85	-1893.44	  389.98
     56.5700	 1162.00	 1247.13	-1848.72	  389.98
     56.6700	 1416.00	 1505.21	-1852.80	  389.97
     56.7700	 1762.00	 1804.49	-1806.08	  389.97
     56.8700	 2111.00	 2114.32	-1766.91	  389.97
     56.9700	 2407.00	 2382.59	-1739.18	  389.97
     57.0700	 2536.00	 2541.48	-1769.07	  389.97
     57.1700	 2609.00	 2537.96	-1692.55	  389.98
     57.2700	 2321.00	 2373.16	-1815.75	  389.98
     57.3700	 2093.00	 2102.34	-1772.93	  389.99
     57.4700	 1684.00	 1793.86	-1873.45	  390.00
     57.5700	 1444.00	 1499.21	-1818.80	  390.01
     57.6700	 1223.00	 1247.76	-1788.35	  390.02
     57.7700	 1050.00	 1051.33	-1764.92	  390.04
     57.8700	  923.00	  909.60	-1750.19	  390.05
     57.9700	  814.00	  815.11	-1764.69	  390.07
     58.0700	  755.00	  758.00	-1766.59	  390.09
     58.1700	  795.00	  729.21	-1697.80	  390.11
     58.2700	  790.00	  722.22	-1695.81	  390.13
     58.3700	  765.00	  733.23	-1731.82	  390.16
     58.4700	  756.00	  760.38	-1767.97	  390.18
     58.5700	  791.00	  802.56	-1775.15	  390.21
     58.6700	  937.00	  858.02	-1684.61	  390.24
     58.7700	  971.00	  923.08	-1715.67	  390.27
     58.8700	 1020.00	  991.40	-1734.99	  390.30
     58.9700	 1073.00	 1055.45	-1746.04	  390.33
     59.0700	 1185.00	 1109.64	-1688.23	  390.37
     59.1700	 1190.00	 1150.85	-1724.44	  390.40
     59.2700	 1216.00	 1175.63	-1723.22	  390.44
     59.3700	 1249.00	 1180.70	-1695.29	  390.48
     59.4700	 1276.00	 1168.71	-1656.30	  390.52
     59.5700	 1165.00	 1149.80	-1748.39	  390.56
     59.6700	 1211.00	 1135.85	-1688.44	  390.61
     59.7700	 1199.00	 1134.92	-1699.51	  390.65
     59.8700	 1189.00	 1151.25	-1725.83	  390.70
     59.9700	 1222.00	 1187.80	-1729.38	  390.74
     60.0700	 1298.00	 1246.37	-1711.96	  390.79
     60.1700	 1363.00	 1324.05	-1724.64	  390.84
     60.2700	 1508.00	 1409.45	-1665.04	  390.89
     60.3700	 1564.00	 1481.61	-1681.20	  390.94
     60.4700	 1623.00	 1514.01	-1654.60	  391.00
     60.5700	 1495.00	 1486.98	-1755.57	  391.05
     60.6700	 1479.00	 1401.61	-1686.20	  391.11
     60.7700	 1309.00	 1278.30	-1732.89	  391.17
     60.8700	 1208.00	 1142.32	-1697.91	  391.23
     60.9700	 1033.00	 1013.23	-1743.82	  391.29
     61.0700	  928.00	  903.05	-1738.64	  391.35
     61.1700	  800.00	  817.52	-1781.11	  391.41
     61.2700	  781.00	  757.97	-1740.55	  391.47
     61.3700	  741.00	  723.30	-1745.88	  391.54
     61.4700	  676.00	  711.77	-1799.36	  391.60
     61.5700	  729.00	  722.36	-1756.95	  391.67
     61.6700	  764.00	  755.19	-1754.78	  391.74
     61.7700	  837.00	  811.01	-1737.60	  391.81
     61.8700	  860.00	  889.97	-1793.56	  391.88
     61.9700	  960.00	  989.98	-1793.56	  391.95
     62.0700	 1096.00	 1104.93	-1772.52	  392.02
     62.1700	 1199.00	 1223.28	-1787.87	  392.09
     62.2700	 1235.00	 1326.91	-1855.50	  392.17
     62.3700	 1270.00	 1392.95	-1886.54	  392.24
     62.4700	 1349.00	 1402.06	-1816.65	  392.32
     62.5700	 1262.00	 1350.65	-1852.24	  392.40
     62.6700	 1181.00	 1253.73	-1836.32	  392.48
     62.7700	 1080.00	 1134.21	-1817.80	  392.56
     62.8700	  956.00	 1012.23	-1819.82	  392.64
     62.9700	  840.00	  901.24	-1824.83	  392.72
     63.0700	  779.00	  808.53	-1793.12	  392.80
     63.1700	  690.00	  736.43	-1810.02	  392.88
     63.2700	  711.00	  683.87	-1736.46	  392.97
     63.3700	  634.00	  647.86	-1777.45	  393.05
     63.4700	  576.00	  624.70	-1812.29	  393.14
     63.5700	  630.00	  611.08	-1744.66	  393.22
     63.6700	  626.00	  604.57	-1742.16	  393.31
     63.7700	  635.00	  603.87	-1732.46	  393.40
     63.8700	  600.00	  608.73	-1772.32	  393.49
     63.9700	  668.00	  619.81	-1715.40	  393.58
     64.0700	  700.00	  638.18	-1701.77	  393.67
     64.1700	  711.00	  665.28	-1717.87	  393.76
     64.2700	  680.00	  702.21	-1785.80	  393.85
     64.3700	  861.00	  749.19	-1651.78	  393.94
     64.4700	  865.00	  804.95	-1703.53	  394.04
     64.5700	  894.00	  866.29	-1735.88	  394.13
     64.6700	  962.00	  926.91	-1728.50	  394.23
     64.7700	 1036.00	  978.45	-1706.04	  394.32
     64.8700	 1040.00	 1011.67	-1735.26	  394.42
     64.9700	 1047.00	 1020.22	-1736.81	  394.52
     65.0700	 1050.00	 1003.54	-1717.13	  394.61
     65.1700	 1002.00	  966.45	-1728.04	  394.71
     65.2700	  929.00	  916.97	-1751.56	  394.81
     65.3700	  848.00	  863.44	-1779.03	  394.91
     65.4700	  817.00	  811.76	-1758.35	  395.01
     65.5700	  812.00	  766.43	-1718.02	  395.11
     65.6700	  709.00	  728.16	-1782.74	  395.21
     65.7700	  652.00	  696.14	-1807.73	  395.31
     65.8700	  663.00	  669.78	-1770.37	  395.41
     65.9700	  616.00	  648.59	-1796.18	  395.51
     66.0700	  641.00	  631.85	-1754.44	  395.62
     66.1700	  615.00	  619.16	-1767.75	  395.72
     66.2700	  603.00	  610.01	-1770.60	  395.82
     66.3700	  576.00	  603.94	-1791.53	  395.93
     66.4700	  614.00	  600.60	-1750.19	  396.03
     66.5700	  610.00	  599.82	-1753.41	  396.14
     66.6700	  593.00	  601.32	-1771.91	  396.24
     66.7700	  619.00	  605.26	-1749.84	  396.35
     66.8700	  598.00	  611.99	-1777.58	  396.45
     66.9700	  578.00	  622.41	-1808.00	  396.56
     67.0700	  577.00	  637.95	-1824.54	  396.66
     67.1700	  650.00	  661.16	-1774.74	  396.77
     67.2700	  661.00	  695.69	-1798.28	  396.88
     67.3700	  672.00	  746.47	-1838.06	  396.99
     67.4700	  779.00	  819.40	-1803.99	  397.09
     67.5700	  927.00	  920.71	-1757.30	  397.20
     67.6700	 1064.00	 1055.67	-1755.26	  397.31
     67.7700	 1288.00	 1226.84	-1702.43	  397.42
     67.8700	 1400.00	 1432.24	-1795.83	  397.52
     67.9700	 1608.00	 1663.39	-1818.98	  397.63
     68.0700	 1906.00	 1903.75	-1761.34	  397.74
     68.1700	 2144.00	 2127.39	-1746.98	  397.85
     68.2700	 2296.00	 2299.47	-1767.06	  397.96
     68.3700	 2430.00	 2384.11	-1717.70	  398.07
     68.4700	 2275.00	 2359.93	-1848.52	  398.18
     68.5700	 2131.00	 2233.36	-1865.95	  398.29
     68.6700	 2105.00	 2034.35	-1692.93	  398.39
     68.7700	 1807.00	 1799.88	-1756.47	  398.50
     68.8700	 1526.00	 1561.30	-1798.88	  398.61
     68.9700	 1344.00	 1340.38	-1759.97	  398.72
     69.0700	 1123.00	 1149.89	-1790.48	  398.83
     69.1700	  932.00	  995.18	-1826.77	  398.94
     69.2700	  854.00	  876.02	-1785.61	  399.05
     69.3700	  819.00	  788.39	-1732.98	  399.16
     69.4700	  781.00	  726.43	-1709.02	  399.27
     69.5700	  677.00	  683.90	-1770.49	  399.38
     69.6700	  663.00	  655.24	-1755.83	  399.48
     69.7700	  649.00	  636.03	-1750.62	  399.59
     69.8700	  652.00	  623.08	-1734.67	  399.70
     69.9700	  614.00	  614.22	-1763.81	  399.81
     70.0700	  606.00	  608.11	-1765.70	  399.92
     70.1700	  615.00	  603.95	-1752.54	  400.03
     70.2700	  621.00	  601.31	-1743.90	  400.13
     70.3700	  637.00	  599.77	-1726.36	  400.24
     70.4700	  581.00	  600.61	-1783.20	  400.35
     70.5700	  619.00	  601.78	-1746.36	  400.46
     70.6700	  568.00	  604.46	-1800.05	  400.56
     70.7700	  587.00	  609.12	-1785.70	  400.67
     70.8700	  609.00	  616.51	-1771.10	  400.77
     70.9700	  618.00	  627.88	-1773.47	  400.88
     71.0700	  610.00	  645.06	-1798.65	  400.99
     71.1700	  705.00	  670.58	-1729.17	  401.09
     71.2700	  707.00	  707.70	-1764.29	  401.20
     71.3700	  683.00	  760.21	-1840.80	  401.30
     71.4700	  838.00	  831.99	-1757.57	  401.40
     71.5700	  912.00	  926.30	-1777.89	  401.51
     71.6700	 1012.00	 1044.83	-1796.42	  401.61
     71.7700	 1193.00	 1186.61	-1757.20	  401.71
     71.8700	 1265.00	 1347.07	-1845.66	  401.82
     71.9700	 1485.00	 1517.03	-1795.62	  401.92
     72.0700	 1660.00	 1682.08	-1785.67	  402.02
     72.1700	 1798.00	 1822.33	-1787.92	  402.12
     72.2700	 1792.00	 1914.85	-1886.44	  402.22
     72.3700	 1860.00	 1940.58	-1844.17	  402.32
     72.4700	 1819.00	 1893.58	-1838.17	  402.42
     72.5700	 1891.00	 1784.52	-1657.11	  402.52
     72.6700	 1615.00	 1634.64	-1783.23	  402.62
     72.7700	 1466.00	 1466.44	-1764.03	  402.72
     72.8700	 1258.00	 1298.12	-1803.71	  402.81
     72.9700	 1168.00	 1142.44	-1738.03	  402.91
     73.0700	 1004.00	 1006.90	-1766.49	  403.01
     73.1700	  850.00	  894.82	-1808.41	  403.10
     73.2700	  824.00	  806.21	-1745.80	  403.20
     73.3700	  837.00	  738.82	-1665.41	  403.29
     73.4700	  697.00	  689.23	-1755.82	  403.38
     73.5700	  739.00	  653.63	-1678.22	  403.48
     73.6700	  663.00	  628.46	-1729.05	  403.57
     73.7700	  670.00	  610.75	-1704.34	  403.66
     73.8700	  624.00	  598.22	-1737.81	  403.75
     73.9700	  687.00	  589.26	-1665.85	  403.84
     74.0700	  609.00	  582.77	-1737.36	  403.93
     74.1700	  569.00	  578.06	-1772.65	  404.02
     74.2700	  680.00	  574.13	-1657.72	  404.10
     74.3700	  632.00	  571.78	-1703.37	  404.19
     74.4700	  610.00	  570.22	-1723.81	  404.27
     74.5700	  661.00	  569.24	-1671.83	  404.36
     74.6700	  642.00	  568.63	-1690.22	  404.44
     74.7700	  632.00	  568.16	-1699.75	  404.53
     74.8700	  641.00	  567.59	-1690.18	  404.61
     74.9700	  627.00	  566.71	-1703.30	  404.69
     75.0700	  641.00	  565.45	-1688.04	  404.77
     75.1700	  669.00	  563.88	-1658.47	  404.85
     75.2700	  636.00	  562.22	-1689.81	  404.93
     75.3700	  656.00	  560.78	-1668.37	  405.00
     75.4700	  637.00	  559.86	-1686.45	  405.08
     75.5700	  673.00	  559.81	-1650.40	  405.16
     75.6700	  577.00	  560.99	-1747.58	  405.23
     75.7700	  565.00	  563.79	-1762.38	  405.30
     75.8700	  590.00	  568.60	-1742.19	  405.38
     75.9700	  590.00	  575.82	-1749.41	  405.45
     76.0700	  566.00	  585.72	-1783.31	  405.52
     76.1700	  588.00	  598.44	-1774.03	  405.59
     76.2700	  618.00	  613.83	-1759.42	  405.66
     76.3700	  668.00	  631.54	-1727.13	  405.72
     76.4700	  704.00	  650.69	-1710.28	  405.79
     76.5700	  684.00	  669.96	-1749.55	  405.85
     76.6700	  704.00	  687.56	-1747.15	  405.92
     76.7700	  729.00	  701.25	-1735.84	  405.98
     76.8700	  693.00	  708.73	-1779.32	  406.04
     76.9700	  730.00	  708.67	-1742.26	  406.10
     77.0700	  688.00	  700.94	-1776.53	  406.16
     77.1700	  730.00	  686.95	-1720.54	  406.22
     77.2700	  694.00	  668.91	-1738.50	  406.27
     77.3700	  669.00	  649.03	-1743.62	  406.33
     77.4700	  624.00	  629.14	-1768.73	  406.38
     77.5700	  557.00	  610.54	-1817.13	  406.44
     77.6700	  546.00	  594.07	-1811.66	  406.49
     77.7700	  567.00	  580.14	-1776.73	  406.54
     77.8700	  560.00	  568.86	-1772.45	  406.59
     77.9700	  577.00	  560.06	-1746.64	  406.63
     78.0700	  552.00	  553.35	-1764.94	  406.68
     78.1700	  570.00	  548.47	-1742.06	  406.73
     78.2700	  544.00	  544.97	-1764.56	  406.77
     78.3700	  481.00	  542.27	-1824.85	  406.81
     78.4700	  551.00	  540.53	-1753.12	  406.85
     78.5700	  511.00	  539.30	-1791.89	  406.89
     78.6700	  529.00	  538.44	-1773.03	  406.93
     78.7700	  540.00	  537.84	-1761.43	  406.97
     78.8700	  537.00	  537.43	-1764.02	  407.00
     78.9700	  546.00	  537.18	-1754.77	  407.04
     79.0700	  543.00	  537.06	-1757.65	  407.07
     79.1700	  538.00	  537.08	-1762.67	  407.10
     79.2700	  540.00	  537.23	-1760.82	  407.13
     79.3700	  528.00	  537.54	-1773.13	  407.16
     79.4700	  529.00	  538.03	-1772.62	  407.18
     79.5700	  548.00	  538.72	-1754.31	  407.21
     79.6700	  558.00	  539.67	-1745.26	  407.23
     79.7700	  559.00	  540.91	-1745.50	  407.26
     79.8700	  528.00	  542.51	-1778.10	  407.28
     79.9700	  523.00	  544.56	-1785.15	  407.29
     80.0700	  561.00	  547.16	-1749.75	  407.31
     80.1700	  552.00	  550.43	-1762.02	  407.33
     80.2700	  543.00	  554.51	-1775.09	  407.34
     80.3700	  546.00	  559.53	-1777.12	  407.35
     80.4700	  556.00	  565.67	-1773.26	  407.37
     80.5700	  530.00	  573.07	-1806.66	  407.38
     80.6700	  524.00	  581.90	-1821.48	  407.38
     80.7700	  564.00	  592.22	-1791.81	  407.39
     80.8700	  604.00	  604.02	-1763.61	  407.39
     80.9700	  623.00	  616.89	-1757.48	  407.40
     81.0700	  672.00	  630.85	-1722.44	  407.40
     81.1700	  714.00	  645.07	-1694.65	  407.40
     81.2700	  690.00	  658.81	-1732.39	  407.40
     81.3700	  731.00	  671.37	-1703.96	  407.39
     81.4700	  751.00	  682.23	-1694.82	  407.39
     81.5700	  751.00	  691.06	-1703.65	  407.38
     81.6700	  728.00	  697.66	-1733.25	  407.37
     81.7700	  739.00	  701.87	-1726.46	  407.36
     81.8700	  790.00	  703.53	-1677.12	  407.35
     81.9700	  768.00	  702.45	-1698.04	  407.33
     82.0700	  703.00	  698.44	-1759.03	  407.32
     82.1700	  748.00	  691.51	-1707.10	  407.30
     82.2700	  717.00	  682.04	-1728.63	  407.28
     82.3700	  703.00	  670.73	-1731.32	  407.26
     82.4700	  682.00	  658.31	-1739.90	  407.24
     82.5700	  611.00	  645.38	-1797.97	  407.21
     82.6700	  606.00	  632.38	-1789.97	  407.19
     82.7700	  622.00	  619.67	-1761.26	  407.16
     82.8700	  582.00	  607.62	-1789.21	  407.13
     82.9700	  556.00	  596.60	-1804.18	  407.10
     83.0700	  563.00	  586.94	-1787.53	  407.06
     83.1700	  557.00	  578.90	-1785.49	  407.03
     83.2700	  598.00	  572.62	-1738.21	  406.99
     83.3700	  558.00	  568.14	-1773.73	  406.95
     83.4700	  534.00	  565.41	-1795.00	  406.91
     83.5700	  538.00	  564.33	-1789.92	  406.86
     83.6700	  555.00	  564.72	-1773.31	  406.82
     83.7700	  551.00	  566.32	-1778.91	  406.77
     83.8700	  548.00	  568.84	-1784.43	  406.72
     83.9700	  523.00	  571.88	-1812.47	  406.67
     84.0700	  593.00	  575.01	-1745.60	  406.62
     84.1700	  634.00	  577.74	-1707.33	  406.57
     84.2700	  558.00	  579.58	-1785.17	  406.51
     84.3700	  603.00	  580.05	-1740.64	  406.45
     84.4700	  598.00	  579.05	-1744.63	  406.39
     84.5700	  533.00	  576.64	-1807.23	  406.33
     84.6700	  511.00	  573.08	-1825.67	  406.26
     84.7700	  537.00	  568.75	-1795.34	  406.20
     84.8700	  536.00	  564.06	-1791.65	  406.13
     84.9700	  537.00	  559.35	-1785.94	  406.06
     85.0700	  550.00	  554.88	-1768.47	  405.99
     85.1700	  530.00	  550.84	-1784.43	  405.91
     85.2700	  545.00	  547.36	-1765.95	  405.84
     85.3700	  549.00	  544.48	-1759.07	  405.76
     85.4700	  535.00	  542.21	-1770.79	  405.68
     85.5700	  541.00	  540.51	-1763.10	  405.60
     85.6700	  539.00	  539.34	-1763.92	  405.51
     85.7700	  573.00	  538.62	-1729.20	  405.42
     85.8700	  528.00	  538.33	-1773.92	  405.34
     85.9700	  563.00	  538.43	-1739.02	  405.25
     86.0700	  532.00	  538.92	-1770.50	  405.15
     86.1700	  556.00	  539.80	-1747.39	  405.06
     86.2700	  536.00	  541.14	-1768.73	  404.96
     86.3700	  560.00	  543.02	-1746.61	  404.86
     86.4700	  550.00	  545.54	-1759.13	  404.76
     86.5700	  516.00	  548.83	-1796.42	  404.66
     86.6700	  547.00	  553.02	-1769.61	  404.56
     86.7700	  509.00	  558.25	-1812.84	  404.45
     86.8700	  499.00	  564.62	-1829.21	  404.34
     86.9700	  565.00	  572.17	-1770.76	  404.23
     87.0700	  571.00	  580.90	-1773.49	  404.12
     87.1700	  554.00	  590.68	-1800.27	  404.00
     87.2700	  598.00	  601.26	-1766.85	  403.88
     87.3700	  609.00	  612.25	-1766.84	  403.76
     87.4700	  590.00	  623.12	-1796.71	  403.64
     87.5700	  630.00	  633.15	-1766.74	  403.52
     87.6700	  688.00	  641.54	-1717.13	  403.39
     87.7700	  641.00	  647.44	-1770.03	  403.27
     87.8700	  650.00	  650.18	-1763.77	  403.14
     87.9700	  617.00	  649.47	-1796.06	  403.00
     88.0700	  662.00	  645.52	-1747.11	  402.87
     88.1700	  610.00	  638.96	-1792.55	  402.73
     88.2700	  615.00	  630.68	-1779.27	  402.60
     88.3700	  622.00	  621.59	-1763.18	  402.46
     88.4700	  572.00	  612.54	-1804.13	  402.31
     88.5700	  626.00	  604.24	-1741.82	  402.17
     88.6700	  553.00	  597.22	-1807.81	  402.02
     88.7700	  611.00	  591.89	-1744.48	  401.87
     88.8700	  569.00	  588.02	-1782.61	  401.72
     88.9700	  557.00	  586.58	-1793.17	  401.57
     89.0700	  556.00	  587.01	-1794.60	  401.41
     89.1700	  597.00	  589.09	-1755.68	  401.26
     89.2700	  606.00	  592.45	-1750.04	  401.10
     89.3700	  588.00	  596.63	-1772.22	  400.94
     89.4700	  620.00	  601.07	-1744.66	  400.77
     89.5700	  570.00	  605.14	-1798.73	  400.61
     89.6700	  646.00	  608.21	-1725.80	  400.44
     89.7700	  595.00	  609.72	-1778.31	  400.27
     89.8700	  595.00	  609.31	-1777.90	  400.10
     89.9700	  618.00	  606.89	-1752.48	  399.92
     90.0700	  543.00	  602.70	-1823.29	  399.74
     90.1700	  589.00	  597.15	-1771.74	  399.57
     90.2700	  573.00	  590.73	-1781.31	  399.38
     90.3700	  605.00	  583.91	-1742.50	  399.20
     90.4700	  571.00	  577.10	-1769.69	  399.02
     90.5700	  555.00	  570.63	-1779.22	  398.83
     90.6700	  548.00	  564.72	-1780.31	  398.64
     90.7700	  510.00	  559.53	-1813.12	  398.45
     90.8700	  548.00	  555.15	-1770.74	  398.26
     90.9700	  518.00	  551.59	-1797.18	  398.06
     91.0700	  579.00	  548.84	-1733.42	  397.86
     91.1700	  535.00	  546.82	-1775.41	  397.66
     91.2700	  510.00	  545.49	-1799.08	  397.46
     91.3700	  500.00	  544.78	-1808.37	  397.26
     91.4700	  521.00	  544.63	-1787.22	  397.05
     91.5700	  552.00	  545.03	-1756.62	  396.84
     91.6700	  526.00	  545.98	-1783.57	  396.63
     91.7700	  512.00	  547.52	-1799.11	  396.42
     91.8700	  521.00	  549.74	-1792.33	  396.20
     91.9700	  560.00	  552.73	-1756.32	  395.99
     92.0700	  559.00	  556.65	-1761.24	  395.77
     92.1700	  582.00	  561.64	-1743.23	  395.55
     92.2700	  516.00	  567.89	-1815.48	  395.33
     92.3700	  550.00	  575.54	-1789.12	  395.10
     92.4700	  581.00	  584.72	-1767.31	  394.87
     92.5700	  574.00	  595.53	-1785.12	  394.64
     92.6700	  577.00	  607.98	-1794.57	  394.41
     92.7700	  637.00	  622.02	-1748.61	  394.18
     92.8700	  613.00	  637.49	-1788.08	  393.94
     92.9700	  647.00	  654.13	-1770.72	  393.71
     93.0700	  628.00	  671.56	-1807.15	  393.47
     93.1700	  663.00	  689.28	-1789.87	  393.23
     93.2700	  670.00	  706.68	-1800.27	  392.98
     93.3700	  712.00	  723.13	-1774.72	  392.74
     93.4700	  735.00	  738.09	-1766.68	  392.49
     93.5700	  767.00	  751.25	-1747.84	  392.24
     93.6700	  702.00	  762.68	-1824.27	  391.99
     93.7700	  733.00	  772.78	-1803.37	  391.74
     93.8700	  800.00	  782.11	-1745.70	  391.48
     93.9700	  798.00	  791.28	-1756.87	  391.22
     94.0700	  791.00	  800.72	-1773.31	  390.96
     94.1700	  838.00	  810.71	-1736.30	  390.70
     94.2700	  830.00	  821.01	-1754.60	  390.44
     94.3700	  861.00	  832.32	-1734.91	  390.17
     94.4700	  814.00	  844.31	-1793.90	  389.91
     94.5700	  887.00	  856.97	-1733.56	  389.64
     94.6700	  884.00	  870.18	-1749.77	  389.37
     94.7700	  896.00	  883.59	-1751.18	  389.09
     94.8700	  955.00	  896.51	-1705.10	  388.82
     94.9700	  919.00	  907.92	-1752.51	  388.54
     95.0700	  937.00	  916.50	-1743.09	  388.26
     95.1700	  963.00	  920.83	-1721.42	  387.98
     95.2700	  932.00	  919.70	-1751.29	  387.70
     95.3700	  920.00	  912.44	-1756.03	  387.42
     95.4700	  897.00	  899.12	-1765.71	  387.13
     95.5700	  848.00	  880.61	-1796.20	  386.84
     95.6700	  826.00	  858.37	-1795.96	  386.55
     95.7700	  834.00	  834.12	-1763.71	  386.26
     95.8700	  790.00	  809.62	-1783.21	  385.97
     95.9700	  775.00	  786.55	-1775.14	  385.67
     96.0700	  797.00	  766.46	-1733.05	  385.37
     96.1700	  713.00	  750.72	-1801.31	  385.08
     96.2700	  706.00	  740.57	-1798.16	  384.77
     96.3700	  702.00	  737.06	-1798.65	  384.47
     96.4700	  715.00	  741.10	-1789.69	  384.17
     96.5700	  714.00	  753.42	-1803.01	  383.86
     96.6700	  774.00	  774.56	-1764.15	  383.55
     96.7700	  844.00	  804.83	-1724.42	  383.25
     96.8700	  837.00	  844.29	-1770.88	  382.93
     96.9700	  889.00	  892.64	-1767.23	  382.62
     97.0700	  949.00	  949.24	-1763.83	  382.31
     97.1700	 1026.00	 1012.97	-1750.56	  381.99
     97.2700	 1141.00	 1082.25	-1704.84	  381.67
     97.3700	 1120.00	 1154.97	-1798.56	  381.35
     97.4700	 1279.00	 1228.41	-1713.00	  381.03
     97.5700	 1286.00	 1299.31	-1776.90	  380.71
     97.6700	 1288.00	 1363.91	-1839.50	  380.39
     97.7700	 1360.00	 1418.18	-1821.77	  380.06
     97.8700	 1468.00	 1458.24	-1753.82	  379.73
     97.9700	 1472.00	 1480.94	-1772.53	  379.40
     98.0700	 1484.00	 1484.61	-1764.20	  379.07
     98.1700	 1422.00	 1469.42	-1811.01	  378.74
     98.2700	 1384.00	 1437.26	-1816.85	  378.41
     98.3700	 1363.00	 1391.29	-1791.88	  378.07
     98.4700	 1326.00	 1335.31	-1772.90	  377.74
     98.5700	 1292.00	 1273.25	-1744.84	  377.40
     98.6700	 1169.00	 1208.84	-1803.42	  377.06
     98.7700	 1157.00	 1145.39	-1751.98	  376.72
     98.8700	 1065.00	 1085.78	-1784.37	  376.38
     98.9700	 1046.00	 1032.43	-1750.02	  376.03
     99.0700	  923.00	  987.33	-1827.92	  375.69
     99.1700	  937.00	  952.07	-1778.66	  375.34
     99.2700	  931.00	  927.85	-1760.44	  374.99
     99.3700	  906.00	  915.59	-1773.18	  374.64
     99.4700	  916.00	  915.90	-1763.49	  374.29
     99.5700	  906.00	  929.10	-1786.68	  373.94
     99.6700	  903.00	  955.26	-1815.85	  373.59
     99.7700	  976.00	  994.18	-1781.77	  373.23
     99.8700	 1091.00	 1045.38	-1717.97	  372.88
     99.9700	 1111.00	 1108.04	-1760.62	  372.52
    100.0700	 1174.00	 1181.03	-1770.62	  372.16
    100.1700	 1323.00	 1262.82	-1703.41	  371.81
    100.2700	 1409.00	 1351.40	-1705.99	  371.45
    100.3700	 1454.00	 1444.24	-1753.83	  371.08
    100.4700	 1593.00	 1538.35	-1708.94	  370.72
    100.5700	 1649.00	 1630.30	-1744.89	  370.36
    100.6700	 1715.00	 1716.70	-1765.29	  369.99
    100.7700	 1819.00	 1794.22	-1738.81	  369.63
    100.8700	 1874.00	 1860.21	-1749.80	  369.26
    100.9700	 1946.00	 1912.82	-1730.41	  368.89
    101.0700	 1963.00	 1950.93	-1751.52	  368.52
    101.1700	 2030.00	 1973.85	-1707.44	  368.15
    101.2700	 1980.00	 1981.06	-1764.65	  367.78
    101.3700	 1986.00	 1972.20	-1749.78	  367.41
    101.4700	 1978.00	 1947.27	-1732.86	  367.04
    101.5700	 1880.00	 1907.08	-1790.67	  366.67
    101.6700	 1862.00	 1853.48	-1755.07	  366.29
    101.7700	 1850.00	 1789.41	-1703.00	  365.92
    101.8700	 1737.00	 1718.53	-1745.12	  365.54
    101.9700	 1636.00	 1644.72	-1772.31	  365.16
    102.0700	 1582.00	 1571.55	-1753.14	  364.79
    102.1700	 1502.00	 1501.98	-1763.57	  364.41
    102.2700	 1425.00	 1438.21	-1776.80	  364.03
    102.3700	 1394.00	 1381.62	-1751.21	  363.65
    102.4700	 1335.00	 1332.80	-1761.39	  363.27
    102.5700	 1205.00	 1291.60	-1850.19	  362.89
    102.6700	 1289.00	 1257.23	-1731.82	  362.50
    102.7700	 1253.00	 1228.31	-1738.90	  362.12
    102.8700	 1166.00	 1203.05	-1800.64	  361.74
    102.9700	 1194.00	 1179.42	-1749.01	  361.36
    103.0700	 1156.00	 1155.38	-1762.97	  360.97
    103.1700	 1051.00	 1129.25	-1841.84	  360.59
    103.2700	 1063.00	 1099.90	-1800.49	  360.20
    103.3700	 1074.00	 1066.93	-1756.52	  359.82
    103.4700	 1044.00	 1030.56	-1750.15	  359.43
    103.5700	 1003.00	  991.50	-1752.09	  359.05
    103.6700	  932.00	  950.71	-1782.30	  358.66
    103.7700	  941.00	  909.24	-1731.83	  358.27
    103.8700	  892.00	  868.08	-1739.67	  357.88
    103.9700	  823.00	  828.14	-1768.73	  357.50
    104.0700	  809.00	  790.16	-1744.75	  357.11
    104.1700	  774.00	  754.73	-1744.32	  356.72
    104.2700	  766.00	  722.30	-1719.89	  356.33
    104.3700	  735.00	  693.15	-1721.74	  355.94
    104.4700	  687.00	  667.43	-1744.02	  355.56
    104.5700	  659.00	  645.13	-1749.72	  355.17
    104.6700	  651.00	  626.13	-1738.71	  354.78
    104.7700	  613.00	  610.23	-1760.82	  354.39
    104.8700	  589.00	  597.19	-1771.78	  354.00
    104.9700	  624.00	  586.71	-1726.30	  353.61
    105.0700	  610.00	  578.48	-1732.07	  353.22
    105.1700	  600.00	  572.20	-1735.78	  352.83
    105.2700	  565.00	  567.59	-1766.17	  352.45
    105.3700	  563.00	  564.40	-1764.99	  352.06
    105.4700	  572.00	  562.44	-1754.03	  351.67
    105.5700	  549.00	  561.53	-1776.11	  351.28
    105.6700	  588.00	  561.53	-1737.12	  350.89
    105.7700	  577.00	  562.35	-1748.93	  350.50
    105.8700	  593.00	  563.92	-1734.51	  350.12
    105.9700	  587.00	  566.21	-1742.80	  349.73
    106.0700	  558.00	  569.20	-1774.79	  349.34
    106.1700	  540.00	  572.89	-1796.48	  348.96
    106.2700	  564.00	  577.33	-1776.92	  348.57
    106.3700	  591.00	  582.55	-1755.14	  348.19
    106.4700	  591.00	  588.59	-1761.18	  347.80
    106.5700	  578.00	  595.47	-1781.06	  347.42
    106.6700	  608.00	  603.20	-1758.79	  347.03
    106.7700	  629.00	  611.73	-1746.32	  346.65
    106.8700	  607.00	  620.98	-1777.57	  346.27
    106.9700	  664.00	  630.80	-1730.39	  345.89
    107.0700	  619.00	  641.01	-1785.60	  345.50
    107.1700	  628.00	  651.36	-1786.95	  345.12
    107.2700	  665.00	  661.55	-1760.14	  344.74
    107.3700	  676.00	  671.24	-1758.83	  344.37
    107.4700	  709.00	  680.06	-1734.65	  343.99
    107.5700	  694.00	  687.66	-1757.25	  343.61
    107.6700	  709.00	  693.73	-1748.32	  343.23
    107.7700	  669.00	  698.02	-1792.61	  342.86
    107.8700	  696.00	  700.52	-1768.11	  342.48
    107.9700	  683.00	  701.28	-1781.87	  342.11
    108.0700	  692.00	  700.57	-1772.15	  341.74
    108.1700	  714.00	  698.73	-1748.32	  341.37
    108.2700	  703.00	  696.17	-1756.76	  341.00
    108.3700	  678.00	  693.32	-1778.91	  340.63
    108.4700	  694.00	  690.54	-1760.12	  340.26
    108.5700	  678.00	  688.11	-1773.70	  339.90
    108.6700	  667.00	  686.25	-1782.83	  339.53
    108.7700	  716.00	  685.07	-1732.66	  339.17
    108.8700	  711.00	  684.60	-1737.19	  338.81
    108.9700	  674.00	  684.76	-1774.35	  338.45
    109.0700	  683.00	  685.38	-1765.97	  338.09
    109.1700	  676.00	  686.22	-1773.80	  337.73
    109.2700	  760.00	  686.95	-1690.54	  337.37
    109.3700	  677.00	  687.23	-1773.82	  337.02
    109.4700	  729.00	  686.70	-1721.29	  336.67
    109.5700	  697.00	  685.05	-1751.64	  336.32
    109.6700	  666.00	  682.05	-1779.64	  335.97
    109.7700	  682.00	  677.61	-1759.20	  335.62
    109.8700	  672.00	  671.76	-1763.35	  335.27
    109.9700	  682.00	  664.67	-1746.26	  334.93
    110.0700	  668.00	  656.55	-1752.14	  334.59
    110.1700	  653.00	  647.70	-1758.29	  334.25
    110.2700	  628.00	  638.41	-1773.99	  333.91
    110.3700	  710.00	  628.95	-1682.54	  333.57
    110.4700	  645.00	  619.59	-1738.18	  333.24
    110.5700	  617.00	  610.56	-1757.14	  332.91
    110.6700	  642.00	  602.04	-1723.63	  332.58
    110.7700	  624.00	  594.18	-1733.77	  332.25
    110.8700	  602.00	  587.13	-1748.72	  331.93
    110.9700	  655.00	  580.95	-1689.54	  331.60
    111.0700	  559.00	  575.70	-1780.29	  331.28
    111.1700	  567.00	  571.39	-1767.98	  330.96
    111.2700	  570.00	  568.01	-1761.60	  330.65
    111.3700	  621.00	  565.52	-1708.11	  330.34
    111.4700	  565.00	  563.89	-1762.48	  330.03
    111.5700	  600.00	  563.03	-1726.62	  329.72
    111.6700	  566.00	  562.87	-1760.46	  329.41
    111.7700	  554.00	  563.33	-1772.92	  329.11
    111.8700	  592.00	  564.33	-1735.92	  328.81
    111.9700	  581.00	  565.78	-1748.36	  328.51
    112.0700	  557.00	  567.60	-1774.19	  328.22
    112.1700	  546.00	  569.72	-1787.31	  327.93
    112.2700	  566.00	  572.08	-1769.67	  327.64
    112.3700	  577.00	  574.62	-1761.21	  327.36
    112.4700	  554.00	  577.31	-1786.90	  327.07
    112.5700	  589.00	  580.14	-1754.73	  326.80
    112.6700	  548.00	  583.10	-1798.69	  326.52
    112.7700	  584.00	  586.23	-1765.82	  326.25
    112.8700	  629.00	  589.55	-1724.14	  325.98
    112.9700	  585.00	  593.14	-1771.73	  325.71
    113.0700	  613.00	  597.06	-1747.65	  325.45
    113.1700	  617.00	  601.40	-1747.99	  325.19
    113.2700	  596.00	  606.27	-1773.86	  324.93
    113.3700	  582.00	  611.81	-1793.40	  324.68
    113.4700	  586.00	  618.17	-1795.76	  324.43
    113.5700	  619.00	  625.55	-1770.14	  324.19
    113.6700	  626.00	  634.20	-1771.79	  323.95
    113.7700	  614.00	  644.43	-1794.01	  323.71
    113.8700	  687.00	  656.60	-1733.19	  323.48
    113.9700	  676.00	  671.21	-1758.80	  323.25
    114.0700	  697.00	  688.83	-1755.42	  323.02
    114.1700	  689.00	  710.17	-1784.76	  322.80
    114.2700	  728.00	  736.09	-1771.68	  322.58
    114.3700	  763.00	  767.62	-1768.21	  322.37
    114.4700	  790.00	  805.97	-1779.56	  322.16
    114.5700	  858.00	  852.50	-1758.09	  321.95
    114.6700	  864.00	  908.81	-1808.40	  321.75
    114.7700	 1012.00	  976.67	-1728.26	  321.55
    114.8700	 1055.00	 1057.98	-1766.56	  321.36
    114.9700	 1175.00	 1154.77	-1743.35	  321.17
    115.0700	 1289.00	 1269.12	-1743.71	  320.99
    115.1700	 1366.00	 1403.15	-1800.74	  320.81
    115.2700	 1612.00	 1558.88	-1710.47	  320.64
    115.3700	 1886.00	 1738.09	-1615.68	  320.47
    115.4700	 2017.00	 1942.25	-1688.84	  320.30
    115.5700	 2273.00	 2172.38	-1662.97	  320.14
    115.6700	 2458.00	 2428.94	-1734.53	  319.99
    115.7700	 2831.00	 2711.75	-1644.34	  319.84
    115.8700	 3086.00	 3019.67	-1697.26	  319.69
    115.9700	 3340.00	 3350.72	-1774.31	  319.55
    116.0700	 3789.00	 3701.83	-1676.42	  319.42
    116.1700	 4075.00	 4068.96	-1757.55	  319.29
    116.2700	 4440.00	 4447.04	-1770.63	  319.16
    116.3700	 4764.00	 4829.74	-1829.33	  319.04
    116.4700	 5198.00	 5209.73	-1775.31	  318.93
    116.5700	 5523.00	 5578.59	-1819.18	  318.82
    116.6700	 5921.00	 5927.17	-1769.76	  318.72
    116.7700	 6257.00	 6245.63	-1752.22	  318.62
    116.8700	 6352.00	 6523.75	-1935.34	  318.53
    116.9700	 6697.00	 6751.60	-1818.19	  318.44
    117.0700	 6744.00	 6920.24	-1939.83	  318.36
    117.1700	 6894.00	 7022.63	-1892.22	  318.29
    117.2700	 6918.00	 7054.36	-1899.95	  318.22
    117.3700	 7000.00	 7014.20	-1777.79	  318.16
    117.4700	 7018.00	 6904.34	-1649.93	  318.10
    117.5700	 6642.00	 6730.10	-1851.69	  318.05
    117.6700	 6464.00	 6499.14	-1798.73	  318.01
    117.7700	 6171.00	 6220.68	-1813.27	  317.97
    117.8700	 5858.00	 5904.73	-1810.31	  317.94
    117.9700	 5469.00	 5561.33	-1855.92	  317.91
    118.0700	 5111.00	 5200.17	-1852.75	  317.89
    118.1700	 4957.00	 4830.01	-1636.60	  317.88
    118.2700	 4489.00	 4458.70	-1733.29	  317.87
    118.3700	 4123.00	 4093.14	-1733.73	  317.87
    118.4700	 3957.00	 3739.06	-1545.65	  317.88
    118.5700	 3440.00	 3401.16	-1724.74	  317.89
    118.6700	 3184.00	 3082.92	-1662.51	  317.92
    118.7700	 2811.00	 2786.84	-1739.43	  317.94
    118.8700	 2605.00	 2514.57	-1673.16	  317.98
    118.9700	 2312.00	 2266.86	-1718.45	  318.02
    119.0700	 2028.00	 2043.77	-1779.36	  318.07
    119.1700	 1791.00	 1844.71	-1817.30	  318.13
    119.2700	 1639.00	 1668.61	-1793.20	  318.19
    119.3700	 1467.00	 1514.12	-1810.71	  318.26
    119.4700	 1344.00	 1379.58	-1799.17	  318.34
    119.5700	 1304.00	 1263.20	-1722.79	  318.43
    119.6700	 1144.00	 1163.09	-1782.68	  318.52
    119.7700	 1089.00	 1077.37	-1751.96	  318.62
    119.8700	 1025.00	 1004.27	-1742.86	  318.73
    119.9700	  993.00	  942.11	-1712.70	  318.85
    120.0700	  839.00	  889.33	-1813.92	  318.97
    120.1700	  821.00	  844.56	-1787.15	  319.11
    120.2700	  808.00	  806.57	-1762.16	  319.25
    120.3700	  764.00	  774.32	-1773.91	  319.40
    120.4700	  737.00	  746.91	-1773.50	  319.55
    120.5700	  753.00	  723.59	-1734.18	  319.72
    120.6700	  668.00	  703.73	-1799.32	  319.89
    120.7700	  659.00	  686.81	-1791.40	  320.07
    120.8700	  685.00	  672.40	-1750.99	  320.27
    120.9700	  669.00	  660.17	-1754.76	  320.46
    121.0700	  609.00	  649.82	-1804.41	  320.67
    121.1700	  636.00	  641.13	-1768.72	  320.89
    121.2700	  629.00	  633.92	-1768.51	  321.12
    121.3700	  662.00	  628.02	-1729.61	  321.35
    121.4700	  584.00	  623.32	-1802.91	  321.59
    121.5700	  629.00	  619.70	-1754.29	  321.85
    121.6700	  593.00	  617.08	-1787.67	  322.11
    121.7700	  594.00	  615.36	-1784.95	  322.38
    121.8700	  631.00	  614.49	-1747.08	  322.66
    121.9700	  605.00	  614.39	-1772.98	  322.95
    122.0700	  646.00	  614.99	-1732.58	  323.25
    122.1700	  625.00	  616.22	-1754.81	  323.56
    122.2700	  582.00	  618.01	-1799.60	  323.88
    122.3700	  611.00	  620.29	-1772.88	  324.21
    122.4700	  645.00	  622.98	-1741.57	  324.54
    122.5700	  602.00	  625.99	-1787.58	  324.89
    122.6700	  593.00	  629.24	-1799.83	  325.25
    122.7700	  607.00	  632.62	-1789.21	  325.62
    122.8700	  651.00	  636.03	-1748.62	  326.00
    122.9700	  613.00	  639.37	-1789.96	  326.39
    123.0700	  637.00	  642.53	-1769.12	  326.79
    123.1700	  675.00	  645.40	-1733.99	  327.20
    123.2700	  655.00	  647.87	-1756.46	  327.62
    123.3700	  652.00	  649.86	-1761.44	  328.05
    123.4700	  684.00	  651.28	-1730.86	  328.49
    123.5700	  679.00	  652.08	-1736.67	  328.94
    123.6700	  708.00	  652.25	-1707.83	  329.40
    123.7700	  623.00	  651.77	-1792.36	  329.88
    123.8700	  638.00	  650.68	-1776.27	  330.36
    123.9700	  663.00	  649.03	-1749.62	  330.86
    124.0700	  665.00	  646.89	-1745.47	  331.37
    124.1700	  645.00	  644.31	-1762.90	  331.89
    124.2700	  632.00	  641.39	-1772.98	  332.42
    124.3700	  641.00	  638.17	-1760.76	  332.96
    124.4700	  635.00	  634.78	-1763.37	  333.51
    124.5700	  612.00	  631.27	-1782.86	  334.08
    124.6700	  637.00	  627.72	-1754.30	  334.66
    124.7700	  570.00	  624.17	-1817.76	  335.25
    124.8700	  615.00	  620.68	-1769.27	  335.85
    124.9700	  686.00	  442.42	-1520.01	  336.46
    125.0700	  603.00	  443.04	-1763.59	  337.08
    125.1700	  610.00	  443.68	-1763.59	  337.72
    125.2700	  628.00	  444.33	-1763.59	  338.37
    125.3700	  666.00	  444.99	-1763.59	  339.04
    125.4700	  585.00	  445.67	-1763.59	  339.71
    125.5700	  604.00	  446.36	-1763.59	  340.40
    125.6700	  624.00	  447.06	-1763.59	  341.10
    125.7700	  573.00	  447.77	-1763.59	  341.81
    125.8700	  551.00	  448.50	-1763.59	  342.54
    125.9700	  584.00	  449.24	-1763.59	  343.28
    126.0700	  578.00	  449.99	-1763.59	  344.03
    126.1700	  589.00	  450.75	-1763.59	  344.80
    126.2700	  585.00	  451.53	-1763.59	  345.58
    126.3700	  612.00	  452.33	-1763.59	  346.37
    126.4700	  599.00	  453.13	-1763.59	  347.17
    126.5700	  589.00	  453.95	-1763.59	  347.99
    126.6700	  598.00	  454.79	-1763.59	  348.83
    126.7700	  570.00	  455.63	-1763.59	  349.68
    126.8700	  602.00	  456.49	-1763.59	  350.54
    126.9700	  599.00	  457.37	-1763.59	  351.41
    127.0700	  566.00	  458.26	-1763.59	  352.30
    127.1700	  585.00	  459.16	-1763.59	  353.21
    127.2700	  509.00	  460.08	-1763.59	  354.12
    127.3700	  518.00	  461.02	-1763.59	  355.06
    127.4700	  593.00	  461.96	-1763.59	  356.01
    127.5700	  587.00	  462.92	-1763.59	  356.97
    127.6700	  547.00	  463.90	-1763.59	  357.94
    127.7700	  570.00	  464.89	-1763.59	  358.94
    127.8700	  664.00	  465.90	-1763.59	  359.94
    127.9700	  637.00	  466.92	-1763.59	  360.97
    128.0700	  628.00	  467.96	-1763.59	  362.00
    128.1700	  601.00	  469.01	-1763.59	  363.05
    128.2700	  667.00	  470.08	-1763.59	  364.12
    128.3700	  686.00	  471.16	-1763.59	  365.21
    128.4700	  663.00	  472.26	-1763.59	  366.31
    128.5700	    0.00	  473.38	-1763.59	  367.42
    128.6700	    0.00	  474.51	-1763.59	  368.55
     12.3627	        	        	        	        	       0	(  0  0  2)	  0  1
     24.9982	        	        	        	        	       0	(  0  0  4)	  0  1
     28.4300	        	        	        	        	       0	(  1  0  0)	  0  1
     29.1307	        	        	        	        	       0	(  1  0  1)	  0  1
     31.1470	        	        	        	        	       0	(  1  0  2)	  0  1
     34.2709	        	        	        	        	       0	(  1  0  3)	  0  1
     37.9538	        	        	        	        	       0	(  0  0  6)	  0  1
     38.2677	        	        	        	        	       0	(  1  0  4)	  0  1
     42.9409	        	        	        	        	       0	(  1  0  5)	  0  1
     48.1510	        	        	        	        	       0	(  1  0  6)	  0  1
     50.4463	        	        	        	        	       0	(  1  1  0)	  0  1
     51.4388	        	        	        	        	       0	(  0  0  8)	  0  1
     52.1790	        	        	        	        	       0	(  1  1  2)	  0  1
     53.8105	        	        	        	        	       0	(  1  0  7)	  0  1
     57.1549	        	        	        	        	       0	(  1  1  4)	  0  1
     58.9778	        	        	        	        	       0	(  2  0  0)	  0  1
     59.3717	        	        	        	        	       0	(  2  0  1)	  0  1
     59.8733	        	        	        	        	       0	(  1  0  8)	  0  1
     60.5440	        	        	        	        	       0	(  2  0  2)	  0  1
     62.4687	        	        	        	        	       0	(  2  0  3)	  0  1
     64.8945	        	        	        	        	       0	(  1  1  6)	  0  1
     65.1086	        	        	        	        	       0	(  2  0  4)	  0  1
     65.7433	        	        	        	        	       0	(  0  0 10)	  0  1
     66.3260	        	        	        	        	       0	(  1  0  9)	  0  1
     68.4232	        	        	        	        	       0	(  2  0  5)	  0  1
     72.3757	        	        	        	        	       0	(  2  0  6)	  0  1
     73.1834	        	        	        	        	       0	(  1  0 10)	  0  1
     74.9950	        	        	        	        	       0	(  1  1  8)	  0  1
     76.9398	        	        	        	        	       0	(  2  0  7)	  0  1
     80.4889	        	        	        	        	       0	(  1  0 11)	  0  1
     81.3260	        	        	        	        	       0	(  2  1  0)	  0  1
     81.3209	        	        	        	        	       0	(  0  0 12)	  0  1
     81.6683	        	        	        	        	       0	(  2  1  1)	  0  1
     82.1059	        	        	        	        	       0	(  2  0  8)	  0  1
     82.6936	        	        	        	        	       0	(  2  1  2)	  0  1
     84.3975	        	        	        	        	       0	(  2  1  3)	  0  1
     86.7751	        	        	        	        	       0	(  2  1  4)	  0  1
     87.3535	        	        	        	        	       0	(  1  1 10)	  0  1
     87.8869	        	        	        	        	       0	(  2  0  9)	  0  1
     88.3204	        	        	        	        	       0	(  1  0 12)	  0  1
     89.8247	        	        	        	        	       0	(  2  1  5)	  0  1
     93.5527	        	        	        	        	       0	(  2  1  6)	  0  1
     94.3267	        	        	        	        	       0	(  2  0 10)	  0  1
     95.3015	        	        	        	        	       0	(  3  0  0)	  0  1
     95.6418	        	        	        	        	       0	(  3  0  1)	  0  1
     96.6640	        	        	        	        	       0	(  3  0  2)	  0  1
     96.8044	        	        	        	        	       0	(  1  0 13)	  0  1
     97.9800	        	        	        	        	       0	(  2  1  7)	  0  1
     98.3726	        	        	        	        	       0	(  3  0  3)	  0  1
     99.0026	        	        	        	        	       0	(  0  0 14)	  0  1
    100.7779	        	        	        	        	       0	(  3  0  4)	  0  1
    101.5143	        	        	        	        	       0	(  2  0 11)	  0  1
    102.3546	        	        	        	        	       0	(  1  1 12)	  0  1
    103.1517	        	        	        	        	       0	(  2  1  8)	  0  1
    103.9000	        	        	        	        	       0	(  3  0  5)	  0  1
    106.1498	        	        	        	        	       0	(  1  0 14)	  0  1
    107.7755	        	        	        	        	       0	(  3  0  6)	  0  1
    109.1523	        	        	        	        	       0	(  2  1  9)	  0  1
    109.6120	        	        	        	        	       0	(  2  0 12)	  0  1
    112.4696	        	        	        	        	       0	(  3  0  7)	  0  1
    116.1352	        	        	        	        	       0	(  2  1 10)	  0  1
    116.7254	        	        	        	        	       0	(  1  0 15)	  0  1
    117.2233	        	        	        	        	       0	(  2  2  0)	  0  1
    118.0959	        	        	        	        	       0	(  3  0  8)	  0  1
    118.7593	        	        	        	        	       0	(  2  2  2)	  0  1
    118.9187	        	        	        	        	       0	(  2  0 13)	  0  1
    120.7584	        	        	        	        	       0	(  0  0 16)	  0  1
    121.4398	        	        	        	        	       0	(  1  1 14)	  0  1
    123.5150	        	        	        	        	       0	(  2  2  4)	  0  1
    124.3869	        	        	        	        	       0	(  2  1 11)	  0  1
    124.8596	        	        	        	        	       0	(  3  0  9)	  0  1
    125.3963	        	        	        	        	       0	(  3  1  0)	  0  1
    125.8135	        	        	        	        	       0	(  3  1  1)	  0  1
    127.0786	        	        	        	        	       0	(  3  1  2)	  0  1
    129.2359	        	        	        	        	       0	(  3  1  3)	  0  1
    129.2875	        	        	        	        	       0	(  1  0 16)	  0  1
    130.0458	        	        	        	        	       0	(  2  0 14)	  0  1
    132.1113	        	        	        	        	       0	(  2  2  6)	  0  1
    132.3741	        	        	        	        	       0	(  3  1  4)	  0  1
    133.1627	        	        	        	        	       0	(  3  0 10)	  0  1
    134.5050	        	        	        	        	       0	(  2  1 12)	  0  1
    136.6589	        	        	        	        	       0	(  3  1  5)	  0  1
    142.4164	        	        	        	        	       0	(  3  1  6)	  0  1
    143.9501	        	        	        	        	       0	(  3  0 11)	  0  1
    144.6089	        	        	        	        	       0	(  2  0 15)	  0  1
    145.9689	        	        	        	        	       0	(  1  0 17)	  0  1
    146.7718	        	        	        	        	       0	(  2  2  8)	  0  1
    148.1184	        	        	        	        	       0	(  2  1 13)	  0  1
    150.4070	        	        	        	        	       0	(  3  1  7)	  0  1
    151.2897	        	        	        	        	       0	(  1  1 16)	  0  1
    156.1119	        	        	        	        	       0	(  0  0 18)	  0  1
    160.9269	        	        	        	        	       0	(  4  0  0)	  0  1
    160.9116	        	        	        	        	       0	(  3  0 12)	  0  1
    161.9990	        	        	        	        	       0	(  4  0  1)	  0  1
    163.4690	        	        	        	        	       0	(  3  1  8)	  0  1
    165.6767	        	        	        	        	       0	(  4  0  2)	  0  1
    177.3073	        	        	        	        	       0	(  4  0  3)	  0  1
