MSG Master    CELL:    5.91923   5.91923  23.27511   90.0000   90.0000  120.0000   SPGR: P 63/m m c             TEMP:   1074.85
  1   1280     2.52000     0.00000    -0.12685     0.00000     0.00000    0
    99     0     2
       0.00000      10.00000
     125.00000     130.00000
 2Theta	Yobs	Ycal	Yobs-Ycal	Backg	Posr	(hkl)	K
      0.7700	    0.00	  534.60	-1755.00	  416.66
      0.8700	    0.00	  535.44	-1755.00	  417.50
      0.9700	   33.00	  536.27	-1755.00	  418.33
      1.0700	   40.00	  537.09	-1755.00	  419.15
      1.1700	   52.00	  537.90	-1755.00	  419.95
      1.2700	   57.00	  538.69	-1755.00	  420.75
      1.3700	   45.00	  539.47	-1755.00	  421.53
      1.4700	   90.00	  540.25	-1755.00	  422.30
      1.5700	  308.00	  541.01	-1755.00	  423.07
      1.6700	  456.00	  541.76	-1755.00	  423.82
      1.7700	  594.00	  542.50	-1755.00	  424.56
      1.8700	  704.00	  543.23	-1755.00	  425.28
      1.9700	  713.00	  543.94	-1755.00	  426.00
      2.0700	  810.00	  544.65	-1755.00	  426.71
      2.1700	  810.00	  545.35	-1755.00	  427.40
      2.2700	  735.00	  546.03	-1755.00	  428.09
      2.3700	  737.00	  546.71	-1755.00	  428.77
      2.4700	  707.00	  547.37	-1755.00	  429.43
      2.5700	  692.00	  548.03	-1755.00	  430.09
      2.6700	  628.00	  548.67	-1755.00	  430.73
      2.7700	  647.00	  549.31	-1755.00	  431.36
      2.8700	  634.00	  549.93	-1755.00	  431.99
      2.9700	  599.00	  550.54	-1755.00	  432.60
      3.0700	  601.00	  551.15	-1755.00	  433.20
      3.1700	  595.00	  551.74	-1755.00	  433.80
      3.2700	  625.00	  552.33	-1755.00	  434.38
      3.3700	  704.00	  552.90	-1755.00	  434.96
      3.4700	  730.00	  553.46	-1755.00	  435.52
      3.5700	  782.00	  554.02	-1755.00	  436.07
      3.6700	  863.00	  554.56	-1755.00	  436.62
      3.7700	  928.00	  555.10	-1755.00	  437.16
      3.8700	  987.00	  555.62	-1755.00	  437.68
      3.9700	 1047.00	  556.14	-1755.00	  438.20
      4.0700	 1086.00	  556.65	-1755.00	  438.71
      4.1700	 1106.00	  557.15	-1755.00	  439.20
      4.2700	 1088.00	  557.64	-1755.00	  439.69
      4.3700	 1022.00	  558.11	-1755.00	  440.17
      4.4700	 1047.00	  558.59	-1755.00	  440.64
      4.5700	 1033.00	  559.05	-1755.00	  441.10
      4.6700	 1023.00	  559.50	-1755.00	  441.56
      4.7700	 1009.00	  559.94	-1755.00	  442.00
      4.8700	  929.00	  560.38	-1755.00	  442.43
      4.9700	  974.00	  560.80	-1755.00	  442.86
      5.0700	  950.00	  561.22	-1755.00	  443.28
      5.1700	  939.00	  561.63	-1755.00	  443.69
      5.2700	  941.00	  562.03	-1755.00	  444.09
      5.3700	  871.00	  562.42	-1755.00	  444.48
      5.4700	  879.00	  562.81	-1755.00	  444.86
      5.5700	  894.00	  563.18	-1755.00	  445.24
      5.6700	  856.00	  563.55	-1755.00	  445.61
      5.7700	  837.00	  563.91	-1755.00	  445.96
      5.8700	  834.00	  564.26	-1755.00	  446.31
      5.9700	  792.00	  564.60	-1755.00	  446.66
      6.0700	  841.00	  564.93	-1755.00	  446.99
      6.1700	  768.00	  565.26	-1755.00	  447.32
      6.2700	  774.00	  565.58	-1755.00	  447.64
      6.3700	  740.00	  565.89	-1755.00	  447.95
      6.4700	  757.00	  566.19	-1755.00	  448.25
      6.5700	  705.00	  566.49	-1755.00	  448.54
      6.6700	  747.00	  566.78	-1755.00	  448.83
      6.7700	  707.00	  567.06	-1755.00	  449.11
      6.8700	  748.00	  567.33	-1755.00	  449.38
      6.9700	  696.00	  567.59	-1755.00	  449.65
      7.0700	  755.00	  567.85	-1755.00	  449.91
      7.1700	  696.00	  568.10	-1755.00	  450.16
      7.2700	  708.00	  568.34	-1755.00	  450.40
      7.3700	  629.00	  568.58	-1755.00	  450.64
      7.4700	  607.00	  568.81	-1755.00	  450.86
      7.5700	  652.00	  569.03	-1755.00	  451.08
      7.6700	  697.00	  569.24	-1755.00	  451.30
      7.7700	  658.00	  569.45	-1755.00	  451.51
      7.8700	  637.00	  569.65	-1755.00	  451.71
      7.9700	  639.00	  569.84	-1755.00	  451.90
      8.0700	  631.00	  570.03	-1755.00	  452.09
      8.1700	  647.00	  570.21	-1755.00	  452.27
      8.2700	  670.00	  570.38	-1755.00	  452.44
      8.3700	  621.00	  570.55	-1755.00	  452.61
      8.4700	  641.00	  570.71	-1755.00	  452.76
      8.5700	  635.00	  570.86	-1755.00	  452.92
      8.6700	  641.00	  571.01	-1755.00	  453.06
      8.7700	  623.00	  571.15	-1755.00	  453.20
      8.8700	  629.00	  571.28	-1755.00	  453.34
      8.9700	  629.00	  571.41	-1755.00	  453.47
      9.0700	  622.00	  571.53	-1755.00	  453.59
      9.1700	  596.00	  571.65	-1755.00	  453.70
      9.2700	  595.00	  571.76	-1755.00	  453.81
      9.3700	  619.00	  571.86	-1755.00	  453.91
      9.4700	  672.00	  571.95	-1755.00	  454.01
      9.5700	  586.00	  572.05	-1755.00	  454.10
      9.6700	  641.00	  572.13	-1755.00	  454.19
      9.7700	  550.00	  572.21	-1755.00	  454.27
      9.8700	  558.00	  572.28	-1755.00	  454.34
      9.9700	  606.00	  572.35	-1755.00	  454.41
     10.0700	  616.00	  573.38	-1712.38	  454.47
     10.1700	  579.00	  573.55	-1749.55	  454.52
     10.2700	  616.00	  573.73	-1712.73	  454.57
     10.3700	  580.00	  573.95	-1748.95	  454.62
     10.4700	  535.00	  574.23	-1794.23	  454.66
     10.5700	  601.00	  574.65	-1728.65	  454.69
     10.6700	  616.00	  575.30	-1714.30	  454.72
     10.7700	  560.00	  576.30	-1771.30	  454.74
     10.8700	  539.00	  577.71	-1793.71	  454.76
     10.9700	  579.00	  579.54	-1755.54	  454.77
     11.0700	  605.00	  581.76	-1731.76	  454.78
     11.1700	  563.00	  584.35	-1776.35	  454.78
     11.2700	  593.00	  587.37	-1749.37	  454.78
     11.3700	  600.00	  590.90	-1745.90	  454.77
     11.4700	  555.00	  595.09	-1795.09	  454.76
     11.5700	  604.00	  600.16	-1751.16	  454.74
     11.6700	  634.00	  606.50	-1727.50	  454.72
     11.7700	  634.00	  614.77	-1735.77	  454.69
     11.8700	  655.00	  625.87	-1725.87	  454.66
     11.9700	  677.00	  640.20	-1718.20	  454.62
     12.0700	  659.00	  655.79	-1751.79	  454.58
     12.1700	  699.00	  666.26	-1722.26	  454.53
     12.2700	  686.00	  662.05	-1731.05	  454.48
     12.3700	  667.00	  640.73	-1728.73	  454.42
     12.4700	  644.00	  614.94	-1725.94	  454.36
     12.5700	  591.00	  595.73	-1759.73	  454.30
     12.6700	  531.00	  584.86	-1808.86	  454.23
     12.7700	  623.00	  579.67	-1711.67	  454.15
     12.8700	  552.00	  577.24	-1780.24	  454.08
     12.9700	  561.00	  575.92	-1769.92	  453.99
     13.0700	  596.00	  575.04	-1734.04	  453.91
     13.1700	  547.00	  574.40	-1782.40	  453.82
     13.2700	  577.00	  573.89	-1751.89	  453.72
     13.3700	  527.00	  573.47	-1801.47	  453.62
     13.4700	  593.00	  573.12	-1735.12	  453.52
     13.5700	  570.00	  572.81	-1757.81	  453.41
     13.6700	  566.00	  572.54	-1761.54	  453.30
     13.7700	  586.00	  572.29	-1741.29	  453.19
     13.8700	  585.00	  572.06	-1742.06	  453.07
     13.9700	  602.00	  571.84	-1724.84	  452.95
     14.0700	  579.00	  571.63	-1747.63	  452.82
     14.1700	  561.00	  571.43	-1765.43	  452.69
     14.2700	  524.00	  571.24	-1802.24	  452.55
     14.3700	  568.00	  571.05	-1758.05	  452.42
     14.4700	  552.00	  570.87	-1773.87	  452.28
     14.5700	  564.00	  570.68	-1761.68	  452.13
     14.6700	  537.00	  570.50	-1788.50	  451.98
     14.7700	  580.00	  570.32	-1745.32	  451.83
     14.8700	  517.00	  570.13	-1808.13	  451.68
     14.9700	  544.00	  569.95	-1780.95	  451.52
     15.0700	  531.00	  569.77	-1793.77	  451.36
     15.1700	  533.00	  569.58	-1791.58	  451.19
     15.2700	  609.00	  569.39	-1715.39	  451.02
     15.3700	  550.00	  569.20	-1774.20	  450.85
     15.4700	  553.00	  569.01	-1771.01	  450.67
     15.5700	  589.00	  568.82	-1734.82	  450.50
     15.6700	  590.00	  568.63	-1733.63	  450.32
     15.7700	  528.00	  568.43	-1795.43	  450.13
     15.8700	  591.00	  568.26	-1732.26	  449.94
     15.9700	  598.00	  568.06	-1725.06	  449.75
     16.0700	  574.00	  567.86	-1748.86	  449.56
     16.1700	  575.00	  567.66	-1747.66	  449.36
     16.2700	  556.00	  567.45	-1766.45	  449.17
     16.3700	  606.00	  567.24	-1716.24	  448.96
     16.4700	  542.00	  567.03	-1780.03	  448.76
     16.5700	  528.00	  566.82	-1793.82	  448.55
     16.6700	  532.00	  566.61	-1789.61	  448.34
     16.7700	  579.00	  566.39	-1742.39	  448.13
     16.8700	  563.00	  566.17	-1758.17	  447.91
     16.9700	  539.00	  565.95	-1781.95	  447.70
     17.0700	  603.00	  565.72	-1717.72	  447.47
     17.1700	  662.00	  565.50	-1658.50	  447.25
     17.2700	  597.00	  565.27	-1723.27	  447.03
     17.3700	  591.00	  565.04	-1729.04	  446.80
     17.4700	  534.00	  564.80	-1785.80	  446.57
     17.5700	  543.00	  564.57	-1776.57	  446.33
     17.6700	  555.00	  564.33	-1764.33	  446.10
     17.7700	  582.00	  564.09	-1737.09	  445.86
     17.8700	  535.00	  563.85	-1783.85	  445.62
     17.9700	  559.00	  563.61	-1759.61	  445.38
     18.0700	  563.00	  563.47	-1755.47	  445.14
     18.1700	  554.00	  563.23	-1764.23	  444.89
     18.2700	  539.00	  562.98	-1778.98	  444.64
     18.3700	  546.00	  562.73	-1771.73	  444.39
     18.4700	  573.00	  562.48	-1744.48	  444.14
     18.5700	  595.00	  562.23	-1722.23	  443.88
     18.6700	  575.00	  561.98	-1741.98	  443.63
     18.7700	  542.00	  561.72	-1774.72	  443.37
     18.8700	  602.00	  561.55	-1714.55	  443.11
     18.9700	  502.00	  561.29	-1814.29	  442.85
     19.0700	  557.00	  561.03	-1759.03	  442.58
     19.1700	  561.00	  560.77	-1754.77	  442.32
     19.2700	  536.00	  560.51	-1779.51	  442.05
     19.3700	  559.00	  560.25	-1756.25	  441.78
     19.4700	  590.00	  559.98	-1724.98	  441.51
     19.5700	  527.00	  559.72	-1787.72	  441.24
     19.6700	  558.00	  559.45	-1756.45	  440.96
     19.7700	  596.00	  559.19	-1718.19	  440.69
     19.8700	  541.00	  558.92	-1772.92	  440.41
     19.9700	  570.00	  558.65	-1743.65	  440.13
     20.0700	  544.00	  558.38	-1769.38	  439.85
     20.1700	  534.00	  558.10	-1779.10	  439.57
     20.2700	  541.00	  557.83	-1771.83	  439.28
     20.3700	  568.00	  557.56	-1744.56	  439.00
     20.4700	  550.00	  557.28	-1762.28	  438.71
     20.5700	  570.00	  557.01	-1742.01	  438.43
     20.6700	  560.00	  556.73	-1751.73	  438.14
     20.7700	  478.00	  556.49	-1833.49	  437.85
     20.8700	  542.00	  556.18	-1769.18	  437.55
     20.9700	  553.00	  555.91	-1757.91	  437.26
     21.0700	  570.00	  555.63	-1740.63	  436.97
     21.1700	  556.00	  555.36	-1754.36	  436.67
     21.2700	  535.00	  555.08	-1775.08	  436.38
     21.3700	  524.00	  554.81	-1785.81	  436.08
     21.4700	  561.00	  554.53	-1748.53	  435.78
     21.5700	  564.00	  554.26	-1745.26	  435.48
     21.6700	  573.00	  553.99	-1735.99	  435.18
     21.7700	  527.00	  553.72	-1781.72	  434.88
     21.8700	  575.00	  553.45	-1733.45	  434.58
     21.9700	  559.00	  553.18	-1749.18	  434.27
     22.0700	  519.00	  552.91	-1788.91	  433.97
     22.1700	  557.00	  552.65	-1750.65	  433.66
     22.2700	  548.00	  552.39	-1759.39	  433.36
     22.3700	  555.00	  552.13	-1752.13	  433.05
     22.4700	  564.00	  551.88	-1742.88	  432.74
     22.5700	  537.00	  551.63	-1769.63	  432.44
     22.6700	  556.00	  551.39	-1750.39	  432.13
     22.7700	  581.00	  551.16	-1725.16	  431.82
     22.8700	  561.00	  550.93	-1744.93	  431.51
     22.9700	  571.00	  550.72	-1734.72	  431.20
     23.0700	  541.00	  550.52	-1764.52	  430.88
     23.1700	  560.00	  550.34	-1745.34	  430.57
     23.2700	  555.00	  550.19	-1750.19	  430.26
     23.3700	  507.00	  550.06	-1798.06	  429.94
     23.4700	  563.00	  549.98	-1741.98	  429.63
     23.5700	  561.00	  550.08	-1744.08	  429.32
     23.6700	  539.00	  550.13	-1766.13	  429.00
     23.7700	  536.00	  550.31	-1769.31	  428.69
     23.8700	  558.00	  550.75	-1747.75	  428.37
     23.9700	  584.00	  551.66	-1722.66	  428.05
     24.0700	  551.00	  553.51	-1757.51	  427.74
     24.1700	  546.00	  556.93	-1765.93	  427.42
     24.2700	  537.00	  562.79	-1780.79	  427.10
     24.3700	  580.00	  572.00	-1747.00	  426.78
     24.4700	  561.00	  585.42	-1779.42	  426.47
     24.5700	  609.00	  602.94	-1748.94	  426.15
     24.6700	  641.00	  621.52	-1735.52	  425.83
     24.7700	  611.00	  633.68	-1777.68	  425.51
     24.8700	  632.00	  629.93	-1752.93	  425.19
     24.9700	  642.00	  609.70	-1722.70	  424.87
     25.0700	  583.00	  585.56	-1757.56	  424.55
     25.1700	  563.00	  567.22	-1759.22	  424.24
     25.2700	  587.00	  556.47	-1724.47	  423.92
     25.3700	  601.00	  551.14	-1705.14	  423.60
     25.4700	  498.00	  548.59	-1805.59	  423.28
     25.5700	  539.00	  547.23	-1763.23	  422.96
     25.6700	  555.00	  546.36	-1746.36	  422.64
     25.7700	  586.00	  545.73	-1714.73	  422.32
     25.8700	  531.00	  545.25	-1769.25	  422.00
     25.9700	  524.00	  544.90	-1775.90	  421.68
     26.0700	  577.00	  544.64	-1722.64	  421.36
     26.1700	  544.00	  544.46	-1755.46	  421.04
     26.2700	  556.00	  544.37	-1743.37	  420.72
     26.3700	  569.00	  544.36	-1730.36	  420.40
     26.4700	  551.00	  544.45	-1748.45	  420.09
     26.5700	  592.00	  544.63	-1707.63	  419.77
     26.6700	  580.00	  544.93	-1719.93	  419.45
     26.7700	  524.00	  545.37	-1776.37	  419.13
     26.8700	  534.00	  546.00	-1767.00	  418.81
     26.9700	  541.00	  546.87	-1760.87	  418.50
     27.0700	  581.00	  548.04	-1722.04	  418.18
     27.1700	  565.00	  549.67	-1739.67	  417.86
     27.2700	  535.00	  552.02	-1772.02	  417.55
     27.3700	  547.00	  555.61	-1763.61	  417.23
     27.4700	  569.00	  561.50	-1747.50	  416.91
     27.5700	  558.00	  571.53	-1768.53	  416.60
     27.6700	  574.00	  588.65	-1769.65	  416.28
     27.7700	  609.00	  616.65	-1762.65	  415.97
     27.8700	  616.00	  658.82	-1797.82	  415.66
     27.9700	  645.00	  715.27	-1825.27	  415.34
     28.0700	  832.00	  779.45	-1702.45	  415.03
     28.1700	  899.00	  835.07	-1691.07	  414.72
     28.2700	  971.00	  857.76	-1641.76	  414.40
     28.3700	  881.00	  833.40	-1707.40	  414.09
     28.4700	  843.00	  785.11	-1697.11	  413.78
     28.5700	  704.00	  750.22	-1801.22	  413.47
     28.6700	  684.00	  745.52	-1816.52	  413.16
     28.7700	  744.00	  766.16	-1777.16	  412.85
     28.8700	  759.00	  792.09	-1788.09	  412.54
     28.9700	  834.00	  795.52	-1716.52	  412.24
     29.0700	  763.00	  759.14	-1751.14	  411.93
     29.1700	  707.00	  698.18	-1746.18	  411.62
     29.2700	  644.00	  640.22	-1751.22	  411.32
     29.3700	  574.00	  598.33	-1779.33	  411.01
     29.4700	  594.00	  572.90	-1733.90	  410.71
     29.5700	  615.00	  559.06	-1699.06	  410.40
     29.6700	  629.00	  551.70	-1677.70	  410.10
     29.7700	  636.00	  547.52	-1666.52	  409.80
     29.8700	  618.00	  544.91	-1681.91	  409.50
     29.9700	  584.00	  543.25	-1714.25	  409.20
     30.0700	  572.00	  542.41	-1725.41	  408.90
     30.1700	  550.00	  542.53	-1747.53	  408.60
     30.2700	  573.00	  544.15	-1726.15	  408.30
     30.3700	  525.00	  548.26	-1778.26	  408.00
     30.4700	  567.00	  556.39	-1744.39	  407.71
     30.5700	  581.00	  570.06	-1744.06	  407.41
     30.6700	  573.00	  589.60	-1771.60	  407.12
     30.7700	  583.00	  612.50	-1784.50	  406.82
     30.8700	  591.00	  632.26	-1796.26	  406.53
     30.9700	  608.00	  638.96	-1785.96	  406.24
     31.0700	  620.00	  626.09	-1761.09	  405.95
     31.1700	  574.00	  600.35	-1781.35	  405.66
     31.2700	  588.00	  574.53	-1741.53	  405.37
     31.3700	  525.00	  555.35	-1785.35	  405.08
     31.4700	  552.00	  543.55	-1746.55	  404.79
     31.5700	  526.00	  537.14	-1766.14	  404.51
     31.6700	  528.00	  533.80	-1760.80	  404.22
     31.7700	  556.00	  531.94	-1730.94	  403.94
     31.8700	  484.00	  530.77	-1801.77	  403.66
     31.9700	  511.00	  529.96	-1773.96	  403.38
     32.0700	  582.00	  529.40	-1702.40	  403.10
     32.1700	  534.00	  529.02	-1750.02	  402.82
     32.2700	  504.00	  528.80	-1779.80	  402.54
     32.3700	  536.00	  528.74	-1747.74	  402.26
     32.4700	  574.00	  528.84	-1709.84	  401.99
     32.5700	  575.00	  529.12	-1709.12	  401.71
     32.6700	  554.00	  529.60	-1730.60	  401.44
     32.7700	  570.00	  530.35	-1715.35	  401.17
     32.8700	  539.00	  531.42	-1747.42	  400.90
     32.9700	  554.00	  532.94	-1733.94	  400.63
     33.0700	  536.00	  535.16	-1754.16	  400.36
     33.1700	  547.00	  538.55	-1746.55	  400.09
     33.2700	  534.00	  544.23	-1765.23	  399.82
     33.3700	  568.00	  554.54	-1741.54	  399.56
     33.4700	  595.00	  573.86	-1733.86	  399.29
     33.5700	  596.00	  608.94	-1767.94	  399.03
     33.6700	  646.00	  667.26	-1776.26	  398.77
     33.7700	  768.00	  751.57	-1738.57	  398.51
     33.8700	  927.00	  852.30	-1680.30	  398.25
     33.9700	 1003.00	  942.43	-1694.43	  398.00
     34.0700	 1051.00	  981.19	-1685.19	  397.74
     34.1700	 1014.00	  939.20	-1680.20	  397.48
     34.2700	  911.00	  838.11	-1682.11	  397.23
     34.3700	  757.00	  729.31	-1727.31	  396.98
     34.4700	  637.00	  644.33	-1762.33	  396.73
     34.5700	  572.00	  590.02	-1773.02	  396.48
     34.6700	  567.00	  559.96	-1747.96	  396.23
     34.7700	  538.00	  544.50	-1761.50	  395.99
     34.8700	  564.00	  536.32	-1727.32	  395.74
     34.9700	  506.00	  531.44	-1780.44	  395.50
     35.0700	  550.00	  528.07	-1733.07	  395.26
     35.1700	  518.00	  525.53	-1762.53	  395.01
     35.2700	  504.00	  523.52	-1774.52	  394.78
     35.3700	  567.00	  521.89	-1709.89	  394.54
     35.4700	  544.00	  520.54	-1731.54	  394.30
     35.5700	  527.00	  519.40	-1747.40	  394.07
     35.6700	  532.00	  518.42	-1741.42	  393.83
     35.7700	  474.00	  517.57	-1798.57	  393.60
     35.8700	  522.00	  516.82	-1749.82	  393.37
     35.9700	  519.00	  516.16	-1752.16	  393.14
     36.0700	  504.00	  516.04	-1767.04	  392.91
     36.1700	  499.00	  515.52	-1771.52	  392.69
     36.2700	  543.00	  515.05	-1727.05	  392.46
     36.3700	  531.00	  514.62	-1738.62	  392.24
     36.4700	  530.00	  514.25	-1739.25	  392.02
     36.5700	  513.00	  513.91	-1755.91	  391.80
     36.6700	  551.00	  513.63	-1717.63	  391.58
     36.7700	  560.00	  513.40	-1708.40	  391.36
     36.8700	  518.00	  513.28	-1750.28	  391.15
     36.9700	  533.00	  513.32	-1735.32	  390.93
     37.0700	  483.00	  513.72	-1785.72	  390.72
     37.1700	  498.00	  514.77	-1771.77	  390.51
     37.2700	  520.00	  516.91	-1751.91	  390.30
     37.3700	  522.00	  520.48	-1753.48	  390.09
     37.4700	  521.00	  525.39	-1759.39	  389.89
     37.5700	  532.00	  530.69	-1753.69	  389.68
     37.6700	  526.00	  534.53	-1763.53	  389.48
     37.7700	  502.00	  534.94	-1787.94	  389.28
     37.8700	  504.00	  531.63	-1782.63	  389.08
     37.9700	  529.00	  526.54	-1752.54	  388.88
     38.0700	  526.00	  521.48	-1750.48	  388.68
     38.1700	  516.00	  517.24	-1756.24	  388.49
     38.2700	  493.00	  514.03	-1776.03	  388.29
     38.3700	  538.00	  511.81	-1728.81	  388.10
     38.4700	  502.00	  510.35	-1763.35	  387.91
     38.5700	  495.00	  509.41	-1769.41	  387.72
     38.6700	  503.00	  508.78	-1760.78	  387.54
     38.7700	  513.00	  508.24	-1750.24	  387.35
     38.8700	  473.00	  507.90	-1789.90	  387.17
     38.9700	  527.00	  507.61	-1735.61	  386.99
     39.0700	  481.00	  507.36	-1781.35	  386.81
     39.1700	  534.00	  507.12	-1728.12	  386.63
     39.2700	  483.00	  506.97	-1778.97	  386.45
     39.3700	  517.00	  506.78	-1744.78	  386.28
     39.4700	  524.00	  506.59	-1737.59	  386.10
     39.5700	  534.00	  506.42	-1727.42	  385.93
     39.6700	  532.00	  506.27	-1729.27	  385.76
     39.7700	  511.00	  506.12	-1750.12	  385.59
     39.8700	  514.00	  505.98	-1746.98	  385.43
     39.9700	  488.00	  505.85	-1772.85	  385.26
     40.0700	  509.00	  505.73	-1751.73	  385.10
     40.1700	  541.00	  505.63	-1719.63	  384.93
     40.2700	  505.00	  505.53	-1755.53	  384.77
     40.3700	  516.00	  505.45	-1744.45	  384.62
     40.4700	  502.00	  505.38	-1758.38	  384.46
     40.5700	  474.00	  505.33	-1786.33	  384.30
     40.6700	  506.00	  505.30	-1754.30	  384.15
     40.7700	  505.00	  505.28	-1755.28	  384.00
     40.8700	  536.00	  505.30	-1724.30	  383.85
     40.9700	  521.00	  505.34	-1739.34	  383.70
     41.0700	  519.00	  505.41	-1741.41	  383.56
     41.1700	  477.00	  505.53	-1783.53	  383.41
     41.2700	  549.00	  505.71	-1711.71	  383.27
     41.3700	  489.00	  505.92	-1771.92	  383.13
     41.4700	  507.00	  506.69	-1754.69	  382.99
     41.5700	  473.00	  507.16	-1789.16	  382.85
     41.6700	  518.00	  507.83	-1744.83	  382.71
     41.7700	  484.00	  508.84	-1779.84	  382.58
     41.8700	  502.00	  510.52	-1763.52	  382.44
     41.9700	  501.00	  513.62	-1767.62	  382.31
     42.0700	  507.00	  519.47	-1767.47	  382.18
     42.1700	  537.00	  530.14	-1748.14	  382.06
     42.2700	  548.00	  547.88	-1754.88	  381.93
     42.3700	  558.00	  573.87	-1770.87	  381.81
     42.4700	  596.00	  605.88	-1764.88	  381.68
     42.5700	  582.00	  636.99	-1809.99	  381.56
     42.6700	  579.00	  656.03	-1832.03	  381.44
     42.7700	  556.00	  653.12	-1852.12	  381.33
     42.8700	  550.00	  628.98	-1833.98	  381.21
     42.9700	  588.00	  595.51	-1762.51	  381.10
     43.0700	  535.00	  564.07	-1784.07	  380.98
     43.1700	  543.00	  540.25	-1752.25	  380.87
     43.2700	  512.00	  524.84	-1767.84	  380.77
     43.3700	  494.00	  516.01	-1777.01	  380.66
     43.4700	  535.00	  511.33	-1731.33	  380.55
     43.5700	  540.00	  508.83	-1723.83	  380.45
     43.6700	  535.00	  507.58	-1727.58	  380.35
     43.7700	  465.00	  506.68	-1796.68	  380.25
     43.8700	  515.00	  506.00	-1746.00	  380.15
     43.9700	  493.00	  505.49	-1767.49	  380.05
     44.0700	  495.00	  505.08	-1765.08	  379.96
     44.1700	  489.00	  504.77	-1770.77	  379.86
     44.2700	  466.00	  504.52	-1793.52	  379.77
     44.3700	  492.00	  504.33	-1767.33	  379.68
     44.4700	  490.00	  504.18	-1769.18	  379.59
     44.5700	  483.00	  504.07	-1776.07	  379.51
     44.6700	  470.00	  503.99	-1788.99	  379.42
     44.7700	  509.00	  503.82	-1749.82	  379.34
     44.8700	  518.00	  503.80	-1740.80	  379.26
     44.9700	  504.00	  503.81	-1754.81	  379.18
     45.0700	  491.00	  503.84	-1767.84	  379.10
     45.1700	  495.00	  504.09	-1764.09	  379.02
     45.2700	  528.00	  504.17	-1731.17	  378.95
     45.3700	  517.00	  504.27	-1742.27	  378.88
     45.4700	  495.00	  504.40	-1764.40	  378.80
     45.5700	  546.00	  504.55	-1713.55	  378.73
     45.6700	  512.00	  504.73	-1747.73	  378.67
     45.7700	  516.00	  504.94	-1743.94	  378.60
     45.8700	  546.00	  505.18	-1714.18	  378.54
     45.9700	  497.00	  505.45	-1763.45	  378.47
     46.0700	  521.00	  505.75	-1739.75	  378.41
     46.1700	  500.00	  506.10	-1761.10	  378.35
     46.2700	  482.00	  506.50	-1779.50	  378.29
     46.3700	  514.00	  506.95	-1747.95	  378.24
     46.4700	  521.00	  507.47	-1741.47	  378.18
     46.5700	  489.00	  508.06	-1774.06	  378.13
     46.6700	  531.00	  508.76	-1732.76	  378.08
     46.7700	  502.00	  509.58	-1762.58	  378.03
     46.8700	  502.00	  510.61	-1763.61	  377.98
     46.9700	  520.00	  511.98	-1746.98	  377.93
     47.0700	  526.00	  514.11	-1743.11	  377.89
     47.1700	  526.00	  517.42	-1746.42	  377.85
     47.2700	  534.00	  522.97	-1743.97	  377.80
     47.3700	  493.00	  532.00	-1794.00	  377.77
     47.4700	  537.00	  545.56	-1763.56	  377.73
     47.5700	  546.00	  563.71	-1772.71	  377.69
     47.6700	  576.00	  584.54	-1763.54	  377.66
     47.7700	  616.00	  603.68	-1742.68	  377.62
     47.8700	  634.00	  614.85	-1735.85	  377.59
     47.9700	  605.00	  613.43	-1763.43	  377.56
     48.0700	  557.00	  600.73	-1798.73	  377.53
     48.1700	  612.00	  583.00	-1726.00	  377.50
     48.2700	  582.00	  566.19	-1739.19	  377.48
     48.3700	  495.00	  553.61	-1813.61	  377.45
     48.4700	  516.00	  546.21	-1785.21	  377.43
     48.5700	  539.00	  543.44	-1759.44	  377.41
     48.6700	  543.00	  544.17	-1756.17	  377.39
     48.7700	  558.00	  547.43	-1744.43	  377.37
     48.8700	  490.00	  552.68	-1817.68	  377.36
     48.9700	  559.00	  559.95	-1755.95	  377.34
     49.0700	  559.00	  569.87	-1765.87	  377.33
     49.1700	  580.00	  584.09	-1759.09	  377.32
     49.2700	  625.00	  606.07	-1736.07	  377.31
     49.3700	  661.00	  642.78	-1736.78	  377.30
     49.4700	  691.00	  704.75	-1768.75	  377.29
     49.5700	  849.00	  808.34	-1714.34	  377.29
     49.6700	  927.00	  971.79	-1799.79	  377.29
     49.7700	 1185.00	 1208.59	-1778.59	  377.28
     49.8700	 1458.00	 1516.79	-1813.79	  377.28
     49.9700	 1838.00	 1867.02	-1784.02	  377.28
     50.0700	 2177.00	 2193.72	-1771.72	  377.29
     50.1700	 2442.00	 2400.06	-1713.06	  377.29
     50.2700	 2482.00	 2400.80	-1673.80	  377.29
     50.3700	 2292.00	 2193.51	-1656.51	  377.30
     50.4700	 1815.00	 1864.92	-1804.92	  377.31
     50.5700	 1366.00	 1516.12	-1905.12	  377.32
     50.6700	 1077.00	 1213.46	-1891.46	  377.33
     50.7700	  826.00	  985.52	-1914.52	  377.34
     50.8700	  752.00	  833.05	-1836.05	  377.36
     50.9700	  684.00	  740.64	-1811.64	  377.37
     51.0700	  597.00	  687.36	-1845.36	  377.39
     51.1700	  625.00	  654.52	-1784.52	  377.41
     51.2700	  629.00	  630.01	-1756.01	  377.43
     51.3700	  552.00	  608.95	-1811.95	  377.45
     51.4700	  584.00	  590.68	-1761.68	  377.47
     51.5700	  606.00	  575.66	-1724.66	  377.49
     51.6700	  576.00	  564.18	-1743.18	  377.52
     51.7700	  533.00	  555.98	-1777.98	  377.55
     51.8700	  570.00	  550.45	-1735.45	  377.57
     51.9700	  556.00	  546.91	-1745.91	  377.60
     52.0700	  548.00	  545.02	-1752.02	  377.63
     52.1700	  545.00	  543.98	-1753.98	  377.67
     52.2700	  572.00	  543.94	-1726.94	  377.70
     52.3700	  557.00	  545.02	-1743.02	  377.73
     52.4700	  588.00	  547.73	-1714.73	  377.77
     52.5700	  543.00	  553.22	-1765.22	  377.81
     52.6700	  610.00	  563.83	-1708.83	  377.85
     52.7700	  583.00	  583.64	-1755.64	  377.89
     52.8700	  631.00	  618.71	-1742.71	  377.93
     52.9700	  743.00	  676.08	-1688.08	  377.97
     53.0700	  837.00	  761.20	-1679.20	  378.01
     53.1700	  903.00	  873.81	-1725.81	  378.06
     53.2700	 1019.00	 1003.54	-1739.54	  378.11
     53.3700	 1227.00	 1127.22	-1655.22	  378.15
     53.4700	 1141.00	 1210.81	-1824.81	  378.20
     53.5700	 1122.00	 1222.61	-1855.61	  378.25
     53.6700	 1032.00	 1156.93	-1879.93	  378.30
     53.7700	 1035.00	 1040.33	-1760.33	  378.36
     53.8700	  880.00	  909.09	-1784.09	  378.41
     53.9700	  736.00	  790.20	-1809.20	  378.47
     54.0700	  716.00	  697.38	-1736.38	  378.52
     54.1700	  636.00	  633.20	-1752.20	  378.58
     54.2700	  585.00	  593.26	-1763.26	  378.64
     54.3700	  590.00	  570.49	-1735.49	  378.70
     54.4700	  565.00	  558.35	-1748.35	  378.76
     54.5700	  623.00	  552.17	-1684.17	  378.82
     54.6700	  549.00	  549.15	-1755.15	  378.89
     54.7700	  574.00	  547.93	-1728.93	  378.95
     54.8700	  546.00	  547.85	-1756.85	  379.02
     54.9700	  575.00	  548.62	-1728.62	  379.08
     55.0700	  553.00	  550.20	-1752.20	  379.15
     55.1700	  535.00	  552.54	-1772.54	  379.22
     55.2700	  591.00	  555.72	-1719.72	  379.29
     55.3700	  536.00	  559.87	-1778.87	  379.36
     55.4700	  592.00	  565.23	-1728.23	  379.43
     55.5700	  601.00	  572.19	-1726.19	  379.51
     55.6700	  571.00	  581.61	-1765.61	  379.58
     55.7700	  597.00	  595.20	-1753.20	  379.66
     55.8700	  575.00	  616.39	-1796.39	  379.74
     55.9700	  601.00	  651.42	-1805.42	  379.81
     56.0700	  703.00	  710.61	-1762.61	  379.89
     56.1700	  767.00	  808.59	-1796.59	  379.97
     56.2700	  927.00	  962.52	-1790.52	  380.05
     56.3700	 1123.00	 1186.85	-1818.85	  380.14
     56.4700	 1354.00	 1485.20	-1886.20	  380.22
     56.5700	 1717.00	 1841.18	-1879.18	  380.30
     56.6700	 2134.00	 2210.89	-1831.89	  380.39
     56.7700	 2554.00	 2521.08	-1722.08	  380.47
     56.8700	 2535.00	 2682.49	-1902.49	  380.56
     56.9700	 2587.00	 2635.37	-1803.37	  380.65
     57.0700	 2317.00	 2397.86	-1835.86	  380.74
     57.1700	 2097.00	 2051.21	-1709.21	  380.83
     57.2700	 1683.00	 1682.09	-1754.09	  380.92
     57.3700	 1350.00	 1351.20	-1756.20	  381.01
     57.4700	 1042.00	 1089.26	-1802.26	  381.10
     57.5700	  866.00	  902.60	-1791.60	  381.19
     57.6700	  826.00	  781.94	-1710.94	  381.29
     57.7700	  651.00	  711.42	-1815.42	  381.38
     57.8700	  679.00	  675.85	-1751.85	  381.48
     57.9700	  712.00	  664.38	-1707.38	  381.58
     58.0700	  672.00	  671.13	-1754.13	  381.68
     58.1700	  749.00	  694.02	-1700.02	  381.77
     58.2700	  781.00	  732.97	-1706.97	  381.87
     58.3700	  832.00	  788.03	-1711.03	  381.97
     58.4700	  940.00	  857.79	-1672.79	  382.08
     58.5700	 1080.00	  937.85	-1612.85	  382.18
     58.6700	 1143.00	 1020.32	-1632.32	  382.28
     58.7700	 1357.00	 1096.12	-1494.12	  382.38
     58.8700	 1365.00	 1159.15	-1549.15	  382.49
     58.9700	 1459.00	 1206.27	-1502.27	  382.59
     59.0700	 1550.00	 1233.12	-1438.12	  382.70
     59.1700	 1546.00	 1235.69	-1444.69	  382.81
     59.2700	 1464.00	 1217.33	-1508.33	  382.91
     59.3700	 1403.00	 1189.32	-1541.32	  383.02
     59.4700	 1255.00	 1163.05	-1663.05	  383.13
     59.5700	 1188.00	 1146.13	-1713.13	  383.24
     59.6700	 1187.00	 1145.47	-1713.47	  383.35
     59.7700	 1117.00	 1169.54	-1807.54	  383.46
     59.8700	 1190.00	 1223.97	-1788.97	  383.57
     59.9700	 1322.00	 1305.11	-1738.11	  383.68
     60.0700	 1410.00	 1396.98	-1741.98	  383.80
     60.1700	 1545.00	 1472.07	-1682.07	  383.91
     60.2700	 1550.00	 1498.16	-1703.16	  384.02
     60.3700	 1566.00	 1455.42	-1644.42	  384.14
     60.4700	 1418.00	 1350.59	-1687.59	  384.26
     60.5700	 1303.00	 1210.26	-1662.26	  384.37
     60.6700	 1141.00	 1062.80	-1676.80	  384.49
     60.7700	  883.00	  929.00	-1801.00	  384.61
     60.8700	  810.00	  820.50	-1765.50	  384.72
     60.9700	  673.00	  741.41	-1823.41	  384.84
     61.0700	  683.00	  690.68	-1762.68	  384.96
     61.1700	  657.00	  665.15	-1763.15	  385.08
     61.2700	  606.00	  662.26	-1811.26	  385.20
     61.3700	  673.00	  681.59	-1763.59	  385.32
     61.4700	  683.00	  725.11	-1797.11	  385.44
     61.5700	  774.00	  795.88	-1776.88	  385.56
     61.6700	  877.00	  895.67	-1773.67	  385.69
     61.7700	  985.00	 1022.02	-1792.02	  385.81
     61.8700	 1048.00	 1165.72	-1872.72	  385.93
     61.9700	 1218.00	 1308.98	-1845.98	  386.05
     62.0700	 1309.00	 1425.45	-1871.45	  386.18
     62.1700	 1427.00	 1485.28	-1813.28	  386.30
     62.2700	 1324.00	 1468.97	-1899.97	  386.43
     62.3700	 1316.00	 1381.44	-1820.44	  386.55
     62.4700	 1208.00	 1248.18	-1795.18	  386.68
     62.5700	 1029.00	 1098.99	-1824.99	  386.80
     62.6700	  882.00	  956.96	-1829.96	  386.93
     62.7700	  762.00	  836.20	-1829.20	  387.06
     62.8700	  708.00	  742.55	-1789.55	  387.19
     62.9700	  664.00	  675.54	-1766.54	  387.31
     63.0700	  584.00	  630.90	-1801.90	  387.44
     63.1700	  572.00	  602.98	-1785.98	  387.57
     63.2700	  546.00	  586.52	-1795.52	  387.70
     63.3700	  564.00	  577.60	-1768.60	  387.83
     63.4700	  571.00	  573.88	-1757.88	  387.96
     63.5700	  552.00	  574.48	-1777.48	  388.09
     63.6700	  554.00	  579.75	-1780.75	  388.22
     63.7700	  590.00	  591.01	-1756.01	  388.35
     63.8700	  634.00	  610.23	-1731.23	  388.48
     63.9700	  609.00	  639.46	-1785.46	  388.61
     64.0700	  701.00	  680.14	-1734.14	  388.74
     64.1700	  712.00	  732.13	-1775.13	  388.87
     64.2700	  816.00	  792.87	-1731.87	  389.00
     64.3700	  970.00	  856.67	-1641.67	  389.13
     64.4700	 1012.00	  914.66	-1657.66	  389.26
     64.5700	 1012.00	  955.76	-1698.76	  389.39
     64.6700	 1031.00	  972.36	-1696.36	  389.53
     64.7700	 1034.00	  961.48	-1682.48	  389.66
     64.8700	  996.00	  927.23	-1686.23	  389.79
     64.9700	  900.00	  877.78	-1732.78	  389.92
     65.0700	  835.00	  822.48	-1742.48	  390.06
     65.1700	  799.00	  769.16	-1725.16	  390.19
     65.2700	  723.00	  722.37	-1754.37	  390.32
     65.3700	  716.00	  683.52	-1722.52	  390.46
     65.4700	  687.00	  652.07	-1720.07	  390.59
     65.5700	  581.00	  626.97	-1800.97	  390.72
     65.6700	  627.00	  607.28	-1735.28	  390.85
     65.7700	  562.00	  592.24	-1785.24	  390.99
     65.8700	  565.00	  581.14	-1771.14	  391.12
     65.9700	  569.00	  573.40	-1759.40	  391.25
     66.0700	  556.00	  568.49	-1767.49	  391.39
     66.1700	  545.00	  565.94	-1775.94	  391.52
     66.2700	  525.00	  565.35	-1795.35	  391.66
     66.3700	  545.00	  566.37	-1776.37	  391.79
     66.4700	  531.00	  568.95	-1792.95	  391.92
     66.5700	  555.00	  572.92	-1772.92	  392.06
     66.6700	  595.00	  578.77	-1738.77	  392.19
     66.7700	  592.00	  587.43	-1750.43	  392.32
     66.8700	  602.00	  600.67	-1753.67	  392.46
     66.9700	  582.00	  621.53	-1794.53	  392.59
     67.0700	  647.00	  654.74	-1762.74	  392.72
     67.1700	  637.00	  707.02	-1825.02	  392.86
     67.2700	  812.00	  786.73	-1729.73	  392.99
     67.3700	  865.00	  902.87	-1792.87	  393.12
     67.4700	 1124.00	 1062.37	-1693.37	  393.25
     67.5700	 1313.00	 1267.64	-1709.64	  393.39
     67.6700	 1574.00	 1512.82	-1693.82	  393.52
     67.7700	 1781.00	 1781.24	-1755.24	  393.65
     67.8700	 1982.00	 2044.50	-1817.50	  393.78
     67.9700	 2406.00	 2262.46	-1611.46	  393.91
     68.0700	 2371.00	 2390.37	-1774.37	  394.05
     68.1700	 2414.00	 2395.48	-1736.48	  394.18
     68.2700	 2289.00	 2276.48	-1742.48	  394.31
     68.3700	 2070.00	 2064.06	-1749.06	  394.44
     68.4700	 1876.00	 1802.99	-1681.99	  394.57
     68.5700	 1519.00	 1533.99	-1769.99	  394.70
     68.6700	 1239.00	 1286.77	-1802.77	  394.83
     68.7700	 1050.00	 1078.64	-1783.64	  394.96
     68.8700	  901.00	  916.16	-1770.16	  395.09
     68.9700	  744.00	  797.55	-1808.55	  395.22
     69.0700	  698.00	  715.91	-1772.91	  395.35
     69.1700	  663.00	  662.39	-1754.39	  395.48
     69.2700	  626.00	  628.52	-1757.52	  395.61
     69.3700	  632.00	  607.42	-1730.42	  395.74
     69.4700	  620.00	  594.22	-1729.22	  395.87
     69.5700	  552.00	  585.74	-1788.74	  395.99
     69.6700	  591.00	  580.09	-1744.09	  396.12
     69.7700	  559.00	  576.21	-1772.21	  396.25
     69.8700	  563.00	  573.55	-1765.55	  396.38
     69.9700	  576.00	  571.82	-1750.82	  396.50
     70.0700	  603.00	  570.89	-1722.89	  396.63
     70.1700	  564.00	  570.70	-1761.70	  396.75
     70.2700	  616.00	  571.27	-1710.27	  396.88
     70.3700	  548.00	  572.72	-1779.72	  397.00
     70.4700	  569.00	  575.32	-1761.32	  397.13
     70.5700	  544.00	  579.57	-1790.57	  397.25
     70.6700	  566.00	  586.41	-1775.41	  397.37
     70.7700	  579.00	  597.41	-1773.41	  397.50
     70.8700	  597.00	  615.04	-1773.04	  397.62
     70.9700	  608.00	  642.94	-1789.94	  397.74
     71.0700	  592.00	  685.93	-1848.93	  397.86
     71.1700	  746.00	  749.63	-1758.63	  397.98
     71.2700	  778.00	  839.63	-1816.63	  398.10
     71.3700	  957.00	  960.06	-1758.06	  398.22
     71.4700	 1059.00	 1111.66	-1807.66	  398.34
     71.5700	 1312.00	 1290.88	-1733.88	  398.46
     71.6700	 1476.00	 1485.16	-1764.16	  398.58
     71.7700	 1607.00	 1677.05	-1825.05	  398.70
     71.8700	 1830.00	 1841.70	-1766.70	  398.81
     71.9700	 1908.00	 1950.70	-1797.70	  398.93
     72.0700	 1942.00	 1980.56	-1793.56	  399.05
     72.1700	 1951.00	 1924.13	-1728.13	  399.16
     72.2700	 1856.00	 1794.99	-1693.99	  399.28
     72.3700	 1640.00	 1619.50	-1734.50	  399.39
     72.4700	 1538.00	 1425.10	-1642.10	  399.50
     72.5700	 1334.00	 1235.36	-1656.36	  399.62
     72.6700	 1135.00	 1065.44	-1685.44	  399.73
     72.7700	 1109.00	  923.91	-1569.91	  399.84
     72.8700	  947.00	  813.12	-1621.12	  399.95
     72.9700	  857.00	  731.03	-1629.03	  400.06
     73.0700	  733.00	  672.95	-1694.95	  400.17
     73.1700	  698.00	  633.36	-1690.36	  400.28
     73.2700	  684.00	  607.02	-1678.02	  400.39
     73.3700	  603.00	  589.65	-1741.65	  400.50
     73.4700	  609.00	  578.12	-1724.12	  400.60
     73.5700	  602.00	  570.34	-1723.34	  400.71
     73.6700	  592.00	  564.99	-1727.99	  400.81
     73.7700	  604.00	  561.30	-1712.30	  400.92
     73.8700	  611.00	  558.82	-1702.82	  401.02
     73.9700	  614.00	  557.28	-1698.28	  401.12
     74.0700	  585.00	  556.50	-1726.50	  401.23
     74.1700	  601.00	  556.31	-1710.31	  401.33
     74.2700	  594.00	  556.51	-1717.51	  401.43
     74.3700	  638.00	  556.88	-1673.88	  401.53
     74.4700	  630.00	  557.17	-1682.17	  401.63
     74.5700	  634.00	  557.13	-1678.13	  401.72
     74.6700	  692.00	  556.56	-1619.56	  401.82
     74.7700	  626.00	  555.41	-1684.41	  401.92
     74.8700	  655.00	  553.83	-1653.83	  402.01
     74.9700	  615.00	  552.07	-1692.07	  402.11
     75.0700	  573.00	  550.43	-1732.43	  402.20
     75.1700	  579.00	  549.23	-1725.23	  402.29
     75.2700	  575.00	  548.75	-1728.75	  402.39
     75.3700	  551.00	  549.48	-1753.48	  402.48
     75.4700	  580.00	  551.77	-1726.77	  402.57
     75.5700	  580.00	  556.09	-1731.09	  402.66
     75.6700	  593.00	  562.91	-1724.91	  402.74
     75.7700	  568.00	  572.83	-1759.83	  402.83
     75.8700	  584.00	  586.03	-1757.03	  402.92
     75.9700	  634.00	  602.46	-1723.46	  403.00
     76.0700	  644.00	  621.59	-1732.59	  403.09
     76.1700	  676.00	  642.33	-1721.33	  403.17
     76.2700	  696.00	  662.99	-1721.99	  403.25
     76.3700	  684.00	  681.27	-1752.27	  403.34
     76.4700	  719.00	  694.57	-1730.57	  403.42
     76.5700	  681.00	  700.50	-1774.50	  403.50
     76.6700	  654.00	  697.81	-1798.81	  403.57
     76.7700	  665.00	  687.05	-1777.05	  403.65
     76.8700	  658.00	  670.23	-1767.23	  403.73
     76.9700	  669.00	  649.98	-1735.98	  403.80
     77.0700	  626.00	  628.55	-1757.55	  403.88
     77.1700	  625.00	  608.26	-1738.26	  403.95
     77.2700	  549.00	  590.23	-1796.23	  404.02
     77.3700	  482.00	  575.20	-1848.20	  404.10
     77.4700	  514.00	  563.34	-1804.34	  404.17
     77.5700	  488.00	  554.45	-1821.45	  404.24
     77.6700	  518.00	  548.09	-1785.09	  404.30
     77.7700	  544.00	  543.71	-1754.71	  404.37
     77.8700	  508.00	  540.81	-1787.81	  404.44
     77.9700	  509.00	  538.92	-1784.92	  404.50
     78.0700	  525.00	  537.71	-1767.71	  404.56
     78.1700	  518.00	  536.94	-1773.94	  404.63
     78.2700	  522.00	  536.45	-1769.45	  404.69
     78.3700	  495.00	  536.15	-1796.15	  404.75
     78.4700	  558.00	  535.98	-1732.98	  404.81
     78.5700	  553.00	  535.93	-1737.93	  404.87
     78.6700	  513.00	  535.97	-1777.97	  404.92
     78.7700	  512.00	  536.13	-1779.13	  404.98
     78.8700	  564.00	  536.42	-1727.42	  405.03
     78.9700	  554.00	  536.87	-1737.87	  405.09
     79.0700	  535.00	  537.53	-1757.53	  405.14
     79.1700	  511.00	  538.43	-1782.43	  405.19
     79.2700	  529.00	  539.63	-1765.63	  405.24
     79.3700	  510.00	  541.01	-1786.01	  405.29
     79.4700	  489.00	  542.98	-1808.98	  405.33
     79.5700	  500.00	  545.42	-1800.42	  405.38
     79.6700	  527.00	  548.40	-1776.40	  405.43
     79.7700	  515.00	  552.02	-1792.02	  405.47
     79.8700	  558.00	  556.40	-1753.40	  405.51
     79.9700	  568.00	  561.71	-1748.71	  405.55
     80.0700	  513.00	  568.18	-1810.18	  405.59
     80.1700	  598.00	  576.11	-1733.11	  405.63
     80.2700	  513.00	  585.86	-1827.86	  405.67
     80.3700	  564.00	  597.78	-1788.78	  405.70
     80.4700	  580.00	  612.05	-1787.05	  405.74
     80.5700	  583.00	  628.63	-1800.63	  405.77
     80.6700	  590.00	  647.13	-1812.13	  405.81
     80.7700	  645.00	  666.80	-1776.80	  405.84
     80.8700	  644.00	  686.52	-1797.52	  405.87
     80.9700	  722.00	  704.94	-1737.94	  405.89
     81.0700	  718.00	  720.69	-1757.69	  405.92
     81.1700	  762.00	  732.63	-1725.63	  405.95
     81.2700	  815.00	  739.86	-1679.86	  405.97
     81.3700	  739.00	  741.82	-1757.82	  405.99
     81.4700	  743.00	  738.43	-1750.43	  406.02
     81.5700	  727.00	  730.01	-1758.01	  406.04
     81.6700	  762.00	  717.22	-1710.22	  406.06
     81.7700	  808.00	  700.92	-1647.92	  406.07
     81.8700	  703.00	  682.19	-1734.19	  406.09
     81.9700	  707.00	  662.33	-1710.33	  406.10
     82.0700	  699.00	  642.59	-1698.59	  406.12
     82.1700	  674.00	  623.96	-1704.96	  406.13
     82.2700	  653.00	  607.23	-1709.23	  406.14
     82.3700	  622.00	  592.74	-1725.74	  406.15
     82.4700	  635.00	  580.66	-1700.66	  406.16
     82.5700	  626.00	  570.97	-1699.97	  406.17
     82.6700	  565.00	  563.55	-1753.55	  406.17
     82.7700	  571.00	  558.27	-1742.27	  406.17
     82.8700	  545.00	  554.93	-1764.93	  406.18
     82.9700	  558.00	  553.34	-1750.34	  406.18
     83.0700	  547.00	  553.34	-1761.34	  406.18
     83.1700	  592.00	  554.76	-1717.76	  406.18
     83.2700	  550.00	  557.45	-1762.45	  406.17
     83.3700	  530.00	  561.23	-1786.23	  406.17
     83.4700	  518.00	  565.83	-1802.83	  406.16
     83.5700	  543.00	  570.91	-1782.91	  406.16
     83.6700	  573.00	  576.07	-1758.07	  406.15
     83.7700	  533.00	  580.78	-1802.78	  406.14
     83.8700	  558.00	  584.47	-1781.47	  406.12
     83.9700	  597.00	  586.62	-1744.62	  406.11
     84.0700	  559.00	  586.84	-1782.84	  406.10
     84.1700	  537.00	  585.06	-1803.06	  406.08
     84.2700	  554.00	  581.52	-1782.52	  406.06
     84.3700	  568.00	  576.69	-1763.69	  406.04
     84.4700	  565.00	  571.12	-1761.12	  406.02
     84.5700	  558.00	  565.31	-1762.31	  406.00
     84.6700	  559.00	  559.67	-1755.67	  405.98
     84.7700	  531.00	  554.51	-1778.51	  405.95
     84.8700	  512.00	  550.02	-1793.02	  405.93
     84.9700	  520.00	  546.29	-1781.29	  405.90
     85.0700	  499.00	  543.33	-1799.33	  405.87
     85.1700	  534.00	  541.11	-1762.11	  405.84
     85.2700	  541.00	  539.52	-1753.52	  405.81
     85.3700	  512.00	  538.48	-1781.48	  405.77
     85.4700	  526.00	  537.90	-1766.90	  405.74
     85.5700	  554.00	  537.69	-1738.69	  405.70
     85.6700	  552.00	  537.82	-1740.82	  405.66
     85.7700	  538.00	  538.27	-1755.27	  405.62
     85.8700	  524.00	  539.06	-1770.06	  405.58
     85.9700	  535.00	  540.27	-1760.27	  405.54
     86.0700	  499.00	  541.98	-1797.98	  405.50
     86.1700	  524.00	  544.33	-1775.33	  405.45
     86.2700	  587.00	  547.49	-1715.49	  405.40
     86.3700	  537.00	  551.62	-1769.62	  405.35
     86.4700	  527.00	  556.89	-1784.89	  405.30
     86.5700	  523.00	  563.42	-1795.42	  405.25
     86.6700	  545.00	  571.25	-1781.25	  405.20
     86.7700	  577.00	  580.27	-1758.27	  405.15
     86.8700	  581.00	  590.25	-1764.25	  405.09
     86.9700	  635.00	  600.43	-1720.43	  405.03
     87.0700	  643.00	  610.84	-1722.84	  404.97
     87.1700	  653.00	  620.38	-1722.38	  404.91
     87.2700	  685.00	  628.17	-1698.17	  404.85
     87.3700	  706.00	  633.36	-1682.36	  404.78
     87.4700	  635.00	  635.27	-1755.27	  404.72
     87.5700	  640.00	  633.67	-1748.67	  404.65
     87.6700	  646.00	  628.84	-1737.84	  404.58
     87.7700	  663.00	  621.51	-1713.51	  404.51
     87.8700	  618.00	  612.58	-1749.58	  404.44
     87.9700	  650.00	  603.03	-1708.03	  404.37
     88.0700	  646.00	  593.74	-1702.74	  404.30
     88.1700	  605.00	  585.42	-1735.42	  404.22
     88.2700	  578.00	  578.66	-1755.66	  404.14
     88.3700	  538.00	  573.82	-1790.82	  404.06
     88.4700	  580.00	  571.08	-1746.08	  403.98
     88.5700	  578.00	  570.46	-1747.46	  403.90
     88.6700	  583.00	  571.79	-1743.79	  403.82
     88.7700	  610.00	  574.79	-1719.79	  403.73
     88.8700	  593.00	  579.04	-1741.04	  403.65
     88.9700	  552.00	  584.04	-1787.04	  403.56
     89.0700	  603.00	  589.21	-1741.21	  403.47
     89.1700	  605.00	  593.95	-1743.95	  403.38
     89.2700	  638.00	  597.61	-1714.61	  403.28
     89.3700	  555.00	  599.67	-1799.67	  403.19
     89.4700	  637.00	  599.77	-1717.77	  403.09
     89.5700	  608.00	  597.82	-1744.82	  403.00
     89.6700	  581.00	  594.05	-1768.05	  402.90
     89.7700	  579.00	  588.88	-1764.88	  402.80
     89.8700	  570.00	  582.82	-1767.82	  402.70
     89.9700	  586.00	  576.35	-1745.35	  402.59
     90.0700	  566.00	  569.90	-1758.90	  402.49
     90.1700	  510.00	  563.82	-1808.82	  402.38
     90.2700	  478.00	  558.34	-1835.34	  402.27
     90.3700	  523.00	  553.61	-1785.61	  402.16
     90.4700	  572.00	  549.71	-1732.71	  402.05
     90.5700	  504.00	  546.62	-1797.62	  401.94
     90.6700	  528.00	  544.28	-1771.28	  401.83
     90.7700	  495.00	  542.63	-1802.63	  401.71
     90.8700	  502.00	  541.55	-1794.55	  401.60
     90.9700	  501.00	  540.97	-1794.97	  401.48
     91.0700	  556.00	  540.83	-1739.83	  401.36
     91.1700	  538.00	  541.09	-1758.09	  401.24
     91.2700	  551.00	  541.75	-1745.75	  401.12
     91.3700	  542.00	  542.86	-1755.86	  400.99
     91.4700	  560.00	  544.49	-1739.49	  400.87
     91.5700	  567.00	  546.78	-1734.78	  400.74
     91.6700	  503.00	  549.87	-1801.87	  400.61
     91.7700	  525.00	  553.96	-1783.96	  400.48
     91.8700	  503.00	  559.25	-1811.25	  400.35
     91.9700	  533.00	  565.95	-1787.95	  400.22
     92.0700	  563.00	  574.00	-1766.00	  400.08
     92.1700	  582.00	  584.00	-1757.00	  399.95
     92.2700	  541.00	  595.75	-1809.75	  399.81
     92.3700	  613.00	  609.22	-1751.22	  399.67
     92.4700	  625.00	  624.23	-1754.23	  399.53
     92.5700	  668.00	  640.46	-1727.46	  399.39
     92.6700	  653.00	  657.48	-1759.48	  399.25
     92.7700	  686.00	  674.70	-1743.70	  399.10
     92.8700	  710.00	  691.46	-1736.46	  398.96
     92.9700	  777.00	  707.04	-1685.04	  398.81
     93.0700	  730.00	  720.86	-1745.86	  398.66
     93.1700	  766.00	  732.60	-1721.60	  398.51
     93.2700	  813.00	  742.32	-1684.32	  398.36
     93.3700	  752.00	  750.44	-1753.44	  398.21
     93.4700	  819.00	  757.55	-1693.55	  398.05
     93.5700	  801.00	  764.31	-1718.31	  397.90
     93.6700	  801.00	  771.30	-1725.30	  397.74
     93.7700	  819.00	  779.01	-1715.01	  397.58
     93.8700	  852.00	  787.92	-1690.92	  397.43
     93.9700	  839.00	  798.46	-1714.46	  397.26
     94.0700	  884.00	  810.98	-1681.98	  397.10
     94.1700	  871.00	  825.60	-1709.60	  396.94
     94.2700	  869.00	  842.12	-1728.12	  396.77
     94.3700	  856.00	  859.86	-1758.86	  396.61
     94.4700	  912.00	  877.73	-1720.73	  396.44
     94.5700	  921.00	  894.19	-1728.19	  396.27
     94.6700	  945.00	  907.44	-1717.44	  396.10
     94.7700	  914.00	  915.62	-1756.62	  395.93
     94.8700	  970.00	  917.14	-1702.14	  395.76
     94.9700	  936.00	  911.13	-1730.13	  395.59
     95.0700	  938.00	  897.65	-1714.65	  395.41
     95.1700	  920.00	  877.71	-1712.71	  395.23
     95.2700	  843.00	  852.99	-1764.99	  395.06
     95.3700	  881.00	  825.46	-1699.46	  394.88
     95.4700	  747.00	  797.16	-1805.16	  394.70
     95.5700	  755.00	  770.04	-1770.04	  394.52
     95.6700	  740.00	  745.88	-1760.88	  394.33
     95.7700	  703.00	  726.29	-1778.29	  394.15
     95.8700	  696.00	  712.68	-1771.68	  393.97
     95.9700	  665.00	  706.31	-1796.31	  393.78
     96.0700	  687.00	  708.25	-1776.25	  393.59
     96.1700	  702.00	  719.38	-1772.38	  393.40
     96.2700	  732.00	  740.37	-1763.37	  393.21
     96.3700	  778.00	  771.64	-1748.64	  393.02
     96.4700	  813.00	  813.25	-1755.25	  392.83
     96.5700	  911.00	  864.85	-1708.85	  392.64
     96.6700	  911.00	  925.57	-1769.57	  392.44
     96.7700	 1009.00	  993.88	-1739.88	  392.25
     96.8700	 1099.00	 1067.66	-1723.66	  392.05
     96.9700	 1138.00	 1144.04	-1761.04	  391.86
     97.0700	 1213.00	 1219.53	-1761.53	  391.66
     97.1700	 1229.00	 1290.06	-1816.06	  391.46
     97.2700	 1303.00	 1351.16	-1803.16	  391.26
     97.3700	 1346.00	 1398.43	-1807.43	  391.05
     97.4700	 1426.00	 1428.03	-1757.03	  390.85
     97.5700	 1427.00	 1437.51	-1765.51	  390.65
     97.6700	 1412.00	 1426.34	-1769.34	  390.44
     97.7700	 1337.00	 1396.03	-1814.03	  390.24
     97.8700	 1414.00	 1349.67	-1690.67	  390.03
     97.9700	 1309.00	 1291.29	-1737.29	  389.82
     98.0700	 1175.00	 1225.21	-1805.21	  389.61
     98.1700	 1104.00	 1155.61	-1806.61	  389.40
     98.2700	 1063.00	 1086.40	-1778.40	  389.19
     98.3700	  983.00	 1020.89	-1792.89	  388.98
     98.4700	  977.00	  961.89	-1739.89	  388.77
     98.5700	  898.00	  911.64	-1768.64	  388.55
     98.6700	  841.00	  871.91	-1785.91	  388.34
     98.7700	  792.00	  844.04	-1807.04	  388.12
     98.8700	  773.00	  828.95	-1810.95	  387.91
     98.9700	  808.00	  827.30	-1774.30	  387.69
     99.0700	  795.00	  839.51	-1799.51	  387.47
     99.1700	  826.00	  865.80	-1794.80	  387.25
     99.2700	  866.00	  906.17	-1795.17	  387.03
     99.3700	  950.00	  960.41	-1765.41	  386.81
     99.4700	  983.00	 1027.99	-1799.99	  386.59
     99.5700	 1073.00	 1108.01	-1790.01	  386.37
     99.6700	 1265.00	 1199.10	-1689.10	  386.15
     99.7700	 1274.00	 1299.32	-1780.32	  385.92
     99.8700	 1410.00	 1406.05	-1751.05	  385.70
     99.9700	 1499.00	 1515.96	-1771.96	  385.47
    100.0700	 1603.00	 1625.11	-1777.11	  385.25
    100.1700	 1698.00	 1729.12	-1786.12	  385.02
    100.2700	 1823.00	 1823.55	-1755.55	  384.79
    100.3700	 1943.00	 1904.38	-1716.38	  384.57
    100.4700	 2033.00	 1968.45	-1690.45	  384.34
    100.5700	 2028.00	 2013.56	-1740.56	  384.11
    100.6700	 2000.00	 2038.32	-1793.32	  383.88
    100.7700	 2055.00	 2041.90	-1741.90	  383.65
    100.8700	 1951.00	 2024.11	-1828.11	  383.42
    100.9700	 2058.00	 1985.60	-1682.60	  383.18
    101.0700	 1952.00	 1928.25	-1731.25	  382.95
    101.1700	 1921.00	 1855.30	-1689.30	  382.72
    101.2700	 1834.00	 1771.15	-1692.15	  382.49
    101.3700	 1709.00	 1680.78	-1726.78	  382.25
    101.4700	 1601.00	 1589.18	-1743.18	  382.02
    101.5700	 1555.00	 1500.75	-1700.75	  381.78
    101.6700	 1392.00	 1419.04	-1782.04	  381.55
    101.7700	 1437.00	 1346.59	-1664.59	  381.31
    101.8700	 1328.00	 1284.91	-1711.91	  381.07
    101.9700	 1185.00	 1234.44	-1804.44	  380.84
    102.0700	 1191.00	 1194.64	-1758.64	  380.60
    102.1700	 1173.00	 1164.15	-1746.15	  380.36
    102.2700	 1178.00	 1140.90	-1717.90	  380.12
    102.3700	 1121.00	 1122.35	-1756.35	  379.89
    102.4700	 1109.00	 1105.75	-1751.75	  379.65
    102.5700	 1071.00	 1088.48	-1772.48	  379.41
    102.6700	 1035.00	 1068.40	-1788.40	  379.17
    102.7700	 1029.00	 1044.13	-1770.13	  378.93
    102.8700	 1011.00	 1015.18	-1759.18	  378.69
    102.9700	 1038.00	  981.81	-1698.81	  378.45
    103.0700	  939.00	  944.87	-1760.86	  378.21
    103.1700	  918.00	  905.50	-1742.50	  377.97
    103.2700	  859.00	  864.98	-1760.98	  377.73
    103.3700	  817.00	  824.56	-1762.56	  377.49
    103.4700	  769.00	  785.38	-1771.38	  377.25
    103.5700	  753.00	  748.37	-1750.37	  377.00
    103.6700	  727.00	  714.29	-1742.29	  376.76
    103.7700	  677.00	  683.65	-1761.65	  376.52
    103.8700	  657.00	  656.74	-1754.74	  376.28
    103.9700	  646.00	  633.67	-1742.67	  376.04
    104.0700	  594.00	  614.33	-1775.33	  375.80
    104.1700	  570.00	  598.51	-1783.51	  375.55
    104.2700	  617.00	  585.88	-1723.88	  375.31
    104.3700	  561.00	  576.08	-1770.08	  375.07
    104.4700	  555.00	  568.70	-1768.70	  374.83
    104.5700	  515.00	  563.37	-1803.37	  374.59
    104.6700	  570.00	  559.73	-1744.73	  374.35
    104.7700	  515.00	  557.45	-1797.45	  374.11
    104.8700	  535.00	  556.26	-1776.26	  373.86
    104.9700	  548.00	  555.93	-1762.93	  373.62
    105.0700	  574.00	  556.28	-1737.28	  373.38
    105.1700	  537.00	  557.18	-1775.18	  373.14
    105.2700	  542.00	  558.53	-1771.53	  372.90
    105.3700	  522.00	  560.25	-1793.25	  372.66
    105.4700	  525.00	  562.37	-1792.37	  372.42
    105.5700	  535.00	  564.90	-1784.90	  372.18
    105.6700	  587.00	  567.88	-1735.88	  371.94
    105.7700	  525.00	  571.43	-1801.43	  371.70
    105.8700	  559.00	  575.63	-1771.63	  371.47
    105.9700	  536.00	  580.58	-1799.58	  371.23
    106.0700	  568.00	  586.35	-1773.35	  370.99
    106.1700	  620.00	  592.98	-1727.98	  370.75
    106.2700	  595.00	  600.45	-1760.45	  370.52
    106.3700	  601.00	  608.67	-1762.67	  370.28
    106.4700	  569.00	  617.50	-1803.50	  370.04
    106.5700	  651.00	  626.74	-1730.74	  369.81
    106.6700	  668.00	  636.12	-1723.12	  369.57
    106.7700	  639.00	  645.33	-1761.33	  369.34
    106.8700	  657.00	  654.01	-1752.01	  369.10
    106.9700	  652.00	  661.82	-1764.82	  368.87
    107.0700	  640.00	  668.40	-1783.40	  368.64
    107.1700	  701.00	  673.50	-1727.50	  368.41
    107.2700	  694.00	  676.95	-1737.95	  368.18
    107.3700	  693.00	  678.77	-1740.77	  367.95
    107.4700	  648.00	  679.10	-1786.10	  367.72
    107.5700	  678.00	  678.25	-1755.25	  367.49
    107.6700	  682.00	  676.61	-1749.61	  367.26
    107.7700	  612.00	  674.57	-1817.57	  367.03
    107.8700	  653.00	  672.53	-1774.53	  366.81
    107.9700	  678.00	  670.79	-1747.79	  366.58
    108.0700	  673.00	  669.60	-1751.60	  366.36
    108.1700	  677.00	  669.08	-1747.08	  366.13
    108.2700	  675.00	  669.24	-1749.24	  365.91
    108.3700	  700.00	  670.00	-1725.00	  365.69
    108.4700	  704.00	  671.16	-1722.16	  365.47
    108.5700	  652.00	  672.46	-1775.46	  365.25
    108.6700	  652.00	  673.53	-1776.53	  365.03
    108.7700	  689.00	  674.00	-1740.00	  364.81
    108.8700	  718.00	  673.51	-1710.51	  364.60
    108.9700	  686.00	  671.73	-1740.73	  364.38
    109.0700	  655.00	  668.48	-1768.48	  364.17
    109.1700	  636.00	  663.69	-1782.69	  363.96
    109.2700	  648.00	  657.43	-1764.43	  363.74
    109.3700	  658.00	  649.89	-1746.89	  363.53
    109.4700	  657.00	  641.33	-1739.33	  363.33
    109.5700	  626.00	  632.06	-1761.06	  363.12
    109.6700	  632.00	  622.39	-1745.39	  362.91
    109.7700	  567.00	  612.63	-1800.63	  362.71
    109.8700	  599.00	  603.07	-1759.07	  362.50
    109.9700	  591.00	  593.93	-1757.93	  362.30
    110.0700	  585.00	  585.43	-1755.43	  362.10
    110.1700	  557.00	  577.70	-1775.70	  361.90
    110.2700	  588.00	  570.85	-1737.85	  361.71
    110.3700	  585.00	  564.94	-1734.94	  361.51
    110.4700	  582.00	  559.98	-1732.98	  361.32
    110.5700	  547.00	  555.96	-1763.96	  361.13
    110.6700	  542.00	  552.83	-1765.83	  360.93
    110.7700	  534.00	  550.52	-1771.52	  360.75
    110.8700	  562.00	  548.95	-1741.95	  360.56
    110.9700	  533.00	  548.05	-1770.05	  360.37
    111.0700	  595.00	  547.72	-1707.72	  360.19
    111.1700	  547.00	  547.89	-1755.89	  360.01
    111.2700	  559.00	  548.49	-1744.49	  359.83
    111.3700	  491.00	  549.46	-1813.46	  359.65
    111.4700	  570.00	  550.74	-1735.74	  359.47
    111.5700	  530.00	  552.29	-1777.29	  359.30
    111.6700	  577.00	  554.09	-1732.09	  359.13
    111.7700	  511.00	  556.10	-1800.10	  358.96
    111.8700	  526.00	  558.32	-1787.32	  358.79
    111.9700	  579.00	  560.75	-1736.75	  358.62
    112.0700	  579.00	  563.38	-1739.38	  358.46
    112.1700	  536.00	  566.23	-1785.23	  358.30
    112.2700	  551.00	  569.32	-1773.32	  358.14
    112.3700	  576.00	  572.69	-1751.69	  357.98
    112.4700	  625.00	  576.35	-1706.35	  357.83
    112.5700	  626.00	  580.38	-1709.38	  357.68
    112.6700	  601.00	  584.84	-1738.84	  357.53
    112.7700	  615.00	  589.80	-1729.80	  357.38
    112.8700	  633.00	  595.39	-1717.39	  357.23
    112.9700	  647.00	  601.75	-1709.75	  357.09
    113.0700	  683.00	  609.06	-1681.06	  356.95
    113.1700	  657.00	  617.58	-1715.58	  356.81
    113.2700	  715.00	  627.60	-1667.60	  356.68
    113.3700	  735.00	  639.56	-1659.56	  356.54
    113.4700	  771.00	  653.95	-1637.95	  356.41
    113.5700	  787.00	  671.43	-1639.43	  356.29
    113.6700	  774.00	  692.76	-1673.76	  356.16
    113.7700	  854.00	  718.93	-1619.93	  356.04
    113.8700	  897.00	  751.10	-1609.10	  355.92
    113.9700	  960.00	  790.63	-1585.63	  355.81
    114.0700	  941.00	  839.11	-1653.11	  355.69
    114.1700	 1078.00	  898.35	-1575.35	  355.58
    114.2700	 1111.00	  970.35	-1614.35	  355.48
    114.3700	 1201.00	 1057.32	-1611.32	  355.37
    114.4700	 1262.00	 1161.54	-1654.54	  355.27
    114.5700	 1487.00	 1285.39	-1553.39	  355.17
    114.6700	 1539.00	 1431.14	-1647.14	  355.08
    114.7700	 1738.00	 1600.98	-1617.98	  354.98
    114.8700	 1865.00	 1796.79	-1686.79	  354.90
    114.9700	 2233.00	 2019.95	-1541.95	  354.81
    115.0700	 2315.00	 2271.29	-1711.29	  354.73
    115.1700	 2600.00	 2550.79	-1705.79	  354.65
    115.2700	 2813.00	 2857.64	-1799.64	  354.57
    115.3700	 3198.00	 3189.97	-1746.97	  354.50
    115.4700	 3356.00	 3544.70	-1943.70	  354.43
    115.5700	 3740.00	 3917.56	-1932.56	  354.37
    115.6700	 4222.00	 4303.01	-1836.01	  354.31
    115.7700	 4456.00	 4694.35	-1993.35	  354.25
    115.8700	 4793.00	 5083.74	-2045.74	  354.19
    115.9700	 5255.00	 5462.10	-1962.10	  354.14
    116.0700	 5573.00	 5819.49	-2001.49	  354.09
    116.1700	 5921.00	 6145.26	-1979.26	  354.05
    116.2700	 6326.00	 6428.62	-1857.62	  354.01
    116.3700	 6590.00	 6659.11	-1824.11	  353.98
    116.4700	 6807.00	 6827.31	-1775.31	  353.94
    116.5700	 6890.00	 6925.88	-1790.88	  353.91
    116.6700	 7020.00	 6950.44	-1685.44	  353.89
    116.7700	 6938.00	 6900.04	-1717.04	  353.87
    116.8700	 6870.00	 6777.30	-1662.30	  353.85
    116.9700	 6766.00	 6588.14	-1577.14	  353.84
    117.0700	 6406.00	 6340.93	-1689.93	  353.83
    117.1700	 6132.00	 6045.70	-1668.70	  353.83
    117.2700	 5653.00	 5713.09	-1815.09	  353.83
    117.3700	 5379.00	 5353.75	-1729.75	  353.84
    117.4700	 4994.00	 4977.94	-1738.94	  353.84
    117.5700	 4583.00	 4595.06	-1767.06	  353.86
    117.6700	 4347.00	 4213.52	-1621.52	  353.88
    117.7700	 4079.00	 3840.46	-1516.46	  353.90
    117.8700	 3749.00	 3481.79	-1487.79	  353.92
    117.9700	 3207.00	 3142.30	-1690.30	  353.95
    118.0700	 2862.00	 2825.52	-1718.52	  353.99
    118.1700	 2600.00	 2533.86	-1688.86	  354.03
    118.2700	 2203.00	 2268.59	-1820.59	  354.08
    118.3700	 1977.00	 2030.11	-1808.11	  354.13
    118.4700	 1737.00	 1818.09	-1836.09	  354.18
    118.5700	 1492.00	 1631.53	-1894.53	  354.24
    118.6700	 1439.00	 1468.98	-1784.98	  354.30
    118.7700	 1290.00	 1328.59	-1793.59	  354.37
    118.8700	 1082.00	 1208.29	-1881.29	  354.45
    118.9700	 1072.00	 1105.97	-1788.97	  354.53
    119.0700	  963.00	 1019.48	-1811.48	  354.61
    119.1700	  881.00	  946.75	-1820.75	  354.70
    119.2700	  761.00	  885.84	-1879.84	  354.79
    119.3700	  778.00	  834.98	-1811.98	  354.89
    119.4700	  691.00	  792.58	-1856.58	  355.00
    119.5700	  720.00	  757.28	-1792.28	  355.11
    119.6700	  676.00	  727.88	-1806.88	  355.22
    119.7700	  620.00	  703.38	-1838.38	  355.35
    119.8700	  618.00	  682.93	-1819.93	  355.47
    119.9700	  596.00	  665.83	-1824.83	  355.60
    120.0700	  630.00	  651.52	-1776.52	  355.74
    120.1700	  646.00	  639.53	-1748.53	  355.89
    120.2700	  582.00	  629.49	-1802.49	  356.03
    120.3700	  546.00	  621.10	-1830.10	  356.19
    120.4700	  554.00	  614.13	-1815.13	  356.35
    120.5700	  613.00	  608.38	-1750.38	  356.52
    120.6700	  582.00	  603.70	-1776.70	  356.69
    120.7700	  557.00	  599.98	-1797.98	  356.87
    120.8700	  567.00	  597.13	-1785.13	  357.05
    120.9700	  553.00	  595.08	-1797.08	  357.24
    121.0700	  533.00	  593.75	-1815.75	  357.44
    121.1700	  596.00	  593.10	-1752.10	  357.64
    121.2700	  578.00	  593.08	-1770.08	  357.85
    121.3700	  574.00	  593.64	-1774.64	  358.06
    121.4700	  560.00	  594.74	-1789.74	  358.28
    121.5700	  592.00	  596.32	-1759.32	  358.51
    121.6700	  568.00	  598.33	-1785.33	  358.74
    121.7700	  573.00	  600.70	-1782.70	  358.98
    121.8700	  595.00	  603.37	-1763.37	  359.23
    121.9700	  604.00	  606.24	-1757.24	  359.48
    122.0700	  623.00	  609.26	-1741.26	  359.74
    122.1700	  581.00	  612.31	-1786.31	  360.01
    122.2700	  634.00	  615.31	-1736.31	  360.28
    122.3700	  594.00	  618.15	-1779.15	  360.57
    122.4700	  677.00	  620.73	-1698.73	  360.85
    122.5700	  633.00	  622.96	-1744.96	  361.15
    122.6700	  655.00	  624.73	-1724.73	  361.45
    122.7700	  644.00	  626.01	-1737.01	  361.76
    122.8700	  643.00	  626.72	-1738.72	  362.07
    122.9700	  663.00	  626.84	-1718.84	  362.39
    123.0700	  641.00	  626.38	-1740.38	  362.72
    123.1700	  650.00	  625.34	-1730.34	  363.06
    123.2700	  657.00	  623.79	-1721.79	  363.40
    123.3700	  701.00	  621.77	-1675.77	  363.76
    123.4700	  681.00	  619.34	-1693.34	  364.11
    123.5700	  622.00	  616.59	-1749.59	  364.48
    123.6700	  628.00	  613.58	-1740.58	  364.86
    123.7700	  612.00	  610.39	-1753.39	  365.24
    123.8700	  642.00	  607.08	-1720.08	  365.63
    123.9700	  636.00	  603.72	-1722.72	  366.02
    124.0700	  639.00	  600.37	-1716.37	  366.43
    124.1700	  597.00	  597.07	-1755.07	  366.84
    124.2700	  601.00	  593.87	-1747.87	  367.26
    124.3700	  618.00	  590.80	-1727.80	  367.69
    124.4700	  611.00	  587.89	-1731.89	  368.13
    124.5700	  633.00	  585.17	-1707.17	  368.57
    124.6700	  579.00	  582.64	-1758.64	  369.03
    124.7700	  565.00	  580.32	-1770.32	  369.49
    124.8700	  547.00	  578.23	-1786.23	  369.96
    124.9700	  557.00	  488.38	-1686.38	  370.44
    125.0700	  573.00	  488.87	-1755.00	  370.92
    125.1700	  565.00	  489.36	-1755.00	  371.42
    125.2700	  628.00	  489.86	-1755.00	  371.92
    125.3700	  548.00	  490.38	-1755.00	  372.43
    125.4700	  597.00	  490.90	-1755.00	  372.95
    125.5700	  570.00	  491.43	-1755.00	  373.48
    125.6700	  548.00	  491.97	-1755.00	  374.02
    125.7700	  613.00	  492.51	-1755.00	  374.57
    125.8700	  529.00	  493.07	-1755.00	  375.13
    125.9700	  558.00	  493.63	-1755.00	  375.69
    126.0700	  575.00	  494.21	-1755.00	  376.27
    126.1700	  615.00	  494.79	-1755.00	  376.85
    126.2700	  568.00	  495.39	-1755.00	  377.44
    126.3700	  556.00	  495.99	-1755.00	  378.04
    126.4700	  621.00	  496.60	-1755.00	  378.66
    126.5700	  601.00	  497.22	-1755.00	  379.28
    126.6700	  580.00	  497.85	-1755.00	  379.91
    126.7700	  612.00	  498.49	-1755.00	  380.55
    126.8700	  632.00	  499.14	-1755.00	  381.20
    126.9700	  612.00	  499.80	-1755.00	  381.85
    127.0700	  627.00	  500.47	-1755.00	  382.52
    127.1700	  613.00	  501.15	-1755.00	  383.20
    127.2700	  639.00	  501.83	-1755.00	  383.89
    127.3700	  674.00	  502.53	-1755.00	  384.59
    127.4700	  661.00	  503.24	-1755.00	  385.30
    127.5700	  627.00	  503.96	-1755.00	  386.02
    127.6700	  694.00	  504.69	-1755.00	  386.74
    127.7700	  705.00	  505.43	-1755.00	  387.48
    127.8700	  711.00	  506.18	-1755.00	  388.23
    127.9700	  698.00	  506.94	-1755.00	  388.99
    128.0700	  781.00	  507.71	-1755.00	  389.76
    128.1700	  774.00	  508.49	-1755.00	  390.54
    128.2700	  777.00	  509.28	-1755.00	  391.33
    128.3700	  809.00	  510.08	-1755.00	  392.14
    128.4700	  780.00	  510.89	-1755.00	  392.95
    128.5700	    0.00	  511.72	-1755.00	  393.77
    128.6700	    0.00	  512.55	-1755.00	  394.61
     12.3044	        	        	        	        	       0	(  0  0  2)	  0  1
     24.8851	        	        	        	        	       0	(  0  0  4)	  0  1
     28.3309	        	        	        	        	       0	(  1  0  0)	  0  1
     29.0279	        	        	        	        	       0	(  1  0  1)	  0  1
     31.0334	        	        	        	        	       0	(  1  0  2)	  0  1
     34.1407	        	        	        	        	       0	(  1  0  3)	  0  1
     37.7816	        	        	        	        	       0	(  0  0  6)	  0  1
     38.1166	        	        	        	        	       0	(  1  0  4)	  0  1
     42.7653	        	        	        	        	       0	(  1  0  5)	  0  1
     47.9478	        	        	        	        	       0	(  1  0  6)	  0  1
     50.2670	        	        	        	        	       0	(  1  1  0)	  0  1
     51.2000	        	        	        	        	       0	(  0  0  8)	  0  1
     51.9894	        	        	        	        	       0	(  1  1  2)	  0  1
     53.5765	        	        	        	        	       0	(  1  0  7)	  0  1
     56.9355	        	        	        	        	       0	(  1  1  4)	  0  1
     58.7637	        	        	        	        	       0	(  2  0  0)	  0  1
     59.1551	        	        	        	        	       0	(  2  0  1)	  0  1
     59.6051	        	        	        	        	       0	(  1  0  8)	  0  1
     60.3201	        	        	        	        	       0	(  2  0  2)	  0  1
     62.2326	        	        	        	        	       0	(  2  0  3)	  0  1
     64.6275	        	        	        	        	       0	(  1  1  6)	  0  1
     64.8557	        	        	        	        	       0	(  2  0  4)	  0  1
     65.4249	        	        	        	        	       0	(  0  0 10)	  0  1
     66.0194	        	        	        	        	       0	(  1  0  9)	  0  1
     68.1487	        	        	        	        	       0	(  2  0  5)	  0  1
     72.0748	        	        	        	        	       0	(  2  0  6)	  0  1
     72.8331	        	        	        	        	       0	(  1  0 10)	  0  1
     74.6616	        	        	        	        	       0	(  1  1  8)	  0  1
     76.6072	        	        	        	        	       0	(  2  0  7)	  0  1
     80.0881	        	        	        	        	       0	(  1  0 11)	  0  1
     80.8998	        	        	        	        	       0	(  0  0 12)	  0  1
     81.0039	        	        	        	        	       0	(  2  1  0)	  0  1
     81.3436	        	        	        	        	       0	(  2  1  1)	  0  1
     81.7355	        	        	        	        	       0	(  2  0  8)	  0  1
     82.3610	        	        	        	        	       0	(  2  1  2)	  0  1
     84.0517	        	        	        	        	       0	(  2  1  3)	  0  1
     86.4104	        	        	        	        	       0	(  2  1  4)	  0  1
     86.9282	        	        	        	        	       0	(  1  1 10)	  0  1
     87.4712	        	        	        	        	       0	(  2  0  9)	  0  1
     87.8592	        	        	        	        	       0	(  1  0 12)	  0  1
     89.4349	        	        	        	        	       0	(  2  1  5)	  0  1
     93.1308	        	        	        	        	       0	(  2  1  6)	  0  1
     93.8558	        	        	        	        	       0	(  2  0 10)	  0  1
     94.8919	        	        	        	        	       0	(  3  0  0)	  0  1
     95.2291	        	        	        	        	       0	(  3  0  1)	  0  1
     96.2419	        	        	        	        	       0	(  3  0  2)	  0  1
     96.2686	        	        	        	        	       0	(  1  0 13)	  0  1
     97.5174	        	        	        	        	       0	(  2  1  7)	  0  1
     97.9345	        	        	        	        	       0	(  3  0  3)	  0  1
     98.4313	        	        	        	        	       0	(  0  0 14)	  0  1
    100.3165	        	        	        	        	       0	(  3  0  4)	  0  1
    100.9743	        	        	        	        	       0	(  2  0 11)	  0  1
    101.7916	        	        	        	        	       0	(  1  1 12)	  0  1
    102.6375	        	        	        	        	       0	(  2  1  8)	  0  1
    103.4067	        	        	        	        	       0	(  3  0  5)	  0  1
    105.5162	        	        	        	        	       0	(  1  0 14)	  0  1
    107.2400	        	        	        	        	       0	(  3  0  6)	  0  1
    108.5714	        	        	        	        	       0	(  2  1  9)	  0  1
    108.9812	        	        	        	        	       0	(  2  0 12)	  0  1
    111.8780	        	        	        	        	       0	(  3  0  7)	  0  1
    115.4644	        	        	        	        	       0	(  2  1 10)	  0  1
    115.9529	        	        	        	        	       0	(  1  0 15)	  0  1
    116.6153	        	        	        	        	       0	(  2  2  0)	  0  1
    117.4284	        	        	        	        	       0	(  3  0  8)	  0  1
    118.1297	        	        	        	        	       0	(  2  2  2)	  0  1
    118.1598	        	        	        	        	       0	(  2  0 13)	  0  1
    119.9056	        	        	        	        	       0	(  0  0 16)	  0  1
    120.6240	        	        	        	        	       0	(  1  1 14)	  0  1
    122.8129	        	        	        	        	       0	(  2  2  4)	  0  1
    123.5863	        	        	        	        	       0	(  2  1 11)	  0  1
    124.0844	        	        	        	        	       0	(  3  0  9)	  0  1
    124.6796	        	        	        	        	       0	(  3  1  0)	  0  1
    125.0897	        	        	        	        	       0	(  3  1  1)	  0  1
    126.3325	        	        	        	        	       0	(  3  1  2)	  0  1
    128.2858	        	        	        	        	       0	(  1  0 16)	  0  1
    128.4496	        	        	        	        	       0	(  3  1  3)	  0  1
    129.0812	        	        	        	        	       0	(  2  0 14)	  0  1
    131.2480	        	        	        	        	       0	(  2  2  6)	  0  1
    131.5238	        	        	        	        	       0	(  3  1  4)	  0  1
    132.2195	        	        	        	        	       0	(  3  0 10)	  0  1
    133.4910	        	        	        	        	       0	(  2  1 12)	  0  1
    135.7084	        	        	        	        	       0	(  3  1  5)	  0  1
    141.3000	        	        	        	        	       0	(  3  1  6)	  0  1
    142.6891	        	        	        	        	       0	(  3  0 11)	  0  1
    143.2057	        	        	        	        	       0	(  2  0 15)	  0  1
    144.4352	        	        	        	        	       0	(  1  0 17)	  0  1
    145.4716	        	        	        	        	       0	(  2  2  8)	  0  1
    146.6327	        	        	        	        	       0	(  2  1 13)	  0  1
    148.9670	        	        	        	        	       0	(  3  1  7)	  0  1
    149.5264	        	        	        	        	       0	(  1  1 16)	  0  1
    153.9076	        	        	        	        	       0	(  0  0 18)	  0  1
    158.5442	        	        	        	        	       0	(  3  0 12)	  0  1
    158.8285	        	        	        	        	       0	(  4  0  0)	  0  1
    159.7844	        	        	        	        	       0	(  4  0  1)	  0  1
    160.9456	        	        	        	        	       0	(  3  1  8)	  0  1
    162.9598	        	        	        	        	       0	(  4  0  2)	  0  1
    169.5508	        	        	        	        	       0	(  2  0 16)	  0  1
    170.2925	        	        	        	        	       0	(  4  0  3)	  0  1
    173.9337	        	        	        	        	       0	(  2  1 14)	  0  1
