MSG Master    CELL:    5.87510   5.87510  23.06658   90.0000   90.0000  120.0000   SPGR: P 63/m m c             TEMP:    440.15
  2   1280     2.52000     0.00000    -0.08481     0.00000     0.00000    0
    95    95     0     0     2
       0.00000      10.00000
     125.00000     130.00000
 2Theta	Yobs	Ycal	Yobs-Ycal	Backg	Posr	(hkl)	K
      0.7700	    0.00	 1019.33	-2434.00	  874.71
      0.8700	    0.00	 1015.81	-2434.00	  871.19
      0.9700	   47.00	 1012.31	-2434.00	  867.70
      1.0700	   43.00	 1008.84	-2434.00	  864.22
      1.1700	   52.00	 1005.39	-2434.00	  860.77
      1.2700	   43.00	 1001.96	-2434.00	  857.34
      1.3700	   46.00	  998.55	-2434.00	  853.94
      1.4700	  104.00	  995.16	-2434.00	  850.55
      1.5700	  304.00	  991.80	-2434.00	  847.19
      1.6700	  454.00	  988.46	-2434.00	  843.84
      1.7700	  556.00	  985.14	-2434.00	  840.52
      1.8700	  633.00	  981.84	-2434.00	  837.22
      1.9700	  736.00	  978.56	-2434.00	  833.95
      2.0700	  749.00	  975.30	-2434.00	  830.69
      2.1700	  828.00	  972.07	-2434.00	  827.46
      2.2700	  757.00	  968.86	-2434.00	  824.24
      2.3700	  752.00	  965.66	-2434.00	  821.05
      2.4700	  732.00	  962.49	-2434.00	  817.88
      2.5700	  686.00	  959.34	-2434.00	  814.73
      2.6700	  632.00	  956.21	-2434.00	  811.60
      2.7700	  671.00	  953.10	-2434.00	  808.49
      2.8700	  643.00	  950.01	-2434.00	  805.40
      2.9700	  628.00	  946.95	-2434.00	  802.33
      3.0700	  598.00	  943.90	-2434.00	  799.28
      3.1700	  600.00	  940.87	-2434.00	  796.26
      3.2700	  692.00	  937.86	-2434.00	  793.25
      3.3700	  935.00	  934.88	-2434.00	  790.26
      3.4700	 1098.00	  931.91	-2434.00	  787.30
      3.5700	 1231.00	  928.96	-2434.00	  784.35
      3.6700	 1301.00	  926.04	-2434.00	  781.42
      3.7700	 1396.00	  923.13	-2434.00	  778.52
      3.8700	 1551.00	  920.24	-2434.00	  775.63
      3.9700	 1555.00	  917.37	-2434.00	  772.76
      4.0700	 1611.00	  914.53	-2434.00	  769.91
      4.1700	 1665.00	  911.70	-2434.00	  767.09
      4.2700	 1686.00	  908.89	-2434.00	  764.28
      4.3700	 1648.00	  906.10	-2434.00	  761.49
      4.4700	 1592.00	  903.33	-2434.00	  758.72
      4.5700	 1612.00	  900.58	-2434.00	  755.96
      4.6700	 1497.00	  897.84	-2434.00	  753.23
      4.7700	 1518.00	  895.13	-2434.00	  750.52
      4.8700	 1411.00	  892.44	-2434.00	  747.82
      4.9700	 1379.00	  889.76	-2434.00	  745.15
      5.0700	 1350.00	  887.10	-2434.00	  742.49
      5.1700	 1369.00	  884.47	-2434.00	  739.85
      5.2700	 1281.00	  881.84	-2434.00	  737.23
      5.3700	 1344.00	  879.24	-2434.00	  734.63
      5.4700	 1264.00	  876.66	-2434.00	  732.05
      5.5700	 1214.00	  874.10	-2434.00	  729.48
      5.6700	 1243.00	  871.55	-2434.00	  726.94
      5.7700	 1170.00	  869.02	-2434.00	  724.41
      5.8700	 1232.00	  866.51	-2434.00	  721.90
      5.9700	 1140.00	  864.02	-2434.00	  719.40
      6.0700	 1152.00	  861.54	-2434.00	  716.93
      6.1700	 1099.00	  859.09	-2434.00	  714.47
      6.2700	 1143.00	  856.65	-2434.00	  712.03
      6.3700	 1011.00	  854.22	-2434.00	  709.61
      6.4700	 1010.00	  851.82	-2434.00	  707.21
      6.5700	  987.00	  849.43	-2434.00	  704.82
      6.6700	 1027.00	  847.06	-2434.00	  702.45
      6.7700	 1024.00	  844.71	-2434.00	  700.10
      6.8700	  988.00	  842.38	-2434.00	  697.76
      6.9700	  980.00	  840.06	-2434.00	  695.45
      7.0700	  952.00	  837.76	-2434.00	  693.15
      7.1700	  925.00	  835.47	-2434.00	  690.86
      7.2700	  943.00	  833.21	-2434.00	  688.60
      7.3700	  934.00	  830.96	-2434.00	  686.35
      7.4700	  901.00	  828.72	-2434.00	  684.11
      7.5700	  865.00	  826.51	-2434.00	  681.90
      7.6700	  869.00	  824.31	-2434.00	  679.70
      7.7700	  871.00	  822.12	-2434.00	  677.51
      7.8700	  833.00	  819.96	-2434.00	  675.34
      7.9700	  825.00	  817.81	-2434.00	  673.19
      8.0700	  884.00	  815.67	-2434.00	  671.06
      8.1700	  859.00	  813.55	-2434.00	  668.94
      8.2700	  822.00	  811.45	-2434.00	  666.84
      8.3700	  815.00	  809.36	-2434.00	  664.75
      8.4700	  850.00	  807.29	-2434.00	  662.68
      8.5700	  771.00	  805.24	-2434.00	  660.63
      8.6700	  836.00	  803.20	-2434.00	  658.59
      8.7700	  795.00	  801.18	-2434.00	  656.56
      8.8700	  824.00	  799.17	-2434.00	  654.56
      8.9700	  794.00	  797.18	-2434.00	  652.57
      9.0700	  832.00	  795.20	-2434.00	  650.59
      9.1700	  799.00	  793.24	-2434.00	  648.63
      9.2700	  784.00	  791.30	-2434.00	  646.68
      9.3700	  770.00	  789.37	-2434.00	  644.75
      9.4700	  789.00	  787.45	-2434.00	  642.84
      9.5700	  767.00	  785.55	-2434.00	  640.94
      9.6700	  785.00	  783.66	-2434.00	  639.05
      9.7700	  796.00	  781.79	-2434.00	  637.18
      9.8700	  777.00	  779.94	-2434.00	  635.33
      9.9700	  782.00	  778.10	-2434.00	  633.49
     10.0700	  782.00	  778.44	-2430.44	  631.66
     10.1700	  753.00	  776.87	-2457.87	  629.85
     10.2700	  769.00	  775.35	-2440.35	  628.05
     10.3700	  759.00	  773.90	-2448.90	  626.27
     10.4700	  779.00	  772.56	-2427.56	  624.50
     10.5700	  761.00	  771.35	-2444.35	  622.75
     10.6700	  721.00	  770.32	-2483.32	  621.01
     10.7700	  777.00	  769.56	-2426.56	  619.29
     10.8700	  739.00	  769.14	-2464.14	  617.57
     10.9700	  763.00	  769.16	-2440.16	  615.88
     11.0700	  779.00	  769.68	-2424.68	  614.20
     11.1700	  816.00	  770.72	-2388.72	  612.53
     11.2700	  787.00	  772.31	-2419.31	  610.87
     11.3700	  793.00	  774.49	-2415.49	  609.23
     11.4700	  763.00	  777.33	-2448.33	  607.60
     11.5700	  766.00	  780.97	-2448.97	  605.99
     11.6700	  783.00	  785.60	-2436.60	  604.39
     11.7700	  803.00	  791.47	-2422.47	  602.80
     11.8700	  804.00	  798.82	-2428.82	  601.23
     11.9700	  842.00	  807.70	-2399.70	  599.67
     12.0700	  885.00	  817.67	-2366.67	  598.12
     12.1700	  848.00	  827.35	-2413.35	  596.59
     12.2700	  911.00	  834.00	-2357.00	  595.07
     12.3700	  924.00	  833.38	-2343.38	  593.56
     12.4700	  870.00	  822.49	-2386.49	  592.07
     12.5700	  778.00	  803.96	-2459.96	  590.59
     12.6700	  766.00	  784.40	-2452.40	  589.12
     12.7700	  740.00	  768.07	-2462.07	  587.66
     12.8700	  751.00	  755.90	-2438.90	  586.22
     12.9700	  712.00	  747.29	-2469.29	  584.79
     13.0700	  671.00	  741.25	-2504.25	  583.37
     13.1700	  732.00	  736.86	-2438.86	  581.97
     13.2700	  676.00	  733.46	-2491.46	  580.58
     13.3700	  708.00	  730.66	-2456.67	  579.20
     13.4700	  730.00	  728.24	-2432.24	  577.83
     13.5700	  715.00	  726.06	-2445.06	  576.47
     13.6700	  666.00	  724.07	-2492.07	  575.13
     13.7700	  754.00	  722.21	-2402.21	  573.80
     13.8700	  672.00	  720.45	-2482.45	  572.48
     13.9700	  746.00	  718.78	-2406.78	  571.17
     14.0700	  698.00	  717.18	-2453.18	  569.88
     14.1700	  771.00	  715.64	-2378.64	  568.59
     14.2700	  777.00	  714.15	-2371.15	  567.32
     14.3700	  751.00	  712.70	-2395.70	  566.06
     14.4700	  688.00	  711.28	-2457.28	  564.81
     14.5700	  676.00	  709.90	-2467.90	  563.58
     14.6700	  711.00	  708.55	-2431.55	  562.35
     14.7700	  694.00	  707.23	-2447.23	  561.14
     14.8700	  700.00	  705.92	-2439.92	  559.94
     14.9700	  749.00	  704.64	-2389.64	  558.75
     15.0700	  680.00	  703.39	-2457.39	  557.57
     15.1700	  711.00	  702.15	-2425.15	  556.40
     15.2700	  686.00	  700.93	-2448.93	  555.24
     15.3700	  728.00	  699.72	-2405.72	  554.09
     15.4700	  750.00	  698.53	-2382.53	  552.96
     15.5700	  670.00	  697.36	-2461.36	  551.84
     15.6700	  693.00	  696.21	-2437.21	  550.72
     15.7700	  708.00	  695.06	-2421.06	  549.62
     15.8700	  629.00	  693.93	-2498.94	  548.53
     15.9700	  672.00	  692.82	-2454.82	  547.45
     16.0700	  773.00	  691.72	-2352.72	  546.38
     16.1700	  676.00	  690.63	-2448.63	  545.32
     16.2700	  708.00	  689.56	-2415.56	  544.27
     16.3700	  694.00	  688.49	-2428.49	  543.23
     16.4700	  700.00	  687.44	-2421.44	  542.20
     16.5700	  713.00	  686.41	-2407.41	  541.18
     16.6700	  659.00	  685.38	-2460.38	  540.18
     16.7700	  651.00	  684.36	-2467.36	  539.18
     16.8700	  694.00	  683.36	-2423.36	  538.19
     16.9700	  684.00	  682.37	-2432.37	  537.21
     17.0700	  660.00	  681.39	-2455.39	  536.25
     17.1700	  671.00	  680.42	-2443.42	  535.29
     17.2700	  751.00	  679.46	-2362.46	  534.34
     17.3700	  650.00	  678.51	-2462.51	  533.41
     17.4700	  666.00	  677.57	-2445.57	  532.48
     17.5700	  702.00	  676.65	-2408.65	  531.56
     17.6700	  682.00	  675.73	-2427.73	  530.65
     17.7700	  711.00	  674.82	-2397.82	  529.75
     17.8700	  700.00	  673.93	-2407.93	  528.87
     17.9700	  668.00	  673.04	-2439.04	  527.99
     18.0700	  692.00	  672.16	-2414.16	  527.12
     18.1700	  715.00	  671.30	-2390.30	  526.26
     18.2700	  666.00	  670.44	-2438.44	  525.40
     18.3700	  659.00	  669.60	-2444.60	  524.56
     18.4700	  638.00	  668.76	-2464.76	  523.73
     18.5700	  654.00	  667.93	-2447.93	  522.91
     18.6700	  657.00	  667.11	-2444.11	  522.09
     18.7700	  673.00	  666.31	-2427.31	  521.29
     18.8700	  689.00	  665.51	-2410.51	  520.49
     18.9700	  644.00	  664.72	-2454.72	  519.70
     19.0700	  646.00	  665.32	-2453.32	  518.92
     19.1700	  669.00	  666.83	-2431.83	  518.16
     19.2700	  639.00	  666.15	-2461.15	  517.39
     19.3700	  684.00	  665.48	-2415.48	  516.64
     19.4700	  651.00	  664.82	-2447.82	  515.90
     19.5700	  698.00	  664.17	-2400.17	  515.16
     19.6700	  632.00	  663.54	-2465.54	  514.44
     19.7700	  631.00	  662.91	-2465.91	  513.72
     19.8700	  656.00	  662.30	-2440.30	  513.01
     19.9700	  642.00	  661.70	-2453.70	  512.31
     20.0700	  666.00	  661.16	-2429.16	  511.62
     20.1700	  672.00	  660.58	-2422.58	  510.93
     20.2700	  670.00	  660.02	-2424.02	  510.26
     20.3700	  626.00	  659.47	-2467.47	  509.59
     20.4700	  742.00	  658.94	-2350.94	  508.93
     20.5700	  686.00	  658.41	-2406.41	  508.28
     20.6700	  643.00	  657.90	-2448.90	  507.63
     20.7700	  647.00	  657.41	-2444.41	  507.00
     20.8700	  644.00	  656.93	-2446.93	  506.37
     20.9700	  662.00	  656.46	-2428.46	  505.75
     21.0700	  662.00	  656.01	-2428.01	  505.14
     21.1700	  695.00	  655.57	-2394.57	  504.53
     21.2700	  684.00	  655.14	-2405.14	  503.93
     21.3700	  660.00	  654.74	-2428.74	  503.35
     21.4700	  690.00	  654.34	-2398.34	  502.76
     21.5700	  660.00	  653.97	-2427.97	  502.19
     21.6700	  678.00	  653.61	-2409.61	  501.62
     21.7700	  633.00	  653.27	-2454.27	  501.06
     21.8700	  640.00	  652.95	-2446.95	  500.51
     21.9700	  718.00	  652.65	-2368.65	  499.97
     22.0700	  647.00	  652.37	-2439.37	  499.43
     22.1700	  649.00	  652.11	-2437.11	  498.90
     22.2700	  659.00	  652.08	-2427.08	  498.38
     22.3700	  654.00	  651.87	-2431.87	  497.86
     22.4700	  661.00	  651.69	-2424.69	  497.35
     22.5700	  645.00	  651.53	-2440.53	  496.85
     22.6700	  627.00	  651.40	-2458.40	  496.36
     22.7700	  630.00	  651.30	-2455.30	  495.87
     22.8700	  639.00	  651.23	-2446.23	  495.39
     22.9700	  666.00	  651.20	-2419.20	  494.92
     23.0700	  683.00	  651.21	-2402.21	  494.45
     23.1700	  673.00	  651.27	-2412.27	  493.99
     23.2700	  630.00	  651.37	-2455.37	  493.53
     23.3700	  640.00	  651.54	-2445.54	  493.09
     23.4700	  647.00	  651.77	-2438.77	  492.65
     23.5700	  656.00	  652.08	-2430.08	  492.21
     23.6700	  669.00	  652.49	-2417.49	  491.79
     23.7700	  681.00	  653.01	-2406.01	  491.36
     23.8700	  640.00	  653.69	-2447.69	  490.95
     23.9700	  646.00	  654.58	-2442.58	  490.54
     24.0700	  682.00	  655.78	-2407.78	  490.14
     24.1700	  640.00	  657.44	-2451.44	  489.75
     24.2700	  637.00	  659.79	-2456.79	  489.36
     24.3700	  646.00	  663.16	-2451.16	  488.97
     24.4700	  669.00	  667.92	-2432.92	  488.60
     24.5700	  702.00	  674.40	-2406.40	  488.22
     24.6700	  758.00	  682.68	-2358.68	  487.86
     24.7700	  692.00	  692.41	-2434.41	  487.50
     24.8700	  727.00	  702.51	-2409.51	  487.15
     24.9700	  756.00	  711.05	-2389.05	  486.80
     25.0700	  775.00	  715.02	-2374.02	  486.46
     25.1700	  721.00	  712.21	-2425.21	  486.12
     25.2700	  748.00	  703.84	-2389.84	  485.79
     25.3700	  732.00	  694.15	-2396.15	  485.47
     25.4700	  696.00	  686.12	-2424.12	  485.15
     25.5700	  703.00	  680.70	-2411.70	  484.84
     25.6700	  651.00	  677.75	-2460.75	  484.53
     25.7700	  695.00	  676.77	-2415.77	  484.23
     25.8700	  673.00	  677.22	-2438.22	  483.93
     25.9700	  681.00	  678.70	-2431.70	  483.64
     26.0700	  714.00	  680.99	-2400.99	  483.36
     26.1700	  697.00	  683.97	-2420.97	  483.08
     26.2700	  632.00	  687.62	-2489.62	  482.80
     26.3700	  709.00	  692.00	-2417.00	  482.54
     26.4700	  665.00	  697.18	-2466.18	  482.27
     26.5700	  699.00	  703.29	-2438.29	  482.01
     26.6700	  674.00	  710.50	-2470.50	  481.76
     26.7700	  667.00	  719.04	-2486.04	  481.51
     26.8700	  715.00	  729.21	-2448.21	  481.27
     26.9700	  740.00	  741.42	-2435.42	  481.03
     27.0700	  716.00	  756.22	-2474.22	  480.79
     27.1700	  689.00	  774.38	-2519.38	  480.57
     27.2700	  724.00	  797.00	-2507.00	  480.34
     27.3700	  763.00	  825.77	-2496.77	  480.12
     27.4700	  786.00	  863.71	-2511.71	  479.91
     27.5700	  857.00	  917.07	-2494.07	  479.70
     27.6700	  845.00	  999.76	-2588.76	  479.50
     27.7700	  947.00	 1141.22	-2628.22	  479.30
     27.8700	 1110.00	 1396.68	-2720.68	  479.10
     27.9700	 1389.00	 1855.07	-2900.07	  478.91
     28.0700	 2106.00	 2631.71	-2959.71	  478.72
     28.1700	 3321.00	 3826.09	-2939.09	  478.54
     28.2700	 5253.00	 5427.76	-2608.76	  478.37
     28.3700	 7990.00	 7171.40	-1615.40	  478.19
     28.4700	 9736.00	 8443.18	-1141.18	  478.03
     28.5700	 9240.00	 8476.71	-1670.71	  477.86
     28.6700	 7427.00	 7185.40	-2192.40	  477.70
     28.7700	 5250.00	 5576.66	-2760.66	  477.55
     28.8700	 4114.00	 4552.51	-2872.51	  477.40
     28.9700	 4281.00	 4326.47	-2479.47	  477.25
     29.0700	 4978.00	 4629.55	-2085.55	  477.11
     29.1700	 5468.00	 4963.37	-1929.37	  476.97
     29.2700	 5072.00	 4824.05	-2186.05	  476.83
     29.3700	 4110.00	 4062.35	-2386.35	  476.70
     29.4700	 2914.00	 3050.70	-2570.70	  476.58
     29.5700	 1917.00	 2180.04	-2697.04	  476.46
     29.6700	 1468.00	 1584.87	-2550.87	  476.34
     29.7700	 1223.00	 1235.50	-2446.50	  476.22
     29.8700	 1040.00	 1046.90	-2440.90	  476.11
     29.9700	  952.00	  943.89	-2425.89	  476.01
     30.0700	  925.00	  881.69	-2390.69	  475.90
     30.1700	  900.00	  839.41	-2373.41	  475.80
     30.2700	  851.00	  808.39	-2391.39	  475.71
     30.3700	  738.00	  785.01	-2481.01	  475.62
     30.4700	  813.00	  767.65	-2388.65	  475.53
     30.5700	  728.00	  755.81	-2461.81	  475.45
     30.6700	  766.00	  749.85	-2417.85	  475.36
     30.7700	  725.00	  750.72	-2459.72	  475.29
     30.8700	  772.00	  759.15	-2421.15	  475.21
     30.9700	  734.00	  774.38	-2474.38	  475.14
     31.0700	  791.00	  792.76	-2435.76	  475.08
     31.1700	  836.00	  807.01	-2405.01	  475.01
     31.2700	  834.00	  807.27	-2407.27	  474.95
     31.3700	  754.00	  788.24	-2468.24	  474.90
     31.4700	  818.00	  757.45	-2373.45	  474.84
     31.5700	  756.00	  727.00	-2405.00	  474.79
     31.6700	  690.00	  703.17	-2447.17	  474.75
     31.7700	  786.00	  686.85	-2334.85	  474.70
     31.8700	  727.00	  676.50	-2383.50	  474.66
     31.9700	  722.00	  670.02	-2382.02	  474.62
     32.0700	  713.00	  665.76	-2386.76	  474.59
     32.1700	  697.00	  662.73	-2399.73	  474.56
     32.2700	  684.00	  660.45	-2410.45	  474.53
     32.3700	  658.00	  658.71	-2434.71	  474.50
     32.4700	  660.00	  657.40	-2431.40	  474.48
     32.5700	  659.00	  656.51	-2431.51	  474.46
     32.6700	  696.00	  655.97	-2393.97	  474.45
     32.7700	  688.00	  655.81	-2401.81	  474.43
     32.8700	  721.00	  656.06	-2369.06	  474.42
     32.9700	  699.00	  656.77	-2391.77	  474.41
     33.0700	  652.00	  658.03	-2440.03	  474.41
     33.1700	  775.00	  659.98	-2318.98	  474.41
     33.2700	  667.00	  662.86	-2429.86	  474.41
     33.3700	  692.00	  667.11	-2409.11	  474.41
     33.4700	  682.00	  673.58	-2425.58	  474.41
     33.5700	  767.00	  683.94	-2350.94	  474.42
     33.6700	  715.00	  701.15	-2420.15	  474.43
     33.7700	  703.00	  729.94	-2460.94	  474.44
     33.8700	  785.00	  776.53	-2425.53	  474.46
     33.9700	  880.00	  846.67	-2400.67	  474.48
     34.0700	 1040.00	  941.33	-2335.33	  474.50
     34.1700	 1113.00	 1051.08	-2372.08	  474.52
     34.2700	 1284.00	 1152.13	-2302.13	  474.55
     34.3700	 1392.00	 1207.39	-2249.39	  474.58
     34.4700	 1356.00	 1184.18	-2262.18	  474.60
     34.5700	 1218.00	 1090.23	-2306.23	  474.64
     34.6700	  971.00	  970.98	-2433.98	  474.67
     34.7700	  864.00	  864.13	-2434.13	  474.71
     34.8700	  795.00	  784.23	-2423.23	  474.75
     34.9700	  736.00	  731.14	-2429.14	  474.79
     35.0700	  729.00	  698.64	-2403.64	  474.83
     35.1700	  715.00	  679.43	-2398.43	  474.88
     35.2700	  722.00	  667.81	-2379.81	  474.92
     35.3700	  720.00	  660.27	-2374.27	  474.97
     35.4700	  676.00	  654.95	-2412.95	  475.03
     35.5700	  708.00	  650.97	-2376.97	  475.08
     35.6700	  703.00	  647.87	-2378.87	  475.13
     35.7700	  629.00	  645.41	-2450.41	  475.19
     35.8700	  658.00	  643.44	-2419.44	  475.25
     35.9700	  670.00	  641.84	-2405.84	  475.31
     36.0700	  653.00	  640.56	-2421.56	  475.38
     36.1700	  661.00	  639.53	-2412.53	  475.44
     36.2700	  647.00	  638.71	-2425.71	  475.51
     36.3700	  682.00	  638.09	-2390.09	  475.58
     36.4700	  639.00	  637.64	-2432.64	  475.65
     36.5700	  640.00	  637.35	-2431.35	  475.72
     36.6700	  588.00	  637.43	-2483.43	  475.79
     36.7700	  604.00	  637.47	-2467.47	  475.87
     36.8700	  658.00	  637.69	-2413.69	  475.94
     36.9700	  677.00	  638.12	-2395.12	  476.02
     37.0700	  642.00	  638.80	-2430.80	  476.10
     37.1700	  648.00	  639.81	-2425.81	  476.19
     37.2700	  661.00	  641.80	-2414.80	  476.27
     37.3700	  667.00	  643.96	-2410.96	  476.35
     37.4700	  650.00	  647.19	-2431.19	  476.44
     37.5700	  665.00	  652.15	-2421.15	  476.53
     37.6700	  665.00	  659.89	-2428.89	  476.62
     37.7700	  711.00	  671.85	-2394.85	  476.71
     37.8700	  623.00	  689.70	-2500.70	  476.80
     37.9700	  706.00	  714.75	-2442.75	  476.89
     38.0700	  783.00	  744.61	-2395.61	  476.99
     38.1700	  746.00	  780.68	-2468.68	  477.08
     38.2700	  809.00	  814.08	-2439.08	  477.18
     38.3700	  768.00	  834.52	-2500.52	  477.28
     38.4700	  817.00	  831.81	-2448.81	  477.38
     38.5700	  786.00	  805.36	-2453.36	  477.48
     38.6700	  765.00	  766.76	-2435.76	  477.58
     38.7700	  704.00	  728.62	-2458.62	  477.68
     38.8700	  685.00	  697.51	-2446.50	  477.79
     38.9700	  644.00	  675.00	-2465.00	  477.89
     39.0700	  644.00	  660.08	-2450.08	  478.00
     39.1700	  610.00	  650.75	-2474.75	  478.11
     39.2700	  622.00	  645.03	-2457.03	  478.22
     39.3700	  667.00	  641.43	-2408.43	  478.33
     39.4700	  588.00	  639.03	-2485.03	  478.44
     39.5700	  625.00	  636.01	-2445.01	  478.55
     39.6700	  658.00	  634.76	-2410.76	  478.66
     39.7700	  639.00	  633.80	-2428.80	  478.77
     39.8700	  622.00	  633.06	-2445.06	  478.89
     39.9700	  616.00	  632.47	-2450.47	  479.00
     40.0700	  631.00	  632.02	-2435.02	  479.12
     40.1700	  681.00	  631.67	-2384.67	  479.24
     40.2700	  632.00	  631.41	-2433.41	  479.35
     40.3700	  661.00	  631.23	-2404.23	  479.47
     40.4700	  619.00	  631.11	-2446.10	  479.59
     40.5700	  641.00	  631.04	-2424.04	  479.71
     40.6700	  613.00	  631.56	-2452.56	  479.83
     40.7700	  641.00	  631.59	-2424.59	  479.95
     40.8700	  658.00	  631.67	-2407.67	  480.08
     40.9700	  599.00	  631.79	-2466.79	  480.20
     41.0700	  597.00	  632.01	-2469.01	  480.32
     41.1700	  636.00	  632.22	-2430.22	  480.45
     41.2700	  616.00	  632.48	-2450.48	  480.57
     41.3700	  631.00	  632.80	-2435.80	  480.70
     41.4700	  656.00	  633.17	-2411.17	  480.82
     41.5700	  577.00	  633.62	-2490.62	  480.95
     41.6700	  605.00	  634.15	-2463.15	  481.07
     41.7700	  647.00	  634.80	-2421.80	  481.20
     41.8700	  603.00	  635.60	-2466.60	  481.33
     41.9700	  611.00	  636.61	-2459.61	  481.46
     42.0700	  619.00	  637.94	-2452.94	  481.59
     42.1700	  653.00	  639.81	-2420.81	  481.71
     42.2700	  634.00	  642.59	-2442.59	  481.84
     42.3700	  639.00	  646.86	-2441.86	  481.97
     42.4700	  658.00	  653.42	-2429.42	  482.10
     42.5700	  670.00	  663.15	-2427.15	  482.23
     42.6700	  692.00	  676.84	-2418.84	  482.37
     42.7700	  658.00	  694.47	-2470.47	  482.50
     42.8700	  689.00	  714.65	-2459.65	  482.63
     42.9700	  708.00	  733.92	-2459.92	  482.76
     43.0700	  693.00	  746.73	-2487.73	  482.89
     43.1700	  760.00	  747.67	-2421.67	  483.02
     43.2700	  711.00	  736.04	-2459.04	  483.16
     43.3700	  717.00	  716.96	-2433.96	  483.29
     43.4700	  684.00	  696.68	-2446.68	  483.42
     43.5700	  717.00	  679.08	-2396.08	  483.55
     43.6700	  624.00	  665.50	-2475.50	  483.69
     43.7700	  661.00	  655.89	-2428.89	  483.82
     43.8700	  643.00	  649.57	-2440.57	  483.95
     43.9700	  631.00	  645.61	-2448.61	  484.08
     44.0700	  650.00	  643.37	-2427.37	  484.22
     44.1700	  653.00	  641.85	-2422.85	  484.35
     44.2700	  707.00	  640.87	-2367.87	  484.48
     44.3700	  639.00	  640.20	-2435.20	  484.62
     44.4700	  643.00	  639.75	-2430.75	  484.75
     44.5700	  621.00	  639.46	-2452.46	  484.88
     44.6700	  624.00	  639.26	-2449.26	  485.02
     44.7700	  703.00	  639.15	-2370.15	  485.15
     44.8700	  645.00	  639.11	-2428.11	  485.28
     44.9700	  633.00	  639.13	-2440.13	  485.42
     45.0700	  621.00	  639.47	-2452.47	  485.55
     45.1700	  679.00	  639.58	-2394.58	  485.68
     45.2700	  666.00	  639.73	-2407.73	  485.81
     45.3700	  640.00	  639.92	-2433.92	  485.95
     45.4700	  664.00	  640.14	-2410.14	  486.08
     45.5700	  675.00	  640.49	-2399.49	  486.21
     45.6700	  633.00	  640.77	-2441.77	  486.34
     45.7700	  637.00	  641.10	-2438.10	  486.47
     45.8700	  672.00	  641.45	-2403.45	  486.61
     45.9700	  670.00	  641.83	-2405.83	  486.74
     46.0700	  661.00	  642.24	-2415.24	  486.87
     46.1700	  651.00	  642.69	-2425.69	  487.00
     46.2700	  614.00	  643.17	-2463.17	  487.13
     46.3700	  651.00	  643.70	-2426.70	  487.26
     46.4700	  600.00	  644.28	-2478.28	  487.39
     46.5700	  600.00	  645.09	-2479.09	  487.52
     46.6700	  681.00	  645.79	-2398.79	  487.65
     46.7700	  650.00	  646.36	-2430.36	  487.78
     46.8700	  639.00	  647.23	-2442.23	  487.90
     46.9700	  571.00	  648.21	-2511.21	  488.03
     47.0700	  639.00	  649.33	-2444.33	  488.16
     47.1700	  620.00	  650.66	-2464.66	  488.29
     47.2700	  651.00	  652.28	-2435.28	  488.41
     47.3700	  685.00	  654.37	-2403.37	  488.54
     47.4700	  625.00	  657.20	-2466.20	  488.66
     47.5700	  647.00	  661.19	-2448.19	  488.79
     47.6700	  674.00	  666.86	-2426.86	  488.91
     47.7700	  647.00	  674.80	-2461.80	  489.04
     47.8700	  668.00	  685.47	-2451.47	  489.16
     47.9700	  674.00	  698.96	-2458.96	  489.29
     48.0700	  708.00	  714.60	-2440.60	  489.41
     48.1700	  689.00	  730.59	-2475.59	  489.53
     48.2700	  714.00	  743.74	-2463.74	  489.65
     48.3700	  762.00	  750.21	-2422.21	  489.77
     48.4700	  745.00	  748.35	-2437.35	  489.89
     48.5700	  730.00	  739.00	-2443.00	  490.01
     48.6700	  688.00	  726.62	-2472.62	  490.13
     48.7700	  654.00	  714.71	-2494.71	  490.25
     48.8700	  654.00	  705.24	-2485.24	  490.37
     48.9700	  679.00	  699.00	-2454.00	  490.49
     49.0700	  679.00	  696.07	-2451.07	  490.60
     49.1700	  669.00	  696.14	-2461.14	  490.72
     49.2700	  711.00	  698.86	-2421.86	  490.83
     49.3700	  683.00	  704.02	-2455.02	  490.95
     49.4700	  691.00	  711.76	-2454.76	  491.06
     49.5700	  707.00	  722.99	-2449.99	  491.18
     49.6700	  732.00	  740.13	-2442.13	  491.29
     49.7700	  755.00	  768.80	-2447.80	  491.40
     49.8700	  823.00	  820.44	-2431.44	  491.51
     49.9700	 1020.00	  915.10	-2329.10	  491.62
     50.0700	 1156.00	 1081.65	-2359.65	  491.73
     50.1700	 1467.00	 1351.24	-2318.24	  491.84
     50.2700	 1790.00	 1741.72	-2385.72	  491.95
     50.3700	 2408.00	 2235.20	-2261.20	  492.05
     50.4700	 2848.00	 2758.57	-2344.57	  492.16
     50.5700	 3125.00	 3179.33	-2488.33	  492.26
     50.6700	 3304.00	 3342.32	-2472.32	  492.37
     50.7700	 3013.00	 3170.09	-2591.09	  492.47
     50.8700	 2597.00	 2741.10	-2578.10	  492.58
     50.9700	 2147.00	 2216.34	-2503.34	  492.68
     51.0700	 1596.00	 1729.59	-2567.59	  492.78
     51.1700	 1347.00	 1351.22	-2438.22	  492.88
     51.2700	 1091.00	 1096.11	-2439.11	  492.98
     51.3700	  963.00	  944.35	-2415.35	  493.08
     51.4700	  875.00	  863.03	-2422.03	  493.17
     51.5700	  830.00	  821.87	-2425.87	  493.27
     51.6700	  831.00	  799.52	-2402.52	  493.37
     51.7700	  785.00	  783.96	-2432.96	  493.46
     51.8700	  774.00	  770.35	-2430.35	  493.55
     51.9700	  719.00	  758.17	-2473.17	  493.65
     52.0700	  763.00	  747.99	-2418.99	  493.74
     52.1700	  786.00	  740.17	-2388.17	  493.83
     52.2700	  769.00	  734.42	-2399.42	  493.92
     52.3700	  738.00	  729.94	-2425.94	  494.01
     52.4700	  754.00	  725.95	-2405.95	  494.10
     52.5700	  786.00	  722.26	-2370.26	  494.18
     52.6700	  745.00	  719.41	-2408.41	  494.27
     52.7700	  746.00	  718.20	-2406.20	  494.35
     52.8700	  735.00	  719.47	-2418.47	  494.44
     52.9700	  718.00	  724.17	-2440.17	  494.52
     53.0700	  771.00	  733.63	-2396.63	  494.60
     53.1700	  746.00	  749.75	-2437.75	  494.68
     53.2700	  790.00	  775.05	-2419.05	  494.76
     53.3700	  816.00	  812.48	-2430.48	  494.84
     53.4700	  846.00	  864.73	-2452.73	  494.92
     53.5700	  907.00	  933.33	-2460.33	  495.00
     53.6700	  993.00	 1016.88	-2457.88	  495.07
     53.7700	 1154.00	 1110.00	-2390.00	  495.15
     53.8700	 1227.00	 1201.08	-2408.08	  495.22
     53.9700	 1308.00	 1271.54	-2397.54	  495.29
     54.0700	 1278.00	 1300.58	-2456.58	  495.36
     54.1700	 1335.00	 1277.47	-2376.47	  495.43
     54.2700	 1236.00	 1210.73	-2408.73	  495.50
     54.3700	 1132.00	 1121.13	-2423.13	  495.57
     54.4700	 1023.00	 1028.15	-2439.15	  495.63
     54.5700	  942.00	  944.13	-2436.13	  495.70
     54.6700	  842.00	  874.97	-2466.97	  495.76
     54.7700	  811.00	  822.11	-2445.11	  495.83
     54.8700	  800.00	  784.21	-2418.21	  495.89
     54.9700	  768.00	  758.54	-2424.54	  495.95
     55.0700	  722.00	  741.99	-2453.99	  496.01
     55.1700	  725.00	  731.82	-2440.82	  496.07
     55.2700	  711.00	  725.92	-2448.92	  496.12
     55.3700	  706.00	  722.89	-2450.89	  496.18
     55.4700	  714.00	  721.89	-2441.89	  496.24
     55.5700	  705.00	  722.44	-2451.44	  496.29
     55.6700	  695.00	  724.37	-2463.37	  496.34
     55.7700	  707.00	  727.64	-2454.64	  496.39
     55.8700	  736.00	  732.35	-2430.35	  496.44
     55.9700	  722.00	  738.80	-2450.80	  496.49
     56.0700	  759.00	  747.53	-2422.53	  496.54
     56.1700	  755.00	  759.63	-2438.63	  496.59
     56.2700	  760.00	  777.11	-2451.11	  496.63
     56.3700	  795.00	  803.60	-2442.60	  496.67
     56.4700	  855.00	  845.01	-2424.01	  496.72
     56.5700	  863.00	  910.26	-2481.26	  496.76
     56.6700	  991.00	 1010.96	-2453.96	  496.80
     56.7700	 1123.00	 1159.74	-2470.74	  496.84
     56.8700	 1419.00	 1366.66	-2381.66	  496.87
     56.9700	 1753.00	 1634.03	-2315.03	  496.91
     57.0700	 2022.00	 1950.37	-2362.37	  496.95
     57.1700	 2324.00	 2284.94	-2394.94	  496.98
     57.2700	 2589.00	 2583.20	-2428.20	  497.01
     57.3700	 2699.00	 2771.97	-2506.97	  497.04
     57.4700	 2742.00	 2788.92	-2480.92	  497.07
     57.5700	 2448.00	 2627.44	-2613.44	  497.10
     57.6700	 2324.00	 2343.20	-2453.20	  497.13
     57.7700	 1962.00	 2011.58	-2483.58	  497.16
     57.8700	 1663.00	 1691.55	-2462.55	  497.18
     57.9700	 1300.00	 1417.61	-2551.61	  497.20
     58.0700	 1072.00	 1204.15	-2566.15	  497.23
     58.1700	  999.00	 1051.00	-2486.00	  497.25
     58.2700	  959.00	  949.79	-2424.79	  497.27
     58.3700	  861.00	  889.38	-2462.38	  497.29
     58.4700	  846.00	  860.10	-2448.10	  497.30
     58.5700	  850.00	  855.80	-2439.80	  497.32
     58.6700	  899.00	  873.70	-2408.70	  497.33
     58.7700	  873.00	  913.09	-2474.09	  497.35
     58.8700	  945.00	  973.39	-2462.39	  497.36
     58.9700	 1111.00	 1051.76	-2374.76	  497.37
     59.0700	 1164.00	 1141.41	-2411.41	  497.38
     59.1700	 1191.00	 1230.95	-2473.95	  497.38
     59.2700	 1260.00	 1306.85	-2480.85	  497.39
     59.3700	 1367.00	 1359.87	-2426.87	  497.40
     59.4700	 1396.00	 1388.26	-2426.26	  497.40
     59.5700	 1408.00	 1392.52	-2418.52	  497.40
     59.6700	 1432.00	 1372.46	-2374.46	  497.40
     59.7700	 1318.00	 1332.43	-2448.43	  497.40
     59.8700	 1267.00	 1285.04	-2452.04	  497.40
     59.9700	 1215.00	 1245.75	-2464.75	  497.40
     60.0700	 1341.00	 1226.22	-2319.22	  497.39
     60.1700	 1321.00	 1233.12	-2346.12	  497.39
     60.2700	 1327.00	 1269.79	-2376.79	  497.38
     60.3700	 1382.00	 1337.02	-2389.02	  497.37
     60.4700	 1448.00	 1430.77	-2416.77	  497.36
     60.5700	 1593.00	 1538.37	-2379.37	  497.35
     60.6700	 1669.00	 1636.82	-2401.82	  497.34
     60.7700	 1628.00	 1695.58	-2501.58	  497.33
     60.8700	 1610.00	 1688.02	-2512.02	  497.31
     60.9700	 1518.00	 1609.01	-2525.01	  497.30
     61.0700	 1421.00	 1478.78	-2491.78	  497.28
     61.1700	 1337.00	 1327.63	-2424.63	  497.26
     61.2700	 1095.00	 1181.17	-2520.17	  497.24
     61.3700	 1001.00	 1055.94	-2488.94	  497.22
     61.4700	  934.00	  959.91	-2459.91	  497.19
     61.5700	  924.00	  894.78	-2404.78	  497.17
     61.6700	  867.00	  858.66	-2425.66	  497.14
     61.7700	  868.00	  849.10	-2415.10	  497.12
     61.8700	  897.00	  865.28	-2402.28	  497.09
     61.9700	  906.00	  908.83	-2436.83	  497.06
     62.0700	 1014.00	  983.30	-2403.30	  497.03
     62.1700	 1154.00	 1092.09	-2372.09	  497.00
     62.2700	 1318.00	 1235.64	-2351.64	  496.96
     62.3700	 1440.00	 1408.32	-2402.32	  496.93
     62.4700	 1634.00	 1595.80	-2395.80	  496.89
     62.5700	 1839.00	 1773.24	-2368.24	  496.85
     62.6700	 1935.00	 1906.26	-2405.26	  496.81
     62.7700	 1967.00	 1959.51	-2426.51	  496.77
     62.8700	 1792.00	 1915.69	-2557.69	  496.73
     62.9700	 1775.00	 1788.50	-2447.50	  496.69
     63.0700	 1504.00	 1612.39	-2542.39	  496.64
     63.1700	 1458.00	 1422.61	-2398.61	  496.60
     63.2700	 1233.00	 1245.10	-2446.10	  496.55
     63.3700	 1074.00	 1095.01	-2455.01	  496.50
     63.4700	  944.00	  978.40	-2468.40	  496.45
     63.5700	  895.00	  894.36	-2433.36	  496.40
     63.6700	  827.00	  837.99	-2444.99	  496.35
     63.7700	  777.00	  802.84	-2459.84	  496.29
     63.8700	  775.00	  782.92	-2441.92	  496.24
     63.9700	  840.00	  773.79	-2367.79	  496.18
     64.0700	  839.00	  772.90	-2367.90	  496.12
     64.1700	  782.00	  779.58	-2431.58	  496.06
     64.2700	  801.00	  794.24	-2427.24	  496.00
     64.3700	  836.00	  820.35	-2418.35	  495.94
     64.4700	  810.00	  860.76	-2484.76	  495.88
     64.5700	  935.00	  919.39	-2418.39	  495.81
     64.6700	  975.00	  999.75	-2458.75	  495.75
     64.7700	 1112.00	 1103.72	-2425.72	  495.68
     64.8700	 1313.00	 1230.00	-2351.00	  495.61
     64.9700	 1372.00	 1372.47	-2434.47	  495.54
     65.0700	 1511.00	 1518.92	-2441.92	  495.47
     65.1700	 1572.00	 1651.12	-2513.12	  495.40
     65.2700	 1748.00	 1747.43	-2433.43	  495.32
     65.3700	 1752.00	 1788.58	-2470.58	  495.25
     65.4700	 1661.00	 1764.69	-2537.69	  495.17
     65.5700	 1659.00	 1681.45	-2456.45	  495.09
     65.6700	 1540.00	 1557.85	-2451.85	  495.01
     65.7700	 1365.00	 1417.18	-2486.18	  494.93
     65.8700	 1251.00	 1278.56	-2461.56	  494.85
     65.9700	 1053.00	 1154.17	-2535.17	  494.77
     66.0700	 1003.00	 1049.73	-2480.73	  494.68
     66.1700	  925.00	  966.33	-2475.33	  494.60
     66.2700	  856.00	  902.36	-2480.36	  494.51
     66.3700	  784.00	  854.82	-2504.82	  494.42
     66.4700	  830.00	  820.43	-2424.43	  494.33
     66.5700	  803.00	  796.03	-2427.03	  494.24
     66.6700	  779.00	  778.99	-2433.99	  494.15
     66.7700	  703.00	  767.34	-2498.34	  494.06
     66.8700	  734.00	  759.79	-2459.79	  493.96
     66.9700	  769.00	  755.66	-2420.66	  493.87
     67.0700	  701.00	  754.38	-2487.38	  493.77
     67.1700	  777.00	  755.99	-2412.99	  493.67
     67.2700	  765.00	  760.85	-2429.85	  493.57
     67.3700	  726.00	  769.99	-2477.99	  493.47
     67.4700	  791.00	  784.87	-2427.87	  493.37
     67.5700	  764.00	  808.43	-2478.43	  493.27
     67.6700	  833.00	  844.73	-2445.73	  493.16
     67.7700	  907.00	  899.35	-2426.35	  493.06
     67.8700	  984.00	  978.94	-2428.94	  492.95
     67.9700	 1100.00	 1090.37	-2424.37	  492.84
     68.0700	 1221.00	 1239.23	-2452.23	  492.73
     68.1700	 1444.00	 1427.76	-2417.76	  492.62
     68.2700	 1706.00	 1652.78	-2380.78	  492.51
     68.3700	 1930.00	 1903.63	-2407.63	  492.40
     68.4700	 2203.00	 2160.21	-2391.21	  492.28
     68.5700	 2372.00	 2392.27	-2454.27	  492.17
     68.6700	 2569.00	 2561.15	-2426.15	  492.05
     68.7700	 2797.00	 2629.75	-2266.75	  491.94
     68.8700	 2538.00	 2580.19	-2476.19	  491.82
     68.9700	 2451.00	 2425.33	-2408.33	  491.70
     69.0700	 2127.00	 2200.42	-2507.42	  491.58
     69.1700	 1872.00	 1944.96	-2506.96	  491.45
     69.2700	 1737.00	 1690.83	-2387.83	  491.33
     69.3700	 1446.00	 1459.76	-2447.76	  491.20
     69.4700	 1283.00	 1263.92	-2414.92	  491.08
     69.5700	 1117.00	 1107.66	-2424.66	  490.95
     69.6700	 1070.00	  989.46	-2353.46	  490.82
     69.7700	  940.00	  904.08	-2398.08	  490.69
     69.8700	  928.00	  844.71	-2350.71	  490.56
     69.9700	  866.00	  804.56	-2372.56	  490.43
     70.0700	  840.00	  777.78	-2371.78	  490.30
     70.1700	  843.00	  759.91	-2350.91	  490.17
     70.2700	  798.00	  747.82	-2383.82	  490.03
     70.3700	  787.00	  739.49	-2386.49	  489.90
     70.4700	  787.00	  733.65	-2380.65	  489.76
     70.5700	  736.00	  729.60	-2427.60	  489.62
     70.6700	  731.00	  726.96	-2429.96	  489.48
     70.7700	  737.00	  725.53	-2422.53	  489.34
     70.8700	  752.00	  725.28	-2407.28	  489.20
     70.9700	  704.00	  726.26	-2456.26	  489.06
     71.0700	  724.00	  728.73	-2438.73	  488.91
     71.1700	  758.00	  733.10	-2409.10	  488.77
     71.2700	  751.00	  740.16	-2423.16	  488.62
     71.3700	  752.00	  751.13	-2433.13	  488.48
     71.4700	  793.00	  767.85	-2408.85	  488.33
     71.5700	  815.00	  792.68	-2411.68	  488.18
     71.6700	  856.00	  829.32	-2407.32	  488.03
     71.7700	  851.00	  881.52	-2464.52	  487.88
     71.8700	  945.00	  953.34	-2442.34	  487.73
     71.9700	 1090.00	 1048.28	-2392.28	  487.57
     72.0700	 1212.00	 1168.30	-2390.30	  487.42
     72.1700	 1399.00	 1312.65	-2347.65	  487.27
     72.2700	 1420.00	 1476.95	-2490.95	  487.11
     72.3700	 1603.00	 1652.14	-2483.14	  486.95
     72.4700	 1772.00	 1823.73	-2485.73	  486.80
     72.5700	 1925.00	 1971.66	-2480.66	  486.64
     72.6700	 2045.00	 2072.44	-2461.44	  486.48
     72.7700	 2108.00	 2105.75	-2431.75	  486.32
     72.8700	 1927.00	 2063.88	-2570.88	  486.15
     72.9700	 1893.00	 1956.30	-2497.30	  485.99
     73.0700	 1770.00	 1804.88	-2468.88	  485.83
     73.1700	 1646.00	 1631.59	-2419.59	  485.66
     73.2700	 1508.00	 1456.53	-2382.53	  485.50
     73.3700	 1281.00	 1293.47	-2446.47	  485.33
     73.4700	 1104.00	 1150.87	-2480.87	  485.16
     73.5700	 1016.00	 1032.62	-2450.62	  485.00
     73.6700	  987.00	  939.04	-2386.04	  484.83
     73.7700	  845.00	  867.97	-2456.97	  484.66
     73.8700	  794.00	  815.85	-2455.85	  484.49
     73.9700	  866.00	  778.72	-2346.72	  484.31
     74.0700	  799.00	  752.80	-2387.80	  484.14
     74.1700	  801.00	  734.97	-2367.97	  483.97
     74.2700	  757.00	  722.28	-2399.28	  483.79
     74.3700	  751.00	  714.15	-2397.15	  483.62
     74.4700	  715.00	  708.92	-2427.92	  483.44
     74.5700	  689.00	  705.90	-2450.90	  483.27
     74.6700	  728.00	  704.66	-2410.66	  483.09
     74.7700	  764.00	  704.88	-2374.88	  482.91
     74.8700	  690.00	  706.28	-2450.28	  482.73
     74.9700	  733.00	  708.50	-2409.50	  482.55
     75.0700	  771.00	  711.25	-2374.25	  482.37
     75.1700	  696.00	  714.01	-2452.01	  482.19
     75.2700	  763.00	  716.19	-2387.19	  482.01
     75.3700	  774.00	  717.26	-2377.26	  481.82
     75.4700	  784.00	  716.92	-2366.92	  481.64
     75.5700	  800.00	  715.26	-2349.26	  481.45
     75.6700	  776.00	  712.83	-2370.83	  481.27
     75.7700	  788.00	  710.41	-2356.41	  481.08
     75.8700	  780.00	  708.84	-2362.84	  480.89
     75.9700	  710.00	  709.22	-2433.22	  480.71
     76.0700	  697.00	  712.48	-2449.48	  480.52
     76.1700	  699.00	  719.71	-2454.71	  480.33
     76.2700	  745.00	  732.04	-2421.04	  480.14
     76.3700	  787.00	  750.58	-2397.58	  479.95
     76.4700	  782.00	  776.26	-2428.26	  479.76
     76.5700	  771.00	  809.67	-2472.68	  479.56
     76.6700	  814.00	  850.82	-2470.82	  479.37
     76.7700	  892.00	  898.87	-2440.87	  479.18
     76.8700	  927.00	  951.99	-2458.99	  478.98
     76.9700	 1017.00	 1007.10	-2424.10	  478.79
     77.0700	 1027.00	 1059.77	-2466.77	  478.59
     77.1700	 1084.00	 1104.24	-2454.24	  478.40
     77.2700	 1080.00	 1134.16	-2488.16	  478.20
     77.3700	 1070.00	 1144.18	-2508.18	  478.00
     77.4700	 1135.00	 1132.22	-2431.23	  477.81
     77.5700	 1043.00	 1100.53	-2491.53	  477.61
     77.6700	 1018.00	 1054.52	-2470.52	  477.41
     77.7700	  955.00	 1000.33	-2479.33	  477.21
     77.8700	  983.00	  944.00	-2395.00	  477.01
     77.9700	  868.00	  889.66	-2455.66	  476.81
     78.0700	  798.00	  840.25	-2476.25	  476.61
     78.1700	  807.00	  797.51	-2424.51	  476.41
     78.2700	  745.00	  762.10	-2451.10	  476.20
     78.3700	  761.00	  733.90	-2406.90	  476.00
     78.4700	  731.00	  712.23	-2415.23	  475.80
     78.5700	  708.00	  696.08	-2422.08	  475.59
     78.6700	  698.00	  684.35	-2420.35	  475.39
     78.7700	  693.00	  676.00	-2417.00	  475.18
     78.8700	  696.00	  670.12	-2408.12	  474.98
     78.9700	  695.00	  666.01	-2405.01	  474.77
     79.0700	  672.00	  663.16	-2425.16	  474.57
     79.1700	  663.00	  661.18	-2432.18	  474.36
     79.2700	  641.00	  659.86	-2452.86	  474.15
     79.3700	  690.00	  659.03	-2403.03	  473.94
     79.4700	  695.00	  658.59	-2397.59	  473.74
     79.5700	  637.00	  658.60	-2455.60	  473.53
     79.6700	  667.00	  659.03	-2426.03	  473.32
     79.7700	  684.00	  659.91	-2409.91	  473.11
     79.8700	  702.00	  661.32	-2393.32	  472.90
     79.9700	  670.00	  663.40	-2427.40	  472.69
     80.0700	  652.00	  666.37	-2448.37	  472.48
     80.1700	  725.00	  670.55	-2379.55	  472.27
     80.2700	  705.00	  676.47	-2405.47	  472.06
     80.3700	  693.00	  684.90	-2425.90	  471.85
     80.4700	  696.00	  696.96	-2434.96	  471.63
     80.5700	  741.00	  714.11	-2407.11	  471.42
     80.6700	  708.00	  737.97	-2463.97	  471.21
     80.7700	  788.00	  771.21	-2417.21	  471.00
     80.8700	  849.00	  815.80	-2400.80	  470.78
     80.9700	  932.00	  873.71	-2375.71	  470.57
     81.0700	  971.00	  946.27	-2409.27	  470.35
     81.1700	 1073.00	 1033.59	-2394.59	  470.14
     81.2700	 1189.00	 1134.14	-2379.14	  469.93
     81.3700	 1293.00	 1244.20	-2385.20	  469.71
     81.4700	 1368.00	 1357.71	-2423.71	  469.50
     81.5700	 1479.00	 1466.41	-2421.41	  469.28
     81.6700	 1579.00	 1560.55	-2415.55	  469.07
     81.7700	 1613.00	 1630.73	-2451.73	  468.85
     81.8700	 1635.00	 1670.11	-2469.11	  468.63
     81.9700	 1668.00	 1675.90	-2441.90	  468.42
     82.0700	 1679.00	 1649.25	-2404.25	  468.20
     82.1700	 1610.00	 1594.34	-2418.34	  467.99
     82.2700	 1516.00	 1517.75	-2435.75	  467.77
     82.3700	 1353.00	 1427.44	-2508.44	  467.55
     82.4700	 1317.00	 1331.28	-2448.28	  467.33
     82.5700	 1248.00	 1235.79	-2421.79	  467.12
     82.6700	 1155.00	 1145.73	-2424.73	  466.90
     82.7700	 1043.00	 1064.25	-2455.25	  466.68
     82.8700	  947.00	  993.02	-2480.02	  466.47
     82.9700	  871.00	  932.40	-2495.40	  466.25
     83.0700	  903.00	  881.67	-2412.67	  466.03
     83.1700	  788.00	  839.47	-2485.47	  465.81
     83.2700	  785.00	  804.36	-2453.36	  465.59
     83.3700	  749.00	  775.14	-2460.15	  465.38
     83.4700	  709.00	  751.00	-2476.00	  465.16
     83.5700	  700.00	  731.39	-2465.39	  464.94
     83.6700	  690.00	  715.96	-2459.96	  464.72
     83.7700	  687.00	  704.46	-2451.46	  464.50
     83.8700	  697.00	  696.70	-2433.70	  464.29
     83.9700	  694.00	  692.49	-2432.49	  464.07
     84.0700	  685.00	  691.54	-2440.54	  463.85
     84.1700	  717.00	  693.49	-2410.49	  463.63
     84.2700	  694.00	  697.79	-2437.79	  463.41
     84.3700	  715.00	  703.78	-2422.78	  463.20
     84.4700	  695.00	  710.48	-2449.48	  462.98
     84.5700	  721.00	  717.26	-2430.26	  462.76
     84.6700	  651.00	  722.92	-2505.92	  462.54
     84.7700	  698.00	  726.43	-2462.43	  462.32
     84.8700	  689.00	  727.00	-2472.00	  462.11
     84.9700	  739.00	  724.21	-2419.21	  461.89
     85.0700	  698.00	  718.46	-2454.46	  461.67
     85.1700	  713.00	  710.37	-2431.37	  461.45
     85.2700	  676.00	  700.81	-2458.81	  461.24
     85.3700	  708.00	  690.67	-2416.67	  461.02
     85.4700	  684.00	  680.72	-2430.72	  460.80
     85.5700	  627.00	  671.59	-2478.59	  460.59
     85.6700	  622.00	  663.73	-2475.73	  460.37
     85.7700	  635.00	  657.45	-2456.45	  460.15
     85.8700	  663.00	  652.96	-2423.96	  459.94
     85.9700	  615.00	  650.33	-2469.33	  459.72
     86.0700	  652.00	  649.62	-2431.62	  459.50
     86.1700	  650.00	  650.81	-2434.81	  459.29
     86.2700	  647.00	  653.89	-2440.89	  459.07
     86.3700	  665.00	  658.80	-2427.80	  458.86
     86.4700	  676.00	  665.45	-2423.45	  458.64
     86.5700	  662.00	  673.69	-2445.69	  458.43
     86.6700	  691.00	  683.32	-2426.32	  458.21
     86.7700	  694.00	  694.03	-2434.03	  458.00
     86.8700	  740.00	  705.40	-2399.40	  457.78
     86.9700	  663.00	  716.93	-2487.93	  457.57
     87.0700	  701.00	  728.02	-2461.02	  457.36
     87.1700	  696.00	  738.08	-2476.08	  457.14
     87.2700	  679.00	  746.65	-2501.65	  456.93
     87.3700	  697.00	  753.59	-2490.59	  456.72
     87.4700	  729.00	  759.12	-2464.12	  456.51
     87.5700	  715.00	  763.77	-2482.77	  456.29
     87.6700	  762.00	  768.08	-2440.08	  456.08
     87.7700	  750.00	  772.56	-2456.56	  455.87
     87.8700	  766.00	  777.38	-2445.38	  455.66
     87.9700	  749.00	  782.45	-2467.45	  455.45
     88.0700	  750.00	  787.38	-2471.38	  455.24
     88.1700	  769.00	  791.45	-2456.45	  455.03
     88.2700	  782.00	  793.77	-2445.77	  454.82
     88.3700	  755.00	  793.44	-2472.44	  454.61
     88.4700	  826.00	  789.85	-2397.85	  454.41
     88.5700	  759.00	  782.87	-2457.87	  454.20
     88.6700	  744.00	  772.91	-2462.91	  453.99
     88.7700	  755.00	  760.76	-2439.76	  453.78
     88.8700	  698.00	  747.34	-2483.34	  453.58
     88.9700	  761.00	  733.57	-2406.57	  453.37
     89.0700	  685.00	  720.24	-2469.24	  453.17
     89.1700	  708.00	  707.60	-2433.60	  452.96
     89.2700	  744.00	  697.04	-2387.04	  452.76
     89.3700	  669.00	  688.47	-2453.47	  452.55
     89.4700	  726.00	  682.07	-2390.07	  452.35
     89.5700	  673.00	  677.83	-2438.83	  452.15
     89.6700	  666.00	  675.60	-2443.60	  451.95
     89.7700	  665.00	  675.10	-2444.10	  451.75
     89.8700	  705.00	  675.91	-2404.91	  451.54
     89.9700	  778.00	  677.54	-2333.54	  451.34
     90.0700	  801.00	  679.43	-2312.43	  451.15
     90.1700	  701.00	  681.01	-2414.01	  450.95
     90.2700	  746.00	  681.72	-2369.72	  450.75
     90.3700	  649.00	  681.16	-2466.16	  450.55
     90.4700	  724.00	  679.14	-2389.14	  450.35
     90.5700	  701.00	  675.71	-2408.71	  450.16
     90.6700	  752.00	  671.15	-2353.15	  449.96
     90.7700	  715.00	  665.81	-2384.81	  449.77
     90.8700	  665.00	  660.08	-2429.08	  449.57
     90.9700	  728.00	  654.30	-2360.30	  449.38
     91.0700	  668.00	  648.75	-2414.75	  449.19
     91.1700	  664.00	  643.66	-2413.66	  448.99
     91.2700	  622.00	  639.17	-2451.17	  448.80
     91.3700	  647.00	  635.36	-2422.36	  448.61
     91.4700	  657.00	  632.27	-2409.27	  448.42
     91.5700	  652.00	  629.88	-2411.88	  448.23
     91.6700	  624.00	  628.14	-2438.14	  448.04
     91.7700	  695.00	  627.02	-2366.02	  447.86
     91.8700	  647.00	  626.45	-2413.45	  447.67
     91.9700	  617.00	  626.40	-2443.40	  447.48
     92.0700	  633.00	  626.85	-2427.85	  447.30
     92.1700	  661.00	  627.83	-2400.82	  447.11
     92.2700	  653.00	  629.38	-2410.38	  446.93
     92.3700	  585.00	  631.61	-2480.61	  446.75
     92.4700	  624.00	  634.66	-2444.66	  446.57
     92.5700	  646.00	  638.69	-2426.69	  446.38
     92.6700	  625.00	  643.91	-2452.91	  446.20
     92.7700	  680.00	  650.54	-2404.54	  446.03
     92.8700	  605.00	  658.81	-2487.81	  445.85
     92.9700	  643.00	  668.91	-2459.91	  445.67
     93.0700	  660.00	  681.00	-2455.00	  445.49
     93.1700	  651.00	  695.17	-2478.17	  445.32
     93.2700	  714.00	  711.41	-2431.41	  445.14
     93.3700	  760.00	  729.59	-2403.59	  444.97
     93.4700	  725.00	  749.45	-2458.45	  444.80
     93.5700	  733.00	  770.59	-2471.59	  444.63
     93.6700	  784.00	  792.45	-2442.45	  444.45
     93.7700	  756.00	  814.32	-2492.32	  444.28
     93.8700	  824.00	  835.42	-2445.42	  444.12
     93.9700	  844.00	  854.94	-2444.94	  443.95
     94.0700	  852.00	  872.30	-2454.30	  443.78
     94.1700	  812.00	  887.30	-2509.30	  443.62
     94.2700	  897.00	  900.19	-2437.19	  443.45
     94.3700	  921.00	  911.65	-2424.65	  443.29
     94.4700	  950.00	  922.57	-2406.57	  443.12
     94.5700	  930.00	  933.77	-2437.77	  442.96
     94.6700	  893.00	  945.90	-2486.90	  442.80
     94.7700	  996.00	  959.04	-2397.04	  442.64
     94.8700	  961.00	  974.02	-2447.02	  442.49
     94.9700	 1017.00	  990.53	-2407.53	  442.33
     95.0700	 1004.00	 1008.53	-2438.53	  442.17
     95.1700	 1077.00	 1027.84	-2384.84	  442.02
     95.2700	 1014.00	 1048.03	-2468.03	  441.86
     95.3700	 1081.00	 1068.36	-2421.36	  441.71
     95.4700	 1046.00	 1087.61	-2475.61	  441.56
     95.5700	 1125.00	 1104.12	-2413.12	  441.41
     95.6700	 1056.00	 1115.97	-2493.97	  441.26
     95.7700	 1112.00	 1121.22	-2443.22	  441.11
     95.8700	 1089.00	 1118.31	-2463.31	  440.97
     95.9700	 1080.00	 1106.52	-2460.52	  440.82
     96.0700	 1062.00	 1086.17	-2458.17	  440.68
     96.1700	 1069.00	 1058.60	-2423.60	  440.53
     96.2700	  979.00	 1025.85	-2480.85	  440.39
     96.3700	  935.00	  990.28	-2489.28	  440.25
     96.4700	  989.00	  954.35	-2399.35	  440.11
     96.5700	  990.00	  920.34	-2364.34	  439.97
     96.6700	  922.00	  890.36	-2402.36	  439.84
     96.7700	  945.00	  866.20	-2355.20	  439.70
     96.8700	  877.00	  849.37	-2406.36	  439.57
     96.9700	  858.00	  841.05	-2417.05	  439.44
     97.0700	  867.00	  842.16	-2409.16	  439.30
     97.1700	  976.00	  853.37	-2311.37	  439.17
     97.2700	  926.00	  875.09	-2383.09	  439.04
     97.3700	  939.00	  907.49	-2402.49	  438.92
     97.4700	  978.00	  950.47	-2406.47	  438.79
     97.5700	 1041.00	 1003.64	-2396.64	  438.67
     97.6700	 1111.00	 1066.24	-2389.24	  438.54
     97.7700	 1173.00	 1137.04	-2398.04	  438.42
     97.8700	 1271.00	 1214.31	-2377.31	  438.30
     97.9700	 1312.00	 1295.74	-2417.74	  438.18
     98.0700	 1260.00	 1378.41	-2552.41	  438.06
     98.1700	 1451.00	 1458.81	-2441.81	  437.95
     98.2700	 1500.00	 1532.83	-2466.83	  437.83
     98.3700	 1539.00	 1596.00	-2491.00	  437.72
     98.4700	 1585.00	 1643.94	-2492.94	  437.61
     98.5700	 1645.00	 1672.97	-2461.97	  437.49
     98.6700	 1621.00	 1680.87	-2493.87	  437.39
     98.7700	 1557.00	 1667.39	-2544.39	  437.28
     98.8700	 1604.00	 1634.28	-2464.28	  437.17
     98.9700	 1521.00	 1584.85	-2497.85	  437.07
     99.0700	 1466.00	 1523.24	-2491.24	  436.96
     99.1700	 1434.00	 1453.82	-2453.82	  436.86
     99.2700	 1338.00	 1380.83	-2476.83	  436.76
     99.3700	 1302.00	 1308.09	-2440.09	  436.66
     99.4700	 1232.00	 1238.95	-2440.95	  436.57
     99.5700	 1232.00	 1176.19	-2378.19	  436.47
     99.6700	 1058.00	 1122.09	-2498.09	  436.38
     99.7700	 1084.00	 1078.51	-2428.51	  436.28
     99.8700	 1085.00	 1046.86	-2395.86	  436.19
     99.9700	 1067.00	 1028.23	-2395.23	  436.10
    100.0700	 1122.00	 1023.33	-2335.33	  436.02
    100.1700	 1096.00	 1032.60	-2370.60	  435.93
    100.2700	 1120.00	 1056.17	-2370.17	  435.84
    100.3700	 1153.00	 1093.84	-2374.84	  435.76
    100.4700	 1213.00	 1145.11	-2366.11	  435.68
    100.5700	 1249.00	 1209.11	-2394.11	  435.60
    100.6700	 1290.00	 1284.60	-2428.60	  435.52
    100.7700	 1373.00	 1369.88	-2430.88	  435.45
    100.8700	 1473.00	 1462.81	-2423.81	  435.37
    100.9700	 1519.00	 1560.72	-2475.72	  435.30
    101.0700	 1684.00	 1660.49	-2410.49	  435.23
    101.1700	 1779.00	 1758.62	-2413.62	  435.16
    101.2700	 1836.00	 1851.32	-2449.32	  435.09
    101.3700	 1978.00	 1935.32	-2391.32	  435.02
    101.4700	 1938.00	 2007.63	-2503.63	  434.96
    101.5700	 1995.00	 2066.28	-2505.28	  434.90
    101.6700	 2147.00	 2110.22	-2397.22	  434.83
    101.7700	 2073.00	 2139.04	-2500.04	  434.78
    101.8700	 2160.00	 2152.58	-2426.58	  434.72
    101.9700	 2189.00	 2150.76	-2395.76	  434.66
    102.0700	 2217.00	 2133.54	-2350.54	  434.61
    102.1700	 2147.00	 2101.28	-2388.28	  434.56
    102.2700	 2167.00	 2055.12	-2322.12	  434.50
    102.3700	 2082.00	 1997.19	-2349.19	  434.46
    102.4700	 1983.00	 1930.56	-2381.56	  434.41
    102.5700	 1867.00	 1858.85	-2425.85	  434.36
    102.6700	 1882.00	 1785.71	-2337.71	  434.32
    102.7700	 1823.00	 1714.41	-2325.41	  434.28
    102.8700	 1718.00	 1647.54	-2363.54	  434.24
    102.9700	 1681.00	 1586.91	-2339.91	  434.20
    103.0700	 1553.00	 1533.53	-2414.53	  434.17
    103.1700	 1522.00	 1487.64	-2399.64	  434.13
    103.2700	 1497.00	 1448.83	-2385.83	  434.10
    103.3700	 1379.00	 1416.07	-2471.07	  434.07
    103.4700	 1384.00	 1387.85	-2437.85	  434.04
    103.5700	 1370.00	 1362.30	-2426.30	  434.01
    103.6700	 1299.00	 1337.37	-2472.37	  433.99
    103.7700	 1261.00	 1311.11	-2484.11	  433.96
    103.8700	 1245.00	 1281.98	-2470.98	  433.94
    103.9700	 1254.00	 1249.07	-2429.07	  433.92
    104.0700	 1207.00	 1212.17	-2439.17	  433.91
    104.1700	 1175.00	 1171.70	-2430.70	  433.89
    104.2700	 1085.00	 1128.52	-2477.52	  433.88
    104.3700	 1084.00	 1083.72	-2433.72	  433.87
    104.4700	 1065.00	 1038.42	-2407.42	  433.86
    104.5700	  968.00	  993.66	-2459.66	  433.85
    104.6700	  938.00	  950.37	-2446.37	  433.84
    104.7700	  960.00	  909.32	-2383.32	  433.84
    104.8700	  929.00	  871.12	-2376.12	  433.84
    104.9700	  904.00	  836.21	-2366.21	  433.84
    105.0700	  849.00	  804.79	-2389.79	  433.84
    105.1700	  806.00	  777.11	-2405.11	  433.85
    105.2700	  792.00	  753.09	-2395.09	  433.85
    105.3700	  741.00	  732.58	-2425.58	  433.86
    105.4700	  744.00	  715.36	-2405.36	  433.87
    105.5700	  654.00	  701.15	-2481.15	  433.88
    105.6700	  669.00	  689.62	-2454.62	  433.90
    105.7700	  683.00	  680.45	-2431.45	  433.91
    105.8700	  691.00	  673.27	-2416.27	  433.93
    105.9700	  650.00	  667.93	-2451.93	  433.95
    106.0700	  722.00	  664.11	-2376.11	  433.98
    106.1700	  647.00	  661.63	-2448.63	  434.00
    106.2700	  688.00	  660.33	-2406.33	  434.03
    106.3700	  668.00	  660.10	-2426.10	  434.06
    106.4700	  708.00	  660.90	-2386.90	  434.09
    106.5700	  630.00	  662.70	-2466.70	  434.12
    106.6700	  651.00	  665.50	-2448.50	  434.16
    106.7700	  717.00	  669.34	-2386.34	  434.19
    106.8700	  651.00	  674.27	-2457.27	  434.23
    106.9700	  673.00	  680.34	-2441.34	  434.27
    107.0700	  677.00	  687.61	-2444.61	  434.32
    107.1700	  732.00	  696.10	-2398.10	  434.36
    107.2700	  663.00	  705.84	-2476.84	  434.41
    107.3700	  698.00	  716.78	-2452.78	  434.46
    107.4700	  646.00	  728.86	-2516.86	  434.51
    107.5700	  737.00	  741.93	-2438.93	  434.57
    107.6700	  735.00	  755.79	-2454.79	  434.62
    107.7700	  728.00	  770.19	-2476.19	  434.68
    107.8700	  772.00	  784.78	-2446.78	  434.74
    107.9700	  733.00	  799.18	-2500.18	  434.81
    108.0700	  752.00	  812.94	-2494.94	  434.87
    108.1700	  768.00	  825.59	-2491.59	  434.94
    108.2700	  788.00	  836.66	-2482.66	  435.01
    108.3700	  809.00	  845.73	-2470.73	  435.08
    108.4700	  843.00	  852.49	-2443.49	  435.15
    108.5700	  812.00	  856.79	-2478.79	  435.23
    108.6700	  827.00	  858.71	-2465.71	  435.31
    108.7700	  827.00	  858.50	-2465.50	  435.39
    108.8700	  787.00	  856.57	-2503.57	  435.47
    108.9700	  807.00	  853.48	-2480.48	  435.56
    109.0700	  828.00	  849.76	-2455.76	  435.64
    109.1700	  850.00	  845.89	-2429.89	  435.73
    109.2700	  781.00	  842.30	-2495.30	  435.83
    109.3700	  791.00	  839.35	-2482.35	  435.92
    109.4700	  796.00	  837.24	-2475.24	  436.02
    109.5700	  744.00	  836.10	-2526.10	  436.11
    109.6700	  800.00	  835.91	-2469.91	  436.22
    109.7700	  787.00	  836.54	-2483.54	  436.32
    109.8700	  842.00	  837.76	-2429.76	  436.42
    109.9700	  793.00	  839.22	-2480.22	  436.53
    110.0700	  819.00	  840.53	-2455.53	  436.64
    110.1700	  790.00	  841.21	-2485.21	  436.75
    110.2700	  815.00	  840.83	-2459.83	  436.87
    110.3700	  798.00	  839.00	-2475.00	  436.99
    110.4700	  802.00	  835.47	-2467.48	  437.10
    110.5700	  799.00	  830.13	-2465.13	  437.23
    110.6700	  767.00	  823.02	-2490.02	  437.35
    110.7700	  744.00	  814.32	-2504.32	  437.48
    110.8700	  825.00	  804.32	-2413.32	  437.60
    110.9700	  762.00	  793.35	-2465.35	  437.73
    111.0700	  800.00	  781.77	-2415.77	  437.87
    111.1700	  742.00	  769.91	-2461.91	  438.00
    111.2700	  758.00	  758.08	-2434.08	  438.14
    111.3700	  749.00	  746.56	-2431.56	  438.28
    111.4700	  746.00	  735.56	-2423.56	  438.42
    111.5700	  629.00	  725.27	-2530.27	  438.57
    111.6700	  675.00	  715.86	-2474.86	  438.72
    111.7700	  710.00	  707.40	-2431.40	  438.87
    111.8700	  733.00	  699.98	-2400.98	  439.02
    111.9700	  703.00	  693.61	-2424.61	  439.17
    112.0700	  685.00	  688.30	-2437.30	  439.33
    112.1700	  659.00	  684.01	-2459.01	  439.49
    112.2700	  661.00	  680.69	-2453.69	  439.65
    112.3700	  667.00	  678.26	-2445.26	  439.81
    112.4700	  659.00	  676.64	-2451.64	  439.98
    112.5700	  672.00	  675.74	-2437.74	  440.15
    112.6700	  625.00	  675.45	-2484.45	  440.32
    112.7700	  673.00	  675.68	-2436.68	  440.49
    112.8700	  605.00	  676.34	-2505.34	  440.67
    112.9700	  650.00	  677.35	-2461.35	  440.84
    113.0700	  669.00	  678.61	-2443.61	  441.03
    113.1700	  662.00	  680.07	-2452.07	  441.21
    113.2700	  628.00	  681.68	-2487.68	  441.39
    113.3700	  633.00	  683.41	-2484.41	  441.58
    113.4700	  691.00	  685.25	-2428.25	  441.77
    113.5700	  626.00	  687.19	-2495.19	  441.96
    113.6700	  671.00	  689.26	-2452.26	  442.16
    113.7700	  658.00	  691.50	-2467.50	  442.36
    113.8700	  642.00	  693.96	-2485.96	  442.56
    113.9700	  696.00	  696.70	-2434.70	  442.76
    114.0700	  639.00	  699.78	-2494.78	  442.96
    114.1700	  689.00	  703.32	-2448.32	  443.17
    114.2700	  701.00	  707.43	-2440.43	  443.38
    114.3700	  718.00	  712.25	-2428.25	  443.59
    114.4700	  719.00	  717.98	-2432.98	  443.81
    114.5700	  660.00	  724.84	-2498.84	  444.02
    114.6700	  699.00	  733.16	-2468.16	  444.24
    114.7700	  780.00	  743.34	-2397.34	  444.46
    114.8700	  722.00	  755.88	-2467.88	  444.69
    114.9700	  809.00	  771.44	-2396.44	  444.91
    115.0700	  829.00	  790.83	-2395.83	  445.14
    115.1700	  903.00	  815.05	-2346.05	  445.38
    115.2700	  897.00	  845.32	-2382.32	  445.61
    115.3700	  968.00	  883.12	-2349.12	  445.85
    115.4700	  979.00	  930.17	-2385.17	  446.08
    115.5700	 1102.00	  988.46	-2320.46	  446.33
    115.6700	 1183.00	 1060.24	-2311.24	  446.57
    115.7700	 1281.00	 1148.01	-2301.01	  446.82
    115.8700	 1460.00	 1254.47	-2228.47	  447.06
    115.9700	 1610.00	 1382.41	-2206.41	  447.32
    116.0700	 1804.00	 1534.65	-2164.65	  447.57
    116.1700	 1968.00	 1713.88	-2179.88	  447.83
    116.2700	 2133.00	 1922.57	-2223.57	  448.08
    116.3700	 2513.00	 2162.77	-2083.77	  448.34
    116.4700	 2817.00	 2435.83	-2052.83	  448.61
    116.5700	 2996.00	 2742.32	-2180.32	  448.87
    116.6700	 3293.00	 3081.73	-2222.73	  449.14
    116.7700	 3712.00	 3452.47	-2174.47	  449.41
    116.8700	 3925.00	 3851.64	-2360.64	  449.69
    116.9700	 4397.00	 4274.79	-2311.79	  449.96
    117.0700	 4704.00	 4716.09	-2446.09	  450.24
    117.1700	 5104.00	 5168.16	-2498.16	  450.52
    117.2700	 5529.00	 5622.38	-2527.38	  450.80
    117.3700	 5987.00	 6068.89	-2515.89	  451.09
    117.4700	 6234.00	 6496.60	-2696.60	  451.38
    117.5700	 6772.00	 6893.84	-2555.84	  451.67
    117.6700	 6992.00	 7248.42	-2690.42	  451.96
    117.7700	 7241.00	 7548.55	-2741.55	  452.26
    117.8700	 7389.00	 7783.27	-2828.27	  452.56
    117.9700	 7762.00	 7943.36	-2615.36	  452.86
    118.0700	 7648.00	 8022.31	-2808.31	  453.16
    118.1700	 7680.00	 8017.01	-2771.01	  453.46
    118.2700	 7656.00	 7928.13	-2706.13	  453.77
    118.3700	 7601.00	 7759.98	-2592.98	  454.08
    118.4700	 7184.00	 7520.07	-2770.07	  454.40
    118.5700	 6982.00	 7218.21	-2670.21	  454.71
    118.6700	 6710.00	 6865.77	-2589.77	  455.03
    118.7700	 6198.00	 6474.61	-2710.61	  455.35
    118.8700	 5957.00	 6056.53	-2533.53	  455.67
    118.9700	 5599.00	 5622.93	-2457.93	  456.00
    119.0700	 5171.00	 5184.29	-2447.29	  456.32
    119.1700	 4834.00	 4749.95	-2349.95	  456.65
    119.2700	 4576.00	 4327.86	-2185.86	  456.99
    119.3700	 4111.00	 3924.49	-2247.49	  457.32
    119.4700	 3859.00	 3545.02	-2120.02	  457.66
    119.5700	 3510.00	 3193.08	-2117.08	  458.00
    119.6700	 3270.00	 2871.05	-2035.05	  458.34
    119.7700	 2913.00	 2579.92	-2100.92	  458.68
    119.8700	 2534.00	 2319.69	-2219.69	  459.03
    119.9700	 2427.00	 2089.56	-2096.56	  459.38
    120.0700	 2148.00	 1888.01	-2174.01	  459.73
    120.1700	 1925.00	 1713.08	-2222.08	  460.09
    120.2700	 1789.00	 1562.41	-2207.41	  460.44
    120.3700	 1713.00	 1433.53	-2154.53	  460.80
    120.4700	 1534.00	 1323.93	-2223.93	  461.17
    120.5700	 1430.00	 1231.16	-2235.16	  461.53
    120.6700	 1308.00	 1152.91	-2278.91	  461.90
    120.7700	 1259.00	 1087.03	-2262.03	  462.27
    120.8700	 1192.00	 1031.59	-2273.59	  462.64
    120.9700	 1113.00	  984.94	-2305.94	  463.01
    121.0700	 1077.00	  945.62	-2302.62	  463.39
    121.1700	  975.00	  912.42	-2371.42	  463.76
    121.2700	  863.00	  884.33	-2455.33	  464.15
    121.3700	  920.00	  860.51	-2374.51	  464.53
    121.4700	  905.00	  840.29	-2369.29	  464.92
    121.5700	  822.00	  823.15	-2435.15	  465.30
    121.6700	  815.00	  808.65	-2427.65	  465.69
    121.7700	  853.00	  796.44	-2377.44	  466.09
    121.8700	  742.00	  786.27	-2478.27	  466.48
    121.9700	  771.00	  777.92	-2440.92	  466.88
    122.0700	  742.00	  771.23	-2463.23	  467.28
    122.1700	  747.00	  766.04	-2453.04	  467.68
    122.2700	  744.00	  762.26	-2452.26	  468.09
    122.3700	  741.00	  759.80	-2452.80	  468.49
    122.4700	  752.00	  758.57	-2440.57	  468.90
    122.5700	  755.00	  758.51	-2437.51	  469.32
    122.6700	  738.00	  759.56	-2455.56	  469.73
    122.7700	  702.00	  761.66	-2493.66	  470.15
    122.8700	  766.00	  764.76	-2432.76	  470.57
    122.9700	  751.00	  768.81	-2451.81	  470.99
    123.0700	  708.00	  773.73	-2499.73	  471.41
    123.1700	  767.00	  779.47	-2446.47	  471.84
    123.2700	  724.00	  785.94	-2495.94	  472.27
    123.3700	  761.00	  793.07	-2466.07	  472.70
    123.4700	  787.00	  800.77	-2447.77	  473.13
    123.5700	  774.00	  808.93	-2468.93	  473.56
    123.6700	  767.00	  817.44	-2484.44	  474.00
    123.7700	  737.00	  826.19	-2523.19	  474.44
    123.8700	  798.00	  835.05	-2471.05	  474.88
    123.9700	  741.00	  843.88	-2536.88	  475.33
    124.0700	  762.00	  852.56	-2524.56	  475.78
    124.1700	  861.00	  860.95	-2433.95	  476.22
    124.2700	  765.00	  868.93	-2537.93	  476.68
    124.3700	  809.00	  876.40	-2501.40	  477.13
    124.4700	  867.00	  883.28	-2450.28	  477.58
    124.5700	  888.00	  889.51	-2435.51	  478.04
    124.6700	  788.00	  895.08	-2541.08	  478.50
    124.7700	  875.00	  899.98	-2458.98	  478.97
    124.8700	  838.00	  904.29	-2500.29	  479.43
    124.9700	  908.00	  624.51	-2150.51	  479.90
    125.0700	  862.00	  624.98	-2434.00	  480.37
    125.1700	  821.00	  625.45	-2434.00	  480.84
    125.2700	  862.00	  625.93	-2434.00	  481.31
    125.3700	  870.00	  626.40	-2434.00	  481.79
    125.4700	  843.00	  626.88	-2434.00	  482.27
    125.5700	  881.00	  627.36	-2434.00	  482.75
    125.6700	  857.00	  627.84	-2434.00	  483.23
    125.7700	  824.00	  628.33	-2434.00	  483.71
    125.8700	  853.00	  628.81	-2434.00	  484.20
    125.9700	  860.00	  629.30	-2434.00	  484.69
    126.0700	  856.00	  629.79	-2434.00	  485.18
    126.1700	  862.00	  630.29	-2434.00	  485.67
    126.2700	  836.00	  630.78	-2434.00	  486.17
    126.3700	  855.00	  631.28	-2434.00	  486.67
    126.4700	  833.00	  631.78	-2434.00	  487.17
    126.5700	  865.00	  632.28	-2434.00	  487.67
    126.6700	  851.00	  632.78	-2434.00	  488.17
    126.7700	  785.00	  633.29	-2434.00	  488.68
    126.8700	  787.00	  633.80	-2434.00	  489.19
    126.9700	  825.00	  634.31	-2434.00	  489.70
    127.0700	  781.00	  634.82	-2434.00	  490.21
    127.1700	  741.00	  635.33	-2434.00	  490.72
    127.2700	  732.00	  635.85	-2434.00	  491.24
    127.3700	  756.00	  636.37	-2434.00	  491.76
    127.4700	  724.00	  636.89	-2434.00	  492.28
    127.5700	  690.00	  637.41	-2434.00	  492.80
    127.6700	  725.00	  637.94	-2434.00	  493.32
    127.7700	  735.00	  638.46	-2434.00	  493.85
    127.8700	  748.00	  638.99	-2434.00	  494.38
    127.9700	  680.00	  639.52	-2434.00	  494.91
    128.0700	  722.00	  640.05	-2434.00	  495.44
    128.1700	  697.00	  640.59	-2434.00	  495.98
    128.2700	  694.00	  641.13	-2434.00	  496.51
    128.3700	  708.00	  641.66	-2434.00	  497.05
    128.4700	  679.00	  642.20	-2434.00	  497.59
    128.5700	    0.00	  642.75	-2434.00	  498.13
    128.6700	    0.00	  643.29	-2434.00	  498.68
     12.4592	        	        	        	        	       0	(  0  0  2)	  0  1
     12.4592	        	        	        	        	    -608	(  0  0  2)	  0  1
     25.1569	        	        	        	        	       0	(  0  0  4)	  0  1
     25.1569	        	        	        	        	    -608	(  0  0  4)	  0  1
     28.5913	        	        	        	        	       0	(  1  0  0)	  0  1
     28.5913	        	        	        	        	    -608	(  1  0  0)	  0  1
     29.2960	        	        	        	        	       0	(  1  0  1)	  0  1
     29.2960	        	        	        	        	    -608	(  1  0  1)	  0  1
     31.3235	        	        	        	        	       0	(  1  0  2)	  0  1
     31.3235	        	        	        	        	    -608	(  1  0  2)	  0  1
     34.4646	        	        	        	        	       0	(  1  0  3)	  0  1
     34.4646	        	        	        	        	    -608	(  1  0  3)	  0  1
     38.1794	        	        	        	        	       0	(  0  0  6)	  0  1
     38.1794	        	        	        	        	    -608	(  0  0  6)	  0  1
     38.4837	        	        	        	        	       0	(  1  0  4)	  0  1
     38.4837	        	        	        	        	    -608	(  1  0  4)	  0  1
     43.1833	        	        	        	        	       0	(  1  0  5)	  0  1
     43.1833	        	        	        	        	    -608	(  1  0  5)	  0  1
     48.4236	        	        	        	        	       0	(  1  0  6)	  0  1
     48.4236	        	        	        	        	    -608	(  1  0  6)	  0  1
     50.7145	        	        	        	        	       0	(  1  1  0)	  0  1
     50.7145	        	        	        	        	    -608	(  1  1  0)	  0  1
     51.7399	        	        	        	        	       0	(  0  0  8)	  0  1
     51.7399	        	        	        	        	    -608	(  0  0  8)	  0  1
     52.4581	        	        	        	        	       0	(  1  1  2)	  0  1
     52.4581	        	        	        	        	    -608	(  1  1  2)	  0  1
     54.1171	        	        	        	        	       0	(  1  0  7)	  0  1
     54.1171	        	        	        	        	    -608	(  1  0  7)	  0  1
     57.4657	        	        	        	        	       0	(  1  1  4)	  0  1
     57.4657	        	        	        	        	    -608	(  1  1  4)	  0  1
     59.2924	        	        	        	        	       0	(  2  0  0)	  0  1
     59.2924	        	        	        	        	    -608	(  2  0  0)	  0  1
     59.6889	        	        	        	        	       0	(  2  0  1)	  0  1
     59.6889	        	        	        	        	    -608	(  2  0  1)	  0  1
     60.2181	        	        	        	        	       0	(  1  0  8)	  0  1
     60.2181	        	        	        	        	    -608	(  1  0  8)	  0  1
     60.8690	        	        	        	        	       0	(  2  0  2)	  0  1
     60.8690	        	        	        	        	    -608	(  2  0  2)	  0  1
     62.8068	        	        	        	        	       0	(  2  0  3)	  0  1
     62.8068	        	        	        	        	    -608	(  2  0  3)	  0  1
     65.2571	        	        	        	        	       0	(  1  1  6)	  0  1
     65.2571	        	        	        	        	    -608	(  1  1  6)	  0  1
     65.4650	        	        	        	        	       0	(  2  0  4)	  0  1
     65.4650	        	        	        	        	    -608	(  2  0  4)	  0  1
     66.1348	        	        	        	        	       0	(  0  0 10)	  0  1
     66.1348	        	        	        	        	    -608	(  0  0 10)	  0  1
     66.7138	        	        	        	        	       0	(  1  0  9)	  0  1
     66.7138	        	        	        	        	    -608	(  1  0  9)	  0  1
     68.8032	        	        	        	        	       0	(  2  0  5)	  0  1
     68.8032	        	        	        	        	    -608	(  2  0  5)	  0  1
     72.7847	        	        	        	        	       0	(  2  0  6)	  0  1
     72.7847	        	        	        	        	    -608	(  2  0  6)	  0  1
     73.6205	        	        	        	        	       0	(  1  0 10)	  0  1
     73.6205	        	        	        	        	    -608	(  1  0 10)	  0  1
     75.4313	        	        	        	        	       0	(  1  1  8)	  0  1
     75.4313	        	        	        	        	    -608	(  1  1  8)	  0  1
     77.3842	        	        	        	        	       0	(  2  0  7)	  0  1
     77.3842	        	        	        	        	    -608	(  2  0  7)	  0  1
     80.9835	        	        	        	        	       0	(  1  0 11)	  0  1
     80.9835	        	        	        	        	    -608	(  1  0 11)	  0  1
     81.7850	        	        	        	        	       0	(  2  1  0)	  0  1
     81.7850	        	        	        	        	    -608	(  2  1  0)	  0  1
     81.8295	        	        	        	        	       0	(  0  0 12)	  0  1
     81.8295	        	        	        	        	    -608	(  0  0 12)	  0  1
     82.1303	        	        	        	        	       0	(  2  1  1)	  0  1
     82.1303	        	        	        	        	    -608	(  2  1  1)	  0  1
     82.5928	        	        	        	        	       0	(  2  0  8)	  0  1
     82.5928	        	        	        	        	    -608	(  2  0  8)	  0  1
     83.1644	        	        	        	        	       0	(  2  1  2)	  0  1
     83.1644	        	        	        	        	    -608	(  2  1  2)	  0  1
     84.8831	        	        	        	        	       0	(  2  1  3)	  0  1
     84.8831	        	        	        	        	    -608	(  2  1  3)	  0  1
     87.2821	        	        	        	        	       0	(  2  1  4)	  0  1
     87.2821	        	        	        	        	    -608	(  2  1  4)	  0  1
     87.8939	        	        	        	        	       0	(  1  1 10)	  0  1
     87.8939	        	        	        	        	    -608	(  1  1 10)	  0  1
     88.4252	        	        	        	        	       0	(  2  0  9)	  0  1
     88.4252	        	        	        	        	    -608	(  2  0  9)	  0  1
     88.8838	        	        	        	        	       0	(  1  0 12)	  0  1
     88.8838	        	        	        	        	    -608	(  1  0 12)	  0  1
     90.3603	        	        	        	        	       0	(  2  1  5)	  0  1
     90.3603	        	        	        	        	    -608	(  2  1  5)	  0  1
     94.1253	        	        	        	        	       0	(  2  1  6)	  0  1
     94.1253	        	        	        	        	    -608	(  2  1  6)	  0  1
     94.9283	        	        	        	        	       0	(  2  0 10)	  0  1
     94.9283	        	        	        	        	    -608	(  2  0 10)	  0  1
     95.8781	        	        	        	        	       0	(  3  0  0)	  0  1
     95.8781	        	        	        	        	    -608	(  3  0  0)	  0  1
     96.2220	        	        	        	        	       0	(  3  0  1)	  0  1
     96.2220	        	        	        	        	    -608	(  3  0  1)	  0  1
     97.2551	        	        	        	        	       0	(  3  0  2)	  0  1
     97.2551	        	        	        	        	    -608	(  3  0  2)	  0  1
     97.4536	        	        	        	        	       0	(  1  0 13)	  0  1
     97.4536	        	        	        	        	    -608	(  1  0 13)	  0  1
     98.5997	        	        	        	        	       0	(  2  1  7)	  0  1
     98.5997	        	        	        	        	    -608	(  2  1  7)	  0  1
     98.9825	        	        	        	        	       0	(  3  0  3)	  0  1
     98.9825	        	        	        	        	    -608	(  3  0  3)	  0  1
     99.6835	        	        	        	        	       0	(  0  0 14)	  0  1
     99.6835	        	        	        	        	    -608	(  0  0 14)	  0  1
    101.4152	        	        	        	        	       0	(  3  0  4)	  0  1
    101.4152	        	        	        	        	    -608	(  3  0  4)	  0  1
    102.1961	        	        	        	        	       0	(  2  0 11)	  0  1
    102.1961	        	        	        	        	    -608	(  2  0 11)	  0  1
    103.0538	        	        	        	        	       0	(  1  1 12)	  0  1
    103.0538	        	        	        	        	    -608	(  1  1 12)	  0  1
    103.8317	        	        	        	        	       0	(  2  1  8)	  0  1
    103.8317	        	        	        	        	    -608	(  2  1  8)	  0  1
    104.5749	        	        	        	        	       0	(  3  0  5)	  0  1
    104.5749	        	        	        	        	    -608	(  3  0  5)	  0  1
    106.9120	        	        	        	        	       0	(  1  0 14)	  0  1
    106.9120	        	        	        	        	    -608	(  1  0 14)	  0  1
    108.5008	        	        	        	        	       0	(  3  0  6)	  0  1
    108.5008	        	        	        	        	    -608	(  3  0  6)	  0  1
    109.9115	        	        	        	        	       0	(  2  1  9)	  0  1
    109.9115	        	        	        	        	    -608	(  2  1  9)	  0  1
    110.4001	        	        	        	        	       0	(  2  0 12)	  0  1
    110.4001	        	        	        	        	    -608	(  2  0 12)	  0  1
    113.2623	        	        	        	        	       0	(  3  0  7)	  0  1
    113.2623	        	        	        	        	    -608	(  3  0  7)	  0  1
    117.0023	        	        	        	        	       0	(  2  1 10)	  0  1
    117.0023	        	        	        	        	    -608	(  2  1 10)	  0  1
    117.6501	        	        	        	        	       0	(  1  0 15)	  0  1
    117.6501	        	        	        	        	    -608	(  1  0 15)	  0  1
    118.0694	        	        	        	        	       0	(  2  2  0)	  0  1
    118.0694	        	        	        	        	    -608	(  2  2  0)	  0  1
    118.9812	        	        	        	        	       0	(  3  0  8)	  0  1
    118.9812	        	        	        	        	    -608	(  3  0  8)	  0  1
    119.6323	        	        	        	        	       0	(  2  2  2)	  0  1
    119.6323	        	        	        	        	    -608	(  2  2  2)	  0  1
    119.8592	        	        	        	        	       0	(  2  0 13)	  0  1
    119.8592	        	        	        	        	    -608	(  2  0 13)	  0  1
    121.7671	        	        	        	        	       0	(  0  0 16)	  0  1
    121.7671	        	        	        	        	    -608	(  0  0 16)	  0  1
    122.4374	        	        	        	        	       0	(  1  1 14)	  0  1
    122.4374	        	        	        	        	    -608	(  1  1 14)	  0  1
    124.4794	        	        	        	        	       0	(  2  2  4)	  0  1
    124.4794	        	        	        	        	    -608	(  2  2  4)	  0  1
    125.4126	        	        	        	        	       0	(  2  1 11)	  0  1
    125.4126	        	        	        	        	    -608	(  2  1 11)	  0  1
    125.8785	        	        	        	        	       0	(  3  0  9)	  0  1
    125.8785	        	        	        	        	    -608	(  3  0  9)	  0  1
    126.3922	        	        	        	        	       0	(  3  1  0)	  0  1
    126.3922	        	        	        	        	    -608	(  3  1  0)	  0  1
    126.8186	        	        	        	        	       0	(  3  1  1)	  0  1
    126.8186	        	        	        	        	    -608	(  3  1  1)	  0  1
    128.1125	        	        	        	        	       0	(  3  1  2)	  0  1
    128.1125	        	        	        	        	    -608	(  3  1  2)	  0  1
    130.3220	        	        	        	        	       0	(  3  1  3)	  0  1
    130.3220	        	        	        	        	    -608	(  3  1  3)	  0  1
    130.4854	        	        	        	        	       0	(  1  0 16)	  0  1
    130.4854	        	        	        	        	    -608	(  1  0 16)	  0  1
    131.2365	        	        	        	        	       0	(  2  0 14)	  0  1
    131.2365	        	        	        	        	    -608	(  2  0 14)	  0  1
    133.2833	        	        	        	        	       0	(  2  2  6)	  0  1
    133.2833	        	        	        	        	    -608	(  2  2  6)	  0  1
    133.5440	        	        	        	        	       0	(  3  1  4)	  0  1
    133.5440	        	        	        	        	    -608	(  3  1  4)	  0  1
    134.3946	        	        	        	        	       0	(  3  0 10)	  0  1
    134.3946	        	        	        	        	    -608	(  3  0 10)	  0  1
    135.7984	        	        	        	        	       0	(  2  1 12)	  0  1
    135.7984	        	        	        	        	    -608	(  2  1 12)	  0  1
    137.9621	        	        	        	        	       0	(  3  1  5)	  0  1
    137.9621	        	        	        	        	    -608	(  3  1  5)	  0  1
    143.9464	        	        	        	        	       0	(  3  1  6)	  0  1
    143.9464	        	        	        	        	    -608	(  3  1  6)	  0  1
    145.6026	        	        	        	        	       0	(  3  0 11)	  0  1
    145.6026	        	        	        	        	    -608	(  3  0 11)	  0  1
    146.3589	        	        	        	        	       0	(  2  0 15)	  0  1
    146.3589	        	        	        	        	    -608	(  2  0 15)	  0  1
    147.8357	        	        	        	        	       0	(  1  0 17)	  0  1
    147.8357	        	        	        	        	    -608	(  1  0 17)	  0  1
    148.5402	        	        	        	        	       0	(  2  2  8)	  0  1
    148.5402	        	        	        	        	    -608	(  2  2  8)	  0  1
    150.0402	        	        	        	        	       0	(  2  1 13)	  0  1
    150.0402	        	        	        	        	    -608	(  2  1 13)	  0  1
    152.4035	        	        	        	        	       0	(  3  1  7)	  0  1
    152.4035	        	        	        	        	    -608	(  3  1  7)	  0  1
    153.5120	        	        	        	        	       0	(  1  1 16)	  0  1
    153.5120	        	        	        	        	    -608	(  1  1 16)	  0  1
    158.9067	        	        	        	        	       0	(  0  0 18)	  0  1
    158.9067	        	        	        	        	    -608	(  0  0 18)	  0  1
    164.1668	        	        	        	        	       0	(  4  0  0)	  0  1
    164.1668	        	        	        	        	    -608	(  4  0  0)	  0  1
    164.3297	        	        	        	        	       0	(  3  0 12)	  0  1
    164.3297	        	        	        	        	    -608	(  3  0 12)	  0  1
    165.4800	        	        	        	        	       0	(  4  0  1)	  0  1
    165.4800	        	        	        	        	    -608	(  4  0  1)	  0  1
    167.4513	        	        	        	        	       0	(  3  1  8)	  0  1
    167.4513	        	        	        	        	    -608	(  3  1  8)	  0  1
