MSG Master    CELL:    5.91943   5.91943  23.27432   90.0000   90.0000  120.0000   SPGR: P 63/m m c             TEMP:   1074.85
  1   1280     2.52000     0.00000    -0.12459     0.00000     0.00000    0
    99     0     2
       0.00000      10.00000
     125.00000     130.00000
 2Theta	Yobs	Ycal	Yobs-Ycal	Backg	Posr	(hkl)	K
      0.7700	    0.00	  543.56	-1735.15	  425.11
      0.8700	    0.00	  544.36	-1735.15	  425.91
      0.9700	   44.00	  545.15	-1735.15	  426.69
      1.0700	   39.00	  545.92	-1735.15	  427.47
      1.1700	   45.00	  546.68	-1735.15	  428.23
      1.2700	   49.00	  547.43	-1735.15	  428.98
      1.3700	   54.00	  548.17	-1735.15	  429.72
      1.4700	  105.00	  548.90	-1735.15	  430.45
      1.5700	  293.00	  549.62	-1735.15	  431.17
      1.6700	  463.00	  550.32	-1735.15	  431.87
      1.7700	  560.00	  551.02	-1735.15	  432.57
      1.8700	  645.00	  551.70	-1735.15	  433.25
      1.9700	  712.00	  552.37	-1735.15	  433.92
      2.0700	  752.00	  553.04	-1735.15	  434.58
      2.1700	  795.00	  553.69	-1735.15	  435.24
      2.2700	  769.00	  554.33	-1735.15	  435.88
      2.3700	  707.00	  554.96	-1735.15	  436.50
      2.4700	  721.00	  555.57	-1735.15	  437.12
      2.5700	  623.00	  556.18	-1735.15	  437.73
      2.6700	  703.00	  556.78	-1735.15	  438.33
      2.7700	  675.00	  557.37	-1735.15	  438.92
      2.8700	  676.00	  557.94	-1735.15	  439.49
      2.9700	  612.00	  558.51	-1735.15	  440.06
      3.0700	  629.00	  559.07	-1735.15	  440.62
      3.1700	  611.00	  559.61	-1735.15	  441.16
      3.2700	  561.00	  560.15	-1735.15	  441.70
      3.3700	  661.00	  560.68	-1735.15	  442.23
      3.4700	  725.00	  561.19	-1735.15	  442.74
      3.5700	  826.00	  561.70	-1735.15	  443.25
      3.6700	  919.00	  562.20	-1735.15	  443.75
      3.7700	  939.00	  562.69	-1735.15	  444.23
      3.8700	  982.00	  563.16	-1735.15	  444.71
      3.9700	 1023.00	  563.63	-1735.15	  445.18
      4.0700	 1062.00	  564.09	-1735.15	  445.64
      4.1700	 1023.00	  564.54	-1735.15	  446.09
      4.2700	 1090.00	  564.98	-1735.15	  446.53
      4.3700	 1133.00	  565.41	-1735.15	  446.96
      4.4700	 1052.00	  565.83	-1735.15	  447.38
      4.5700	 1133.00	  566.25	-1735.15	  447.79
      4.6700	 1008.00	  566.65	-1735.15	  448.20
      4.7700	  991.00	  567.04	-1735.15	  448.59
      4.8700	  967.00	  567.43	-1735.15	  448.98
      4.9700	  962.00	  567.81	-1735.15	  449.36
      5.0700	  968.00	  568.18	-1735.15	  449.72
      5.1700	  905.00	  568.53	-1735.15	  450.08
      5.2700	  911.00	  568.89	-1735.15	  450.43
      5.3700	  914.00	  569.23	-1735.15	  450.78
      5.4700	  905.00	  569.56	-1735.15	  451.11
      5.5700	  862.00	  569.89	-1735.15	  451.44
      5.6700	  899.00	  570.20	-1735.15	  451.75
      5.7700	  807.00	  570.51	-1735.15	  452.06
      5.8700	  811.00	  570.81	-1735.15	  452.36
      5.9700	  774.00	  571.11	-1735.15	  452.65
      6.0700	  787.00	  571.39	-1735.15	  452.94
      6.1700	  740.00	  571.67	-1735.15	  453.22
      6.2700	  753.00	  571.94	-1735.15	  453.48
      6.3700	  776.00	  572.20	-1735.15	  453.74
      6.4700	  772.00	  572.45	-1735.15	  454.00
      6.5700	  748.00	  572.69	-1735.15	  454.24
      6.6700	  718.00	  572.93	-1735.15	  454.48
      6.7700	  736.00	  573.16	-1735.15	  454.71
      6.8700	  740.00	  573.38	-1735.15	  454.93
      6.9700	  718.00	  573.60	-1735.15	  455.14
      7.0700	  742.00	  573.80	-1735.15	  455.35
      7.1700	  733.00	  574.00	-1735.15	  455.55
      7.2700	  679.00	  574.19	-1735.15	  455.74
      7.3700	  716.00	  574.38	-1735.15	  455.93
      7.4700	  682.00	  574.56	-1735.15	  456.11
      7.5700	  656.00	  574.73	-1735.15	  456.28
      7.6700	  620.00	  574.89	-1735.15	  456.44
      7.7700	  661.00	  575.05	-1735.15	  456.60
      7.8700	  655.00	  575.20	-1735.15	  456.75
      7.9700	  653.00	  575.34	-1735.15	  456.89
      8.0700	  629.00	  575.48	-1735.15	  457.02
      8.1700	  631.00	  575.60	-1735.15	  457.15
      8.2700	  589.00	  575.73	-1735.15	  457.28
      8.3700	  619.00	  575.84	-1735.15	  457.39
      8.4700	  617.00	  575.95	-1735.15	  457.50
      8.5700	  626.00	  576.05	-1735.15	  457.60
      8.6700	  671.00	  576.15	-1735.15	  457.70
      8.7700	  635.00	  576.24	-1735.15	  457.79
      8.8700	  622.00	  576.32	-1735.15	  457.87
      8.9700	  633.00	  576.40	-1735.15	  457.95
      9.0700	  586.00	  576.47	-1735.15	  458.02
      9.1700	  626.00	  576.53	-1735.15	  458.08
      9.2700	  625.00	  576.59	-1735.15	  458.14
      9.3700	  587.00	  576.64	-1735.15	  458.19
      9.4700	  597.00	  576.69	-1735.15	  458.24
      9.5700	  607.00	  576.73	-1735.15	  458.28
      9.6700	  620.00	  576.76	-1735.15	  458.31
      9.7700	  627.00	  576.79	-1735.15	  458.34
      9.8700	  583.00	  576.82	-1735.15	  458.36
      9.9700	  601.00	  576.83	-1735.15	  458.38
     10.0700	  578.00	  577.64	-1734.79	  458.39
     10.1700	  607.00	  577.73	-1705.88	  458.40
     10.2700	  570.00	  577.83	-1742.98	  458.40
     10.3700	  567.00	  577.96	-1746.11	  458.39
     10.4700	  551.00	  578.14	-1762.30	  458.38
     10.5700	  620.00	  578.44	-1693.59	  458.36
     10.6700	  556.00	  578.93	-1758.09	  458.34
     10.7700	  574.00	  579.75	-1740.90	  458.32
     10.8700	  548.00	  580.95	-1768.10	  458.28
     10.9700	  615.00	  582.53	-1702.68	  458.25
     11.0700	  573.00	  584.46	-1746.61	  458.20
     11.1700	  642.00	  586.72	-1679.88	  458.15
     11.2700	  551.00	  589.36	-1773.52	  458.10
     11.3700	  620.00	  592.46	-1707.61	  458.04
     11.4700	  630.00	  596.13	-1701.29	  457.98
     11.5700	  580.00	  600.60	-1755.75	  457.91
     11.6700	  647.00	  606.19	-1694.35	  457.84
     11.7700	  625.00	  613.53	-1723.68	  457.76
     11.8700	  683.00	  623.54	-1675.69	  457.68
     11.9700	  636.00	  636.89	-1736.04	  457.59
     12.0700	  669.00	  652.03	-1718.18	  457.50
     12.1700	  659.00	  662.82	-1738.97	  457.41
     12.2700	  694.00	  659.49	-1700.64	  457.30
     12.3700	  664.00	  639.02	-1710.17	  457.20
     12.4700	  624.00	  613.97	-1725.13	  457.09
     12.5700	  611.00	  595.66	-1719.81	  456.98
     12.6700	  566.00	  585.74	-1754.89	  456.86
     12.7700	  572.00	  581.25	-1744.40	  456.74
     12.8700	  614.00	  579.23	-1700.38	  456.61
     12.9700	  579.00	  578.12	-1734.27	  456.48
     13.0700	  553.00	  577.36	-1759.51	  456.34
     13.1700	  560.00	  576.77	-1751.93	  456.20
     13.2700	  585.00	  576.30	-1726.45	  456.06
     13.3700	  599.00	  575.90	-1712.05	  455.91
     13.4700	  564.00	  575.55	-1746.70	  455.76
     13.5700	  561.00	  575.23	-1749.39	  455.61
     13.6700	  574.00	  574.95	-1736.10	  455.45
     13.7700	  563.00	  574.68	-1746.83	  455.28
     13.8700	  558.00	  574.42	-1751.58	  455.12
     13.9700	  521.00	  574.18	-1788.33	  454.95
     14.0700	  563.00	  573.94	-1746.09	  454.77
     14.1700	  557.00	  573.71	-1751.86	  454.59
     14.2700	  556.00	  573.48	-1752.63	  454.41
     14.3700	  558.00	  573.26	-1750.41	  454.23
     14.4700	  542.00	  573.03	-1766.18	  454.04
     14.5700	  590.00	  572.81	-1717.96	  453.85
     14.6700	  550.00	  572.59	-1757.74	  453.65
     14.7700	  551.00	  572.36	-1756.52	  453.45
     14.8700	  547.00	  572.14	-1760.29	  453.25
     14.9700	  568.00	  571.91	-1739.07	  453.05
     15.0700	  544.00	  571.69	-1762.84	  452.84
     15.1700	  593.00	  571.46	-1713.61	  452.63
     15.2700	  549.00	  571.23	-1757.38	  452.41
     15.3700	  560.00	  571.00	-1746.15	  452.19
     15.4700	  570.00	  570.77	-1735.92	  451.97
     15.5700	  556.00	  570.53	-1749.68	  451.75
     15.6700	  585.00	  570.30	-1720.45	  451.52
     15.7700	  584.00	  570.06	-1721.21	  451.29
     15.8700	  545.00	  569.81	-1759.97	  451.06
     15.9700	  589.00	  569.57	-1715.72	  450.82
     16.0700	  559.00	  569.33	-1745.48	  450.58
     16.1700	  570.00	  569.10	-1734.26	  450.34
     16.2700	  562.00	  568.85	-1742.01	  450.10
     16.3700	  559.00	  568.60	-1744.75	  449.85
     16.4700	  524.00	  568.35	-1779.50	  449.60
     16.5700	  564.00	  568.09	-1739.24	  449.35
     16.6700	  580.00	  567.83	-1722.99	  449.10
     16.7700	  569.00	  567.57	-1733.72	  448.84
     16.8700	  585.00	  567.31	-1717.46	  448.58
     16.9700	  552.00	  567.04	-1750.20	  448.32
     17.0700	  578.00	  566.78	-1723.93	  448.05
     17.1700	  567.00	  566.51	-1734.66	  447.79
     17.2700	  567.00	  566.24	-1734.39	  447.52
     17.3700	  569.00	  565.96	-1732.11	  447.24
     17.4700	  559.00	  565.69	-1741.84	  446.97
     17.5700	  538.00	  565.41	-1762.56	  446.69
     17.6700	  546.00	  565.13	-1754.28	  446.42
     17.7700	  598.00	  564.85	-1702.00	  446.14
     17.8700	  603.00	  564.57	-1696.72	  445.85
     17.9700	  591.00	  564.28	-1708.43	  445.57
     18.0700	  555.00	  564.10	-1744.25	  445.28
     18.1700	  530.00	  563.81	-1768.96	  444.99
     18.2700	  603.00	  563.52	-1695.68	  444.70
     18.3700	  545.00	  563.23	-1753.39	  444.41
     18.4700	  570.00	  562.94	-1728.09	  444.12
     18.5700	  582.00	  562.65	-1715.80	  443.82
     18.6700	  580.00	  562.35	-1717.50	  443.52
     18.7700	  530.00	  562.06	-1767.21	  443.22
     18.8700	  542.00	  561.76	-1754.91	  442.92
     18.9700	  551.00	  561.54	-1745.70	  442.62
     19.0700	  561.00	  561.24	-1735.40	  442.31
     19.1700	  577.00	  560.94	-1719.10	  442.01
     19.2700	  555.00	  560.64	-1740.79	  441.70
     19.3700	  535.00	  560.34	-1760.49	  441.39
     19.4700	  550.00	  560.03	-1745.19	  441.08
     19.5700	  531.00	  559.73	-1763.88	  440.77
     19.6700	  570.00	  559.42	-1724.57	  440.45
     19.7700	  534.00	  559.11	-1760.27	  440.14
     19.8700	  556.00	  558.80	-1737.96	  439.82
     19.9700	  540.00	  558.50	-1753.65	  439.50
     20.0700	  537.00	  558.18	-1756.34	  439.18
     20.1700	  591.00	  557.87	-1702.03	  438.86
     20.2700	  551.00	  557.56	-1741.71	  438.54
     20.3700	  568.00	  557.25	-1724.40	  438.22
     20.4700	  525.00	  556.94	-1767.09	  437.89
     20.5700	  541.00	  556.62	-1750.77	  437.56
     20.6700	  553.00	  556.28	-1738.43	  437.24
     20.7700	  566.00	  555.96	-1725.12	  436.91
     20.8700	  511.00	  555.65	-1779.80	  436.58
     20.9700	  530.00	  555.37	-1760.52	  436.25
     21.0700	  590.00	  555.05	-1700.21	  435.92
     21.1700	  551.00	  554.74	-1738.89	  435.59
     21.2700	  587.00	  554.43	-1702.58	  435.25
     21.3700	  570.00	  554.11	-1719.26	  434.92
     21.4700	  519.00	  553.80	-1769.95	  434.58
     21.5700	  533.00	  553.49	-1755.64	  434.25
     21.6700	  563.00	  553.17	-1725.33	  433.91
     21.7700	  547.00	  552.86	-1741.02	  433.57
     21.8700	  550.00	  552.56	-1737.71	  433.24
     21.9700	  550.00	  552.25	-1737.40	  432.90
     22.0700	  570.00	  551.94	-1717.09	  432.56
     22.1700	  521.00	  551.64	-1765.79	  432.22
     22.2700	  567.00	  551.34	-1719.49	  431.88
     22.3700	  567.00	  551.04	-1719.19	  431.53
     22.4700	  562.00	  550.74	-1723.90	  431.19
     22.5700	  503.00	  550.45	-1782.61	  430.85
     22.6700	  524.00	  550.17	-1761.32	  430.51
     22.7700	  599.00	  549.89	-1686.04	  430.16
     22.8700	  567.00	  549.62	-1717.77	  429.82
     22.9700	  562.00	  549.36	-1722.51	  429.47
     23.0700	  579.00	  549.11	-1705.27	  429.13
     23.1700	  569.00	  548.88	-1715.03	  428.78
     23.2700	  553.00	  548.67	-1730.82	  428.44
     23.3700	  562.00	  548.48	-1721.63	  428.09
     23.4700	  595.00	  548.32	-1688.48	  427.74
     23.5700	  588.00	  548.21	-1695.37	  427.39
     23.6700	  583.00	  548.17	-1700.32	  427.05
     23.7700	  566.00	  548.36	-1717.51	  426.70
     23.8700	  550.00	  548.63	-1733.79	  426.35
     23.9700	  549.00	  549.32	-1735.48	  426.00
     24.0700	  560.00	  550.85	-1726.00	  425.66
     24.1700	  534.00	  553.84	-1754.99	  425.31
     24.2700	  552.00	  559.12	-1742.27	  424.96
     24.3700	  552.00	  567.61	-1750.76	  424.61
     24.4700	  583.00	  580.30	-1732.45	  424.26
     24.5700	  607.00	  597.44	-1725.59	  423.91
     24.6700	  634.00	  616.32	-1717.47	  423.56
     24.7700	  632.00	  629.35	-1732.51	  423.22
     24.8700	  624.00	  626.35	-1737.51	  422.87
     24.9700	  570.00	  606.08	-1771.23	  422.52
     25.0700	  537.00	  581.54	-1779.69	  422.17
     25.1700	  590.00	  563.20	-1708.35	  421.82
     25.2700	  552.00	  552.85	-1736.00	  421.47
     25.3700	  566.00	  547.98	-1717.13	  421.12
     25.4700	  531.00	  545.75	-1749.90	  420.78
     25.5700	  537.00	  544.56	-1742.71	  420.43
     25.6700	  610.00	  543.78	-1668.93	  420.08
     25.7700	  618.00	  543.20	-1660.35	  419.73
     25.8700	  567.00	  542.76	-1710.91	  419.39
     25.9700	  579.00	  542.42	-1698.57	  419.04
     26.0700	  621.00	  542.16	-1656.32	  418.69
     26.1700	  545.00	  541.99	-1732.14	  418.35
     26.2700	  549.00	  541.89	-1728.04	  418.00
     26.3700	  541.00	  541.87	-1736.02	  417.66
     26.4700	  562.00	  541.93	-1715.08	  417.31
     26.5700	  524.00	  542.09	-1753.24	  416.97
     26.6700	  563.00	  542.36	-1714.51	  416.62
     26.7700	  600.00	  542.77	-1677.93	  416.28
     26.8700	  522.00	  543.36	-1756.52	  415.93
     26.9700	  542.00	  544.18	-1737.33	  415.59
     27.0700	  553.00	  545.31	-1727.46	  415.25
     27.1700	  544.00	  546.88	-1738.03	  414.91
     27.2700	  537.00	  549.15	-1747.30	  414.57
     27.3700	  579.00	  552.64	-1708.79	  414.22
     27.4700	  569.00	  558.37	-1724.52	  413.88
     27.5700	  538.00	  568.16	-1765.31	  413.54
     27.6700	  492.00	  584.93	-1828.08	  413.21
     27.7700	  599.00	  612.46	-1748.62	  412.87
     27.8700	  623.00	  654.09	-1766.24	  412.53
     27.9700	  698.00	  710.04	-1747.19	  412.19
     28.0700	  795.00	  773.95	-1714.10	  411.86
     28.1700	  931.00	  829.72	-1633.88	  411.52
     28.2700	  953.00	  853.08	-1635.24	  411.19
     28.3700	  869.00	  829.63	-1695.79	  410.85
     28.4700	  839.00	  782.17	-1678.32	  410.52
     28.5700	  709.00	  748.39	-1774.54	  410.19
     28.6700	  713.00	  745.54	-1767.69	  409.85
     28.7700	  745.00	  768.78	-1758.93	  409.52
     28.8700	  831.00	  797.39	-1701.54	  409.19
     28.9700	  787.00	  802.23	-1750.39	  408.86
     29.0700	  766.00	  764.78	-1733.93	  408.54
     29.1700	  719.00	  700.92	-1717.07	  408.21
     29.2700	  626.00	  640.10	-1749.25	  407.88
     29.3700	  604.00	  596.34	-1727.49	  407.56
     29.4700	  580.00	  570.00	-1725.16	  407.23
     29.5700	  576.00	  555.83	-1714.98	  406.91
     29.6700	  587.00	  548.35	-1696.50	  406.59
     29.7700	  591.00	  544.09	-1688.25	  406.26
     29.8700	  610.00	  541.40	-1666.55	  405.94
     29.9700	  552.00	  539.65	-1722.80	  405.62
     30.0700	  579.00	  538.66	-1694.82	  405.30
     30.1700	  565.00	  538.58	-1708.74	  404.99
     30.2700	  554.00	  539.88	-1721.04	  404.67
     30.3700	  535.00	  543.51	-1743.66	  404.36
     30.4700	  556.00	  550.92	-1730.07	  404.04
     30.5700	  534.00	  563.66	-1764.81	  403.73
     30.6700	  571.00	  582.19	-1746.34	  403.42
     30.7700	  583.00	  604.21	-1756.36	  403.10
     30.8700	  605.00	  623.44	-1753.59	  402.80
     30.9700	  629.00	  630.24	-1736.39	  402.49
     31.0700	  577.00	  618.04	-1776.19	  402.18
     31.1700	  560.00	  593.14	-1768.30	  401.87
     31.2700	  514.00	  568.16	-1789.32	  401.57
     31.3700	  535.00	  549.74	-1749.90	  401.26
     31.4700	  564.00	  538.57	-1709.72	  400.96
     31.5700	  519.00	  532.60	-1748.75	  400.66
     31.6700	  560.00	  529.52	-1704.67	  400.36
     31.7700	  561.00	  527.80	-1701.96	  400.06
     31.8700	  531.00	  526.71	-1730.86	  399.76
     31.9700	  498.00	  525.94	-1763.10	  399.47
     32.0700	  568.00	  525.39	-1692.55	  399.17
     32.1700	  542.00	  525.01	-1718.17	  398.88
     32.2700	  549.00	  524.78	-1710.94	  398.59
     32.3700	  539.00	  524.70	-1720.85	  398.30
     32.4700	  562.00	  524.76	-1697.91	  398.01
     32.5700	  567.00	  524.99	-1693.14	  397.72
     32.6700	  515.00	  525.41	-1745.56	  397.43
     32.7700	  578.00	  526.06	-1683.22	  397.15
     32.8700	  542.00	  527.03	-1720.18	  396.86
     32.9700	  550.00	  528.41	-1713.56	  396.58
     33.0700	  552.00	  530.43	-1713.58	  396.30
     33.1700	  591.00	  533.53	-1677.68	  396.02
     33.2700	  510.00	  538.75	-1763.91	  395.74
     33.3700	  523.00	  548.38	-1760.53	  395.46
     33.4700	  530.00	  566.78	-1771.94	  395.19
     33.5700	  565.00	  600.96	-1771.11	  394.91
     33.6700	  632.00	  659.00	-1762.15	  394.64
     33.7700	  748.00	  744.65	-1731.80	  394.37
     33.8700	  895.00	  848.71	-1688.87	  394.10
     33.9700	  988.00	  943.28	-1690.43	  393.83
     34.0700	 1099.00	  985.36	-1621.52	  393.57
     34.1700	 1007.00	  943.13	-1671.28	  393.30
     34.2700	  910.00	  838.39	-1663.54	  393.04
     34.3700	  729.00	  725.49	-1731.65	  392.78
     34.4700	  640.00	  638.13	-1733.28	  392.52
     34.5700	  570.00	  583.28	-1748.43	  392.26
     34.6700	  593.00	  553.66	-1695.81	  392.00
     34.7700	  540.00	  538.83	-1733.98	  391.75
     34.8700	  542.00	  531.12	-1724.27	  391.49
     34.9700	  519.00	  526.51	-1742.66	  391.24
     35.0700	  516.00	  523.33	-1742.48	  390.99
     35.1700	  474.00	  520.92	-1782.08	  390.74
     35.2700	  515.00	  519.04	-1739.19	  390.49
     35.3700	  483.00	  517.48	-1769.64	  390.25
     35.4700	  504.00	  516.19	-1747.34	  390.00
     35.5700	  540.00	  515.10	-1710.25	  389.76
     35.6700	  506.00	  514.15	-1743.31	  389.52
     35.7700	  509.00	  513.33	-1739.48	  389.28
     35.8700	  518.00	  512.61	-1729.76	  389.05
     35.9700	  540.00	  511.96	-1707.11	  388.81
     36.0700	  518.00	  511.85	-1729.00	  388.58
     36.1700	  507.00	  511.33	-1739.48	  388.34
     36.2700	  514.00	  510.86	-1732.01	  388.11
     36.3700	  556.00	  510.43	-1689.58	  387.88
     36.4700	  564.00	  510.04	-1681.20	  387.66
     36.5700	  467.00	  509.69	-1777.85	  387.43
     36.6700	  531.00	  509.38	-1713.54	  387.21
     36.7700	  467.00	  509.12	-1777.28	  386.99
     36.8700	  543.00	  508.93	-1701.08	  386.77
     36.9700	  514.00	  508.87	-1730.02	  386.55
     37.0700	  527.00	  509.07	-1717.22	  386.33
     37.1700	  529.00	  509.79	-1715.94	  386.12
     37.2700	  515.00	  511.41	-1731.56	  385.90
     37.3700	  520.00	  514.28	-1729.43	  385.69
     37.4700	  554.00	  518.39	-1699.54	  385.48
     37.5700	  506.00	  522.95	-1752.10	  385.27
     37.6700	  556.00	  526.35	-1705.51	  385.07
     37.7700	  501.00	  526.83	-1760.99	  384.86
     37.8700	  554.00	  524.06	-1705.21	  384.66
     37.9700	  510.00	  519.69	-1744.84	  384.46
     38.0700	  509.00	  515.34	-1741.49	  384.26
     38.1700	  517.00	  511.71	-1729.86	  384.06
     38.2700	  502.00	  508.97	-1742.12	  383.87
     38.3700	  513.00	  507.08	-1729.23	  383.67
     38.4700	  516.00	  505.83	-1724.98	  383.48
     38.5700	  493.00	  505.02	-1747.17	  383.29
     38.6700	  504.00	  504.37	-1735.53	  383.11
     38.7700	  478.00	  503.99	-1761.14	  382.92
     38.8700	  479.00	  503.68	-1759.83	  382.73
     38.9700	  507.00	  503.42	-1731.57	  382.55
     39.0700	  479.00	  503.19	-1759.34	  382.37
     39.1700	  531.00	  502.89	-1707.04	  382.19
     39.2700	  514.00	  502.69	-1723.84	  382.02
     39.3700	  549.00	  502.50	-1688.65	  381.84
     39.4700	  527.00	  502.33	-1710.48	  381.67
     39.5700	  515.00	  502.29	-1722.44	  381.50
     39.6700	  487.00	  502.13	-1750.28	  381.33
     39.7700	  469.00	  501.98	-1768.14	  381.16
     39.8700	  518.00	  501.84	-1719.00	  380.99
     39.9700	  517.00	  501.72	-1719.87	  380.83
     40.0700	  506.00	  501.60	-1730.75	  380.67
     40.1700	  460.00	  501.49	-1776.64	  380.51
     40.2700	  477.00	  501.39	-1759.54	  380.35
     40.3700	  470.00	  501.30	-1766.45	  380.19
     40.4700	  530.00	  501.22	-1706.37	  380.04
     40.5700	  482.00	  501.16	-1754.31	  379.88
     40.6700	  513.00	  501.11	-1723.26	  379.73
     40.7700	  456.00	  501.08	-1780.24	  379.58
     40.8700	  506.00	  501.08	-1730.23	  379.44
     40.9700	  501.00	  501.10	-1735.25	  379.29
     41.0700	  491.00	  501.15	-1745.30	  379.15
     41.1700	  477.00	  501.23	-1759.39	  379.01
     41.2700	  488.00	  501.34	-1748.49	  378.87
     41.3700	  500.00	  501.53	-1736.68	  378.73
     41.4700	  458.00	  501.80	-1778.96	  378.59
     41.5700	  483.00	  502.61	-1754.76	  378.46
     41.6700	  451.00	  503.16	-1787.31	  378.33
     41.7700	  440.00	  503.99	-1799.14	  378.20
     41.8700	  474.00	  505.40	-1766.55	  378.07
     41.9700	  509.00	  508.04	-1734.19	  377.94
     42.0700	  513.00	  513.16	-1735.32	  377.82
     42.1700	  487.00	  522.81	-1770.96	  377.69
     42.2700	  505.00	  539.35	-1769.51	  377.57
     42.3700	  540.00	  564.20	-1759.35	  377.45
     42.4700	  570.00	  595.41	-1760.56	  377.34
     42.5700	  582.00	  626.25	-1779.40	  377.22
     42.6700	  602.00	  645.55	-1778.70	  377.11
     42.7700	  595.00	  643.27	-1783.43	  377.00
     42.8700	  630.00	  619.79	-1724.95	  376.89
     42.9700	  543.00	  586.91	-1779.06	  376.78
     43.0700	  523.00	  556.11	-1768.26	  376.67
     43.1700	  537.00	  533.05	-1731.21	  376.57
     43.2700	  478.00	  518.46	-1775.61	  376.47
     43.3700	  492.00	  510.34	-1753.49	  376.37
     43.4700	  498.00	  506.16	-1743.31	  376.27
     43.5700	  540.00	  504.00	-1699.15	  376.17
     43.6700	  481.00	  502.77	-1756.92	  376.08
     43.7700	  480.00	  502.15	-1757.30	  375.99
     43.8700	  504.00	  501.57	-1732.72	  375.90
     43.9700	  512.00	  501.13	-1724.29	  375.81
     44.0700	  468.00	  500.83	-1767.99	  375.72
     44.1700	  504.00	  500.57	-1731.72	  375.63
     44.2700	  450.00	  500.37	-1785.52	  375.55
     44.3700	  522.00	  500.21	-1713.36	  375.47
     44.4700	  522.00	  500.10	-1713.25	  375.39
     44.5700	  511.00	  499.89	-1724.04	  375.31
     44.6700	  490.00	  499.84	-1745.00	  375.24
     44.7700	  468.00	  499.82	-1766.97	  375.16
     44.8700	  500.00	  499.82	-1734.98	  375.09
     44.9700	  502.00	  499.85	-1733.00	  375.02
     45.0700	  476.00	  499.90	-1759.05	  374.95
     45.1700	  498.00	  499.97	-1737.12	  374.88
     45.2700	  505.00	  500.24	-1730.39	  374.82
     45.3700	  503.00	  500.35	-1732.51	  374.76
     45.4700	  517.00	  500.49	-1718.64	  374.69
     45.5700	  535.00	  500.65	-1700.80	  374.63
     45.6700	  487.00	  500.84	-1748.99	  374.58
     45.7700	  529.00	  501.05	-1707.20	  374.52
     45.8700	  476.00	  501.29	-1760.44	  374.47
     45.9700	  516.00	  501.56	-1720.71	  374.41
     46.0700	  482.00	  501.86	-1755.02	  374.36
     46.1700	  523.00	  502.21	-1714.36	  374.32
     46.2700	  487.00	  502.60	-1750.75	  374.27
     46.3700	  525.00	  503.04	-1713.19	  374.22
     46.4700	  505.00	  503.54	-1733.70	  374.18
     46.5700	  505.00	  504.12	-1734.27	  374.14
     46.6700	  486.00	  504.78	-1753.94	  374.10
     46.7700	  502.00	  505.57	-1738.72	  374.06
     46.8700	  535.00	  506.53	-1706.69	  374.03
     46.9700	  547.00	  507.81	-1695.96	  373.99
     47.0700	  510.00	  509.69	-1734.84	  373.96
     47.1700	  496.00	  512.78	-1751.94	  373.93
     47.2700	  526.00	  518.09	-1727.24	  373.90
     47.3700	  547.00	  526.85	-1715.00	  373.87
     47.4700	  515.00	  540.34	-1760.49	  373.85
     47.5700	  561.00	  558.77	-1732.92	  373.82
     47.6700	  605.00	  580.27	-1710.42	  373.80
     47.7700	  620.00	  600.26	-1715.41	  373.78
     47.8700	  634.00	  612.19	-1713.34	  373.76
     47.9700	  611.00	  611.02	-1735.17	  373.74
     48.0700	  563.00	  597.94	-1770.09	  373.73
     48.1700	  549.00	  579.51	-1765.66	  373.72
     48.2700	  574.00	  562.01	-1723.16	  373.70
     48.3700	  533.00	  549.03	-1751.19	  373.69
     48.4700	  529.00	  541.55	-1747.70	  373.68
     48.5700	  541.00	  538.87	-1733.02	  373.68
     48.6700	  528.00	  539.74	-1746.89	  373.67
     48.7700	  515.00	  543.10	-1763.25	  373.67
     48.8700	  536.00	  548.41	-1747.56	  373.67
     48.9700	  575.00	  555.68	-1715.83	  373.67
     49.0700	  551.00	  565.55	-1749.70	  373.67
     49.1700	  599.00	  579.65	-1715.81	  373.67
     49.2700	  625.00	  601.44	-1711.59	  373.68
     49.3700	  631.00	  637.51	-1741.66	  373.68
     49.4700	  728.00	  699.07	-1706.23	  373.69
     49.5700	  764.00	  802.61	-1773.76	  373.70
     49.6700	  886.00	  965.96	-1815.11	  373.71
     49.7700	 1166.00	 1203.27	-1772.42	  373.73
     49.8700	 1456.00	 1512.84	-1792.00	  373.74
     49.9700	 1896.00	 1865.31	-1704.47	  373.76
     50.0700	 2157.00	 2194.74	-1772.89	  373.78
     50.1700	 2497.00	 2403.55	-1641.70	  373.79
     50.2700	 2518.00	 2405.45	-1622.61	  373.82
     50.3700	 2267.00	 2197.41	-1665.57	  373.84
     50.4700	 1845.00	 1866.65	-1756.81	  373.86
     50.5700	 1399.00	 1515.31	-1851.47	  373.89
     50.6700	 1081.00	 1210.62	-1864.78	  373.92
     50.7700	  788.00	  981.61	-1928.76	  373.94
     50.8700	  722.00	  829.03	-1842.18	  373.97
     50.9700	  650.00	  737.18	-1822.33	  374.01
     51.0700	  683.00	  684.65	-1736.80	  374.04
     51.1700	  611.00	  652.33	-1776.48	  374.07
     51.2700	  558.00	  627.84	-1804.99	  374.11
     51.3700	  605.00	  606.32	-1736.47	  374.15
     51.4700	  608.00	  587.38	-1714.53	  374.19
     51.5700	  573.00	  571.76	-1733.91	  374.23
     51.6700	  556.00	  559.87	-1739.02	  374.27
     51.7700	  536.00	  551.46	-1750.61	  374.31
     51.8700	  548.00	  545.85	-1733.00	  374.36
     51.9700	  529.00	  542.25	-1748.40	  374.41
     52.0700	  555.00	  540.04	-1720.19	  374.45
     52.1700	  576.00	  538.87	-1698.02	  374.50
     52.2700	  528.00	  538.84	-1745.99	  374.56
     52.3700	  568.00	  539.61	-1706.76	  374.61
     52.4700	  569.00	  541.82	-1707.97	  374.66
     52.5700	  536.00	  546.53	-1745.69	  374.72
     52.6700	  591.00	  555.97	-1700.12	  374.77
     52.7700	  581.00	  574.20	-1728.35	  374.83
     52.8700	  643.00	  607.53	-1699.68	  374.89
     52.9700	  775.00	  663.69	-1623.84	  374.95
     53.0700	  819.00	  749.16	-1665.31	  375.01
     53.1700	  928.00	  864.54	-1671.69	  375.08
     53.2700	 1054.00	  999.56	-1680.71	  375.14
     53.3700	 1207.00	 1130.00	-1658.15	  375.21
     53.4700	 1218.00	 1219.80	-1736.95	  375.28
     53.5700	 1197.00	 1234.87	-1773.02	  375.34
     53.6700	 1031.00	 1168.05	-1872.20	  375.41
     53.7700	 1003.00	 1046.69	-1778.84	  375.49
     53.8700	  845.00	  909.44	-1799.59	  375.56
     53.9700	  765.00	  785.54	-1755.69	  375.63
     54.0700	  677.00	  689.80	-1747.95	  375.71
     54.1700	  655.00	  624.73	-1704.88	  375.78
     54.2700	  555.00	  585.15	-1765.30	  375.86
     54.3700	  580.00	  563.21	-1718.36	  375.94
     54.4700	  602.00	  551.88	-1685.04	  376.02
     54.5700	  516.00	  546.28	-1765.43	  376.10
     54.6700	  558.00	  543.70	-1720.85	  376.19
     54.7700	  527.00	  542.75	-1750.90	  376.27
     54.8700	  557.00	  542.82	-1720.97	  376.36
     54.9700	  538.00	  543.68	-1740.84	  376.44
     55.0700	  567.00	  545.28	-1713.43	  376.53
     55.1700	  603.00	  547.60	-1679.76	  376.62
     55.2700	  649.00	  550.75	-1636.90	  376.71
     55.3700	  542.00	  554.79	-1747.94	  376.80
     55.4700	  569.00	  559.95	-1726.11	  376.89
     55.5700	  572.00	  566.64	-1729.80	  376.98
     55.6700	  585.00	  575.65	-1725.80	  377.08
     55.7700	  584.00	  588.60	-1739.75	  377.17
     55.8700	  579.00	  608.82	-1764.98	  377.27
     55.9700	  636.00	  642.53	-1741.69	  377.37
     56.0700	  691.00	  700.21	-1744.36	  377.47
     56.1700	  703.00	  797.10	-1829.25	  377.57
     56.2700	  877.00	  951.46	-1809.61	  377.67
     56.3700	 1085.00	 1179.27	-1829.42	  377.77
     56.4700	 1409.00	 1485.31	-1811.46	  377.87
     56.5700	 1794.00	 1853.26	-1794.41	  377.98
     56.6700	 2148.00	 2237.62	-1824.77	  378.08
     56.7700	 2436.00	 2561.69	-1860.84	  378.19
     56.8700	 2698.00	 2732.05	-1769.21	  378.30
     56.9700	 2568.00	 2685.40	-1852.55	  378.40
     57.0700	 2391.00	 2439.79	-1783.95	  378.51
     57.1700	 2137.00	 2079.83	-1677.98	  378.62
     57.2700	 1747.00	 1696.68	-1684.84	  378.73
     57.3700	 1317.00	 1354.29	-1772.45	  378.85
     57.4700	 1034.00	 1084.97	-1786.12	  378.96
     57.5700	  814.00	  894.83	-1815.98	  379.07
     57.6700	  779.00	  773.38	-1729.53	  379.19
     57.7700	  734.00	  703.47	-1704.62	  379.30
     57.8700	  683.00	  668.96	-1721.11	  379.42
     57.9700	  701.00	  658.56	-1692.71	  379.54
     58.0700	  697.00	  666.30	-1704.46	  379.66
     58.1700	  735.00	  690.22	-1690.38	  379.78
     58.2700	  765.00	  730.41	-1700.57	  379.90
     58.3700	  848.00	  787.11	-1674.26	  380.02
     58.4700	  972.00	  859.04	-1622.19	  380.14
     58.5700	 1029.00	  941.81	-1647.96	  380.26
     58.6700	 1182.00	 1027.44	-1580.59	  380.38
     58.7700	 1342.00	 1106.53	-1499.68	  380.51
     58.8700	 1430.00	 1172.63	-1477.78	  380.63
     58.9700	 1478.00	 1222.12	-1479.27	  380.76
     59.0700	 1577.00	 1250.11	-1408.26	  380.89
     59.1700	 1458.00	 1252.16	-1529.32	  381.01
     59.2700	 1369.00	 1231.76	-1597.91	  381.14
     59.3700	 1359.00	 1200.74	-1576.90	  381.27
     59.4700	 1241.00	 1171.26	-1665.41	  381.40
     59.5700	 1178.00	 1151.42	-1708.58	  381.53
     59.6700	 1172.00	 1148.37	-1711.52	  381.66
     59.7700	 1226.00	 1170.85	-1680.00	  381.79
     59.8700	 1219.00	 1224.82	-1740.97	  381.93
     59.9700	 1286.00	 1306.78	-1755.94	  382.06
     60.0700	 1464.00	 1400.56	-1671.71	  382.19
     60.1700	 1534.00	 1477.96	-1679.11	  382.33
     60.2700	 1643.00	 1505.80	-1597.95	  382.46
     60.3700	 1534.00	 1463.36	-1664.52	  382.60
     60.4700	 1446.00	 1357.19	-1646.35	  382.73
     60.5700	 1329.00	 1214.37	-1620.52	  382.87
     60.6700	 1028.00	 1064.06	-1771.21	  383.01
     60.7700	  938.00	  927.68	-1724.83	  383.15
     60.8700	  795.00	  817.30	-1757.45	  383.29
     60.9700	  685.00	  737.00	-1787.15	  383.43
     61.0700	  662.00	  685.57	-1758.72	  383.57
     61.1700	  628.00	  659.58	-1766.74	  383.71
     61.2700	  596.00	  656.27	-1795.43	  383.85
     61.3700	  641.00	  675.17	-1769.32	  383.99
     61.4700	  671.00	  718.36	-1782.51	  384.13
     61.5700	  727.00	  789.15	-1797.30	  384.27
     61.6700	  838.00	  889.58	-1786.73	  384.42
     61.7700	  978.00	 1017.42	-1774.57	  384.56
     61.8700	 1049.00	 1163.32	-1849.48	  384.70
     61.9700	 1251.00	 1309.18	-1793.33	  384.85
     62.0700	 1382.00	 1428.04	-1781.19	  384.99
     62.1700	 1345.00	 1489.38	-1879.53	  385.14
     62.2700	 1334.00	 1473.21	-1874.37	  385.28
     62.3700	 1299.00	 1384.42	-1820.57	  385.43
     62.4700	 1145.00	 1249.00	-1839.15	  385.57
     62.5700	 1077.00	 1097.38	-1755.53	  385.72
     62.6700	  956.00	  953.30	-1732.45	  385.87
     62.7700	  801.00	  831.20	-1765.35	  386.02
     62.8700	  655.00	  736.99	-1817.14	  386.16
     62.9700	  570.00	  670.01	-1835.16	  386.31
     63.0700	  622.00	  625.72	-1738.88	  386.46
     63.1700	  596.00	  598.23	-1737.38	  386.61
     63.2700	  542.00	  582.12	-1775.27	  386.76
     63.3700	  539.00	  573.40	-1769.56	  386.91
     63.4700	  547.00	  569.71	-1757.86	  387.06
     63.5700	  567.00	  570.17	-1738.33	  387.21
     63.6700	  625.00	  575.17	-1685.32	  387.36
     63.7700	  654.00	  586.07	-1667.23	  387.51
     63.8700	  652.00	  604.93	-1688.08	  387.66
     63.9700	  684.00	  633.92	-1685.07	  387.81
     64.0700	  739.00	  674.55	-1670.70	  387.96
     64.1700	  790.00	  726.67	-1671.83	  388.11
     64.2700	  831.00	  787.57	-1691.72	  388.26
     64.3700	  907.00	  851.29	-1679.44	  388.42
     64.4700	  981.00	  908.64	-1662.79	  388.57
     64.5700	  940.00	  948.23	-1743.38	  388.72
     64.6700	 1031.00	  962.51	-1666.67	  388.87
     64.7700	  994.00	  948.96	-1690.11	  389.02
     64.8700	  944.00	  912.47	-1703.62	  389.18
     64.9700	  862.00	  861.79	-1734.95	  389.33
     65.0700	  798.00	  806.50	-1743.65	  389.48
     65.1700	  741.00	  754.21	-1748.36	  389.63
     65.2700	  767.00	  709.17	-1677.33	  389.79
     65.3700	  717.00	  672.39	-1690.54	  389.94
     65.4700	  615.00	  642.98	-1763.13	  390.09
     65.5700	  658.00	  619.61	-1696.76	  390.25
     65.6700	  601.00	  601.22	-1735.37	  390.40
     65.7700	  624.00	  587.06	-1698.21	  390.55
     65.8700	  583.00	  576.54	-1728.69	  390.70
     65.9700	  554.00	  569.16	-1750.31	  390.86
     66.0700	  540.00	  564.50	-1759.65	  391.01
     66.1700	  559.00	  562.11	-1738.26	  391.16
     66.2700	  541.00	  561.59	-1755.75	  391.32
     66.3700	  531.00	  562.63	-1766.78	  391.47
     66.4700	  512.00	  565.03	-1788.19	  391.62
     66.5700	  567.00	  568.82	-1736.98	  391.77
     66.6700	  555.00	  574.47	-1754.62	  391.93
     66.7700	  553.00	  582.63	-1764.78	  392.08
     66.8700	  581.00	  595.13	-1749.28	  392.23
     66.9700	  573.00	  614.95	-1777.10	  392.38
     67.0700	  627.00	  646.84	-1754.99	  392.54
     67.1700	  731.00	  697.61	-1701.76	  392.69
     67.2700	  754.00	  775.93	-1757.08	  392.84
     67.3700	  899.00	  891.19	-1727.34	  392.99
     67.4700	 1045.00	 1051.14	-1741.29	  393.14
     67.5700	 1285.00	 1258.73	-1708.89	  393.29
     67.6700	 1476.00	 1508.01	-1767.16	  393.45
     67.7700	 1761.00	 1782.45	-1756.60	  393.60
     67.8700	 2193.00	 2052.41	-1594.56	  393.75
     67.9700	 2325.00	 2276.60	-1686.75	  393.90
     68.0700	 2409.00	 2408.91	-1735.06	  394.05
     68.1700	 2452.00	 2415.44	-1698.59	  394.20
     68.2700	 2266.00	 2294.37	-1763.52	  394.35
     68.3700	 2105.00	 2077.23	-1707.38	  394.50
     68.4700	 1792.00	 1809.99	-1753.14	  394.64
     68.5700	 1563.00	 1534.93	-1707.08	  394.79
     68.6700	 1236.00	 1282.65	-1781.80	  394.94
     68.7700	 1046.00	 1071.27	-1760.43	  395.09
     68.8700	  832.00	  907.38	-1810.53	  395.24
     68.9700	  773.00	  788.69	-1750.84	  395.39
     69.0700	  706.00	  707.78	-1736.94	  395.53
     69.1700	  644.00	  655.34	-1746.49	  395.68
     69.2700	  625.00	  622.52	-1732.67	  395.82
     69.3700	  563.00	  602.32	-1774.47	  395.97
     69.4700	  601.00	  589.78	-1723.93	  396.12
     69.5700	  550.00	  581.77	-1766.93	  396.26
     69.6700	  551.00	  576.44	-1760.59	  396.41
     69.7700	  635.00	  572.77	-1672.93	  396.55
     69.8700	  590.00	  570.24	-1715.39	  396.69
     69.9700	  562.00	  568.56	-1741.72	  396.84
     70.0700	  576.00	  567.63	-1726.78	  396.98
     70.1700	  598.00	  567.37	-1704.52	  397.12
     70.2700	  565.00	  567.84	-1738.00	  397.26
     70.3700	  575.00	  569.10	-1729.25	  397.41
     70.4700	  574.00	  571.39	-1732.54	  397.55
     70.5700	  611.00	  575.19	-1699.34	  397.69
     70.6700	  539.00	  581.34	-1777.49	  397.83
     70.7700	  586.00	  591.33	-1740.49	  397.97
     70.8700	  617.00	  607.57	-1725.73	  398.10
     70.9700	  623.00	  633.62	-1745.77	  398.24
     71.0700	  630.00	  674.23	-1779.38	  398.38
     71.1700	  715.00	  735.13	-1755.29	  398.52
     71.2700	  793.00	  822.16	-1764.31	  398.65
     71.3700	  919.00	  939.71	-1755.87	  398.79
     71.4700	 1003.00	 1088.92	-1821.08	  398.92
     71.5700	 1212.00	 1266.39	-1789.54	  399.06
     71.6700	 1436.00	 1459.61	-1758.77	  399.19
     71.7700	 1579.00	 1651.18	-1807.33	  399.32
     71.8700	 1773.00	 1816.03	-1778.18	  399.46
     71.9700	 1844.00	 1925.67	-1816.82	  399.59
     72.0700	 1910.00	 1956.40	-1781.56	  399.72
     72.1700	 1897.00	 1900.88	-1739.04	  399.85
     72.2700	 1770.00	 1772.38	-1737.53	  399.98
     72.3700	 1664.00	 1596.86	-1668.01	  400.11
     72.4700	 1560.00	 1403.19	-1578.34	  400.24
     72.5700	 1355.00	 1214.04	-1594.20	  400.36
     72.6700	 1172.00	 1045.28	-1608.43	  400.49
     72.7700	 1055.00	  905.48	-1585.64	  400.62
     72.8700	  897.00	  796.95	-1635.10	  400.74
     72.9700	  828.00	  717.34	-1624.50	  400.87
     73.0700	  775.00	  661.75	-1621.90	  400.99
     73.1700	  743.00	  624.40	-1616.55	  401.11
     73.2700	  713.00	  599.95	-1622.10	  401.24
     73.3700	  661.00	  584.07	-1658.22	  401.36
     73.4700	  616.00	  573.69	-1692.85	  401.48
     73.5700	  601.00	  566.77	-1700.92	  401.60
     73.6700	  550.00	  562.05	-1747.21	  401.72
     73.7700	  576.00	  558.82	-1717.98	  401.83
     73.8700	  589.00	  556.68	-1702.83	  401.95
     73.9700	  618.00	  555.39	-1672.54	  402.07
     74.0700	  574.00	  554.78	-1715.93	  402.18
     74.1700	  556.00	  554.72	-1733.87	  402.30
     74.2700	  623.00	  555.02	-1667.17	  402.41
     74.3700	  631.00	  555.47	-1659.63	  402.52
     74.4700	  615.00	  555.85	-1676.00	  402.63
     74.5700	  636.00	  555.90	-1655.05	  402.74
     74.6700	  643.00	  555.43	-1647.58	  402.85
     74.7700	  641.00	  554.40	-1648.55	  402.96
     74.8700	  670.00	  552.94	-1618.09	  403.07
     74.9700	  604.00	  551.29	-1682.44	  403.18
     75.0700	  580.00	  549.74	-1704.90	  403.28
     75.1700	  602.00	  548.61	-1681.76	  403.39
     75.2700	  575.00	  548.11	-1708.27	  403.49
     75.3700	  527.00	  548.82	-1756.98	  403.60
     75.4700	  546.00	  551.07	-1740.22	  403.70
     75.5700	  520.00	  555.25	-1770.41	  403.80
     75.6700	  541.00	  562.09	-1756.24	  403.90
     75.7700	  609.00	  571.96	-1698.11	  404.00
     75.8700	  621.00	  585.18	-1699.34	  404.09
     75.9700	  576.00	  601.74	-1760.89	  404.19
     76.0700	  622.00	  621.13	-1734.28	  404.29
     76.1700	  659.00	  642.24	-1718.39	  404.38
     76.2700	  643.00	  663.33	-1755.49	  404.47
     76.3700	  714.00	  682.07	-1703.23	  404.57
     76.4700	  693.00	  695.77	-1737.93	  404.66
     76.5700	  719.00	  701.99	-1718.14	  404.75
     76.6700	  721.00	  699.42	-1713.58	  404.84
     76.7700	  705.00	  688.60	-1718.75	  404.93
     76.8700	  689.00	  671.56	-1717.72	  405.01
     76.9700	  641.00	  650.81	-1744.96	  405.10
     77.0700	  649.00	  629.23	-1715.38	  405.18
     77.1700	  568.00	  608.64	-1775.79	  405.27
     77.2700	  543.00	  590.41	-1782.57	  405.35
     77.3700	  564.00	  575.29	-1746.44	  405.43
     77.4700	  533.00	  563.44	-1765.60	  405.51
     77.5700	  541.00	  554.64	-1748.80	  405.59
     77.6700	  508.00	  548.41	-1775.56	  405.66
     77.7700	  520.00	  544.18	-1759.33	  405.74
     77.8700	  539.00	  541.40	-1737.55	  405.81
     77.9700	  511.00	  539.62	-1763.77	  405.89
     78.0700	  492.00	  538.50	-1781.65	  405.96
     78.1700	  552.00	  537.79	-1720.95	  406.03
     78.2700	  565.00	  537.36	-1707.51	  406.10
     78.3700	  483.00	  537.09	-1789.24	  406.17
     78.4700	  560.00	  536.95	-1712.10	  406.24
     78.5700	  509.00	  536.91	-1763.06	  406.30
     78.6700	  493.00	  536.96	-1779.11	  406.37
     78.7700	  567.00	  537.11	-1705.27	  406.43
     78.8700	  508.00	  537.39	-1764.54	  406.50
     78.9700	  520.00	  537.82	-1752.98	  406.56
     79.0700	  549.00	  538.45	-1724.60	  406.62
     79.1700	  519.00	  539.32	-1755.48	  406.67
     79.2700	  550.00	  540.32	-1725.47	  406.73
     79.3700	  532.00	  541.84	-1745.00	  406.79
     79.4700	  471.00	  543.78	-1807.93	  406.84
     79.5700	  528.00	  546.18	-1753.34	  406.89
     79.6700	  502.00	  549.12	-1782.28	  406.95
     79.7700	  518.00	  552.68	-1769.84	  407.00
     79.8700	  520.00	  556.97	-1772.12	  407.05
     79.9700	  530.00	  562.14	-1767.29	  407.09
     80.0700	  524.00	  568.38	-1779.54	  407.14
     80.1700	  567.00	  575.99	-1744.14	  407.18
     80.2700	  589.00	  585.27	-1731.42	  407.23
     80.3700	  542.00	  596.53	-1789.69	  407.27
     80.4700	  552.00	  609.93	-1793.08	  407.31
     80.5700	  570.00	  625.38	-1790.53	  407.35
     80.6700	  650.00	  642.49	-1727.65	  407.39
     80.7700	  622.00	  660.51	-1773.66	  407.42
     80.8700	  686.00	  678.33	-1727.49	  407.46
     80.9700	  668.00	  694.68	-1761.83	  407.49
     81.0700	  754.00	  708.30	-1689.45	  407.52
     81.1700	  727.00	  718.19	-1726.34	  407.56
     81.2700	  743.00	  723.64	-1715.79	  407.58
     81.3700	  698.00	  724.28	-1761.43	  407.61
     81.4700	  766.00	  720.15	-1689.30	  407.64
     81.5700	  742.00	  711.67	-1704.82	  407.66
     81.6700	  760.00	  699.49	-1674.64	  407.69
     81.7700	  706.00	  684.43	-1713.58	  407.71
     81.8700	  735.00	  667.47	-1667.62	  407.73
     81.9700	  732.00	  649.72	-1652.87	  407.75
     82.0700	  692.00	  632.19	-1675.34	  407.77
     82.1700	  647.00	  615.84	-1703.99	  407.78
     82.2700	  658.00	  601.17	-1678.32	  407.80
     82.3700	  632.00	  588.50	-1691.65	  407.81
     82.4700	  582.00	  577.93	-1731.08	  407.82
     82.5700	  613.00	  569.44	-1691.59	  407.83
     82.6700	  575.00	  562.99	-1723.14	  407.84
     82.7700	  549.00	  558.44	-1744.59	  407.85
     82.8700	  562.00	  555.65	-1728.80	  407.85
     82.9700	  522.00	  554.48	-1767.64	  407.86
     83.0700	  535.00	  554.84	-1754.99	  407.86
     83.1700	  533.00	  556.61	-1758.76	  407.86
     83.2700	  569.00	  559.65	-1725.81	  407.86
     83.3700	  544.00	  563.81	-1754.96	  407.86
     83.4700	  548.00	  568.81	-1755.96	  407.85
     83.5700	  524.00	  574.32	-1785.47	  407.85
     83.6700	  565.00	  579.89	-1750.04	  407.84
     83.7700	  582.00	  584.97	-1738.12	  407.83
     83.8700	  571.00	  588.96	-1753.11	  407.82
     83.9700	  536.00	  591.28	-1790.43	  407.81
     84.0700	  529.00	  591.53	-1797.69	  407.80
     84.1700	  561.00	  589.64	-1763.79	  407.78
     84.2700	  541.00	  585.87	-1780.02	  407.77
     84.3700	  591.00	  580.73	-1724.88	  407.75
     84.4700	  545.00	  574.79	-1764.94	  407.73
     84.5700	  520.00	  568.60	-1783.75	  407.71
     84.6700	  546.00	  562.59	-1751.74	  407.69
     84.7700	  547.00	  557.09	-1745.25	  407.66
     84.8700	  532.00	  552.32	-1755.47	  407.64
     84.9700	  554.00	  548.36	-1729.51	  407.61
     85.0700	  570.00	  545.23	-1710.38	  407.58
     85.1700	  537.00	  542.87	-1741.02	  407.55
     85.2700	  511.00	  541.18	-1765.34	  407.52
     85.3700	  538.00	  540.07	-1737.22	  407.48
     85.4700	  558.00	  539.41	-1716.57	  407.45
     85.5700	  520.00	  539.14	-1754.29	  407.41
     85.6700	  515.00	  539.20	-1759.35	  407.37
     85.7700	  521.00	  539.56	-1753.71	  407.33
     85.8700	  544.00	  540.23	-1731.39	  407.29
     85.9700	  519.00	  541.28	-1757.43	  407.25
     86.0700	  540.00	  542.78	-1737.94	  407.20
     86.1700	  522.00	  544.87	-1758.02	  407.15
     86.2700	  580.00	  547.68	-1702.83	  407.11
     86.3700	  535.00	  551.39	-1751.54	  407.06
     86.4700	  524.00	  556.16	-1767.31	  407.00
     86.5700	  586.00	  562.11	-1711.26	  406.95
     86.6700	  598.00	  569.29	-1706.45	  406.90
     86.7700	  600.00	  577.32	-1712.47	  406.84
     86.8700	  615.00	  586.60	-1706.75	  406.78
     86.9700	  561.00	  596.40	-1770.55	  406.72
     87.0700	  603.00	  606.15	-1738.31	  406.66
     87.1700	  609.00	  615.14	-1741.29	  406.60
     87.2700	  683.00	  622.52	-1674.67	  406.53
     87.3700	  628.00	  627.48	-1734.64	  406.47
     87.4700	  625.00	  629.41	-1739.56	  406.40
     87.5700	  691.00	  628.06	-1672.21	  406.33
     87.6700	  688.00	  623.69	-1670.84	  406.26
     87.7700	  659.00	  616.96	-1693.11	  406.19
     87.8700	  651.00	  608.74	-1692.89	  406.11
     87.9700	  638.00	  599.95	-1697.10	  406.04
     88.0700	  591.00	  591.43	-1735.59	  405.96
     88.1700	  565.00	  583.91	-1754.07	  405.88
     88.2700	  577.00	  577.95	-1736.10	  405.80
     88.3700	  550.00	  573.91	-1759.06	  405.72
     88.4700	  604.00	  571.99	-1703.15	  405.63
     88.5700	  556.00	  572.20	-1751.36	  405.55
     88.6700	  557.00	  574.39	-1752.54	  405.46
     88.7700	  582.00	  578.25	-1731.40	  405.37
     88.8700	  602.00	  583.35	-1716.50	  405.28
     88.9700	  606.00	  589.17	-1718.32	  405.19
     89.0700	  629.00	  595.10	-1701.25	  405.09
     89.1700	  578.00	  600.47	-1757.63	  405.00
     89.2700	  650.00	  604.62	-1689.78	  404.90
     89.3700	  586.00	  606.96	-1756.12	  404.80
     89.4700	  634.00	  607.11	-1708.27	  404.70
     89.5700	  666.00	  605.00	-1674.15	  404.60
     89.6700	  567.00	  600.86	-1769.02	  404.50
     89.7700	  598.00	  595.18	-1732.33	  404.39
     89.8700	  563.00	  588.49	-1760.65	  404.28
     89.9700	  562.00	  581.36	-1754.52	  404.18
     90.0700	  549.00	  574.26	-1760.41	  404.07
     90.1700	  522.00	  567.56	-1780.72	  403.95
     90.2700	  546.00	  561.54	-1750.70	  403.84
     90.3700	  528.00	  556.36	-1763.51	  403.73
     90.4700	  541.00	  552.08	-1746.23	  403.61
     90.5700	  538.00	  548.69	-1745.84	  403.49
     90.6700	  509.00	  546.13	-1772.29	  403.37
     90.7700	  581.00	  544.31	-1698.46	  403.25
     90.8700	  503.00	  543.11	-1775.26	  403.13
     90.9700	  502.00	  542.44	-1775.60	  403.01
     91.0700	  478.00	  542.23	-1799.38	  402.88
     91.1700	  529.00	  542.43	-1748.58	  402.75
     91.2700	  563.00	  543.03	-1715.18	  402.62
     91.3700	  517.00	  544.08	-1762.24	  402.49
     91.4700	  526.00	  545.66	-1754.82	  402.36
     91.5700	  523.00	  547.89	-1760.05	  402.23
     91.6700	  583.00	  550.94	-1703.09	  402.09
     91.7700	  532.00	  554.99	-1758.15	  401.96
     91.8700	  563.00	  560.27	-1732.43	  401.82
     91.9700	  563.00	  566.77	-1738.93	  401.68
     92.0700	  528.00	  575.12	-1782.27	  401.54
     92.1700	  562.00	  585.22	-1758.38	  401.40
     92.2700	  536.00	  597.15	-1796.30	  401.25
     92.3700	  633.00	  610.85	-1713.01	  401.11
     92.4700	  623.00	  626.15	-1738.31	  400.96
     92.5700	  653.00	  642.74	-1724.90	  400.81
     92.6700	  680.00	  660.17	-1715.32	  400.66
     92.7700	  693.00	  677.85	-1720.00	  400.51
     92.8700	  669.00	  695.09	-1761.24	  400.35
     92.9700	  783.00	  711.17	-1663.32	  400.20
     93.0700	  748.00	  725.49	-1712.64	  400.04
     93.1700	  795.00	  737.72	-1677.87	  399.89
     93.2700	  781.00	  747.91	-1702.06	  399.73
     93.3700	  853.00	  756.47	-1638.62	  399.57
     93.4700	  800.00	  763.99	-1699.14	  399.41
     93.5700	  832.00	  771.11	-1674.26	  399.24
     93.6700	  852.00	  778.41	-1661.56	  399.08
     93.7700	  760.00	  786.41	-1761.56	  398.91
     93.8700	  844.00	  795.55	-1686.70	  398.74
     93.9700	  785.00	  806.28	-1756.43	  398.58
     94.0700	  897.00	  818.94	-1657.09	  398.40
     94.1700	  865.00	  833.68	-1703.83	  398.23
     94.2700	  825.00	  850.28	-1760.43	  398.06
     94.3700	  851.00	  868.07	-1752.22	  397.89
     94.4700	  943.00	  885.93	-1678.08	  397.71
     94.5700	  940.00	  902.31	-1697.46	  397.53
     94.6700	  952.00	  915.38	-1698.53	  397.35
     94.7700	  920.00	  923.25	-1738.41	  397.17
     94.8700	  932.00	  924.32	-1727.48	  396.99
     94.9700	  943.00	  917.71	-1709.86	  396.81
     95.0700	  915.00	  903.50	-1723.65	  396.63
     95.1700	  897.00	  882.75	-1720.90	  396.44
     95.2700	  838.00	  857.15	-1754.31	  396.26
     95.3700	  746.00	  828.75	-1817.90	  396.07
     95.4700	  727.00	  799.59	-1807.74	  395.88
     95.5700	  710.00	  771.65	-1796.80	  395.69
     95.6700	  740.00	  746.72	-1741.88	  395.50
     95.7700	  719.00	  726.42	-1742.57	  395.30
     95.8700	  695.00	  712.19	-1752.34	  395.11
     95.9700	  669.00	  705.29	-1771.44	  394.91
     96.0700	  670.00	  706.80	-1771.96	  394.72
     96.1700	  716.00	  717.65	-1736.80	  394.52
     96.2700	  738.00	  738.52	-1735.67	  394.32
     96.3700	  760.00	  769.88	-1745.03	  394.12
     96.4700	  885.00	  811.81	-1661.97	  393.92
     96.5700	  862.00	  864.02	-1737.17	  393.72
     96.6700	  866.00	  925.61	-1794.76	  393.51
     96.7700	 1000.00	  995.08	-1730.23	  393.31
     96.8700	 1058.00	 1070.24	-1747.39	  393.10
     96.9700	 1170.00	 1148.16	-1713.31	  392.90
     97.0700	 1229.00	 1225.26	-1731.41	  392.69
     97.1700	 1350.00	 1297.35	-1682.51	  392.48
     97.2700	 1321.00	 1359.88	-1774.03	  392.27
     97.3700	 1419.00	 1408.31	-1724.46	  392.06
     97.4700	 1379.00	 1438.74	-1794.90	  391.85
     97.5700	 1438.00	 1448.66	-1745.82	  391.63
     97.6700	 1406.00	 1437.51	-1766.66	  391.42
     97.7700	 1409.00	 1406.79	-1732.94	  391.20
     97.8700	 1342.00	 1359.64	-1752.79	  390.99
     97.9700	 1242.00	 1300.16	-1793.31	  390.77
     98.0700	 1218.00	 1232.72	-1749.87	  390.55
     98.1700	 1157.00	 1161.70	-1739.86	  390.33
     98.2700	 1105.00	 1091.04	-1721.19	  390.11
     98.3700	 1051.00	 1024.16	-1708.31	  389.89
     98.4700	  925.00	  963.96	-1774.11	  389.67
     98.5700	  910.00	  912.73	-1737.88	  389.44
     98.6700	  848.00	  872.28	-1759.43	  389.22
     98.7700	  751.00	  843.95	-1828.10	  388.99
     98.8700	  839.00	  828.70	-1724.85	  388.77
     98.9700	  815.00	  827.19	-1747.34	  388.54
     99.0700	  817.00	  839.85	-1758.00	  388.31
     99.1700	  847.00	  866.88	-1755.04	  388.08
     99.2700	  889.00	  908.33	-1754.48	  387.86
     99.3700	  940.00	  963.98	-1759.13	  387.63
     99.4700	 1013.00	 1033.31	-1755.46	  387.39
     99.5700	 1097.00	 1115.41	-1753.56	  387.16
     99.6700	 1200.00	 1208.84	-1744.00	  386.93
     99.7700	 1250.00	 1311.64	-1796.79	  386.70
     99.8700	 1479.00	 1421.12	-1677.27	  386.46
     99.9700	 1481.00	 1533.87	-1788.02	  386.23
    100.0700	 1724.00	 1645.80	-1656.95	  385.99
    100.1700	 1747.00	 1752.37	-1740.52	  385.76
    100.2700	 1822.00	 1849.01	-1762.16	  385.52
    100.3700	 1980.00	 1931.59	-1686.74	  385.28
    100.4700	 1989.00	 1996.85	-1743.00	  385.05
    100.5700	 2128.00	 2042.51	-1649.66	  384.81
    100.6700	 1983.00	 2067.14	-1819.29	  384.57
    100.7700	 2096.00	 2069.97	-1709.12	  384.33
    100.8700	 2051.00	 2050.83	-1734.98	  384.09
    100.9700	 2107.00	 2010.41	-1638.56	  383.85
    101.0700	 2047.00	 1950.65	-1638.80	  383.61
    101.1700	 1914.00	 1874.89	-1696.05	  383.36
    101.2700	 1777.00	 1787.64	-1745.80	  383.12
    101.3700	 1746.00	 1694.01	-1683.17	  382.88
    101.4700	 1564.00	 1599.15	-1770.30	  382.64
    101.5700	 1566.00	 1507.63	-1676.78	  382.39
    101.6700	 1459.00	 1423.19	-1699.35	  382.15
    101.7700	 1402.00	 1348.50	-1681.65	  381.90
    101.8700	 1273.00	 1285.09	-1747.25	  381.66
    101.9700	 1252.00	 1233.46	-1716.61	  381.41
    102.0700	 1205.00	 1193.05	-1723.20	  381.17
    102.1700	 1122.00	 1162.43	-1775.59	  380.92
    102.2700	 1091.00	 1139.41	-1783.57	  380.68
    102.3700	 1156.00	 1121.32	-1700.47	  380.43
    102.4700	 1122.00	 1105.27	-1718.43	  380.18
    102.5700	 1141.00	 1088.56	-1682.71	  379.94
    102.6700	 1057.00	 1068.94	-1747.09	  379.69
    102.7700	  990.00	 1044.96	-1790.11	  379.44
    102.8700	 1011.00	 1016.08	-1740.23	  379.19
    102.9700	  964.00	  982.58	-1753.73	  378.95
    103.0700	  937.00	  945.31	-1743.46	  378.70
    103.1700	  859.00	  905.47	-1781.62	  378.45
    103.2700	  869.00	  864.38	-1730.53	  378.20
    103.3700	  821.00	  823.35	-1737.50	  377.95
    103.4700	  772.00	  783.58	-1746.73	  377.70
    103.5700	  744.00	  746.05	-1737.20	  377.46
    103.6700	  702.00	  711.54	-1744.69	  377.21
    103.7700	  716.00	  680.59	-1699.74	  376.96
    103.8700	  616.00	  653.50	-1772.65	  376.71
    103.9700	  610.00	  630.35	-1755.50	  376.46
    104.0700	  622.00	  611.03	-1724.18	  376.22
    104.1700	  592.00	  595.30	-1738.45	  375.97
    104.2700	  582.00	  582.82	-1735.97	  375.72
    104.3700	  545.00	  573.20	-1763.35	  375.47
    104.4700	  602.00	  566.02	-1699.18	  375.22
    104.5700	  546.00	  560.90	-1750.05	  374.98
    104.6700	  587.00	  557.45	-1705.60	  374.73
    104.7700	  529.00	  555.35	-1761.50	  374.48
    104.8700	  554.00	  554.33	-1735.48	  374.24
    104.9700	  526.00	  554.16	-1763.31	  373.99
    105.0700	  540.00	  554.67	-1749.82	  373.74
    105.1700	  527.00	  555.72	-1763.87	  373.50
    105.2700	  538.00	  557.22	-1754.37	  373.25
    105.3700	  485.00	  559.13	-1809.29	  373.01
    105.4700	  545.00	  561.45	-1751.61	  372.76
    105.5700	  519.00	  564.21	-1780.36	  372.52
    105.6700	  538.00	  567.47	-1764.62	  372.28
    105.7700	  609.00	  571.33	-1697.48	  372.03
    105.8700	  538.00	  575.89	-1773.05	  371.79
    105.9700	  568.00	  581.27	-1748.42	  371.55
    106.0700	  612.00	  587.53	-1710.69	  371.31
    106.1700	  593.00	  594.71	-1736.86	  371.07
    106.2700	  593.00	  602.77	-1744.92	  370.82
    106.3700	  596.00	  611.63	-1750.78	  370.59
    106.4700	  605.00	  621.14	-1751.29	  370.35
    106.5700	  581.00	  631.07	-1785.22	  370.11
    106.6700	  650.00	  641.14	-1726.29	  369.87
    106.7700	  647.00	  651.02	-1739.17	  369.63
    106.8700	  681.00	  660.33	-1714.48	  369.40
    106.9700	  684.00	  668.69	-1719.84	  369.16
    107.0700	  681.00	  675.75	-1729.90	  368.93
    107.1700	  695.00	  681.22	-1721.38	  368.69
    107.2700	  677.00	  684.97	-1743.12	  368.46
    107.3700	  696.00	  686.99	-1726.14	  368.23
    107.4700	  706.00	  687.48	-1716.63	  368.00
    107.5700	  670.00	  686.76	-1751.91	  367.77
    107.6700	  694.00	  685.24	-1726.39	  367.54
    107.7700	  644.00	  683.38	-1774.53	  367.31
    107.8700	  687.00	  681.57	-1729.72	  367.09
    107.9700	  656.00	  680.17	-1759.32	  366.86
    108.0700	  685.00	  679.40	-1729.56	  366.64
    108.1700	  698.00	  679.41	-1716.56	  366.41
    108.2700	  677.00	  680.19	-1738.35	  366.19
    108.3700	  694.00	  681.64	-1722.79	  365.97
    108.4700	  658.00	  683.52	-1760.67	  365.75
    108.5700	  667.00	  685.51	-1753.66	  365.53
    108.6700	  673.00	  687.22	-1749.37	  365.32
    108.7700	  709.00	  688.21	-1714.36	  365.10
    108.8700	  701.00	  688.06	-1722.22	  364.89
    108.9700	  655.00	  686.45	-1766.60	  364.67
    109.0700	  691.00	  683.13	-1727.28	  364.46
    109.1700	  664.00	  678.03	-1749.19	  364.25
    109.2700	  652.00	  671.23	-1754.38	  364.05
    109.3700	  686.00	  662.94	-1712.09	  363.84
    109.4700	  670.00	  653.45	-1718.60	  363.63
    109.5700	  613.00	  643.11	-1765.27	  363.43
    109.6700	  625.00	  632.30	-1742.45	  363.23
    109.7700	  570.00	  621.36	-1786.51	  363.03
    109.8700	  662.00	  610.61	-1683.76	  362.83
    109.9700	  617.00	  600.32	-1718.48	  362.63
    110.0700	  608.00	  590.74	-1717.90	  362.44
    110.1700	  576.00	  582.04	-1741.19	  362.24
    110.2700	  617.00	  574.33	-1692.48	  362.05
    110.3700	  580.00	  567.67	-1722.82	  361.86
    110.4700	  561.00	  562.08	-1736.24	  361.68
    110.5700	  564.00	  557.54	-1728.70	  361.49
    110.6700	  518.00	  554.00	-1771.15	  361.31
    110.7700	  568.00	  551.37	-1718.52	  361.12
    110.8700	  571.00	  549.55	-1713.71	  360.94
    110.9700	  572.00	  548.47	-1711.62	  360.77
    111.0700	  543.00	  548.01	-1740.16	  360.59
    111.1700	  565.00	  548.09	-1718.24	  360.42
    111.2700	  522.00	  548.62	-1761.77	  360.25
    111.3700	  531.00	  549.54	-1753.70	  360.08
    111.4700	  540.00	  550.80	-1745.95	  359.91
    111.5700	  523.00	  552.33	-1764.48	  359.75
    111.6700	  528.00	  554.10	-1761.26	  359.59
    111.7700	  571.00	  556.10	-1720.25	  359.43
    111.8700	  571.00	  558.31	-1722.46	  359.27
    111.9700	  530.00	  560.71	-1765.86	  359.11
    112.0700	  554.00	  563.31	-1744.47	  358.96
    112.1700	  583.00	  566.14	-1718.29	  358.81
    112.2700	  580.00	  569.19	-1724.34	  358.67
    112.3700	  609.00	  572.51	-1698.67	  358.52
    112.4700	  618.00	  576.14	-1693.29	  358.38
    112.5700	  596.00	  580.11	-1719.27	  358.24
    112.6700	  632.00	  584.51	-1687.66	  358.10
    112.7700	  571.00	  589.41	-1753.57	  357.97
    112.8700	  618.00	  594.93	-1712.09	  357.84
    112.9700	  597.00	  601.21	-1739.37	  357.71
    113.0700	  709.00	  608.44	-1634.60	  357.59
    113.1700	  717.00	  616.86	-1635.01	  357.46
    113.2700	  726.00	  626.80	-1635.95	  357.35
    113.3700	  733.00	  638.66	-1640.81	  357.23
    113.4700	  748.00	  652.94	-1640.10	  357.12
    113.5700	  802.00	  670.30	-1603.45	  357.01
    113.6700	  819.00	  691.52	-1607.68	  356.90
    113.7700	  884.00	  717.59	-1568.74	  356.80
    113.8700	  929.00	  749.65	-1555.81	  356.70
    113.9700	  972.00	  789.09	-1552.24	  356.60
    114.0700	 1011.00	  837.50	-1561.66	  356.50
    114.1700	 1071.00	  896.72	-1560.87	  356.41
    114.2700	 1084.00	  968.74	-1619.89	  356.33
    114.3700	 1228.00	 1055.78	-1562.93	  356.24
    114.4700	 1281.00	 1160.12	-1614.27	  356.16
    114.5700	 1428.00	 1284.15	-1591.31	  356.09
    114.6700	 1548.00	 1430.22	-1617.37	  356.01
    114.7700	 1693.00	 1600.46	-1642.62	  355.94
    114.8700	 1881.00	 1796.74	-1650.90	  355.88
    114.9700	 2107.00	 2020.43	-1648.58	  355.81
    115.0700	 2383.00	 2272.35	-1624.50	  355.76
    115.1700	 2636.00	 2552.58	-1651.73	  355.70
    115.2700	 2767.00	 2860.18	-1828.33	  355.65
    115.3700	 3088.00	 3193.21	-1840.36	  355.60
    115.4700	 3363.00	 3548.53	-1920.68	  355.56
    115.5700	 3816.00	 3921.87	-1841.02	  355.52
    115.6700	 4306.00	 4307.74	-1736.89	  355.49
    115.7700	 4508.00	 4699.28	-1926.43	  355.45
    115.8700	 4787.00	 5088.52	-2036.67	  355.43
    115.9700	 5340.00	 5466.32	-1861.47	  355.40
    116.0700	 5622.00	 5822.76	-1935.91	  355.39
    116.1700	 6042.00	 6147.27	-1840.42	  355.37
    116.2700	 6355.00	 6428.93	-1809.08	  355.36
    116.3700	 6591.00	 6657.27	-1801.42	  355.36
    116.4700	 6829.00	 6822.96	-1729.11	  355.35
    116.5700	 6842.00	 6918.84	-1811.99	  355.36
    116.6700	 6916.00	 6940.61	-1759.76	  355.36
    116.7700	 6879.00	 6887.43	-1743.59	  355.38
    116.8700	 6785.00	 6762.10	-1712.26	  355.39
    116.9700	 6711.00	 6570.65	-1594.80	  355.41
    117.0700	 6274.00	 6321.51	-1782.67	  355.44
    117.1700	 6225.00	 6024.66	-1534.81	  355.47
    117.2700	 5559.00	 5690.81	-1866.96	  355.51
    117.3700	 5221.00	 5330.68	-1844.83	  355.55
    117.4700	 5050.00	 4954.52	-1639.67	  355.59
    117.5700	 4655.00	 4571.65	-1651.80	  355.64
    117.6700	 4289.00	 4190.32	-1636.48	  355.70
    117.7700	 3923.00	 3817.78	-1629.93	  355.76
    117.8700	 3639.00	 3459.95	-1556.10	  355.82
    117.9700	 3313.00	 3121.58	-1543.73	  355.89
    118.0700	 2954.00	 2806.08	-1587.23	  355.97
    118.1700	 2540.00	 2515.74	-1710.89	  356.05
    118.2700	 2182.00	 2251.91	-1805.06	  356.13
    118.3700	 2008.00	 2014.94	-1742.10	  356.23
    118.4700	 1746.00	 1804.48	-1793.63	  356.32
    118.5700	 1549.00	 1619.44	-1805.60	  356.42
    118.6700	 1341.00	 1458.31	-1852.46	  356.53
    118.7700	 1217.00	 1319.25	-1837.41	  356.64
    118.8700	 1110.00	 1200.22	-1825.37	  356.76
    118.9700	 1014.00	 1099.07	-1820.22	  356.89
    119.0700	  977.00	 1013.63	-1771.79	  357.02
    119.1700	  912.00	  941.84	-1764.99	  357.15
    119.2700	  840.00	  881.76	-1776.91	  357.29
    119.3700	  749.00	  831.63	-1817.78	  357.44
    119.4700	  740.00	  789.90	-1785.05	  357.60
    119.5700	  658.00	  755.18	-1832.34	  357.76
    119.6700	  627.00	  726.30	-1834.45	  357.92
    119.7700	  659.00	  702.25	-1778.40	  358.09
    119.8700	  641.00	  682.20	-1776.35	  358.27
    119.9700	  627.00	  665.47	-1773.62	  358.45
    120.0700	  608.00	  651.48	-1778.63	  358.64
    120.1700	  600.00	  639.78	-1774.93	  358.84
    120.2700	  578.00	  630.00	-1787.15	  359.04
    120.3700	  598.00	  621.84	-1758.99	  359.25
    120.4700	  560.00	  615.07	-1790.23	  359.47
    120.5700	  583.00	  609.51	-1761.67	  359.69
    120.6700	  539.00	  605.01	-1801.16	  359.92
    120.7700	  553.00	  601.45	-1783.60	  360.15
    120.8700	  560.00	  598.74	-1773.90	  360.40
    120.9700	  571.00	  596.82	-1760.97	  360.65
    121.0700	  554.00	  595.62	-1776.77	  360.90
    121.1700	  539.00	  595.09	-1791.24	  361.16
    121.2700	  553.00	  595.18	-1777.34	  361.43
    121.3700	  595.00	  595.86	-1736.02	  361.71
    121.4700	  606.00	  597.08	-1726.23	  361.99
    121.5700	  602.00	  598.78	-1731.93	  362.28
    121.6700	  625.00	  600.90	-1711.06	  362.58
    121.7700	  576.00	  603.40	-1762.55	  362.89
    121.8700	  601.00	  606.18	-1740.33	  363.20
    121.9700	  603.00	  609.20	-1741.35	  363.52
    122.0700	  631.00	  612.35	-1716.50	  363.85
    122.1700	  650.00	  615.54	-1700.70	  364.18
    122.2700	  632.00	  618.69	-1721.84	  364.53
    122.3700	  648.00	  621.67	-1708.83	  364.88
    122.4700	  579.00	  624.41	-1780.56	  365.23
    122.5700	  628.00	  626.78	-1733.93	  365.60
    122.6700	  653.00	  628.72	-1710.87	  365.97
    122.7700	  629.00	  630.16	-1736.31	  366.35
    122.8700	  626.00	  631.03	-1740.18	  366.74
    122.9700	  626.00	  631.32	-1740.47	  367.14
    123.0700	  645.00	  631.01	-1721.16	  367.55
    123.1700	  678.00	  630.14	-1687.29	  367.96
    123.2700	  645.00	  628.73	-1718.88	  368.38
    123.3700	  668.00	  626.85	-1694.00	  368.81
    123.4700	  714.00	  624.56	-1645.71	  369.25
    123.5700	  627.00	  621.93	-1730.08	  369.69
    123.6700	  630.00	  619.03	-1724.18	  370.15
    123.7700	  586.00	  615.93	-1765.08	  370.61
    123.8700	  641.00	  612.70	-1706.85	  371.08
    123.9700	  685.00	  609.41	-1659.56	  371.57
    124.0700	  655.00	  606.11	-1686.26	  372.05
    124.1700	  594.00	  602.85	-1744.00	  372.55
    124.2700	  610.00	  599.68	-1724.83	  373.06
    124.3700	  584.00	  596.63	-1747.79	  373.58
    124.4700	  566.00	  593.74	-1762.90	  374.10
    124.5700	  636.00	  591.03	-1690.18	  374.63
    124.6700	  599.00	  588.50	-1724.66	  375.18
    124.7700	  588.00	  586.19	-1733.34	  375.73
    124.8700	  599.00	  584.09	-1720.24	  376.29
    124.9700	  590.00	  495.31	-1640.47	  376.86
    125.0700	  577.00	  495.89	-1735.15	  377.44
    125.1700	  574.00	  496.48	-1735.15	  378.03
    125.2700	  557.00	  497.08	-1735.15	  378.63
    125.3700	  583.00	  497.69	-1735.15	  379.24
    125.4700	  563.00	  498.31	-1735.15	  379.86
    125.5700	  590.00	  498.94	-1735.15	  380.49
    125.6700	  621.00	  499.58	-1735.15	  381.13
    125.7700	  551.00	  500.22	-1735.15	  381.77
    125.8700	  578.00	  500.88	-1735.15	  382.43
    125.9700	  606.00	  501.55	-1735.15	  383.10
    126.0700	  558.00	  502.23	-1735.15	  383.78
    126.1700	  525.00	  502.92	-1735.15	  384.47
    126.2700	  585.00	  503.61	-1735.15	  385.16
    126.3700	  608.00	  504.32	-1735.15	  385.87
    126.4700	  595.00	  505.04	-1735.15	  386.59
    126.5700	  593.00	  505.77	-1735.15	  387.32
    126.6700	  582.00	  506.51	-1735.15	  388.06
    126.7700	  642.00	  507.26	-1735.15	  388.81
    126.8700	  617.00	  508.02	-1735.15	  389.57
    126.9700	  611.00	  508.80	-1735.15	  390.35
    127.0700	  623.00	  509.58	-1735.15	  391.13
    127.1700	  638.00	  510.37	-1735.15	  391.92
    127.2700	  666.00	  511.18	-1735.15	  392.73
    127.3700	  635.00	  511.99	-1735.15	  393.54
    127.4700	  664.00	  512.82	-1735.15	  394.37
    127.5700	  717.00	  513.66	-1735.15	  395.21
    127.6700	  734.00	  514.51	-1735.15	  396.06
    127.7700	  702.00	  515.37	-1735.15	  396.92
    127.8700	  703.00	  516.24	-1735.15	  397.79
    127.9700	  763.00	  517.13	-1735.15	  398.68
    128.0700	  693.00	  518.02	-1735.15	  399.57
    128.1700	  744.00	  518.93	-1735.15	  400.48
    128.2700	  807.00	  519.85	-1735.15	  401.40
    128.3700	  778.00	  520.78	-1735.15	  402.33
    128.4700	  778.00	  521.72	-1735.15	  403.27
    128.5700	    0.00	  522.68	-1735.15	  404.22
    128.6700	    0.00	  523.64	-1735.15	  405.19
     12.3071	        	        	        	        	       0	(  0  0  2)	  0  1
     24.8883	        	        	        	        	       0	(  0  0  4)	  0  1
     28.3322	        	        	        	        	       0	(  1  0  0)	  0  1
     29.0292	        	        	        	        	       0	(  1  0  1)	  0  1
     31.0350	        	        	        	        	       0	(  1  0  2)	  0  1
     34.1426	        	        	        	        	       0	(  1  0  3)	  0  1
     37.7852	        	        	        	        	       0	(  0  0  6)	  0  1
     38.1187	        	        	        	        	       0	(  1  0  4)	  0  1
     42.7677	        	        	        	        	       0	(  1  0  5)	  0  1
     47.9505	        	        	        	        	       0	(  1  0  6)	  0  1
     50.2676	        	        	        	        	       0	(  1  1  0)	  0  1
     51.2041	        	        	        	        	       0	(  0  0  8)	  0  1
     51.9901	        	        	        	        	       0	(  1  1  2)	  0  1
     53.5796	        	        	        	        	       0	(  1  0  7)	  0  1
     56.9366	        	        	        	        	       0	(  1  1  4)	  0  1
     58.7638	        	        	        	        	       0	(  2  0  0)	  0  1
     59.1553	        	        	        	        	       0	(  2  0  1)	  0  1
     59.6085	        	        	        	        	       0	(  1  0  8)	  0  1
     60.3204	        	        	        	        	       0	(  2  0  2)	  0  1
     62.2331	        	        	        	        	       0	(  2  0  3)	  0  1
     64.6292	        	        	        	        	       0	(  1  1  6)	  0  1
     64.8564	        	        	        	        	       0	(  2  0  4)	  0  1
     65.4297	        	        	        	        	       0	(  0  0 10)	  0  1
     66.0232	        	        	        	        	       0	(  1  0  9)	  0  1
     68.1497	        	        	        	        	       0	(  2  0  5)	  0  1
     72.0760	        	        	        	        	       0	(  2  0  6)	  0  1
     72.8373	        	        	        	        	       0	(  1  0 10)	  0  1
     74.6640	        	        	        	        	       0	(  1  1  8)	  0  1
     76.6088	        	        	        	        	       0	(  2  0  7)	  0  1
     80.0927	        	        	        	        	       0	(  1  0 11)	  0  1
     80.9055	        	        	        	        	       0	(  0  0 12)	  0  1
     81.0029	        	        	        	        	       0	(  2  1  0)	  0  1
     81.3427	        	        	        	        	       0	(  2  1  1)	  0  1
     81.7374	        	        	        	        	       0	(  2  0  8)	  0  1
     82.3602	        	        	        	        	       0	(  2  1  2)	  0  1
     84.0510	        	        	        	        	       0	(  2  1  3)	  0  1
     86.4098	        	        	        	        	       0	(  2  1  4)	  0  1
     86.9314	        	        	        	        	       0	(  1  1 10)	  0  1
     87.4735	        	        	        	        	       0	(  2  0  9)	  0  1
     87.8643	        	        	        	        	       0	(  1  0 12)	  0  1
     89.4346	        	        	        	        	       0	(  2  1  5)	  0  1
     93.1307	        	        	        	        	       0	(  2  1  6)	  0  1
     93.8586	        	        	        	        	       0	(  2  0 10)	  0  1
     94.8901	        	        	        	        	       0	(  3  0  0)	  0  1
     95.2273	        	        	        	        	       0	(  3  0  1)	  0  1
     96.2402	        	        	        	        	       0	(  3  0  2)	  0  1
     96.2743	        	        	        	        	       0	(  1  0 13)	  0  1
     97.5176	        	        	        	        	       0	(  2  1  7)	  0  1
     97.9329	        	        	        	        	       0	(  3  0  3)	  0  1
     98.4381	        	        	        	        	       0	(  0  0 14)	  0  1
    100.3150	        	        	        	        	       0	(  3  0  4)	  0  1
    100.9775	        	        	        	        	       0	(  2  0 11)	  0  1
    101.7959	        	        	        	        	       0	(  1  1 12)	  0  1
    102.6380	        	        	        	        	       0	(  2  1  8)	  0  1
    103.4053	        	        	        	        	       0	(  3  0  5)	  0  1
    105.5227	        	        	        	        	       0	(  1  0 14)	  0  1
    107.2389	        	        	        	        	       0	(  3  0  6)	  0  1
    108.5723	        	        	        	        	       0	(  2  1  9)	  0  1
    108.9851	        	        	        	        	       0	(  2  0 12)	  0  1
    111.8771	        	        	        	        	       0	(  3  0  7)	  0  1
    115.4657	        	        	        	        	       0	(  2  1 10)	  0  1
    115.9604	        	        	        	        	       0	(  1  0 15)	  0  1
    116.6115	        	        	        	        	       0	(  2  2  0)	  0  1
    117.4278	        	        	        	        	       0	(  3  0  8)	  0  1
    118.1260	        	        	        	        	       0	(  2  2  2)	  0  1
    118.1644	        	        	        	        	       0	(  2  0 13)	  0  1
    119.9147	        	        	        	        	       0	(  0  0 16)	  0  1
    120.6300	        	        	        	        	       0	(  1  1 14)	  0  1
    122.8091	        	        	        	        	       0	(  2  2  4)	  0  1
    123.5881	        	        	        	        	       0	(  2  1 11)	  0  1
    124.0840	        	        	        	        	       0	(  3  0  9)	  0  1
    124.6748	        	        	        	        	       0	(  3  1  0)	  0  1
    125.0848	        	        	        	        	       0	(  3  1  1)	  0  1
    126.3276	        	        	        	        	       0	(  3  1  2)	  0  1
    128.2950	        	        	        	        	       0	(  1  0 16)	  0  1
    128.4447	        	        	        	        	       0	(  3  1  3)	  0  1
    129.0870	        	        	        	        	       0	(  2  0 14)	  0  1
    131.2442	        	        	        	        	       0	(  2  2  6)	  0  1
    131.5188	        	        	        	        	       0	(  3  1  4)	  0  1
    132.2194	        	        	        	        	       0	(  3  0 10)	  0  1
    133.4935	        	        	        	        	       0	(  2  1 12)	  0  1
    135.7031	        	        	        	        	       0	(  3  1  5)	  0  1
    141.2943	        	        	        	        	       0	(  3  1  6)	  0  1
    142.6892	        	        	        	        	       0	(  3  0 11)	  0  1
    143.2137	        	        	        	        	       0	(  2  0 15)	  0  1
    144.4482	        	        	        	        	       0	(  1  0 17)	  0  1
    145.4669	        	        	        	        	       0	(  2  2  8)	  0  1
    146.6363	        	        	        	        	       0	(  2  1 13)	  0  1
    148.9601	        	        	        	        	       0	(  3  1  7)	  0  1
    149.5377	        	        	        	        	       0	(  1  1 16)	  0  1
    153.9269	        	        	        	        	       0	(  0  0 18)	  0  1
    158.5444	        	        	        	        	       0	(  3  0 12)	  0  1
    158.8107	        	        	        	        	       0	(  4  0  0)	  0  1
    159.7659	        	        	        	        	       0	(  4  0  1)	  0  1
    160.9344	        	        	        	        	       0	(  3  1  8)	  0  1
    162.9377	        	        	        	        	       0	(  4  0  2)	  0  1
    169.5760	        	        	        	        	       0	(  2  0 16)	  0  1
    170.2530	        	        	        	        	       0	(  4  0  3)	  0  1
    173.9493	        	        	        	        	       0	(  2  1 14)	  0  1
