MSG Master    CELL:    5.90215   5.90215  23.17857   90.0000   90.0000  120.0000   SPGR: P 63/m m c             TEMP:    806.55
  1   1280     2.52000     0.00000    -0.12830     0.00000     0.00000    0
    98     0     2
       0.00000      10.00000
     125.00000     130.00000
 2Theta	Yobs	Ycal	Yobs-Ycal	Backg	Posr	(hkl)	K
      0.7700	    0.00	  454.47	-1770.75	  349.50
      0.8700	    0.00	  456.60	-1770.75	  351.63
      0.9700	   41.00	  458.70	-1770.75	  353.73
      1.0700	   51.00	  460.78	-1770.75	  355.81
      1.1700	   53.00	  462.84	-1770.75	  357.87
      1.2700	   50.00	  464.88	-1770.75	  359.91
      1.3700	   40.00	  466.89	-1770.75	  361.92
      1.4700	   89.00	  468.89	-1770.75	  363.92
      1.5700	  276.00	  470.86	-1770.75	  365.89
      1.6700	  485.00	  472.81	-1770.75	  367.84
      1.7700	  569.00	  474.74	-1770.75	  369.77
      1.8700	  655.00	  476.65	-1770.75	  371.68
      1.9700	  712.00	  478.53	-1770.75	  373.56
      2.0700	  780.00	  480.40	-1770.75	  375.43
      2.1700	  826.00	  482.25	-1770.75	  377.28
      2.2700	  776.00	  484.07	-1770.75	  379.10
      2.3700	  661.00	  485.88	-1770.75	  380.91
      2.4700	  678.00	  487.66	-1770.75	  382.69
      2.5700	  689.00	  489.42	-1770.75	  384.45
      2.6700	  684.00	  491.17	-1770.75	  386.20
      2.7700	  661.00	  492.89	-1770.75	  387.92
      2.8700	  627.00	  494.60	-1770.75	  389.63
      2.9700	  649.00	  496.28	-1770.75	  391.31
      3.0700	  595.00	  497.94	-1770.75	  392.97
      3.1700	  596.00	  499.59	-1770.75	  394.62
      3.2700	  697.00	  501.21	-1770.75	  396.25
      3.3700	  805.00	  502.82	-1770.75	  397.85
      3.4700	  927.00	  504.41	-1770.75	  399.44
      3.5700	 1067.00	  505.98	-1770.75	  401.01
      3.6700	 1164.00	  507.53	-1770.75	  402.56
      3.7700	 1182.00	  509.06	-1770.75	  404.09
      3.8700	 1324.00	  510.57	-1770.75	  405.60
      3.9700	 1391.00	  512.06	-1770.75	  407.09
      4.0700	 1433.00	  513.54	-1770.75	  408.57
      4.1700	 1409.00	  514.99	-1770.75	  410.03
      4.2700	 1370.00	  516.43	-1770.75	  411.46
      4.3700	 1462.00	  517.85	-1770.75	  412.88
      4.4700	 1359.00	  519.26	-1770.75	  414.29
      4.5700	 1312.00	  520.64	-1770.75	  415.67
      4.6700	 1230.00	  522.01	-1770.75	  417.04
      4.7700	 1218.00	  523.36	-1770.75	  418.39
      4.8700	 1237.00	  524.69	-1770.75	  419.72
      4.9700	 1148.00	  526.00	-1770.75	  421.04
      5.0700	 1165.00	  527.30	-1770.75	  422.33
      5.1700	 1064.00	  528.58	-1770.75	  423.61
      5.2700	 1001.00	  529.85	-1770.75	  424.88
      5.3700	 1070.00	  531.09	-1770.75	  426.12
      5.4700	 1059.00	  532.32	-1770.75	  427.35
      5.5700	  989.00	  533.53	-1770.75	  428.56
      5.6700	  997.00	  534.73	-1770.75	  429.76
      5.7700	  952.00	  535.91	-1770.75	  430.94
      5.8700	  974.00	  537.07	-1770.75	  432.10
      5.9700	  895.00	  538.22	-1770.75	  433.25
      6.0700	  919.00	  539.35	-1770.75	  434.38
      6.1700	  857.00	  540.47	-1770.75	  435.50
      6.2700	  860.00	  541.57	-1770.75	  436.60
      6.3700	  882.00	  542.65	-1770.75	  437.68
      6.4700	  807.00	  543.72	-1770.75	  438.75
      6.5700	  866.00	  544.77	-1770.75	  439.80
      6.6700	  833.00	  545.81	-1770.75	  440.84
      6.7700	  825.00	  546.83	-1770.75	  441.86
      6.8700	  801.00	  547.83	-1770.75	  442.86
      6.9700	  786.00	  548.82	-1770.75	  443.85
      7.0700	  740.00	  549.80	-1770.75	  444.83
      7.1700	  732.00	  550.76	-1770.75	  445.79
      7.2700	  767.00	  551.71	-1770.75	  446.74
      7.3700	  741.00	  552.64	-1770.75	  447.67
      7.4700	  722.00	  553.55	-1770.75	  448.58
      7.5700	  747.00	  554.46	-1770.75	  449.49
      7.6700	  733.00	  555.34	-1770.75	  450.37
      7.7700	  696.00	  556.22	-1770.75	  451.25
      7.8700	  688.00	  557.08	-1770.75	  452.11
      7.9700	  726.00	  557.92	-1770.75	  452.95
      8.0700	  643.00	  558.75	-1770.75	  453.78
      8.1700	  672.00	  559.57	-1770.75	  454.60
      8.2700	  644.00	  560.37	-1770.75	  455.40
      8.3700	  704.00	  561.16	-1770.75	  456.19
      8.4700	  678.00	  561.94	-1770.75	  456.97
      8.5700	  683.00	  562.70	-1770.75	  457.73
      8.6700	  644.00	  563.45	-1770.75	  458.48
      8.7700	  658.00	  564.18	-1770.75	  459.21
      8.8700	  664.00	  564.91	-1770.75	  459.94
      8.9700	  628.00	  565.62	-1770.75	  460.65
      9.0700	  615.00	  566.31	-1770.75	  461.34
      9.1700	  622.00	  567.00	-1770.75	  462.03
      9.2700	  592.00	  567.67	-1770.75	  462.70
      9.3700	  614.00	  568.32	-1770.75	  463.35
      9.4700	  664.00	  568.97	-1770.75	  464.00
      9.5700	  630.00	  569.60	-1770.75	  464.63
      9.6700	  663.00	  570.22	-1770.75	  465.25
      9.7700	  596.00	  570.83	-1770.75	  465.86
      9.8700	  605.00	  571.43	-1770.75	  466.46
      9.9700	  633.00	  572.01	-1770.75	  467.04
     10.0700	  630.00	  575.39	-1716.14	  467.61
     10.1700	  586.00	  576.13	-1760.88	  468.17
     10.2700	  669.00	  576.91	-1678.66	  468.72
     10.3700	  611.00	  577.73	-1737.48	  469.25
     10.4700	  576.00	  578.63	-1773.38	  469.78
     10.5700	  636.00	  579.65	-1714.40	  470.29
     10.6700	  580.00	  580.87	-1771.62	  470.79
     10.7700	  617.00	  582.37	-1736.12	  471.28
     10.8700	  602.00	  584.22	-1752.97	  471.76
     10.9700	  626.00	  586.47	-1731.22	  472.23
     11.0700	  605.00	  589.13	-1754.88	  472.68
     11.1700	  605.00	  592.21	-1757.96	  473.13
     11.2700	  585.00	  595.73	-1781.48	  473.56
     11.3700	  610.00	  599.75	-1760.50	  473.99
     11.4700	  620.00	  604.41	-1755.16	  474.40
     11.5700	  622.00	  609.88	-1758.63	  474.80
     11.6700	  649.00	  616.43	-1738.18	  475.19
     11.7700	  613.00	  624.39	-1782.14	  475.57
     11.8700	  675.00	  634.06	-1729.81	  475.94
     11.9700	  631.00	  645.23	-1784.98	  476.30
     12.0700	  718.00	  656.72	-1709.47	  476.65
     12.1700	  714.00	  665.62	-1722.37	  476.99
     12.2700	  717.00	  667.23	-1720.98	  477.32
     12.3700	  702.00	  657.87	-1726.62	  477.64
     12.4700	  660.00	  640.81	-1751.56	  477.95
     12.5700	  615.00	  623.67	-1779.42	  478.25
     12.6700	  634.00	  610.63	-1747.38	  478.54
     12.7700	  558.00	  602.09	-1814.84	  478.82
     12.8700	  615.00	  597.01	-1752.76	  479.09
     12.9700	  557.00	  594.11	-1807.86	  479.35
     13.0700	  593.00	  592.44	-1770.19	  479.60
     13.1700	  585.00	  591.41	-1777.16	  479.85
     13.2700	  586.00	  590.74	-1775.49	  480.08
     13.3700	  599.00	  590.28	-1762.03	  480.30
     13.4700	  538.00	  589.96	-1822.71	  480.52
     13.5700	  599.00	  589.78	-1761.53	  480.73
     13.6700	  572.00	  589.63	-1788.38	  480.92
     13.7700	  601.00	  589.54	-1759.29	  481.11
     13.8700	  572.00	  589.49	-1788.24	  481.29
     13.9700	  614.00	  589.46	-1746.21	  481.46
     14.0700	  572.00	  589.46	-1788.21	  481.62
     14.1700	  585.00	  589.47	-1775.22	  481.78
     14.2700	  583.00	  589.50	-1777.25	  481.92
     14.3700	  550.00	  589.53	-1810.28	  482.06
     14.4700	  551.00	  589.57	-1809.32	  482.19
     14.5700	  555.00	  589.61	-1805.36	  482.31
     14.6700	  574.00	  589.65	-1786.40	  482.42
     14.7700	  561.00	  589.69	-1799.44	  482.53
     14.8700	  593.00	  589.73	-1767.48	  482.62
     14.9700	  575.00	  589.77	-1785.52	  482.71
     15.0700	  557.00	  589.81	-1803.56	  482.79
     15.1700	  568.00	  589.84	-1792.59	  482.87
     15.2700	  566.00	  589.87	-1794.62	  482.93
     15.3700	  582.00	  589.90	-1778.65	  482.99
     15.4700	  591.00	  589.92	-1769.67	  483.04
     15.5700	  567.00	  589.94	-1793.69	  483.08
     15.6700	  559.00	  589.95	-1801.70	  483.12
     15.7700	  567.00	  589.96	-1793.71	  483.14
     15.8700	  580.00	  589.96	-1780.71	  483.17
     15.9700	  574.00	  589.95	-1786.70	  483.18
     16.0700	  534.00	  589.94	-1826.69	  483.19
     16.1700	  546.00	  589.93	-1814.68	  483.19
     16.2700	  615.00	  589.91	-1745.66	  483.18
     16.3700	  533.00	  589.88	-1827.63	  483.16
     16.4700	  593.00	  589.85	-1767.60	  483.14
     16.5700	  620.00	  589.81	-1740.56	  483.12
     16.6700	  538.00	  589.77	-1822.52	  483.08
     16.7700	  614.00	  589.72	-1746.47	  483.04
     16.8700	  571.00	  589.66	-1789.41	  482.99
     16.9700	  551.00	  589.60	-1809.35	  482.94
     17.0700	  638.00	  589.54	-1722.29	  482.88
     17.1700	  573.00	  589.47	-1787.22	  482.81
     17.2700	  589.00	  589.39	-1771.14	  482.74
     17.3700	  542.00	  589.42	-1818.17	  482.66
     17.4700	  552.00	  589.33	-1808.08	  482.58
     17.5700	  562.00	  589.24	-1797.99	  482.49
     17.6700	  538.00	  589.14	-1821.89	  482.39
     17.7700	  588.00	  589.03	-1771.78	  482.29
     17.8700	  558.00	  589.04	-1801.79	  482.18
     17.9700	  557.00	  588.93	-1802.68	  482.06
     18.0700	  543.00	  588.81	-1816.56	  481.94
     18.1700	  564.00	  588.69	-1795.44	  481.82
     18.2700	  578.00	  588.56	-1781.31	  481.69
     18.3700	  557.00	  588.43	-1802.18	  481.55
     18.4700	  581.00	  588.29	-1778.04	  481.41
     18.5700	  594.00	  588.15	-1764.90	  481.26
     18.6700	  593.00	  588.00	-1765.75	  481.11
     18.7700	  568.00	  587.85	-1790.60	  480.95
     18.8700	  587.00	  587.70	-1771.45	  480.78
     18.9700	  618.00	  587.53	-1740.28	  480.61
     19.0700	  569.00	  587.37	-1789.12	  480.44
     19.1700	  532.00	  587.20	-1825.95	  480.26
     19.2700	  599.00	  587.03	-1758.78	  480.08
     19.3700	  545.00	  586.85	-1812.60	  479.89
     19.4700	  549.00	  586.70	-1808.45	  479.70
     19.5700	  575.00	  586.52	-1782.27	  479.50
     19.6700	  566.00	  586.33	-1791.08	  479.30
     19.7700	  590.00	  586.13	-1766.88	  479.09
     19.8700	  563.00	  585.94	-1793.69	  478.88
     19.9700	  576.00	  585.73	-1780.48	  478.66
     20.0700	  562.00	  585.53	-1794.28	  478.44
     20.1700	  563.00	  585.32	-1793.07	  478.21
     20.2700	  575.00	  585.11	-1780.86	  477.99
     20.3700	  554.00	  584.89	-1801.64	  477.75
     20.4700	  576.00	  584.67	-1779.42	  477.51
     20.5700	  557.00	  584.45	-1798.20	  477.27
     20.6700	  596.00	  584.23	-1758.98	  477.02
     20.7700	  561.00	  584.00	-1793.75	  476.77
     20.8700	  598.00	  583.77	-1756.52	  476.52
     20.9700	  541.00	  583.54	-1813.29	  476.26
     21.0700	  606.00	  583.30	-1748.05	  476.00
     21.1700	  580.00	  583.06	-1773.81	  475.73
     21.2700	  572.00	  582.83	-1781.58	  475.46
     21.3700	  593.00	  582.58	-1760.33	  475.19
     21.4700	  542.00	  582.34	-1811.09	  474.91
     21.5700	  568.00	  582.10	-1784.85	  474.63
     21.6700	  606.00	  581.85	-1746.60	  474.35
     21.7700	  519.00	  581.61	-1833.36	  474.06
     21.8700	  562.00	  581.37	-1790.12	  473.77
     21.9700	  578.00	  581.12	-1773.87	  473.47
     22.0700	  571.00	  581.03	-1780.78	  473.17
     22.1700	  606.00	  580.80	-1745.55	  472.87
     22.2700	  600.00	  580.56	-1751.31	  472.57
     22.3700	  560.00	  580.32	-1791.07	  472.26
     22.4700	  564.00	  580.09	-1786.84	  471.95
     22.5700	  567.00	  579.87	-1783.62	  471.64
     22.6700	  580.00	  579.65	-1770.40	  471.32
     22.7700	  577.00	  579.44	-1773.19	  471.00
     22.8700	  588.00	  579.24	-1761.99	  470.68
     22.9700	  583.00	  579.05	-1766.80	  470.35
     23.0700	  579.00	  578.89	-1770.64	  470.02
     23.1700	  562.00	  578.74	-1787.49	  469.69
     23.2700	  553.00	  578.62	-1796.37	  469.36
     23.3700	  578.00	  578.49	-1771.24	  469.02
     23.4700	  585.00	  578.45	-1764.20	  468.68
     23.5700	  558.00	  578.47	-1791.22	  468.34
     23.6700	  568.00	  578.58	-1781.33	  467.99
     23.7700	  568.00	  578.81	-1781.56	  467.65
     23.8700	  601.00	  579.25	-1749.00	  467.30
     23.9700	  582.00	  580.01	-1768.76	  466.95
     24.0700	  569.00	  581.32	-1783.07	  466.59
     24.1700	  600.00	  583.52	-1754.27	  466.23
     24.2700	  561.00	  587.07	-1796.82	  465.88
     24.3700	  584.00	  592.49	-1779.24	  465.51
     24.4700	  604.00	  600.17	-1766.92	  465.15
     24.5700	  637.00	  610.12	-1743.87	  464.79
     24.6700	  663.00	  621.55	-1729.30	  464.42
     24.7700	  661.00	  632.35	-1742.10	  464.05
     24.8700	  694.00	  638.76	-1715.51	  463.68
     24.9700	  651.00	  636.50	-1756.25	  463.31
     25.0700	  666.00	  625.34	-1730.09	  462.93
     25.1700	  626.00	  610.81	-1755.56	  462.55
     25.2700	  612.00	  598.01	-1756.76	  462.17
     25.3700	  595.00	  588.70	-1764.45	  461.79
     25.4700	  577.00	  582.65	-1776.40	  461.41
     25.5700	  608.00	  578.94	-1741.69	  461.03
     25.6700	  612.00	  576.70	-1735.45	  460.64
     25.7700	  603.00	  575.26	-1743.01	  460.26
     25.8700	  584.00	  574.28	-1761.03	  459.87
     25.9700	  618.00	  573.57	-1726.32	  459.48
     26.0700	  590.00	  573.04	-1753.79	  459.09
     26.1700	  639.00	  572.66	-1704.41	  458.69
     26.2700	  604.00	  572.40	-1739.15	  458.30
     26.3700	  607.00	  572.26	-1736.01	  457.90
     26.4700	  609.00	  572.24	-1733.99	  457.50
     26.5700	  619.00	  572.33	-1724.08	  457.11
     26.6700	  605.00	  572.56	-1738.31	  456.71
     26.7700	  640.00	  572.95	-1703.70	  456.31
     26.8700	  574.00	  573.52	-1770.27	  455.90
     26.9700	  643.00	  574.33	-1702.08	  455.50
     27.0700	  594.00	  575.45	-1752.20	  455.10
     27.1700	  630.00	  576.97	-1717.72	  454.69
     27.2700	  630.00	  579.09	-1719.84	  454.29
     27.3700	  613.00	  582.14	-1739.89	  453.88
     27.4700	  601.00	  586.79	-1756.54	  453.47
     27.5700	  601.00	  594.21	-1763.96	  453.06
     27.6700	  623.00	  606.37	-1754.12	  452.65
     27.7700	  648.00	  626.12	-1748.87	  452.24
     27.8700	  633.00	  656.67	-1794.42	  451.83
     27.9700	  667.00	  700.06	-1803.81	  451.42
     28.0700	  764.00	  754.79	-1761.54	  451.01
     28.1700	  878.00	  813.45	-1706.20	  450.59
     28.2700	  914.00	  860.94	-1717.69	  450.18
     28.3700	  943.00	  877.49	-1705.24	  449.77
     28.4700	  956.00	  856.86	-1671.61	  449.35
     28.5700	  871.00	  822.98	-1722.73	  448.93
     28.6700	  758.00	  804.79	-1817.54	  448.52
     28.7700	  788.00	  812.31	-1795.06	  448.10
     28.8700	  830.00	  838.02	-1778.77	  447.69
     28.9700	  839.00	  861.98	-1793.73	  447.27
     29.0700	  848.00	  858.69	-1781.44	  446.85
     29.1700	  856.00	  815.91	-1730.66	  446.43
     29.2700	  755.00	  751.32	-1767.07	  446.01
     29.3700	  738.00	  690.16	-1722.91	  445.60
     29.4700	  689.00	  644.05	-1725.80	  445.18
     29.5700	  662.00	  613.80	-1722.55	  444.76
     29.6700	  596.00	  595.66	-1770.41	  444.34
     29.7700	  670.00	  585.16	-1685.91	  443.92
     29.8700	  616.00	  578.94	-1733.69	  443.50
     29.9700	  656.00	  575.07	-1689.82	  443.08
     30.0700	  642.00	  572.67	-1701.42	  442.66
     30.1700	  635.00	  571.49	-1707.24	  442.24
     30.2700	  642.00	  571.65	-1700.40	  441.82
     30.3700	  639.00	  573.66	-1705.41	  441.40
     30.4700	  605.00	  578.42	-1744.17	  440.99
     30.5700	  598.00	  587.03	-1759.78	  440.57
     30.6700	  641.00	  600.29	-1730.04	  440.15
     30.7700	  659.00	  617.78	-1729.53	  439.73
     30.8700	  611.00	  636.91	-1796.66	  439.31
     30.9700	  683.00	  652.37	-1740.12	  438.89
     31.0700	  662.00	  656.78	-1765.53	  438.47
     31.1700	  653.00	  645.74	-1763.49	  438.06
     31.2700	  580.00	  624.33	-1815.08	  437.64
     31.3700	  590.00	  601.97	-1782.72	  437.22
     31.4700	  592.00	  584.03	-1762.78	  436.81
     31.5700	  618.00	  571.63	-1724.38	  436.39
     31.6700	  572.00	  563.87	-1762.62	  435.97
     31.7700	  616.00	  559.26	-1714.01	  435.56
     31.8700	  558.00	  556.49	-1769.24	  435.14
     31.9700	  584.00	  554.73	-1741.48	  434.73
     32.0700	  595.00	  553.55	-1729.30	  434.32
     32.1700	  569.00	  552.73	-1754.48	  433.90
     32.2700	  557.00	  552.19	-1765.94	  433.49
     32.3700	  607.00	  551.88	-1715.63	  433.08
     32.4700	  533.00	  551.81	-1789.56	  432.67
     32.5700	  566.00	  551.97	-1756.72	  432.26
     32.6700	  612.00	  552.38	-1711.13	  431.85
     32.7700	  625.00	  553.10	-1698.85	  431.44
     32.8700	  573.00	  554.18	-1751.93	  431.03
     32.9700	  576.00	  555.75	-1750.50	  430.62
     33.0700	  618.00	  558.01	-1710.76	  430.21
     33.1700	  641.00	  561.25	-1691.00	  429.81
     33.2700	  575.00	  566.17	-1761.92	  429.40
     33.3700	  573.00	  574.05	-1771.80	  429.00
     33.4700	  589.00	  587.15	-1768.90	  428.59
     33.5700	  587.00	  609.04	-1792.79	  428.19
     33.6700	  617.00	  644.26	-1798.01	  427.79
     33.7700	  698.00	  696.83	-1769.58	  427.39
     33.8700	  741.00	  766.86	-1796.61	  426.99
     33.9700	  916.00	  846.58	-1701.33	  426.59
     34.0700	  961.00	  917.67	-1727.42	  426.19
     34.1700	 1057.00	  952.73	-1666.48	  425.79
     34.2700	  956.00	  929.71	-1744.46	  425.40
     34.3700	  899.00	  857.81	-1729.56	  425.00
     34.4700	  769.00	  770.97	-1772.72	  424.61
     34.5700	  732.00	  694.89	-1733.65	  424.22
     34.6700	  612.00	  638.73	-1797.48	  423.82
     34.7700	  594.00	  601.72	-1778.47	  423.43
     34.8700	  602.00	  579.09	-1747.84	  423.04
     34.9700	  581.00	  565.59	-1755.34	  422.66
     35.0700	  580.00	  557.24	-1747.99	  422.27
     35.1700	  551.00	  551.65	-1771.40	  421.88
     35.2700	  511.00	  547.57	-1807.32	  421.50
     35.3700	  535.00	  544.40	-1780.15	  421.12
     35.4700	  525.00	  542.33	-1788.08	  420.74
     35.5700	  522.00	  540.21	-1788.96	  420.36
     35.6700	  514.00	  538.41	-1795.16	  419.98
     35.7700	  506.00	  536.87	-1801.62	  419.60
     35.8700	  549.00	  535.52	-1757.27	  419.22
     35.9700	  486.00	  534.34	-1819.09	  418.85
     36.0700	  480.00	  533.28	-1824.03	  418.47
     36.1700	  551.00	  532.34	-1752.09	  418.10
     36.2700	  509.00	  531.48	-1793.23	  417.73
     36.3700	  493.00	  530.70	-1808.45	  417.36
     36.4700	  510.00	  529.97	-1790.72	  416.99
     36.5700	  506.00	  529.32	-1794.07	  416.63
     36.6700	  538.00	  528.74	-1761.49	  416.26
     36.7700	  491.00	  528.22	-1807.97	  415.90
     36.8700	  506.00	  527.77	-1792.52	  415.54
     36.9700	  505.00	  527.42	-1793.17	  415.18
     37.0700	  569.00	  527.20	-1728.95	  414.82
     37.1700	  532.00	  527.21	-1765.96	  414.46
     37.2700	  520.00	  527.56	-1778.31	  414.10
     37.3700	  472.00	  528.58	-1827.33	  413.75
     37.4700	  516.00	  530.00	-1784.75	  413.40
     37.5700	  523.00	  532.00	-1779.75	  413.05
     37.6700	  504.00	  534.30	-1801.05	  412.70
     37.7700	  523.00	  536.32	-1784.07	  412.35
     37.8700	  551.00	  537.22	-1756.97	  412.00
     37.9700	  567.00	  536.37	-1740.12	  411.66
     38.0700	  544.00	  534.04	-1760.79	  411.32
     38.1700	  512.00	  531.09	-1789.84	  410.98
     38.2700	  512.00	  528.18	-1786.93	  410.64
     38.3700	  498.00	  525.64	-1798.39	  410.30
     38.4700	  477.00	  523.62	-1817.37	  409.96
     38.5700	  509.00	  522.10	-1783.85	  409.63
     38.6700	  531.00	  520.99	-1760.74	  409.30
     38.7700	  508.00	  520.15	-1782.90	  408.97
     38.8700	  529.00	  519.50	-1761.25	  408.64
     38.9700	  516.00	  518.96	-1773.71	  408.31
     39.0700	  509.00	  518.49	-1780.24	  407.99
     39.1700	  506.00	  518.07	-1782.82	  407.66
     39.2700	  499.00	  517.68	-1789.43	  407.34
     39.3700	  519.00	  517.31	-1769.06	  407.02
     39.4700	  544.00	  516.85	-1743.60	  406.70
     39.5700	  510.00	  516.52	-1777.27	  406.39
     39.6700	  507.00	  516.20	-1779.95	  406.07
     39.7700	  493.00	  515.90	-1793.65	  405.76
     39.8700	  561.00	  515.61	-1725.36	  405.45
     39.9700	  502.00	  515.33	-1784.08	  405.14
     40.0700	  529.00	  515.66	-1757.41	  404.84
     40.1700	  538.00	  515.41	-1748.16	  404.53
     40.2700	  557.00	  515.18	-1728.93	  404.23
     40.3700	  482.00	  514.86	-1803.61	  403.93
     40.4700	  471.00	  514.66	-1814.41	  403.63
     40.5700	  485.00	  514.48	-1800.23	  403.33
     40.6700	  465.00	  514.32	-1820.07	  403.04
     40.7700	  514.00	  514.19	-1770.94	  402.75
     40.8700	  516.00	  514.07	-1768.82	  402.46
     40.9700	  493.00	  513.99	-1791.74	  402.17
     41.0700	  487.00	  513.94	-1797.69	  401.88
     41.1700	  505.00	  513.94	-1779.69	  401.60
     41.2700	  487.00	  513.98	-1797.73	  401.31
     41.3700	  514.00	  514.09	-1770.84	  401.03
     41.4700	  484.00	  514.28	-1801.03	  400.75
     41.5700	  498.00	  514.57	-1787.32	  400.48
     41.6700	  533.00	  515.01	-1752.76	  400.20
     41.7700	  491.00	  515.77	-1795.52	  399.93
     41.8700	  479.00	  516.78	-1808.53	  399.66
     41.9700	  509.00	  518.50	-1780.25	  399.39
     42.0700	  506.00	  521.19	-1785.94	  399.12
     42.1700	  510.00	  525.67	-1786.42	  398.86
     42.2700	  519.00	  532.89	-1784.64	  398.60
     42.3700	  525.00	  543.82	-1789.57	  398.34
     42.4700	  502.00	  559.02	-1827.77	  398.08
     42.5700	  529.00	  577.90	-1819.65	  397.82
     42.6700	  564.00	  597.93	-1804.68	  397.57
     42.7700	  607.00	  614.35	-1778.10	  397.32
     42.8700	  553.00	  620.55	-1838.30	  397.07
     42.9700	  588.00	  613.29	-1796.04	  396.82
     43.0700	  591.00	  595.79	-1775.54	  396.57
     43.1700	  560.00	  574.89	-1785.64	  396.33
     43.2700	  518.00	  555.69	-1808.44	  396.09
     43.3700	  523.00	  540.51	-1788.26	  395.85
     43.4700	  549.00	  529.68	-1751.43	  395.61
     43.5700	  510.00	  522.54	-1783.29	  395.38
     43.6700	  552.00	  518.05	-1736.80	  395.14
     43.7700	  507.00	  515.25	-1779.00	  394.91
     43.8700	  503.00	  513.43	-1781.18	  394.68
     43.9700	  507.00	  512.18	-1775.93	  394.46
     44.0700	  530.00	  511.46	-1752.21	  394.23
     44.1700	  532.00	  510.73	-1749.48	  394.01
     44.2700	  511.00	  510.14	-1769.89	  393.79
     44.3700	  524.00	  509.66	-1756.41	  393.57
     44.4700	  475.00	  509.25	-1805.00	  393.36
     44.5700	  506.00	  508.92	-1773.67	  393.14
     44.6700	  520.00	  508.64	-1759.39	  392.93
     44.7700	  521.00	  508.41	-1758.16	  392.72
     44.8700	  544.00	  508.22	-1734.97	  392.51
     44.9700	  512.00	  508.07	-1766.82	  392.31
     45.0700	  510.00	  507.95	-1768.70	  392.11
     45.1700	  536.00	  507.87	-1742.62	  391.91
     45.2700	  517.00	  507.81	-1761.56	  391.71
     45.3700	  551.00	  507.79	-1727.54	  391.51
     45.4700	  466.00	  507.88	-1812.62	  391.32
     45.5700	  513.00	  507.91	-1765.66	  391.12
     45.6700	  488.00	  507.98	-1790.73	  390.93
     45.7700	  497.00	  508.14	-1781.89	  390.75
     45.8700	  475.00	  508.28	-1804.03	  390.56
     45.9700	  470.00	  508.45	-1809.20	  390.38
     46.0700	  531.00	  508.67	-1748.42	  390.20
     46.1700	  514.00	  508.93	-1765.68	  390.02
     46.2700	  495.00	  509.25	-1785.00	  389.84
     46.3700	  530.00	  509.62	-1750.37	  389.66
     46.4700	  515.00	  509.91	-1765.66	  389.49
     46.5700	  525.00	  510.43	-1756.18	  389.32
     46.6700	  514.00	  511.04	-1767.79	  389.15
     46.7700	  507.00	  511.77	-1775.52	  388.99
     46.8700	  491.00	  512.65	-1792.40	  388.82
     46.9700	  543.00	  513.76	-1741.51	  388.66
     47.0700	  491.00	  515.21	-1794.96	  388.50
     47.1700	  509.00	  517.22	-1778.97	  388.34
     47.2700	  488.00	  520.14	-1802.89	  388.19
     47.3700	  581.00	  524.48	-1714.23	  388.03
     47.4700	  496.00	  530.85	-1805.60	  387.88
     47.5700	  584.00	  539.83	-1726.58	  387.73
     47.6700	  534.00	  551.66	-1788.41	  387.59
     47.7700	  567.00	  565.90	-1769.65	  387.44
     47.8700	  616.00	  581.02	-1735.77	  387.30
     47.9700	  579.00	  594.49	-1786.24	  387.16
     48.0700	  604.00	  601.62	-1768.37	  387.02
     48.1700	  584.00	  600.40	-1787.15	  386.88
     48.2700	  529.00	  592.10	-1833.85	  386.75
     48.3700	  590.00	  580.68	-1761.43	  386.62
     48.4700	  592.00	  569.70	-1748.45	  386.49
     48.5700	  559.00	  561.21	-1772.96	  386.36
     48.6700	  534.00	  556.01	-1792.76	  386.23
     48.7700	  542.00	  554.14	-1782.89	  386.11
     48.8700	  556.00	  555.27	-1770.02	  385.99
     48.9700	  562.00	  559.01	-1767.76	  385.87
     49.0700	  541.00	  565.25	-1795.00	  385.75
     49.1700	  566.00	  574.31	-1779.06	  385.64
     49.2700	  581.00	  587.32	-1777.07	  385.52
     49.3700	  585.00	  606.81	-1792.56	  385.41
     49.4700	  628.00	  637.55	-1780.30	  385.30
     49.5700	  596.00	  687.54	-1862.29	  385.20
     49.6700	  646.00	  768.33	-1893.08	  385.09
     49.7700	  838.00	  893.76	-1826.51	  384.99
     49.8700	 1007.00	 1075.97	-1839.72	  384.89
     49.9700	 1249.00	 1318.74	-1840.49	  384.79
     50.0700	 1554.00	 1609.17	-1825.92	  384.69
     50.1700	 1955.00	 1909.17	-1724.92	  384.60
     50.2700	 2265.00	 2151.04	-1656.79	  384.51
     50.3700	 2387.00	 2252.99	-1636.74	  384.41
     50.4700	 2174.00	 2169.99	-1766.74	  384.33
     50.5700	 1974.00	 1937.91	-1734.66	  384.24
     50.6700	 1674.00	 1640.16	-1736.91	  384.15
     50.7700	 1209.00	 1349.58	-1911.33	  384.07
     50.8700	 1019.00	 1106.92	-1858.67	  383.99
     50.9700	  812.00	  926.50	-1885.25	  383.91
     51.0700	  730.00	  804.94	-1845.69	  383.84
     51.1700	  671.00	  729.41	-1829.16	  383.76
     51.2700	  630.00	  684.38	-1825.12	  383.69
     51.3700	  656.00	  656.08	-1770.83	  383.62
     51.4700	  606.00	  635.16	-1799.91	  383.55
     51.5700	  626.00	  617.22	-1761.97	  383.48
     51.6700	  583.00	  601.31	-1789.06	  383.42
     51.7700	  598.00	  587.68	-1760.43	  383.35
     51.8700	  564.00	  576.63	-1783.38	  383.29
     51.9700	  591.00	  568.20	-1747.95	  383.23
     52.0700	  578.00	  562.21	-1754.96	  383.18
     52.1700	  554.00	  558.36	-1775.11	  383.12
     52.2700	  577.00	  556.34	-1750.09	  383.07
     52.3700	  585.00	  555.93	-1741.68	  383.01
     52.4700	  599.00	  557.11	-1728.86	  382.96
     52.5700	  585.00	  560.14	-1745.89	  382.92
     52.6700	  576.00	  565.76	-1760.51	  382.87
     52.7700	  603.00	  575.33	-1743.08	  382.83
     52.8700	  610.00	  591.10	-1751.85	  382.78
     52.9700	  599.00	  616.20	-1787.95	  382.74
     53.0700	  714.00	  654.41	-1711.16	  382.70
     53.1700	  728.00	  709.31	-1752.06	  382.67
     53.2700	  799.00	  782.82	-1754.57	  382.63
     53.3700	  918.00	  873.49	-1726.24	  382.60
     53.4700	 1042.00	  974.20	-1702.95	  382.57
     53.5700	 1116.00	 1070.38	-1725.13	  382.54
     53.6700	 1156.00	 1139.72	-1754.47	  382.51
     53.7700	 1218.00	 1159.33	-1712.08	  382.48
     53.8700	 1139.00	 1121.27	-1753.02	  382.46
     53.9700	 1038.00	 1040.00	-1772.75	  382.44
     54.0700	  904.00	  940.26	-1807.01	  382.42
     54.1700	  780.00	  842.31	-1833.06	  382.40
     54.2700	  745.00	  757.90	-1783.65	  382.38
     54.3700	  645.00	  691.79	-1817.54	  382.36
     54.4700	  657.00	  644.02	-1757.77	  382.35
     54.5700	  624.00	  611.84	-1758.59	  382.34
     54.6700	  598.00	  591.45	-1764.20	  382.32
     54.7700	  581.00	  579.23	-1768.98	  382.32
     54.8700	  588.00	  572.31	-1755.06	  382.31
     54.9700	  593.00	  568.77	-1746.52	  382.30
     55.0700	  609.00	  567.46	-1729.21	  382.30
     55.1700	  594.00	  567.78	-1744.53	  382.30
     55.2700	  557.00	  569.43	-1783.18	  382.29
     55.3700	  567.00	  572.35	-1776.10	  382.30
     55.4700	  598.00	  576.58	-1749.33	  382.30
     55.5700	  562.00	  582.33	-1791.08	  382.30
     55.6700	  622.00	  589.99	-1738.74	  382.31
     55.7700	  573.00	  600.28	-1798.03	  382.31
     55.8700	  618.00	  614.58	-1767.33	  382.32
     55.9700	  635.00	  635.37	-1771.12	  382.33
     56.0700	  666.00	  666.87	-1771.62	  382.34
     56.1700	  704.00	  715.70	-1782.45	  382.36
     56.2700	  760.00	  791.08	-1801.83	  382.37
     56.3700	  870.00	  904.15	-1804.90	  382.39
     56.4700	 1013.00	 1065.82	-1823.57	  382.40
     56.5700	 1227.00	 1282.82	-1826.57	  382.42
     56.6700	 1501.00	 1553.04	-1822.79	  382.44
     56.7700	 1858.00	 1859.95	-1772.70	  382.47
     56.8700	 2104.00	 2167.57	-1834.32	  382.49
     56.9700	 2344.00	 2418.00	-1844.75	  382.51
     57.0700	 2608.00	 2542.27	-1705.02	  382.54
     57.1700	 2496.00	 2496.79	-1771.54	  382.57
     57.2700	 2318.00	 2298.29	-1751.04	  382.60
     57.3700	 1932.00	 2010.22	-1848.97	  382.63
     57.4700	 1693.00	 1699.42	-1777.17	  382.66
     57.5700	 1335.00	 1412.43	-1848.18	  382.69
     57.6700	 1103.00	 1173.97	-1841.72	  382.73
     57.7700	 1025.00	  992.36	-1738.11	  382.76
     57.8700	  832.00	  864.66	-1803.41	  382.80
     57.9700	  810.00	  782.10	-1742.85	  382.84
     58.0700	  722.00	  734.49	-1783.24	  382.88
     58.1700	  728.00	  713.21	-1755.96	  382.92
     58.2700	  752.00	  712.48	-1731.23	  382.96
     58.3700	  691.00	  729.21	-1808.96	  383.00
     58.4700	  773.00	  761.98	-1759.73	  383.05
     58.5700	  851.00	  809.74	-1729.49	  383.09
     58.6700	  911.00	  870.36	-1730.11	  383.14
     58.7700	 1017.00	  939.39	-1693.14	  383.19
     58.8700	 1077.00	 1009.70	-1703.45	  383.24
     58.9700	 1104.00	 1073.73	-1740.48	  383.29
     59.0700	 1235.00	 1126.44	-1662.19	  383.34
     59.1700	 1283.00	 1164.58	-1652.33	  383.39
     59.2700	 1316.00	 1183.99	-1638.74	  383.45
     59.3700	 1304.00	 1182.24	-1648.99	  383.50
     59.4700	 1282.00	 1164.61	-1653.36	  383.56
     59.5700	 1324.00	 1143.33	-1590.08	  383.62
     59.6700	 1197.00	 1130.48	-1704.23	  383.68
     59.7700	 1186.00	 1133.33	-1718.08	  383.74
     59.8700	 1145.00	 1155.52	-1781.27	  383.80
     59.9700	 1252.00	 1199.42	-1718.17	  383.86
     60.0700	 1316.00	 1265.65	-1720.40	  383.92
     60.1700	 1394.00	 1349.04	-1725.79	  383.99
     60.2700	 1461.00	 1435.21	-1744.96	  384.05
     60.3700	 1557.00	 1500.42	-1714.17	  384.12
     60.4700	 1572.00	 1517.83	-1716.58	  384.18
     60.5700	 1521.00	 1472.26	-1722.01	  384.25
     60.6700	 1412.00	 1371.42	-1730.17	  384.32
     60.7700	 1240.00	 1239.28	-1770.03	  384.39
     60.8700	 1189.00	 1100.71	-1682.46	  384.46
     60.9700	 1016.00	  973.60	-1728.35	  384.53
     61.0700	  851.00	  868.16	-1787.91	  384.60
     61.1700	  778.00	  788.74	-1781.49	  384.68
     61.2700	  755.00	  735.65	-1751.40	  384.75
     61.3700	  666.00	  707.29	-1812.04	  384.83
     61.4700	  732.00	  701.92	-1740.67	  384.90
     61.5700	  682.00	  718.78	-1807.53	  384.98
     61.6700	  726.00	  758.36	-1803.11	  385.06
     61.7700	  831.00	  821.51	-1761.26	  385.13
     61.8700	  884.00	  908.08	-1794.83	  385.21
     61.9700	  979.00	 1015.04	-1806.79	  385.29
     62.0700	 1108.00	 1134.80	-1797.55	  385.37
     62.1700	 1189.00	 1253.69	-1835.44	  385.45
     62.2700	 1261.00	 1351.38	-1861.13	  385.54
     62.3700	 1352.00	 1404.21	-1822.96	  385.62
     62.4700	 1317.00	 1395.69	-1849.44	  385.70
     62.5700	 1290.00	 1327.90	-1808.65	  385.79
     62.6700	 1138.00	 1219.92	-1852.67	  385.87
     62.7700	 1028.00	 1095.37	-1838.12	  385.96
     62.8700	  947.00	  973.03	-1796.78	  386.04
     62.9700	  823.00	  864.79	-1812.54	  386.13
     63.0700	  708.00	  776.51	-1839.26	  386.22
     63.1700	  689.00	  709.35	-1791.10	  386.31
     63.2700	  615.00	  661.45	-1817.20	  386.39
     63.3700	  641.00	  629.26	-1759.01	  386.48
     63.4700	  607.00	  608.97	-1772.72	  386.57
     63.5700	  616.00	  597.37	-1752.12	  386.66
     63.6700	  596.00	  592.27	-1767.02	  386.75
     63.7700	  585.00	  592.60	-1778.35	  386.84
     63.8700	  612.00	  598.33	-1757.08	  386.94
     63.9700	  660.00	  610.29	-1721.04	  387.03
     64.0700	  638.00	  629.63	-1762.38	  387.12
     64.1700	  713.00	  657.73	-1715.48	  387.21
     64.2700	  695.00	  695.53	-1771.28	  387.31
     64.3700	  787.00	  742.92	-1726.67	  387.40
     64.4700	  837.00	  798.19	-1731.94	  387.50
     64.5700	  891.00	  857.39	-1737.14	  387.59
     64.6700	  928.00	  913.96	-1756.71	  387.69
     64.7700	 1007.00	  959.26	-1723.01	  387.78
     64.8700	  997.00	  984.33	-1758.08	  387.88
     64.9700	 1053.00	  984.61	-1702.36	  387.97
     65.0700	  995.00	  961.40	-1737.15	  388.07
     65.1700	  907.00	  920.85	-1784.60	  388.17
     65.2700	  861.00	  871.19	-1780.94	  388.26
     65.3700	  821.00	  819.68	-1769.43	  388.36
     65.4700	  775.00	  772.60	-1768.35	  388.46
     65.5700	  745.00	  732.01	-1757.76	  388.56
     65.6700	  692.00	  698.23	-1776.98	  388.66
     65.7700	  640.00	  670.39	-1801.14	  388.75
     65.8700	  592.00	  647.73	-1826.48	  388.85
     65.9700	  595.00	  629.28	-1805.03	  388.95
     66.0700	  625.00	  614.90	-1760.65	  389.05
     66.1700	  559.00	  603.92	-1815.67	  389.15
     66.2700	  592.00	  596.07	-1774.82	  389.25
     66.3700	  541.00	  590.99	-1820.74	  389.35
     66.4700	  574.00	  588.43	-1785.18	  389.45
     66.5700	  541.00	  588.20	-1817.95	  389.55
     66.6700	  600.00	  590.32	-1761.07	  389.65
     66.7700	  580.00	  594.77	-1785.52	  389.75
     66.8700	  614.00	  602.07	-1758.82	  389.85
     66.9700	  593.00	  613.20	-1790.95	  389.95
     67.0700	  636.00	  629.88	-1764.62	  390.05
     67.1700	  659.00	  654.86	-1766.61	  390.15
     67.2700	  694.00	  692.15	-1768.90	  390.25
     67.3700	  709.00	  747.05	-1808.80	  390.35
     67.4700	  822.00	  825.64	-1774.39	  390.44
     67.5700	  886.00	  934.23	-1818.98	  390.54
     67.6700	 1062.00	 1077.71	-1786.46	  390.64
     67.7700	 1269.00	 1257.82	-1759.57	  390.74
     67.8700	 1458.00	 1471.05	-1783.80	  390.84
     67.9700	 1669.00	 1706.87	-1808.62	  390.94
     68.0700	 1963.00	 1946.01	-1753.76	  391.04
     68.1700	 2203.00	 2159.60	-1727.35	  391.14
     68.2700	 2327.00	 2311.23	-1754.98	  391.24
     68.3700	 2327.00	 2366.92	-1810.67	  391.34
     68.4700	 2301.00	 2312.02	-1781.77	  391.44
     68.5700	 2205.00	 2160.99	-1726.74	  391.54
     68.6700	 2021.00	 1947.82	-1697.57	  391.63
     68.7700	 1714.00	 1709.01	-1765.76	  391.73
     68.8700	 1483.00	 1473.52	-1761.27	  391.83
     68.9700	 1159.00	 1260.62	-1872.37	  391.93
     69.0700	 1078.00	 1080.88	-1773.63	  392.02
     69.1700	  929.00	  937.75	-1779.50	  392.12
     69.2700	  834.00	  829.51	-1766.26	  392.22
     69.3700	  746.00	  751.29	-1776.04	  392.31
     69.4700	  706.00	  696.82	-1761.57	  392.41
     69.5700	  654.00	  659.90	-1776.65	  392.50
     69.6700	  607.00	  635.23	-1798.98	  392.60
     69.7700	  600.00	  618.72	-1789.47	  392.69
     69.8700	  616.00	  607.56	-1762.31	  392.79
     69.9700	  637.00	  599.90	-1733.65	  392.88
     70.0700	  592.00	  594.63	-1773.38	  392.98
     70.1700	  533.00	  591.05	-1828.80	  393.07
     70.2700	  602.00	  588.65	-1757.40	  393.16
     70.3700	  637.00	  587.63	-1721.38	  393.25
     70.4700	  587.00	  587.79	-1771.54	  393.35
     70.5700	  592.00	  590.18	-1768.93	  393.44
     70.6700	  588.00	  593.13	-1775.88	  393.53
     70.7700	  588.00	  598.12	-1780.87	  393.62
     70.8700	  578.00	  606.00	-1798.75	  393.71
     70.9700	  613.00	  618.11	-1775.86	  393.80
     71.0700	  631.00	  636.42	-1776.17	  393.89
     71.1700	  650.00	  663.66	-1784.41	  393.97
     71.2700	  708.00	  703.25	-1766.00	  394.06
     71.3700	  738.00	  759.11	-1791.86	  394.15
     71.4700	  860.00	  835.10	-1745.85	  394.23
     71.5700	  900.00	  934.25	-1805.00	  394.32
     71.6700	 1060.00	 1057.72	-1768.47	  394.40
     71.7700	 1251.00	 1203.75	-1723.50	  394.49
     71.8700	 1276.00	 1366.64	-1861.39	  394.57
     71.9700	 1494.00	 1535.81	-1812.56	  394.66
     72.0700	 1668.00	 1695.25	-1798.00	  394.74
     72.1700	 1782.00	 1823.80	-1812.55	  394.82
     72.2700	 1810.00	 1898.74	-1859.49	  394.90
     72.3700	 1850.00	 1903.78	-1824.53	  394.98
     72.4700	 1773.00	 1837.68	-1835.43	  395.06
     72.5700	 1762.00	 1715.06	-1723.81	  395.14
     72.6700	 1615.00	 1558.41	-1714.16	  395.21
     72.7700	 1356.00	 1389.34	-1804.09	  395.29
     72.8700	 1257.00	 1224.56	-1738.31	  395.37
     72.9700	 1085.00	 1075.31	-1761.06	  395.44
     73.0700	  997.00	  947.83	-1721.58	  395.52
     73.1700	  903.00	  844.33	-1712.08	  395.59
     73.2700	  805.00	  763.93	-1729.68	  395.66
     73.3700	  737.00	  703.83	-1737.58	  395.73
     73.4700	  700.00	  660.30	-1731.05	  395.81
     73.5700	  663.00	  629.49	-1737.24	  395.88
     73.6700	  663.00	  607.95	-1715.70	  395.94
     73.7700	  674.00	  592.91	-1689.66	  396.01
     73.8700	  635.00	  582.32	-1718.07	  396.08
     73.9700	  600.00	  574.79	-1745.54	  396.15
     74.0700	  610.00	  569.38	-1730.13	  396.21
     74.1700	  601.00	  565.00	-1734.75	  396.27
     74.2700	  618.00	  562.33	-1715.08	  396.34
     74.3700	  594.00	  560.58	-1737.33	  396.40
     74.4700	  592.00	  559.54	-1738.29	  396.46
     74.5700	  604.00	  559.01	-1725.76	  396.52
     74.6700	  585.00	  558.75	-1744.50	  396.58
     74.7700	  619.00	  558.53	-1710.28	  396.64
     74.8700	  631.00	  558.08	-1697.83	  396.70
     74.9700	  633.00	  557.20	-1694.95	  396.75
     75.0700	  594.00	  555.86	-1732.61	  396.81
     75.1700	  620.00	  554.17	-1704.92	  396.86
     75.2700	  632.00	  552.42	-1691.17	  396.91
     75.3700	  624.00	  550.93	-1697.68	  396.96
     75.4700	  609.00	  550.05	-1711.80	  397.01
     75.5700	  590.00	  550.14	-1730.89	  397.06
     75.6700	  603.00	  551.59	-1719.34	  397.11
     75.7700	  552.00	  554.82	-1773.57	  397.16
     75.8700	  624.00	  560.25	-1707.00	  397.20
     75.9700	  555.00	  568.26	-1784.01	  397.25
     76.0700	  637.00	  579.12	-1712.87	  397.29
     76.1700	  640.00	  592.87	-1723.62	  397.33
     76.2700	  589.00	  609.42	-1791.17	  397.37
     76.3700	  627.00	  628.16	-1771.91	  397.41
     76.4700	  656.00	  648.09	-1762.84	  397.45
     76.5700	  713.00	  667.70	-1725.45	  397.48
     76.6700	  774.00	  684.97	-1681.72	  397.52
     76.7700	  735.00	  697.46	-1733.21	  397.55
     76.8700	  702.00	  703.15	-1771.90	  397.59
     76.9700	  717.00	  700.78	-1754.53	  397.62
     77.0700	  678.00	  690.75	-1783.50	  397.65
     77.1700	  680.00	  674.86	-1765.61	  397.68
     77.2700	  632.00	  655.47	-1794.22	  397.70
     77.3700	  588.00	  634.79	-1817.54	  397.73
     77.4700	  559.00	  614.55	-1826.30	  397.75
     77.5700	  555.00	  595.98	-1811.73	  397.78
     77.6700	  603.00	  579.81	-1747.56	  397.80
     77.7700	  577.00	  566.35	-1760.10	  397.82
     77.8700	  522.00	  555.60	-1804.35	  397.84
     77.9700	  588.00	  547.28	-1730.03	  397.86
     78.0700	  561.00	  541.12	-1750.87	  397.87
     78.1700	  542.00	  536.65	-1765.40	  397.89
     78.2700	  509.00	  533.24	-1794.99	  397.90
     78.3700	  516.00	  531.00	-1785.75	  397.91
     78.4700	  504.00	  529.43	-1796.18	  397.92
     78.5700	  532.00	  528.32	-1767.07	  397.93
     78.6700	  476.00	  527.53	-1822.28	  397.94
     78.7700	  555.00	  526.98	-1742.73	  397.94
     78.8700	  466.00	  526.60	-1831.35	  397.95
     78.9700	  501.00	  526.38	-1796.13	  397.95
     79.0700	  550.00	  526.29	-1747.04	  397.95
     79.1700	  522.00	  526.34	-1775.09	  397.95
     79.2700	  534.00	  526.55	-1763.30	  397.95
     79.3700	  537.00	  526.93	-1760.68	  397.94
     79.4700	  544.00	  527.52	-1754.27	  397.94
     79.5700	  557.00	  528.35	-1742.10	  397.93
     79.6700	  550.00	  529.47	-1750.22	  397.92
     79.7700	  521.00	  530.95	-1780.70	  397.91
     79.8700	  536.00	  532.84	-1767.59	  397.90
     79.9700	  537.00	  535.24	-1768.99	  397.88
     80.0700	  521.00	  538.26	-1788.01	  397.87
     80.1700	  523.00	  542.01	-1789.76	  397.85
     80.2700	  550.00	  546.63	-1767.38	  397.83
     80.3700	  531.00	  552.26	-1792.01	  397.81
     80.4700	  558.00	  559.04	-1771.79	  397.79
     80.5700	  571.00	  567.11	-1766.86	  397.77
     80.6700	  542.00	  576.60	-1805.35	  397.74
     80.7700	  533.00	  587.57	-1825.32	  397.72
     80.8700	  606.00	  599.70	-1764.45	  397.69
     80.9700	  608.00	  613.12	-1775.87	  397.66
     81.0700	  648.00	  627.07	-1749.82	  397.62
     81.1700	  633.00	  640.83	-1778.58	  397.59
     81.2700	  679.00	  653.59	-1745.34	  397.56
     81.3700	  708.00	  664.62	-1727.37	  397.52
     81.4700	  695.00	  673.43	-1749.18	  397.48
     81.5700	  758.00	  679.72	-1692.47	  397.44
     81.6700	  750.00	  683.38	-1704.13	  397.39
     81.7700	  715.00	  684.42	-1740.17	  397.35
     81.8700	  726.00	  682.92	-1727.67	  397.30
     81.9700	  741.00	  678.95	-1708.70	  397.26
     82.0700	  707.00	  672.59	-1736.34	  397.21
     82.1700	  703.00	  664.07	-1731.82	  397.15
     82.2700	  762.00	  653.88	-1662.63	  397.10
     82.3700	  627.00	  642.62	-1786.37	  397.05
     82.4700	  633.00	  630.86	-1768.61	  396.99
     82.5700	  639.00	  618.98	-1750.73	  396.93
     82.6700	  586.00	  607.27	-1792.02	  396.87
     82.7700	  625.00	  595.97	-1741.72	  396.81
     82.8700	  579.00	  585.41	-1777.16	  396.74
     82.9700	  574.00	  575.91	-1772.66	  396.67
     83.0700	  574.00	  567.75	-1764.50	  396.61
     83.1700	  610.00	  561.13	-1721.88	  396.54
     83.2700	  574.00	  556.15	-1752.90	  396.46
     83.3700	  515.00	  552.86	-1808.61	  396.39
     83.4700	  581.00	  551.20	-1740.95	  396.31
     83.5700	  544.00	  551.06	-1777.81	  396.24
     83.6700	  537.00	  552.25	-1786.00	  396.16
     83.7700	  547.00	  554.50	-1778.25	  396.08
     83.8700	  529.00	  557.50	-1799.25	  395.99
     83.9700	  563.00	  560.82	-1768.57	  395.91
     84.0700	  575.00	  564.02	-1759.77	  395.82
     84.1700	  539.00	  566.57	-1798.32	  395.73
     84.2700	  512.00	  567.94	-1826.69	  395.64
     84.3700	  563.00	  567.87	-1775.62	  395.55
     84.4700	  543.00	  566.27	-1794.02	  395.45
     84.5700	  538.00	  563.26	-1796.01	  395.35
     84.6700	  557.00	  559.21	-1772.96	  395.26
     84.7700	  566.00	  554.53	-1759.28	  395.15
     84.8700	  537.00	  549.63	-1783.38	  395.05
     84.9700	  572.00	  544.82	-1743.57	  394.95
     85.0700	  524.00	  540.34	-1787.09	  394.84
     85.1700	  502.00	  536.37	-1805.12	  394.73
     85.2700	  561.00	  532.99	-1742.74	  394.62
     85.3700	  497.00	  530.23	-1803.98	  394.51
     85.4700	  524.00	  528.07	-1774.82	  394.39
     85.5700	  474.00	  526.48	-1823.23	  394.28
     85.6700	  477.00	  525.37	-1819.12	  394.16
     85.7700	  490.00	  524.71	-1805.46	  394.04
     85.8700	  517.00	  524.45	-1778.20	  393.92
     85.9700	  486.00	  524.54	-1809.29	  393.79
     86.0700	  530.00	  525.00	-1765.75	  393.66
     86.1700	  543.00	  525.85	-1753.60	  393.54
     86.2700	  533.00	  527.16	-1764.91	  393.40
     86.3700	  527.00	  529.03	-1772.78	  393.27
     86.4700	  511.00	  531.57	-1791.32	  393.14
     86.5700	  541.00	  534.93	-1764.68	  393.00
     86.6700	  572.00	  539.26	-1738.01	  392.86
     86.7700	  528.00	  544.67	-1787.42	  392.72
     86.8700	  516.00	  551.29	-1806.04	  392.58
     86.9700	  536.00	  559.14	-1793.89	  392.44
     87.0700	  571.00	  568.19	-1767.94	  392.29
     87.1700	  529.00	  578.27	-1820.02	  392.14
     87.2700	  577.00	  589.09	-1782.84	  391.99
     87.3700	  594.00	  600.20	-1776.95	  391.84
     87.4700	  600.00	  611.00	-1781.75	  391.68
     87.5700	  593.00	  620.76	-1798.51	  391.53
     87.6700	  609.00	  628.60	-1790.35	  391.37
     87.7700	  646.00	  633.72	-1758.47	  391.21
     87.8700	  640.00	  635.53	-1766.28	  391.04
     87.9700	  617.00	  633.87	-1787.62	  390.88
     88.0700	  663.00	  629.08	-1736.83	  390.71
     88.1700	  587.00	  621.91	-1805.66	  390.54
     88.2700	  625.00	  613.26	-1759.01	  390.37
     88.3700	  617.00	  604.04	-1757.79	  390.20
     88.4700	  607.00	  595.07	-1758.82	  390.03
     88.5700	  609.00	  587.01	-1748.76	  389.85
     88.6700	  591.00	  580.37	-1760.12	  389.67
     88.7700	  581.00	  575.07	-1764.82	  389.49
     88.8700	  568.00	  572.15	-1774.90	  389.31
     88.9700	  560.00	  571.19	-1781.94	  389.12
     89.0700	  568.00	  572.05	-1774.80	  388.94
     89.1700	  571.00	  574.43	-1774.18	  388.75
     89.2700	  578.00	  577.95	-1770.70	  388.56
     89.3700	  577.00	  582.09	-1775.84	  388.37
     89.4700	  629.00	  586.28	-1728.03	  388.17
     89.5700	  631.00	  589.87	-1729.62	  387.97
     89.6700	  587.00	  592.26	-1776.01	  387.78
     89.7700	  538.00	  592.95	-1825.70	  387.58
     89.8700	  604.00	  591.69	-1758.44	  387.37
     89.9700	  590.00	  588.53	-1769.28	  387.17
     90.0700	  598.00	  583.77	-1756.52	  386.96
     90.1700	  536.00	  577.87	-1812.62	  386.75
     90.2700	  539.00	  571.31	-1803.06	  386.54
     90.3700	  559.00	  564.54	-1776.29	  386.33
     90.4700	  541.00	  557.92	-1787.67	  386.12
     90.5700	  533.00	  551.74	-1789.49	  385.90
     90.6700	  540.00	  546.19	-1776.94	  385.68
     90.7700	  509.00	  541.40	-1803.15	  385.46
     90.8700	  507.00	  537.41	-1801.16	  385.24
     90.9700	  518.00	  534.23	-1786.98	  385.02
     91.0700	  546.00	  531.81	-1756.56	  384.79
     91.1700	  504.00	  530.10	-1796.85	  384.56
     91.2700	  477.00	  529.02	-1822.77	  384.33
     91.3700	  517.00	  528.51	-1782.26	  384.10
     91.4700	  542.00	  528.54	-1757.29	  383.87
     91.5700	  505.00	  529.09	-1794.84	  383.63
     91.6700	  515.00	  530.17	-1785.92	  383.40
     91.7700	  506.00	  531.85	-1796.60	  383.16
     91.8700	  513.00	  534.20	-1791.95	  382.92
     91.9700	  527.00	  537.36	-1781.11	  382.67
     92.0700	  546.00	  541.46	-1766.21	  382.43
     92.1700	  548.00	  546.67	-1769.42	  382.18
     92.2700	  526.00	  553.15	-1797.90	  381.93
     92.3700	  533.00	  561.05	-1798.80	  381.68
     92.4700	  524.00	  570.49	-1817.24	  381.43
     92.5700	  556.00	  581.54	-1796.29	  381.18
     92.6700	  515.00	  594.19	-1849.94	  380.92
     92.7700	  589.00	  608.35	-1790.10	  380.66
     92.8700	  586.00	  623.85	-1808.60	  380.40
     92.9700	  648.00	  640.40	-1763.15	  380.14
     93.0700	  671.00	  657.57	-1757.32	  379.88
     93.1700	  646.00	  674.87	-1799.62	  379.62
     93.2700	  682.00	  691.69	-1780.44	  379.35
     93.3700	  732.00	  707.46	-1746.21	  379.08
     93.4700	  720.00	  721.74	-1772.49	  378.81
     93.5700	  697.00	  734.38	-1808.13	  378.54
     93.6700	  756.00	  745.61	-1760.36	  378.27
     93.7700	  768.00	  755.91	-1758.66	  377.99
     93.8700	  812.00	  765.88	-1724.63	  377.71
     93.9700	  810.00	  776.05	-1736.80	  377.43
     94.0700	  808.00	  786.77	-1749.52	  377.15
     94.1700	  815.00	  797.88	-1753.63	  376.87
     94.2700	  819.00	  810.03	-1761.78	  376.59
     94.3700	  807.00	  822.87	-1786.62	  376.30
     94.4700	  825.00	  836.33	-1782.08	  376.02
     94.5700	  910.00	  850.32	-1711.07	  375.73
     94.6700	  866.00	  864.59	-1769.34	  375.44
     94.7700	  845.00	  878.62	-1804.37	  375.15
     94.8700	  908.00	  891.55	-1754.30	  374.85
     94.9700	  926.00	  902.17	-1746.92	  374.56
     95.0700	  933.00	  909.09	-1746.84	  374.26
     95.1700	  929.00	  910.92	-1752.67	  373.96
     95.2700	  942.00	  906.67	-1735.42	  373.66
     95.3700	  889.00	  896.00	-1777.75	  373.36
     95.4700	  922.00	  879.43	-1728.18	  373.06
     95.5700	  817.00	  858.18	-1811.93	  372.76
     95.6700	  804.00	  833.92	-1800.67	  372.45
     95.7700	  786.00	  808.45	-1793.20	  372.14
     95.8700	  784.00	  783.54	-1770.29	  371.84
     95.9700	  767.00	  760.86	-1764.61	  371.53
     96.0700	  766.00	  741.89	-1746.64	  371.21
     96.1700	  716.00	  727.96	-1782.71	  370.90
     96.2700	  724.00	  720.24	-1766.99	  370.59
     96.3700	  701.00	  719.75	-1789.50	  370.27
     96.4700	  747.00	  727.34	-1751.09	  369.95
     96.5700	  717.00	  743.67	-1797.42	  369.64
     96.6700	  716.00	  769.21	-1823.96	  369.32
     96.7700	  761.00	  804.20	-1813.95	  368.99
     96.8700	  810.00	  848.56	-1809.31	  368.67
     96.9700	  924.00	  901.86	-1748.61	  368.35
     97.0700	  984.00	  963.25	-1750.00	  368.02
     97.1700	 1048.00	 1031.41	-1754.16	  367.70
     97.2700	 1077.00	 1104.49	-1798.24	  367.37
     97.3700	 1131.00	 1180.03	-1819.78	  367.04
     97.4700	 1240.00	 1255.00	-1785.75	  366.71
     97.5700	 1385.00	 1325.80	-1711.55	  366.38
     97.6700	 1363.00	 1388.39	-1796.14	  366.05
     97.7700	 1364.00	 1438.61	-1845.36	  365.71
     97.8700	 1436.00	 1472.66	-1807.41	  365.38
     97.9700	 1456.00	 1487.88	-1802.63	  365.04
     98.0700	 1441.00	 1483.29	-1813.04	  364.71
     98.1700	 1463.00	 1459.87	-1767.62	  364.37
     98.2700	 1391.00	 1420.21	-1799.96	  364.03
     98.3700	 1295.00	 1367.93	-1843.68	  363.69
     98.4700	 1284.00	 1307.10	-1793.85	  363.35
     98.5700	 1206.00	 1241.71	-1806.46	  363.01
     98.6700	 1193.00	 1175.45	-1753.20	  362.66
     98.7700	 1083.00	 1111.54	-1799.29	  362.32
     98.8700	 1074.00	 1052.75	-1749.50	  361.97
     98.9700	  964.00	 1001.35	-1808.10	  361.63
     99.0700	  973.00	  959.17	-1756.92	  361.28
     99.1700	  871.00	  927.61	-1827.36	  360.93
     99.2700	  888.00	  907.76	-1790.51	  360.58
     99.3700	  947.00	  900.39	-1724.14	  360.23
     99.4700	  926.00	  905.98	-1750.73	  359.88
     99.5700	  922.00	  924.71	-1773.46	  359.53
     99.6700	 1009.00	  956.49	-1718.24	  359.18
     99.7700	  966.00	 1000.99	-1805.74	  358.83
     99.8700	 1047.00	 1057.55	-1781.30	  358.48
     99.9700	 1105.00	 1125.18	-1790.93	  358.12
    100.0700	 1214.00	 1202.54	-1759.29	  357.77
    100.1700	 1294.00	 1287.81	-1764.56	  357.41
    100.2700	 1429.00	 1378.73	-1720.48	  357.05
    100.3700	 1498.00	 1472.52	-1745.27	  356.70
    100.4700	 1586.00	 1565.89	-1750.64	  356.34
    100.5700	 1625.00	 1655.41	-1801.16	  355.98
    100.6700	 1781.00	 1737.61	-1727.36	  355.62
    100.7700	 1751.00	 1809.48	-1829.23	  355.26
    100.8700	 1880.00	 1868.83	-1759.58	  354.90
    100.9700	 1873.00	 1914.24	-1811.99	  354.54
    101.0700	 1951.00	 1944.98	-1764.73	  354.18
    101.1700	 1900.00	 1960.57	-1831.32	  353.82
    101.2700	 1983.00	 1960.61	-1748.36	  353.46
    101.3700	 1938.00	 1944.84	-1777.59	  353.10
    101.4700	 1933.00	 1913.48	-1751.23	  352.74
    101.5700	 1981.00	 1867.67	-1657.42	  352.38
    101.6700	 1805.00	 1809.63	-1775.38	  352.01
    101.7700	 1746.00	 1742.57	-1767.32	  351.65
    101.8700	 1782.00	 1670.26	-1659.01	  351.29
    101.9700	 1566.00	 1596.53	-1801.28	  350.92
    102.0700	 1546.00	 1524.73	-1749.48	  350.56
    102.1700	 1480.00	 1457.55	-1748.30	  350.20
    102.2700	 1396.00	 1396.88	-1771.63	  349.83
    102.3700	 1351.00	 1343.78	-1763.53	  349.47
    102.4700	 1343.00	 1298.55	-1726.30	  349.10
    102.5700	 1199.00	 1260.74	-1832.49	  348.74
    102.6700	 1177.00	 1229.26	-1823.01	  348.37
    102.7700	 1153.00	 1202.54	-1820.29	  348.01
    102.8700	 1134.00	 1178.59	-1815.34	  347.65
    102.9700	 1175.00	 1155.32	-1751.07	  347.28
    103.0700	 1147.00	 1130.75	-1754.50	  346.92
    103.1700	 1134.00	 1103.39	-1740.14	  346.55
    103.2700	 1019.00	 1072.40	-1824.15	  346.19
    103.3700	 1025.00	 1037.66	-1783.41	  345.83
    103.4700	  996.00	  999.65	-1774.40	  345.46
    103.5700	  937.00	  959.24	-1792.99	  345.10
    103.6700	  939.00	  917.47	-1749.22	  344.74
    103.7700	  857.00	  875.41	-1789.16	  344.38
    103.8700	  849.00	  834.05	-1755.80	  344.01
    103.9700	  812.00	  794.25	-1753.00	  343.65
    104.0700	  801.00	  756.73	-1726.48	  343.29
    104.1700	  748.00	  722.03	-1744.78	  342.93
    104.2700	  693.00	  690.54	-1768.29	  342.57
    104.3700	  667.00	  662.47	-1766.22	  342.21
    104.4700	  647.00	  637.91	-1761.66	  341.85
    104.5700	  601.00	  616.80	-1786.55	  341.49
    104.6700	  607.00	  598.97	-1762.72	  341.13
    104.7700	  611.00	  584.20	-1743.95	  340.78
    104.8700	  642.00	  572.18	-1700.93	  340.42
    104.9700	  584.00	  562.61	-1749.36	  340.06
    105.0700	  599.00	  555.18	-1726.93	  339.71
    105.1700	  585.00	  549.59	-1735.34	  339.35
    105.2700	  539.00	  545.57	-1777.32	  339.00
    105.3700	  544.00	  542.89	-1769.64	  338.65
    105.4700	  520.00	  541.36	-1792.11	  338.29
    105.5700	  531.00	  540.82	-1780.57	  337.94
    105.6700	  520.00	  541.18	-1791.93	  337.59
    105.7700	  561.00	  542.34	-1752.09	  337.24
    105.8700	  550.00	  544.26	-1765.01	  336.89
    105.9700	  550.00	  546.93	-1767.68	  336.55
    106.0700	  545.00	  550.33	-1776.08	  336.20
    106.1700	  607.00	  554.49	-1718.24	  335.86
    106.2700	  517.00	  559.45	-1813.20	  335.51
    106.3700	  593.00	  565.24	-1742.99	  335.17
    106.4700	  583.00	  571.88	-1759.63	  334.83
    106.5700	  564.00	  579.40	-1786.15	  334.49
    106.6700	  602.00	  587.74	-1756.49	  334.15
    106.7700	  543.00	  596.88	-1824.63	  333.81
    106.8700	  609.00	  606.68	-1768.43	  333.48
    106.9700	  642.00	  616.97	-1745.72	  333.14
    107.0700	  621.00	  627.54	-1777.29	  332.81
    107.1700	  656.00	  638.10	-1752.85	  332.48
    107.2700	  643.00	  648.34	-1776.09	  332.15
    107.3700	  687.00	  657.92	-1741.67	  331.82
    107.4700	  693.00	  666.45	-1744.20	  331.50
    107.5700	  674.00	  673.62	-1770.37	  331.17
    107.6700	  643.00	  679.14	-1806.89	  330.85
    107.7700	  711.00	  682.91	-1742.66	  330.53
    107.8700	  671.00	  684.95	-1784.70	  330.21
    107.9700	  729.00	  685.45	-1727.20	  329.89
    108.0700	  662.00	  684.73	-1793.48	  329.58
    108.1700	  693.00	  683.22	-1760.97	  329.26
    108.2700	  658.00	  681.33	-1794.08	  328.95
    108.3700	  674.00	  679.46	-1776.21	  328.64
    108.4700	  700.00	  677.95	-1748.70	  328.33
    108.5700	  681.00	  677.05	-1766.80	  328.03
    108.6700	  697.00	  676.92	-1750.67	  327.73
    108.7700	  689.00	  677.59	-1759.34	  327.42
    108.8700	  700.00	  679.02	-1749.77	  327.13
    108.9700	  718.00	  681.04	-1733.79	  326.83
    109.0700	  684.00	  683.41	-1770.16	  326.54
    109.1700	  634.00	  685.79	-1822.54	  326.25
    109.2700	  665.00	  687.77	-1793.52	  325.96
    109.3700	  721.00	  688.94	-1738.69	  325.67
    109.4700	  739.00	  688.89	-1720.64	  325.39
    109.5700	  715.00	  687.29	-1743.04	  325.10
    109.6700	  697.00	  683.94	-1757.69	  324.83
    109.7700	  713.00	  678.78	-1736.53	  324.55
    109.8700	  652.00	  671.93	-1790.68	  324.28
    109.9700	  679.00	  663.61	-1755.36	  324.01
    110.0700	  722.00	  654.13	-1702.88	  323.74
    110.1700	  650.00	  643.82	-1764.57	  323.47
    110.2700	  645.00	  633.05	-1758.80	  323.21
    110.3700	  575.00	  622.13	-1817.88	  322.95
    110.4700	  589.00	  611.37	-1793.12	  322.70
    110.5700	  621.00	  601.01	-1750.76	  322.45
    110.6700	  620.00	  591.29	-1742.04	  322.20
    110.7700	  604.00	  582.36	-1749.11	  321.95
    110.8700	  570.00	  574.35	-1775.10	  321.71
    110.9700	  592.00	  567.33	-1746.08	  321.47
    111.0700	  582.00	  561.37	-1750.12	  321.23
    111.1700	  530.00	  556.46	-1797.21	  321.00
    111.2700	  570.00	  552.57	-1753.32	  320.77
    111.3700	  580.00	  549.68	-1740.43	  320.54
    111.4700	  571.00	  547.70	-1747.45	  320.32
    111.5700	  585.00	  546.55	-1732.30	  320.10
    111.6700	  552.00	  546.16	-1764.91	  319.89
    111.7700	  562.00	  546.43	-1755.18	  319.67
    111.8700	  565.00	  547.26	-1753.01	  319.47
    111.9700	  542.00	  548.57	-1777.32	  319.26
    112.0700	  579.00	  550.29	-1742.04	  319.06
    112.1700	  585.00	  552.33	-1738.08	  318.87
    112.2700	  537.00	  554.64	-1788.39	  318.67
    112.3700	  563.00	  557.18	-1764.93	  318.49
    112.4700	  525.00	  559.91	-1805.66	  318.30
    112.5700	  537.00	  562.82	-1796.57	  318.12
    112.6700	  584.00	  565.94	-1752.69	  317.95
    112.7700	  549.00	  569.27	-1791.02	  317.78
    112.8700	  561.00	  572.87	-1782.62	  317.61
    112.9700	  605.00	  576.80	-1742.55	  317.45
    113.0700	  580.00	  581.12	-1771.88	  317.29
    113.1700	  576.00	  585.95	-1780.70	  317.13
    113.2700	  581.00	  591.39	-1781.14	  316.99
    113.3700	  592.00	  597.58	-1776.33	  316.84
    113.4700	  571.00	  604.71	-1804.46	  316.70
    113.5700	  649.00	  613.00	-1734.75	  316.57
    113.6700	  586.00	  622.72	-1807.47	  316.44
    113.7700	  601.00	  634.22	-1803.97	  316.31
    113.8700	  615.00	  647.95	-1803.70	  316.19
    113.9700	  608.00	  664.44	-1827.19	  316.07
    114.0700	  683.00	  684.36	-1772.11	  315.96
    114.1700	  741.00	  708.52	-1738.27	  315.86
    114.2700	  740.00	  737.89	-1768.64	  315.76
    114.3700	  806.00	  773.61	-1738.36	  315.66
    114.4700	  820.00	  817.00	-1767.75	  315.57
    114.5700	  860.00	  869.62	-1780.37	  315.49
    114.6700	  955.00	  933.17	-1748.92	  315.41
    114.7700	  986.00	 1009.51	-1794.26	  315.34
    114.8700	 1127.00	 1100.70	-1744.45	  315.27
    114.9700	 1238.00	 1208.81	-1741.56	  315.21
    115.0700	 1391.00	 1336.03	-1715.78	  315.15
    115.1700	 1535.00	 1484.40	-1720.15	  315.10
    115.2700	 1729.00	 1655.81	-1697.56	  315.06
    115.3700	 1975.00	 1851.96	-1647.71	  315.02
    115.4700	 2206.00	 2074.01	-1638.76	  314.98
    115.5700	 2412.00	 2322.72	-1681.47	  314.96
    115.6700	 2595.00	 2598.06	-1773.81	  314.93
    115.7700	 2943.00	 2899.22	-1726.97	  314.92
    115.8700	 3222.00	 3224.59	-1773.34	  314.91
    115.9700	 3696.00	 3571.39	-1646.14	  314.91
    116.0700	 3986.00	 3935.94	-1720.69	  314.91
    116.1700	 4279.00	 4313.37	-1805.12	  314.92
    116.2700	 4758.00	 4697.65	-1710.40	  314.94
    116.3700	 4961.00	 5081.79	-1891.54	  314.96
    116.4700	 5375.00	 5457.58	-1853.33	  314.99
    116.5700	 5769.00	 5816.07	-1817.82	  315.03
    116.6700	 6039.00	 6147.38	-1879.13	  315.07
    116.7700	 6289.00	 6441.23	-1922.98	  315.12
    116.8700	 6755.00	 6687.55	-1703.30	  315.18
    116.9700	 6682.00	 6876.83	-1965.58	  315.24
    117.0700	 7071.00	 7001.29	-1701.04	  315.31
    117.1700	 7083.00	 7055.54	-1743.29	  315.39
    117.2700	 6940.00	 7037.29	-1868.04	  315.48
    117.3700	 6861.00	 6947.72	-1857.47	  315.57
    117.4700	 6803.00	 6791.26	-1759.01	  315.67
    117.5700	 6571.00	 6574.97	-1774.72	  315.78
    117.6700	 6247.00	 6307.83	-1831.58	  315.89
    117.7700	 5845.00	 5999.85	-1925.60	  316.01
    117.8700	 5644.00	 5661.13	-1787.88	  316.14
    117.9700	 5147.00	 5301.68	-1925.43	  316.28
    118.0700	 4855.00	 4930.59	-1846.34	  316.43
    118.1700	 4627.00	 4556.23	-1699.98	  316.58
    118.2700	 4227.00	 4185.90	-1729.65	  316.74
    118.3700	 3930.00	 3825.66	-1666.41	  316.91
    118.4700	 3672.00	 3480.63	-1579.38	  317.09
    118.5700	 3079.00	 3154.65	-1846.40	  317.27
    118.6700	 2950.00	 2850.59	-1671.34	  317.46
    118.7700	 2607.00	 2570.40	-1734.15	  317.67
    118.8700	 2302.00	 2314.95	-1783.70	  317.88
    118.9700	 2102.00	 2084.53	-1753.28	  318.09
    119.0700	 1918.00	 1878.62	-1731.37	  318.32
    119.1700	 1770.00	 1696.29	-1697.04	  318.56
    119.2700	 1483.00	 1536.23	-1823.98	  318.80
    119.3700	 1474.00	 1396.73	-1693.48	  319.05
    119.4700	 1267.00	 1276.03	-1779.78	  319.32
    119.5700	 1175.00	 1172.20	-1767.95	  319.59
    119.6700	 1121.00	 1083.35	-1733.10	  319.87
    119.7700	  961.00	 1007.63	-1817.38	  320.16
    119.8700	 1019.00	  943.29	-1695.04	  320.45
    119.9700	  868.00	  888.73	-1791.48	  320.76
    120.0700	  837.00	  842.51	-1776.26	  321.08
    120.1700	  782.00	  803.37	-1792.12	  321.40
    120.2700	  806.00	  770.19	-1734.94	  321.74
    120.3700	  727.00	  742.04	-1785.79	  322.08
    120.4700	  720.00	  718.13	-1768.88	  322.44
    120.5700	  667.00	  697.78	-1801.53	  322.80
    120.6700	  649.00	  680.47	-1802.22	  323.18
    120.7700	  654.00	  665.73	-1782.48	  323.56
    120.8700	  589.00	  653.21	-1834.96	  323.96
    120.9700	  621.00	  642.61	-1792.36	  324.36
    121.0700	  651.00	  633.69	-1753.44	  324.78
    121.1700	  626.00	  626.24	-1770.99	  325.20
    121.2700	  605.00	  620.12	-1785.87	  325.64
    121.3700	  588.00	  615.19	-1797.94	  326.08
    121.4700	  610.00	  611.33	-1772.08	  326.54
    121.5700	  560.00	  608.46	-1819.21	  327.00
    121.6700	  583.00	  606.49	-1794.24	  327.48
    121.7700	  596.00	  605.35	-1780.10	  327.97
    121.8700	  583.00	  604.97	-1792.72	  328.47
    121.9700	  586.00	  605.28	-1790.03	  328.98
    122.0700	  600.00	  606.23	-1776.98	  329.50
    122.1700	  622.00	  607.74	-1756.49	  330.03
    122.2700	  621.00	  609.75	-1759.50	  330.57
    122.3700	  603.00	  612.18	-1779.93	  331.13
    122.4700	  592.00	  614.96	-1793.71	  331.69
    122.5700	  639.00	  618.01	-1749.76	  332.27
    122.6700	  649.00	  621.23	-1742.98	  332.86
    122.7700	  665.00	  624.54	-1730.29	  333.46
    122.8700	  612.00	  627.83	-1786.58	  334.07
    122.9700	  591.00	  631.01	-1810.76	  334.70
    123.0700	  620.00	  633.97	-1784.72	  335.33
    123.1700	  642.00	  636.61	-1765.36	  335.98
    123.2700	  691.00	  638.85	-1718.60	  336.64
    123.3700	  624.00	  640.60	-1787.35	  337.31
    123.4700	  637.00	  641.82	-1775.57	  338.00
    123.5700	  627.00	  642.46	-1786.21	  338.70
    123.6700	  671.00	  642.53	-1742.28	  339.41
    123.7700	  644.00	  642.03	-1768.78	  340.13
    123.8700	  636.00	  641.01	-1775.76	  340.86
    123.9700	  680.00	  639.51	-1730.26	  341.61
    124.0700	  646.00	  637.60	-1762.35	  342.37
    124.1700	  592.00	  635.35	-1814.10	  343.15
    124.2700	  655.00	  632.79	-1748.54	  343.93
    124.3700	  607.00	  630.05	-1793.80	  344.73
    124.4700	  620.00	  627.17	-1777.92	  345.55
    124.5700	  640.00	  624.21	-1754.96	  346.37
    124.6700	  607.00	  621.22	-1784.97	  347.21
    124.7700	  628.00	  618.26	-1761.01	  348.07
    124.8700	  644.00	  615.38	-1742.12	  348.94
    124.9700	  596.00	  454.79	-1629.54	  349.82
    125.0700	  632.00	  455.68	-1770.75	  350.71
    125.1700	  602.00	  456.59	-1770.75	  351.62
    125.2700	  594.00	  457.51	-1770.75	  352.55
    125.3700	  584.00	  458.45	-1770.75	  353.48
    125.4700	  592.00	  459.40	-1770.75	  354.43
    125.5700	  584.00	  460.37	-1770.75	  355.40
    125.6700	  552.00	  461.35	-1770.75	  356.38
    125.7700	  570.00	  462.35	-1770.75	  357.38
    125.8700	  574.00	  463.36	-1770.75	  358.39
    125.9700	  562.00	  464.38	-1770.75	  359.41
    126.0700	  577.00	  465.42	-1770.75	  360.45
    126.1700	  579.00	  466.48	-1770.75	  361.51
    126.2700	  569.00	  467.54	-1770.75	  362.58
    126.3700	  560.00	  468.63	-1770.75	  363.66
    126.4700	  532.00	  469.73	-1770.75	  364.76
    126.5700	  507.00	  470.85	-1770.75	  365.88
    126.6700	  564.00	  471.98	-1770.75	  367.01
    126.7700	  599.00	  473.12	-1770.75	  368.16
    126.8700	  543.00	  474.29	-1770.75	  369.32
    126.9700	  515.00	  475.47	-1770.75	  370.50
    127.0700	  553.00	  476.66	-1770.75	  371.69
    127.1700	  594.00	  477.87	-1770.75	  372.90
    127.2700	  571.00	  479.10	-1770.75	  374.13
    127.3700	  562.00	  480.34	-1770.75	  375.37
    127.4700	  527.00	  481.60	-1770.75	  376.63
    127.5700	  561.00	  482.88	-1770.75	  377.91
    127.6700	  574.00	  484.17	-1770.75	  379.20
    127.7700	  585.00	  485.48	-1770.75	  380.51
    127.8700	  568.00	  486.81	-1770.75	  381.84
    127.9700	  561.00	  488.15	-1770.75	  383.18
    128.0700	  668.00	  489.51	-1770.75	  384.54
    128.1700	  670.00	  490.89	-1770.75	  385.92
    128.2700	  662.00	  492.28	-1770.75	  387.31
    128.3700	  659.00	  493.70	-1770.75	  388.73
    128.4700	  674.00	  495.13	-1770.75	  390.16
    128.5700	    0.00	  496.57	-1770.75	  391.60
    128.6700	    0.00	  498.04	-1770.75	  393.07
     12.3549	        	        	        	        	       0	(  0  0  2)	  0  1
     24.9894	        	        	        	        	       0	(  0  0  4)	  0  1
     28.4136	        	        	        	        	       0	(  1  0  0)	  0  1
     29.1145	        	        	        	        	       0	(  1  0  1)	  0  1
     31.1311	        	        	        	        	       0	(  1  0  2)	  0  1
     34.2552	        	        	        	        	       0	(  1  0  3)	  0  1
     37.9439	        	        	        	        	       0	(  0  0  6)	  0  1
     38.2522	        	        	        	        	       0	(  1  0  4)	  0  1
     42.9254	        	        	        	        	       0	(  1  0  5)	  0  1
     48.1355	        	        	        	        	       0	(  1  0  6)	  0  1
     50.4218	        	        	        	        	       0	(  1  1  0)	  0  1
     51.4277	        	        	        	        	       0	(  0  0  8)	  0  1
     52.1546	        	        	        	        	       0	(  1  1  2)	  0  1
     53.7949	        	        	        	        	       0	(  1  0  7)	  0  1
     57.1308	        	        	        	        	       0	(  1  1  4)	  0  1
     58.9497	        	        	        	        	       0	(  2  0  0)	  0  1
     59.3436	        	        	        	        	       0	(  2  0  1)	  0  1
     59.8573	        	        	        	        	       0	(  1  0  8)	  0  1
     60.5160	        	        	        	        	       0	(  2  0  2)	  0  1
     62.4407	        	        	        	        	       0	(  2  0  3)	  0  1
     64.8705	        	        	        	        	       0	(  1  1  6)	  0  1
     65.0808	        	        	        	        	       0	(  2  0  4)	  0  1
     65.7307	        	        	        	        	       0	(  0  0 10)	  0  1
     66.3095	        	        	        	        	       0	(  1  0  9)	  0  1
     68.3954	        	        	        	        	       0	(  2  0  5)	  0  1
     72.3477	        	        	        	        	       0	(  2  0  6)	  0  1
     73.1663	        	        	        	        	       0	(  1  0 10)	  0  1
     74.9705	        	        	        	        	       0	(  1  1  8)	  0  1
     76.9116	        	        	        	        	       0	(  2  0  7)	  0  1
     80.4710	        	        	        	        	       0	(  1  0 11)	  0  1
     81.2868	        	        	        	        	       0	(  2  1  0)	  0  1
     81.3064	        	        	        	        	       0	(  0  0 12)	  0  1
     81.6291	        	        	        	        	       0	(  2  1  1)	  0  1
     82.0772	        	        	        	        	       0	(  2  0  8)	  0  1
     82.6543	        	        	        	        	       0	(  2  1  2)	  0  1
     84.3580	        	        	        	        	       0	(  2  1  3)	  0  1
     86.7354	        	        	        	        	       0	(  2  1  4)	  0  1
     87.3277	        	        	        	        	       0	(  1  1 10)	  0  1
     87.8575	        	        	        	        	       0	(  2  0  9)	  0  1
     88.3014	        	        	        	        	       0	(  1  0 12)	  0  1
     89.7846	        	        	        	        	       0	(  2  1  5)	  0  1
     93.5119	        	        	        	        	       0	(  2  1  6)	  0  1
     94.2962	        	        	        	        	       0	(  2  0 10)	  0  1
     95.2534	        	        	        	        	       0	(  3  0  0)	  0  1
     95.5936	        	        	        	        	       0	(  3  0  1)	  0  1
     96.6155	        	        	        	        	       0	(  3  0  2)	  0  1
     96.7840	        	        	        	        	       0	(  1  0 13)	  0  1
     97.9383	        	        	        	        	       0	(  2  1  7)	  0  1
     98.3237	        	        	        	        	       0	(  3  0  3)	  0  1
     98.9853	        	        	        	        	       0	(  0  0 14)	  0  1
    100.7283	        	        	        	        	       0	(  3  0  4)	  0  1
    101.4823	        	        	        	        	       0	(  2  0 11)	  0  1
    102.3260	        	        	        	        	       0	(  1  1 12)	  0  1
    103.1085	        	        	        	        	       0	(  2  1  8)	  0  1
    103.8494	        	        	        	        	       0	(  3  0  5)	  0  1
    106.1274	        	        	        	        	       0	(  1  0 14)	  0  1
    107.7235	        	        	        	        	       0	(  3  0  6)	  0  1
    109.1070	        	        	        	        	       0	(  2  1  9)	  0  1
    109.5776	        	        	        	        	       0	(  2  0 12)	  0  1
    112.4154	        	        	        	        	       0	(  3  0  7)	  0  1
    116.0868	        	        	        	        	       0	(  2  1 10)	  0  1
    116.7001	        	        	        	        	       0	(  1  0 15)	  0  1
    117.1547	        	        	        	        	       0	(  2  2  0)	  0  1
    118.0385	        	        	        	        	       0	(  3  0  8)	  0  1
    118.6896	        	        	        	        	       0	(  2  2  2)	  0  1
    118.8807	        	        	        	        	       0	(  2  0 13)	  0  1
    120.7358	        	        	        	        	       0	(  0  0 16)	  0  1
    121.4047	        	        	        	        	       0	(  1  1 14)	  0  1
    123.4412	        	        	        	        	       0	(  2  2  4)	  0  1
    124.3334	        	        	        	        	       0	(  2  1 11)	  0  1
    124.7974	        	        	        	        	       0	(  3  0  9)	  0  1
    125.3165	        	        	        	        	       0	(  3  1  0)	  0  1
    125.7333	        	        	        	        	       0	(  3  1  1)	  0  1
    126.9969	        	        	        	        	       0	(  3  1  2)	  0  1
    129.1516	        	        	        	        	       0	(  3  1  3)	  0  1
    129.2572	        	        	        	        	       0	(  1  0 16)	  0  1
    130.0015	        	        	        	        	       0	(  2  0 14)	  0  1
    132.0278	        	        	        	        	       0	(  2  2  6)	  0  1
    132.2856	        	        	        	        	       0	(  3  1  4)	  0  1
    133.0921	        	        	        	        	       0	(  3  0 10)	  0  1
    134.4424	        	        	        	        	       0	(  2  1 12)	  0  1
    136.5633	        	        	        	        	       0	(  3  1  5)	  0  1
    142.3088	        	        	        	        	       0	(  3  1  6)	  0  1
    143.8622	        	        	        	        	       0	(  3  0 11)	  0  1
    144.5498	        	        	        	        	       0	(  2  0 15)	  0  1
    145.9264	        	        	        	        	       0	(  1  0 17)	  0  1
    146.6584	        	        	        	        	       0	(  2  2  8)	  0  1
    148.0338	        	        	        	        	       0	(  2  1 13)	  0  1
    150.2742	        	        	        	        	       0	(  3  1  7)	  0  1
    151.2258	        	        	        	        	       0	(  1  1 16)	  0  1
    156.0624	        	        	        	        	       0	(  0  0 18)	  0  1
    160.6959	        	        	        	        	       0	(  4  0  0)	  0  1
    160.7551	        	        	        	        	       0	(  3  0 12)	  0  1
    161.7550	        	        	        	        	       0	(  4  0  1)	  0  1
    163.2410	        	        	        	        	       0	(  3  1  8)	  0  1
    165.3735	        	        	        	        	       0	(  4  0  2)	  0  1
    175.9906	        	        	        	        	       0	(  4  0  3)	  0  1
    177.4840	        	        	        	        	       0	(  2  0 16)	  0  1
