MSG Master    CELL:    5.91802   5.91802  23.26098   90.0000   90.0000  120.0000   SPGR: P 63/m m c             TEMP:   1051.65
  1   1280     2.52000     0.00000    -0.13021     0.00000     0.00000    0
    99     0     2
       0.00000      10.00000
     125.00000     130.00000
 2Theta	Yobs	Ycal	Yobs-Ycal	Backg	Posr	(hkl)	K
      0.7700	    0.00	  535.37	-1775.50	  418.46
      0.8700	    0.00	  536.25	-1775.50	  419.35
      0.9700	   45.00	  537.12	-1775.50	  420.22
      1.0700	   53.00	  537.98	-1775.50	  421.08
      1.1700	   42.00	  538.83	-1775.50	  421.93
      1.2700	   32.00	  539.66	-1775.50	  422.76
      1.3700	   46.00	  540.49	-1775.50	  423.58
      1.4700	  107.00	  541.30	-1775.50	  424.39
      1.5700	  285.00	  542.09	-1775.50	  425.19
      1.6700	  469.00	  542.88	-1775.50	  425.98
      1.7700	  572.00	  543.66	-1775.50	  426.75
      1.8700	  705.00	  544.42	-1775.50	  427.52
      1.9700	  738.00	  545.17	-1775.50	  428.27
      2.0700	  821.00	  545.91	-1775.50	  429.01
      2.1700	  799.00	  546.64	-1775.50	  429.74
      2.2700	  741.00	  547.36	-1775.50	  430.46
      2.3700	  751.00	  548.07	-1775.50	  431.17
      2.4700	  707.00	  548.76	-1775.50	  431.86
      2.5700	  700.00	  549.45	-1775.50	  432.55
      2.6700	  704.00	  550.12	-1775.50	  433.22
      2.7700	  671.00	  550.78	-1775.50	  433.88
      2.8700	  639.00	  551.44	-1775.50	  434.53
      2.9700	  643.00	  552.08	-1775.50	  435.17
      3.0700	  603.00	  552.71	-1775.50	  435.81
      3.1700	  630.00	  553.33	-1775.50	  436.42
      3.2700	  634.00	  553.94	-1775.50	  437.03
      3.3700	  671.00	  554.54	-1775.50	  437.63
      3.4700	  723.00	  555.12	-1775.50	  438.22
      3.5700	  802.00	  555.70	-1775.50	  438.80
      3.6700	  852.00	  556.27	-1775.50	  439.37
      3.7700	  916.00	  556.83	-1775.50	  439.92
      3.8700	  986.00	  557.37	-1775.50	  440.47
      3.9700	  998.00	  557.91	-1775.50	  441.01
      4.0700	 1054.00	  558.44	-1775.50	  441.54
      4.1700	 1093.00	  558.96	-1775.50	  442.06
      4.2700	 1110.00	  559.47	-1775.50	  442.56
      4.3700	 1060.00	  559.96	-1775.50	  443.06
      4.4700	 1092.00	  560.45	-1775.50	  443.55
      4.5700	 1003.00	  560.93	-1775.50	  444.03
      4.6700	 1023.00	  561.40	-1775.50	  444.50
      4.7700	  981.00	  561.86	-1775.50	  444.96
      4.8700	  952.00	  562.31	-1775.50	  445.41
      4.9700	 1000.00	  562.75	-1775.50	  445.85
      5.0700	 1011.00	  563.18	-1775.50	  446.28
      5.1700	  917.00	  563.61	-1775.50	  446.70
      5.2700	  933.00	  564.02	-1775.50	  447.12
      5.3700	  890.00	  564.43	-1775.50	  447.52
      5.4700	  889.00	  564.82	-1775.50	  447.92
      5.5700	  840.00	  565.21	-1775.50	  448.31
      5.6700	  886.00	  565.59	-1775.50	  448.68
      5.7700	  791.00	  565.96	-1775.50	  449.05
      5.8700	  852.00	  566.32	-1775.50	  449.41
      5.9700	  804.00	  566.67	-1775.50	  449.77
      6.0700	  788.00	  567.01	-1775.50	  450.11
      6.1700	  786.00	  567.35	-1775.50	  450.45
      6.2700	  778.00	  567.67	-1775.50	  450.77
      6.3700	  794.00	  567.99	-1775.50	  451.09
      6.4700	  761.00	  568.30	-1775.50	  451.40
      6.5700	  778.00	  568.60	-1775.50	  451.70
      6.6700	  697.00	  568.90	-1775.50	  452.00
      6.7700	  715.00	  569.18	-1775.50	  452.28
      6.8700	  704.00	  569.46	-1775.50	  452.56
      6.9700	  632.00	  569.73	-1775.50	  452.83
      7.0700	  686.00	  569.99	-1775.50	  453.09
      7.1700	  668.00	  570.25	-1775.50	  453.34
      7.2700	  650.00	  570.49	-1775.50	  453.59
      7.3700	  699.00	  570.73	-1775.50	  453.83
      7.4700	  672.00	  570.96	-1775.50	  454.06
      7.5700	  653.00	  571.19	-1775.50	  454.28
      7.6700	  684.00	  571.40	-1775.50	  454.50
      7.7700	  610.00	  571.61	-1775.50	  454.71
      7.8700	  653.00	  571.81	-1775.50	  454.91
      7.9700	  632.00	  572.00	-1775.50	  455.10
      8.0700	  628.00	  572.19	-1775.50	  455.29
      8.1700	  611.00	  572.37	-1775.50	  455.47
      8.2700	  601.00	  572.54	-1775.50	  455.64
      8.3700	  652.00	  572.71	-1775.50	  455.81
      8.4700	  650.00	  572.87	-1775.50	  455.96
      8.5700	  634.00	  573.02	-1775.50	  456.11
      8.6700	  643.00	  573.16	-1775.50	  456.26
      8.7700	  607.00	  573.30	-1775.50	  456.40
      8.8700	  594.00	  573.43	-1775.50	  456.53
      8.9700	  658.00	  573.55	-1775.50	  456.65
      9.0700	  656.00	  573.67	-1775.50	  456.77
      9.1700	  611.00	  573.78	-1775.50	  456.88
      9.2700	  636.00	  573.89	-1775.50	  456.98
      9.3700	  612.00	  573.98	-1775.50	  457.08
      9.4700	  602.00	  574.07	-1775.50	  457.17
      9.5700	  555.00	  574.16	-1775.50	  457.26
      9.6700	  586.00	  574.24	-1775.50	  457.34
      9.7700	  651.00	  574.31	-1775.50	  457.41
      9.8700	  572.00	  574.38	-1775.50	  457.47
      9.9700	  606.00	  574.44	-1775.50	  457.53
     10.0700	  617.00	  575.16	-1733.66	  457.59
     10.1700	  619.00	  575.27	-1731.77	  457.64
     10.2700	  577.00	  575.39	-1773.89	  457.68
     10.3700	  534.00	  575.54	-1817.04	  457.72
     10.4700	  642.00	  575.72	-1709.22	  457.75
     10.5700	  619.00	  575.99	-1732.49	  457.77
     10.6700	  593.00	  576.44	-1758.94	  457.79
     10.7700	  576.00	  577.18	-1776.68	  457.80
     10.8700	  583.00	  578.28	-1770.78	  457.81
     10.9700	  577.00	  579.73	-1778.23	  457.81
     11.0700	  591.00	  581.49	-1765.99	  457.81
     11.1700	  596.00	  583.55	-1763.05	  457.80
     11.2700	  574.00	  585.94	-1787.44	  457.79
     11.3700	  612.00	  588.74	-1752.24	  457.77
     11.4700	  551.00	  592.05	-1816.55	  457.74
     11.5700	  614.00	  596.07	-1757.57	  457.71
     11.6700	  639.00	  601.09	-1737.59	  457.68
     11.7700	  568.00	  607.69	-1815.19	  457.64
     11.8700	  625.00	  616.80	-1767.30	  457.59
     11.9700	  670.00	  629.32	-1734.82	  457.54
     12.0700	  690.00	  644.12	-1729.62	  457.48
     12.1700	  697.00	  655.23	-1733.73	  457.42
     12.2700	  675.00	  652.62	-1753.12	  457.36
     12.3700	  571.00	  632.86	-1837.36	  457.29
     12.4700	  608.00	  608.53	-1776.03	  457.21
     12.5700	  611.00	  591.21	-1755.71	  457.14
     12.6700	  597.00	  582.34	-1760.84	  457.05
     12.7700	  596.00	  578.63	-1758.13	  456.96
     12.8700	  508.00	  577.05	-1844.55	  456.87
     12.9700	  539.00	  576.20	-1812.70	  456.77
     13.0700	  571.00	  575.62	-1780.12	  456.67
     13.1700	  554.00	  575.17	-1796.67	  456.56
     13.2700	  582.00	  574.80	-1768.30	  456.45
     13.3700	  568.00	  574.49	-1781.99	  456.34
     13.4700	  550.00	  574.21	-1799.71	  456.22
     13.5700	  584.00	  573.97	-1765.47	  456.09
     13.6700	  579.00	  573.74	-1770.24	  455.96
     13.7700	  541.00	  573.53	-1808.03	  455.83
     13.8700	  520.00	  573.32	-1828.82	  455.70
     13.9700	  554.00	  573.12	-1794.62	  455.56
     14.0700	  526.00	  572.93	-1822.43	  455.41
     14.1700	  568.00	  572.74	-1780.24	  455.26
     14.2700	  561.00	  572.55	-1787.05	  455.11
     14.3700	  560.00	  572.37	-1787.87	  454.96
     14.4700	  581.00	  572.18	-1766.68	  454.80
     14.5700	  545.00	  571.99	-1802.49	  454.63
     14.6700	  541.00	  571.81	-1806.31	  454.47
     14.7700	  529.00	  571.62	-1818.12	  454.30
     14.8700	  514.00	  571.43	-1832.93	  454.12
     14.9700	  593.00	  571.23	-1753.73	  453.94
     15.0700	  577.00	  571.04	-1769.54	  453.76
     15.1700	  568.00	  570.84	-1778.34	  453.58
     15.2700	  550.00	  570.64	-1796.14	  453.39
     15.3700	  584.00	  570.44	-1761.94	  453.20
     15.4700	  557.00	  570.24	-1788.74	  453.00
     15.5700	  599.00	  570.03	-1746.53	  452.81
     15.6700	  577.00	  569.82	-1768.32	  452.60
     15.7700	  537.00	  569.61	-1808.11	  452.40
     15.8700	  603.00	  569.40	-1741.90	  452.19
     15.9700	  529.00	  569.18	-1815.68	  451.98
     16.0700	  576.00	  568.96	-1768.46	  451.77
     16.1700	  556.00	  568.74	-1788.24	  451.55
     16.2700	  558.00	  568.51	-1786.01	  451.33
     16.3700	  582.00	  568.29	-1761.79	  451.11
     16.4700	  527.00	  568.08	-1816.58	  450.88
     16.5700	  620.00	  567.85	-1723.35	  450.65
     16.6700	  572.00	  567.61	-1771.11	  450.42
     16.7700	  569.00	  567.38	-1773.88	  450.19
     16.8700	  610.00	  567.14	-1732.64	  449.95
     16.9700	  569.00	  566.90	-1773.40	  449.71
     17.0700	  563.00	  566.65	-1779.15	  449.47
     17.1700	  562.00	  566.41	-1779.91	  449.22
     17.2700	  576.00	  566.16	-1765.66	  448.98
     17.3700	  551.00	  565.90	-1790.40	  448.73
     17.4700	  547.00	  565.65	-1794.15	  448.47
     17.5700	  624.00	  565.40	-1716.90	  448.22
     17.6700	  587.00	  565.14	-1753.64	  447.96
     17.7700	  559.00	  564.88	-1781.38	  447.70
     17.8700	  571.00	  564.71	-1769.21	  447.44
     17.9700	  569.00	  564.45	-1770.95	  447.18
     18.0700	  512.00	  564.18	-1827.68	  446.91
     18.1700	  556.00	  563.91	-1783.41	  446.64
     18.2700	  564.00	  563.64	-1775.14	  446.37
     18.3700	  585.00	  563.37	-1753.87	  446.10
     18.4700	  541.00	  563.10	-1797.60	  445.82
     18.5700	  570.00	  562.83	-1768.33	  445.54
     18.6700	  579.00	  562.55	-1759.05	  445.26
     18.7700	  571.00	  562.27	-1766.77	  444.98
     18.8700	  563.00	  562.09	-1774.59	  444.70
     18.9700	  536.00	  561.81	-1801.31	  444.41
     19.0700	  605.00	  561.52	-1732.02	  444.13
     19.1700	  545.00	  561.24	-1791.74	  443.84
     19.2700	  559.00	  560.96	-1777.46	  443.55
     19.3700	  522.00	  560.67	-1814.17	  443.26
     19.4700	  531.00	  560.38	-1804.88	  442.96
     19.5700	  596.00	  560.09	-1739.59	  442.67
     19.6700	  522.00	  559.80	-1813.30	  442.37
     19.7700	  544.00	  559.51	-1791.01	  442.07
     19.8700	  617.00	  559.22	-1717.72	  441.77
     19.9700	  540.00	  558.93	-1794.43	  441.47
     20.0700	  593.00	  558.63	-1741.13	  441.16
     20.1700	  560.00	  558.33	-1773.83	  440.86
     20.2700	  576.00	  558.01	-1757.51	  440.55
     20.3700	  568.00	  557.71	-1765.21	  440.24
     20.4700	  588.00	  557.42	-1744.92	  439.93
     20.5700	  549.00	  557.12	-1783.62	  439.62
     20.6700	  553.00	  556.82	-1779.32	  439.31
     20.7700	  525.00	  556.52	-1807.02	  438.99
     20.8700	  582.00	  556.22	-1749.72	  438.68
     20.9700	  553.00	  555.95	-1778.45	  438.36
     21.0700	  571.00	  555.65	-1760.15	  438.05
     21.1700	  552.00	  555.35	-1778.85	  437.73
     21.2700	  557.00	  555.05	-1773.55	  437.41
     21.3700	  578.00	  554.75	-1752.25	  437.09
     21.4700	  531.00	  554.45	-1798.95	  436.77
     21.5700	  563.00	  554.15	-1766.65	  436.44
     21.6700	  543.00	  553.85	-1786.35	  436.12
     21.7700	  546.00	  553.55	-1783.05	  435.79
     21.8700	  537.00	  553.25	-1791.75	  435.47
     21.9700	  585.00	  552.95	-1743.45	  435.14
     22.0700	  530.00	  552.66	-1798.16	  434.81
     22.1700	  574.00	  552.36	-1753.86	  434.49
     22.2700	  557.00	  552.07	-1770.57	  434.16
     22.3700	  549.00	  551.78	-1778.28	  433.83
     22.4700	  541.00	  551.49	-1785.99	  433.50
     22.5700	  587.00	  551.21	-1739.71	  433.16
     22.6700	  549.00	  550.93	-1777.43	  432.83
     22.7700	  548.00	  550.66	-1778.16	  432.50
     22.8700	  544.00	  550.39	-1781.89	  432.17
     22.9700	  518.00	  550.13	-1807.64	  431.83
     23.0700	  527.00	  549.89	-1798.39	  431.50
     23.1700	  581.00	  549.65	-1744.15	  431.16
     23.2700	  545.00	  549.43	-1779.93	  430.83
     23.3700	  560.00	  549.24	-1764.74	  430.49
     23.4700	  591.00	  549.07	-1733.57	  430.15
     23.5700	  581.00	  548.94	-1743.44	  429.82
     23.6700	  518.00	  548.86	-1806.36	  429.48
     23.7700	  508.00	  548.88	-1816.38	  429.14
     23.8700	  552.00	  549.19	-1772.69	  428.80
     23.9700	  535.00	  549.75	-1790.25	  428.46
     24.0700	  564.00	  551.09	-1762.59	  428.12
     24.1700	  561.00	  553.87	-1768.37	  427.78
     24.2700	  562.00	  558.94	-1772.44	  427.44
     24.3700	  592.00	  567.28	-1750.78	  427.10
     24.4700	  618.00	  580.05	-1737.55	  426.76
     24.5700	  592.00	  598.00	-1781.50	  426.42
     24.6700	  611.00	  618.89	-1783.39	  426.08
     24.7700	  618.00	  634.69	-1792.19	  425.74
     24.8700	  635.00	  633.50	-1774.00	  425.40
     24.9700	  613.00	  612.23	-1774.73	  425.06
     25.0700	  608.00	  585.00	-1752.50	  424.72
     25.1700	  565.00	  564.60	-1775.10	  424.38
     25.2700	  562.00	  553.46	-1766.96	  424.04
     25.3700	  541.00	  548.51	-1783.01	  423.70
     25.4700	  572.00	  546.39	-1749.89	  423.36
     25.5700	  534.00	  545.30	-1786.80	  423.02
     25.6700	  553.00	  544.58	-1767.08	  422.68
     25.7700	  516.00	  544.05	-1803.55	  422.34
     25.8700	  587.00	  543.64	-1732.14	  422.00
     25.9700	  564.00	  543.33	-1754.83	  421.66
     26.0700	  528.00	  543.09	-1790.59	  421.32
     26.1700	  541.00	  542.93	-1777.43	  420.98
     26.2700	  542.00	  542.84	-1776.34	  420.64
     26.3700	  546.00	  542.82	-1772.32	  420.30
     26.4700	  533.00	  542.89	-1785.39	  419.96
     26.5700	  516.00	  543.04	-1802.54	  419.62
     26.6700	  517.00	  543.30	-1801.80	  419.28
     26.7700	  527.00	  543.69	-1792.19	  418.94
     26.8700	  614.00	  544.25	-1705.75	  418.60
     26.9700	  540.00	  545.03	-1780.53	  418.27
     27.0700	  551.00	  546.09	-1770.59	  417.93
     27.1700	  550.00	  547.56	-1773.06	  417.59
     27.2700	  576.00	  549.69	-1749.19	  417.26
     27.3700	  523.00	  552.94	-1805.44	  416.92
     27.4700	  584.00	  558.19	-1749.69	  416.59
     27.5700	  567.00	  567.05	-1775.55	  416.25
     27.6700	  554.00	  582.01	-1803.51	  415.92
     27.7700	  586.00	  606.27	-1795.77	  415.58
     27.8700	  597.00	  642.54	-1821.04	  415.25
     27.9700	  670.00	  690.90	-1796.40	  414.92
     28.0700	  770.00	  745.93	-1751.43	  414.59
     28.1700	  862.00	  794.39	-1707.89	  414.25
     28.2700	  921.00	  816.45	-1670.95	  413.92
     28.3700	  917.00	  800.62	-1659.12	  413.59
     28.4700	  816.00	  766.37	-1725.87	  413.26
     28.5700	  730.00	  746.05	-1791.55	  412.94
     28.6700	  666.00	  754.56	-1864.06	  412.61
     28.7700	  744.00	  786.79	-1818.29	  412.28
     28.8700	  810.00	  821.88	-1787.38	  411.95
     28.9700	  837.00	  829.61	-1768.11	  411.63
     29.0700	  807.00	  790.21	-1758.71	  411.30
     29.1700	  703.00	  720.77	-1793.27	  410.98
     29.2700	  671.00	  653.84	-1758.34	  410.66
     29.3700	  639.00	  605.29	-1741.79	  410.33
     29.4700	  605.00	  575.87	-1746.37	  410.01
     29.5700	  655.00	  559.98	-1680.48	  409.69
     29.6700	  594.00	  551.64	-1733.14	  409.37
     29.7700	  608.00	  546.95	-1714.45	  409.05
     29.8700	  635.00	  544.05	-1684.55	  408.73
     29.9700	  603.00	  542.20	-1714.70	  408.42
     30.0700	  611.00	  541.23	-1705.73	  408.10
     30.1700	  542.00	  541.29	-1774.79	  407.79
     30.2700	  544.00	  542.94	-1774.44	  407.47
     30.3700	  588.00	  547.32	-1734.82	  407.16
     30.4700	  563.00	  556.17	-1768.67	  406.85
     30.5700	  552.00	  571.41	-1794.91	  406.54
     30.6700	  580.00	  593.71	-1789.21	  406.23
     30.7700	  606.00	  620.50	-1790.00	  405.92
     30.8700	  606.00	  644.30	-1813.80	  405.61
     30.9700	  595.00	  653.46	-1833.96	  405.30
     31.0700	  601.00	  639.51	-1814.01	  405.00
     31.1700	  561.00	  609.61	-1824.11	  404.69
     31.2700	  529.00	  579.20	-1825.70	  404.39
     31.3700	  584.00	  556.63	-1748.13	  404.09
     31.4700	  554.00	  542.93	-1764.43	  403.79
     31.5700	  520.00	  535.64	-1791.14	  403.49
     31.6700	  516.00	  531.91	-1791.41	  403.19
     31.7700	  559.00	  529.85	-1746.35	  402.89
     31.8700	  516.00	  528.54	-1788.04	  402.59
     31.9700	  535.00	  527.61	-1768.11	  402.30
     32.0700	  545.00	  526.93	-1757.43	  402.01
     32.1700	  557.00	  526.44	-1744.94	  401.71
     32.2700	  540.00	  526.10	-1761.60	  401.42
     32.3700	  556.00	  525.92	-1745.42	  401.13
     32.4700	  598.00	  525.88	-1703.38	  400.84
     32.5700	  554.00	  526.00	-1747.50	  400.56
     32.6700	  526.00	  526.31	-1775.81	  400.27
     32.7700	  521.00	  526.83	-1781.33	  399.98
     32.8700	  533.00	  527.64	-1770.14	  399.70
     32.9700	  534.00	  528.82	-1770.32	  399.42
     33.0700	  504.00	  530.56	-1802.06	  399.14
     33.1700	  578.00	  533.26	-1730.76	  398.86
     33.2700	  530.00	  537.83	-1783.33	  398.58
     33.3700	  556.00	  546.27	-1765.77	  398.31
     33.4700	  540.00	  562.68	-1798.18	  398.03
     33.5700	  603.00	  593.67	-1766.17	  397.76
     33.6700	  660.00	  647.34	-1762.84	  397.48
     33.7700	  719.00	  728.17	-1784.67	  397.21
     33.8700	  883.00	  828.57	-1721.07	  396.94
     33.9700	 1011.00	  922.52	-1687.02	  396.68
     34.0700	 1059.00	  968.27	-1684.77	  396.41
     34.1700	 1022.00	  932.35	-1685.85	  396.15
     34.2700	  899.00	  832.48	-1708.98	  395.88
     34.3700	  697.00	  722.00	-1800.50	  395.62
     34.4700	  625.00	  635.76	-1786.26	  395.36
     34.5700	  572.00	  581.67	-1785.17	  395.10
     34.6700	  528.00	  552.70	-1800.20	  394.84
     34.7700	  564.00	  538.39	-1749.89	  394.59
     34.8700	  522.00	  531.06	-1784.56	  394.33
     34.9700	  545.00	  526.73	-1757.23	  394.08
     35.0700	  514.00	  523.74	-1785.24	  393.83
     35.1700	  518.00	  521.49	-1778.99	  393.58
     35.2700	  498.00	  519.70	-1797.20	  393.33
     35.3700	  495.00	  518.24	-1798.74	  393.09
     35.4700	  556.00	  517.03	-1736.53	  392.84
     35.5700	  510.00	  516.00	-1781.50	  392.60
     35.6700	  559.00	  515.11	-1731.61	  392.36
     35.7700	  509.00	  514.33	-1780.83	  392.12
     35.8700	  507.00	  514.14	-1782.64	  391.88
     35.9700	  493.00	  513.53	-1796.03	  391.64
     36.0700	  502.00	  512.99	-1786.49	  391.41
     36.1700	  530.00	  512.49	-1757.99	  391.18
     36.2700	  517.00	  512.04	-1770.54	  390.94
     36.3700	  526.00	  511.63	-1761.13	  390.72
     36.4700	  510.00	  511.25	-1776.75	  390.49
     36.5700	  558.00	  510.92	-1728.42	  390.26
     36.6700	  548.00	  510.61	-1738.11	  390.04
     36.7700	  487.00	  510.35	-1798.85	  389.81
     36.8700	  479.00	  510.14	-1806.64	  389.59
     36.9700	  493.00	  510.03	-1792.53	  389.37
     37.0700	  545.00	  510.10	-1740.60	  389.15
     37.1700	  511.00	  510.55	-1775.05	  388.94
     37.2700	  508.00	  511.73	-1779.23	  388.72
     37.3700	  504.00	  514.04	-1785.54	  388.51
     37.4700	  518.00	  517.71	-1775.21	  388.30
     37.5700	  560.00	  522.44	-1737.94	  388.09
     37.6700	  528.00	  527.17	-1774.67	  387.88
     37.7700	  531.00	  530.40	-1774.90	  387.68
     37.8700	  554.00	  531.22	-1752.72	  387.47
     37.9700	  535.00	  530.06	-1770.56	  387.27
     38.0700	  549.00	  527.28	-1753.78	  387.07
     38.1700	  509.00	  522.94	-1789.44	  386.87
     38.2700	  498.00	  517.88	-1795.38	  386.68
     38.3700	  466.00	  513.37	-1822.87	  386.48
     38.4700	  514.00	  510.03	-1771.53	  386.29
     38.5700	  529.00	  507.89	-1754.39	  386.10
     38.6700	  503.00	  506.63	-1779.13	  385.91
     38.7700	  473.00	  505.91	-1808.41	  385.72
     38.8700	  491.00	  505.35	-1789.85	  385.53
     38.9700	  509.00	  505.01	-1771.51	  385.35
     39.0700	  507.00	  504.72	-1773.22	  385.17
     39.1700	  519.00	  504.47	-1760.97	  384.98
     39.2700	  515.00	  504.15	-1764.65	  384.81
     39.3700	  543.00	  503.95	-1736.45	  384.63
     39.4700	  501.00	  503.75	-1778.25	  384.45
     39.5700	  532.00	  503.57	-1747.07	  384.28
     39.6700	  482.00	  503.41	-1796.91	  384.11
     39.7700	  487.00	  503.25	-1791.75	  383.94
     39.8700	  522.00	  503.22	-1756.72	  383.77
     39.9700	  516.00	  503.09	-1762.59	  383.61
     40.0700	  479.00	  502.96	-1799.46	  383.44
     40.1700	  474.00	  502.85	-1804.35	  383.28
     40.2700	  485.00	  502.75	-1793.25	  383.12
     40.3700	  483.00	  502.66	-1795.16	  382.96
     40.4700	  533.00	  502.59	-1745.09	  382.80
     40.5700	  495.00	  502.53	-1783.03	  382.65
     40.6700	  488.00	  502.48	-1789.98	  382.50
     40.7700	  480.00	  502.46	-1797.96	  382.35
     40.8700	  491.00	  502.45	-1786.95	  382.20
     40.9700	  485.00	  502.48	-1792.98	  382.05
     41.0700	  472.00	  502.53	-1806.03	  381.90
     41.1700	  487.00	  502.59	-1791.09	  381.76
     41.2700	  483.00	  502.73	-1795.23	  381.62
     41.3700	  534.00	  502.94	-1744.44	  381.48
     41.4700	  460.00	  503.23	-1818.73	  381.34
     41.5700	  449.00	  503.62	-1830.12	  381.20
     41.6700	  444.00	  504.60	-1836.10	  381.07
     41.7700	  467.00	  505.44	-1813.94	  380.94
     41.8700	  511.00	  506.84	-1771.34	  380.81
     41.9700	  515.00	  509.46	-1769.96	  380.68
     42.0700	  495.00	  514.67	-1795.17	  380.55
     42.1700	  514.00	  524.80	-1786.30	  380.43
     42.2700	  538.00	  542.92	-1780.42	  380.30
     42.3700	  588.00	  571.05	-1758.55	  380.18
     42.4700	  556.00	  607.89	-1827.39	  380.06
     42.5700	  580.00	  646.03	-1841.53	  379.95
     42.6700	  629.00	  672.36	-1818.86	  379.83
     42.7700	  641.00	  673.34	-1807.84	  379.72
     42.8700	  603.00	  647.55	-1820.05	  379.61
     42.9700	  555.00	  608.28	-1828.78	  379.50
     43.0700	  563.00	  570.34	-1782.84	  379.39
     43.1700	  504.00	  541.61	-1813.11	  379.28
     43.2700	  487.00	  523.44	-1811.94	  379.18
     43.3700	  505.00	  513.45	-1783.95	  379.08
     43.4700	  513.00	  508.42	-1770.92	  378.97
     43.5700	  497.00	  505.90	-1784.40	  378.88
     43.6700	  512.00	  504.50	-1768.00	  378.78
     43.7700	  552.00	  503.79	-1727.29	  378.68
     43.8700	  527.00	  503.15	-1751.65	  378.59
     43.9700	  522.00	  502.67	-1756.17	  378.50
     44.0700	  472.00	  502.29	-1805.79	  378.41
     44.1700	  526.00	  502.00	-1751.50	  378.32
     44.2700	  502.00	  501.77	-1775.27	  378.24
     44.3700	  500.00	  501.63	-1777.13	  378.15
     44.4700	  516.00	  501.39	-1760.89	  378.07
     44.5700	  508.00	  501.29	-1768.79	  377.99
     44.6700	  541.00	  501.23	-1735.73	  377.91
     44.7700	  518.00	  501.20	-1758.70	  377.84
     44.8700	  504.00	  501.20	-1772.70	  377.76
     44.9700	  515.00	  501.22	-1761.72	  377.69
     45.0700	  507.00	  501.26	-1769.76	  377.62
     45.1700	  557.00	  501.32	-1719.82	  377.55
     45.2700	  492.00	  501.59	-1785.09	  377.48
     45.3700	  532.00	  501.70	-1745.20	  377.42
     45.4700	  507.00	  501.84	-1770.34	  377.35
     45.5700	  512.00	  501.99	-1765.49	  377.29
     45.6700	  520.00	  502.17	-1757.67	  377.23
     45.7700	  523.00	  502.38	-1754.88	  377.17
     45.8700	  529.00	  502.61	-1749.11	  377.12
     45.9700	  518.00	  502.87	-1760.37	  377.06
     46.0700	  528.00	  503.17	-1750.67	  377.01
     46.1700	  493.00	  503.50	-1786.00	  376.96
     46.2700	  503.00	  503.87	-1776.37	  376.91
     46.3700	  485.00	  504.29	-1794.79	  376.86
     46.4700	  508.00	  504.76	-1772.26	  376.82
     46.5700	  498.00	  505.30	-1782.80	  376.78
     46.6700	  505.00	  505.91	-1776.41	  376.73
     46.7700	  503.00	  506.62	-1779.12	  376.69
     46.8700	  531.00	  507.46	-1751.96	  376.66
     46.9700	  492.00	  508.54	-1792.04	  376.62
     47.0700	  491.00	  510.04	-1794.54	  376.58
     47.1700	  497.00	  512.39	-1790.89	  376.55
     47.2700	  529.00	  516.41	-1762.91	  376.52
     47.3700	  506.00	  523.17	-1792.67	  376.49
     47.4700	  512.00	  533.95	-1797.45	  376.46
     47.5700	  606.00	  549.15	-1718.65	  376.44
     47.6700	  566.00	  567.62	-1777.12	  376.41
     47.7700	  538.00	  585.78	-1823.28	  376.39
     47.8700	  573.00	  598.03	-1800.53	  376.37
     47.9700	  626.00	  599.42	-1748.92	  376.35
     48.0700	  569.00	  589.92	-1796.42	  376.33
     48.1700	  559.00	  574.79	-1791.29	  376.32
     48.2700	  571.00	  559.85	-1764.35	  376.30
     48.3700	  553.00	  548.69	-1771.19	  376.29
     48.4700	  539.00	  542.47	-1778.97	  376.28
     48.5700	  509.00	  540.69	-1807.19	  376.27
     48.6700	  525.00	  542.25	-1792.75	  376.26
     48.7700	  543.00	  546.20	-1778.70	  376.26
     48.8700	  523.00	  552.08	-1804.58	  376.25
     48.9700	  547.00	  559.95	-1788.45	  376.25
     49.0700	  558.00	  570.55	-1788.05	  376.25
     49.1700	  559.00	  585.54	-1802.04	  376.25
     49.2700	  622.00	  608.45	-1761.95	  376.26
     49.3700	  699.00	  645.89	-1722.39	  376.26
     49.4700	  708.00	  708.96	-1776.46	  376.27
     49.5700	  781.00	  813.47	-1807.97	  376.27
     49.6700	  879.00	  977.73	-1874.23	  376.28
     49.7700	 1152.00	 1214.84	-1838.34	  376.30
     49.8700	 1421.00	 1524.00	-1878.50	  376.31
     49.9700	 1832.00	 1877.85	-1821.35	  376.32
     50.0700	 2256.00	 2213.34	-1732.84	  376.34
     50.1700	 2561.00	 2434.66	-1649.16	  376.36
     50.2700	 2509.00	 2452.76	-1719.26	  376.37
     50.3700	 2320.00	 2257.02	-1712.52	  376.40
     50.4700	 1886.00	 1929.66	-1819.16	  376.42
     50.5700	 1506.00	 1573.60	-1843.10	  376.44
     50.6700	 1073.00	 1258.94	-1961.44	  376.47
     50.7700	  801.00	 1017.46	-1991.96	  376.49
     50.8700	  720.00	  852.72	-1908.22	  376.52
     50.9700	  670.00	  750.99	-1856.49	  376.55
     51.0700	  658.00	  691.94	-1809.44	  376.58
     51.1700	  604.00	  656.44	-1827.94	  376.62
     51.2700	  589.00	  631.09	-1817.59	  376.65
     51.3700	  546.00	  609.66	-1839.16	  376.69
     51.4700	  554.00	  590.94	-1812.44	  376.72
     51.5700	  599.00	  575.43	-1751.93	  376.76
     51.6700	  570.00	  563.55	-1769.05	  376.80
     51.7700	  550.00	  555.06	-1780.56	  376.85
     51.8700	  556.00	  549.28	-1768.78	  376.89
     51.9700	  519.00	  545.35	-1801.85	  376.93
     52.0700	  544.00	  542.63	-1774.13	  376.98
     52.1700	  545.00	  540.79	-1771.29	  377.03
     52.2700	  544.00	  539.75	-1771.25	  377.08
     52.3700	  588.00	  539.62	-1727.12	  377.13
     52.4700	  583.00	  540.93	-1733.43	  377.18
     52.5700	  574.00	  544.05	-1745.55	  377.23
     52.6700	  594.00	  550.95	-1732.45	  377.29
     52.7700	  597.00	  565.12	-1743.62	  377.35
     52.8700	  658.00	  592.39	-1709.89	  377.40
     52.9700	  697.00	  640.66	-1719.16	  377.46
     53.0700	  786.00	  717.64	-1707.14	  377.52
     53.1700	  868.00	  826.35	-1733.85	  377.58
     53.2700	  995.00	  959.48	-1739.98	  377.65
     53.3700	 1107.00	 1095.37	-1763.87	  377.71
     53.4700	 1161.00	 1198.84	-1813.34	  377.78
     53.5700	 1241.00	 1232.52	-1767.02	  377.85
     53.6700	 1109.00	 1181.26	-1847.76	  377.91
     53.7700	  967.00	 1066.65	-1875.15	  377.98
     53.8700	  907.00	  928.22	-1796.72	  378.06
     53.9700	  719.00	  799.07	-1855.57	  378.13
     54.0700	  672.00	  697.48	-1800.98	  378.20
     54.1700	  638.00	  627.90	-1765.40	  378.28
     54.2700	  570.00	  585.61	-1791.11	  378.35
     54.3700	  550.00	  562.45	-1787.95	  378.43
     54.4700	  550.00	  550.75	-1776.25	  378.51
     54.5700	  557.00	  545.18	-1763.68	  378.59
     54.6700	  551.00	  542.71	-1767.21	  378.67
     54.7700	  562.00	  541.86	-1755.36	  378.75
     54.8700	  551.00	  542.01	-1766.51	  378.84
     54.9700	  510.00	  542.92	-1808.42	  378.92
     55.0700	  546.00	  544.50	-1774.00	  379.01
     55.1700	  561.00	  546.78	-1761.28	  379.09
     55.2700	  528.00	  549.81	-1797.31	  379.18
     55.3700	  566.00	  553.70	-1763.20	  379.27
     55.4700	  608.00	  558.66	-1726.16	  379.36
     55.5700	  494.00	  565.00	-1846.50	  379.46
     55.6700	  602.00	  573.44	-1746.94	  379.55
     55.7700	  615.00	  585.42	-1745.92	  379.64
     55.8700	  557.00	  603.90	-1822.40	  379.74
     55.9700	  609.00	  634.57	-1801.07	  379.83
     56.0700	  679.00	  687.24	-1783.74	  379.93
     56.1700	  717.00	  776.55	-1835.05	  380.03
     56.2700	  848.00	  920.82	-1848.32	  380.13
     56.3700	 1044.00	 1137.11	-1868.61	  380.23
     56.4700	 1271.00	 1432.68	-1937.18	  380.33
     56.5700	 1731.00	 1794.75	-1839.25	  380.44
     56.6700	 2098.00	 2181.86	-1859.36	  380.54
     56.7700	 2438.00	 2520.71	-1858.21	  380.64
     56.8700	 2663.00	 2717.61	-1830.11	  380.75
     56.9700	 2678.00	 2701.16	-1798.66	  380.86
     57.0700	 2427.00	 2477.51	-1826.01	  380.97
     57.1700	 2168.00	 2126.19	-1733.69	  381.07
     57.2700	 1699.00	 1740.94	-1817.44	  381.18
     57.3700	 1305.00	 1390.51	-1861.01	  381.29
     57.4700	 1086.00	 1111.37	-1800.87	  381.41
     57.5700	  871.00	  912.53	-1817.03	  381.52
     57.6700	  764.00	  784.78	-1796.28	  381.63
     57.7700	  747.00	  711.08	-1739.58	  381.75
     57.8700	  683.00	  674.79	-1767.29	  381.86
     57.9700	  665.00	  664.00	-1774.50	  381.98
     58.0700	  678.00	  672.29	-1769.79	  382.10
     58.1700	  750.00	  697.48	-1722.98	  382.21
     58.2700	  818.00	  739.74	-1697.24	  382.33
     58.3700	  896.00	  799.56	-1679.06	  382.45
     58.4700	  978.00	  876.00	-1673.50	  382.57
     58.5700	 1126.00	  964.99	-1614.49	  382.70
     58.6700	 1240.00	 1058.42	-1593.92	  382.82
     58.7700	 1438.00	 1146.16	-1483.66	  382.94
     58.8700	 1584.00	 1220.37	-1411.87	  383.07
     58.9700	 1623.00	 1276.23	-1428.73	  383.19
     59.0700	 1618.00	 1307.78	-1465.28	  383.32
     59.1700	 1668.00	 1309.31	-1416.81	  383.44
     59.2700	 1457.00	 1283.71	-1602.21	  383.57
     59.3700	 1387.00	 1244.18	-1632.68	  383.70
     59.4700	 1348.00	 1205.30	-1632.80	  383.83
     59.5700	 1174.00	 1176.71	-1778.21	  383.96
     59.6700	 1169.00	 1165.05	-1771.55	  384.09
     59.7700	 1156.00	 1177.85	-1797.35	  384.22
     59.8700	 1212.00	 1221.21	-1784.71	  384.35
     59.9700	 1281.00	 1293.17	-1787.67	  384.48
     60.0700	 1487.00	 1379.88	-1668.38	  384.61
     60.1700	 1571.00	 1455.28	-1659.78	  384.75
     60.2700	 1528.00	 1487.07	-1734.57	  384.88
     60.3700	 1539.00	 1452.59	-1689.09	  385.02
     60.4700	 1462.00	 1354.79	-1668.29	  385.15
     60.5700	 1362.00	 1218.35	-1631.85	  385.29
     60.6700	 1148.00	 1071.83	-1699.33	  385.42
     60.7700	  936.00	  936.90	-1776.40	  385.56
     60.8700	  754.00	  826.17	-1847.67	  385.70
     60.9700	  712.00	  744.46	-1807.96	  385.84
     61.0700	  683.00	  691.16	-1783.66	  385.98
     61.1700	  649.00	  663.21	-1789.71	  386.11
     61.2700	  669.00	  657.93	-1764.43	  386.25
     61.3700	  651.00	  674.80	-1799.30	  386.40
     61.4700	  687.00	  715.87	-1804.37	  386.54
     61.5700	  755.00	  784.60	-1805.10	  386.68
     61.6700	  795.00	  883.45	-1863.95	  386.82
     61.7700	  906.00	 1010.92	-1880.42	  386.96
     61.8700	 1058.00	 1158.56	-1876.06	  387.11
     61.9700	 1174.00	 1309.07	-1910.57	  387.25
     62.0700	 1335.00	 1436.01	-1876.51	  387.39
     62.1700	 1442.00	 1508.01	-1841.51	  387.54
     62.2700	 1438.00	 1502.21	-1839.71	  387.68
     62.3700	 1335.00	 1419.94	-1860.44	  387.83
     62.4700	 1230.00	 1285.91	-1831.41	  387.97
     62.5700	 1041.00	 1131.46	-1865.96	  388.12
     62.6700	  924.00	  982.04	-1833.54	  388.26
     62.7700	  781.00	  853.64	-1848.14	  388.41
     62.8700	  680.00	  753.36	-1848.86	  388.56
     62.9700	  624.00	  681.27	-1832.77	  388.71
     63.0700	  582.00	  633.09	-1826.59	  388.85
     63.1700	  601.00	  602.87	-1777.37	  389.00
     63.2700	  573.00	  584.92	-1787.42	  389.15
     63.3700	  577.00	  574.91	-1773.41	  389.30
     63.4700	  578.00	  570.17	-1767.67	  389.45
     63.5700	  579.00	  569.56	-1766.06	  389.60
     63.6700	  594.00	  573.25	-1754.75	  389.75
     63.7700	  618.00	  582.46	-1739.96	  389.89
     63.8700	  633.00	  599.19	-1741.69	  390.04
     63.9700	  629.00	  625.70	-1772.20	  390.19
     64.0700	  696.00	  663.77	-1743.27	  390.34
     64.1700	  728.00	  713.66	-1761.16	  390.50
     64.2700	  811.00	  773.09	-1737.59	  390.65
     64.3700	  846.00	  836.58	-1766.08	  390.80
     64.4700	  992.00	  895.28	-1678.78	  390.95
     64.5700	 1005.00	  938.07	-1708.57	  391.10
     64.6700	 1030.00	  955.45	-1700.95	  391.25
     64.7700	  984.00	  943.72	-1735.22	  391.40
     64.8700	  979.00	  908.10	-1704.60	  391.55
     64.9700	  910.00	  856.91	-1722.41	  391.71
     65.0700	  888.00	  800.13	-1687.63	  391.86
     65.1700	  793.00	  746.07	-1728.57	  392.01
     65.2700	  718.00	  699.66	-1757.16	  392.16
     65.3700	  689.00	  662.46	-1748.96	  392.31
     65.4700	  653.00	  633.66	-1756.16	  392.46
     65.5700	  611.00	  611.62	-1776.12	  392.62
     65.6700	  626.00	  594.80	-1744.30	  392.77
     65.7700	  546.00	  582.12	-1811.62	  392.92
     65.8700	  527.00	  572.81	-1821.31	  393.07
     65.9700	  563.00	  566.30	-1778.80	  393.22
     66.0700	  545.00	  562.18	-1792.68	  393.38
     66.1700	  547.00	  560.06	-1788.56	  393.53
     66.2700	  582.00	  559.60	-1753.10	  393.68
     66.3700	  518.00	  560.53	-1818.03	  393.83
     66.4700	  524.00	  562.68	-1814.18	  393.98
     66.5700	  571.00	  566.07	-1770.57	  394.14
     66.6700	  538.00	  571.00	-1808.50	  394.29
     66.7700	  610.00	  578.21	-1743.71	  394.44
     66.8700	  568.00	  589.26	-1796.76	  394.59
     66.9700	  613.00	  606.59	-1769.09	  394.74
     67.0700	  609.00	  634.56	-1801.06	  394.89
     67.1700	  646.00	  679.52	-1809.02	  395.04
     67.2700	  745.00	  749.73	-1780.23	  395.19
     67.3700	  856.00	  854.46	-1773.96	  395.35
     67.4700	  942.00	 1002.26	-1835.76	  395.50
     67.5700	 1204.00	 1197.30	-1768.80	  395.65
     67.6700	 1479.00	 1435.86	-1732.36	  395.80
     67.7700	 1749.00	 1703.61	-1730.11	  395.95
     67.8700	 1997.00	 1973.60	-1752.10	  396.10
     67.9700	 2272.00	 2206.86	-1710.36	  396.24
     68.0700	 2374.00	 2357.77	-1759.27	  396.39
     68.1700	 2357.00	 2388.86	-1807.36	  396.54
     68.2700	 2317.00	 2291.44	-1749.94	  396.69
     68.3700	 2040.00	 2091.56	-1827.06	  396.84
     68.4700	 1828.00	 1833.70	-1781.20	  396.99
     68.5700	 1611.00	 1561.15	-1725.65	  397.13
     68.6700	 1355.00	 1306.71	-1727.21	  397.28
     68.7700	 1093.00	 1090.61	-1773.11	  397.43
     68.8700	  875.00	  921.32	-1821.82	  397.58
     68.9700	  738.00	  797.66	-1835.16	  397.72
     69.0700	  714.00	  712.90	-1774.40	  397.87
     69.1700	  688.00	  657.73	-1745.23	  398.01
     69.2700	  632.00	  623.21	-1766.71	  398.16
     69.3700	  623.00	  602.05	-1754.55	  398.30
     69.4700	  628.00	  589.04	-1736.54	  398.45
     69.5700	  587.00	  580.81	-1769.31	  398.59
     69.6700	  564.00	  575.39	-1786.89	  398.73
     69.7700	  575.00	  571.69	-1772.19	  398.88
     69.8700	  603.00	  569.13	-1741.63	  399.02
     69.9700	  584.00	  567.42	-1758.92	  399.16
     70.0700	  605.00	  566.43	-1736.93	  399.30
     70.1700	  532.00	  566.10	-1809.60	  399.44
     70.2700	  598.00	  566.42	-1743.92	  399.58
     70.3700	  538.00	  567.51	-1805.01	  399.72
     70.4700	  553.00	  569.50	-1792.00	  399.86
     70.5700	  537.00	  572.80	-1811.30	  400.00
     70.6700	  559.00	  578.16	-1794.66	  400.14
     70.7700	  550.00	  586.88	-1812.38	  400.28
     70.8700	  573.00	  601.13	-1803.63	  400.42
     70.9700	  546.00	  624.20	-1853.70	  400.55
     71.0700	  613.00	  660.71	-1823.21	  400.69
     71.1700	  696.00	  716.36	-1795.86	  400.82
     71.2700	  758.00	  797.27	-1814.77	  400.96
     71.3700	  877.00	  909.47	-1807.97	  401.09
     71.4700	 1067.00	 1053.48	-1761.98	  401.23
     71.5700	 1226.00	 1227.45	-1776.95	  401.36
     71.6700	 1433.00	 1421.92	-1764.42	  401.49
     71.7700	 1603.00	 1619.85	-1792.35	  401.62
     71.8700	 1713.00	 1797.08	-1859.58	  401.75
     71.9700	 1853.00	 1924.68	-1847.18	  401.88
     72.0700	 1965.00	 1976.42	-1786.92	  402.01
     72.1700	 1889.00	 1940.16	-1826.66	  402.14
     72.2700	 1832.00	 1824.68	-1768.18	  402.27
     72.3700	 1636.00	 1655.75	-1795.25	  402.40
     72.4700	 1565.00	 1462.01	-1672.51	  402.52
     72.5700	 1359.00	 1268.37	-1684.87	  402.65
     72.6700	 1229.00	 1092.68	-1639.18	  402.77
     72.7700	 1141.00	  945.13	-1579.63	  402.90
     72.8700	  974.00	  828.96	-1630.46	  403.02
     72.9700	  983.00	  742.47	-1534.97	  403.14
     73.0700	  825.00	  680.98	-1631.48	  403.27
     73.1700	  749.00	  638.80	-1665.30	  403.39
     73.2700	  751.00	  610.52	-1635.02	  403.51
     73.3700	  707.00	  591.69	-1660.19	  403.63
     73.4700	  655.00	  579.10	-1699.60	  403.74
     73.5700	  596.00	  570.59	-1750.09	  403.86
     73.6700	  560.00	  564.81	-1780.31	  403.98
     73.7700	  641.00	  560.95	-1695.45	  404.09
     73.8700	  579.00	  558.52	-1755.02	  404.21
     73.9700	  604.00	  557.25	-1728.75	  404.32
     74.0700	  631.00	  556.91	-1701.41	  404.44
     74.1700	  606.00	  557.31	-1726.81	  404.55
     74.2700	  583.00	  558.23	-1750.73	  404.66
     74.3700	  580.00	  559.38	-1754.88	  404.77
     74.4700	  607.00	  560.45	-1728.95	  404.88
     74.5700	  578.00	  561.08	-1758.58	  404.99
     74.6700	  649.00	  560.96	-1687.46	  405.10
     74.7700	  628.00	  559.97	-1707.47	  405.20
     74.8700	  629.00	  558.21	-1704.71	  405.31
     74.9700	  640.00	  555.96	-1691.46	  405.41
     75.0700	  621.00	  553.64	-1708.14	  405.51
     75.1700	  579.00	  551.63	-1748.13	  405.62
     75.2700	  580.00	  550.32	-1745.82	  405.72
     75.3700	  530.00	  550.03	-1795.53	  405.82
     75.4700	  530.00	  551.32	-1796.82	  405.92
     75.5700	  569.00	  554.63	-1761.13	  406.02
     75.6700	  493.00	  560.36	-1842.86	  406.11
     75.7700	  574.00	  569.24	-1770.74	  406.21
     75.8700	  537.00	  581.55	-1820.05	  406.30
     75.9700	  598.00	  597.37	-1774.87	  406.40
     76.0700	  617.00	  616.35	-1774.85	  406.49
     76.1700	  640.00	  637.51	-1773.01	  406.58
     76.2700	  647.00	  659.24	-1787.74	  406.67
     76.3700	  707.00	  679.28	-1747.78	  406.76
     76.4700	  640.00	  694.94	-1830.44	  406.85
     76.5700	  659.00	  703.55	-1820.05	  406.94
     76.6700	  761.00	  703.40	-1717.90	  407.02
     76.7700	  736.00	  694.48	-1733.98	  407.11
     76.8700	  653.00	  678.54	-1801.04	  407.19
     76.9700	  631.00	  658.08	-1802.58	  407.28
     77.0700	  650.00	  636.11	-1761.61	  407.36
     77.1700	  636.00	  614.71	-1754.21	  407.44
     77.2700	  567.00	  595.46	-1803.96	  407.52
     77.3700	  543.00	  579.27	-1811.77	  407.59
     77.4700	  546.00	  566.46	-1795.96	  407.67
     77.5700	  547.00	  556.87	-1785.37	  407.75
     77.6700	  537.00	  550.04	-1788.54	  407.82
     77.7700	  510.00	  545.39	-1810.89	  407.89
     77.8700	  484.00	  542.34	-1833.84	  407.96
     77.9700	  537.00	  540.40	-1778.90	  408.03
     78.0700	  537.00	  539.18	-1777.69	  408.10
     78.1700	  494.00	  538.43	-1819.93	  408.17
     78.2700	  538.00	  537.98	-1775.48	  408.24
     78.3700	  497.00	  537.70	-1816.20	  408.30
     78.4700	  543.00	  537.55	-1770.05	  408.37
     78.5700	  506.00	  537.50	-1807.00	  408.43
     78.6700	  547.00	  537.54	-1766.04	  408.49
     78.7700	  517.00	  537.67	-1796.17	  408.55
     78.8700	  558.00	  537.90	-1755.40	  408.61
     78.9700	  515.00	  538.26	-1798.76	  408.66
     79.0700	  483.00	  538.78	-1831.28	  408.72
     79.1700	  524.00	  539.53	-1791.03	  408.77
     79.2700	  542.00	  540.36	-1773.86	  408.83
     79.3700	  539.00	  541.72	-1778.22	  408.88
     79.4700	  540.00	  543.51	-1779.01	  408.93
     79.5700	  508.00	  545.82	-1813.32	  408.98
     79.6700	  502.00	  548.77	-1822.27	  409.03
     79.7700	  526.00	  552.51	-1802.01	  409.07
     79.8700	  534.00	  557.20	-1798.70	  409.12
     79.9700	  548.00	  563.08	-1790.58	  409.16
     80.0700	  526.00	  570.37	-1819.87	  409.20
     80.1700	  516.00	  579.35	-1838.85	  409.24
     80.2700	  530.00	  590.31	-1835.81	  409.28
     80.3700	  558.00	  603.44	-1820.94	  409.32
     80.4700	  578.00	  618.77	-1816.27	  409.36
     80.5700	  571.00	  636.05	-1840.55	  409.39
     80.6700	  591.00	  654.67	-1839.17	  409.42
     80.7700	  673.00	  673.63	-1776.13	  409.45
     80.8700	  641.00	  691.56	-1826.06	  409.49
     80.9700	  701.00	  706.93	-1781.43	  409.51
     81.0700	  716.00	  718.37	-1777.87	  409.54
     81.1700	  701.00	  724.95	-1799.45	  409.57
     81.2700	  758.00	  726.24	-1743.74	  409.59
     81.3700	  740.00	  722.28	-1757.78	  409.61
     81.4700	  727.00	  713.55	-1762.05	  409.64
     81.5700	  742.00	  700.94	-1734.44	  409.66
     81.6700	  722.00	  685.51	-1739.01	  409.67
     81.7700	  716.00	  668.34	-1727.84	  409.69
     81.8700	  744.00	  650.38	-1681.88	  409.71
     81.9700	  738.00	  632.69	-1670.19	  409.72
     82.0700	  678.00	  616.03	-1713.53	  409.73
     82.1700	  694.00	  601.01	-1682.51	  409.74
     82.2700	  617.00	  587.98	-1746.48	  409.75
     82.3700	  631.00	  577.09	-1721.59	  409.76
     82.4700	  586.00	  568.31	-1757.81	  409.77
     82.5700	  553.00	  561.52	-1784.02	  409.77
     82.6700	  567.00	  556.58	-1765.08	  409.77
     82.7700	  581.00	  553.31	-1747.81	  409.77
     82.8700	  572.00	  551.54	-1755.04	  409.77
     82.9700	  524.00	  551.17	-1802.67	  409.77
     83.0700	  572.00	  552.08	-1755.58	  409.77
     83.1700	  548.00	  554.20	-1781.70	  409.76
     83.2700	  518.00	  557.44	-1814.94	  409.76
     83.3700	  549.00	  561.67	-1788.17	  409.75
     83.4700	  541.00	  566.69	-1801.19	  409.74
     83.5700	  537.00	  572.19	-1810.69	  409.73
     83.6700	  570.00	  577.79	-1783.29	  409.71
     83.7700	  603.00	  582.99	-1755.49	  409.70
     83.8700	  567.00	  587.22	-1795.72	  409.68
     83.9700	  569.00	  589.91	-1796.41	  409.66
     84.0700	  601.00	  590.63	-1765.13	  409.65
     84.1700	  551.00	  589.23	-1813.73	  409.62
     84.2700	  539.00	  585.92	-1822.42	  409.60
     84.3700	  577.00	  581.14	-1779.64	  409.58
     84.4700	  569.00	  575.47	-1781.97	  409.55
     84.5700	  547.00	  569.44	-1797.94	  409.52
     84.6700	  519.00	  563.52	-1820.02	  409.49
     84.7700	  529.00	  558.05	-1804.55	  409.46
     84.8700	  539.00	  553.25	-1789.75	  409.43
     84.9700	  523.00	  549.25	-1801.75	  409.40
     85.0700	  537.00	  546.08	-1784.58	  409.36
     85.1700	  556.00	  543.71	-1763.21	  409.32
     85.2700	  524.00	  542.07	-1793.57	  409.28
     85.3700	  518.00	  541.05	-1798.55	  409.24
     85.4700	  516.00	  540.56	-1800.06	  409.20
     85.5700	  553.00	  540.52	-1763.02	  409.15
     85.6700	  484.00	  540.87	-1832.37	  409.11
     85.7700	  528.00	  541.56	-1789.06	  409.06
     85.8700	  508.00	  542.57	-1810.07	  409.01
     85.9700	  536.00	  543.92	-1783.42	  408.96
     86.0700	  557.00	  545.63	-1764.13	  408.91
     86.1700	  573.00	  547.77	-1750.27	  408.85
     86.2700	  499.00	  550.41	-1826.91	  408.80
     86.3700	  520.00	  553.65	-1809.15	  408.74
     86.4700	  536.00	  557.62	-1797.12	  408.68
     86.5700	  567.00	  562.44	-1770.94	  408.62
     86.6700	  601.00	  568.20	-1742.70	  408.56
     86.7700	  580.00	  574.60	-1770.10	  408.49
     86.8700	  605.00	  582.11	-1752.61	  408.42
     86.9700	  615.00	  590.16	-1750.66	  408.36
     87.0700	  620.00	  598.32	-1753.82	  408.29
     87.1700	  629.00	  606.01	-1752.51	  408.22
     87.2700	  656.00	  612.54	-1732.04	  408.14
     87.3700	  644.00	  617.21	-1748.71	  408.07
     87.4700	  651.00	  619.40	-1743.90	  407.99
     87.5700	  639.00	  618.78	-1755.28	  407.91
     87.6700	  639.00	  615.43	-1751.93	  407.83
     87.7700	  628.00	  609.85	-1757.35	  407.75
     87.8700	  643.00	  602.76	-1735.26	  407.67
     87.9700	  617.00	  595.01	-1753.51	  407.58
     88.0700	  647.00	  587.41	-1715.91	  407.50
     88.1700	  604.00	  580.63	-1752.13	  407.41
     88.2700	  615.00	  575.26	-1735.76	  407.32
     88.3700	  541.00	  571.69	-1806.19	  407.23
     88.4700	  568.00	  570.14	-1777.64	  407.13
     88.5700	  570.00	  570.66	-1776.16	  407.04
     88.6700	  579.00	  573.15	-1769.65	  406.94
     88.7700	  577.00	  577.34	-1775.84	  406.84
     88.8700	  588.00	  582.84	-1770.34	  406.74
     88.9700	  616.00	  589.15	-1748.65	  406.64
     89.0700	  606.00	  595.66	-1765.16	  406.54
     89.1700	  633.00	  601.71	-1744.21	  406.43
     89.2700	  620.00	  606.61	-1762.11	  406.33
     89.3700	  598.00	  609.71	-1787.21	  406.22
     89.4700	  611.00	  610.56	-1775.06	  406.11
     89.5700	  582.00	  608.99	-1802.49	  405.99
     89.6700	  600.00	  605.17	-1780.67	  405.88
     89.7700	  625.00	  599.57	-1750.07	  405.77
     89.8700	  588.00	  592.75	-1780.25	  405.65
     89.9700	  576.00	  585.30	-1784.80	  405.53
     90.0700	  573.00	  577.75	-1780.25	  405.41
     90.1700	  498.00	  570.53	-1848.03	  405.29
     90.2700	  567.00	  563.95	-1772.45	  405.16
     90.3700	  497.00	  558.22	-1836.72	  405.04
     90.4700	  503.00	  553.43	-1825.93	  404.91
     90.5700	  539.00	  549.58	-1786.08	  404.78
     90.6700	  529.00	  546.63	-1793.13	  404.65
     90.7700	  488.00	  544.48	-1831.98	  404.52
     90.8700	  518.00	  543.00	-1800.50	  404.39
     90.9700	  486.00	  542.09	-1831.59	  404.25
     91.0700	  498.00	  541.67	-1819.17	  404.11
     91.1700	  527.00	  541.66	-1790.16	  403.98
     91.2700	  524.00	  542.06	-1793.56	  403.84
     91.3700	  535.00	  542.86	-1783.36	  403.69
     91.4700	  534.00	  544.15	-1785.65	  403.55
     91.5700	  565.00	  546.01	-1756.51	  403.40
     91.6700	  536.00	  548.58	-1788.08	  403.26
     91.7700	  493.00	  552.05	-1834.55	  403.11
     91.8700	  546.00	  556.38	-1785.88	  402.96
     91.9700	  583.00	  562.21	-1754.71	  402.81
     92.0700	  559.00	  569.48	-1785.98	  402.65
     92.1700	  556.00	  578.33	-1797.83	  402.50
     92.2700	  566.00	  588.81	-1798.31	  402.34
     92.3700	  606.00	  600.88	-1770.38	  402.19
     92.4700	  613.00	  614.38	-1776.88	  402.03
     92.5700	  628.00	  629.01	-1776.51	  401.87
     92.6700	  624.00	  644.34	-1795.84	  401.70
     92.7700	  687.00	  659.84	-1748.34	  401.54
     92.8700	  714.00	  674.86	-1736.36	  401.37
     92.9700	  769.00	  688.76	-1695.26	  401.21
     93.0700	  746.00	  700.95	-1730.45	  401.04
     93.1700	  737.00	  711.13	-1749.63	  400.87
     93.2700	  771.00	  719.36	-1723.86	  400.69
     93.3700	  850.00	  726.12	-1651.62	  400.52
     93.4700	  776.00	  732.11	-1731.61	  400.35
     93.5700	  799.00	  738.19	-1714.69	  400.17
     93.6700	  892.00	  745.14	-1628.64	  399.99
     93.7700	  859.00	  753.63	-1670.13	  399.81
     93.8700	  864.00	  764.20	-1675.70	  399.63
     93.9700	  843.00	  777.27	-1709.77	  399.45
     94.0700	  861.00	  793.06	-1707.56	  399.26
     94.1700	  840.00	  811.55	-1747.05	  399.08
     94.2700	  821.00	  832.38	-1786.88	  398.89
     94.3700	  848.00	  854.75	-1782.25	  398.70
     94.4700	  888.00	  877.41	-1764.91	  398.51
     94.5700	  926.00	  898.72	-1748.22	  398.32
     94.6700	  908.00	  916.72	-1784.22	  398.13
     94.7700	  915.00	  929.34	-1789.84	  397.94
     94.8700	  929.00	  934.78	-1781.28	  397.74
     94.9700	  947.00	  931.88	-1760.38	  397.54
     95.0700	  913.00	  920.50	-1783.00	  397.34
     95.1700	  847.00	  901.54	-1830.04	  397.14
     95.2700	  845.00	  876.68	-1807.18	  396.94
     95.3700	  870.00	  848.00	-1753.50	  396.74
     95.4700	  787.00	  817.69	-1806.19	  396.54
     95.5700	  724.00	  787.84	-1839.34	  396.33
     95.6700	  729.00	  760.37	-1806.87	  396.13
     95.7700	  710.00	  737.00	-1802.50	  395.92
     95.8700	  633.00	  719.25	-1861.75	  395.71
     95.9700	  693.00	  708.48	-1790.98	  395.50
     96.0700	  659.00	  705.85	-1822.35	  395.29
     96.1700	  715.00	  712.34	-1772.84	  395.07
     96.2700	  740.00	  728.75	-1764.25	  394.86
     96.3700	  746.00	  755.66	-1785.16	  394.64
     96.4700	  790.00	  793.29	-1778.79	  394.43
     96.5700	  849.00	  841.51	-1768.01	  394.21
     96.6700	  885.00	  899.63	-1790.13	  393.99
     96.7700	  957.00	  966.39	-1784.89	  393.77
     96.8700	  995.00	 1039.81	-1820.31	  393.54
     96.9700	 1113.00	 1117.20	-1779.70	  393.32
     97.0700	 1138.00	 1195.14	-1832.64	  393.10
     97.1700	 1267.00	 1269.61	-1778.11	  392.87
     97.2700	 1358.00	 1336.12	-1753.62	  392.64
     97.3700	 1414.00	 1390.05	-1751.55	  392.42
     97.4700	 1426.00	 1427.16	-1776.66	  392.19
     97.5700	 1423.00	 1444.34	-1796.84	  391.96
     97.6700	 1485.00	 1440.31	-1730.81	  391.73
     97.7700	 1385.00	 1415.86	-1806.36	  391.49
     97.8700	 1303.00	 1373.64	-1846.14	  391.26
     97.9700	 1287.00	 1317.56	-1806.06	  391.03
     98.0700	 1261.00	 1252.04	-1766.54	  390.79
     98.1700	 1193.00	 1181.51	-1764.01	  390.55
     98.2700	 1100.00	 1110.11	-1785.61	  390.32
     98.3700	 1038.00	 1041.52	-1779.02	  390.08
     98.4700	  990.00	  978.85	-1764.35	  389.84
     98.5700	  911.00	  924.60	-1789.10	  389.60
     98.6700	  866.00	  880.70	-1790.20	  389.35
     98.7700	  816.00	  848.58	-1808.08	  389.11
     98.8700	  783.00	  829.31	-1821.81	  388.87
     98.9700	  800.00	  823.59	-1799.09	  388.62
     99.0700	  794.00	  831.89	-1813.39	  388.38
     99.1700	  822.00	  854.45	-1807.95	  388.13
     99.2700	  835.00	  891.31	-1831.81	  387.88
     99.3700	  878.00	  942.33	-1839.83	  387.63
     99.4700	  991.00	 1007.08	-1791.58	  387.38
     99.5700	 1065.00	 1084.79	-1795.29	  387.13
     99.6700	 1172.00	 1174.26	-1777.76	  386.88
     99.7700	 1301.00	 1273.70	-1748.20	  386.63
     99.8700	 1433.00	 1380.75	-1723.25	  386.38
     99.9700	 1466.00	 1492.28	-1801.78	  386.12
    100.0700	 1575.00	 1604.54	-1805.04	  385.87
    100.1700	 1654.00	 1713.17	-1834.67	  385.61
    100.2700	 1859.00	 1813.62	-1730.12	  385.36
    100.3700	 1908.00	 1901.68	-1769.18	  385.10
    100.4700	 2038.00	 1973.84	-1711.34	  384.84
    100.5700	 2077.00	 2027.59	-1726.09	  384.59
    100.6700	 2080.00	 2061.31	-1756.81	  384.33
    100.7700	 2065.00	 2074.02	-1784.52	  384.07
    100.8700	 2198.00	 2065.22	-1642.72	  383.81
    100.9700	 1982.00	 2035.08	-1828.58	  383.55
    101.0700	 2004.00	 1984.73	-1756.23	  383.29
    101.1700	 2011.00	 1916.64	-1681.14	  383.02
    101.2700	 1917.00	 1834.65	-1693.15	  382.76
    101.3700	 1733.00	 1743.46	-1785.96	  382.50
    101.4700	 1664.00	 1648.22	-1759.72	  382.24
    101.5700	 1592.00	 1553.73	-1737.23	  381.97
    101.6700	 1448.00	 1464.19	-1791.69	  381.71
    101.7700	 1406.00	 1382.85	-1752.35	  381.44
    101.8700	 1349.00	 1311.82	-1738.32	  381.18
    101.9700	 1268.00	 1252.22	-1759.72	  380.91
    102.0700	 1226.00	 1204.03	-1753.53	  380.64
    102.1700	 1090.00	 1166.33	-1851.83	  380.38
    102.2700	 1086.00	 1137.39	-1826.89	  380.11
    102.3700	 1097.00	 1114.81	-1793.31	  379.84
    102.4700	 1131.00	 1095.89	-1740.39	  379.57
    102.5700	 1029.00	 1077.86	-1824.36	  379.30
    102.6700	 1067.00	 1058.29	-1766.79	  379.04
    102.7700	 1074.00	 1035.41	-1736.91	  378.77
    102.8700	 1054.00	 1008.24	-1729.74	  378.50
    102.9700	 1013.00	  976.71	-1739.21	  378.23
    103.0700	  937.00	  941.38	-1779.88	  377.96
    103.1700	  882.00	  903.26	-1796.76	  377.69
    103.2700	  847.00	  863.56	-1792.06	  377.42
    103.3700	  768.00	  823.56	-1831.06	  377.15
    103.4700	  811.00	  784.44	-1748.94	  376.88
    103.5700	  747.00	  747.25	-1775.75	  376.61
    103.6700	  739.00	  712.82	-1749.32	  376.33
    103.7700	  661.00	  681.75	-1796.25	  376.06
    103.8700	  648.00	  654.44	-1781.94	  375.79
    103.9700	  654.00	  631.03	-1752.53	  375.52
    104.0700	  594.00	  611.49	-1792.99	  375.25
    104.1700	  565.00	  595.63	-1806.13	  374.98
    104.2700	  540.00	  583.16	-1818.66	  374.71
    104.3700	  538.00	  573.71	-1811.21	  374.44
    104.4700	  534.00	  566.88	-1808.39	  374.17
    104.5700	  560.00	  562.30	-1777.80	  373.90
    104.6700	  570.00	  559.56	-1765.06	  373.63
    104.7700	  577.00	  558.33	-1756.83	  373.36
    104.8700	  579.00	  558.29	-1754.79	  373.08
    104.9700	  535.00	  559.19	-1799.69	  372.81
    105.0700	  510.00	  560.78	-1826.28	  372.54
    105.1700	  561.00	  562.90	-1777.40	  372.28
    105.2700	  573.00	  565.40	-1767.90	  372.01
    105.3700	  596.00	  568.16	-1747.66	  371.74
    105.4700	  518.00	  571.12	-1828.62	  371.47
    105.5700	  587.00	  574.28	-1762.78	  371.20
    105.6700	  589.00	  577.66	-1764.16	  370.93
    105.7700	  552.00	  581.35	-1804.85	  370.66
    105.8700	  553.00	  585.47	-1807.97	  370.40
    105.9700	  578.00	  590.16	-1787.66	  370.13
    106.0700	  585.00	  595.55	-1786.05	  369.86
    106.1700	  651.00	  601.75	-1726.25	  369.60
    106.2700	  584.00	  608.79	-1800.29	  369.33
    106.3700	  584.00	  616.65	-1808.15	  369.07
    106.4700	  587.00	  625.24	-1813.74	  368.80
    106.5700	  653.00	  634.39	-1756.89	  368.54
    106.6700	  613.00	  643.84	-1806.34	  368.28
    106.7700	  637.00	  653.28	-1791.78	  368.01
    106.8700	  649.00	  662.32	-1788.82	  367.75
    106.9700	  650.00	  670.57	-1796.07	  367.49
    107.0700	  645.00	  677.62	-1808.12	  367.23
    107.1700	  666.00	  683.12	-1792.62	  366.97
    107.2700	  627.00	  686.85	-1835.35	  366.71
    107.3700	  668.00	  688.71	-1796.21	  366.46
    107.4700	  715.00	  688.82	-1749.32	  366.20
    107.5700	  648.00	  687.44	-1814.94	  365.94
    107.6700	  668.00	  684.98	-1792.48	  365.69
    107.7700	  663.00	  681.89	-1794.39	  365.43
    107.8700	  704.00	  678.63	-1750.13	  365.18
    107.9700	  622.00	  675.61	-1829.11	  364.93
    108.0700	  648.00	  673.15	-1800.65	  364.68
    108.1700	  653.00	  671.45	-1793.95	  364.43
    108.2700	  676.00	  670.61	-1770.11	  364.18
    108.3700	  692.00	  670.62	-1754.12	  363.93
    108.4700	  643.00	  671.31	-1803.81	  363.69
    108.5700	  663.00	  672.44	-1784.94	  363.44
    108.6700	  696.00	  673.66	-1753.16	  363.20
    108.7700	  675.00	  674.59	-1775.09	  362.95
    108.8700	  684.00	  674.81	-1766.31	  362.71
    108.9700	  672.00	  673.94	-1777.44	  362.47
    109.0700	  664.00	  671.67	-1783.18	  362.23
    109.1700	  665.00	  667.84	-1778.34	  361.99
    109.2700	  658.00	  662.42	-1779.92	  361.76
    109.3700	  644.00	  655.50	-1787.00	  361.52
    109.4700	  636.00	  647.30	-1786.80	  361.29
    109.5700	  654.00	  638.14	-1759.64	  361.06
    109.6700	  668.00	  628.32	-1735.82	  360.83
    109.7700	  655.00	  618.19	-1738.69	  360.60
    109.8700	  604.00	  608.07	-1779.57	  360.37
    109.9700	  574.00	  598.25	-1799.75	  360.15
    110.0700	  649.00	  588.97	-1715.47	  359.92
    110.1700	  555.00	  580.43	-1800.93	  359.70
    110.2700	  605.00	  572.78	-1743.28	  359.48
    110.3700	  597.00	  566.09	-1744.59	  359.26
    110.4700	  545.00	  560.43	-1790.93	  359.05
    110.5700	  557.00	  555.77	-1774.27	  358.83
    110.6700	  542.00	  552.08	-1785.58	  358.62
    110.7700	  506.00	  549.31	-1818.81	  358.41
    110.8700	  577.00	  547.36	-1745.86	  358.20
    110.9700	  608.00	  546.15	-1713.65	  357.99
    111.0700	  543.00	  545.58	-1778.08	  357.79
    111.1700	  480.00	  545.58	-1841.08	  357.59
    111.2700	  582.00	  546.05	-1739.55	  357.38
    111.3700	  527.00	  546.94	-1795.44	  357.19
    111.4700	  547.00	  548.17	-1776.67	  356.99
    111.5700	  540.00	  549.71	-1785.21	  356.80
    111.6700	  539.00	  551.52	-1788.02	  356.60
    111.7700	  528.00	  553.56	-1801.06	  356.41
    111.8700	  555.00	  555.84	-1776.34	  356.23
    111.9700	  540.00	  558.33	-1793.83	  356.04
    112.0700	  575.00	  561.05	-1761.55	  355.86
    112.1700	  582.00	  564.00	-1757.50	  355.68
    112.2700	  593.00	  567.19	-1749.69	  355.50
    112.3700	  579.00	  570.67	-1767.17	  355.33
    112.4700	  599.00	  574.46	-1750.96	  355.15
    112.5700	  583.00	  578.61	-1771.11	  354.98
    112.6700	  603.00	  583.18	-1755.68	  354.82
    112.7700	  597.00	  588.26	-1766.76	  354.65
    112.8700	  576.00	  593.96	-1793.46	  354.49
    112.9700	  651.00	  600.39	-1724.90	  354.33
    113.0700	  675.00	  607.78	-1708.28	  354.17
    113.1700	  691.00	  616.33	-1700.83	  354.02
    113.2700	  675.00	  626.36	-1726.86	  353.87
    113.3700	  804.00	  638.25	-1609.75	  353.72
    113.4700	  799.00	  652.48	-1628.98	  353.58
    113.5700	  783.00	  669.68	-1662.18	  353.44
    113.6700	  852.00	  690.59	-1614.09	  353.30
    113.7700	  921.00	  716.13	-1570.63	  353.16
    113.8700	  992.00	  747.43	-1530.93	  353.03
    113.9700	 1084.00	  785.78	-1477.28	  352.90
    114.0700	 1045.00	  832.70	-1563.20	  352.78
    114.1700	 1070.00	  889.93	-1595.43	  352.65
    114.2700	 1123.00	  959.39	-1611.89	  352.53
    114.3700	 1230.00	 1043.21	-1588.71	  352.42
    114.4700	 1294.00	 1143.60	-1625.10	  352.30
    114.5700	 1459.00	 1262.89	-1579.39	  352.19
    114.6700	 1571.00	 1403.35	-1607.85	  352.09
    114.7700	 1678.00	 1567.10	-1664.60	  351.99
    114.8700	 1881.00	 1756.10	-1650.60	  351.89
    114.9700	 2162.00	 1971.77	-1585.27	  351.79
    115.0700	 2319.00	 2215.13	-1671.63	  351.70
    115.1700	 2521.00	 2486.39	-1740.89	  351.61
    115.2700	 2780.00	 2784.89	-1780.39	  351.53
    115.3700	 3137.00	 3109.14	-1747.64	  351.45
    115.4700	 3305.00	 3456.36	-1926.86	  351.37
    115.5700	 3687.00	 3822.82	-1911.32	  351.30
    115.6700	 3851.00	 4203.42	-2127.92	  351.23
    115.7700	 4308.00	 4591.86	-2059.36	  351.17
    115.8700	 4660.00	 4980.81	-2096.31	  351.11
    115.9700	 5073.00	 5361.62	-2064.12	  351.05
    116.0700	 5502.00	 5724.86	-1998.36	  351.00
    116.1700	 5737.00	 6060.18	-2098.68	  350.95
    116.2700	 6282.00	 6356.84	-1850.34	  350.91
    116.3700	 6607.00	 6604.32	-1772.82	  350.87
    116.4700	 6747.00	 6792.76	-1821.26	  350.83
    116.5700	 6925.00	 6914.18	-1764.68	  350.80
    116.6700	 7014.00	 6963.08	-1724.58	  350.77
    116.7700	 7102.00	 6937.29	-1610.79	  350.75
    116.8700	 6917.00	 6838.25	-1696.75	  350.73
    116.9700	 6886.00	 6670.81	-1560.31	  350.72
    117.0700	 6504.00	 6442.52	-1714.02	  350.71
    117.1700	 6202.00	 6162.87	-1736.37	  350.71
    117.2700	 5834.00	 5842.37	-1783.87	  350.71
    117.3700	 5377.00	 5491.63	-1890.13	  350.71
    117.4700	 5110.00	 5121.10	-1786.60	  350.72
    117.5700	 4649.00	 4740.30	-1866.80	  350.74
    117.6700	 4471.00	 4357.93	-1662.43	  350.76
    117.7700	 4130.00	 3981.60	-1627.10	  350.78
    117.8700	 3863.00	 3617.55	-1530.05	  350.82
    117.9700	 3501.00	 3271.03	-1545.53	  350.85
    118.0700	 3115.00	 2945.86	-1606.36	  350.89
    118.1700	 2715.00	 2644.87	-1705.37	  350.94
    118.2700	 2377.00	 2369.79	-1768.29	  350.99
    118.3700	 2115.00	 2121.29	-1781.79	  351.04
    118.4700	 1809.00	 1899.37	-1865.87	  351.10
    118.5700	 1614.00	 1703.21	-1864.71	  351.17
    118.6700	 1463.00	 1531.55	-1844.05	  351.24
    118.7700	 1279.00	 1382.72	-1879.22	  351.32
    118.8700	 1144.00	 1254.74	-1886.24	  351.40
    118.9700	 1071.00	 1145.56	-1850.06	  351.49
    119.0700	  943.00	 1053.01	-1885.51	  351.59
    119.1700	  936.00	  975.02	-1814.52	  351.69
    119.2700	  824.00	  909.63	-1861.13	  351.79
    119.3700	  763.00	  854.98	-1867.48	  351.90
    119.4700	  761.00	  809.44	-1823.94	  352.02
    119.5700	  681.00	  771.55	-1866.05	  352.14
    119.6700	  663.00	  740.04	-1852.54	  352.27
    119.7700	  635.00	  713.84	-1854.34	  352.41
    119.8700	  610.00	  692.04	-1857.54	  352.55
    119.9700	  596.00	  673.87	-1853.37	  352.70
    120.0700	  569.00	  658.70	-1865.20	  352.85
    120.1700	  572.00	  646.04	-1849.54	  353.01
    120.2700	  626.00	  635.46	-1784.96	  353.18
    120.3700	  594.00	  626.63	-1808.13	  353.35
    120.4700	  592.00	  619.28	-1802.78	  353.53
    120.5700	  589.00	  613.22	-1799.72	  353.71
    120.6700	  557.00	  608.26	-1826.76	  353.91
    120.7700	  582.00	  604.28	-1797.78	  354.10
    120.8700	  531.00	  601.18	-1845.68	  354.31
    120.9700	  532.00	  598.88	-1842.38	  354.52
    121.0700	  556.00	  597.32	-1816.82	  354.74
    121.1700	  589.00	  596.45	-1782.95	  354.97
    121.2700	  578.00	  596.22	-1793.72	  355.20
    121.3700	  595.00	  596.60	-1777.10	  355.44
    121.4700	  548.00	  597.54	-1825.04	  355.69
    121.5700	  559.00	  598.99	-1815.49	  355.94
    121.6700	  612.00	  600.91	-1764.41	  356.20
    121.7700	  587.00	  603.22	-1791.72	  356.47
    121.8700	  600.00	  605.89	-1781.39	  356.74
    121.9700	  597.00	  608.83	-1787.33	  357.03
    122.0700	  615.00	  611.95	-1772.45	  357.32
    122.1700	  623.00	  615.16	-1767.66	  357.61
    122.2700	  642.00	  618.35	-1751.85	  357.92
    122.3700	  602.00	  621.43	-1794.93	  358.23
    122.4700	  625.00	  624.29	-1774.79	  358.55
    122.5700	  639.00	  626.83	-1763.33	  358.88
    122.6700	  618.00	  628.93	-1786.43	  359.21
    122.7700	  677.00	  630.53	-1729.03	  359.56
    122.8700	  637.00	  631.54	-1770.04	  359.91
    122.9700	  716.00	  631.94	-1691.44	  360.27
    123.0700	  697.00	  631.71	-1710.21	  360.64
    123.1700	  642.00	  630.85	-1764.35	  361.01
    123.2700	  693.00	  629.41	-1711.91	  361.39
    123.3700	  629.00	  627.43	-1773.93	  361.79
    123.4700	  699.00	  624.99	-1701.49	  362.19
    123.5700	  623.00	  622.16	-1774.66	  362.59
    123.6700	  589.00	  619.01	-1805.51	  363.01
    123.7700	  617.00	  615.63	-1774.13	  363.44
    123.8700	  593.00	  612.08	-1794.58	  363.87
    123.9700	  651.00	  608.44	-1732.94	  364.31
    124.0700	  634.00	  604.77	-1746.27	  364.76
    124.1700	  605.00	  601.14	-1771.64	  365.22
    124.2700	  632.00	  597.60	-1741.10	  365.69
    124.3700	  605.00	  594.19	-1764.69	  366.17
    124.4700	  649.00	  590.93	-1717.43	  366.66
    124.5700	  601.00	  587.87	-1762.37	  367.15
    124.6700	  593.00	  585.02	-1767.52	  367.66
    124.7700	  632.00	  582.38	-1725.88	  368.17
    124.8700	  578.00	  579.99	-1777.49	  368.69
    124.9700	  571.00	  486.13	-1690.63	  369.23
    125.0700	  608.00	  486.67	-1775.50	  369.77
    125.1700	  614.00	  487.22	-1775.50	  370.32
    125.2700	  587.00	  487.78	-1775.50	  370.88
    125.3700	  620.00	  488.35	-1775.50	  371.45
    125.4700	  576.00	  488.93	-1775.50	  372.03
    125.5700	  598.00	  489.52	-1775.50	  372.62
    125.6700	  542.00	  490.12	-1775.50	  373.22
    125.7700	  567.00	  490.73	-1775.50	  373.83
    125.8700	  561.00	  491.35	-1775.50	  374.45
    125.9700	  555.00	  491.98	-1775.50	  375.07
    126.0700	  559.00	  492.62	-1775.50	  375.71
    126.1700	  584.00	  493.27	-1775.50	  376.36
    126.2700	  553.00	  493.92	-1775.50	  377.02
    126.3700	  596.00	  494.59	-1775.50	  377.69
    126.4700	  599.00	  495.27	-1775.50	  378.37
    126.5700	  597.00	  495.97	-1775.50	  379.06
    126.6700	  588.00	  496.67	-1775.50	  379.76
    126.7700	  617.00	  497.38	-1775.50	  380.48
    126.8700	  567.00	  498.10	-1775.50	  381.20
    126.9700	  606.00	  498.83	-1775.50	  381.93
    127.0700	  662.00	  499.58	-1775.50	  382.68
    127.1700	  644.00	  500.33	-1775.50	  383.43
    127.2700	  636.00	  501.10	-1775.50	  384.20
    127.3700	  643.00	  501.88	-1775.50	  384.97
    127.4700	  630.00	  502.66	-1775.50	  385.76
    127.5700	  650.00	  503.46	-1775.50	  386.56
    127.6700	  721.00	  504.27	-1775.50	  387.37
    127.7700	  685.00	  505.10	-1775.50	  388.19
    127.8700	  748.00	  505.93	-1775.50	  389.03
    127.9700	  680.00	  506.77	-1775.50	  389.87
    128.0700	  780.00	  507.63	-1775.50	  390.73
    128.1700	  715.00	  508.50	-1775.50	  391.60
    128.2700	  785.00	  509.38	-1775.50	  392.47
    128.3700	  751.00	  510.27	-1775.50	  393.37
    128.4700	  772.00	  511.17	-1775.50	  394.27
    128.5700	    0.00	  512.09	-1775.50	  395.19
    128.6700	    0.00	  513.02	-1775.50	  396.11
     12.3086	        	        	        	        	       0	(  0  0  2)	  0  1
     24.8970	        	        	        	        	       0	(  0  0  4)	  0  1
     28.3335	        	        	        	        	       0	(  1  0  0)	  0  1
     29.0311	        	        	        	        	       0	(  1  0  1)	  0  1
     31.0386	        	        	        	        	       0	(  1  0  2)	  0  1
     34.1488	        	        	        	        	       0	(  1  0  3)	  0  1
     37.8018	        	        	        	        	       0	(  0  0  6)	  0  1
     38.1282	        	        	        	        	       0	(  1  0  4)	  0  1
     42.7809	        	        	        	        	       0	(  1  0  5)	  0  1
     47.9677	        	        	        	        	       0	(  1  0  6)	  0  1
     50.2747	        	        	        	        	       0	(  1  1  0)	  0  1
     51.2296	        	        	        	        	       0	(  0  0  8)	  0  1
     51.9989	        	        	        	        	       0	(  1  1  2)	  0  1
     53.6012	        	        	        	        	       0	(  1  0  7)	  0  1
     56.9500	        	        	        	        	       0	(  1  1  4)	  0  1
     58.7735	        	        	        	        	       0	(  2  0  0)	  0  1
     59.1654	        	        	        	        	       0	(  2  0  1)	  0  1
     59.6349	        	        	        	        	       0	(  1  0  8)	  0  1
     60.3316	        	        	        	        	       0	(  2  0  2)	  0  1
     62.2461	        	        	        	        	       0	(  2  0  3)	  0  1
     64.6496	        	        	        	        	       0	(  1  1  6)	  0  1
     64.8719	        	        	        	        	       0	(  2  0  4)	  0  1
     65.4658	        	        	        	        	       0	(  0  0 10)	  0  1
     66.0548	        	        	        	        	       0	(  1  0  9)	  0  1
     68.1684	        	        	        	        	       0	(  2  0  5)	  0  1
     72.0985	        	        	        	        	       0	(  2  0  6)	  0  1
     72.8749	        	        	        	        	       0	(  1  0 10)	  0  1
     74.6938	        	        	        	        	       0	(  1  1  8)	  0  1
     76.6357	        	        	        	        	       0	(  2  0  7)	  0  1
     80.1371	        	        	        	        	       0	(  1  0 11)	  0  1
     80.9553	        	        	        	        	       0	(  0  0 12)	  0  1
     81.0205	        	        	        	        	       0	(  2  1  0)	  0  1
     81.3606	        	        	        	        	       0	(  2  1  1)	  0  1
     81.7696	        	        	        	        	       0	(  2  0  8)	  0  1
     82.3793	        	        	        	        	       0	(  2  1  2)	  0  1
     84.0718	        	        	        	        	       0	(  2  1  3)	  0  1
     86.4333	        	        	        	        	       0	(  2  1  4)	  0  1
     86.9737	        	        	        	        	       0	(  1  1 10)	  0  1
     87.5118	        	        	        	        	       0	(  2  0  9)	  0  1
     87.9167	        	        	        	        	       0	(  1  0 12)	  0  1
     89.4614	        	        	        	        	       0	(  2  1  5)	  0  1
     93.1617	        	        	        	        	       0	(  2  1  6)	  0  1
     93.9042	        	        	        	        	       0	(  2  0 10)	  0  1
     94.9141	        	        	        	        	       0	(  3  0  0)	  0  1
     95.2517	        	        	        	        	       0	(  3  0  1)	  0  1
     96.2658	        	        	        	        	       0	(  3  0  2)	  0  1
     96.3366	        	        	        	        	       0	(  1  0 13)	  0  1
     97.5540	        	        	        	        	       0	(  2  1  7)	  0  1
     97.9605	        	        	        	        	       0	(  3  0  3)	  0  1
     98.5078	        	        	        	        	       0	(  0  0 14)	  0  1
    100.3455	        	        	        	        	       0	(  3  0  4)	  0  1
    101.0322	        	        	        	        	       0	(  2  0 11)	  0  1
    101.8563	        	        	        	        	       0	(  1  1 12)	  0  1
    102.6809	        	        	        	        	       0	(  2  1  8)	  0  1
    103.4398	        	        	        	        	       0	(  3  0  5)	  0  1
    105.5979	        	        	        	        	       0	(  1  0 14)	  0  1
    107.2785	        	        	        	        	       0	(  3  0  6)	  0  1
    108.6234	        	        	        	        	       0	(  2  1  9)	  0  1
    109.0513	        	        	        	        	       0	(  2  0 12)	  0  1
    111.9234	        	        	        	        	       0	(  3  0  7)	  0  1
    115.5277	        	        	        	        	       0	(  2  1 10)	  0  1
    116.0537	        	        	        	        	       0	(  1  0 15)	  0  1
    116.6499	        	        	        	        	       0	(  2  2  0)	  0  1
    117.4829	        	        	        	        	       0	(  3  0  8)	  0  1
    118.1667	        	        	        	        	       0	(  2  2  2)	  0  1
    118.2467	        	        	        	        	       0	(  2  0 13)	  0  1
    120.0215	        	        	        	        	       0	(  0  0 16)	  0  1
    120.7226	        	        	        	        	       0	(  1  1 14)	  0  1
    122.8576	        	        	        	        	       0	(  2  2  4)	  0  1
    123.6654	        	        	        	        	       0	(  2  1 11)	  0  1
    124.1513	        	        	        	        	       0	(  3  0  9)	  0  1
    124.7211	        	        	        	        	       0	(  3  1  0)	  0  1
    125.1318	        	        	        	        	       0	(  3  1  1)	  0  1
    126.3768	        	        	        	        	       0	(  3  1  2)	  0  1
    128.4180	        	        	        	        	       0	(  1  0 16)	  0  1
    128.4979	        	        	        	        	       0	(  3  1  3)	  0  1
    129.1945	        	        	        	        	       0	(  2  0 14)	  0  1
    131.3092	        	        	        	        	       0	(  2  2  6)	  0  1
    131.5783	        	        	        	        	       0	(  3  1  4)	  0  1
    132.3052	        	        	        	        	       0	(  3  0 10)	  0  1
    133.5952	        	        	        	        	       0	(  2  1 12)	  0  1
    135.7722	        	        	        	        	       0	(  3  1  5)	  0  1
    141.3790	        	        	        	        	       0	(  3  1  6)	  0  1
    142.8087	        	        	        	        	       0	(  3  0 11)	  0  1
    143.3736	        	        	        	        	       0	(  2  0 15)	  0  1
    144.6382	        	        	        	        	       0	(  1  0 17)	  0  1
    145.5741	        	        	        	        	       0	(  2  2  8)	  0  1
    146.7900	        	        	        	        	       0	(  2  1 13)	  0  1
    149.0739	        	        	        	        	       0	(  3  1  7)	  0  1
    149.7449	        	        	        	        	       0	(  1  1 16)	  0  1
    154.2043	        	        	        	        	       0	(  0  0 18)	  0  1
    158.7716	        	        	        	        	       0	(  3  0 12)	  0  1
    158.9514	        	        	        	        	       0	(  4  0  0)	  0  1
    159.9143	        	        	        	        	       0	(  4  0  1)	  0  1
    161.1360	        	        	        	        	       0	(  3  1  8)	  0  1
    163.1182	        	        	        	        	       0	(  4  0  2)	  0  1
    170.2075	        	        	        	        	       0	(  2  0 16)	  0  1
    170.5872	        	        	        	        	       0	(  4  0  3)	  0  1
    174.9773	        	        	        	        	       0	(  2  1 14)	  0  1
