MSG Master    CELL:    5.91966   5.91966  23.27743   90.0000   90.0000  120.0000   SPGR: P 63/m m c             TEMP:   1074.85
  1   1280     2.52000     0.00000    -0.12231     0.00000     0.00000    0
    99     0     2
       0.00000      10.00000
     125.00000     130.00000
 2Theta	Yobs	Ycal	Yobs-Ycal	Backg	Posr	(hkl)	K
      0.7700	    0.00	  563.95	-1739.75	  444.90
      0.8700	    0.00	  564.47	-1739.75	  445.42
      0.9700	   43.00	  564.98	-1739.75	  445.93
      1.0700	   35.00	  565.48	-1739.75	  446.43
      1.1700	   41.00	  565.97	-1739.75	  446.92
      1.2700	   49.00	  566.45	-1739.75	  447.40
      1.3700	   45.00	  566.92	-1739.75	  447.87
      1.4700	   92.00	  567.39	-1739.75	  448.34
      1.5700	  286.00	  567.85	-1739.75	  448.79
      1.6700	  447.00	  568.29	-1739.75	  449.24
      1.7700	  571.00	  568.73	-1739.75	  449.68
      1.8700	  685.00	  569.16	-1739.75	  450.11
      1.9700	  707.00	  569.58	-1739.75	  450.53
      2.0700	  765.00	  570.00	-1739.75	  450.95
      2.1700	  770.00	  570.40	-1739.75	  451.35
      2.2700	  754.00	  570.80	-1739.75	  451.75
      2.3700	  777.00	  571.19	-1739.75	  452.13
      2.4700	  721.00	  571.57	-1739.75	  452.51
      2.5700	  678.00	  571.94	-1739.75	  452.89
      2.6700	  643.00	  572.30	-1739.75	  453.25
      2.7700	  645.00	  572.66	-1739.75	  453.60
      2.8700	  644.00	  573.00	-1739.75	  453.95
      2.9700	  618.00	  573.34	-1739.75	  454.29
      3.0700	  632.00	  573.67	-1739.75	  454.62
      3.1700	  612.00	  574.00	-1739.75	  454.95
      3.2700	  618.00	  574.32	-1739.75	  455.26
      3.3700	  694.00	  574.62	-1739.75	  455.57
      3.4700	  779.00	  574.92	-1739.75	  455.87
      3.5700	  818.00	  575.22	-1739.75	  456.17
      3.6700	  863.00	  575.50	-1739.75	  456.45
      3.7700	  930.00	  575.78	-1739.75	  456.73
      3.8700	  928.00	  576.05	-1739.75	  457.00
      3.9700	  999.00	  576.32	-1739.75	  457.27
      4.0700	 1120.00	  576.57	-1739.75	  457.52
      4.1700	 1149.00	  576.82	-1739.75	  457.77
      4.2700	 1095.00	  577.06	-1739.75	  458.01
      4.3700	 1112.00	  577.30	-1739.75	  458.25
      4.4700	 1046.00	  577.53	-1739.75	  458.48
      4.5700	 1108.00	  577.75	-1739.75	  458.70
      4.6700	 1054.00	  577.96	-1739.75	  458.91
      4.7700	  915.00	  578.17	-1739.75	  459.12
      4.8700	  964.00	  578.37	-1739.75	  459.32
      4.9700	  952.00	  578.56	-1739.75	  459.51
      5.0700	  954.00	  578.75	-1739.75	  459.70
      5.1700	  926.00	  578.93	-1739.75	  459.88
      5.2700	  965.00	  579.10	-1739.75	  460.05
      5.3700	  864.00	  579.27	-1739.75	  460.22
      5.4700	  881.00	  579.43	-1739.75	  460.38
      5.5700	  807.00	  579.58	-1739.75	  460.53
      5.6700	  864.00	  579.73	-1739.75	  460.68
      5.7700	  822.00	  579.87	-1739.75	  460.82
      5.8700	  790.00	  580.01	-1739.75	  460.96
      5.9700	  821.00	  580.13	-1739.75	  461.08
      6.0700	  764.00	  580.26	-1739.75	  461.21
      6.1700	  814.00	  580.37	-1739.75	  461.32
      6.2700	  773.00	  580.48	-1739.75	  461.43
      6.3700	  738.00	  580.59	-1739.75	  461.54
      6.4700	  744.00	  580.69	-1739.75	  461.63
      6.5700	  716.00	  580.78	-1739.75	  461.73
      6.6700	  736.00	  580.86	-1739.75	  461.81
      6.7700	  730.00	  580.94	-1739.75	  461.89
      6.8700	  691.00	  581.02	-1739.75	  461.97
      6.9700	  706.00	  581.09	-1739.75	  462.04
      7.0700	  690.00	  581.15	-1739.75	  462.10
      7.1700	  716.00	  581.21	-1739.75	  462.16
      7.2700	  685.00	  581.26	-1739.75	  462.21
      7.3700	  681.00	  581.31	-1739.75	  462.26
      7.4700	  681.00	  581.35	-1739.75	  462.30
      7.5700	  666.00	  581.38	-1739.75	  462.33
      7.6700	  621.00	  581.41	-1739.75	  462.36
      7.7700	  670.00	  581.44	-1739.75	  462.39
      7.8700	  655.00	  581.46	-1739.75	  462.41
      7.9700	  605.00	  581.47	-1739.75	  462.42
      8.0700	  604.00	  581.48	-1739.75	  462.43
      8.1700	  642.00	  581.49	-1739.75	  462.44
      8.2700	  618.00	  581.49	-1739.75	  462.44
      8.3700	  614.00	  581.48	-1739.75	  462.43
      8.4700	  609.00	  581.47	-1739.75	  462.42
      8.5700	  628.00	  581.45	-1739.75	  462.40
      8.6700	  665.00	  581.43	-1739.75	  462.38
      8.7700	  654.00	  581.41	-1739.75	  462.36
      8.8700	  611.00	  581.38	-1739.75	  462.33
      8.9700	  649.00	  581.34	-1739.75	  462.29
      9.0700	  610.00	  581.30	-1739.75	  462.25
      9.1700	  619.00	  581.26	-1739.75	  462.21
      9.2700	  577.00	  581.21	-1739.75	  462.16
      9.3700	  605.00	  581.15	-1739.75	  462.10
      9.4700	  584.00	  581.10	-1739.75	  462.04
      9.5700	  658.00	  581.03	-1739.75	  461.98
      9.6700	  613.00	  580.97	-1739.75	  461.91
      9.7700	  631.00	  580.89	-1739.75	  461.84
      9.8700	  570.00	  580.82	-1739.75	  461.77
      9.9700	  610.00	  580.74	-1739.75	  461.69
     10.0700	  613.00	  581.55	-1708.30	  461.60
     10.1700	  569.00	  581.56	-1752.31	  461.51
     10.2700	  556.00	  581.59	-1765.34	  461.42
     10.3700	  578.00	  581.65	-1743.40	  461.32
     10.4700	  604.00	  581.78	-1717.53	  461.22
     10.5700	  615.00	  582.02	-1706.77	  461.12
     10.6700	  582.00	  582.49	-1740.24	  461.01
     10.7700	  620.00	  583.29	-1703.04	  460.89
     10.8700	  602.00	  584.50	-1722.25	  460.78
     10.9700	  607.00	  586.11	-1718.86	  460.66
     11.0700	  603.00	  588.09	-1724.84	  460.53
     11.1700	  595.00	  590.44	-1735.19	  460.40
     11.2700	  572.00	  593.19	-1760.94	  460.27
     11.3700	  598.00	  596.43	-1738.18	  460.13
     11.4700	  641.00	  600.29	-1699.04	  459.99
     11.5700	  569.00	  605.00	-1775.75	  459.85
     11.6700	  637.00	  610.91	-1713.66	  459.70
     11.7700	  578.00	  618.67	-1780.42	  459.55
     11.8700	  646.00	  629.16	-1722.91	  459.40
     11.9700	  631.00	  642.92	-1751.67	  459.24
     12.0700	  676.00	  658.19	-1721.94	  459.08
     12.1700	  714.00	  668.83	-1694.58	  458.92
     12.2700	  743.00	  665.27	-1662.02	  458.75
     12.3700	  694.00	  644.56	-1690.31	  458.58
     12.4700	  681.00	  619.01	-1677.76	  458.41
     12.5700	  598.00	  599.90	-1741.65	  458.23
     12.6700	  582.00	  589.13	-1746.88	  458.05
     12.7700	  552.00	  584.01	-1771.76	  457.86
     12.8700	  596.00	  581.60	-1725.35	  457.68
     12.9700	  625.00	  580.25	-1695.00	  457.49
     13.0700	  555.00	  579.32	-1764.07	  457.30
     13.1700	  556.00	  578.61	-1762.36	  457.10
     13.2700	  585.00	  578.02	-1732.77	  456.90
     13.3700	  537.00	  577.52	-1780.27	  456.70
     13.4700	  572.00	  577.09	-1744.84	  456.49
     13.5700	  568.00	  576.69	-1748.44	  456.29
     13.6700	  569.00	  576.33	-1747.08	  456.08
     13.7700	  567.00	  575.99	-1748.74	  455.86
     13.8700	  598.00	  575.68	-1717.43	  455.65
     13.9700	  562.00	  575.37	-1753.12	  455.43
     14.0700	  547.00	  575.08	-1767.83	  455.21
     14.1700	  560.00	  574.79	-1754.54	  454.99
     14.2700	  586.00	  574.51	-1728.26	  454.76
     14.3700	  592.00	  574.23	-1721.98	  454.53
     14.4700	  560.00	  573.96	-1753.71	  454.30
     14.5700	  559.00	  573.69	-1754.44	  454.07
     14.6700	  565.00	  573.42	-1748.17	  453.83
     14.7700	  575.00	  573.15	-1737.90	  453.59
     14.8700	  514.00	  572.89	-1798.64	  453.35
     14.9700	  528.00	  572.62	-1784.37	  453.11
     15.0700	  545.00	  572.35	-1767.10	  452.86
     15.1700	  560.00	  572.09	-1751.84	  452.62
     15.2700	  546.00	  571.82	-1765.57	  452.37
     15.3700	  567.00	  571.55	-1744.30	  452.11
     15.4700	  576.00	  571.28	-1735.03	  451.86
     15.5700	  561.00	  571.02	-1749.77	  451.60
     15.6700	  522.00	  570.75	-1788.50	  451.34
     15.7700	  582.00	  570.47	-1728.22	  451.08
     15.8700	  550.00	  570.20	-1759.95	  450.82
     15.9700	  560.00	  569.96	-1749.71	  450.56
     16.0700	  573.00	  569.68	-1736.43	  450.29
     16.1700	  564.00	  569.41	-1745.16	  450.02
     16.2700	  596.00	  569.13	-1712.88	  449.75
     16.3700	  576.00	  568.85	-1732.60	  449.48
     16.4700	  557.00	  568.57	-1751.32	  449.21
     16.5700	  518.00	  568.29	-1790.04	  448.93
     16.6700	  579.00	  568.01	-1728.76	  448.65
     16.7700	  562.00	  567.72	-1745.47	  448.37
     16.8700	  559.00	  567.44	-1748.19	  448.09
     16.9700	  576.00	  567.15	-1730.90	  447.81
     17.0700	  562.00	  566.87	-1744.62	  447.53
     17.1700	  576.00	  566.58	-1730.33	  447.24
     17.2700	  550.00	  566.29	-1756.04	  446.95
     17.3700	  544.00	  566.00	-1761.75	  446.66
     17.4700	  574.00	  565.70	-1731.45	  446.37
     17.5700	  596.00	  565.41	-1709.16	  446.08
     17.6700	  539.00	  565.11	-1765.86	  445.79
     17.7700	  547.00	  564.82	-1757.57	  445.49
     17.8700	  569.00	  564.52	-1735.27	  445.20
     17.9700	  536.00	  564.22	-1767.97	  444.90
     18.0700	  580.00	  563.92	-1723.67	  444.60
     18.1700	  595.00	  563.73	-1708.48	  444.30
     18.2700	  589.00	  563.43	-1714.18	  444.00
     18.3700	  547.00	  563.13	-1755.88	  443.70
     18.4700	  555.00	  562.83	-1747.58	  443.39
     18.5700	  575.00	  562.53	-1727.28	  443.09
     18.6700	  566.00	  562.22	-1735.97	  442.78
     18.7700	  618.00	  561.92	-1683.67	  442.47
     18.8700	  587.00	  561.61	-1714.36	  442.16
     18.9700	  521.00	  561.38	-1780.13	  441.86
     19.0700	  569.00	  561.08	-1731.83	  441.54
     19.1700	  551.00	  560.77	-1749.52	  441.23
     19.2700	  551.00	  560.46	-1749.21	  440.92
     19.3700	  533.00	  560.16	-1766.91	  440.61
     19.4700	  494.00	  559.85	-1805.60	  440.29
     19.5700	  530.00	  559.54	-1769.29	  439.98
     19.6700	  542.00	  559.23	-1756.98	  439.66
     19.7700	  604.00	  558.92	-1694.67	  439.34
     19.8700	  551.00	  558.61	-1747.36	  439.02
     19.9700	  545.00	  558.30	-1753.05	  438.71
     20.0700	  571.00	  557.99	-1726.74	  438.39
     20.1700	  533.00	  557.68	-1764.43	  438.07
     20.2700	  581.00	  557.37	-1716.12	  437.75
     20.3700	  556.00	  557.06	-1740.81	  437.42
     20.4700	  527.00	  556.75	-1769.50	  437.10
     20.5700	  522.00	  556.44	-1774.19	  436.78
     20.6700	  547.00	  556.13	-1748.88	  436.45
     20.7700	  544.00	  555.82	-1751.57	  436.13
     20.8700	  540.00	  555.51	-1755.26	  435.80
     20.9700	  563.00	  555.20	-1731.95	  435.48
     21.0700	  530.00	  554.89	-1764.64	  435.15
     21.1700	  577.00	  554.58	-1717.33	  434.83
     21.2700	  540.00	  554.28	-1754.03	  434.50
     21.3700	  524.00	  553.97	-1769.72	  434.17
     21.4700	  566.00	  553.66	-1727.41	  433.84
     21.5700	  535.00	  553.36	-1758.11	  433.52
     21.6700	  558.00	  553.06	-1734.81	  433.19
     21.7700	  549.00	  552.76	-1743.51	  432.86
     21.8700	  561.00	  552.46	-1731.21	  432.53
     21.9700	  573.00	  552.16	-1718.91	  432.20
     22.0700	  589.00	  551.87	-1702.62	  431.87
     22.1700	  571.00	  551.58	-1720.33	  431.54
     22.2700	  569.00	  551.29	-1722.04	  431.21
     22.3700	  517.00	  551.00	-1773.75	  430.88
     22.4700	  560.00	  550.72	-1730.47	  430.55
     22.5700	  533.00	  550.45	-1757.20	  430.22
     22.6700	  570.00	  550.18	-1719.93	  429.89
     22.7700	  566.00	  549.92	-1723.67	  429.55
     22.8700	  523.00	  549.67	-1766.42	  429.22
     22.9700	  591.00	  549.43	-1698.18	  428.89
     23.0700	  536.00	  549.20	-1752.95	  428.56
     23.1700	  584.00	  548.99	-1704.74	  428.23
     23.2700	  586.00	  548.80	-1702.55	  427.90
     23.3700	  545.00	  548.65	-1743.40	  427.56
     23.4700	  585.00	  548.52	-1703.27	  427.23
     23.5700	  547.00	  548.45	-1741.20	  426.90
     23.6700	  549.00	  548.58	-1739.33	  426.57
     23.7700	  598.00	  548.71	-1690.46	  426.24
     23.8700	  568.00	  549.06	-1720.81	  425.91
     23.9700	  579.00	  549.86	-1710.61	  425.58
     24.0700	  573.00	  551.52	-1718.27	  425.24
     24.1700	  528.00	  554.68	-1766.43	  424.91
     24.2700	  562.00	  560.14	-1737.89	  424.58
     24.3700	  563.00	  568.81	-1745.56	  424.25
     24.4700	  572.00	  581.57	-1749.32	  423.92
     24.5700	  627.00	  598.44	-1711.19	  423.59
     24.6700	  614.00	  616.63	-1742.38	  423.26
     24.7700	  609.00	  628.87	-1759.62	  422.93
     24.8700	  643.00	  625.67	-1722.42	  422.60
     24.9700	  601.00	  606.10	-1744.85	  422.27
     25.0700	  628.00	  582.45	-1694.20	  421.95
     25.1700	  611.00	  564.51	-1693.26	  421.62
     25.2700	  557.00	  554.09	-1736.84	  421.29
     25.3700	  536.00	  548.99	-1752.74	  420.96
     25.4700	  510.00	  546.59	-1776.34	  420.63
     25.5700	  560.00	  545.31	-1725.06	  420.31
     25.6700	  533.00	  544.47	-1751.22	  419.98
     25.7700	  508.00	  543.87	-1775.62	  419.66
     25.8700	  570.00	  543.41	-1713.16	  419.33
     25.9700	  556.00	  543.07	-1726.81	  419.01
     26.0700	  545.00	  542.81	-1737.56	  418.68
     26.1700	  540.00	  542.63	-1742.38	  418.36
     26.2700	  485.00	  542.54	-1797.29	  418.03
     26.3700	  582.00	  542.52	-1700.27	  417.71
     26.4700	  530.00	  542.59	-1752.34	  417.39
     26.5700	  530.00	  542.76	-1752.51	  417.07
     26.6700	  543.00	  543.04	-1739.79	  416.75
     26.7700	  535.00	  543.47	-1748.22	  416.43
     26.8700	  549.00	  544.06	-1734.81	  416.11
     26.9700	  555.00	  544.89	-1729.64	  415.79
     27.0700	  509.00	  546.03	-1776.78	  415.47
     27.1700	  546.00	  547.61	-1741.36	  415.15
     27.2700	  589.00	  549.88	-1700.63	  414.83
     27.3700	  520.00	  553.38	-1773.13	  414.52
     27.4700	  575.00	  559.13	-1723.88	  414.20
     27.5700	  562.00	  569.01	-1746.76	  413.89
     27.6700	  606.00	  586.01	-1719.76	  413.57
     27.7700	  580.00	  614.07	-1773.82	  413.26
     27.8700	  657.00	  656.73	-1739.48	  412.95
     27.9700	  646.00	  714.39	-1808.14	  412.64
     28.0700	  749.00	  780.55	-1771.30	  412.32
     28.1700	  902.00	  838.45	-1676.20	  412.01
     28.2700	  967.00	  862.48	-1635.23	  411.71
     28.3700	  915.00	  836.83	-1661.58	  411.40
     28.4700	  823.00	  784.46	-1701.21	  411.09
     28.5700	  749.00	  744.55	-1735.30	  410.78
     28.6700	  680.00	  735.31	-1795.06	  410.48
     28.7700	  751.00	  752.58	-1741.33	  410.17
     28.8700	  773.00	  776.79	-1743.54	  409.87
     28.9700	  797.00	  780.64	-1723.39	  409.57
     29.0700	  743.00	  746.53	-1743.28	  409.26
     29.1700	  662.00	  688.35	-1766.10	  408.96
     29.2700	  631.00	  632.79	-1741.54	  408.66
     29.3700	  625.00	  592.73	-1707.48	  408.36
     29.4700	  600.00	  568.56	-1708.31	  408.07
     29.5700	  549.00	  555.53	-1746.28	  407.77
     29.6700	  574.00	  548.65	-1714.40	  407.47
     29.7700	  574.00	  544.74	-1710.49	  407.18
     29.8700	  599.00	  542.28	-1683.03	  406.88
     29.9700	  552.00	  540.71	-1728.46	  406.59
     30.0700	  577.00	  539.89	-1702.64	  406.30
     30.1700	  569.00	  539.95	-1710.70	  406.01
     30.2700	  599.00	  541.40	-1682.15	  405.72
     30.3700	  517.00	  545.18	-1767.93	  405.43
     30.4700	  561.00	  552.76	-1731.51	  405.14
     30.5700	  560.00	  565.65	-1745.40	  404.86
     30.6700	  582.00	  584.30	-1742.05	  404.57
     30.7700	  634.00	  606.40	-1712.15	  404.29
     30.8700	  591.00	  625.70	-1774.45	  404.01
     30.9700	  593.00	  632.65	-1779.40	  403.72
     31.0700	  659.00	  620.58	-1701.33	  403.44
     31.1700	  600.00	  595.78	-1735.53	  403.16
     31.2700	  548.00	  570.78	-1762.53	  402.89
     31.3700	  534.00	  552.26	-1758.01	  402.61
     31.4700	  552.00	  540.95	-1728.70	  402.33
     31.5700	  553.00	  534.88	-1721.63	  402.06
     31.6700	  560.00	  531.76	-1711.51	  401.79
     31.7700	  553.00	  530.03	-1716.78	  401.52
     31.8700	  544.00	  528.95	-1724.70	  401.24
     31.9700	  552.00	  528.20	-1715.95	  400.98
     32.0700	  519.00	  527.68	-1748.43	  400.71
     32.1700	  544.00	  527.34	-1723.09	  400.44
     32.2700	  528.00	  527.15	-1738.90	  400.18
     32.3700	  576.00	  527.10	-1690.85	  399.91
     32.4700	  524.00	  527.22	-1742.97	  399.65
     32.5700	  578.00	  527.50	-1689.25	  399.39
     32.6700	  576.00	  527.98	-1691.73	  399.13
     32.7700	  523.00	  528.71	-1745.46	  398.87
     32.8700	  577.00	  529.75	-1692.50	  398.61
     32.9700	  537.00	  531.23	-1733.98	  398.36
     33.0700	  559.00	  533.37	-1714.12	  398.10
     33.1700	  541.00	  536.64	-1735.39	  397.85
     33.2700	  538.00	  542.11	-1743.86	  397.60
     33.3700	  559.00	  552.09	-1732.84	  397.35
     33.4700	  558.00	  570.95	-1752.70	  397.10
     33.5700	  601.00	  605.59	-1744.34	  396.85
     33.6700	  645.00	  663.83	-1758.58	  396.60
     33.7700	  725.00	  749.00	-1763.75	  396.36
     33.8700	  888.00	  851.76	-1703.51	  396.11
     33.9700	  952.00	  944.72	-1732.47	  395.87
     34.0700	 1087.00	  985.88	-1638.63	  395.63
     34.1700	 1033.00	  944.24	-1650.99	  395.39
     34.2700	  869.00	  841.20	-1711.95	  395.16
     34.3700	  710.00	  729.83	-1759.58	  394.92
     34.4700	  627.00	  643.11	-1755.86	  394.68
     34.5700	  592.00	  588.12	-1735.87	  394.45
     34.6700	  573.00	  558.04	-1724.79	  394.22
     34.7700	  581.00	  542.78	-1701.53	  393.99
     34.8700	  541.00	  534.79	-1733.54	  393.76
     34.9700	  526.00	  530.03	-1743.78	  393.53
     35.0700	  515.00	  526.78	-1751.53	  393.31
     35.1700	  574.00	  524.32	-1690.07	  393.08
     35.2700	  576.00	  522.37	-1686.12	  392.86
     35.3700	  508.00	  520.79	-1752.54	  392.64
     35.4700	  515.00	  519.49	-1744.24	  392.42
     35.5700	  483.00	  518.38	-1775.13	  392.20
     35.6700	  537.00	  517.44	-1720.19	  391.99
     35.7700	  502.00	  516.62	-1754.37	  391.77
     35.8700	  516.00	  515.90	-1739.65	  391.56
     35.9700	  502.00	  515.27	-1753.02	  391.35
     36.0700	  504.00	  514.70	-1750.45	  391.14
     36.1700	  498.00	  514.65	-1756.40	  390.93
     36.2700	  535.00	  514.20	-1718.95	  390.72
     36.3700	  502.00	  513.79	-1751.54	  390.51
     36.4700	  505.00	  513.42	-1748.17	  390.31
     36.5700	  544.00	  513.10	-1708.85	  390.11
     36.6700	  570.00	  512.81	-1682.56	  389.91
     36.7700	  499.00	  512.58	-1753.33	  389.71
     36.8700	  513.00	  512.42	-1739.17	  389.51
     36.9700	  492.00	  512.41	-1760.16	  389.31
     37.0700	  496.00	  512.67	-1756.42	  389.12
     37.1700	  484.00	  513.46	-1769.21	  388.93
     37.2700	  553.00	  515.13	-1701.88	  388.73
     37.3700	  556.00	  517.99	-1701.74	  388.55
     37.4700	  485.00	  521.99	-1776.74	  388.36
     37.5700	  552.00	  526.38	-1714.13	  388.17
     37.6700	  508.00	  529.65	-1761.40	  387.99
     37.7700	  545.00	  530.20	-1724.95	  387.80
     37.8700	  519.00	  527.74	-1748.49	  387.62
     37.9700	  530.00	  523.79	-1733.54	  387.44
     38.0700	  467.00	  519.73	-1792.48	  387.26
     38.1700	  528.00	  516.16	-1727.91	  387.09
     38.2700	  457.00	  513.31	-1796.06	  386.91
     38.3700	  505.00	  511.25	-1746.00	  386.74
     38.4700	  513.00	  509.86	-1736.61	  386.57
     38.5700	  502.00	  508.95	-1746.70	  386.40
     38.6700	  524.00	  508.26	-1724.01	  386.23
     38.7700	  544.00	  507.86	-1703.61	  386.06
     38.8700	  515.00	  507.55	-1732.30	  385.90
     38.9700	  521.00	  507.30	-1726.05	  385.73
     39.0700	  454.00	  507.08	-1792.83	  385.57
     39.1700	  508.00	  506.80	-1738.55	  385.41
     39.2700	  492.00	  506.61	-1754.36	  385.25
     39.3700	  525.00	  506.57	-1721.32	  385.10
     39.4700	  544.00	  506.42	-1702.17	  384.94
     39.5700	  555.00	  506.27	-1691.02	  384.79
     39.6700	  473.00	  506.13	-1772.88	  384.64
     39.7700	  534.00	  506.00	-1711.75	  384.49
     39.8700	  473.00	  505.88	-1772.63	  384.34
     39.9700	  523.00	  505.78	-1722.53	  384.19
     40.0700	  511.00	  505.68	-1734.43	  384.05
     40.1700	  530.00	  505.59	-1715.34	  383.90
     40.2700	  504.00	  505.51	-1741.26	  383.76
     40.3700	  539.00	  505.45	-1706.20	  383.62
     40.4700	  490.00	  505.39	-1755.14	  383.48
     40.5700	  481.00	  505.36	-1764.11	  383.35
     40.6700	  570.00	  505.34	-1675.09	  383.21
     40.7700	  485.00	  505.34	-1760.09	  383.08
     40.8700	  467.00	  505.36	-1778.11	  382.95
     40.9700	  523.00	  505.42	-1722.17	  382.82
     41.0700	  481.00	  505.51	-1764.26	  382.69
     41.1700	  486.00	  505.63	-1759.38	  382.56
     41.2700	  465.00	  505.79	-1780.54	  382.44
     41.3700	  522.00	  506.04	-1723.79	  382.31
     41.4700	  529.00	  506.37	-1717.12	  382.19
     41.5700	  515.00	  507.27	-1732.02	  382.07
     41.6700	  528.00	  507.92	-1719.67	  381.95
     41.7700	  527.00	  508.90	-1721.65	  381.84
     41.8700	  516.00	  510.54	-1734.29	  381.72
     41.9700	  555.00	  513.56	-1698.31	  381.61
     42.0700	  479.00	  519.31	-1780.06	  381.50
     42.1700	  531.00	  529.90	-1738.65	  381.39
     42.2700	  536.00	  547.72	-1751.47	  381.28
     42.3700	  557.00	  574.00	-1756.75	  381.17
     42.4700	  557.00	  606.71	-1789.46	  381.07
     42.5700	  638.00	  638.63	-1740.38	  380.96
     42.6700	  656.00	  658.28	-1742.03	  380.86
     42.7700	  615.00	  655.35	-1780.10	  380.76
     42.8700	  558.00	  630.79	-1812.54	  380.66
     42.9700	  542.00	  596.57	-1794.32	  380.57
     43.0700	  518.00	  564.51	-1786.26	  380.47
     43.1700	  522.00	  540.36	-1758.11	  380.38
     43.2700	  539.00	  524.89	-1725.64	  380.29
     43.3700	  509.00	  516.15	-1746.90	  380.20
     43.4700	  508.00	  511.56	-1743.31	  380.11
     43.5700	  480.00	  509.16	-1768.91	  380.02
     43.6700	  512.00	  507.78	-1735.53	  379.94
     43.7700	  468.00	  507.07	-1778.82	  379.85
     43.8700	  531.00	  506.46	-1715.21	  379.77
     43.9700	  537.00	  505.98	-1708.73	  379.69
     44.0700	  505.00	  505.60	-1740.35	  379.61
     44.1700	  523.00	  505.31	-1722.06	  379.54
     44.2700	  501.00	  505.08	-1743.83	  379.46
     44.3700	  528.00	  504.90	-1716.66	  379.39
     44.4700	  500.00	  504.77	-1744.52	  379.32
     44.5700	  504.00	  504.68	-1740.43	  379.25
     44.6700	  516.00	  504.49	-1728.24	  379.18
     44.7700	  521.00	  504.46	-1723.21	  379.11
     44.8700	  500.00	  504.46	-1744.21	  379.05
     44.9700	  469.00	  504.48	-1775.23	  378.98
     45.0700	  532.00	  504.52	-1712.27	  378.92
     45.1700	  485.00	  504.59	-1759.34	  378.86
     45.2700	  500.00	  504.86	-1744.61	  378.80
     45.3700	  505.00	  504.97	-1739.72	  378.74
     45.4700	  490.00	  505.10	-1754.85	  378.69
     45.5700	  533.00	  505.26	-1712.01	  378.63
     45.6700	  452.00	  505.45	-1793.20	  378.58
     45.7700	  473.00	  505.66	-1772.41	  378.53
     45.8700	  488.00	  505.89	-1757.64	  378.48
     45.9700	  523.00	  506.16	-1722.91	  378.43
     46.0700	  499.00	  506.47	-1747.22	  378.39
     46.1700	  474.00	  506.81	-1772.56	  378.34
     46.2700	  508.00	  507.20	-1738.95	  378.30
     46.3700	  500.00	  507.64	-1747.39	  378.26
     46.4700	  525.00	  508.14	-1722.89	  378.22
     46.5700	  491.00	  508.71	-1757.46	  378.18
     46.6700	  500.00	  509.38	-1749.13	  378.14
     46.7700	  539.00	  510.16	-1710.91	  378.11
     46.8700	  510.00	  511.13	-1740.88	  378.07
     46.9700	  523.00	  512.42	-1729.18	  378.04
     47.0700	  543.00	  514.33	-1711.08	  378.01
     47.1700	  519.00	  517.50	-1738.25	  377.98
     47.2700	  504.00	  522.70	-1758.45	  377.95
     47.3700	  513.00	  531.22	-1757.97	  377.93
     47.4700	  561.00	  544.12	-1722.87	  377.90
     47.5700	  539.00	  561.47	-1762.22	  377.88
     47.6700	  594.00	  581.46	-1727.21	  377.86
     47.7700	  594.00	  599.84	-1745.59	  377.84
     47.8700	  630.00	  610.59	-1720.34	  377.82
     47.9700	  635.00	  609.21	-1713.96	  377.80
     48.0700	  548.00	  597.00	-1788.75	  377.78
     48.1700	  542.00	  580.04	-1777.79	  377.77
     48.2700	  558.00	  563.99	-1745.74	  377.76
     48.3700	  570.00	  552.08	-1721.83	  377.75
     48.4700	  525.00	  545.20	-1759.95	  377.74
     48.5700	  564.00	  542.75	-1718.50	  377.73
     48.6700	  499.00	  543.64	-1784.39	  377.72
     48.7700	  571.00	  546.91	-1715.66	  377.72
     48.8700	  508.00	  552.08	-1783.83	  377.71
     48.9700	  527.00	  559.16	-1771.91	  377.71
     49.0700	  570.00	  568.78	-1738.53	  377.71
     49.1700	  594.00	  582.51	-1728.26	  377.71
     49.2700	  557.00	  603.75	-1786.50	  377.71
     49.3700	  633.00	  639.01	-1745.76	  377.71
     49.4700	  690.00	  699.81	-1749.56	  377.72
     49.5700	  793.00	  801.77	-1748.52	  377.73
     49.6700	  901.00	  964.00	-1802.75	  377.73
     49.7700	 1137.00	 1200.76	-1803.51	  377.74
     49.8700	 1569.00	 1510.70	-1681.45	  377.75
     49.9700	 1906.00	 1864.55	-1698.30	  377.76
     50.0700	 2183.00	 2195.85	-1752.60	  377.78
     50.1700	 2488.00	 2406.33	-1658.08	  377.79
     50.2700	 2543.00	 2408.77	-1605.52	  377.81
     50.3700	 2148.00	 2199.92	-1791.67	  377.82
     50.4700	 1849.00	 1867.63	-1758.38	  377.84
     50.5700	 1418.00	 1514.98	-1836.73	  377.86
     50.6700	 1072.00	 1209.63	-1877.38	  377.88
     50.7700	  815.00	  980.71	-1905.46	  377.91
     50.8700	  698.00	  828.65	-1870.40	  377.93
     50.9700	  666.00	  737.31	-1811.06	  377.95
     51.0700	  673.00	  685.16	-1751.91	  377.98
     51.1700	  572.00	  653.13	-1820.88	  378.01
     51.2700	  609.00	  629.09	-1759.84	  378.04
     51.3700	  588.00	  608.25	-1760.00	  378.07
     51.4700	  596.00	  590.08	-1733.83	  378.10
     51.5700	  561.00	  575.15	-1753.90	  378.13
     51.6700	  557.00	  563.77	-1746.52	  378.17
     51.7700	  544.00	  555.69	-1751.44	  378.20
     51.8700	  524.00	  550.28	-1766.03	  378.24
     51.9700	  523.00	  546.83	-1763.58	  378.28
     52.0700	  584.00	  544.77	-1700.52	  378.32
     52.1700	  524.00	  543.99	-1759.74	  378.36
     52.2700	  545.00	  543.94	-1738.69	  378.40
     52.3700	  542.00	  544.97	-1742.72	  378.44
     52.4700	  555.00	  547.55	-1732.30	  378.48
     52.5700	  531.00	  552.80	-1761.55	  378.53
     52.6700	  577.00	  563.04	-1725.79	  378.58
     52.7700	  682.00	  582.36	-1640.11	  378.62
     52.8700	  619.00	  616.88	-1737.63	  378.67
     52.9700	  685.00	  673.85	-1728.60	  378.72
     53.0700	  817.00	  758.97	-1681.72	  378.77
     53.1700	  908.00	  872.11	-1703.86	  378.83
     53.2700	 1102.00	 1002.76	-1640.51	  378.88
     53.3700	 1095.00	 1127.32	-1772.07	  378.93
     53.4700	 1175.00	 1211.15	-1775.90	  378.99
     53.5700	 1162.00	 1222.27	-1800.02	  379.05
     53.6700	 1068.00	 1155.27	-1827.02	  379.10
     53.7700	 1017.00	 1037.29	-1760.04	  379.16
     53.8700	  904.00	  905.10	-1740.85	  379.22
     53.9700	  757.00	  785.97	-1768.72	  379.28
     54.0700	  686.00	  693.59	-1747.34	  379.35
     54.1700	  636.00	  630.29	-1734.04	  379.41
     54.2700	  612.00	  591.30	-1719.05	  379.47
     54.3700	  570.00	  569.34	-1739.09	  379.54
     54.4700	  566.00	  557.78	-1731.53	  379.61
     54.5700	  552.00	  551.96	-1739.71	  379.67
     54.6700	  544.00	  549.15	-1744.90	  379.74
     54.7700	  573.00	  548.06	-1714.81	  379.81
     54.8700	  572.00	  548.04	-1715.79	  379.88
     54.9700	  557.00	  548.84	-1731.59	  379.96
     55.0700	  627.00	  550.40	-1663.15	  380.03
     55.1700	  593.00	  552.73	-1699.48	  380.10
     55.2700	  607.00	  555.85	-1688.60	  380.18
     55.3700	  568.00	  559.91	-1731.66	  380.25
     55.4700	  569.00	  565.13	-1735.88	  380.33
     55.5700	  567.00	  571.90	-1744.65	  380.41
     55.6700	  585.00	  581.06	-1735.81	  380.49
     55.7700	  575.00	  594.26	-1759.01	  380.57
     55.8700	  575.00	  614.88	-1779.63	  380.65
     55.9700	  664.00	  649.17	-1724.92	  380.73
     56.0700	  651.00	  707.55	-1796.30	  380.81
     56.1700	  753.00	  804.99	-1791.74	  380.89
     56.2700	  935.00	  959.26	-1764.01	  380.98
     56.3700	 1124.00	 1185.60	-1801.35	  381.06
     56.4700	 1401.00	 1488.14	-1826.89	  381.15
     56.5700	 1724.00	 1850.31	-1866.06	  381.24
     56.6700	 2160.00	 2227.17	-1806.92	  381.32
     56.7700	 2489.00	 2543.38	-1794.13	  381.41
     56.8700	 2580.00	 2707.58	-1867.33	  381.50
     56.9700	 2644.00	 2658.68	-1754.43	  381.59
     57.0700	 2406.00	 2415.60	-1749.35	  381.68
     57.1700	 2084.00	 2061.61	-1717.36	  381.77
     57.2700	 1676.00	 1685.64	-1749.39	  381.87
     57.3700	 1337.00	 1349.69	-1752.44	  381.96
     57.4700	 1006.00	 1085.02	-1818.77	  382.06
     57.5700	  847.00	  897.64	-1790.39	  382.15
     57.6700	  768.00	  777.42	-1749.17	  382.25
     57.7700	  694.00	  707.78	-1753.53	  382.34
     57.8700	  642.00	  673.06	-1770.81	  382.44
     57.9700	  681.00	  662.26	-1721.01	  382.54
     58.0700	  673.00	  669.54	-1736.29	  382.64
     58.1700	  747.00	  692.98	-1685.73	  382.74
     58.2700	  718.00	  732.66	-1754.41	  382.84
     58.3700	  844.00	  788.79	-1684.54	  382.94
     58.4700	  911.00	  860.01	-1688.76	  383.04
     58.5700	 1055.00	  941.88	-1626.63	  383.14
     58.6700	 1178.00	 1026.38	-1588.13	  383.25
     58.7700	 1310.00	 1104.10	-1533.85	  383.35
     58.8700	 1379.00	 1168.61	-1529.36	  383.46
     58.9700	 1412.00	 1216.35	-1544.10	  383.56
     59.0700	 1533.00	 1242.57	-1449.32	  383.67
     59.1700	 1520.00	 1242.92	-1462.67	  383.77
     59.2700	 1419.00	 1220.97	-1541.72	  383.88
     59.3700	 1324.00	 1188.59	-1604.34	  383.99
     59.4700	 1266.00	 1158.10	-1631.85	  384.10
     59.5700	 1171.00	 1138.01	-1706.76	  384.21
     59.6700	 1144.00	 1135.93	-1731.68	  384.32
     59.7700	 1162.00	 1160.61	-1738.36	  384.43
     59.8700	 1231.00	 1217.46	-1726.21	  384.54
     59.9700	 1306.00	 1302.28	-1736.03	  384.65
     60.0700	 1421.00	 1398.29	-1717.04	  384.76
     60.1700	 1544.00	 1477.08	-1672.83	  384.87
     60.2700	 1641.00	 1505.59	-1604.34	  384.98
     60.3700	 1550.00	 1463.41	-1653.16	  385.10
     60.4700	 1432.00	 1357.47	-1665.22	  385.21
     60.5700	 1260.00	 1215.00	-1694.75	  385.33
     60.6700	 1092.00	 1065.17	-1712.92	  385.44
     60.7700	  986.00	  929.35	-1683.10	  385.56
     60.8700	  819.00	  819.49	-1740.24	  385.67
     60.9700	  734.00	  739.67	-1745.42	  385.79
     61.0700	  664.00	  688.67	-1764.42	  385.91
     61.1700	  659.00	  663.07	-1743.82	  386.02
     61.2700	  662.00	  660.14	-1737.89	  386.14
     61.3700	  668.00	  679.43	-1751.18	  386.26
     61.4700	  691.00	  723.01	-1771.76	  386.38
     61.5700	  744.00	  794.12	-1789.87	  386.50
     61.6700	  846.00	  894.77	-1788.52	  386.62
     61.7700	  937.00	 1022.55	-1825.30	  386.74
     61.8700	 1062.00	 1168.13	-1845.88	  386.86
     61.9700	 1235.00	 1313.34	-1818.09	  386.98
     62.0700	 1323.00	 1431.29	-1848.04	  387.10
     62.1700	 1420.00	 1491.64	-1811.39	  387.22
     62.2700	 1368.00	 1474.66	-1846.41	  387.34
     62.3700	 1277.00	 1385.51	-1848.26	  387.46
     62.4700	 1197.00	 1250.25	-1793.00	  387.58
     62.5700	 1076.00	 1099.14	-1762.89	  387.71
     62.6700	  929.00	  955.66	-1766.41	  387.83
     62.7700	  783.00	  834.14	-1790.89	  387.95
     62.8700	  674.00	  740.36	-1806.11	  388.08
     62.9700	  671.00	  673.66	-1742.41	  388.20
     63.0700	  614.00	  629.55	-1755.30	  388.32
     63.1700	  599.00	  602.17	-1742.92	  388.45
     63.2700	  591.00	  586.17	-1734.93	  388.57
     63.3700	  541.00	  577.62	-1776.37	  388.70
     63.4700	  575.00	  574.19	-1738.94	  388.82
     63.5700	  598.00	  575.07	-1716.82	  388.95
     63.6700	  611.00	  580.70	-1709.45	  389.07
     63.7700	  615.00	  592.52	-1717.27	  389.20
     63.8700	  620.00	  612.65	-1732.40	  389.32
     63.9700	  702.00	  643.27	-1681.02	  389.45
     64.0700	  729.00	  685.90	-1696.65	  389.58
     64.1700	  732.00	  740.32	-1748.07	  389.70
     64.2700	  854.00	  803.71	-1689.46	  389.83
     64.3700	  957.00	  869.94	-1652.69	  389.95
     64.4700	  956.00	  929.10	-1712.85	  390.08
     64.5700	  981.00	  970.86	-1729.61	  390.21
     64.6700	 1086.00	  985.97	-1639.72	  390.33
     64.7700	 1043.00	  972.42	-1669.17	  390.46
     64.8700	 1003.00	  934.89	-1671.64	  390.59
     64.9700	  937.00	  882.28	-1685.03	  390.72
     65.0700	  881.00	  824.43	-1683.18	  390.84
     65.1700	  777.00	  769.29	-1732.04	  390.97
     65.2700	  717.00	  721.41	-1744.16	  391.10
     65.3700	  672.00	  682.05	-1749.80	  391.22
     65.4700	  652.00	  650.52	-1738.27	  391.35
     65.5700	  617.00	  625.60	-1748.35	  391.48
     65.6700	  582.00	  606.20	-1763.95	  391.61
     65.7700	  567.00	  591.47	-1764.22	  391.73
     65.8700	  574.00	  580.65	-1746.40	  391.86
     65.9700	  556.00	  573.14	-1756.89	  391.99
     66.0700	  552.00	  568.41	-1756.16	  392.11
     66.1700	  537.00	  565.98	-1768.73	  392.24
     66.2700	  537.00	  565.45	-1768.20	  392.37
     66.3700	  551.00	  566.49	-1755.24	  392.49
     66.4700	  540.00	  568.93	-1768.68	  392.62
     66.5700	  582.00	  572.92	-1730.67	  392.75
     66.6700	  548.00	  578.63	-1770.38	  392.88
     66.7700	  597.00	  587.08	-1729.83	  393.00
     66.8700	  560.00	  600.05	-1779.80	  393.13
     66.9700	  631.00	  620.58	-1729.33	  393.25
     67.0700	  633.00	  653.49	-1760.24	  393.38
     67.1700	  674.00	  705.63	-1771.38	  393.51
     67.2700	  782.00	  785.59	-1743.34	  393.63
     67.3700	  893.00	  902.60	-1749.35	  393.76
     67.4700	 1097.00	 1064.08	-1706.83	  393.88
     67.5700	 1314.00	 1272.66	-1698.41	  394.01
     67.6700	 1553.00	 1522.19	-1708.94	  394.13
     67.7700	 1788.00	 1795.63	-1747.38	  394.26
     67.8700	 2002.00	 2063.32	-1801.07	  394.38
     67.9700	 2294.00	 2284.35	-1730.10	  394.51
     68.0700	 2509.00	 2412.95	-1643.70	  394.63
     68.1700	 2411.00	 2416.00	-1744.75	  394.76
     68.2700	 2239.00	 2292.64	-1793.39	  394.88
     68.3700	 2096.00	 2074.98	-1718.73	  395.00
     68.4700	 1858.00	 1808.56	-1690.31	  395.13
     68.5700	 1592.00	 1534.93	-1682.68	  395.25
     68.6700	 1265.00	 1284.31	-1759.06	  395.37
     68.7700	 1035.00	 1074.37	-1779.12	  395.50
     68.8700	  889.00	  911.30	-1762.05	  395.62
     68.9700	  791.00	  793.00	-1741.75	  395.74
     69.0700	  744.00	  712.11	-1707.86	  395.86
     69.1700	  688.00	  659.45	-1711.20	  395.98
     69.2700	  636.00	  626.36	-1730.11	  396.10
     69.3700	  601.00	  605.88	-1744.63	  396.22
     69.4700	  599.00	  593.12	-1733.87	  396.34
     69.5700	  585.00	  584.93	-1739.68	  396.46
     69.6700	  599.00	  579.47	-1720.22	  396.58
     69.7700	  523.00	  575.72	-1792.47	  396.70
     69.8700	  596.00	  573.13	-1716.88	  396.82
     69.9700	  539.00	  571.43	-1772.18	  396.94
     70.0700	  569.00	  570.50	-1741.25	  397.06
     70.1700	  581.00	  570.30	-1729.05	  397.17
     70.2700	  552.00	  570.83	-1758.58	  397.29
     70.3700	  571.00	  572.21	-1740.96	  397.41
     70.4700	  591.00	  574.69	-1723.44	  397.52
     70.5700	  566.00	  578.78	-1752.53	  397.64
     70.6700	  560.00	  585.38	-1765.13	  397.75
     70.7700	  569.00	  596.05	-1766.80	  397.87
     70.8700	  621.00	  613.29	-1732.04	  397.98
     70.9700	  655.00	  640.75	-1725.50	  398.09
     71.0700	  676.00	  683.28	-1747.03	  398.21
     71.1700	  717.00	  746.62	-1769.37	  398.32
     71.2700	  831.00	  836.49	-1745.24	  398.43
     71.3700	  927.00	  957.14	-1769.89	  398.54
     71.4700	 1112.00	 1109.38	-1737.13	  398.65
     71.5700	 1272.00	 1288.76	-1756.51	  398.76
     71.6700	 1504.00	 1484.86	-1720.61	  398.87
     71.7700	 1592.00	 1677.47	-1825.22	  398.98
     71.8700	 1892.00	 1842.16	-1689.91	  399.09
     71.9700	 1906.00	 1950.26	-1784.01	  399.20
     72.0700	 1881.00	 1978.30	-1837.05	  399.31
     72.1700	 1870.00	 1919.55	-1789.30	  399.41
     72.2700	 1807.00	 1788.16	-1720.91	  399.52
     72.3700	 1653.00	 1610.83	-1697.58	  399.62
     72.4700	 1467.00	 1415.22	-1687.97	  399.73
     72.5700	 1317.00	 1224.98	-1647.73	  399.83
     72.6700	 1101.00	 1055.35	-1694.10	  399.94
     72.7700	  997.00	  914.73	-1657.48	  400.04
     72.8700	  917.00	  805.26	-1628.01	  400.14
     72.9700	  851.00	  724.66	-1613.41	  400.24
     73.0700	  693.00	  668.01	-1714.76	  400.34
     73.1700	  690.00	  629.67	-1679.42	  400.44
     73.2700	  646.00	  604.34	-1698.09	  400.54
     73.3700	  677.00	  587.75	-1650.50	  400.64
     73.4700	  626.00	  576.81	-1690.56	  400.74
     73.5700	  603.00	  569.47	-1706.22	  400.84
     73.6700	  588.00	  564.48	-1716.23	  400.93
     73.7700	  601.00	  561.10	-1699.85	  401.03
     73.8700	  573.00	  558.92	-1725.67	  401.12
     73.9700	  594.00	  557.69	-1703.44	  401.22
     74.0700	  571.00	  557.22	-1725.97	  401.31
     74.1700	  560.00	  557.35	-1737.10	  401.40
     74.2700	  624.00	  557.87	-1673.62	  401.49
     74.3700	  652.00	  558.54	-1646.29	  401.58
     74.4700	  646.00	  559.07	-1652.82	  401.67
     74.5700	  643.00	  559.17	-1655.92	  401.76
     74.6700	  598.00	  558.63	-1700.38	  401.85
     74.7700	  576.00	  557.41	-1721.16	  401.94
     74.8700	  653.00	  555.67	-1642.42	  402.03
     74.9700	  594.00	  553.70	-1699.45	  402.11
     75.0700	  593.00	  551.83	-1698.58	  402.20
     75.1700	  597.00	  550.36	-1693.11	  402.28
     75.2700	  580.00	  549.75	-1709.50	  402.37
     75.3700	  523.00	  550.35	-1767.10	  402.45
     75.4700	  558.00	  552.57	-1734.32	  402.53
     75.5700	  552.00	  556.88	-1744.63	  402.61
     75.6700	  580.00	  563.95	-1723.70	  402.69
     75.7700	  567.00	  574.16	-1746.91	  402.77
     75.8700	  633.00	  587.79	-1694.54	  402.85
     75.9700	  584.00	  604.77	-1760.52	  402.92
     76.0700	  632.00	  624.57	-1732.32	  403.00
     76.1700	  670.00	  646.02	-1715.77	  403.08
     76.2700	  631.00	  667.34	-1776.09	  403.15
     76.3700	  711.00	  686.14	-1714.89	  403.22
     76.4700	  676.00	  699.70	-1763.45	  403.29
     76.5700	  704.00	  705.56	-1741.31	  403.37
     76.6700	  720.00	  702.51	-1722.26	  403.44
     76.7700	  704.00	  691.14	-1726.89	  403.51
     76.8700	  688.00	  673.59	-1725.34	  403.57
     76.9700	  604.00	  652.39	-1788.14	  403.64
     77.0700	  632.00	  630.45	-1738.20	  403.71
     77.1700	  596.00	  609.56	-1753.31	  403.77
     77.2700	  574.00	  591.09	-1756.84	  403.84
     77.3700	  524.00	  575.76	-1791.51	  403.90
     77.4700	  511.00	  563.73	-1792.48	  403.96
     77.5700	  535.00	  554.76	-1759.51	  404.02
     77.6700	  533.00	  548.38	-1755.13	  404.09
     77.7700	  530.00	  544.02	-1753.77	  404.14
     77.8700	  468.00	  541.14	-1812.89	  404.20
     77.9700	  503.00	  539.28	-1776.03	  404.26
     78.0700	  534.00	  538.09	-1743.84	  404.32
     78.1700	  510.00	  537.33	-1767.08	  404.37
     78.2700	  539.00	  536.84	-1737.59	  404.42
     78.3700	  516.00	  536.54	-1760.29	  404.48
     78.4700	  518.00	  536.37	-1758.12	  404.53
     78.5700	  501.00	  536.31	-1775.06	  404.58
     78.6700	  504.00	  536.35	-1772.10	  404.63
     78.7700	  506.00	  536.50	-1770.25	  404.68
     78.8700	  517.00	  536.79	-1759.54	  404.72
     78.9700	  498.00	  537.25	-1779.00	  404.77
     79.0700	  522.00	  537.91	-1755.66	  404.81
     79.1700	  532.00	  538.84	-1746.59	  404.86
     79.2700	  534.00	  540.08	-1745.83	  404.90
     79.3700	  526.00	  541.51	-1755.26	  404.94
     79.4700	  508.00	  543.53	-1775.28	  404.98
     79.5700	  536.00	  546.02	-1749.77	  405.02
     79.6700	  530.00	  549.04	-1758.79	  405.06
     79.7700	  543.00	  552.68	-1749.43	  405.10
     79.8700	  536.00	  557.02	-1760.77	  405.13
     79.9700	  486.00	  562.24	-1815.99	  405.17
     80.0700	  568.00	  568.56	-1740.31	  405.20
     80.1700	  569.00	  576.28	-1747.03	  405.23
     80.2700	  563.00	  585.77	-1762.52	  405.26
     80.3700	  586.00	  597.38	-1751.13	  405.29
     80.4700	  558.00	  611.31	-1793.06	  405.32
     80.5700	  573.00	  627.52	-1794.27	  405.35
     80.6700	  590.00	  645.61	-1795.36	  405.37
     80.7700	  646.00	  664.82	-1758.57	  405.40
     80.8700	  658.00	  684.01	-1765.76	  405.42
     80.9700	  743.00	  701.80	-1698.55	  405.44
     81.0700	  733.00	  716.84	-1723.59	  405.47
     81.1700	  787.00	  727.94	-1680.69	  405.49
     81.2700	  771.00	  734.21	-1702.96	  405.50
     81.3700	  759.00	  735.15	-1715.90	  405.52
     81.4700	  801.00	  730.75	-1669.50	  405.54
     81.5700	  709.00	  721.48	-1752.23	  405.55
     81.6700	  743.00	  708.14	-1704.89	  405.57
     81.7700	  727.00	  691.71	-1704.46	  405.58
     81.8700	  660.00	  673.31	-1753.06	  405.59
     81.9700	  692.00	  654.18	-1701.93	  405.60
     82.0700	  721.00	  635.49	-1654.24	  405.61
     82.1700	  627.00	  618.06	-1730.81	  405.61
     82.2700	  674.00	  602.57	-1668.32	  405.62
     82.3700	  654.00	  589.25	-1675.00	  405.62
     82.4700	  620.00	  578.18	-1697.93	  405.63
     82.5700	  597.00	  569.34	-1712.09	  405.63
     82.6700	  545.00	  562.57	-1757.32	  405.63
     82.7700	  570.00	  557.79	-1727.54	  405.63
     82.8700	  600.00	  554.81	-1694.56	  405.63
     82.9700	  562.00	  553.48	-1731.23	  405.62
     83.0700	  533.00	  553.70	-1760.45	  405.62
     83.1700	  567.00	  555.33	-1728.08	  405.61
     83.2700	  547.00	  558.24	-1750.99	  405.61
     83.3700	  535.00	  562.25	-1767.00	  405.60
     83.4700	  586.00	  567.11	-1720.86	  405.59
     83.5700	  527.00	  572.47	-1785.22	  405.58
     83.6700	  566.00	  577.88	-1751.63	  405.56
     83.7700	  567.00	  582.81	-1755.56	  405.55
     83.8700	  596.00	  586.66	-1730.41	  405.53
     83.9700	  544.00	  588.87	-1784.62	  405.52
     84.0700	  606.00	  589.05	-1722.80	  405.50
     84.1700	  544.00	  587.13	-1782.88	  405.48
     84.2700	  535.00	  583.38	-1788.13	  405.46
     84.3700	  552.00	  578.29	-1766.04	  405.44
     84.4700	  542.00	  572.45	-1770.20	  405.41
     84.5700	  553.00	  566.36	-1753.11	  405.39
     84.6700	  567.00	  560.47	-1733.22	  405.36
     84.7700	  567.00	  555.09	-1727.84	  405.33
     84.8700	  550.00	  550.42	-1740.17	  405.31
     84.9700	  514.00	  546.55	-1772.30	  405.27
     85.0700	  524.00	  543.50	-1759.25	  405.24
     85.1700	  542.00	  541.19	-1738.94	  405.21
     85.2700	  537.00	  539.55	-1742.30	  405.18
     85.3700	  559.00	  538.46	-1719.21	  405.14
     85.4700	  528.00	  537.83	-1749.58	  405.10
     85.5700	  539.00	  537.57	-1738.32	  405.06
     85.6700	  525.00	  537.65	-1752.40	  405.02
     85.7700	  504.00	  538.04	-1773.79	  404.98
     85.8700	  522.00	  538.77	-1756.52	  404.94
     85.9700	  527.00	  539.91	-1752.66	  404.89
     86.0700	  555.00	  541.55	-1726.30	  404.85
     86.1700	  490.00	  543.85	-1793.60	  404.80
     86.2700	  543.00	  546.96	-1743.71	  404.75
     86.3700	  557.00	  551.07	-1733.82	  404.70
     86.4700	  490.00	  556.33	-1806.08	  404.65
     86.5700	  601.00	  562.87	-1701.62	  404.60
     86.6700	  558.00	  570.73	-1752.48	  404.55
     86.7700	  571.00	  579.80	-1748.55	  404.49
     86.8700	  620.00	  589.50	-1709.25	  404.43
     86.9700	  657.00	  600.02	-1682.77	  404.37
     87.0700	  679.00	  610.43	-1671.18	  404.31
     87.1700	  632.00	  619.93	-1727.68	  404.25
     87.2700	  649.00	  627.64	-1718.39	  404.19
     87.3700	  609.00	  632.70	-1763.45	  404.13
     87.4700	  666.00	  634.47	-1708.22	  404.06
     87.5700	  679.00	  632.72	-1693.47	  403.99
     87.6700	  625.00	  627.75	-1742.50	  403.93
     87.7700	  639.00	  620.29	-1721.04	  403.86
     87.8700	  618.00	  611.27	-1733.02	  403.79
     87.9700	  633.00	  601.64	-1708.39	  403.71
     88.0700	  595.00	  592.29	-1737.04	  403.64
     88.1700	  550.00	  583.92	-1773.67	  403.57
     88.2700	  588.00	  577.10	-1728.85	  403.49
     88.3700	  565.00	  572.18	-1746.93	  403.41
     88.4700	  596.00	  569.35	-1713.10	  403.33
     88.5700	  558.00	  568.59	-1750.34	  403.25
     88.6700	  579.00	  569.74	-1730.49	  403.17
     88.7700	  580.00	  572.51	-1732.26	  403.08
     88.8700	  632.00	  576.49	-1684.24	  403.00
     88.9700	  620.00	  581.19	-1700.94	  402.91
     89.0700	  594.00	  586.06	-1731.81	  402.83
     89.1700	  590.00	  590.49	-1740.24	  402.74
     89.2700	  571.00	  593.90	-1762.65	  402.65
     89.3700	  650.00	  595.77	-1685.52	  402.55
     89.4700	  598.00	  595.77	-1737.52	  402.46
     89.5700	  600.00	  593.86	-1733.61	  402.37
     89.6700	  559.00	  590.23	-1770.98	  402.27
     89.7700	  588.00	  585.29	-1737.04	  402.17
     89.8700	  605.00	  579.53	-1714.28	  402.07
     89.9700	  569.00	  573.41	-1744.16	  401.97
     90.0700	  547.00	  567.33	-1760.08	  401.87
     90.1700	  549.00	  561.61	-1752.36	  401.77
     90.2700	  530.00	  556.48	-1766.23	  401.66
     90.3700	  575.00	  552.07	-1716.82	  401.56
     90.4700	  488.00	  548.44	-1800.19	  401.45
     90.5700	  540.00	  545.58	-1745.33	  401.34
     90.6700	  513.00	  543.44	-1770.19	  401.23
     90.7700	  522.00	  541.93	-1759.68	  401.12
     90.8700	  514.00	  540.96	-1766.71	  401.01
     90.9700	  542.00	  540.46	-1738.21	  400.89
     91.0700	  508.00	  540.36	-1772.11	  400.78
     91.1700	  544.00	  540.63	-1736.38	  400.66
     91.2700	  584.00	  541.28	-1697.03	  400.54
     91.3700	  507.00	  542.34	-1775.09	  400.43
     91.4700	  564.00	  543.90	-1719.65	  400.30
     91.5700	  502.00	  546.08	-1783.83	  400.18
     91.6700	  515.00	  549.03	-1773.78	  400.06
     91.7700	  557.00	  552.93	-1735.68	  399.93
     91.8700	  552.00	  558.00	-1745.75	  399.81
     91.9700	  557.00	  564.41	-1747.16	  399.68
     92.0700	  550.00	  572.13	-1761.88	  399.55
     92.1700	  589.00	  581.73	-1732.48	  399.42
     92.2700	  590.00	  593.03	-1742.78	  399.29
     92.3700	  619.00	  606.00	-1726.75	  399.16
     92.4700	  586.00	  620.46	-1774.21	  399.03
     92.5700	  602.00	  636.13	-1773.88	  398.89
     92.6700	  615.00	  652.59	-1777.34	  398.75
     92.7700	  672.00	  669.28	-1737.03	  398.62
     92.8700	  727.00	  685.57	-1698.32	  398.48
     92.9700	  667.00	  700.80	-1773.55	  398.34
     93.0700	  699.00	  714.40	-1755.15	  398.20
     93.1700	  822.00	  726.11	-1643.86	  398.05
     93.2700	  773.00	  735.98	-1702.73	  397.91
     93.3700	  803.00	  744.42	-1681.17	  397.76
     93.4700	  765.00	  752.01	-1726.76	  397.62
     93.5700	  852.00	  759.35	-1647.10	  397.47
     93.6700	  858.00	  767.00	-1648.75	  397.32
     93.7700	  791.00	  775.45	-1724.20	  397.17
     93.8700	  817.00	  785.15	-1707.90	  397.02
     93.9700	  841.00	  796.52	-1695.27	  396.87
     94.0700	  837.00	  809.93	-1712.68	  396.71
     94.1700	  922.00	  825.47	-1643.22	  396.56
     94.2700	  869.00	  842.90	-1713.65	  396.40
     94.3700	  863.00	  861.51	-1738.26	  396.24
     94.4700	  900.00	  880.15	-1719.90	  396.08
     94.5700	  917.00	  897.26	-1720.01	  395.92
     94.6700	  890.00	  911.00	-1760.75	  395.76
     94.7700	  921.00	  919.46	-1738.21	  395.60
     94.8700	  963.00	  921.06	-1697.81	  395.44
     94.9700	  882.00	  914.92	-1772.67	  395.27
     95.0700	  905.00	  901.18	-1735.93	  395.11
     95.1700	  869.00	  880.86	-1751.61	  394.94
     95.2700	  861.00	  855.69	-1734.44	  394.77
     95.3700	  825.00	  827.69	-1742.44	  394.60
     95.4700	  756.00	  798.94	-1782.69	  394.43
     95.5700	  731.00	  771.43	-1780.18	  394.26
     95.6700	  740.00	  746.97	-1746.72	  394.09
     95.7700	  743.00	  727.20	-1723.95	  393.92
     95.8700	  686.00	  713.60	-1767.35	  393.74
     95.9700	  659.00	  707.45	-1788.20	  393.57
     96.0700	  720.00	  709.83	-1729.58	  393.39
     96.1700	  724.00	  721.65	-1737.40	  393.21
     96.2700	  732.00	  743.62	-1751.37	  393.04
     96.3700	  772.00	  776.15	-1743.90	  392.86
     96.4700	  798.00	  819.32	-1761.07	  392.67
     96.5700	  849.00	  872.73	-1763.48	  392.49
     96.6700	  907.00	  935.46	-1768.21	  392.31
     96.7700	 1003.00	 1005.94	-1742.69	  392.13
     96.8700	 1034.00	 1081.90	-1787.65	  391.94
     96.9700	 1101.00	 1160.36	-1799.11	  391.76
     97.0700	 1260.00	 1237.66	-1717.41	  391.57
     97.1700	 1288.00	 1309.54	-1761.29	  391.38
     97.2700	 1389.00	 1371.42	-1722.17	  391.19
     97.3700	 1397.00	 1418.76	-1761.51	  391.00
     97.4700	 1454.00	 1447.68	-1733.43	  390.81
     97.5700	 1458.00	 1455.78	-1737.53	  390.62
     97.6700	 1413.00	 1442.66	-1769.41	  390.43
     97.7700	 1402.00	 1410.00	-1747.75	  390.24
     97.8700	 1356.00	 1361.09	-1744.84	  390.04
     97.9700	 1262.00	 1300.12	-1777.87	  389.85
     98.0700	 1266.00	 1231.57	-1705.32	  389.65
     98.1700	 1131.00	 1159.74	-1768.49	  389.45
     98.2700	 1107.00	 1088.61	-1721.36	  389.26
     98.3700	 1055.00	 1021.54	-1706.29	  389.06
     98.4700	  955.00	  961.37	-1746.12	  388.86
     98.5700	  854.00	  910.37	-1796.12	  388.66
     98.6700	  884.00	  870.30	-1726.05	  388.46
     98.7700	  772.00	  842.44	-1810.19	  388.26
     98.8700	  776.00	  827.71	-1791.46	  388.06
     98.9700	  820.00	  826.75	-1746.50	  387.85
     99.0700	  829.00	  839.93	-1750.68	  387.65
     99.1700	  848.00	  867.46	-1759.21	  387.44
     99.2700	  847.00	  909.32	-1802.07	  387.24
     99.3700	  917.00	  965.27	-1788.02	  387.03
     99.4700	  978.00	 1034.76	-1796.51	  386.83
     99.5700	 1090.00	 1116.84	-1766.59	  386.62
     99.6700	 1151.00	 1210.06	-1798.81	  386.41
     99.7700	 1364.00	 1312.40	-1688.15	  386.20
     99.8700	 1391.00	 1421.14	-1769.89	  385.99
     99.9700	 1609.00	 1532.84	-1663.59	  385.78
    100.0700	 1653.00	 1643.41	-1730.16	  385.57
    100.1700	 1713.00	 1748.35	-1775.10	  385.36
    100.2700	 1855.00	 1843.14	-1727.89	  385.15
    100.3700	 1900.00	 1923.70	-1763.45	  384.94
    100.4700	 2093.00	 1986.85	-1633.60	  384.72
    100.5700	 2087.00	 2030.40	-1683.15	  384.51
    100.6700	 2085.00	 2052.98	-1707.73	  384.30
    100.7700	 2095.00	 2053.85	-1698.60	  384.08
    100.8700	 2058.00	 2032.89	-1714.64	  383.87
    100.9700	 2027.00	 1990.89	-1703.64	  383.65
    101.0700	 1980.00	 1929.94	-1689.69	  383.43
    101.1700	 1978.00	 1853.46	-1615.21	  383.22
    101.2700	 1747.00	 1766.00	-1758.75	  383.00
    101.3700	 1657.00	 1672.68	-1755.43	  382.78
    101.4700	 1584.00	 1578.51	-1734.26	  382.57
    101.5700	 1490.00	 1487.93	-1737.68	  382.35
    101.6700	 1450.00	 1404.48	-1694.23	  382.13
    101.7700	 1350.00	 1330.66	-1720.41	  381.91
    101.8700	 1308.00	 1267.94	-1699.69	  381.69
    101.9700	 1160.00	 1216.71	-1796.46	  381.47
    102.0700	 1147.00	 1176.38	-1769.12	  381.25
    102.1700	 1159.00	 1145.50	-1726.25	  381.03
    102.2700	 1102.00	 1121.98	-1759.73	  380.81
    102.3700	 1083.00	 1103.25	-1760.00	  380.59
    102.4700	 1074.00	 1086.56	-1752.31	  380.37
    102.5700	 1099.00	 1069.32	-1710.07	  380.15
    102.6700	 1075.00	 1049.42	-1714.17	  379.92
    102.7700	 1049.00	 1025.54	-1716.29	  379.70
    102.8700	  958.00	  997.19	-1778.94	  379.48
    102.9700	  972.00	  964.65	-1732.40	  379.26
    103.0700	  901.00	  928.73	-1767.48	  379.04
    103.1700	  864.00	  890.55	-1766.30	  378.81
    103.2700	  866.00	  851.35	-1725.10	  378.59
    103.3700	  827.00	  812.31	-1725.06	  378.37
    103.4700	  766.00	  774.54	-1748.29	  378.15
    103.5700	  730.00	  738.94	-1748.69	  377.92
    103.6700	  670.00	  706.23	-1775.98	  377.70
    103.7700	  696.00	  676.90	-1720.65	  377.48
    103.8700	  697.00	  651.22	-1693.97	  377.25
    103.9700	  596.00	  629.27	-1773.02	  377.03
    104.0700	  582.00	  610.94	-1768.69	  376.81
    104.1700	  599.00	  596.02	-1736.77	  376.59
    104.2700	  597.00	  584.17	-1726.92	  376.36
    104.3700	  560.00	  575.05	-1754.80	  376.14
    104.4700	  546.00	  568.26	-1762.01	  375.92
    104.5700	  555.00	  563.43	-1748.18	  375.70
    104.6700	  564.00	  560.22	-1735.97	  375.47
    104.7700	  548.00	  558.31	-1750.06	  375.25
    104.8700	  511.00	  557.44	-1786.19	  375.03
    104.9700	  563.00	  557.41	-1734.16	  374.81
    105.0700	  561.00	  558.03	-1736.78	  374.59
    105.1700	  570.00	  559.16	-1728.91	  374.36
    105.2700	  517.00	  560.73	-1783.48	  374.14
    105.3700	  545.00	  562.72	-1757.47	  373.92
    105.4700	  536.00	  565.08	-1768.83	  373.70
    105.5700	  590.00	  567.88	-1717.63	  373.48
    105.6700	  550.00	  571.18	-1760.93	  373.26
    105.7700	  517.00	  575.08	-1797.83	  373.04
    105.8700	  554.00	  579.69	-1765.44	  372.82
    105.9700	  582.00	  585.12	-1742.87	  372.61
    106.0700	  557.00	  591.44	-1774.19	  372.39
    106.1700	  616.00	  598.69	-1722.44	  372.17
    106.2700	  602.00	  606.84	-1744.59	  371.95
    106.3700	  652.00	  615.78	-1703.53	  371.74
    106.4700	  635.00	  625.37	-1730.12	  371.52
    106.5700	  640.00	  635.36	-1735.11	  371.31
    106.6700	  603.00	  645.48	-1782.23	  371.09
    106.7700	  631.00	  655.38	-1764.13	  370.88
    106.8700	  667.00	  664.68	-1737.43	  370.66
    106.9700	  669.00	  672.99	-1743.74	  370.45
    107.0700	  657.00	  679.94	-1762.69	  370.24
    107.1700	  700.00	  685.27	-1725.02	  370.03
    107.2700	  636.00	  688.80	-1792.55	  369.81
    107.3700	  678.00	  690.57	-1752.32	  369.60
    107.4700	  692.00	  690.75	-1738.50	  369.40
    107.5700	  678.00	  689.67	-1751.42	  369.19
    107.6700	  703.00	  687.76	-1724.51	  368.98
    107.7700	  687.00	  685.44	-1738.19	  368.77
    107.8700	  643.00	  683.13	-1779.88	  368.57
    107.9700	  690.00	  681.17	-1730.92	  368.36
    108.0700	  667.00	  679.79	-1752.54	  368.16
    108.1700	  704.00	  679.14	-1714.89	  367.95
    108.2700	  687.00	  679.21	-1731.96	  367.75
    108.3700	  698.00	  679.92	-1721.67	  367.55
    108.4700	  705.00	  681.05	-1715.80	  367.35
    108.5700	  643.00	  682.30	-1779.05	  367.15
    108.6700	  690.00	  683.29	-1733.04	  366.95
    108.7700	  723.00	  683.62	-1700.37	  366.75
    108.8700	  677.00	  682.90	-1745.65	  366.56
    108.9700	  701.00	  680.82	-1719.57	  366.36
    109.0700	  616.00	  677.18	-1800.93	  366.17
    109.1700	  635.00	  671.92	-1776.67	  365.98
    109.2700	  660.00	  665.13	-1744.88	  365.78
    109.3700	  622.00	  657.01	-1774.76	  365.59
    109.4700	  687.00	  647.85	-1700.60	  365.41
    109.5700	  639.00	  637.98	-1738.73	  365.22
    109.6700	  650.00	  627.72	-1717.47	  365.03
    109.7700	  598.00	  617.41	-1759.16	  364.85
    109.8700	  641.00	  607.32	-1706.07	  364.66
    109.9700	  620.00	  597.72	-1717.47	  364.48
    110.0700	  632.00	  588.80	-1696.55	  364.30
    110.1700	  603.00	  580.72	-1717.47	  364.12
    110.2700	  583.00	  573.59	-1730.34	  363.94
    110.3700	  613.00	  567.44	-1694.19	  363.77
    110.4700	  560.00	  562.31	-1742.06	  363.59
    110.5700	  573.00	  558.15	-1724.90	  363.42
    110.6700	  579.00	  554.92	-1715.67	  363.25
    110.7700	  540.00	  552.55	-1752.30	  363.08
    110.8700	  576.00	  550.94	-1714.69	  362.91
    110.9700	  551.00	  550.00	-1738.75	  362.75
    111.0700	  540.00	  549.65	-1749.41	  362.58
    111.1700	  517.00	  549.81	-1772.56	  362.42
    111.2700	  556.00	  550.40	-1734.15	  362.26
    111.3700	  570.00	  551.35	-1721.10	  362.10
    111.4700	  518.00	  552.62	-1774.37	  361.94
    111.5700	  520.00	  554.15	-1773.90	  361.79
    111.6700	  509.00	  555.91	-1786.66	  361.63
    111.7700	  537.00	  557.89	-1760.64	  361.48
    111.8700	  520.00	  560.06	-1779.81	  361.33
    111.9700	  594.00	  562.43	-1708.18	  361.19
    112.0700	  527.00	  565.00	-1777.75	  361.04
    112.1700	  603.00	  567.78	-1704.53	  360.90
    112.2700	  639.00	  570.79	-1671.54	  360.76
    112.3700	  557.00	  574.07	-1756.82	  360.62
    112.4700	  599.00	  577.64	-1718.39	  360.48
    112.5700	  595.00	  581.56	-1726.31	  360.35
    112.6700	  608.00	  585.90	-1717.65	  360.21
    112.7700	  655.00	  590.74	-1675.49	  360.08
    112.8700	  619.00	  596.20	-1716.95	  359.96
    112.9700	  662.00	  602.41	-1680.16	  359.83
    113.0700	  631.00	  609.58	-1718.33	  359.71
    113.1700	  654.00	  617.93	-1703.68	  359.59
    113.2700	  688.00	  627.79	-1679.54	  359.47
    113.3700	  724.00	  639.57	-1655.32	  359.35
    113.4700	  761.00	  653.79	-1632.54	  359.24
    113.5700	  761.00	  671.08	-1649.83	  359.13
    113.6700	  777.00	  692.25	-1655.00	  359.02
    113.7700	  846.00	  718.27	-1612.02	  358.92
    113.8700	  897.00	  750.33	-1593.08	  358.81
    113.9700	  939.00	  789.79	-1590.54	  358.71
    114.0700	  958.00	  838.29	-1620.04	  358.62
    114.1700	  982.00	  897.63	-1655.38	  358.52
    114.2700	 1042.00	  969.88	-1667.63	  358.43
    114.3700	 1200.00	 1057.25	-1597.00	  358.34
    114.4700	 1282.00	 1162.08	-1619.83	  358.26
    114.5700	 1355.00	 1286.76	-1671.51	  358.17
    114.6700	 1579.00	 1433.62	-1594.37	  358.09
    114.7700	 1711.00	 1604.86	-1633.61	  358.02
    114.8700	 1895.00	 1802.38	-1647.13	  357.94
    114.9700	 2109.00	 2027.57	-1658.32	  357.87
    115.0700	 2322.00	 2281.24	-1698.99	  357.80
    115.1700	 2574.00	 2563.34	-1729.09	  357.74
    115.2700	 2897.00	 2872.98	-1715.73	  357.68
    115.3700	 3149.00	 3208.23	-1798.98	  357.62
    115.4700	 3544.00	 3565.89	-1761.64	  357.56
    115.5700	 3882.00	 3941.57	-1799.32	  357.51
    115.6700	 4124.00	 4329.54	-1945.29	  357.46
    115.7700	 4661.00	 4722.97	-1801.72	  357.42
    115.8700	 4815.00	 5113.80	-2038.55	  357.38
    115.9700	 5211.00	 5492.80	-2021.55	  357.34
    116.0700	 5632.00	 5849.85	-1957.60	  357.30
    116.1700	 6109.00	 6174.19	-1804.94	  357.27
    116.2700	 6408.00	 6454.95	-1786.70	  357.24
    116.3700	 6783.00	 6681.66	-1638.41	  357.22
    116.4700	 6841.00	 6844.99	-1743.74	  357.20
    116.5700	 6843.00	 6937.82	-1834.57	  357.18
    116.6700	 6957.00	 6956.00	-1738.75	  357.17
    116.7700	 6959.00	 6898.89	-1679.64	  357.16
    116.8700	 6775.00	 6769.46	-1734.21	  357.15
    116.9700	 6715.00	 6573.87	-1598.62	  357.15
    117.0700	 6378.00	 6320.74	-1682.49	  357.15
    117.1700	 5918.00	 6020.24	-1841.99	  357.16
    117.2700	 5723.00	 5683.11	-1699.86	  357.17
    117.3700	 5216.00	 5320.05	-1843.80	  357.19
    117.4700	 4948.00	 4941.35	-1733.10	  357.20
    117.5700	 4620.00	 4556.41	-1676.16	  357.23
    117.6700	 4159.00	 4173.61	-1754.36	  357.25
    117.7700	 3876.00	 3800.07	-1663.82	  357.28
    117.8700	 3643.00	 3441.64	-1538.39	  357.32
    117.9700	 3174.00	 3103.03	-1668.78	  357.36
    118.0700	 2994.00	 2787.69	-1533.44	  357.40
    118.1700	 2535.00	 2497.93	-1702.68	  357.45
    118.2700	 2278.00	 2234.92	-1696.67	  357.50
    118.3700	 1866.00	 1998.96	-1872.71	  357.55
    118.4700	 1730.00	 1789.62	-1799.37	  357.62
    118.5700	 1525.00	 1605.82	-1820.57	  357.68
    118.6700	 1403.00	 1446.01	-1782.76	  357.75
    118.7700	 1215.00	 1308.27	-1833.02	  357.83
    118.8700	 1103.00	 1190.50	-1827.25	  357.90
    118.9700	 1040.00	 1090.54	-1790.29	  357.99
    119.0700	  938.00	 1006.21	-1807.96	  358.08
    119.1700	  952.00	  935.44	-1723.19	  358.17
    119.2700	  813.00	  876.29	-1803.04	  358.27
    119.3700	  834.00	  826.97	-1732.72	  358.37
    119.4700	  741.00	  785.95	-1784.70	  358.48
    119.5700	  687.00	  751.84	-1804.59	  358.59
    119.6700	  657.00	  723.49	-1806.24	  358.71
    119.7700	  725.00	  699.89	-1714.64	  358.83
    119.8700	  673.00	  680.23	-1746.98	  358.96
    119.9700	  628.00	  663.81	-1775.56	  359.10
    120.0700	  588.00	  650.10	-1801.85	  359.23
    120.1700	  594.00	  638.63	-1784.38	  359.38
    120.2700	  624.00	  629.03	-1744.78	  359.53
    120.3700	  575.00	  621.03	-1785.78	  359.68
    120.4700	  546.00	  614.39	-1808.14	  359.84
    120.5700	  558.00	  608.93	-1790.68	  360.01
    120.6700	  556.00	  604.50	-1788.25	  360.18
    120.7700	  556.00	  601.00	-1784.75	  360.35
    120.8700	  552.00	  598.32	-1786.07	  360.54
    120.9700	  570.00	  596.41	-1766.16	  360.72
    121.0700	  498.00	  595.19	-1836.94	  360.92
    121.1700	  589.00	  594.64	-1745.39	  361.12
    121.2700	  533.00	  594.69	-1801.44	  361.32
    121.3700	  573.00	  595.30	-1762.05	  361.53
    121.4700	  610.00	  596.43	-1726.18	  361.75
    121.5700	  573.00	  598.03	-1764.78	  361.97
    121.6700	  579.00	  600.05	-1760.80	  362.20
    121.7700	  605.00	  602.41	-1737.16	  362.43
    121.8700	  542.00	  605.06	-1802.81	  362.67
    121.9700	  619.00	  607.90	-1728.65	  362.92
    122.0700	  628.00	  610.87	-1722.62	  363.17
    122.1700	  630.00	  613.88	-1723.63	  363.43
    122.2700	  615.00	  616.82	-1741.57	  363.70
    122.3700	  683.00	  619.61	-1676.36	  363.97
    122.4700	  600.00	  622.13	-1761.88	  364.25
    122.5700	  614.00	  624.29	-1750.04	  364.53
    122.6700	  645.00	  626.01	-1720.76	  364.82
    122.7700	  610.00	  627.23	-1756.98	  365.12
    122.8700	  673.00	  627.90	-1694.65	  365.43
    122.9700	  693.00	  627.99	-1674.74	  365.74
    123.0700	  661.00	  627.51	-1706.26	  366.06
    123.1700	  641.00	  626.48	-1725.23	  366.38
    123.2700	  627.00	  624.94	-1737.69	  366.71
    123.3700	  673.00	  622.95	-1689.70	  367.05
    123.4700	  655.00	  620.58	-1705.33	  367.39
    123.5700	  638.00	  617.89	-1719.64	  367.75
    123.6700	  624.00	  614.96	-1730.71	  368.11
    123.7700	  663.00	  611.84	-1688.59	  368.47
    123.8700	  612.00	  608.62	-1736.37	  368.84
    123.9700	  623.00	  605.35	-1722.10	  369.23
    124.0700	  601.00	  602.09	-1740.84	  369.61
    124.1700	  609.00	  598.88	-1729.63	  370.01
    124.2700	  611.00	  595.77	-1724.52	  370.41
    124.3700	  644.00	  592.78	-1688.53	  370.82
    124.4700	  639.00	  589.94	-1690.69	  371.24
    124.5700	  582.00	  587.28	-1745.03	  371.66
    124.6700	  562.00	  584.80	-1762.55	  372.10
    124.7700	  589.00	  582.52	-1733.27	  372.54
    124.8700	  570.00	  580.45	-1750.20	  372.98
    124.9700	  563.00	  492.49	-1669.24	  373.44
    125.0700	  564.00	  492.95	-1739.75	  373.90
    125.1700	  580.00	  493.42	-1739.75	  374.37
    125.2700	  620.00	  493.90	-1739.75	  374.85
    125.3700	  535.00	  494.39	-1739.75	  375.34
    125.4700	  580.00	  494.89	-1739.75	  375.84
    125.5700	  545.00	  495.39	-1739.75	  376.34
    125.6700	  568.00	  495.90	-1739.75	  376.85
    125.7700	  568.00	  496.42	-1739.75	  377.37
    125.8700	  575.00	  496.95	-1739.75	  377.90
    125.9700	  576.00	  497.49	-1739.75	  378.44
    126.0700	  593.00	  498.03	-1739.75	  378.98
    126.1700	  546.00	  498.58	-1739.75	  379.53
    126.2700	  578.00	  499.15	-1739.75	  380.10
    126.3700	  567.00	  499.72	-1739.75	  380.67
    126.4700	  559.00	  500.30	-1739.75	  381.25
    126.5700	  594.00	  500.88	-1739.75	  381.83
    126.6700	  608.00	  501.48	-1739.75	  382.43
    126.7700	  625.00	  502.09	-1739.75	  383.04
    126.8700	  626.00	  502.70	-1739.75	  383.65
    126.9700	  621.00	  503.32	-1739.75	  384.27
    127.0700	  648.00	  503.96	-1739.75	  384.91
    127.1700	  645.00	  504.60	-1739.75	  385.55
    127.2700	  614.00	  505.25	-1739.75	  386.20
    127.3700	  671.00	  505.91	-1739.75	  386.86
    127.4700	  612.00	  506.58	-1739.75	  387.53
    127.5700	  663.00	  507.26	-1739.75	  388.21
    127.6700	  678.00	  507.95	-1739.75	  388.89
    127.7700	  739.00	  508.64	-1739.75	  389.59
    127.8700	  726.00	  509.35	-1739.75	  390.30
    127.9700	  713.00	  510.07	-1739.75	  391.02
    128.0700	  756.00	  510.79	-1739.75	  391.74
    128.1700	  773.00	  511.53	-1739.75	  392.48
    128.2700	  745.00	  512.27	-1739.75	  393.22
    128.3700	  786.00	  513.03	-1739.75	  393.98
    128.4700	  808.00	  513.80	-1739.75	  394.74
    128.5700	    0.00	  514.57	-1739.75	  395.52
    128.6700	    0.00	  515.36	-1739.75	  396.31
     12.3076	        	        	        	        	       0	(  0  0  2)	  0  1
     24.8869	        	        	        	        	       0	(  0  0  4)	  0  1
     28.3333	        	        	        	        	       0	(  1  0  0)	  0  1
     29.0302	        	        	        	        	       0	(  1  0  1)	  0  1
     31.0354	        	        	        	        	       0	(  1  0  2)	  0  1
     34.1423	        	        	        	        	       0	(  1  0  3)	  0  1
     37.7819	        	        	        	        	       0	(  0  0  6)	  0  1
     38.1176	        	        	        	        	       0	(  1  0  4)	  0  1
     42.7657	        	        	        	        	       0	(  1  0  5)	  0  1
     47.9475	        	        	        	        	       0	(  1  0  6)	  0  1
     50.2677	        	        	        	        	       0	(  1  1  0)	  0  1
     51.1986	        	        	        	        	       0	(  0  0  8)	  0  1
     51.9898	        	        	        	        	       0	(  1  1  2)	  0  1
     53.5755	        	        	        	        	       0	(  1  0  7)	  0  1
     56.9351	        	        	        	        	       0	(  1  1  4)	  0  1
     58.7636	        	        	        	        	       0	(  2  0  0)	  0  1
     59.1549	        	        	        	        	       0	(  2  0  1)	  0  1
     59.6031	        	        	        	        	       0	(  1  0  8)	  0  1
     60.3197	        	        	        	        	       0	(  2  0  2)	  0  1
     62.2319	        	        	        	        	       0	(  2  0  3)	  0  1
     64.6259	        	        	        	        	       0	(  1  1  6)	  0  1
     64.8546	        	        	        	        	       0	(  2  0  4)	  0  1
     65.4215	        	        	        	        	       0	(  0  0 10)	  0  1
     66.0164	        	        	        	        	       0	(  1  0  9)	  0  1
     68.1470	        	        	        	        	       0	(  2  0  5)	  0  1
     72.0724	        	        	        	        	       0	(  2  0  6)	  0  1
     72.8291	        	        	        	        	       0	(  1  0 10)	  0  1
     74.6583	        	        	        	        	       0	(  1  1  8)	  0  1
     76.6040	        	        	        	        	       0	(  2  0  7)	  0  1
     80.0828	        	        	        	        	       0	(  1  0 11)	  0  1
     80.8939	        	        	        	        	       0	(  0  0 12)	  0  1
     81.0013	        	        	        	        	       0	(  2  1  0)	  0  1
     81.3410	        	        	        	        	       0	(  2  1  1)	  0  1
     81.7313	        	        	        	        	       0	(  2  0  8)	  0  1
     82.3582	        	        	        	        	       0	(  2  1  2)	  0  1
     84.0485	        	        	        	        	       0	(  2  1  3)	  0  1
     86.4067	        	        	        	        	       0	(  2  1  4)	  0  1
     86.9225	        	        	        	        	       0	(  1  1 10)	  0  1
     87.4659	        	        	        	        	       0	(  2  0  9)	  0  1
     87.8524	        	        	        	        	       0	(  1  0 12)	  0  1
     89.4307	        	        	        	        	       0	(  2  1  5)	  0  1
     93.1257	        	        	        	        	       0	(  2  1  6)	  0  1
     93.8491	        	        	        	        	       0	(  2  0 10)	  0  1
     94.8874	        	        	        	        	       0	(  3  0  0)	  0  1
     95.2245	        	        	        	        	       0	(  3  0  1)	  0  1
     96.2371	        	        	        	        	       0	(  3  0  2)	  0  1
     96.2598	        	        	        	        	       0	(  1  0 13)	  0  1
     97.5114	        	        	        	        	       0	(  2  1  7)	  0  1
     97.9293	        	        	        	        	       0	(  3  0  3)	  0  1
     98.4215	        	        	        	        	       0	(  0  0 14)	  0  1
    100.3107	        	        	        	        	       0	(  3  0  4)	  0  1
    100.9659	        	        	        	        	       0	(  2  0 11)	  0  1
    101.7825	        	        	        	        	       0	(  1  1 12)	  0  1
    102.6301	        	        	        	        	       0	(  2  1  8)	  0  1
    103.4001	        	        	        	        	       0	(  3  0  5)	  0  1
    105.5051	        	        	        	        	       0	(  1  0 14)	  0  1
    107.2324	        	        	        	        	       0	(  3  0  6)	  0  1
    108.5624	        	        	        	        	       0	(  2  1  9)	  0  1
    108.9706	        	        	        	        	       0	(  2  0 12)	  0  1
    111.8690	        	        	        	        	       0	(  3  0  7)	  0  1
    115.4532	        	        	        	        	       0	(  2  1 10)	  0  1
    115.9383	        	        	        	        	       0	(  1  0 15)	  0  1
    116.6064	        	        	        	        	       0	(  2  2  0)	  0  1
    117.4176	        	        	        	        	       0	(  3  0  8)	  0  1
    118.1203	        	        	        	        	       0	(  2  2  2)	  0  1
    118.1460	        	        	        	        	       0	(  2  0 13)	  0  1
    119.8888	        	        	        	        	       0	(  0  0 16)	  0  1
    120.6087	        	        	        	        	       0	(  1  1 14)	  0  1
    122.8018	        	        	        	        	       0	(  2  2  4)	  0  1
    123.5719	        	        	        	        	       0	(  2  1 11)	  0  1
    124.0710	        	        	        	        	       0	(  3  0  9)	  0  1
    124.6684	        	        	        	        	       0	(  3  1  0)	  0  1
    125.0782	        	        	        	        	       0	(  3  1  1)	  0  1
    126.3205	        	        	        	        	       0	(  3  1  2)	  0  1
    128.2656	        	        	        	        	       0	(  1  0 16)	  0  1
    128.4367	        	        	        	        	       0	(  3  1  3)	  0  1
    129.0623	        	        	        	        	       0	(  2  0 14)	  0  1
    131.2331	        	        	        	        	       0	(  2  2  6)	  0  1
    131.5095	        	        	        	        	       0	(  3  1  4)	  0  1
    132.2021	        	        	        	        	       0	(  3  0 10)	  0  1
    133.4715	        	        	        	        	       0	(  2  1 12)	  0  1
    135.6917	        	        	        	        	       0	(  3  1  5)	  0  1
    141.2796	        	        	        	        	       0	(  3  1  6)	  0  1
    142.6643	        	        	        	        	       0	(  3  0 11)	  0  1
    143.1765	        	        	        	        	       0	(  2  0 15)	  0  1
    144.4021	        	        	        	        	       0	(  1  0 17)	  0  1
    145.4468	        	        	        	        	       0	(  2  2  8)	  0  1
    146.6023	        	        	        	        	       0	(  2  1 13)	  0  1
    148.9394	        	        	        	        	       0	(  3  1  7)	  0  1
    149.4886	        	        	        	        	       0	(  1  1 16)	  0  1
    153.8590	        	        	        	        	       0	(  0  0 18)	  0  1
    158.4955	        	        	        	        	       0	(  3  0 12)	  0  1
    158.7886	        	        	        	        	       0	(  4  0  0)	  0  1
    159.7423	        	        	        	        	       0	(  4  0  1)	  0  1
    160.8960	        	        	        	        	       0	(  3  1  8)	  0  1
    162.9085	        	        	        	        	       0	(  4  0  2)	  0  1
    169.4309	        	        	        	        	       0	(  2  0 16)	  0  1
    170.1977	        	        	        	        	       0	(  4  0  3)	  0  1
    173.7377	        	        	        	        	       0	(  2  1 14)	  0  1
