MSG Master    CELL:    5.91950   5.91950  23.27972   90.0000   90.0000  120.0000   SPGR: P 63/m m c             TEMP:   1074.85
  1   1280     2.52000     0.00000    -0.12737     0.00000     0.00000    0
    99     0     2
       0.00000      10.00000
     125.00000     130.00000
 2Theta	Yobs	Ycal	Yobs-Ycal	Backg	Posr	(hkl)	K
      0.7700	    0.00	  548.64	-1749.00	  430.01
      0.8700	    0.00	  549.25	-1749.00	  430.61
      0.9700	   35.00	  549.84	-1749.00	  431.21
      1.0700	   31.00	  550.43	-1749.00	  431.80
      1.1700	   55.00	  551.01	-1749.00	  432.38
      1.2700	   45.00	  551.58	-1749.00	  432.94
      1.3700	   48.00	  552.14	-1749.00	  433.50
      1.4700	   98.00	  552.69	-1749.00	  434.05
      1.5700	  308.00	  553.23	-1749.00	  434.59
      1.6700	  479.00	  553.76	-1749.00	  435.13
      1.7700	  547.00	  554.28	-1749.00	  435.65
      1.8700	  610.00	  554.80	-1749.00	  436.16
      1.9700	  713.00	  555.30	-1749.00	  436.67
      2.0700	  785.00	  555.80	-1749.00	  437.16
      2.1700	  739.00	  556.28	-1749.00	  437.65
      2.2700	  743.00	  556.76	-1749.00	  438.13
      2.3700	  730.00	  557.23	-1749.00	  438.59
      2.4700	  753.00	  557.69	-1749.00	  439.05
      2.5700	  662.00	  558.14	-1749.00	  439.51
      2.6700	  670.00	  558.58	-1749.00	  439.95
      2.7700	  669.00	  559.02	-1749.00	  440.38
      2.8700	  656.00	  559.44	-1749.00	  440.81
      2.9700	  615.00	  559.86	-1749.00	  441.23
      3.0700	  615.00	  560.27	-1749.00	  441.64
      3.1700	  576.00	  560.67	-1749.00	  442.04
      3.2700	  577.00	  561.07	-1749.00	  442.43
      3.3700	  671.00	  561.45	-1749.00	  442.82
      3.4700	  746.00	  561.83	-1749.00	  443.19
      3.5700	  872.00	  562.20	-1749.00	  443.56
      3.6700	  864.00	  562.56	-1749.00	  443.92
      3.7700	  931.00	  562.91	-1749.00	  444.27
      3.8700	  955.00	  563.25	-1749.00	  444.62
      3.9700	 1007.00	  563.59	-1749.00	  444.96
      4.0700	 1075.00	  563.92	-1749.00	  445.29
      4.1700	 1011.00	  564.24	-1749.00	  445.61
      4.2700	 1109.00	  564.56	-1749.00	  445.92
      4.3700	 1097.00	  564.86	-1749.00	  446.23
      4.4700	 1103.00	  565.16	-1749.00	  446.53
      4.5700	 1079.00	  565.45	-1749.00	  446.82
      4.6700	  972.00	  565.74	-1749.00	  447.10
      4.7700	  969.00	  566.02	-1749.00	  447.38
      4.8700	  947.00	  566.28	-1749.00	  447.65
      4.9700	  919.00	  566.55	-1749.00	  447.91
      5.0700	  945.00	  566.80	-1749.00	  448.17
      5.1700	  925.00	  567.05	-1749.00	  448.42
      5.2700	  895.00	  567.29	-1749.00	  448.66
      5.3700	  861.00	  567.53	-1749.00	  448.89
      5.4700	  868.00	  567.75	-1749.00	  449.12
      5.5700	  821.00	  567.97	-1749.00	  449.34
      5.6700	  844.00	  568.19	-1749.00	  449.55
      5.7700	  804.00	  568.40	-1749.00	  449.76
      5.8700	  822.00	  568.60	-1749.00	  449.96
      5.9700	  787.00	  568.79	-1749.00	  450.15
      6.0700	  830.00	  568.98	-1749.00	  450.34
      6.1700	  785.00	  569.16	-1749.00	  450.52
      6.2700	  790.00	  569.33	-1749.00	  450.70
      6.3700	  745.00	  569.50	-1749.00	  450.86
      6.4700	  759.00	  569.66	-1749.00	  451.02
      6.5700	  749.00	  569.81	-1749.00	  451.18
      6.6700	  727.00	  569.96	-1749.00	  451.33
      6.7700	  759.00	  570.10	-1749.00	  451.47
      6.8700	  742.00	  570.24	-1749.00	  451.61
      6.9700	  760.00	  570.37	-1749.00	  451.74
      7.0700	  681.00	  570.49	-1749.00	  451.86
      7.1700	  675.00	  570.61	-1749.00	  451.98
      7.2700	  686.00	  570.72	-1749.00	  452.09
      7.3700	  637.00	  570.83	-1749.00	  452.20
      7.4700	  691.00	  570.93	-1749.00	  452.30
      7.5700	  698.00	  571.03	-1749.00	  452.39
      7.6700	  632.00	  571.11	-1749.00	  452.48
      7.7700	  671.00	  571.20	-1749.00	  452.56
      7.8700	  640.00	  571.27	-1749.00	  452.64
      7.9700	  652.00	  571.35	-1749.00	  452.71
      8.0700	  613.00	  571.41	-1749.00	  452.78
      8.1700	  625.00	  571.47	-1749.00	  452.84
      8.2700	  684.00	  571.53	-1749.00	  452.89
      8.3700	  635.00	  571.58	-1749.00	  452.94
      8.4700	  599.00	  571.62	-1749.00	  452.99
      8.5700	  622.00	  571.66	-1749.00	  453.03
      8.6700	  654.00	  571.70	-1749.00	  453.06
      8.7700	  622.00	  571.72	-1749.00	  453.09
      8.8700	  606.00	  571.75	-1749.00	  453.11
      8.9700	  619.00	  571.77	-1749.00	  453.13
      9.0700	  650.00	  571.78	-1749.00	  453.14
      9.1700	  586.00	  571.79	-1749.00	  453.15
      9.2700	  646.00	  571.79	-1749.00	  453.16
      9.3700	  622.00	  571.79	-1749.00	  453.16
      9.4700	  579.00	  571.78	-1749.00	  453.15
      9.5700	  616.00	  571.77	-1749.00	  453.14
      9.6700	  607.00	  571.76	-1749.00	  453.12
      9.7700	  661.00	  571.74	-1749.00	  453.10
      9.8700	  597.00	  571.71	-1749.00	  453.08
      9.9700	  600.00	  571.68	-1749.00	  453.05
     10.0700	  590.00	  572.62	-1731.62	  453.01
     10.1700	  623.00	  572.69	-1698.69	  452.97
     10.2700	  575.00	  572.78	-1746.78	  452.93
     10.3700	  554.00	  572.91	-1767.91	  452.88
     10.4700	  575.00	  573.11	-1747.11	  452.83
     10.5700	  566.00	  573.44	-1756.44	  452.77
     10.6700	  547.00	  574.03	-1776.03	  452.71
     10.7700	  568.00	  575.00	-1756.00	  452.64
     10.8700	  580.00	  576.42	-1745.42	  452.57
     10.9700	  622.00	  578.28	-1705.28	  452.50
     11.0700	  595.00	  580.55	-1734.55	  452.42
     11.1700	  577.00	  583.22	-1755.22	  452.34
     11.2700	  586.00	  586.34	-1749.34	  452.25
     11.3700	  571.00	  590.01	-1768.01	  452.16
     11.4700	  611.00	  594.37	-1732.37	  452.07
     11.5700	  672.00	  599.68	-1676.68	  451.97
     11.6700	  609.00	  606.36	-1746.36	  451.87
     11.7700	  633.00	  615.12	-1731.12	  451.76
     11.8700	  647.00	  626.98	-1728.98	  451.65
     11.9700	  686.00	  642.48	-1705.48	  451.54
     12.0700	  726.00	  659.47	-1682.47	  451.42
     12.1700	  663.00	  670.77	-1756.77	  451.30
     12.2700	  659.00	  665.69	-1755.69	  451.18
     12.3700	  632.00	  641.90	-1758.90	  451.05
     12.4700	  647.00	  613.76	-1715.76	  450.92
     12.5700	  577.00	  593.24	-1765.24	  450.78
     12.6700	  602.00	  581.91	-1728.91	  450.64
     12.7700	  590.00	  576.63	-1735.63	  450.50
     12.8700	  632.00	  574.17	-1691.17	  450.36
     12.9700	  537.00	  572.80	-1784.80	  450.21
     13.0700	  530.00	  571.87	-1790.87	  450.05
     13.1700	  544.00	  571.16	-1776.16	  449.90
     13.2700	  545.00	  570.59	-1774.59	  449.74
     13.3700	  608.00	  570.11	-1711.11	  449.58
     13.4700	  527.00	  569.70	-1791.70	  449.41
     13.5700	  543.00	  569.33	-1775.33	  449.25
     13.6700	  581.00	  568.99	-1736.99	  449.07
     13.7700	  554.00	  568.69	-1763.69	  448.90
     13.8700	  544.00	  568.40	-1773.40	  448.72
     13.9700	  593.00	  568.12	-1724.12	  448.54
     14.0700	  574.00	  567.86	-1742.86	  448.36
     14.1700	  565.00	  567.61	-1751.61	  448.17
     14.2700	  596.00	  567.36	-1720.36	  447.99
     14.3700	  589.00	  567.12	-1727.12	  447.79
     14.4700	  583.00	  566.88	-1732.88	  447.60
     14.5700	  544.00	  566.64	-1771.64	  447.40
     14.6700	  575.00	  566.41	-1740.41	  447.20
     14.7700	  550.00	  566.17	-1765.17	  447.00
     14.8700	  545.00	  565.94	-1769.94	  446.80
     14.9700	  548.00	  565.71	-1766.71	  446.59
     15.0700	  569.00	  565.47	-1745.47	  446.38
     15.1700	  568.00	  565.24	-1746.24	  446.17
     15.2700	  546.00	  565.01	-1768.01	  445.95
     15.3700	  597.00	  564.77	-1716.77	  445.73
     15.4700	  572.00	  564.54	-1741.54	  445.51
     15.5700	  580.00	  564.30	-1733.30	  445.29
     15.6700	  563.00	  564.07	-1750.07	  445.07
     15.7700	  558.00	  563.83	-1754.83	  444.84
     15.8700	  532.00	  563.59	-1780.59	  444.61
     15.9700	  556.00	  563.37	-1756.37	  444.38
     16.0700	  529.00	  563.13	-1783.13	  444.14
     16.1700	  580.00	  562.89	-1731.89	  443.91
     16.2700	  556.00	  562.64	-1755.64	  443.67
     16.3700	  569.00	  562.39	-1742.39	  443.43
     16.4700	  499.00	  562.15	-1812.15	  443.19
     16.5700	  560.00	  561.90	-1750.90	  442.94
     16.6700	  557.00	  561.64	-1753.64	  442.70
     16.7700	  543.00	  561.39	-1767.39	  442.45
     16.8700	  543.00	  561.14	-1767.14	  442.20
     16.9700	  509.00	  560.88	-1800.88	  441.95
     17.0700	  544.00	  560.62	-1765.62	  441.69
     17.1700	  519.00	  560.36	-1790.36	  441.44
     17.2700	  556.00	  560.10	-1753.10	  441.18
     17.3700	  538.00	  559.84	-1770.84	  440.92
     17.4700	  545.00	  559.58	-1763.58	  440.66
     17.5700	  560.00	  559.31	-1748.31	  440.40
     17.6700	  564.00	  559.05	-1744.05	  440.13
     17.7700	  541.00	  558.78	-1766.78	  439.87
     17.8700	  524.00	  558.51	-1783.51	  439.60
     17.9700	  550.00	  558.24	-1757.24	  439.33
     18.0700	  529.00	  558.07	-1778.07	  439.06
     18.1700	  565.00	  557.80	-1741.80	  438.79
     18.2700	  550.00	  557.53	-1756.53	  438.51
     18.3700	  565.00	  557.25	-1741.25	  438.24
     18.4700	  569.00	  556.98	-1736.98	  437.96
     18.5700	  565.00	  556.70	-1740.70	  437.68
     18.6700	  556.00	  556.43	-1749.43	  437.40
     18.7700	  538.00	  556.15	-1767.15	  437.12
     18.8700	  556.00	  555.95	-1748.95	  436.84
     18.9700	  582.00	  555.68	-1722.68	  436.56
     19.0700	  504.00	  555.40	-1800.40	  436.27
     19.1700	  533.00	  555.12	-1771.12	  435.99
     19.2700	  551.00	  554.84	-1752.83	  435.70
     19.3700	  511.00	  554.55	-1792.55	  435.41
     19.4700	  542.00	  554.27	-1761.27	  435.12
     19.5700	  542.00	  553.99	-1760.99	  434.83
     19.6700	  541.00	  553.70	-1761.70	  434.54
     19.7700	  566.00	  553.42	-1736.42	  434.25
     19.8700	  567.00	  553.13	-1735.13	  433.95
     19.9700	  518.00	  552.85	-1783.85	  433.66
     20.0700	  524.00	  552.56	-1777.56	  433.36
     20.1700	  528.00	  552.27	-1773.27	  433.07
     20.2700	  519.00	  551.99	-1781.99	  432.77
     20.3700	  573.00	  551.70	-1727.70	  432.47
     20.4700	  495.00	  551.41	-1805.41	  432.17
     20.5700	  545.00	  551.12	-1755.12	  431.87
     20.6700	  577.00	  550.84	-1722.84	  431.57
     20.7700	  612.00	  550.55	-1687.55	  431.27
     20.8700	  552.00	  550.26	-1747.26	  430.97
     20.9700	  489.00	  549.97	-1809.97	  430.66
     21.0700	  565.00	  549.69	-1733.69	  430.36
     21.1700	  558.00	  549.40	-1740.40	  430.05
     21.2700	  565.00	  549.12	-1733.12	  429.75
     21.3700	  518.00	  548.83	-1779.83	  429.44
     21.4700	  538.00	  548.55	-1759.55	  429.14
     21.5700	  559.00	  548.27	-1738.27	  428.83
     21.6700	  561.00	  547.99	-1735.99	  428.52
     21.7700	  554.00	  547.71	-1742.71	  428.21
     21.8700	  589.00	  547.43	-1707.43	  427.91
     21.9700	  541.00	  547.15	-1755.15	  427.60
     22.0700	  577.00	  546.88	-1718.88	  427.29
     22.1700	  575.00	  546.61	-1720.61	  426.98
     22.2700	  571.00	  546.34	-1724.34	  426.67
     22.3700	  543.00	  546.07	-1752.07	  426.36
     22.4700	  549.00	  545.81	-1745.81	  426.05
     22.5700	  542.00	  545.56	-1752.56	  425.73
     22.6700	  550.00	  545.31	-1744.31	  425.42
     22.7700	  536.00	  545.07	-1758.07	  425.11
     22.8700	  524.00	  544.84	-1769.84	  424.80
     22.9700	  536.00	  544.61	-1757.61	  424.48
     23.0700	  539.00	  544.41	-1754.41	  424.17
     23.1700	  537.00	  544.22	-1756.22	  423.86
     23.2700	  524.00	  544.05	-1769.05	  423.55
     23.3700	  577.00	  543.90	-1715.90	  423.23
     23.4700	  537.00	  543.80	-1755.80	  422.92
     23.5700	  545.00	  543.74	-1747.74	  422.61
     23.6700	  584.00	  543.90	-1708.90	  422.29
     23.7700	  575.00	  544.04	-1718.04	  421.98
     23.8700	  551.00	  544.42	-1742.42	  421.66
     23.9700	  547.00	  545.26	-1747.26	  421.35
     24.0700	  530.00	  546.98	-1765.98	  421.04
     24.1700	  603.00	  550.24	-1696.24	  420.72
     24.2700	  558.00	  555.84	-1746.84	  420.41
     24.3700	  578.00	  564.68	-1735.68	  420.09
     24.4700	  553.00	  577.63	-1773.63	  419.78
     24.5700	  590.00	  594.63	-1753.63	  419.47
     24.6700	  649.00	  612.62	-1712.62	  419.15
     24.7700	  638.00	  624.05	-1735.05	  418.84
     24.8700	  620.00	  619.57	-1748.57	  418.53
     24.9700	  619.00	  599.32	-1729.32	  418.21
     25.0700	  565.00	  576.00	-1760.00	  417.90
     25.1700	  541.00	  558.76	-1766.76	  417.59
     25.2700	  616.00	  548.97	-1681.97	  417.28
     25.3700	  540.00	  544.25	-1753.25	  416.96
     25.4700	  557.00	  542.04	-1734.04	  416.65
     25.5700	  552.00	  540.84	-1737.84	  416.34
     25.6700	  535.00	  540.07	-1754.07	  416.03
     25.7700	  529.00	  539.51	-1759.51	  415.72
     25.8700	  532.00	  539.08	-1756.08	  415.41
     25.9700	  519.00	  538.77	-1768.77	  415.10
     26.0700	  567.00	  538.54	-1720.54	  414.79
     26.1700	  534.00	  538.39	-1753.39	  414.48
     26.2700	  535.00	  538.32	-1752.32	  414.17
     26.3700	  576.00	  538.32	-1711.32	  413.86
     26.4700	  541.00	  538.41	-1746.41	  413.55
     26.5700	  538.00	  538.60	-1749.60	  413.24
     26.6700	  567.00	  538.91	-1720.91	  412.93
     26.7700	  517.00	  539.35	-1771.35	  412.63
     26.8700	  567.00	  539.97	-1721.97	  412.32
     26.9700	  528.00	  540.82	-1761.82	  412.02
     27.0700	  498.00	  541.98	-1792.98	  411.71
     27.1700	  565.00	  543.58	-1727.58	  411.41
     27.2700	  592.00	  545.88	-1702.88	  411.10
     27.3700	  550.00	  549.39	-1748.39	  410.80
     27.4700	  544.00	  555.14	-1760.14	  410.49
     27.5700	  550.00	  564.95	-1763.95	  410.19
     27.6700	  537.00	  581.71	-1793.71	  409.89
     27.7700	  586.00	  609.12	-1772.12	  409.59
     27.8700	  588.00	  650.41	-1811.41	  409.29
     27.9700	  670.00	  705.68	-1784.68	  408.99
     28.0700	  784.00	  768.46	-1733.46	  408.69
     28.1700	  940.00	  822.71	-1631.71	  408.39
     28.2700	  978.00	  844.62	-1615.62	  408.10
     28.3700	  943.00	  820.99	-1626.99	  407.80
     28.4700	  719.00	  775.29	-1805.29	  407.50
     28.5700	  703.00	  744.18	-1790.18	  407.21
     28.6700	  698.00	  743.75	-1794.75	  406.91
     28.7700	  678.00	  768.47	-1839.47	  406.62
     28.8700	  814.00	  797.27	-1732.27	  406.33
     28.9700	  831.00	  801.07	-1719.07	  406.03
     29.0700	  784.00	  762.31	-1727.31	  405.74
     29.1700	  743.00	  698.01	-1704.01	  405.45
     29.2700	  654.00	  637.39	-1732.39	  405.16
     29.3700	  596.00	  593.96	-1746.96	  404.88
     29.4700	  586.00	  567.88	-1730.88	  404.59
     29.5700	  606.00	  553.84	-1696.84	  404.30
     29.6700	  597.00	  546.45	-1698.45	  404.02
     29.7700	  577.00	  542.27	-1714.27	  403.73
     29.8700	  547.00	  539.68	-1741.68	  403.45
     29.9700	  578.00	  538.05	-1709.05	  403.16
     30.0700	  567.00	  537.26	-1719.26	  402.88
     30.1700	  545.00	  537.47	-1741.47	  402.60
     30.2700	  600.00	  539.26	-1688.26	  402.32
     30.3700	  571.00	  543.70	-1721.70	  402.04
     30.4700	  558.00	  552.45	-1743.45	  401.76
     30.5700	  604.00	  567.15	-1712.15	  401.49
     30.6700	  599.00	  588.17	-1738.17	  401.21
     30.7700	  588.00	  612.76	-1773.76	  400.94
     30.8700	  624.00	  633.78	-1758.78	  400.66
     30.9700	  620.00	  640.59	-1769.59	  400.39
     31.0700	  600.00	  626.31	-1775.31	  400.12
     31.1700	  594.00	  598.59	-1753.59	  399.85
     31.2700	  564.00	  571.15	-1756.15	  399.58
     31.3700	  533.00	  551.02	-1767.02	  399.31
     31.4700	  551.00	  538.80	-1736.80	  399.05
     31.5700	  546.00	  532.27	-1735.27	  398.78
     31.6700	  520.00	  528.91	-1757.91	  398.52
     31.7700	  533.00	  527.05	-1743.05	  398.25
     31.8700	  543.00	  525.88	-1731.88	  397.99
     31.9700	  513.00	  525.09	-1761.09	  397.73
     32.0700	  552.00	  524.53	-1721.53	  397.47
     32.1700	  540.00	  524.17	-1733.17	  397.21
     32.2700	  568.00	  523.97	-1704.97	  396.95
     32.3700	  523.00	  523.93	-1749.93	  396.70
     32.4700	  565.00	  524.05	-1708.05	  396.44
     32.5700	  518.00	  524.36	-1755.36	  396.19
     32.6700	  580.00	  524.87	-1693.87	  395.94
     32.7700	  500.00	  525.65	-1774.65	  395.68
     32.8700	  578.00	  526.76	-1697.76	  395.43
     32.9700	  518.00	  528.34	-1759.34	  395.19
     33.0700	  528.00	  530.61	-1751.61	  394.94
     33.1700	  546.00	  534.10	-1737.10	  394.69
     33.2700	  532.00	  539.96	-1756.96	  394.45
     33.3700	  611.00	  550.66	-1688.66	  394.20
     33.4700	  558.00	  570.87	-1761.87	  393.96
     33.5700	  612.00	  607.83	-1744.83	  393.72
     33.6700	  658.00	  669.53	-1760.53	  393.48
     33.7700	  750.00	  758.94	-1757.94	  393.24
     33.8700	  935.00	  865.48	-1679.48	  393.01
     33.9700	 1071.00	  959.87	-1637.87	  392.77
     34.0700	 1115.00	  998.39	-1632.39	  392.54
     34.1700	  971.00	  950.97	-1728.97	  392.31
     34.2700	  969.00	  842.75	-1622.75	  392.08
     34.3700	  765.00	  728.45	-1712.45	  391.85
     34.4700	  621.00	  640.52	-1768.52	  391.62
     34.5700	  603.00	  585.22	-1731.22	  391.39
     34.6700	  562.00	  555.13	-1742.13	  391.16
     34.7700	  552.00	  539.88	-1736.88	  390.94
     34.8700	  563.00	  531.86	-1717.86	  390.72
     34.9700	  526.00	  527.04	-1750.04	  390.50
     35.0700	  524.00	  523.74	-1748.74	  390.28
     35.1700	  541.00	  521.23	-1729.23	  390.06
     35.2700	  558.00	  519.25	-1710.25	  389.84
     35.3700	  514.00	  517.64	-1752.65	  389.63
     35.4700	  512.00	  516.32	-1753.31	  389.41
     35.5700	  488.00	  515.19	-1776.19	  389.20
     35.6700	  492.00	  514.24	-1771.24	  388.99
     35.7700	  526.00	  513.41	-1736.41	  388.78
     35.8700	  527.00	  512.68	-1734.68	  388.57
     35.9700	  506.00	  512.04	-1755.04	  388.37
     36.0700	  555.00	  511.93	-1705.93	  388.16
     36.1700	  491.00	  511.42	-1769.42	  387.96
     36.2700	  506.00	  510.97	-1753.97	  387.76
     36.3700	  508.00	  510.56	-1751.56	  387.56
     36.4700	  517.00	  510.20	-1742.20	  387.36
     36.5700	  531.00	  509.88	-1727.88	  387.16
     36.6700	  503.00	  509.60	-1755.60	  386.96
     36.7700	  511.00	  509.38	-1747.38	  386.77
     36.8700	  515.00	  509.25	-1743.25	  386.58
     36.9700	  533.00	  509.28	-1725.28	  386.38
     37.0700	  502.00	  509.64	-1756.64	  386.20
     37.1700	  597.00	  510.60	-1662.60	  386.01
     37.2700	  504.00	  512.58	-1757.58	  385.82
     37.3700	  495.00	  515.92	-1769.92	  385.64
     37.4700	  552.00	  520.49	-1717.49	  385.45
     37.5700	  526.00	  525.39	-1748.39	  385.27
     37.6700	  534.00	  528.90	-1743.90	  385.09
     37.7700	  572.00	  529.28	-1706.28	  384.91
     37.8700	  494.00	  526.39	-1781.39	  384.73
     37.9700	  549.00	  521.99	-1721.99	  384.56
     38.0700	  548.00	  517.56	-1718.56	  384.39
     38.1700	  480.00	  513.66	-1782.66	  384.21
     38.2700	  507.00	  510.56	-1752.56	  384.04
     38.3700	  532.00	  508.32	-1725.32	  383.87
     38.4700	  491.00	  506.81	-1764.81	  383.71
     38.5700	  502.00	  505.84	-1752.84	  383.54
     38.6700	  510.00	  505.12	-1744.12	  383.38
     38.7700	  497.00	  504.69	-1756.69	  383.21
     38.8700	  496.00	  504.37	-1757.37	  383.05
     38.9700	  470.00	  504.11	-1783.11	  382.89
     39.0700	  527.00	  503.89	-1725.89	  382.73
     39.1700	  468.00	  503.60	-1784.60	  382.58
     39.2700	  516.00	  503.41	-1736.41	  382.42
     39.3700	  504.00	  503.37	-1748.37	  382.27
     39.4700	  502.00	  503.21	-1750.21	  382.12
     39.5700	  554.00	  503.06	-1698.06	  381.97
     39.6700	  522.00	  502.93	-1729.93	  381.82
     39.7700	  516.00	  502.80	-1735.80	  381.68
     39.8700	  478.00	  502.68	-1773.68	  381.53
     39.9700	  502.00	  502.57	-1749.57	  381.39
     40.0700	  476.00	  502.47	-1775.47	  381.25
     40.1700	  510.00	  502.38	-1741.38	  381.11
     40.2700	  488.00	  502.30	-1763.30	  380.97
     40.3700	  525.00	  502.24	-1726.24	  380.83
     40.4700	  494.00	  502.19	-1757.19	  380.70
     40.5700	  495.00	  502.15	-1756.15	  380.56
     40.6700	  515.00	  502.13	-1736.13	  380.43
     40.7700	  475.00	  502.13	-1776.13	  380.30
     40.8700	  500.00	  502.15	-1751.15	  380.17
     40.9700	  489.00	  502.20	-1762.20	  380.05
     41.0700	  483.00	  502.28	-1768.28	  379.92
     41.1700	  486.00	  502.40	-1765.40	  379.80
     41.2700	  494.00	  502.54	-1757.54	  379.68
     41.3700	  497.00	  502.78	-1754.78	  379.56
     41.4700	  489.00	  503.11	-1763.11	  379.44
     41.5700	  471.00	  503.99	-1781.99	  379.32
     41.6700	  484.00	  504.62	-1769.62	  379.20
     41.7700	  528.00	  505.58	-1726.58	  379.09
     41.8700	  529.00	  507.20	-1727.20	  378.98
     41.9700	  469.00	  510.19	-1790.19	  378.87
     42.0700	  490.00	  515.89	-1774.89	  378.76
     42.1700	  504.00	  526.37	-1771.37	  378.65
     42.2700	  537.00	  543.88	-1755.88	  378.55
     42.3700	  505.00	  569.53	-1813.53	  378.44
     42.4700	  564.00	  600.95	-1785.95	  378.34
     42.5700	  600.00	  631.05	-1780.05	  378.24
     42.6700	  653.00	  648.66	-1744.66	  378.14
     42.7700	  547.00	  644.41	-1846.41	  378.05
     42.8700	  585.00	  619.84	-1783.84	  377.95
     42.9700	  560.00	  587.00	-1776.00	  377.86
     43.0700	  526.00	  556.76	-1779.76	  377.76
     43.1700	  545.00	  534.27	-1738.27	  377.67
     43.2700	  540.00	  520.02	-1729.02	  377.58
     43.3700	  501.00	  512.02	-1760.02	  377.50
     43.4700	  495.00	  507.85	-1761.85	  377.41
     43.5700	  462.00	  505.66	-1792.66	  377.33
     43.6700	  502.00	  504.40	-1751.40	  377.24
     43.7700	  521.00	  503.75	-1731.75	  377.16
     43.8700	  489.00	  503.20	-1763.20	  377.08
     43.9700	  486.00	  502.75	-1765.75	  377.01
     44.0700	  520.00	  502.41	-1731.41	  376.93
     44.1700	  468.00	  502.14	-1783.14	  376.86
     44.2700	  528.00	  501.93	-1722.93	  376.78
     44.3700	  527.00	  501.77	-1723.77	  376.71
     44.4700	  511.00	  501.66	-1739.66	  376.64
     44.5700	  526.00	  501.58	-1724.58	  376.57
     44.6700	  444.00	  501.40	-1806.40	  376.51
     44.7700	  511.00	  501.38	-1739.38	  376.44
     44.8700	  480.00	  501.39	-1770.39	  376.38
     44.9700	  511.00	  501.42	-1739.42	  376.32
     45.0700	  462.00	  501.47	-1788.47	  376.26
     45.1700	  514.00	  501.73	-1736.73	  376.20
     45.2700	  560.00	  501.83	-1690.83	  376.14
     45.3700	  485.00	  501.95	-1765.95	  376.09
     45.4700	  534.00	  502.10	-1717.10	  376.04
     45.5700	  501.00	  502.27	-1750.27	  375.98
     45.6700	  496.00	  502.46	-1755.46	  375.93
     45.7700	  494.00	  502.68	-1757.68	  375.88
     45.8700	  482.00	  502.93	-1769.93	  375.84
     45.9700	  526.00	  503.21	-1726.21	  375.79
     46.0700	  500.00	  503.53	-1752.53	  375.75
     46.1700	  535.00	  503.89	-1717.89	  375.70
     46.2700	  448.00	  504.29	-1805.29	  375.66
     46.3700	  497.00	  504.75	-1756.75	  375.62
     46.4700	  547.00	  505.27	-1707.27	  375.59
     46.5700	  476.00	  505.87	-1778.87	  375.55
     46.6700	  483.00	  506.56	-1772.56	  375.51
     46.7700	  494.00	  507.39	-1762.39	  375.48
     46.8700	  494.00	  508.41	-1763.41	  375.45
     46.9700	  528.00	  509.79	-1730.79	  375.42
     47.0700	  526.00	  511.85	-1734.85	  375.39
     47.1700	  500.00	  515.31	-1764.31	  375.36
     47.2700	  532.00	  521.02	-1738.02	  375.34
     47.3700	  546.00	  530.38	-1733.38	  375.31
     47.4700	  525.00	  544.48	-1768.48	  375.29
     47.5700	  507.00	  563.29	-1805.29	  375.27
     47.6700	  570.00	  584.69	-1763.69	  375.25
     47.7700	  596.00	  603.93	-1756.93	  375.23
     47.8700	  634.00	  614.53	-1729.53	  375.22
     47.9700	  551.00	  611.98	-1809.98	  375.20
     48.0700	  574.00	  598.17	-1773.17	  375.19
     48.1700	  559.00	  579.76	-1769.76	  375.17
     48.2700	  555.00	  562.66	-1756.66	  375.16
     48.3700	  546.00	  550.13	-1753.13	  375.15
     48.4700	  511.00	  542.95	-1780.95	  375.15
     48.5700	  531.00	  540.40	-1758.40	  375.14
     48.6700	  527.00	  541.29	-1763.29	  375.14
     48.7700	  572.00	  544.60	-1721.60	  375.13
     48.8700	  521.00	  549.84	-1777.84	  375.13
     48.9700	  559.00	  557.02	-1747.02	  375.13
     49.0700	  561.00	  566.82	-1754.82	  375.13
     49.1700	  567.00	  580.85	-1762.85	  375.13
     49.2700	  605.00	  602.60	-1746.60	  375.14
     49.3700	  638.00	  638.68	-1749.68	  375.14
     49.4700	  676.00	  700.61	-1773.61	  375.15
     49.5700	  772.00	  803.76	-1780.76	  375.15
     49.6700	  925.00	  966.62	-1790.62	  375.16
     49.7700	 1190.00	 1202.49	-1761.49	  375.17
     49.8700	 1440.00	 1508.89	-1817.89	  375.19
     49.9700	 1807.00	 1856.02	-1798.02	  375.20
     50.0700	 2188.00	 2177.67	-1738.67	  375.22
     50.1700	 2516.00	 2377.36	-1610.36	  375.23
     50.2700	 2397.00	 2371.84	-1723.84	  375.25
     50.3700	 2129.00	 2161.73	-1781.73	  375.27
     50.4700	 1858.00	 1834.61	-1725.61	  375.29
     50.5700	 1364.00	 1490.32	-1875.32	  375.31
     50.6700	 1043.00	 1193.56	-1899.56	  375.33
     50.7700	  829.00	  971.64	-1891.64	  375.36
     50.8700	  721.00	  824.48	-1852.48	  375.38
     50.9700	  640.00	  736.02	-1845.02	  375.41
     51.0700	  598.00	  685.10	-1836.10	  375.44
     51.1700	  619.00	  653.13	-1783.13	  375.47
     51.2700	  600.00	  628.48	-1777.48	  375.50
     51.3700	  606.00	  606.91	-1749.91	  375.53
     51.4700	  576.00	  588.16	-1761.16	  375.56
     51.5700	  559.00	  572.86	-1762.86	  375.60
     51.6700	  533.00	  561.31	-1777.31	  375.63
     51.7700	  568.00	  553.20	-1734.20	  375.67
     51.8700	  582.00	  547.82	-1714.82	  375.71
     51.9700	  565.00	  544.42	-1728.42	  375.75
     52.0700	  559.00	  542.42	-1732.42	  375.79
     52.1700	  542.00	  541.72	-1748.72	  375.83
     52.2700	  596.00	  541.77	-1694.77	  375.87
     52.3700	  510.00	  542.93	-1781.93	  375.92
     52.4700	  529.00	  545.75	-1765.75	  375.96
     52.5700	  554.00	  551.44	-1746.44	  376.01
     52.6700	  603.00	  562.52	-1708.52	  376.06
     52.7700	  601.00	  583.38	-1731.38	  376.11
     52.8700	  660.00	  620.52	-1709.52	  376.16
     52.9700	  723.00	  681.48	-1707.48	  376.21
     53.0700	  801.00	  771.90	-1719.90	  376.26
     53.1700	  956.00	  891.00	-1684.00	  376.32
     53.2700	 1089.00	 1026.89	-1686.89	  376.37
     53.3700	 1159.00	 1153.98	-1743.98	  376.43
     53.4700	 1267.00	 1235.86	-1717.86	  376.49
     53.5700	 1146.00	 1240.63	-1843.63	  376.55
     53.6700	 1146.00	 1165.65	-1768.65	  376.61
     53.7700	  953.00	 1040.90	-1836.90	  376.67
     53.8700	  844.00	  904.20	-1809.20	  376.73
     53.9700	  727.00	  782.74	-1804.74	  376.79
     54.0700	  661.00	  689.63	-1777.63	  376.86
     54.1700	  586.00	  626.48	-1789.48	  376.92
     54.2700	  630.00	  587.96	-1706.96	  376.99
     54.3700	  565.00	  566.42	-1750.42	  377.05
     54.4700	  555.00	  555.14	-1749.14	  377.12
     54.5700	  535.00	  549.47	-1763.47	  377.19
     54.6700	  555.00	  546.74	-1740.74	  377.26
     54.7700	  573.00	  545.69	-1721.69	  377.33
     54.8700	  579.00	  545.69	-1715.69	  377.41
     54.9700	  595.00	  546.52	-1700.52	  377.48
     55.0700	  568.00	  548.10	-1729.10	  377.56
     55.1700	  578.00	  550.47	-1721.47	  377.63
     55.2700	  541.00	  553.64	-1761.64	  377.71
     55.3700	  549.00	  557.77	-1757.77	  377.79
     55.4700	  533.00	  563.07	-1779.07	  377.86
     55.5700	  595.00	  569.98	-1723.98	  377.94
     55.6700	  549.00	  579.34	-1779.34	  378.02
     55.7700	  565.00	  592.90	-1776.90	  378.11
     55.8700	  583.00	  614.12	-1780.12	  378.19
     55.9700	  644.00	  649.48	-1754.48	  378.27
     56.0700	  651.00	  709.58	-1807.58	  378.36
     56.1700	  763.00	  809.59	-1795.59	  378.44
     56.2700	  919.00	  967.22	-1797.22	  378.53
     56.3700	 1130.00	 1197.23	-1816.23	  378.61
     56.4700	 1347.00	 1502.98	-1904.98	  378.70
     56.5700	 1752.00	 1866.64	-1863.64	  378.79
     56.6700	 2248.00	 2241.92	-1742.92	  378.88
     56.7700	 2443.00	 2552.41	-1858.41	  378.97
     56.8700	 2719.00	 2707.03	-1737.03	  379.06
     56.9700	 2560.00	 2647.90	-1836.90	  379.15
     57.0700	 2393.00	 2397.88	-1753.88	  379.25
     57.1700	 1981.00	 2041.64	-1809.64	  379.34
     57.2700	 1689.00	 1666.96	-1726.96	  379.44
     57.3700	 1265.00	 1334.31	-1818.31	  379.53
     57.4700	 1029.00	 1073.40	-1793.40	  379.63
     57.5700	  864.00	  889.37	-1774.37	  379.73
     57.6700	  770.00	  771.68	-1750.68	  379.82
     57.7700	  743.00	  703.71	-1709.71	  379.92
     57.8700	  661.00	  670.02	-1758.02	  380.02
     57.9700	  642.00	  659.78	-1766.78	  380.12
     58.0700	  663.00	  667.30	-1753.30	  380.22
     58.1700	  727.00	  690.70	-1712.70	  380.32
     58.2700	  790.00	  730.03	-1689.03	  380.43
     58.3700	  862.00	  785.47	-1672.47	  380.53
     58.4700	  919.00	  855.62	-1685.62	  380.63
     58.5700	 1018.00	  936.14	-1667.14	  380.74
     58.6700	 1108.00	 1019.17	-1660.17	  380.84
     58.7700	 1277.00	 1095.78	-1567.78	  380.95
     58.8700	 1387.00	 1159.93	-1521.93	  381.06
     58.9700	 1472.00	 1208.28	-1485.28	  381.16
     59.0700	 1530.00	 1236.09	-1455.09	  381.27
     59.1700	 1443.00	 1239.07	-1545.07	  381.38
     59.2700	 1439.00	 1220.69	-1530.69	  381.49
     59.3700	 1373.00	 1192.14	-1568.14	  381.60
     59.4700	 1301.00	 1164.72	-1612.72	  381.71
     59.5700	 1206.00	 1146.19	-1689.19	  381.82
     59.6700	 1147.00	 1144.23	-1746.23	  381.93
     59.7700	 1201.00	 1168.11	-1716.11	  382.04
     59.8700	 1304.00	 1223.56	-1668.56	  382.16
     59.9700	 1338.00	 1306.42	-1717.42	  382.27
     60.0700	 1466.00	 1399.84	-1682.84	  382.38
     60.1700	 1600.00	 1475.31	-1624.31	  382.50
     60.2700	 1530.00	 1500.12	-1719.12	  382.61
     60.3700	 1467.00	 1454.85	-1736.85	  382.73
     60.4700	 1347.00	 1347.36	-1749.36	  382.85
     60.5700	 1270.00	 1204.97	-1683.97	  382.96
     60.6700	 1108.00	 1056.35	-1697.35	  383.08
     60.7700	  927.00	  922.21	-1744.21	  383.20
     60.8700	  789.00	  814.05	-1774.05	  383.32
     60.9700	  692.00	  735.71	-1792.71	  383.43
     61.0700	  713.00	  685.88	-1721.88	  383.55
     61.1700	  674.00	  661.23	-1736.23	  383.67
     61.2700	  594.00	  659.18	-1814.18	  383.79
     61.3700	  635.00	  679.39	-1793.39	  383.91
     61.4700	  714.00	  724.01	-1759.01	  384.03
     61.5700	  788.00	  796.21	-1757.21	  384.16
     61.6700	  855.00	  897.80	-1791.80	  384.28
     61.7700	  972.00	 1026.16	-1803.16	  384.40
     61.8700	 1096.00	 1171.59	-1824.59	  384.52
     61.9700	 1267.00	 1315.72	-1797.72	  384.64
     62.0700	 1412.00	 1431.49	-1768.49	  384.77
     62.1700	 1385.00	 1488.79	-1852.79	  384.89
     62.2700	 1321.00	 1468.77	-1896.77	  385.02
     62.3700	 1316.00	 1377.61	-1810.61	  385.14
     62.4700	 1223.00	 1241.70	-1767.70	  385.26
     62.5700	 1020.00	 1091.02	-1820.02	  385.39
     62.6700	  903.00	  948.62	-1794.62	  385.51
     62.7700	  761.00	  828.35	-1816.35	  385.64
     62.8700	  701.00	  735.73	-1783.73	  385.77
     62.9700	  631.00	  669.94	-1787.94	  385.89
     63.0700	  596.00	  626.46	-1779.46	  386.02
     63.1700	  601.00	  599.47	-1747.47	  386.14
     63.2700	  575.00	  583.70	-1757.70	  386.27
     63.3700	  574.00	  575.28	-1750.28	  386.40
     63.4700	  578.00	  571.95	-1742.95	  386.53
     63.5700	  581.00	  572.94	-1740.94	  386.65
     63.6700	  574.00	  578.74	-1753.74	  386.78
     63.7700	  622.00	  590.79	-1717.79	  386.91
     63.8700	  639.00	  611.20	-1721.20	  387.04
     63.9700	  703.00	  642.15	-1688.15	  387.17
     64.0700	  729.00	  685.10	-1705.10	  387.29
     64.1700	  782.00	  739.79	-1706.79	  387.42
     64.2700	  847.00	  803.31	-1705.31	  387.55
     64.3700	  917.00	  869.48	-1701.48	  387.68
     64.4700	  953.00	  928.31	-1724.31	  387.81
     64.5700	  983.00	  969.63	-1735.63	  387.94
     64.6700	 1053.00	  984.45	-1680.45	  388.07
     64.7700	 1031.00	  970.77	-1688.77	  388.20
     64.8700	 1030.00	  933.30	-1652.30	  388.33
     64.9700	  927.00	  880.76	-1702.76	  388.46
     65.0700	  864.00	  822.89	-1707.89	  388.59
     65.1700	  769.00	  767.60	-1747.60	  388.71
     65.2700	  676.00	  719.42	-1792.42	  388.84
     65.3700	  729.00	  679.64	-1699.64	  388.97
     65.4700	  658.00	  647.69	-1738.69	  389.10
     65.5700	  618.00	  622.45	-1753.45	  389.23
     65.6700	  596.00	  602.92	-1755.92	  389.36
     65.7700	  634.00	  588.21	-1703.21	  389.49
     65.8700	  550.00	  577.53	-1776.53	  389.62
     65.9700	  537.00	  570.21	-1782.21	  389.75
     66.0700	  574.00	  565.67	-1740.67	  389.88
     66.1700	  522.00	  563.43	-1790.43	  390.01
     66.2700	  547.00	  563.04	-1765.04	  390.14
     66.3700	  569.00	  564.20	-1744.20	  390.27
     66.4700	  577.00	  566.74	-1738.74	  390.40
     66.5700	  554.00	  570.83	-1765.83	  390.53
     66.6700	  551.00	  576.68	-1774.68	  390.66
     66.7700	  578.00	  585.34	-1756.34	  390.79
     66.8700	  578.00	  598.65	-1769.65	  390.92
     66.9700	  615.00	  619.73	-1753.73	  391.05
     67.0700	  621.00	  653.49	-1781.49	  391.18
     67.1700	  675.00	  706.85	-1780.85	  391.31
     67.2700	  742.00	  788.46	-1795.46	  391.43
     67.3700	  911.00	  907.47	-1745.47	  391.56
     67.4700	 1109.00	 1071.21	-1711.21	  391.69
     67.5700	 1254.00	 1281.61	-1776.61	  391.82
     67.6700	 1644.00	 1532.27	-1637.27	  391.95
     67.7700	 1875.00	 1805.60	-1679.60	  392.07
     67.8700	 2136.00	 2071.37	-1684.37	  392.20
     67.9700	 2285.00	 2288.40	-1752.40	  392.33
     68.0700	 2415.00	 2411.09	-1745.09	  392.46
     68.1700	 2373.00	 2407.65	-1783.65	  392.58
     68.2700	 2218.00	 2279.05	-1810.05	  392.71
     68.3700	 2070.00	 2058.48	-1737.48	  392.84
     68.4700	 1885.00	 1791.43	-1655.43	  392.96
     68.5700	 1482.00	 1518.96	-1785.96	  393.09
     68.6700	 1268.00	 1270.55	-1751.55	  393.21
     68.7700	 1008.00	 1063.18	-1804.18	  393.34
     68.8700	  884.00	  902.57	-1767.57	  393.46
     68.9700	  757.00	  786.32	-1778.32	  393.59
     69.0700	  783.00	  706.99	-1672.99	  393.71
     69.1700	  631.00	  655.42	-1773.42	  393.84
     69.2700	  643.00	  623.02	-1729.02	  393.96
     69.3700	  610.00	  602.95	-1741.95	  394.08
     69.4700	  613.00	  590.43	-1726.43	  394.21
     69.5700	  594.00	  582.38	-1737.38	  394.33
     69.6700	  564.00	  577.00	-1762.00	  394.45
     69.7700	  584.00	  573.29	-1738.29	  394.57
     69.8700	  586.00	  570.74	-1733.74	  394.69
     69.9700	  587.00	  569.08	-1731.08	  394.81
     70.0700	  592.00	  568.19	-1725.19	  394.93
     70.1700	  580.00	  568.03	-1737.03	  395.05
     70.2700	  563.00	  568.60	-1754.60	  395.17
     70.3700	  559.00	  570.04	-1760.04	  395.29
     70.4700	  612.00	  572.60	-1709.60	  395.41
     70.5700	  567.00	  576.82	-1758.82	  395.53
     70.6700	  567.00	  583.62	-1765.62	  395.65
     70.7700	  564.00	  594.62	-1779.62	  395.77
     70.8700	  574.00	  612.38	-1787.38	  395.88
     70.9700	  613.00	  640.61	-1776.61	  396.00
     71.0700	  686.00	  684.23	-1747.23	  396.11
     71.1700	  742.00	  749.00	-1756.00	  396.23
     71.2700	  804.00	  840.62	-1785.62	  396.34
     71.3700	  938.00	  963.17	-1774.17	  396.46
     71.4700	 1103.00	 1117.21	-1763.21	  396.57
     71.5700	 1236.00	 1298.70	-1811.70	  396.69
     71.6700	 1365.00	 1494.44	-1878.44	  396.80
     71.7700	 1603.00	 1686.29	-1832.29	  396.91
     71.8700	 1806.00	 1848.62	-1791.62	  397.02
     71.9700	 1932.00	 1952.83	-1769.83	  397.13
     72.0700	 1901.00	 1976.05	-1824.05	  397.24
     72.1700	 1925.00	 1912.78	-1736.78	  397.35
     72.2700	 1792.00	 1778.10	-1735.10	  397.46
     72.3700	 1658.00	 1599.11	-1690.11	  397.57
     72.4700	 1513.00	 1403.25	-1639.25	  397.68
     72.5700	 1316.00	 1213.84	-1646.84	  397.78
     72.6700	 1131.00	 1045.63	-1663.63	  397.89
     72.7700	 1038.00	  906.62	-1617.62	  398.00
     72.8700	  900.00	  798.70	-1647.70	  398.10
     72.9700	  877.00	  719.39	-1591.39	  398.21
     73.0700	  736.00	  663.75	-1676.75	  398.31
     73.1700	  743.00	  626.10	-1632.10	  398.41
     73.2700	  668.00	  601.21	-1682.21	  398.51
     73.3700	  671.00	  584.87	-1662.87	  398.62
     73.4700	  626.00	  574.05	-1697.05	  398.72
     73.5700	  570.00	  566.75	-1745.75	  398.82
     73.6700	  610.00	  561.73	-1700.73	  398.92
     73.7700	  635.00	  558.25	-1672.25	  399.02
     73.8700	  578.00	  555.91	-1726.91	  399.11
     73.9700	  584.00	  554.45	-1719.45	  399.21
     74.0700	  589.00	  553.69	-1713.69	  399.31
     74.1700	  612.00	  553.47	-1690.47	  399.40
     74.2700	  615.00	  553.61	-1687.61	  399.50
     74.3700	  645.00	  553.90	-1657.90	  399.59
     74.4700	  672.00	  554.10	-1631.10	  399.68
     74.5700	  645.00	  553.98	-1657.98	  399.78
     74.6700	  578.00	  553.38	-1724.38	  399.87
     74.7700	  623.00	  552.27	-1678.27	  399.96
     74.8700	  639.00	  550.80	-1660.80	  400.05
     74.9700	  620.00	  549.21	-1678.21	  400.14
     75.0700	  601.00	  547.79	-1695.79	  400.23
     75.1700	  566.00	  546.80	-1729.80	  400.31
     75.2700	  591.00	  546.69	-1704.69	  400.40
     75.3700	  553.00	  547.76	-1743.76	  400.48
     75.4700	  510.00	  550.55	-1789.55	  400.57
     75.5700	  547.00	  555.46	-1757.46	  400.65
     75.6700	  598.00	  563.22	-1714.22	  400.74
     75.7700	  574.00	  574.24	-1749.24	  400.82
     75.8700	  601.00	  588.81	-1736.81	  400.90
     75.9700	  599.00	  606.85	-1756.85	  400.98
     76.0700	  593.00	  627.75	-1783.75	  401.06
     76.1700	  646.00	  650.28	-1753.28	  401.14
     76.2700	  655.00	  672.51	-1766.51	  401.21
     76.3700	  678.00	  691.94	-1762.94	  401.29
     76.4700	  654.00	  705.70	-1800.70	  401.36
     76.5700	  719.00	  711.28	-1741.28	  401.44
     76.6700	  696.00	  707.50	-1760.50	  401.51
     76.7700	  692.00	  695.14	-1752.14	  401.58
     76.8700	  671.00	  676.47	-1754.47	  401.66
     76.9700	  618.00	  654.18	-1785.18	  401.73
     77.0700	  589.00	  631.24	-1791.24	  401.80
     77.1700	  637.00	  609.52	-1721.52	  401.86
     77.2700	  605.00	  590.40	-1734.40	  401.93
     77.3700	  569.00	  574.57	-1754.57	  402.00
     77.4700	  527.00	  562.20	-1784.20	  402.06
     77.5700	  547.00	  553.00	-1755.00	  402.13
     77.6700	  535.00	  546.48	-1760.48	  402.19
     77.7700	  487.00	  542.03	-1804.03	  402.25
     77.8700	  537.00	  539.10	-1751.10	  402.31
     77.9700	  504.00	  537.20	-1782.20	  402.37
     78.0700	  539.00	  535.98	-1745.98	  402.43
     78.1700	  514.00	  535.21	-1770.21	  402.49
     78.2700	  524.00	  534.71	-1759.71	  402.55
     78.3700	  515.00	  534.40	-1768.40	  402.60
     78.4700	  499.00	  534.23	-1784.23	  402.66
     78.5700	  508.00	  534.16	-1775.16	  402.71
     78.6700	  524.00	  534.20	-1759.20	  402.76
     78.7700	  526.00	  534.36	-1757.36	  402.82
     78.8700	  508.00	  534.67	-1775.67	  402.87
     78.9700	  506.00	  535.15	-1778.15	  402.91
     79.0700	  488.00	  535.87	-1796.87	  402.96
     79.1700	  519.00	  536.85	-1766.85	  403.01
     79.2700	  526.00	  538.17	-1761.17	  403.06
     79.3700	  531.00	  539.70	-1757.70	  403.10
     79.4700	  516.00	  541.83	-1774.83	  403.14
     79.5700	  508.00	  544.44	-1785.44	  403.19
     79.6700	  571.00	  547.58	-1725.58	  403.23
     79.7700	  543.00	  551.30	-1757.30	  403.27
     79.8700	  519.00	  555.70	-1785.70	  403.30
     79.9700	  545.00	  560.90	-1764.90	  403.34
     80.0700	  493.00	  567.09	-1823.09	  403.38
     80.1700	  536.00	  574.58	-1787.58	  403.41
     80.2700	  566.00	  583.68	-1766.68	  403.45
     80.3700	  566.00	  594.74	-1777.74	  403.48
     80.4700	  571.00	  607.91	-1785.91	  403.51
     80.5700	  589.00	  623.15	-1783.15	  403.54
     80.6700	  608.00	  640.06	-1781.06	  403.57
     80.7700	  611.00	  657.90	-1795.90	  403.60
     80.8700	  704.00	  675.61	-1720.61	  403.62
     80.9700	  697.00	  691.93	-1743.93	  403.65
     81.0700	  687.00	  705.67	-1767.67	  403.67
     81.1700	  671.00	  715.83	-1793.83	  403.70
     81.2700	  714.00	  721.71	-1756.71	  403.72
     81.3700	  789.00	  722.91	-1682.91	  403.74
     81.4700	  788.00	  719.39	-1680.39	  403.76
     81.5700	  715.00	  711.45	-1745.45	  403.77
     81.6700	  752.00	  699.63	-1696.63	  403.79
     81.7700	  718.00	  684.68	-1715.68	  403.81
     81.8700	  727.00	  667.60	-1689.60	  403.82
     81.9700	  667.00	  649.54	-1731.54	  403.83
     82.0700	  705.00	  631.65	-1675.65	  403.84
     82.1700	  639.00	  614.78	-1724.78	  403.85
     82.2700	  687.00	  599.65	-1661.65	  403.86
     82.3700	  604.00	  586.56	-1731.56	  403.87
     82.4700	  636.00	  575.65	-1688.65	  403.88
     82.5700	  584.00	  566.92	-1731.92	  403.88
     82.6700	  593.00	  560.27	-1716.27	  403.88
     82.7700	  568.00	  555.63	-1736.63	  403.89
     82.8700	  558.00	  552.84	-1743.84	  403.89
     82.9700	  546.00	  551.76	-1754.76	  403.89
     83.0700	  536.00	  552.26	-1765.26	  403.88
     83.1700	  562.00	  554.22	-1741.22	  403.88
     83.2700	  512.00	  557.51	-1794.51	  403.88
     83.3700	  526.00	  561.94	-1784.94	  403.87
     83.4700	  525.00	  567.23	-1791.23	  403.86
     83.5700	  501.00	  573.03	-1821.03	  403.85
     83.6700	  574.00	  578.84	-1753.84	  403.84
     83.7700	  555.00	  584.12	-1778.12	  403.83
     83.8700	  535.00	  588.21	-1802.21	  403.82
     83.9700	  574.00	  590.54	-1765.54	  403.81
     84.0700	  564.00	  590.69	-1775.69	  403.79
     84.1700	  564.00	  588.61	-1773.61	  403.77
     84.2700	  577.00	  584.58	-1756.58	  403.76
     84.3700	  575.00	  579.15	-1753.15	  403.74
     84.4700	  582.00	  572.93	-1739.93	  403.72
     84.5700	  562.00	  566.46	-1753.46	  403.69
     84.6700	  523.00	  560.21	-1786.21	  403.67
     84.7700	  533.00	  554.50	-1770.50	  403.65
     84.8700	  532.00	  549.55	-1766.55	  403.62
     84.9700	  550.00	  545.46	-1744.46	  403.59
     85.0700	  518.00	  542.22	-1773.22	  403.56
     85.1700	  569.00	  539.78	-1719.78	  403.53
     85.2700	  574.00	  538.04	-1713.04	  403.50
     85.3700	  556.00	  536.88	-1729.88	  403.47
     85.4700	  549.00	  536.21	-1736.21	  403.43
     85.5700	  517.00	  535.93	-1767.93	  403.40
     85.6700	  480.00	  536.01	-1805.01	  403.36
     85.7700	  531.00	  536.44	-1754.44	  403.32
     85.8700	  542.00	  537.24	-1744.24	  403.28
     85.9700	  517.00	  538.50	-1770.50	  403.24
     86.0700	  531.00	  540.34	-1758.34	  403.19
     86.1700	  563.00	  542.92	-1728.92	  403.15
     86.2700	  524.00	  546.42	-1771.42	  403.10
     86.3700	  546.00	  551.04	-1754.04	  403.06
     86.4700	  537.00	  556.97	-1768.97	  403.01
     86.5700	  560.00	  564.32	-1753.32	  402.96
     86.6700	  589.00	  573.12	-1733.12	  402.91
     86.7700	  607.00	  583.23	-1725.23	  402.85
     86.8700	  600.00	  594.03	-1743.03	  402.80
     86.9700	  579.00	  605.64	-1775.64	  402.74
     87.0700	  618.00	  617.05	-1748.05	  402.69
     87.1700	  661.00	  627.36	-1715.36	  402.63
     87.2700	  621.00	  635.61	-1763.61	  402.57
     87.3700	  651.00	  640.87	-1738.87	  402.51
     87.4700	  681.00	  642.44	-1710.44	  402.44
     87.5700	  655.00	  640.16	-1734.16	  402.38
     87.6700	  660.00	  634.39	-1723.39	  402.31
     87.7700	  673.00	  625.96	-1701.96	  402.25
     87.8700	  665.00	  615.91	-1699.91	  402.18
     87.9700	  635.00	  605.29	-1719.29	  402.11
     88.0700	  602.00	  595.04	-1742.04	  402.04
     88.1700	  546.00	  585.93	-1788.93	  401.96
     88.2700	  597.00	  578.56	-1730.56	  401.89
     88.3700	  592.00	  573.30	-1730.30	  401.81
     88.4700	  600.00	  570.31	-1719.31	  401.74
     88.5700	  542.00	  569.57	-1776.57	  401.66
     88.6700	  560.00	  570.90	-1759.90	  401.58
     88.7700	  603.00	  573.95	-1719.95	  401.50
     88.8700	  603.00	  578.30	-1724.30	  401.41
     88.9700	  619.00	  583.39	-1713.39	  401.33
     89.0700	  578.00	  588.64	-1759.64	  401.24
     89.1700	  606.00	  593.39	-1736.39	  401.16
     89.2700	  560.00	  597.01	-1786.01	  401.07
     89.3700	  592.00	  598.96	-1755.96	  400.98
     89.4700	  634.00	  598.89	-1713.89	  400.89
     89.5700	  548.00	  596.75	-1797.75	  400.80
     89.6700	  594.00	  592.79	-1747.79	  400.70
     89.7700	  600.00	  587.43	-1736.43	  400.61
     89.8700	  561.00	  581.21	-1769.21	  400.51
     89.9700	  539.00	  574.62	-1784.61	  400.41
     90.0700	  550.00	  568.08	-1767.08	  400.31
     90.1700	  552.00	  561.94	-1758.94	  400.21
     90.2700	  523.00	  556.44	-1782.44	  400.11
     90.3700	  540.00	  551.72	-1760.72	  400.01
     90.4700	  504.00	  547.84	-1792.84	  399.90
     90.5700	  505.00	  544.78	-1788.78	  399.79
     90.6700	  528.00	  542.49	-1763.49	  399.69
     90.7700	  537.00	  540.88	-1752.88	  399.58
     90.8700	  546.00	  539.85	-1742.85	  399.47
     90.9700	  522.00	  539.32	-1766.32	  399.36
     91.0700	  513.00	  539.23	-1775.23	  399.24
     91.1700	  566.00	  539.54	-1722.54	  399.13
     91.2700	  510.00	  540.26	-1779.26	  399.01
     91.3700	  515.00	  541.44	-1775.44	  398.89
     91.4700	  506.00	  543.18	-1786.18	  398.78
     91.5700	  484.00	  545.60	-1810.60	  398.66
     91.6700	  537.00	  548.87	-1760.87	  398.53
     91.7700	  525.00	  553.21	-1777.21	  398.41
     91.8700	  584.00	  558.82	-1723.82	  398.29
     91.9700	  544.00	  565.93	-1770.93	  398.16
     92.0700	  571.00	  574.50	-1752.50	  398.04
     92.1700	  576.00	  585.10	-1758.10	  397.91
     92.2700	  536.00	  597.56	-1810.56	  397.78
     92.3700	  580.00	  611.82	-1780.82	  397.65
     92.4700	  662.00	  627.68	-1714.68	  397.52
     92.5700	  590.00	  644.79	-1803.79	  397.38
     92.6700	  682.00	  662.66	-1729.66	  397.25
     92.7700	  714.00	  680.69	-1715.69	  397.11
     92.8700	  764.00	  698.13	-1683.13	  396.98
     92.9700	  704.00	  714.23	-1759.23	  396.84
     93.0700	  786.00	  728.37	-1691.37	  396.70
     93.1700	  750.00	  740.24	-1739.24	  396.56
     93.2700	  756.00	  749.90	-1742.90	  396.41
     93.3700	  777.00	  757.80	-1729.80	  396.27
     93.4700	  834.00	  764.53	-1679.53	  396.13
     93.5700	  848.00	  770.77	-1671.77	  395.98
     93.6700	  843.00	  777.10	-1683.10	  395.83
     93.7700	  819.00	  784.05	-1714.05	  395.68
     93.8700	  848.00	  792.14	-1693.14	  395.53
     93.9700	  882.00	  801.84	-1668.84	  395.38
     94.0700	  847.00	  813.55	-1715.55	  395.23
     94.1700	  838.00	  827.44	-1738.44	  395.08
     94.2700	  856.00	  843.28	-1736.28	  394.92
     94.3700	  886.00	  860.40	-1723.40	  394.77
     94.4700	  867.00	  877.67	-1759.67	  394.61
     94.5700	  898.00	  893.55	-1744.55	  394.45
     94.6700	  952.00	  906.22	-1703.22	  394.29
     94.7700	  958.00	  913.82	-1704.82	  394.13
     94.8700	  904.00	  914.77	-1759.77	  393.97
     94.9700	  942.00	  908.24	-1715.24	  393.81
     95.0700	  897.00	  894.34	-1746.34	  393.64
     95.1700	  827.00	  874.12	-1796.12	  393.48
     95.2700	  882.00	  849.25	-1716.25	  393.31
     95.3700	  772.00	  821.73	-1798.73	  393.15
     95.4700	  776.00	  793.60	-1766.60	  392.98
     95.5700	  794.00	  766.80	-1721.80	  392.81
     95.6700	  677.00	  743.12	-1815.12	  392.64
     95.7700	  707.00	  724.16	-1766.16	  392.46
     95.8700	  688.00	  711.39	-1772.39	  392.29
     95.9700	  720.00	  706.06	-1735.06	  392.12
     96.0700	  717.00	  709.28	-1741.28	  391.94
     96.1700	  677.00	  721.95	-1793.95	  391.77
     96.2700	  689.00	  744.77	-1804.77	  391.59
     96.3700	  795.00	  778.16	-1732.16	  391.41
     96.4700	  815.00	  822.19	-1756.19	  391.23
     96.5700	  841.00	  876.46	-1784.46	  391.05
     96.6700	  926.00	  940.02	-1763.02	  390.87
     96.7700	 1023.00	 1011.26	-1737.26	  390.69
     96.8700	 1067.00	 1087.89	-1769.89	  390.50
     96.9700	 1196.00	 1166.87	-1719.87	  390.32
     97.0700	 1252.00	 1244.53	-1741.53	  390.13
     97.1700	 1311.00	 1316.56	-1754.56	  389.95
     97.2700	 1332.00	 1378.34	-1795.34	  389.76
     97.3700	 1344.00	 1425.34	-1830.34	  389.57
     97.4700	 1450.00	 1453.71	-1752.71	  389.38
     97.5700	 1447.00	 1461.12	-1763.12	  389.19
     97.6700	 1485.00	 1447.25	-1711.25	  389.00
     97.7700	 1430.00	 1413.87	-1732.87	  388.81
     97.8700	 1283.00	 1364.32	-1830.32	  388.62
     97.9700	 1271.00	 1302.81	-1780.81	  388.42
     98.0700	 1177.00	 1233.80	-1805.80	  388.23
     98.1700	 1187.00	 1161.58	-1723.58	  388.03
     98.2700	 1055.00	 1090.13	-1784.13	  387.84
     98.3700	 1054.00	 1022.78	-1717.78	  387.64
     98.4700	  939.00	  962.39	-1772.39	  387.44
     98.5700	  886.00	  911.18	-1774.18	  387.24
     98.6700	  855.00	  870.93	-1764.93	  387.04
     98.7700	  759.00	  842.91	-1832.91	  386.84
     98.8700	  786.00	  828.05	-1791.05	  386.64
     98.9700	  833.00	  826.97	-1742.97	  386.44
     99.0700	  776.00	  840.07	-1813.07	  386.24
     99.1700	  831.00	  867.54	-1785.54	  386.03
     99.2700	  857.00	  909.38	-1801.38	  385.83
     99.3700	  972.00	  965.37	-1742.37	  385.62
     99.4700	 1060.00	 1034.94	-1723.94	  385.42
     99.5700	 1060.00	 1117.19	-1806.19	  385.21
     99.6700	 1168.00	 1210.69	-1791.69	  385.01
     99.7700	 1292.00	 1313.39	-1770.39	  384.80
     99.8700	 1420.00	 1422.59	-1751.59	  384.59
     99.9700	 1563.00	 1534.82	-1720.82	  384.38
    100.0700	 1667.00	 1646.01	-1728.01	  384.17
    100.1700	 1739.00	 1751.62	-1761.62	  383.96
    100.2700	 1941.00	 1847.08	-1655.08	  383.75
    100.3700	 1971.00	 1928.29	-1706.29	  383.54
    100.4700	 2022.00	 1992.00	-1719.00	  383.33
    100.5700	 2041.00	 2035.94	-1743.94	  383.11
    100.6700	 2072.00	 2058.67	-1735.67	  382.90
    100.7700	 2078.00	 2059.40	-1730.40	  382.69
    100.8700	 2119.00	 2037.99	-1667.99	  382.47
    100.9700	 2087.00	 1995.33	-1657.33	  382.26
    101.0700	 1918.00	 1933.60	-1764.60	  382.04
    101.1700	 1857.00	 1856.40	-1748.40	  381.83
    101.2700	 1833.00	 1768.45	-1684.45	  381.61
    101.3700	 1713.00	 1674.92	-1710.92	  381.40
    101.4700	 1565.00	 1580.91	-1764.91	  381.18
    101.5700	 1505.00	 1490.83	-1734.83	  380.96
    101.6700	 1390.00	 1408.21	-1767.21	  380.74
    101.7700	 1350.00	 1335.52	-1734.52	  380.53
    101.8700	 1301.00	 1274.12	-1722.12	  380.31
    101.9700	 1226.00	 1224.34	-1747.34	  380.09
    102.0700	 1168.00	 1185.47	-1766.47	  379.87
    102.1700	 1142.00	 1155.97	-1762.97	  379.65
    102.2700	 1153.00	 1133.63	-1729.63	  379.43
    102.3700	 1158.00	 1115.78	-1706.78	  379.21
    102.4700	 1139.00	 1099.58	-1709.58	  378.99
    102.5700	 1106.00	 1082.41	-1725.41	  378.77
    102.6700	 1027.00	 1062.15	-1784.15	  378.55
    102.7700	  985.00	 1037.51	-1801.51	  378.33
    102.8700	  973.00	 1008.09	-1784.09	  378.11
    102.9700	  909.00	  974.26	-1814.26	  377.88
    103.0700	  941.00	  936.91	-1744.91	  377.66
    103.1700	  885.00	  897.25	-1761.25	  377.44
    103.2700	  831.00	  856.59	-1774.59	  377.22
    103.3700	  781.00	  816.18	-1784.18	  377.00
    103.4700	  788.00	  777.17	-1738.17	  376.77
    103.5700	  757.00	  740.49	-1732.49	  376.55
    103.6700	  707.00	  706.86	-1748.86	  376.33
    103.7700	  708.00	  676.79	-1717.79	  376.11
    103.8700	  635.00	  650.53	-1764.53	  375.89
    103.9700	  626.00	  628.15	-1751.15	  375.66
    104.0700	  600.00	  609.51	-1758.51	  375.44
    104.1700	  625.00	  594.37	-1718.37	  375.22
    104.2700	  581.00	  582.38	-1750.38	  375.00
    104.3700	  608.00	  573.17	-1714.17	  374.78
    104.4700	  541.00	  566.32	-1774.32	  374.55
    104.5700	  552.00	  561.46	-1758.46	  374.33
    104.6700	  559.00	  558.21	-1748.21	  374.11
    104.7700	  537.00	  556.26	-1768.26	  373.89
    104.8700	  565.00	  555.34	-1739.34	  373.67
    104.9700	  546.00	  555.24	-1758.24	  373.45
    105.0700	  524.00	  555.78	-1780.78	  373.23
    105.1700	  575.00	  556.83	-1730.83	  373.01
    105.2700	  567.00	  558.31	-1740.31	  372.78
    105.3700	  557.00	  560.19	-1752.19	  372.56
    105.4700	  551.00	  562.46	-1760.46	  372.35
    105.5700	  548.00	  565.15	-1766.15	  372.13
    105.6700	  599.00	  568.36	-1718.36	  371.91
    105.7700	  578.00	  572.18	-1743.18	  371.69
    105.8700	  621.00	  576.72	-1704.72	  371.47
    105.9700	  522.00	  582.08	-1809.08	  371.25
    106.0700	  529.00	  588.32	-1808.32	  371.03
    106.1700	  563.00	  595.49	-1781.49	  370.82
    106.2700	  624.00	  603.54	-1728.54	  370.60
    106.3700	  571.00	  612.38	-1790.38	  370.38
    106.4700	  576.00	  621.84	-1794.84	  370.17
    106.5700	  612.00	  631.70	-1768.70	  369.95
    106.6700	  629.00	  641.67	-1761.67	  369.74
    106.7700	  632.00	  651.41	-1768.41	  369.53
    106.8700	  674.00	  660.55	-1735.55	  369.31
    106.9700	  673.00	  668.71	-1744.71	  369.10
    107.0700	  723.00	  675.54	-1701.54	  368.89
    107.1700	  672.00	  680.76	-1757.76	  368.68
    107.2700	  705.00	  684.23	-1728.23	  368.47
    107.3700	  685.00	  685.97	-1749.97	  368.26
    107.4700	  688.00	  686.16	-1747.16	  368.05
    107.5700	  650.00	  685.14	-1784.14	  367.84
    107.6700	  635.00	  683.32	-1797.32	  367.63
    107.7700	  660.00	  681.11	-1770.11	  367.43
    107.8700	  745.00	  678.91	-1682.91	  367.22
    107.9700	  684.00	  677.06	-1742.06	  367.02
    108.0700	  672.00	  675.77	-1752.77	  366.81
    108.1700	  641.00	  675.16	-1783.16	  366.61
    108.2700	  689.00	  675.24	-1735.24	  366.41
    108.3700	  677.00	  675.91	-1747.91	  366.21
    108.4700	  677.00	  676.96	-1748.96	  366.01
    108.5700	  680.00	  678.07	-1747.07	  365.81
    108.6700	  716.00	  678.89	-1711.89	  365.61
    108.7700	  683.00	  679.02	-1745.02	  365.42
    108.8700	  687.00	  678.09	-1740.09	  365.22
    108.9700	  672.00	  675.82	-1752.82	  365.03
    109.0700	  727.00	  672.01	-1694.01	  364.83
    109.1700	  657.00	  666.64	-1758.64	  364.64
    109.2700	  672.00	  659.80	-1736.80	  364.45
    109.3700	  635.00	  651.70	-1765.70	  364.26
    109.4700	  666.00	  642.64	-1725.64	  364.07
    109.5700	  607.00	  632.92	-1774.92	  363.89
    109.6700	  620.00	  622.88	-1751.88	  363.70
    109.7700	  597.00	  612.83	-1764.83	  363.52
    109.8700	  623.00	  603.04	-1729.04	  363.33
    109.9700	  634.00	  593.75	-1708.75	  363.15
    110.0700	  532.00	  585.17	-1802.17	  362.97
    110.1700	  601.00	  577.42	-1725.42	  362.79
    110.2700	  578.00	  570.62	-1741.62	  362.62
    110.3700	  566.00	  564.80	-1747.80	  362.44
    110.4700	  557.00	  559.97	-1751.97	  362.27
    110.5700	  546.00	  556.09	-1759.09	  362.10
    110.6700	  522.00	  553.13	-1780.13	  361.92
    110.7700	  580.00	  550.99	-1719.99	  361.76
    110.8700	  546.00	  549.60	-1752.60	  361.59
    110.9700	  520.00	  548.86	-1777.86	  361.42
    111.0700	  525.00	  548.69	-1772.69	  361.26
    111.1700	  566.00	  549.01	-1732.01	  361.10
    111.2700	  557.00	  549.74	-1741.74	  360.94
    111.3700	  562.00	  550.82	-1737.82	  360.78
    111.4700	  535.00	  552.20	-1766.20	  360.62
    111.5700	  565.00	  553.82	-1737.82	  360.47
    111.6700	  526.00	  555.67	-1778.67	  360.32
    111.7700	  577.00	  557.72	-1729.72	  360.17
    111.8700	  563.00	  559.95	-1745.95	  360.02
    111.9700	  627.00	  562.36	-1684.36	  359.87
    112.0700	  561.00	  564.96	-1752.96	  359.73
    112.1700	  572.00	  567.76	-1744.76	  359.58
    112.2700	  603.00	  570.78	-1716.78	  359.44
    112.3700	  535.00	  574.06	-1788.06	  359.31
    112.4700	  575.00	  577.63	-1751.63	  359.17
    112.5700	  591.00	  581.56	-1739.56	  359.04
    112.6700	  652.00	  585.90	-1682.91	  358.91
    112.7700	  688.00	  590.76	-1651.76	  358.78
    112.8700	  639.00	  596.24	-1706.24	  358.65
    112.9700	  652.00	  602.48	-1699.48	  358.53
    113.0700	  665.00	  609.69	-1693.69	  358.40
    113.1700	  683.00	  618.10	-1684.10	  358.28
    113.2700	  659.00	  628.02	-1718.02	  358.17
    113.3700	  694.00	  639.90	-1694.90	  358.05
    113.4700	  722.00	  654.22	-1681.22	  357.94
    113.5700	  802.00	  671.63	-1618.63	  357.83
    113.6700	  795.00	  692.93	-1646.93	  357.72
    113.7700	  813.00	  719.10	-1655.10	  357.62
    113.8700	  844.00	  751.29	-1656.29	  357.52
    113.9700	  864.00	  790.88	-1675.88	  357.42
    114.0700	  953.00	  839.46	-1635.46	  357.32
    114.1700	 1011.00	  898.85	-1636.85	  357.23
    114.2700	 1101.00	  971.07	-1619.07	  357.14
    114.3700	 1187.00	 1058.30	-1620.30	  357.05
    114.4700	 1259.00	 1162.85	-1652.85	  356.97
    114.5700	 1381.00	 1287.04	-1655.04	  356.89
    114.6700	 1523.00	 1433.20	-1659.20	  356.81
    114.7700	 1692.00	 1603.49	-1660.49	  356.73
    114.8700	 1923.00	 1799.71	-1625.71	  356.66
    114.9700	 2169.00	 2023.24	-1603.24	  356.59
    115.0700	 2350.00	 2274.80	-1673.80	  356.52
    115.1700	 2616.00	 2554.42	-1687.42	  356.46
    115.2700	 2873.00	 2861.21	-1737.21	  356.40
    115.3700	 3149.00	 3193.15	-1793.15	  356.34
    115.4700	 3440.00	 3547.12	-1856.12	  356.29
    115.5700	 3893.00	 3918.73	-1774.73	  356.24
    115.6700	 4230.00	 4302.47	-1821.47	  356.19
    115.7700	 4489.00	 4691.57	-1951.57	  356.15
    115.8700	 4806.00	 5078.01	-2021.01	  356.11
    115.9700	 5264.00	 5452.74	-1937.74	  356.07
    116.0700	 5617.00	 5805.73	-1937.73	  356.04
    116.1700	 5880.00	 6126.48	-1995.48	  356.01
    116.2700	 6299.00	 6404.23	-1854.23	  355.98
    116.3700	 6579.00	 6628.56	-1798.56	  355.96
    116.4700	 6672.00	 6790.31	-1867.31	  355.94
    116.5700	 6767.00	 6882.41	-1864.41	  355.93
    116.6700	 6996.00	 6900.80	-1653.80	  355.92
    116.7700	 6981.00	 6844.81	-1612.81	  355.91
    116.8700	 6753.00	 6717.40	-1713.40	  355.90
    116.9700	 6731.00	 6524.65	-1542.65	  355.90
    117.0700	 6254.00	 6275.12	-1770.12	  355.91
    117.1700	 5941.00	 5978.77	-1786.77	  355.92
    117.2700	 5618.00	 5646.18	-1777.18	  355.93
    117.3700	 5205.00	 5288.00	-1832.00	  355.95
    117.4700	 4956.00	 4914.31	-1707.31	  355.97
    117.5700	 4589.00	 4534.42	-1694.42	  355.99
    117.6700	 4177.00	 4156.45	-1728.45	  356.02
    117.7700	 3971.00	 3787.40	-1565.40	  356.05
    117.8700	 3575.00	 3433.13	-1607.13	  356.09
    117.9700	 3221.00	 3098.22	-1626.22	  356.13
    118.0700	 2975.00	 2786.11	-1560.11	  356.17
    118.1700	 2507.00	 2499.00	-1741.00	  356.22
    118.2700	 2257.00	 2238.08	-1730.08	  356.28
    118.3700	 1957.00	 2003.73	-1795.73	  356.34
    118.4700	 1810.00	 1795.54	-1734.54	  356.40
    118.5700	 1499.00	 1612.50	-1862.50	  356.47
    118.6700	 1349.00	 1453.08	-1853.08	  356.54
    118.7700	 1259.00	 1315.42	-1805.42	  356.62
    118.8700	 1134.00	 1197.52	-1812.52	  356.70
    118.9700	 1037.00	 1097.26	-1809.26	  356.79
    119.0700	  900.00	 1012.52	-1861.52	  356.88
    119.1700	  912.00	  941.26	-1778.26	  356.97
    119.2700	  847.00	  881.56	-1783.56	  357.08
    119.3700	  777.00	  831.70	-1803.70	  357.18
    119.4700	  755.00	  790.13	-1784.13	  357.29
    119.5700	  665.00	  755.53	-1839.53	  357.41
    119.6700	  669.00	  726.71	-1806.71	  357.53
    119.7700	  667.00	  702.69	-1784.69	  357.66
    119.8700	  618.00	  682.65	-1813.65	  357.79
    119.9700	  616.00	  665.91	-1798.91	  357.92
    120.0700	  590.00	  651.91	-1810.91	  358.07
    120.1700	  631.00	  640.19	-1758.19	  358.21
    120.2700	  594.00	  630.39	-1785.39	  358.36
    120.3700	  586.00	  622.22	-1785.22	  358.52
    120.4700	  603.00	  615.42	-1761.42	  358.69
    120.5700	  554.00	  609.83	-1804.83	  358.85
    120.6700	  551.00	  605.29	-1803.29	  359.03
    120.7700	  592.00	  601.68	-1758.68	  359.21
    120.8700	  563.00	  598.92	-1784.92	  359.39
    120.9700	  521.00	  596.92	-1824.92	  359.59
    121.0700	  569.00	  595.64	-1775.64	  359.78
    121.1700	  571.00	  595.03	-1773.03	  359.99
    121.2700	  568.00	  595.02	-1776.02	  360.19
    121.3700	  579.00	  595.60	-1765.60	  360.41
    121.4700	  608.00	  596.70	-1737.70	  360.63
    121.5700	  566.00	  598.28	-1781.28	  360.86
    121.6700	  604.00	  600.29	-1745.29	  361.09
    121.7700	  572.00	  602.67	-1779.67	  361.33
    121.8700	  579.00	  605.34	-1775.34	  361.57
    121.9700	  651.00	  608.22	-1706.22	  361.82
    122.0700	  589.00	  611.25	-1771.25	  362.08
    122.1700	  602.00	  614.33	-1761.33	  362.34
    122.2700	  633.00	  617.36	-1733.36	  362.61
    122.3700	  637.00	  620.24	-1732.24	  362.89
    122.4700	  643.00	  622.87	-1728.87	  363.17
    122.5700	  621.00	  625.16	-1753.16	  363.46
    122.6700	  566.00	  627.00	-1810.00	  363.76
    122.7700	  691.00	  628.36	-1686.36	  364.06
    122.8700	  652.00	  629.16	-1726.16	  364.37
    122.9700	  665.00	  629.38	-1713.38	  364.68
    123.0700	  637.00	  629.02	-1741.02	  365.01
    123.1700	  641.00	  628.09	-1736.09	  365.33
    123.2700	  633.00	  626.64	-1742.64	  365.67
    123.3700	  653.00	  624.72	-1720.72	  366.01
    123.4700	  649.00	  622.38	-1722.38	  366.36
    123.5700	  653.00	  619.71	-1715.71	  366.72
    123.6700	  573.00	  616.76	-1792.76	  367.09
    123.7700	  619.00	  613.61	-1743.61	  367.46
    123.8700	  639.00	  610.33	-1720.33	  367.84
    123.9700	  636.00	  606.97	-1719.97	  368.22
    124.0700	  652.00	  603.61	-1700.61	  368.62
    124.1700	  627.00	  600.29	-1722.29	  369.02
    124.2700	  605.00	  597.06	-1741.06	  369.42
    124.3700	  591.00	  593.95	-1751.95	  369.84
    124.4700	  587.00	  591.00	-1753.00	  370.26
    124.5700	  583.00	  588.23	-1754.23	  370.69
    124.6700	  578.00	  585.66	-1756.66	  371.13
    124.7700	  630.00	  583.30	-1702.30	  371.58
    124.8700	  645.00	  581.18	-1685.18	  372.03
    124.9700	  561.00	  491.13	-1679.13	  372.49
    125.0700	  613.00	  491.60	-1749.00	  372.96
    125.1700	  621.00	  492.08	-1749.00	  373.44
    125.2700	  527.00	  492.56	-1749.00	  373.93
    125.3700	  579.00	  493.06	-1749.00	  374.42
    125.4700	  573.00	  493.56	-1749.00	  374.92
    125.5700	  566.00	  494.07	-1749.00	  375.43
    125.6700	  577.00	  494.59	-1749.00	  375.95
    125.7700	  549.00	  495.11	-1749.00	  376.48
    125.8700	  508.00	  495.65	-1749.00	  377.01
    125.9700	  584.00	  496.19	-1749.00	  377.56
    126.0700	  585.00	  496.74	-1749.00	  378.11
    126.1700	  564.00	  497.31	-1749.00	  378.67
    126.2700	  628.00	  497.87	-1749.00	  379.24
    126.3700	  562.00	  498.45	-1749.00	  379.82
    126.4700	  610.00	  499.04	-1749.00	  380.40
    126.5700	  606.00	  499.63	-1749.00	  381.00
    126.6700	  610.00	  500.24	-1749.00	  381.60
    126.7700	  594.00	  500.85	-1749.00	  382.22
    126.8700	  621.00	  501.47	-1749.00	  382.84
    126.9700	  616.00	  502.11	-1749.00	  383.47
    127.0700	  619.00	  502.75	-1749.00	  384.11
    127.1700	  629.00	  503.40	-1749.00	  384.76
    127.2700	  631.00	  504.06	-1749.00	  385.42
    127.3700	  614.00	  504.72	-1749.00	  386.09
    127.4700	  677.00	  505.40	-1749.00	  386.77
    127.5700	  663.00	  506.09	-1749.00	  387.45
    127.6700	  702.00	  506.78	-1749.00	  388.15
    127.7700	  717.00	  507.49	-1749.00	  388.86
    127.8700	  749.00	  508.21	-1749.00	  389.57
    127.9700	  705.00	  508.93	-1749.00	  390.30
    128.0700	  733.00	  509.67	-1749.00	  391.03
    128.1700	  720.00	  510.41	-1749.00	  391.78
    128.2700	  849.00	  511.17	-1749.00	  392.53
    128.3700	  820.00	  511.93	-1749.00	  393.30
    128.4700	  774.00	  512.71	-1749.00	  394.07
    128.5700	    0.00	  513.49	-1749.00	  394.86
    128.6700	    0.00	  514.29	-1749.00	  395.65
     12.3015	        	        	        	        	       0	(  0  0  2)	  0  1
     24.8798	        	        	        	        	       0	(  0  0  4)	  0  1
     28.3291	        	        	        	        	       0	(  1  0  0)	  0  1
     29.0258	        	        	        	        	       0	(  1  0  1)	  0  1
     31.0307	        	        	        	        	       0	(  1  0  2)	  0  1
     34.1370	        	        	        	        	       0	(  1  0  3)	  0  1
     37.7736	        	        	        	        	       0	(  0  0  6)	  0  1
     38.1117	        	        	        	        	       0	(  1  0  4)	  0  1
     42.7591	        	        	        	        	       0	(  1  0  5)	  0  1
     47.9402	        	        	        	        	       0	(  1  0  6)	  0  1
     50.2641	        	        	        	        	       0	(  1  1  0)	  0  1
     51.1889	        	        	        	        	       0	(  0  0  8)	  0  1
     51.9859	        	        	        	        	       0	(  1  1  2)	  0  1
     53.5675	        	        	        	        	       0	(  1  0  7)	  0  1
     56.9303	        	        	        	        	       0	(  1  1  4)	  0  1
     58.7602	        	        	        	        	       0	(  2  0  0)	  0  1
     59.1515	        	        	        	        	       0	(  2  0  1)	  0  1
     59.5944	        	        	        	        	       0	(  1  0  8)	  0  1
     60.3160	        	        	        	        	       0	(  2  0  2)	  0  1
     62.2279	        	        	        	        	       0	(  2  0  3)	  0  1
     64.6198	        	        	        	        	       0	(  1  1  6)	  0  1
     64.8501	        	        	        	        	       0	(  2  0  4)	  0  1
     65.4103	        	        	        	        	       0	(  0  0 10)	  0  1
     66.0068	        	        	        	        	       0	(  1  0  9)	  0  1
     68.1420	        	        	        	        	       0	(  2  0  5)	  0  1
     72.0667	        	        	        	        	       0	(  2  0  6)	  0  1
     72.8185	        	        	        	        	       0	(  1  0 10)	  0  1
     74.6506	        	        	        	        	       0	(  1  1  8)	  0  1
     76.5976	        	        	        	        	       0	(  2  0  7)	  0  1
     80.0712	        	        	        	        	       0	(  1  0 11)	  0  1
     80.8807	        	        	        	        	       0	(  0  0 12)	  0  1
     80.9988	        	        	        	        	       0	(  2  1  0)	  0  1
     81.3385	        	        	        	        	       0	(  2  1  1)	  0  1
     81.7241	        	        	        	        	       0	(  2  0  8)	  0  1
     82.3555	        	        	        	        	       0	(  2  1  2)	  0  1
     84.0455	        	        	        	        	       0	(  2  1  3)	  0  1
     86.4033	        	        	        	        	       0	(  2  1  4)	  0  1
     86.9129	        	        	        	        	       0	(  1  1 10)	  0  1
     87.4577	        	        	        	        	       0	(  2  0  9)	  0  1
     87.8396	        	        	        	        	       0	(  1  0 12)	  0  1
     89.4268	        	        	        	        	       0	(  2  1  5)	  0  1
     93.1212	        	        	        	        	       0	(  2  1  6)	  0  1
     93.8399	        	        	        	        	       0	(  2  0 10)	  0  1
     94.8857	        	        	        	        	       0	(  3  0  0)	  0  1
     95.2227	        	        	        	        	       0	(  3  0  1)	  0  1
     96.2351	        	        	        	        	       0	(  3  0  2)	  0  1
     96.2456	        	        	        	        	       0	(  1  0 13)	  0  1
     97.5061	        	        	        	        	       0	(  2  1  7)	  0  1
     97.9270	        	        	        	        	       0	(  3  0  3)	  0  1
     98.4054	        	        	        	        	       0	(  0  0 14)	  0  1
    100.3080	        	        	        	        	       0	(  3  0  4)	  0  1
    100.9554	        	        	        	        	       0	(  2  0 11)	  0  1
    101.7703	        	        	        	        	       0	(  1  1 12)	  0  1
    102.6240	        	        	        	        	       0	(  2  1  8)	  0  1
    103.3970	        	        	        	        	       0	(  3  0  5)	  0  1
    105.4890	        	        	        	        	       0	(  1  0 14)	  0  1
    107.2286	        	        	        	        	       0	(  3  0  6)	  0  1
    108.5552	        	        	        	        	       0	(  2  1  9)	  0  1
    108.9585	        	        	        	        	       0	(  2  0 12)	  0  1
    111.8645	        	        	        	        	       0	(  3  0  7)	  0  1
    115.4448	        	        	        	        	       0	(  2  1 10)	  0  1
    115.9196	        	        	        	        	       0	(  1  0 15)	  0  1
    116.6062	        	        	        	        	       0	(  2  2  0)	  0  1
    117.4122	        	        	        	        	       0	(  3  0  8)	  0  1
    118.1200	        	        	        	        	       0	(  2  2  2)	  0  1
    118.1318	        	        	        	        	       0	(  2  0 13)	  0  1
    119.8672	        	        	        	        	       0	(  0  0 16)	  0  1
    120.5921	        	        	        	        	       0	(  1  1 14)	  0  1
    122.8008	        	        	        	        	       0	(  2  2  4)	  0  1
    123.5618	        	        	        	        	       0	(  2  1 11)	  0  1
    124.0645	        	        	        	        	       0	(  3  0  9)	  0  1
    124.6691	        	        	        	        	       0	(  3  1  0)	  0  1
    125.0789	        	        	        	        	       0	(  3  1  1)	  0  1
    126.3211	        	        	        	        	       0	(  3  1  2)	  0  1
    128.2427	        	        	        	        	       0	(  1  0 16)	  0  1
    128.4371	        	        	        	        	       0	(  3  1  3)	  0  1
    129.0450	        	        	        	        	       0	(  2  0 14)	  0  1
    131.2312	        	        	        	        	       0	(  2  2  6)	  0  1
    131.5096	        	        	        	        	       0	(  3  1  4)	  0  1
    132.1940	        	        	        	        	       0	(  3  0 10)	  0  1
    133.4589	        	        	        	        	       0	(  2  1 12)	  0  1
    135.6915	        	        	        	        	       0	(  3  1  5)	  0  1
    141.2789	        	        	        	        	       0	(  3  1  6)	  0  1
    142.6535	        	        	        	        	       0	(  3  0 11)	  0  1
    143.1528	        	        	        	        	       0	(  2  0 15)	  0  1
    144.3699	        	        	        	        	       0	(  1  0 17)	  0  1
    145.4431	        	        	        	        	       0	(  2  2  8)	  0  1
    146.5846	        	        	        	        	       0	(  2  1 13)	  0  1
    148.9383	        	        	        	        	       0	(  3  1  7)	  0  1
    149.4574	        	        	        	        	       0	(  1  1 16)	  0  1
    153.8126	        	        	        	        	       0	(  0  0 18)	  0  1
    158.4774	        	        	        	        	       0	(  3  0 12)	  0  1
    158.7998	        	        	        	        	       0	(  4  0  0)	  0  1
    159.7541	        	        	        	        	       0	(  4  0  1)	  0  1
    160.8945	        	        	        	        	       0	(  3  1  8)	  0  1
    162.9228	        	        	        	        	       0	(  4  0  2)	  0  1
    169.3552	        	        	        	        	       0	(  2  0 16)	  0  1
    170.2244	        	        	        	        	       0	(  4  0  3)	  0  1
    173.6546	        	        	        	        	       0	(  2  1 14)	  0  1
