MSG Master    CELL:    5.88866   5.88866  23.14695   90.0000   90.0000  120.0000   SPGR: P 63/m m c             TEMP:    634.55
  2   1280     2.52000     0.00000    -0.09410     0.00000     0.00000    0
    96    96     0     0     2
       0.00000      10.00000
     125.00000     130.00000
 2Theta	Yobs	Ycal	Yobs-Ycal	Backg	Posr	(hkl)	K
      0.7700	    0.00	  774.03	-1888.48	  647.80
      0.8700	    0.00	  772.70	-1888.48	  646.47
      0.9700	   42.00	  771.38	-1888.48	  645.15
      1.0700	   56.00	  770.06	-1888.48	  643.83
      1.1700	   43.00	  768.75	-1888.48	  642.52
      1.2700	   48.00	  767.45	-1888.48	  641.22
      1.3700	   62.00	  766.15	-1888.48	  639.91
      1.4700	   84.00	  764.85	-1888.48	  638.62
      1.5700	  301.00	  763.56	-1888.48	  637.33
      1.6700	  465.00	  762.28	-1888.48	  636.04
      1.7700	  579.00	  761.00	-1888.48	  634.76
      1.8700	  684.00	  759.72	-1888.48	  633.49
      1.9700	  698.00	  758.45	-1888.48	  632.22
      2.0700	  801.00	  757.19	-1888.48	  630.96
      2.1700	  777.00	  755.93	-1888.48	  629.70
      2.2700	  756.00	  754.67	-1888.48	  628.44
      2.3700	  738.00	  753.43	-1888.48	  627.19
      2.4700	  671.00	  752.18	-1888.48	  625.95
      2.5700	  701.00	  750.94	-1888.48	  624.71
      2.6700	  672.00	  749.71	-1888.48	  623.48
      2.7700	  637.00	  748.48	-1888.48	  622.25
      2.8700	  625.00	  747.26	-1888.48	  621.03
      2.9700	  658.00	  746.04	-1888.48	  619.81
      3.0700	  658.00	  744.83	-1888.48	  618.59
      3.1700	  655.00	  743.62	-1888.48	  617.39
      3.2700	  728.00	  742.41	-1888.48	  616.18
      3.3700	  860.00	  741.22	-1888.48	  614.98
      3.4700	 1080.00	  740.02	-1888.48	  613.79
      3.5700	 1205.00	  738.83	-1888.48	  612.60
      3.6700	 1304.00	  737.65	-1888.48	  611.42
      3.7700	 1361.00	  736.47	-1888.48	  610.24
      3.8700	 1435.00	  735.30	-1888.48	  609.07
      3.9700	 1502.00	  734.13	-1888.48	  607.90
      4.0700	 1649.00	  732.97	-1888.48	  606.73
      4.1700	 1672.00	  731.81	-1888.48	  605.58
      4.2700	 1656.00	  730.65	-1888.48	  604.42
      4.3700	 1681.00	  729.50	-1888.48	  603.27
      4.4700	 1578.00	  728.36	-1888.48	  602.13
      4.5700	 1515.00	  727.22	-1888.48	  600.99
      4.6700	 1445.00	  726.09	-1888.48	  599.86
      4.7700	 1388.00	  724.96	-1888.48	  598.73
      4.8700	 1394.00	  723.83	-1888.48	  597.60
      4.9700	 1283.00	  722.71	-1888.48	  596.48
      5.0700	 1328.00	  721.60	-1888.48	  595.37
      5.1700	 1298.00	  720.49	-1888.48	  594.26
      5.2700	 1191.00	  719.38	-1888.48	  593.15
      5.3700	 1190.00	  718.28	-1888.48	  592.05
      5.4700	 1152.00	  717.19	-1888.48	  590.96
      5.5700	 1149.00	  716.10	-1888.48	  589.87
      5.6700	 1108.00	  715.01	-1888.48	  588.78
      5.7700	 1041.00	  713.93	-1888.48	  587.70
      5.8700	 1067.00	  712.85	-1888.48	  586.62
      5.9700	 1040.00	  711.78	-1888.48	  585.55
      6.0700	 1018.00	  710.72	-1888.48	  584.48
      6.1700	  970.00	  709.65	-1888.48	  583.42
      6.2700	  960.00	  708.60	-1888.48	  582.37
      6.3700	  943.00	  707.54	-1888.48	  581.31
      6.4700	  990.00	  706.50	-1888.48	  580.26
      6.5700	  925.00	  705.45	-1888.48	  579.22
      6.6700	  957.00	  704.41	-1888.48	  578.18
      6.7700	  856.00	  703.38	-1888.48	  577.15
      6.8700	  860.00	  702.35	-1888.48	  576.12
      6.9700	  899.00	  701.33	-1888.48	  575.09
      7.0700	  899.00	  700.31	-1888.48	  574.07
      7.1700	  853.00	  699.29	-1888.48	  573.06
      7.2700	  832.00	  698.28	-1888.48	  572.05
      7.3700	  838.00	  697.27	-1888.48	  571.04
      7.4700	  785.00	  696.27	-1888.48	  570.04
      7.5700	  741.00	  695.27	-1888.48	  569.04
      7.6700	  797.00	  694.28	-1888.48	  568.05
      7.7700	  802.00	  693.29	-1888.48	  567.06
      7.8700	  809.00	  692.31	-1888.48	  566.08
      7.9700	  782.00	  691.33	-1888.48	  565.10
      8.0700	  759.00	  690.36	-1888.48	  564.13
      8.1700	  754.00	  689.39	-1888.48	  563.16
      8.2700	  720.00	  688.42	-1888.48	  562.19
      8.3700	  714.00	  687.46	-1888.48	  561.23
      8.4700	  778.00	  686.51	-1888.48	  560.27
      8.5700	  737.00	  685.55	-1888.48	  559.32
      8.6700	  769.00	  684.61	-1888.48	  558.38
      8.7700	  751.00	  683.66	-1888.48	  557.43
      8.8700	  766.00	  682.73	-1888.48	  556.49
      8.9700	  766.00	  681.79	-1888.48	  555.56
      9.0700	  721.00	  680.86	-1888.48	  554.63
      9.1700	  720.00	  679.94	-1888.48	  553.71
      9.2700	  711.00	  679.02	-1888.48	  552.78
      9.3700	  709.00	  678.10	-1888.48	  551.87
      9.4700	  710.00	  677.19	-1888.48	  550.96
      9.5700	  731.00	  676.28	-1888.48	  550.05
      9.6700	  721.00	  675.38	-1888.48	  549.15
      9.7700	  719.00	  674.48	-1888.48	  548.25
      9.8700	  713.00	  673.58	-1888.48	  547.35
      9.9700	  720.00	  672.69	-1888.48	  546.46
     10.0700	  698.00	  674.06	-1864.55	  545.58
     10.1700	  688.00	  673.43	-1873.91	  544.70
     10.2700	  710.00	  672.86	-1851.34	  543.82
     10.3700	  670.00	  672.36	-1890.84	  542.95
     10.4700	  662.00	  671.96	-1898.45	  542.08
     10.5700	  713.00	  671.72	-1847.20	  541.21
     10.6700	  699.00	  671.70	-1861.19	  540.35
     10.7700	  686.00	  672.00	-1874.48	  539.50
     10.8700	  685.00	  672.71	-1876.19	  538.64
     10.9700	  722.00	  673.90	-1840.39	  537.80
     11.0700	  689.00	  675.63	-1875.11	  536.95
     11.1700	  674.00	  677.90	-1892.38	  536.12
     11.2700	  686.00	  680.74	-1883.23	  535.28
     11.3700	  682.00	  684.22	-1890.70	  534.45
     11.4700	  734.00	  688.44	-1842.92	  533.62
     11.5700	  772.00	  693.58	-1810.07	  532.80
     11.6700	  690.00	  699.91	-1898.39	  531.98
     11.7700	  708.00	  707.72	-1888.21	  531.17
     11.8700	  715.00	  717.28	-1890.77	  530.36
     11.9700	  797.00	  728.50	-1819.99	  529.55
     12.0700	  822.00	  740.49	-1806.98	  528.75
     12.1700	  831.00	  750.99	-1808.47	  527.95
     12.2700	  790.00	  755.87	-1854.36	  527.16
     12.3700	  770.00	  750.29	-1868.78	  526.37
     12.4700	  824.00	  733.64	-1798.13	  525.59
     12.5700	  683.00	  712.44	-1917.93	  524.81
     12.6700	  629.00	  693.49	-1952.97	  524.03
     12.7700	  657.00	  679.19	-1910.67	  523.25
     12.8700	  690.00	  669.34	-1867.82	  522.49
     12.9700	  659.00	  662.80	-1892.29	  521.72
     13.0700	  639.00	  658.43	-1907.91	  520.96
     13.1700	  635.00	  655.33	-1908.81	  520.20
     13.2700	  567.00	  652.97	-1974.45	  519.45
     13.3700	  637.00	  651.05	-1902.53	  518.70
     13.4700	  635.00	  649.41	-1902.89	  517.96
     13.5700	  636.00	  647.96	-1900.44	  517.21
     13.6700	  627.00	  646.65	-1908.13	  516.48
     13.7700	  631.00	  645.45	-1902.94	  515.74
     13.8700	  613.00	  644.34	-1919.82	  515.01
     13.9700	  650.00	  643.29	-1881.78	  514.29
     14.0700	  635.00	  642.30	-1895.78	  513.57
     14.1700	  658.00	  641.35	-1871.83	  512.85
     14.2700	  615.00	  640.44	-1913.92	  512.14
     14.3700	  627.00	  639.56	-1901.04	  511.42
     14.4700	  588.00	  638.70	-1939.18	  510.72
     14.5700	  620.00	  637.87	-1906.35	  510.02
     14.6700	  663.00	  637.05	-1862.54	  509.32
     14.7700	  623.00	  636.26	-1901.74	  508.62
     14.8700	  672.00	  635.48	-1851.96	  507.93
     14.9700	  539.00	  634.71	-1984.19	  507.25
     15.0700	  611.00	  633.95	-1911.43	  506.56
     15.1700	  588.00	  633.21	-1933.69	  505.88
     15.2700	  580.00	  632.47	-1940.96	  505.21
     15.3700	  663.00	  631.75	-1857.23	  504.53
     15.4700	  631.00	  631.03	-1888.51	  503.87
     15.5700	  651.00	  630.32	-1867.81	  503.20
     15.6700	  636.00	  629.62	-1882.10	  502.54
     15.7700	  614.00	  628.93	-1903.41	  501.88
     15.8700	  655.00	  628.24	-1861.72	  501.23
     15.9700	  580.00	  627.56	-1936.04	  500.58
     16.0700	  594.00	  626.89	-1921.37	  499.94
     16.1700	  612.00	  626.22	-1902.70	  499.29
     16.2700	  650.00	  625.55	-1864.04	  498.65
     16.3700	  609.00	  624.90	-1904.38	  498.02
     16.4700	  658.00	  624.25	-1854.73	  497.39
     16.5700	  620.00	  623.60	-1892.08	  496.76
     16.6700	  622.00	  622.96	-1889.44	  496.14
     16.7700	  634.00	  622.32	-1876.80	  495.52
     16.8700	  594.00	  621.69	-1916.17	  494.90
     16.9700	  628.00	  621.06	-1881.54	  494.29
     17.0700	  633.00	  620.44	-1875.92	  493.68
     17.1700	  618.00	  619.82	-1890.30	  493.07
     17.2700	  637.00	  619.21	-1870.69	  492.47
     17.3700	  606.00	  618.60	-1901.08	  491.87
     17.4700	  630.00	  617.99	-1876.47	  491.27
     17.5700	  586.00	  617.39	-1919.87	  490.68
     17.6700	  606.00	  616.79	-1899.28	  490.09
     17.7700	  665.00	  616.20	-1839.68	  489.51
     17.8700	  584.00	  615.61	-1920.10	  488.92
     17.9700	  568.00	  615.03	-1935.51	  488.35
     18.0700	  665.00	  614.45	-1837.93	  487.77
     18.1700	  584.00	  613.87	-1918.36	  487.20
     18.2700	  597.00	  613.30	-1904.78	  486.63
     18.3700	  567.00	  612.73	-1934.21	  486.07
     18.4700	  636.00	  612.17	-1864.65	  485.51
     18.5700	  617.00	  611.61	-1883.09	  484.95
     18.6700	  569.00	  613.07	-1932.55	  484.40
     18.7700	  605.00	  612.55	-1896.04	  483.84
     18.8700	  585.00	  612.05	-1915.53	  483.30
     18.9700	  606.00	  611.55	-1894.03	  482.75
     19.0700	  585.00	  611.05	-1914.53	  482.21
     19.1700	  585.00	  610.56	-1914.04	  481.68
     19.2700	  583.00	  610.07	-1915.55	  481.14
     19.3700	  597.00	  609.59	-1901.07	  480.61
     19.4700	  604.00	  609.12	-1893.60	  480.08
     19.5700	  604.00	  608.65	-1893.13	  479.56
     19.6700	  584.00	  608.18	-1912.67	  479.04
     19.7700	  625.00	  607.72	-1871.21	  478.52
     19.8700	  560.00	  607.27	-1935.75	  478.01
     19.9700	  562.00	  606.88	-1933.36	  477.50
     20.0700	  604.00	  606.44	-1890.92	  476.99
     20.1700	  582.00	  606.00	-1912.49	  476.48
     20.2700	  566.00	  605.58	-1928.06	  475.98
     20.3700	  600.00	  605.15	-1893.64	  475.48
     20.4700	  595.00	  604.74	-1898.22	  474.99
     20.5700	  608.00	  604.33	-1884.81	  474.50
     20.6700	  614.00	  603.93	-1878.41	  474.01
     20.7700	  605.00	  603.54	-1887.02	  473.52
     20.8700	  564.00	  603.15	-1927.63	  473.04
     20.9700	  576.00	  602.77	-1915.25	  472.56
     21.0700	  578.00	  602.40	-1912.88	  472.09
     21.1700	  618.00	  602.04	-1872.52	  471.61
     21.2700	  627.00	  601.68	-1863.16	  471.14
     21.3700	  606.00	  601.33	-1883.82	  470.68
     21.4700	  555.00	  601.00	-1934.48	  470.21
     21.5700	  583.00	  600.67	-1906.15	  469.75
     21.6700	  664.00	  600.35	-1824.84	  469.30
     21.7700	  593.00	  600.05	-1895.53	  468.84
     21.8700	  619.00	  599.75	-1869.23	  468.39
     21.9700	  610.00	  599.47	-1877.95	  467.94
     22.0700	  581.00	  599.20	-1906.68	  467.50
     22.1700	  576.00	  599.13	-1911.61	  467.06
     22.2700	  589.00	  598.89	-1898.37	  466.62
     22.3700	  568.00	  598.67	-1919.15	  466.18
     22.4700	  597.00	  598.46	-1889.94	  465.75
     22.5700	  595.00	  598.27	-1891.75	  465.32
     22.6700	  572.00	  598.10	-1914.59	  464.89
     22.7700	  635.00	  597.96	-1851.44	  464.47
     22.8700	  616.00	  597.84	-1870.32	  464.04
     22.9700	  585.00	  597.75	-1901.23	  463.63
     23.0700	  598.00	  597.69	-1888.18	  463.21
     23.1700	  617.00	  597.67	-1869.16	  462.80
     23.2700	  575.00	  597.70	-1911.18	  462.39
     23.3700	  594.00	  597.78	-1892.26	  461.98
     23.4700	  603.00	  597.91	-1883.40	  461.58
     23.5700	  596.00	  598.13	-1890.61	  461.18
     23.6700	  637.00	  598.45	-1849.93	  460.78
     23.7700	  644.00	  598.90	-1843.38	  460.38
     23.8700	  653.00	  599.54	-1835.03	  459.99
     23.9700	  664.00	  600.48	-1824.96	  459.60
     24.0700	  625.00	  601.85	-1865.33	  459.22
     24.1700	  622.00	  603.90	-1870.39	  458.83
     24.2700	  634.00	  606.94	-1861.42	  458.45
     24.3700	  623.00	  611.49	-1876.98	  458.07
     24.4700	  674.00	  617.90	-1832.38	  457.70
     24.5700	  670.00	  626.31	-1844.79	  457.32
     24.6700	  689.00	  636.39	-1835.88	  456.95
     24.7700	  690.00	  647.07	-1845.55	  456.59
     24.8700	  749.00	  656.09	-1795.57	  456.22
     24.9700	  704.00	  660.04	-1844.53	  455.86
     25.0700	  695.00	  656.19	-1849.67	  455.50
     25.1700	  650.00	  646.06	-1884.54	  455.14
     25.2700	  706.00	  634.40	-1816.89	  454.79
     25.3700	  647.00	  624.68	-1866.16	  454.44
     25.4700	  649.00	  617.88	-1857.36	  454.09
     25.5700	  624.00	  613.74	-1878.23	  453.74
     25.6700	  641.00	  611.64	-1859.12	  453.40
     25.7700	  611.00	  610.91	-1888.40	  453.06
     25.8700	  629.00	  611.10	-1870.59	  452.72
     25.9700	  641.00	  611.93	-1859.41	  452.39
     26.0700	  621.00	  613.26	-1880.74	  452.05
     26.1700	  659.00	  615.04	-1844.53	  451.72
     26.2700	  650.00	  617.29	-1855.78	  451.39
     26.3700	  637.00	  620.04	-1871.52	  451.07
     26.4700	  635.00	  623.35	-1876.84	  450.75
     26.5700	  633.00	  627.32	-1882.81	  450.43
     26.6700	  634.00	  632.08	-1886.56	  450.11
     26.7700	  603.00	  637.78	-1923.27	  449.79
     26.8700	  660.00	  644.67	-1873.15	  449.48
     26.9700	  625.00	  653.05	-1916.53	  449.17
     27.0700	  659.00	  663.34	-1892.83	  448.86
     27.1700	  657.00	  676.17	-1907.66	  448.56
     27.2700	  695.00	  692.47	-1885.95	  448.26
     27.3700	  707.00	  713.85	-1895.34	  447.96
     27.4700	  716.00	  743.50	-1915.99	  447.66
     27.5700	  730.00	  788.12	-1946.60	  447.36
     27.6700	  808.00	  861.33	-1941.82	  447.07
     27.7700	  794.00	  988.33	-2082.82	  446.78
     27.8700	  963.00	 1209.61	-2135.10	  446.49
     27.9700	 1166.00	 1578.14	-2300.62	  446.21
     28.0700	 1826.00	 2140.38	-2202.86	  445.92
     28.1700	 2696.00	 2897.00	-2089.48	  445.64
     28.2700	 4005.00	 3746.05	-1629.53	  445.36
     28.3700	 5024.00	 4437.48	-1301.97	  445.09
     28.4700	 5377.00	 4617.57	-1129.06	  444.81
     28.5700	 4427.00	 4137.63	-1599.12	  444.54
     28.6700	 3300.00	 3377.45	-1965.93	  444.27
     28.7700	 2433.00	 2811.36	-2266.85	  444.01
     28.8700	 2358.00	 2611.27	-2141.75	  443.74
     28.9700	 2777.00	 2698.80	-1810.28	  443.48
     29.0700	 3034.00	 2856.73	-1711.21	  443.22
     29.1700	 3094.00	 2829.53	-1624.01	  442.96
     29.2700	 2666.00	 2489.96	-1712.44	  442.71
     29.3700	 1968.00	 1979.30	-1899.78	  442.45
     29.4700	 1400.00	 1507.43	-1995.91	  442.20
     29.5700	 1111.00	 1165.96	-1943.44	  441.96
     29.6700	  878.00	  954.30	-1964.78	  441.71
     29.7700	  840.00	  834.98	-1883.46	  441.46
     29.8700	  852.00	  768.74	-1805.22	  441.22
     29.9700	  768.00	  729.32	-1849.80	  440.98
     30.0700	  711.00	  703.23	-1880.71	  440.74
     30.1700	  717.00	  684.59	-1856.07	  440.51
     30.2700	  770.00	  671.00	-1789.48	  440.28
     30.3700	  698.00	  661.58	-1852.07	  440.04
     30.4700	  639.00	  656.39	-1905.87	  439.82
     30.5700	  658.00	  656.20	-1886.68	  439.59
     30.6700	  673.00	  662.35	-1877.84	  439.36
     30.7700	  661.00	  675.95	-1903.43	  439.14
     30.8700	  744.00	  696.49	-1840.97	  438.92
     30.9700	  726.00	  720.41	-1882.89	  438.70
     31.0700	  696.00	  740.16	-1932.64	  438.48
     31.1700	  784.00	  745.01	-1849.49	  438.27
     31.2700	  722.00	  728.10	-1894.58	  438.06
     31.3700	  685.00	  696.40	-1899.88	  437.85
     31.4700	  713.00	  663.59	-1839.07	  437.64
     31.5700	  644.00	  637.43	-1881.91	  437.43
     31.6700	  649.00	  619.47	-1858.95	  437.23
     31.7700	  654.00	  608.23	-1842.71	  437.03
     31.8700	  635.00	  601.44	-1854.93	  436.83
     31.9700	  610.00	  597.21	-1875.69	  436.63
     32.0700	  605.00	  594.37	-1877.85	  436.43
     32.1700	  654.00	  592.31	-1826.80	  436.24
     32.2700	  645.00	  590.79	-1834.27	  436.04
     32.3700	  609.00	  589.67	-1869.15	  435.85
     32.4700	  588.00	  588.90	-1889.39	  435.66
     32.5700	  633.00	  588.47	-1843.95	  435.48
     32.6700	  616.00	  588.40	-1860.88	  435.29
     32.7700	  594.00	  588.64	-1883.13	  435.11
     32.8700	  575.00	  589.29	-1902.77	  434.93
     32.9700	  612.00	  590.41	-1866.90	  434.75
     33.0700	  649.00	  592.13	-1831.62	  434.57
     33.1700	  604.00	  594.66	-1879.15	  434.40
     33.2700	  624.00	  598.40	-1862.88	  434.22
     33.3700	  614.00	  604.11	-1878.59	  434.05
     33.4700	  636.00	  613.27	-1865.75	  433.88
     33.5700	  654.00	  628.54	-1863.02	  433.71
     33.6700	  656.00	  654.12	-1886.61	  433.55
     33.7700	  691.00	  695.53	-1893.02	  433.38
     33.8700	  741.00	  757.78	-1905.26	  433.22
     33.9700	  855.00	  841.47	-1874.95	  433.06
     34.0700	 1030.00	  937.87	-1796.36	  432.90
     34.1700	 1137.00	 1025.52	-1777.00	  432.74
     34.2700	 1141.00	 1071.53	-1819.01	  432.58
     34.3700	 1163.00	 1047.90	-1773.39	  432.43
     34.4700	  960.00	  963.33	-1891.81	  432.28
     34.5700	  910.00	  858.43	-1836.91	  432.13
     34.6700	  802.00	  765.49	-1851.97	  431.98
     34.7700	  708.00	  696.49	-1876.97	  431.83
     34.8700	  643.00	  650.93	-1896.42	  431.69
     34.9700	  650.00	  623.15	-1861.63	  431.54
     35.0700	  645.00	  606.71	-1850.19	  431.40
     35.1700	  613.00	  596.69	-1872.18	  431.26
     35.2700	  616.00	  590.12	-1862.60	  431.12
     35.3700	  601.00	  585.42	-1872.90	  430.98
     35.4700	  566.00	  581.84	-1904.33	  430.85
     35.5700	  575.00	  579.02	-1892.50	  430.71
     35.6700	  595.00	  576.74	-1870.22	  430.58
     35.7700	  565.00	  574.87	-1898.35	  430.45
     35.8700	  590.00	  573.32	-1871.80	  430.32
     35.9700	  595.00	  572.03	-1865.51	  430.19
     36.0700	  586.00	  570.95	-1873.44	  430.07
     36.1700	  576.00	  570.06	-1882.54	  429.94
     36.2700	  576.00	  569.31	-1881.79	  429.82
     36.3700	  625.00	  568.71	-1832.19	  429.70
     36.4700	  539.00	  568.23	-1917.71	  429.58
     36.5700	  582.00	  567.88	-1874.36	  429.46
     36.6700	  588.00	  567.65	-1868.13	  429.34
     36.7700	  604.00	  568.06	-1852.54	  429.23
     36.8700	  590.00	  568.33	-1866.81	  429.11
     36.9700	  538.00	  568.60	-1919.08	  429.00
     37.0700	  524.00	  569.13	-1933.61	  428.89
     37.1700	  566.00	  570.03	-1892.51	  428.78
     37.2700	  574.00	  571.49	-1885.97	  428.67
     37.3700	  522.00	  573.79	-1940.28	  428.56
     37.4700	  561.00	  577.49	-1904.97	  428.46
     37.5700	  612.00	  583.24	-1859.73	  428.35
     37.6700	  562.00	  591.95	-1918.44	  428.25
     37.7700	  617.00	  604.48	-1875.96	  428.15
     37.8700	  626.00	  621.20	-1883.68	  428.05
     37.9700	  688.00	  641.37	-1841.85	  427.95
     38.0700	  690.00	  662.60	-1861.08	  427.86
     38.1700	  725.00	  680.56	-1844.04	  427.76
     38.2700	  681.00	  689.06	-1896.54	  427.67
     38.3700	  651.00	  682.69	-1920.17	  427.57
     38.4700	  674.00	  661.91	-1876.39	  427.48
     38.5700	  625.00	  637.15	-1900.63	  427.39
     38.6700	  640.00	  614.21	-1862.69	  427.30
     38.7700	  539.00	  596.20	-1945.68	  427.21
     38.8700	  582.00	  583.53	-1890.02	  427.13
     38.9700	  527.00	  575.30	-1936.79	  427.04
     39.0700	  548.00	  570.18	-1910.67	  426.96
     39.1700	  566.00	  567.00	-1889.48	  426.88
     39.2700	  582.00	  564.92	-1871.40	  426.79
     39.3700	  540.00	  563.47	-1911.95	  426.71
     39.4700	  572.00	  562.38	-1878.86	  426.63
     39.5700	  566.00	  561.53	-1884.01	  426.56
     39.6700	  518.00	  560.84	-1931.32	  426.48
     39.7700	  564.00	  559.56	-1884.04	  426.41
     39.8700	  570.00	  559.11	-1877.59	  426.33
     39.9700	  559.00	  558.73	-1888.21	  426.26
     40.0700	  604.00	  558.42	-1842.90	  426.19
     40.1700	  578.00	  558.16	-1868.64	  426.12
     40.2700	  540.00	  557.95	-1906.43	  426.05
     40.3700	  537.00	  557.78	-1909.27	  425.98
     40.4700	  546.00	  558.19	-1900.67	  425.91
     40.5700	  552.00	  558.10	-1894.59	  425.85
     40.6700	  512.00	  558.05	-1934.53	  425.78
     40.7700	  543.00	  558.03	-1903.52	  425.72
     40.8700	  597.00	  558.05	-1849.54	  425.65
     40.9700	  609.00	  558.11	-1837.59	  425.59
     41.0700	  564.00	  558.21	-1882.69	  425.53
     41.1700	  539.00	  558.41	-1907.89	  425.47
     41.2700	  546.00	  558.61	-1901.09	  425.41
     41.3700	  562.00	  558.87	-1885.36	  425.36
     41.4700	  525.00	  559.21	-1922.70	  425.30
     41.5700	  565.00	  559.65	-1883.13	  425.25
     41.6700	  553.00	  560.21	-1895.69	  425.19
     41.7700	  558.00	  560.93	-1891.42	  425.14
     41.8700	  564.00	  561.91	-1886.39	  425.09
     41.9700	  530.00	  563.29	-1921.77	  425.04
     42.0700	  562.00	  565.35	-1891.83	  424.99
     42.1700	  551.00	  568.57	-1906.05	  424.94
     42.2700	  537.00	  573.68	-1925.16	  424.89
     42.3700	  535.00	  581.65	-1935.13	  424.84
     42.4700	  597.00	  593.47	-1884.95	  424.79
     42.5700	  612.00	  609.66	-1886.15	  424.75
     42.6700	  581.00	  629.86	-1937.35	  424.71
     42.7700	  614.00	  651.63	-1926.12	  424.66
     42.8700	  684.00	  670.13	-1874.62	  424.62
     42.9700	  649.00	  678.84	-1918.32	  424.58
     43.0700	  629.00	  673.57	-1933.05	  424.54
     43.1700	  658.00	  656.35	-1886.84	  424.50
     43.2700	  616.00	  634.29	-1906.77	  424.46
     43.3700	  628.00	  613.23	-1873.71	  424.42
     43.4700	  560.00	  596.04	-1924.52	  424.38
     43.5700	  620.00	  583.41	-1851.89	  424.35
     43.6700	  568.00	  575.07	-1895.55	  424.31
     43.7700	  542.00	  569.60	-1916.09	  424.28
     43.8700	  574.00	  566.20	-1880.68	  424.24
     43.9700	  539.00	  564.05	-1913.54	  424.21
     44.0700	  567.00	  562.64	-1884.12	  424.18
     44.1700	  567.00	  561.66	-1883.14	  424.15
     44.2700	  560.00	  560.93	-1889.42	  424.12
     44.3700	  567.00	  560.39	-1881.87	  424.09
     44.4700	  570.00	  559.97	-1878.45	  424.06
     44.5700	  548.00	  559.65	-1900.13	  424.03
     44.6700	  520.00	  559.63	-1928.11	  424.00
     44.7700	  521.00	  559.46	-1926.94	  423.98
     44.8700	  547.00	  559.36	-1900.84	  423.95
     44.9700	  604.00	  559.29	-1843.77	  423.92
     45.0700	  561.00	  559.27	-1886.75	  423.90
     45.1700	  558.00	  559.28	-1889.76	  423.88
     45.2700	  548.00	  559.33	-1899.81	  423.85
     45.3700	  572.00	  559.41	-1875.90	  423.83
     45.4700	  539.00	  559.53	-1909.01	  423.81
     45.5700	  562.00	  559.77	-1886.25	  423.79
     45.6700	  530.00	  559.94	-1918.43	  423.77
     45.7700	  534.00	  560.16	-1914.64	  423.75
     45.8700	  580.00	  560.40	-1868.88	  423.73
     45.9700	  575.00	  560.68	-1874.16	  423.71
     46.0700	  595.00	  561.00	-1854.48	  423.69
     46.1700	  583.00	  561.36	-1866.84	  423.68
     46.2700	  527.00	  561.87	-1923.35	  423.66
     46.3700	  610.00	  562.33	-1840.82	  423.65
     46.4700	  575.00	  562.86	-1876.34	  423.63
     46.5700	  565.00	  563.27	-1886.75	  423.62
     46.6700	  576.00	  563.95	-1876.43	  423.60
     46.7700	  597.00	  564.73	-1856.21	  423.59
     46.8700	  570.00	  565.64	-1884.12	  423.58
     46.9700	  550.00	  566.72	-1905.20	  423.56
     47.0700	  553.00	  568.05	-1903.54	  423.55
     47.1700	  584.00	  569.78	-1874.26	  423.54
     47.2700	  593.00	  572.13	-1867.61	  423.53
     47.3700	  578.00	  575.48	-1885.96	  423.52
     47.4700	  583.00	  580.37	-1885.85	  423.51
     47.5700	  534.00	  587.42	-1941.90	  423.50
     47.6700	  590.00	  597.24	-1895.73	  423.49
     47.7700	  637.00	  610.14	-1861.62	  423.49
     47.8700	  610.00	  625.74	-1904.22	  423.48
     47.9700	  640.00	  642.62	-1891.10	  423.47
     48.0700	  637.00	  657.82	-1909.30	  423.47
     48.1700	  669.00	  667.22	-1886.70	  423.46
     48.2700	  666.00	  667.57	-1890.05	  423.45
     48.3700	  677.00	  659.77	-1871.25	  423.45
     48.4700	  616.00	  646.84	-1919.33	  423.44
     48.5700	  619.00	  633.42	-1902.90	  423.44
     48.6700	  614.00	  622.12	-1896.60	  423.44
     48.7700	  589.00	  614.11	-1913.60	  423.43
     48.8700	  598.00	  609.62	-1900.10	  423.43
     48.9700	  582.00	  608.35	-1914.83	  423.43
     49.0700	  603.00	  609.84	-1895.33	  423.43
     49.1700	  579.00	  613.74	-1923.22	  423.42
     49.2700	  578.00	  619.96	-1930.44	  423.42
     49.3700	  578.00	  628.93	-1939.41	  423.42
     49.4700	  636.00	  642.01	-1894.49	  423.42
     49.5700	  667.00	  662.43	-1883.91	  423.42
     49.6700	  641.00	  696.84	-1944.33	  423.42
     49.7700	  732.00	  757.40	-1913.89	  423.42
     49.8700	  844.00	  862.90	-1907.38	  423.42
     49.9700	 1011.00	 1036.67	-1914.15	  423.43
     50.0700	 1338.00	 1298.88	-1849.36	  423.43
     50.1700	 1751.00	 1652.80	-1790.28	  423.43
     50.2700	 2177.00	 2068.99	-1780.47	  423.43
     50.3700	 2618.00	 2473.24	-1743.72	  423.43
     50.4700	 2851.00	 2750.10	-1787.58	  423.44
     50.5700	 2750.00	 2788.28	-1926.76	  423.44
     50.6700	 2524.00	 2567.83	-1932.32	  423.44
     50.7700	 2131.00	 2184.91	-1942.40	  423.45
     50.8700	 1640.00	 1765.03	-2013.51	  423.45
     50.9700	 1254.00	 1396.28	-2030.76	  423.46
     51.0700	 1006.00	 1118.23	-2000.71	  423.46
     51.1700	  862.00	  933.60	-1960.08	  423.46
     51.2700	  766.00	  823.63	-1946.11	  423.47
     51.3700	  714.00	  762.75	-1937.23	  423.47
     51.4700	  732.00	  728.46	-1884.94	  423.48
     51.5700	  679.00	  705.64	-1915.12	  423.49
     51.6700	  705.00	  687.13	-1870.61	  423.49
     51.7700	  651.00	  670.92	-1908.40	  423.50
     51.8700	  664.00	  657.12	-1881.61	  423.50
     51.9700	  640.00	  646.05	-1894.53	  423.51
     52.0700	  652.00	  637.70	-1874.18	  423.52
     52.1700	  663.00	  631.74	-1857.22	  423.52
     52.2700	  677.00	  627.61	-1839.09	  423.53
     52.3700	  641.00	  624.86	-1872.35	  423.54
     52.4700	  676.00	  623.42	-1835.90	  423.55
     52.5700	  606.00	  623.54	-1906.02	  423.55
     52.6700	  706.00	  625.70	-1808.19	  423.56
     52.7700	  628.00	  630.73	-1891.21	  423.57
     52.8700	  620.00	  639.92	-1908.40	  423.58
     52.9700	  659.00	  655.27	-1884.76	  423.58
     53.0700	  707.00	  679.54	-1861.03	  423.59
     53.1700	  693.00	  716.02	-1911.51	  423.60
     53.2700	  839.00	  767.90	-1817.39	  423.61
     53.3700	  842.00	  837.15	-1883.64	  423.62
     53.4700	  892.00	  923.08	-1919.56	  423.63
     53.5700	 1017.00	 1020.27	-1891.75	  423.64
     53.6700	 1134.00	 1117.04	-1871.52	  423.64
     53.7700	 1267.00	 1194.01	-1815.50	  423.65
     53.8700	 1252.00	 1228.55	-1865.03	  423.66
     53.9700	 1225.00	 1207.72	-1871.20	  423.67
     54.0700	 1210.00	 1139.33	-1817.81	  423.68
     54.1700	 1111.00	 1045.43	-1822.91	  423.69
     54.2700	  911.00	  947.33	-1924.81	  423.70
     54.3700	  834.00	  858.67	-1913.16	  423.71
     54.4700	  792.00	  786.00	-1882.48	  423.72
     54.5700	  731.00	  730.88	-1888.36	  423.72
     54.6700	  717.00	  691.77	-1863.25	  423.73
     54.7700	  700.00	  665.59	-1854.07	  423.74
     54.8700	  657.00	  648.92	-1880.40	  423.75
     54.9700	  672.00	  638.76	-1855.24	  423.76
     55.0700	  656.00	  632.90	-1865.38	  423.77
     55.1700	  689.00	  629.86	-1829.34	  423.78
     55.2700	  664.00	  628.78	-1853.26	  423.79
     55.3700	  592.00	  629.21	-1925.69	  423.80
     55.4700	  585.00	  630.94	-1934.42	  423.81
     55.5700	  642.00	  633.95	-1880.43	  423.81
     55.6700	  637.00	  638.31	-1889.80	  423.82
     55.7700	  673.00	  644.27	-1859.76	  423.83
     55.8700	  613.00	  652.29	-1927.77	  423.84
     55.9700	  671.00	  663.23	-1880.71	  423.85
     56.0700	  665.00	  678.76	-1902.24	  423.86
     56.1700	  665.00	  701.88	-1925.36	  423.87
     56.2700	  723.00	  737.66	-1903.15	  423.87
     56.3700	  774.00	  793.94	-1908.42	  423.88
     56.4700	  811.00	  881.31	-1958.79	  423.89
     56.5700	 1000.00	 1012.08	-1900.57	  423.90
     56.6700	 1169.00	 1197.31	-1916.79	  423.91
     56.7700	 1464.00	 1442.11	-1866.59	  423.91
     56.8700	 1792.00	 1739.97	-1836.46	  423.92
     56.9700	 2163.00	 2067.21	-1792.69	  423.93
     57.0700	 2447.00	 2377.64	-1819.12	  423.94
     57.1700	 2701.00	 2603.38	-1790.86	  423.94
     57.2700	 2614.00	 2675.17	-1949.65	  423.95
     57.3700	 2592.00	 2566.47	-1862.95	  423.96
     57.4700	 2275.00	 2316.42	-1929.90	  423.97
     57.5700	 2006.00	 1998.29	-1880.77	  423.97
     57.6700	 1515.00	 1676.60	-2050.08	  423.98
     57.7700	 1271.00	 1392.17	-2009.66	  423.98
     57.8700	 1119.00	 1164.46	-1933.95	  423.99
     57.9700	  919.00	  997.06	-1966.54	  424.00
     58.0700	  881.00	  883.49	-1890.97	  424.00
     58.1700	  835.00	  813.24	-1866.72	  424.01
     58.2700	  767.00	  776.01	-1897.49	  424.01
     58.3700	  765.00	  764.35	-1887.83	  424.02
     58.4700	  797.00	  774.29	-1865.77	  424.02
     58.5700	  820.00	  804.48	-1872.96	  424.03
     58.6700	  798.00	  854.46	-1944.94	  424.03
     58.7700	  929.00	  922.73	-1882.21	  424.04
     58.8700	  919.00	 1004.98	-1974.46	  424.04
     58.9700	 1110.00	 1092.76	-1871.24	  424.04
     59.0700	 1165.00	 1174.16	-1897.64	  424.05
     59.1700	 1183.00	 1238.39	-1943.87	  424.05
     59.2700	 1218.00	 1280.99	-1951.48	  424.05
     59.3700	 1310.00	 1301.58	-1880.06	  424.06
     59.4700	 1283.00	 1298.93	-1904.41	  424.06
     59.5700	 1268.00	 1273.64	-1894.12	  424.06
     59.6700	 1254.00	 1234.18	-1868.66	  424.06
     59.7700	 1261.00	 1194.60	-1822.08	  424.07
     59.8700	 1218.00	 1167.28	-1837.77	  424.07
     59.9700	 1230.00	 1160.48	-1818.97	  424.07
     60.0700	 1170.00	 1180.08	-1898.57	  424.07
     60.1700	 1263.00	 1230.24	-1855.73	  424.07
     60.2700	 1322.00	 1310.38	-1876.86	  424.07
     60.3700	 1520.00	 1411.22	-1779.70	  424.07
     60.4700	 1516.00	 1513.00	-1885.48	  424.07
     60.5700	 1592.00	 1586.67	-1883.15	  424.07
     60.6700	 1599.00	 1602.35	-1891.83	  424.07
     60.7700	 1485.00	 1546.30	-1949.78	  424.06
     60.8700	 1484.00	 1431.23	-1835.71	  424.06
     60.9700	 1285.00	 1285.58	-1889.07	  424.06
     61.0700	 1141.00	 1136.75	-1884.23	  424.06
     61.1700	 1010.00	 1003.73	-1882.21	  424.06
     61.2700	  823.00	  896.81	-1962.29	  424.05
     61.3700	  805.00	  819.47	-1902.95	  424.05
     61.4700	  775.00	  770.72	-1884.20	  424.04
     61.5700	  780.00	  747.86	-1856.34	  424.04
     61.6700	  806.00	  748.67	-1831.16	  424.04
     61.7700	  768.00	  772.76	-1893.25	  424.03
     61.8700	  865.00	  821.48	-1844.96	  424.02
     61.9700	  937.00	  896.71	-1848.19	  424.02
     62.0700	 1034.00	  998.84	-1853.32	  424.01
     62.1700	 1112.00	 1124.38	-1900.86	  424.01
     62.2700	 1352.00	 1263.96	-1800.44	  424.00
     62.3700	 1462.00	 1400.60	-1827.09	  423.99
     62.4700	 1528.00	 1509.68	-1870.17	  423.98
     62.5700	 1530.00	 1563.72	-1922.21	  423.98
     62.6700	 1462.00	 1545.46	-1971.94	  423.97
     62.7700	 1385.00	 1460.37	-1963.85	  423.96
     62.8700	 1358.00	 1332.43	-1862.91	  423.95
     62.9700	 1105.00	 1189.00	-1972.49	  423.94
     63.0700	 1026.00	 1051.22	-1913.70	  423.93
     63.1700	  892.00	  932.10	-1928.58	  423.92
     63.2700	  817.00	  837.51	-1908.99	  423.91
     63.3700	  726.00	  767.84	-1930.32	  423.89
     63.4700	  739.00	  720.04	-1869.52	  423.88
     63.5700	  703.00	  689.54	-1875.02	  423.87
     63.6700	  697.00	  671.82	-1863.30	  423.86
     63.7700	  656.00	  663.29	-1895.77	  423.84
     63.8700	  690.00	  661.95	-1860.43	  423.83
     63.9700	  687.00	  667.11	-1868.60	  423.81
     64.0700	  714.00	  679.45	-1853.94	  423.80
     64.1700	  710.00	  700.65	-1879.13	  423.78
     64.2700	  792.00	  733.09	-1829.58	  423.77
     64.3700	  801.00	  779.35	-1866.83	  423.75
     64.4700	  877.00	  840.92	-1852.40	  423.74
     64.5700	  998.00	  919.32	-1809.80	  423.72
     64.6700	 1022.00	 1012.05	-1878.53	  423.70
     64.7700	 1167.00	 1113.45	-1834.94	  423.68
     64.8700	 1223.00	 1213.53	-1879.01	  423.66
     64.9700	 1277.00	 1298.41	-1909.90	  423.64
     65.0700	 1326.00	 1353.86	-1916.34	  423.62
     65.1700	 1348.00	 1369.27	-1909.75	  423.60
     65.2700	 1290.00	 1342.21	-1940.69	  423.58
     65.3700	 1273.00	 1278.92	-1894.40	  423.56
     65.4700	 1139.00	 1192.78	-1942.26	  423.54
     65.5700	 1039.00	 1098.09	-1947.57	  423.52
     65.6700	 1009.00	 1006.40	-1885.88	  423.49
     65.7700	  900.00	  924.45	-1912.94	  423.47
     65.8700	  821.00	  855.07	-1922.56	  423.45
     65.9700	  776.00	  798.70	-1911.19	  423.42
     66.0700	  704.00	  754.55	-1939.04	  423.40
     66.1700	  690.00	  721.20	-1919.68	  423.37
     66.2700	  681.00	  696.68	-1904.16	  423.34
     66.3700	  620.00	  679.13	-1947.62	  423.32
     66.4700	  653.00	  666.98	-1902.46	  423.29
     66.5700	  645.00	  658.98	-1902.46	  423.26
     66.6700	  588.00	  654.31	-1954.79	  423.23
     66.7700	  603.00	  652.45	-1937.94	  423.21
     66.8700	  642.00	  653.26	-1899.74	  423.18
     66.9700	  658.00	  656.70	-1887.18	  423.15
     67.0700	  683.00	  663.09	-1868.57	  423.12
     67.1700	  680.00	  673.54	-1882.02	  423.08
     67.2700	  705.00	  689.84	-1873.32	  423.05
     67.3700	  707.00	  714.91	-1896.40	  423.02
     67.4700	  688.00	  753.00	-1953.49	  422.99
     67.5700	  795.00	  809.75	-1903.23	  422.95
     67.6700	  905.00	  891.81	-1875.29	  422.92
     67.7700	  949.00	 1005.92	-1945.41	  422.88
     67.8700	 1114.00	 1157.41	-1931.89	  422.85
     67.9700	 1390.00	 1347.96	-1846.45	  422.81
     68.0700	 1652.00	 1573.78	-1810.26	  422.78
     68.1700	 1805.00	 1823.38	-1906.86	  422.74
     68.2700	 2038.00	 2075.86	-1926.34	  422.70
     68.3700	 2340.00	 2300.08	-1848.57	  422.66
     68.4700	 2477.00	 2457.25	-1868.73	  422.62
     68.5700	 2462.00	 2511.76	-1938.24	  422.59
     68.6700	 2288.00	 2449.23	-2049.71	  422.55
     68.7700	 2268.00	 2285.94	-1906.43	  422.50
     68.8700	 2036.00	 2058.28	-1910.76	  422.46
     68.9700	 1829.00	 1804.94	-1864.42	  422.42
     69.0700	 1450.00	 1556.24	-1994.73	  422.38
     69.1700	 1274.00	 1332.36	-1946.85	  422.34
     69.2700	 1153.00	 1144.25	-1879.74	  422.29
     69.3700	  999.00	  995.30	-1884.78	  422.25
     69.4700	  947.00	  883.39	-1824.87	  422.20
     69.5700	  837.00	  803.04	-1854.52	  422.16
     69.6700	  839.00	  747.43	-1796.91	  422.11
     69.7700	  783.00	  709.94	-1815.42	  422.06
     69.8700	  757.00	  684.98	-1816.46	  422.02
     69.9700	  665.00	  668.34	-1891.82	  421.97
     70.0700	  716.00	  657.06	-1829.55	  421.92
     70.1700	  673.00	  649.29	-1864.77	  421.87
     70.2700	  698.00	  643.87	-1834.36	  421.82
     70.3700	  703.00	  640.17	-1825.65	  421.77
     70.4700	  642.00	  637.82	-1884.30	  421.72
     70.5700	  672.00	  636.67	-1853.15	  421.67
     70.6700	  644.00	  636.69	-1881.18	  421.61
     70.7700	  616.00	  638.00	-1910.48	  421.56
     70.8700	  680.00	  640.66	-1849.14	  421.51
     70.9700	  675.00	  645.58	-1859.07	  421.45
     71.0700	  710.00	  653.43	-1831.91	  421.40
     71.1700	  705.00	  665.58	-1849.06	  421.34
     71.2700	  754.00	  684.02	-1818.50	  421.28
     71.3700	  692.00	  711.52	-1908.00	  421.23
     71.4700	  776.00	  751.56	-1864.04	  421.17
     71.5700	  786.00	  808.14	-1910.62	  421.11
     71.6700	  876.00	  885.22	-1897.70	  421.05
     71.7700	 1011.00	  985.91	-1863.39	  420.99
     71.8700	 1112.00	 1111.46	-1887.94	  420.93
     71.9700	 1260.00	 1260.09	-1888.58	  420.87
     72.0700	 1481.00	 1426.08	-1833.56	  420.81
     72.1700	 1533.00	 1598.79	-1954.27	  420.74
     72.2700	 1779.00	 1762.02	-1871.51	  420.68
     72.3700	 1915.00	 1895.16	-1868.64	  420.62
     72.4700	 1956.00	 1973.43	-1905.92	  420.55
     72.5700	 1974.00	 1980.75	-1895.23	  420.49
     72.6700	 1901.00	 1915.32	-1902.80	  420.42
     72.7700	 1727.00	 1791.56	-1953.04	  420.36
     72.8700	 1667.00	 1632.18	-1853.67	  420.29
     72.9700	 1460.00	 1459.39	-1887.87	  420.22
     73.0700	 1262.00	 1290.42	-1916.90	  420.15
     73.1700	 1180.00	 1136.91	-1845.40	  420.08
     73.2700	  997.00	 1005.50	-1896.98	  420.01
     73.3700	  887.00	  898.60	-1900.09	  419.94
     73.4700	  779.00	  815.51	-1925.00	  419.87
     73.5700	  788.00	  753.43	-1853.91	  419.80
     73.6700	  680.00	  708.56	-1917.04	  419.73
     73.7700	  710.00	  676.95	-1855.43	  419.65
     73.8700	  651.00	  655.07	-1892.55	  419.58
     73.9700	  659.00	  640.06	-1869.54	  419.51
     74.0700	  607.00	  629.29	-1910.78	  419.43
     74.1700	  635.00	  622.41	-1875.89	  419.36
     74.2700	  613.00	  617.95	-1893.43	  419.28
     74.3700	  630.00	  615.32	-1873.80	  419.20
     74.4700	  605.00	  614.15	-1897.63	  419.12
     74.5700	  640.00	  614.14	-1862.62	  419.05
     74.6700	  686.00	  615.01	-1817.50	  418.97
     74.7700	  608.00	  616.47	-1896.95	  418.89
     74.8700	  647.00	  618.12	-1859.60	  418.81
     74.9700	  630.00	  619.52	-1878.00	  418.72
     75.0700	  693.00	  620.19	-1815.68	  418.64
     75.1700	  682.00	  619.80	-1826.28	  418.56
     75.2700	  726.00	  618.21	-1780.69	  418.48
     75.3700	  654.00	  615.86	-1850.34	  418.39
     75.4700	  665.00	  613.21	-1836.70	  418.31
     75.5700	  706.00	  610.94	-1793.42	  418.22
     75.6700	  666.00	  609.70	-1832.18	  418.14
     75.7700	  667.00	  610.20	-1831.69	  418.05
     75.8700	  637.00	  613.18	-1864.66	  417.96
     75.9700	  626.00	  619.40	-1881.89	  417.88
     76.0700	  658.00	  629.57	-1860.05	  417.79
     76.1700	  657.00	  644.55	-1876.03	  417.70
     76.2700	  673.00	  664.79	-1880.27	  417.61
     76.3700	  660.00	  690.48	-1918.96	  417.52
     76.4700	  728.00	  721.31	-1881.80	  417.43
     76.5700	  701.00	  756.31	-1943.79	  417.33
     76.6700	  743.00	  793.70	-1939.18	  417.24
     76.7700	  842.00	  830.79	-1877.28	  417.15
     76.8700	  824.00	  863.97	-1928.45	  417.05
     76.9700	  897.00	  888.87	-1880.35	  416.96
     77.0700	  903.00	  901.33	-1886.81	  416.87
     77.1700	  882.00	  898.86	-1905.34	  416.77
     77.2700	  872.00	  881.88	-1898.36	  416.67
     77.3700	  806.00	  853.45	-1935.94	  416.58
     77.4700	  769.00	  817.92	-1937.40	  416.48
     77.5700	  750.00	  779.45	-1917.94	  416.38
     77.6700	  781.00	  741.42	-1848.90	  416.28
     77.7700	  708.00	  706.18	-1886.67	  416.18
     77.8700	  666.00	  675.03	-1897.51	  416.08
     77.9700	  638.00	  649.06	-1899.54	  415.98
     78.0700	  674.00	  628.17	-1842.65	  415.88
     78.1700	  576.00	  611.97	-1924.46	  415.77
     78.2700	  624.00	  599.83	-1864.31	  415.67
     78.3700	  593.00	  590.97	-1886.45	  415.57
     78.4700	  602.00	  584.65	-1871.13	  415.46
     78.5700	  577.00	  580.20	-1891.69	  415.36
     78.6700	  573.00	  577.05	-1892.53	  415.25
     78.7700	  587.00	  574.90	-1876.39	  415.15
     78.8700	  576.00	  573.43	-1885.91	  415.04
     78.9700	  600.00	  572.43	-1860.91	  414.93
     79.0700	  575.00	  571.81	-1885.29	  414.83
     79.1700	  529.00	  571.49	-1930.98	  414.72
     79.2700	  560.00	  571.47	-1899.95	  414.61
     79.3700	  568.00	  571.73	-1892.21	  414.50
     79.4700	  535.00	  572.30	-1925.78	  414.39
     79.5700	  610.00	  573.22	-1851.70	  414.28
     79.6700	  563.00	  574.55	-1900.04	  414.16
     79.7700	  565.00	  576.40	-1899.89	  414.05
     79.8700	  582.00	  578.91	-1885.40	  413.94
     79.9700	  589.00	  582.31	-1881.79	  413.82
     80.0700	  606.00	  586.92	-1869.40	  413.71
     80.1700	  565.00	  593.22	-1916.70	  413.60
     80.2700	  611.00	  601.84	-1879.33	  413.48
     80.3700	  626.00	  613.64	-1876.12	  413.36
     80.4700	  622.00	  629.60	-1896.09	  413.25
     80.5700	  670.00	  650.65	-1869.13	  413.13
     80.6700	  693.00	  678.36	-1873.84	  413.01
     80.7700	  727.00	  713.49	-1874.97	  412.89
     80.8700	  813.00	  756.64	-1832.12	  412.77
     80.9700	  803.00	  807.71	-1893.19	  412.66
     81.0700	  862.00	  865.65	-1892.14	  412.53
     81.1700	  948.00	  928.26	-1868.74	  412.41
     81.2700	 1010.00	  992.02	-1870.50	  412.29
     81.3700	 1057.00	 1052.32	-1883.80	  412.17
     81.4700	 1113.00	 1103.95	-1879.43	  412.05
     81.5700	 1128.00	 1142.21	-1902.70	  411.93
     81.6700	 1185.00	 1164.05	-1867.53	  411.80
     81.7700	 1121.00	 1168.44	-1935.93	  411.68
     81.8700	 1094.00	 1156.17	-1950.66	  411.55
     81.9700	 1087.00	 1129.41	-1930.89	  411.43
     82.0700	 1077.00	 1091.39	-1902.87	  411.30
     82.1700	 1061.00	 1045.82	-1873.30	  411.18
     82.2700	  952.00	  996.26	-1932.74	  411.05
     82.3700	  899.00	  945.73	-1935.21	  410.92
     82.4700	  880.00	  896.74	-1905.22	  410.79
     82.5700	  897.00	  851.15	-1842.63	  410.66
     82.6700	  786.00	  810.06	-1912.54	  410.54
     82.7700	  727.00	  773.77	-1935.26	  410.41
     82.8700	  730.00	  741.97	-1900.45	  410.28
     82.9700	  654.00	  714.08	-1948.57	  410.14
     83.0700	  697.00	  689.64	-1881.13	  410.01
     83.1700	  673.00	  668.39	-1883.87	  409.88
     83.2700	  609.00	  650.25	-1929.73	  409.75
     83.3700	  638.00	  635.20	-1885.69	  409.62
     83.4700	  606.00	  623.26	-1905.74	  409.48
     83.5700	  648.00	  614.38	-1854.87	  409.35
     83.6700	  559.00	  608.49	-1937.98	  409.22
     83.7700	  619.00	  605.43	-1874.91	  409.08
     83.8700	  562.00	  604.93	-1931.42	  408.95
     83.9700	  594.00	  606.64	-1901.12	  408.81
     84.0700	  565.00	  610.06	-1933.55	  408.67
     84.1700	  611.00	  614.60	-1892.08	  408.54
     84.2700	  628.00	  619.53	-1880.01	  408.40
     84.3700	  617.00	  623.98	-1895.46	  408.26
     84.4700	  617.00	  627.30	-1898.78	  408.12
     84.5700	  629.00	  628.59	-1888.07	  407.99
     84.6700	  603.00	  627.58	-1913.06	  407.85
     84.7700	  581.00	  624.17	-1931.65	  407.71
     84.8700	  612.00	  618.73	-1895.21	  407.57
     84.9700	  596.00	  611.90	-1904.38	  407.43
     85.0700	  602.00	  604.36	-1890.84	  407.29
     85.1700	  602.00	  596.72	-1883.20	  407.15
     85.2700	  621.00	  589.50	-1856.99	  407.00
     85.3700	  629.00	  583.09	-1842.58	  406.86
     85.4700	  556.00	  577.76	-1910.24	  406.72
     85.5700	  593.00	  573.68	-1869.16	  406.58
     85.6700	  599.00	  570.94	-1860.43	  406.43
     85.7700	  589.00	  569.58	-1869.06	  406.29
     85.8700	  581.00	  569.59	-1877.07	  406.15
     85.9700	  575.00	  570.94	-1884.42	  406.00
     86.0700	  533.00	  573.60	-1929.08	  405.86
     86.1700	  598.00	  577.52	-1868.00	  405.71
     86.2700	  586.00	  582.63	-1885.11	  405.57
     86.3700	  670.00	  588.83	-1807.31	  405.42
     86.4700	  554.00	  595.99	-1930.47	  405.27
     86.5700	  583.00	  603.92	-1909.40	  405.13
     86.6700	  609.00	  612.39	-1891.87	  404.98
     86.7700	  590.00	  621.10	-1919.58	  404.83
     86.8700	  594.00	  629.77	-1924.26	  404.68
     86.9700	  605.00	  638.14	-1921.62	  404.54
     87.0700	  626.00	  646.08	-1908.57	  404.39
     87.1700	  655.00	  653.69	-1887.17	  404.24
     87.2700	  643.00	  661.20	-1906.68	  404.09
     87.3700	  659.00	  668.90	-1898.38	  403.94
     87.4700	  667.00	  676.95	-1898.43	  403.79
     87.5700	  639.00	  685.29	-1934.77	  403.64
     87.6700	  755.00	  693.60	-1827.08	  403.49
     87.7700	  691.00	  701.29	-1898.77	  403.34
     87.8700	  685.00	  707.53	-1911.01	  403.19
     87.9700	  726.00	  711.35	-1873.83	  403.04
     88.0700	  663.00	  711.91	-1937.39	  402.89
     88.1700	  730.00	  708.74	-1867.22	  402.74
     88.2700	  673.00	  701.92	-1917.40	  402.58
     88.3700	  661.00	  692.05	-1919.54	  402.43
     88.4700	  630.00	  680.04	-1938.53	  402.28
     88.5700	  688.00	  666.89	-1867.37	  402.13
     88.6700	  640.00	  653.53	-1902.02	  401.97
     88.7700	  671.00	  640.79	-1858.27	  401.82
     88.8700	  669.00	  628.88	-1848.36	  401.67
     88.9700	  610.00	  619.18	-1897.67	  401.51
     89.0700	  646.00	  611.56	-1854.05	  401.36
     89.1700	  642.00	  606.16	-1852.64	  401.21
     89.2700	  595.00	  602.93	-1896.42	  401.05
     89.3700	  635.00	  601.70	-1855.18	  400.90
     89.4700	  630.00	  602.15	-1860.63	  400.74
     89.5700	  622.00	  603.85	-1870.33	  400.59
     89.6700	  629.00	  606.29	-1865.78	  400.43
     89.7700	  629.00	  608.92	-1868.41	  400.28
     89.8700	  677.00	  611.14	-1822.62	  400.12
     89.9700	  664.00	  612.39	-1836.87	  399.97
     90.0700	  626.00	  612.25	-1874.73	  399.81
     90.1700	  675.00	  610.53	-1824.01	  399.65
     90.2700	  633.00	  607.28	-1862.77	  399.50
     90.3700	  607.00	  602.80	-1884.28	  399.34
     90.4700	  612.00	  597.47	-1873.95	  399.19
     90.5700	  630.00	  591.69	-1850.17	  399.03
     90.6700	  563.00	  585.82	-1911.31	  398.87
     90.7700	  619.00	  580.19	-1849.67	  398.72
     90.8700	  597.00	  574.99	-1866.48	  398.56
     90.9700	  580.00	  570.41	-1878.89	  398.40
     91.0700	  571.00	  566.52	-1884.00	  398.25
     91.1700	  573.00	  563.36	-1878.85	  398.09
     91.2700	  540.00	  560.93	-1909.41	  397.93
     91.3700	  591.00	  559.17	-1856.65	  397.78
     91.4700	  548.00	  558.04	-1898.53	  397.62
     91.5700	  534.00	  557.49	-1911.97	  397.46
     91.6700	  488.00	  557.48	-1957.96	  397.31
     91.7700	  561.00	  557.99	-1885.47	  397.15
     91.8700	  562.00	  559.04	-1885.53	  396.99
     91.9700	  560.00	  560.70	-1889.19	  396.84
     92.0700	  540.00	  563.07	-1911.55	  396.68
     92.1700	  553.00	  566.28	-1901.76	  396.52
     92.2700	  593.00	  570.51	-1866.00	  396.36
     92.3700	  562.00	  575.98	-1902.47	  396.21
     92.4700	  564.00	  582.91	-1907.40	  396.05
     92.5700	  592.00	  591.53	-1888.02	  395.89
     92.6700	  613.00	  602.05	-1877.53	  395.74
     92.7700	  628.00	  614.61	-1875.09	  395.58
     92.8700	  632.00	  629.31	-1885.79	  395.42
     92.9700	  636.00	  646.12	-1898.60	  395.27
     93.0700	  642.00	  664.92	-1911.40	  395.11
     93.1700	  718.00	  685.42	-1855.90	  394.95
     93.2700	  700.00	  707.19	-1895.67	  394.80
     93.3700	  635.00	  729.63	-1983.11	  394.64
     93.4700	  740.00	  751.99	-1900.47	  394.49
     93.5700	  704.00	  773.41	-1957.89	  394.33
     93.6700	  756.00	  793.05	-1925.53	  394.17
     93.7700	  764.00	  810.28	-1934.77	  394.02
     93.8700	  789.00	  824.87	-1924.36	  393.86
     93.9700	  793.00	  837.04	-1932.52	  393.71
     94.0700	  826.00	  847.34	-1909.83	  393.55
     94.1700	  837.00	  856.50	-1907.98	  393.40
     94.2700	  850.00	  865.14	-1903.63	  393.24
     94.3700	  871.00	  873.45	-1890.93	  393.09
     94.4700	  845.00	  882.36	-1925.84	  392.93
     94.5700	  945.00	  891.80	-1835.29	  392.78
     94.6700	  908.00	  902.03	-1882.51	  392.63
     94.7700	  920.00	  913.30	-1881.78	  392.47
     94.8700	  921.00	  925.79	-1893.27	  392.32
     94.9700	  959.00	  939.38	-1868.87	  392.16
     95.0700	  900.00	  953.58	-1942.06	  392.01
     95.1700	  948.00	  967.39	-1907.87	  391.86
     95.2700	  999.00	  979.44	-1868.92	  391.71
     95.3700	  960.00	  988.04	-1916.52	  391.56
     95.4700	 1013.00	  991.47	-1866.95	  391.40
     95.5700	 1014.00	  988.35	-1862.83	  391.25
     95.6700	  965.00	  977.99	-1901.47	  391.10
     95.7700	  945.00	  960.65	-1904.13	  390.95
     95.8700	  903.00	  937.46	-1922.94	  390.80
     95.9700	  893.00	  910.16	-1905.64	  390.65
     96.0700	  896.00	  880.80	-1873.28	  390.50
     96.1700	  873.00	  851.48	-1866.96	  390.35
     96.2700	  843.00	  824.19	-1869.68	  390.20
     96.3700	  762.00	  800.78	-1927.26	  390.05
     96.4700	  767.00	  782.87	-1904.35	  389.91
     96.5700	  814.00	  771.85	-1846.34	  389.76
     96.6700	  834.00	  768.90	-1823.38	  389.61
     96.7700	  777.00	  774.92	-1886.40	  389.46
     96.8700	  808.00	  790.62	-1871.10	  389.32
     96.9700	  827.00	  816.43	-1877.91	  389.17
     97.0700	  986.00	  852.53	-1755.02	  389.03
     97.1700	  913.00	  898.79	-1874.28	  388.88
     97.2700	  996.00	  954.72	-1847.21	  388.74
     97.3700	  978.00	 1019.41	-1929.89	  388.59
     97.4700	 1128.00	 1091.42	-1851.90	  388.45
     97.5700	 1110.00	 1168.78	-1947.26	  388.31
     97.6700	 1264.00	 1248.89	-1873.38	  388.16
     97.7700	 1312.00	 1328.58	-1905.06	  388.02
     97.8700	 1388.00	 1404.05	-1904.54	  387.88
     97.9700	 1552.00	 1471.04	-1807.52	  387.74
     98.0700	 1516.00	 1525.11	-1897.59	  387.60
     98.1700	 1643.00	 1562.22	-1807.71	  387.46
     98.2700	 1557.00	 1579.48	-1910.97	  387.32
     98.3700	 1589.00	 1575.74	-1875.22	  387.18
     98.4700	 1558.00	 1551.88	-1882.36	  387.05
     98.5700	 1479.00	 1510.54	-1920.02	  386.91
     98.6700	 1378.00	 1455.47	-1965.95	  386.77
     98.7700	 1364.00	 1390.87	-1915.35	  386.64
     98.8700	 1330.00	 1320.91	-1879.39	  386.50
     98.9700	 1266.00	 1249.47	-1871.96	  386.37
     99.0700	 1176.00	 1180.00	-1892.48	  386.24
     99.1700	 1141.00	 1115.46	-1862.94	  386.10
     99.2700	 1063.00	 1058.31	-1883.79	  385.97
     99.3700	 1013.00	 1010.58	-1886.07	  385.84
     99.4700	  966.00	  973.92	-1896.40	  385.71
     99.5700	  948.00	  949.58	-1890.06	  385.58
     99.6700	 1018.00	  938.48	-1808.96	  385.45
     99.7700	  970.00	  941.22	-1859.71	  385.32
     99.8700	 1028.00	  958.11	-1818.59	  385.19
     99.9700	  983.00	  989.16	-1894.65	  385.07
    100.0700	 1066.00	 1034.09	-1856.58	  384.94
    100.1700	 1095.00	 1092.31	-1885.80	  384.82
    100.2700	 1168.00	 1162.86	-1883.34	  384.69
    100.3700	 1266.00	 1244.34	-1866.82	  384.57
    100.4700	 1277.00	 1334.91	-1946.39	  384.45
    100.5700	 1504.00	 1432.18	-1816.66	  384.32
    100.6700	 1450.00	 1533.27	-1971.75	  384.20
    100.7700	 1676.00	 1634.69	-1847.17	  384.08
    100.8700	 1710.00	 1732.80	-1911.28	  383.97
    100.9700	 1775.00	 1823.63	-1937.11	  383.85
    101.0700	 1942.00	 1903.65	-1850.13	  383.73
    101.1700	 1912.00	 1970.01	-1946.49	  383.61
    101.2700	 2040.00	 2020.72	-1869.20	  383.50
    101.3700	 2022.00	 2054.58	-1921.07	  383.39
    101.4700	 2055.00	 2070.96	-1904.44	  383.27
    101.5700	 2132.00	 2069.54	-1826.03	  383.16
    101.6700	 1899.00	 2050.41	-2039.89	  383.05
    101.7700	 2014.00	 2014.26	-1888.75	  382.94
    101.8700	 1965.00	 1962.83	-1886.31	  382.83
    101.9700	 2034.00	 1898.94	-1753.42	  382.72
    102.0700	 1882.00	 1826.29	-1832.77	  382.62
    102.1700	 1702.00	 1748.98	-1935.46	  382.51
    102.2700	 1709.00	 1671.02	-1850.50	  382.41
    102.3700	 1615.00	 1595.86	-1869.35	  382.30
    102.4700	 1563.00	 1526.20	-1851.68	  382.20
    102.5700	 1528.00	 1463.83	-1824.31	  382.10
    102.6700	 1407.00	 1409.71	-1891.19	  382.00
    102.7700	 1362.00	 1364.05	-1890.54	  381.90
    102.8700	 1423.00	 1326.33	-1791.81	  381.80
    102.9700	 1270.00	 1295.39	-1913.88	  381.71
    103.0700	 1225.00	 1269.56	-1933.05	  381.61
    103.1700	 1251.00	 1246.80	-1884.28	  381.52
    103.2700	 1164.00	 1224.90	-1949.38	  381.42
    103.3700	 1188.00	 1201.79	-1902.27	  381.33
    103.4700	 1084.00	 1175.81	-1980.29	  381.24
    103.5700	 1151.00	 1145.93	-1883.41	  381.15
    103.6700	 1091.00	 1111.90	-1909.38	  381.07
    103.7700	 1098.00	 1074.10	-1864.59	  380.98
    103.8700	 1025.00	 1033.40	-1896.88	  380.90
    103.9700	  957.00	  990.86	-1922.34	  380.81
    104.0700	  940.00	  947.63	-1896.11	  380.73
    104.1700	  909.00	  904.76	-1884.24	  380.65
    104.2700	  894.00	  863.20	-1857.68	  380.57
    104.3700	  840.00	  823.74	-1872.22	  380.49
    104.4700	  833.00	  787.00	-1842.48	  380.41
    104.5700	  791.00	  753.43	-1850.91	  380.34
    104.6700	  708.00	  723.31	-1903.79	  380.27
    104.7700	  725.00	  696.76	-1860.24	  380.19
    104.8700	  653.00	  673.75	-1909.23	  380.12
    104.9700	  700.00	  654.16	-1842.64	  380.05
    105.0700	  622.00	  637.76	-1904.24	  379.99
    105.1700	  693.00	  624.21	-1819.69	  379.92
    105.2700	  618.00	  613.29	-1883.78	  379.86
    105.3700	  642.00	  604.65	-1851.13	  379.79
    105.4700	  618.00	  597.97	-1868.45	  379.73
    105.5700	  619.00	  592.97	-1862.46	  379.67
    105.6700	  597.00	  589.42	-1880.91	  379.61
    105.7700	  623.00	  587.13	-1852.61	  379.56
    105.8700	  588.00	  585.95	-1886.43	  379.50
    105.9700	  587.00	  585.74	-1887.22	  379.45
    106.0700	  639.00	  586.52	-1836.01	  379.40
    106.1700	  576.00	  588.25	-1900.73	  379.35
    106.2700	  572.00	  590.92	-1907.41	  379.30
    106.3700	  643.00	  594.60	-1840.08	  379.25
    106.4700	  586.00	  599.32	-1901.80	  379.21
    106.5700	  588.00	  605.16	-1905.64	  379.16
    106.6700	  609.00	  612.18	-1891.67	  379.12
    106.7700	  637.00	  620.44	-1871.93	  379.08
    106.8700	  644.00	  629.95	-1874.44	  379.05
    106.9700	  662.00	  640.69	-1867.18	  379.01
    107.0700	  644.00	  652.59	-1897.07	  378.98
    107.1700	  650.00	  665.51	-1903.99	  378.94
    107.2700	  685.00	  679.25	-1882.73	  378.91
    107.3700	  675.00	  693.55	-1907.03	  378.88
    107.4700	  637.00	  708.09	-1959.57	  378.86
    107.5700	  655.00	  722.48	-1955.96	  378.83
    107.6700	  730.00	  736.27	-1894.75	  378.81
    107.7700	  719.00	  749.03	-1918.51	  378.79
    107.8700	  699.00	  760.26	-1949.75	  378.77
    107.9700	  728.00	  769.57	-1930.06	  378.76
    108.0700	  809.00	  776.65	-1856.13	  378.74
    108.1700	  738.00	  781.34	-1931.82	  378.73
    108.2700	  778.00	  783.76	-1894.25	  378.72
    108.3700	  768.00	  784.17	-1904.65	  378.71
    108.4700	  776.00	  782.96	-1895.45	  378.70
    108.5700	  733.00	  780.65	-1936.14	  378.70
    108.6700	  750.00	  777.75	-1916.23	  378.70
    108.7700	  771.00	  774.70	-1892.18	  378.70
    108.8700	  771.00	  771.90	-1889.38	  378.70
    108.9700	  700.00	  769.62	-1958.10	  378.70
    109.0700	  765.00	  768.03	-1891.51	  378.71
    109.1700	  757.00	  767.16	-1898.65	  378.72
    109.2700	  715.00	  766.95	-1940.43	  378.73
    109.3700	  725.00	  767.20	-1930.68	  378.74
    109.4700	  737.00	  767.61	-1919.10	  378.76
    109.5700	  756.00	  767.81	-1900.30	  378.77
    109.6700	  753.00	  767.38	-1902.86	  378.79
    109.7700	  750.00	  765.89	-1904.37	  378.82
    109.8700	  710.00	  762.99	-1941.47	  378.84
    109.9700	  688.00	  758.44	-1958.93	  378.87
    110.0700	  730.00	  752.16	-1910.65	  378.90
    110.1700	  720.00	  744.22	-1912.70	  378.93
    110.2700	  716.00	  734.80	-1907.28	  378.96
    110.3700	  723.00	  724.21	-1889.70	  379.00
    110.4700	  684.00	  712.80	-1917.28	  379.04
    110.5700	  718.00	  700.89	-1871.37	  379.08
    110.6700	  670.00	  688.82	-1907.30	  379.12
    110.7700	  673.00	  676.88	-1892.37	  379.17
    110.8700	  687.00	  665.34	-1866.83	  379.22
    110.9700	  654.00	  654.42	-1888.90	  379.27
    111.0700	  637.00	  644.28	-1895.76	  379.32
    111.1700	  671.00	  635.06	-1852.54	  379.38
    111.2700	  618.00	  626.86	-1897.34	  379.44
    111.3700	  642.00	  619.72	-1866.20	  379.50
    111.4700	  636.00	  613.66	-1866.15	  379.56
    111.5700	  597.00	  608.68	-1900.16	  379.63
    111.6700	  598.00	  604.72	-1895.20	  379.70
    111.7700	  590.00	  601.72	-1900.20	  379.77
    111.8700	  578.00	  599.61	-1910.10	  379.85
    111.9700	  583.00	  598.30	-1903.79	  379.93
    112.0700	  591.00	  597.70	-1895.18	  380.01
    112.1700	  594.00	  597.70	-1892.18	  380.09
    112.2700	  576.00	  598.21	-1910.70	  380.18
    112.3700	  596.00	  599.15	-1891.63	  380.27
    112.4700	  604.00	  600.42	-1884.90	  380.36
    112.5700	  558.00	  601.95	-1932.44	  380.45
    112.6700	  577.00	  603.68	-1915.17	  380.55
    112.7700	  592.00	  605.56	-1902.04	  380.65
    112.8700	  568.00	  607.56	-1928.04	  380.75
    112.9700	  615.00	  609.65	-1883.13	  380.86
    113.0700	  599.00	  611.85	-1901.33	  380.97
    113.1700	  619.00	  614.17	-1883.65	  381.08
    113.2700	  572.00	  616.65	-1933.13	  381.20
    113.3700	  593.00	  619.34	-1914.82	  381.31
    113.4700	  667.00	  622.29	-1843.77	  381.43
    113.5700	  568.00	  625.57	-1946.05	  381.56
    113.6700	  604.00	  629.28	-1913.76	  381.69
    113.7700	  628.00	  633.52	-1894.00	  381.82
    113.8700	  643.00	  638.40	-1883.89	  381.95
    113.9700	  583.00	  644.13	-1949.61	  382.09
    114.0700	  667.00	  650.89	-1872.37	  382.23
    114.1700	  643.00	  658.96	-1904.44	  382.37
    114.2700	  653.00	  668.68	-1904.16	  382.52
    114.3700	  699.00	  680.50	-1869.98	  382.67
    114.4700	  711.00	  694.96	-1872.44	  382.82
    114.5700	  738.00	  712.76	-1863.25	  382.97
    114.6700	  769.00	  734.78	-1854.26	  383.13
    114.7700	  795.00	  762.05	-1855.54	  383.30
    114.8700	  789.00	  795.85	-1895.33	  383.46
    114.9700	  889.00	  837.65	-1837.14	  383.63
    115.0700	  944.00	  889.21	-1833.69	  383.80
    115.1700	  920.00	  952.49	-1920.98	  383.98
    115.2700	 1047.00	 1029.71	-1871.19	  384.16
    115.3700	 1214.00	 1123.23	-1797.72	  384.34
    115.4700	 1303.00	 1235.58	-1821.06	  384.53
    115.5700	 1471.00	 1369.34	-1786.82	  384.72
    115.6700	 1717.00	 1527.05	-1698.54	  384.91
    115.7700	 1774.00	 1711.07	-1825.55	  385.11
    115.8700	 2037.00	 1923.41	-1774.89	  385.31
    115.9700	 2334.00	 2165.57	-1720.05	  385.51
    116.0700	 2761.00	 2438.45	-1565.93	  385.72
    116.1700	 2950.00	 2742.14	-1680.62	  385.93
    116.2700	 3294.00	 3075.64	-1670.12	  386.15
    116.3700	 3593.00	 3436.84	-1732.32	  386.37
    116.4700	 3896.00	 3822.33	-1814.82	  386.59
    116.5700	 4347.00	 4227.52	-1769.01	  386.82
    116.6700	 4654.00	 4646.43	-1880.92	  387.05
    116.7700	 5130.00	 5071.75	-1830.24	  387.28
    116.8700	 5378.00	 5494.89	-2005.37	  387.52
    116.9700	 5805.00	 5906.10	-1989.59	  387.76
    117.0700	 6004.00	 6294.88	-2179.36	  388.00
    117.1700	 6418.00	 6650.05	-2120.53	  388.25
    117.2700	 6827.00	 6960.17	-2021.65	  388.50
    117.3700	 6910.00	 7214.26	-2192.74	  388.76
    117.4700	 7396.00	 7402.53	-1895.01	  389.02
    117.5700	 7357.00	 7517.34	-2048.82	  389.29
    117.6700	 7466.00	 7553.93	-1976.41	  389.55
    117.7700	 7184.00	 7511.02	-2215.50	  389.83
    117.8700	 7052.00	 7391.00	-2227.48	  390.10
    117.9700	 7191.00	 7199.65	-1897.13	  390.38
    118.0700	 6693.00	 6945.34	-2140.82	  390.67
    118.1700	 6507.00	 6638.15	-2019.63	  390.96
    118.2700	 6143.00	 6289.16	-2034.65	  391.25
    118.3700	 5811.00	 5909.61	-1987.09	  391.55
    118.4700	 5299.00	 5510.39	-2099.87	  391.85
    118.5700	 5175.00	 5101.55	-1815.03	  392.15
    118.6700	 4860.00	 4692.13	-1720.61	  392.46
    118.7700	 4440.00	 4290.11	-1738.59	  392.78
    118.8700	 4123.00	 3902.13	-1667.62	  393.09
    118.9700	 3643.00	 3533.57	-1779.05	  393.42
    119.0700	 3436.00	 3188.37	-1640.86	  393.74
    119.1700	 3080.00	 2869.27	-1677.75	  394.07
    119.2700	 2789.00	 2577.93	-1677.42	  394.41
    119.3700	 2521.00	 2314.99	-1682.48	  394.75
    119.4700	 2367.00	 2080.25	-1601.73	  395.09
    119.5700	 1979.00	 1872.73	-1782.21	  395.44
    119.6700	 1848.00	 1690.95	-1731.43	  395.80
    119.7700	 1707.00	 1533.08	-1714.57	  396.15
    119.8700	 1487.00	 1397.03	-1798.51	  396.51
    119.9700	 1358.00	 1280.57	-1811.05	  396.88
    120.0700	 1313.00	 1181.42	-1756.90	  397.25
    120.1700	 1191.00	 1097.37	-1794.85	  397.63
    120.2700	 1106.00	 1026.38	-1808.86	  398.01
    120.3700	 1097.00	  966.54	-1758.02	  398.39
    120.4700	  966.00	  916.17	-1838.65	  398.78
    120.5700	  929.00	  873.75	-1833.24	  399.18
    120.6700	  867.00	  838.02	-1859.50	  399.58
    120.7700	  811.00	  807.89	-1885.37	  399.98
    120.8700	  824.00	  782.45	-1846.94	  400.39
    120.9700	  746.00	  760.97	-1903.45	  400.80
    121.0700	  771.00	  742.81	-1860.30	  401.22
    121.1700	  713.00	  727.50	-1902.98	  401.64
    121.2700	  682.00	  714.62	-1921.10	  402.07
    121.3700	  737.00	  703.86	-1855.34	  402.50
    121.4700	  715.00	  694.96	-1868.44	  402.94
    121.5700	  646.00	  687.70	-1930.19	  403.38
    121.6700	  623.00	  681.93	-1947.41	  403.83
    121.7700	  677.00	  677.50	-1888.98	  404.28
    121.8700	  597.00	  674.30	-1965.78	  404.74
    121.9700	  667.00	  672.24	-1893.72	  405.20
    122.0700	  643.00	  671.24	-1916.72	  405.67
    122.1700	  672.00	  671.22	-1887.70	  406.15
    122.2700	  684.00	  672.13	-1876.61	  406.62
    122.3700	  684.00	  673.90	-1878.38	  407.11
    122.4700	  643.00	  676.47	-1921.95	  407.59
    122.5700	  649.00	  679.77	-1919.26	  408.09
    122.6700	  695.00	  683.75	-1877.24	  408.59
    122.7700	  633.00	  688.33	-1943.81	  409.09
    122.8700	  663.00	  693.43	-1918.91	  409.60
    122.9700	  730.00	  698.96	-1857.44	  410.12
    123.0700	  667.00	  704.83	-1926.31	  410.64
    123.1700	  708.00	  710.94	-1891.42	  411.16
    123.2700	  683.00	  717.18	-1922.66	  411.69
    123.3700	  720.00	  723.43	-1891.92	  412.23
    123.4700	  717.00	  729.58	-1901.06	  412.77
    123.5700	  716.00	  735.51	-1907.99	  413.32
    123.6700	  740.00	  741.09	-1889.57	  413.87
    123.7700	  784.00	  746.22	-1850.70	  414.43
    123.8700	  742.00	  750.81	-1897.29	  414.99
    123.9700	  738.00	  754.80	-1905.28	  415.56
    124.0700	  713.00	  758.14	-1933.62	  416.14
    124.1700	  764.00	  760.82	-1885.30	  416.72
    124.2700	  765.00	  762.86	-1886.35	  417.31
    124.3700	  708.00	  764.28	-1944.76	  417.90
    124.4700	  769.00	  765.18	-1884.66	  418.50
    124.5700	  754.00	  765.60	-1900.09	  419.10
    124.6700	  733.00	  765.63	-1921.11	  419.71
    124.7700	  700.00	  765.31	-1953.79	  420.33
    124.8700	  732.00	  764.72	-1921.21	  420.95
    124.9700	  750.00	  547.81	-1686.29	  421.57
    125.0700	  720.00	  548.44	-1888.48	  422.21
    125.1700	  710.00	  549.08	-1888.48	  422.85
    125.2700	  739.00	  549.72	-1888.48	  423.49
    125.3700	  710.00	  550.38	-1888.48	  424.14
    125.4700	  704.00	  551.03	-1888.48	  424.80
    125.5700	  690.00	  551.70	-1888.48	  425.46
    125.6700	  668.00	  552.36	-1888.48	  426.13
    125.7700	  720.00	  553.04	-1888.48	  426.81
    125.8700	  711.00	  553.72	-1888.48	  427.49
    125.9700	  695.00	  554.41	-1888.48	  428.18
    126.0700	  662.00	  555.10	-1888.48	  428.87
    126.1700	  672.00	  555.80	-1888.48	  429.57
    126.2700	  687.00	  556.51	-1888.48	  430.28
    126.3700	  672.00	  557.22	-1888.48	  430.99
    126.4700	  698.00	  557.94	-1888.48	  431.71
    126.5700	  650.00	  558.67	-1888.48	  432.44
    126.6700	  647.00	  559.40	-1888.48	  433.17
    126.7700	  686.00	  560.14	-1888.48	  433.91
    126.8700	  588.00	  560.88	-1888.48	  434.65
    126.9700	  649.00	  561.64	-1888.48	  435.40
    127.0700	  609.00	  562.39	-1888.48	  436.16
    127.1700	  618.00	  563.16	-1888.48	  436.93
    127.2700	  613.00	  563.93	-1888.48	  437.70
    127.3700	  654.00	  564.71	-1888.48	  438.48
    127.4700	  645.00	  565.49	-1888.48	  439.26
    127.5700	  661.00	  566.28	-1888.48	  440.05
    127.6700	  628.00	  567.08	-1888.48	  440.85
    127.7700	  578.00	  567.89	-1888.48	  441.65
    127.8700	  622.00	  568.70	-1888.48	  442.46
    127.9700	  629.00	  569.51	-1888.48	  443.28
    128.0700	  638.00	  570.34	-1888.48	  444.11
    128.1700	  631.00	  571.17	-1888.48	  444.94
    128.2700	  635.00	  572.01	-1888.48	  445.78
    128.3700	  641.00	  572.86	-1888.48	  446.62
    128.4700	  658.00	  573.71	-1888.48	  447.48
    128.5700	    0.00	  574.57	-1888.48	  448.34
    128.6700	    0.00	  575.43	-1888.48	  449.20
     12.4062	        	        	        	        	       0	(  0  0  2)	  0  1
     12.4062	        	        	        	        	    -472	(  0  0  2)	  0  1
     25.0585	        	        	        	        	       0	(  0  0  4)	  0  1
     25.0585	        	        	        	        	    -472	(  0  0  4)	  0  1
     28.5146	        	        	        	        	       0	(  1  0  0)	  0  1
     28.5146	        	        	        	        	    -472	(  1  0  0)	  0  1
     29.2158	        	        	        	        	       0	(  1  0  1)	  0  1
     29.2158	        	        	        	        	    -472	(  1  0  1)	  0  1
     31.2338	        	        	        	        	       0	(  1  0  2)	  0  1
     31.2338	        	        	        	        	    -472	(  1  0  2)	  0  1
     34.3606	        	        	        	        	       0	(  1  0  3)	  0  1
     34.3606	        	        	        	        	    -472	(  1  0  3)	  0  1
     38.0321	        	        	        	        	       0	(  0  0  6)	  0  1
     38.0321	        	        	        	        	    -472	(  0  0  6)	  0  1
     38.3615	        	        	        	        	       0	(  1  0  4)	  0  1
     38.3615	        	        	        	        	    -472	(  1  0  4)	  0  1
     43.0402	        	        	        	        	       0	(  1  0  5)	  0  1
     43.0402	        	        	        	        	    -472	(  1  0  5)	  0  1
     48.2570	        	        	        	        	       0	(  1  0  6)	  0  1
     48.2570	        	        	        	        	    -472	(  1  0  6)	  0  1
     50.5799	        	        	        	        	       0	(  1  1  0)	  0  1
     50.5799	        	        	        	        	    -472	(  1  1  0)	  0  1
     51.5374	        	        	        	        	       0	(  0  0  8)	  0  1
     51.5374	        	        	        	        	    -472	(  0  0  8)	  0  1
     52.3145	        	        	        	        	       0	(  1  1  2)	  0  1
     52.3145	        	        	        	        	    -472	(  1  1  2)	  0  1
     53.9245	        	        	        	        	       0	(  1  0  7)	  0  1
     53.9245	        	        	        	        	    -472	(  1  0  7)	  0  1
     57.2964	        	        	        	        	       0	(  1  1  4)	  0  1
     57.2964	        	        	        	        	    -472	(  1  1  4)	  0  1
     59.1326	        	        	        	        	       0	(  2  0  0)	  0  1
     59.1326	        	        	        	        	    -472	(  2  0  0)	  0  1
     59.5270	        	        	        	        	       0	(  2  0  1)	  0  1
     59.5270	        	        	        	        	    -472	(  2  0  1)	  0  1
     59.9967	        	        	        	        	       0	(  1  0  8)	  0  1
     59.9967	        	        	        	        	    -472	(  1  0  8)	  0  1
     60.7008	        	        	        	        	       0	(  2  0  2)	  0  1
     60.7008	        	        	        	        	    -472	(  2  0  2)	  0  1
     62.6281	        	        	        	        	       0	(  2  0  3)	  0  1
     62.6281	        	        	        	        	    -472	(  2  0  3)	  0  1
     65.0470	        	        	        	        	       0	(  1  1  6)	  0  1
     65.0470	        	        	        	        	    -472	(  1  1  6)	  0  1
     65.2718	        	        	        	        	       0	(  2  0  4)	  0  1
     65.2718	        	        	        	        	    -472	(  2  0  4)	  0  1
     65.8662	        	        	        	        	       0	(  0  0 10)	  0  1
     65.8662	        	        	        	        	    -472	(  0  0 10)	  0  1
     66.4602	        	        	        	        	       0	(  1  0  9)	  0  1
     66.4602	        	        	        	        	    -472	(  1  0  9)	  0  1
     68.5915	        	        	        	        	       0	(  2  0  5)	  0  1
     68.5915	        	        	        	        	    -472	(  2  0  5)	  0  1
     72.5506	        	        	        	        	       0	(  2  0  6)	  0  1
     72.5506	        	        	        	        	    -472	(  2  0  6)	  0  1
     73.3303	        	        	        	        	       0	(  1  0 10)	  0  1
     73.3303	        	        	        	        	    -472	(  1  0 10)	  0  1
     75.1650	        	        	        	        	       0	(  1  1  8)	  0  1
     75.1650	        	        	        	        	    -472	(  1  1  8)	  0  1
     77.1232	        	        	        	        	       0	(  2  0  7)	  0  1
     77.1232	        	        	        	        	    -472	(  2  0  7)	  0  1
     80.6509	        	        	        	        	       0	(  1  0 11)	  0  1
     80.6509	        	        	        	        	    -472	(  1  0 11)	  0  1
     81.4752	        	        	        	        	       0	(  0  0 12)	  0  1
     81.4752	        	        	        	        	    -472	(  0  0 12)	  0  1
     81.5469	        	        	        	        	       0	(  2  1  0)	  0  1
     81.5469	        	        	        	        	    -472	(  2  1  0)	  0  1
     81.8900	        	        	        	        	       0	(  2  1  1)	  0  1
     81.8900	        	        	        	        	    -472	(  2  1  1)	  0  1
     82.2999	        	        	        	        	       0	(  2  0  8)	  0  1
     82.2999	        	        	        	        	    -472	(  2  0  8)	  0  1
     82.9175	        	        	        	        	       0	(  2  1  2)	  0  1
     82.9175	        	        	        	        	    -472	(  2  1  2)	  0  1
     84.6251	        	        	        	        	       0	(  2  1  3)	  0  1
     84.6251	        	        	        	        	    -472	(  2  1  3)	  0  1
     87.0082	        	        	        	        	       0	(  2  1  4)	  0  1
     87.0082	        	        	        	        	    -472	(  2  1  4)	  0  1
     87.5503	        	        	        	        	       0	(  1  1 10)	  0  1
     87.5503	        	        	        	        	    -472	(  1  1 10)	  0  1
     88.0944	        	        	        	        	       0	(  2  0  9)	  0  1
     88.0944	        	        	        	        	    -472	(  2  0  9)	  0  1
     88.5007	        	        	        	        	       0	(  1  0 12)	  0  1
     88.5007	        	        	        	        	    -472	(  1  0 12)	  0  1
     90.0654	        	        	        	        	       0	(  2  1  5)	  0  1
     90.0654	        	        	        	        	    -472	(  2  1  5)	  0  1
     93.8034	        	        	        	        	       0	(  2  1  6)	  0  1
     93.8034	        	        	        	        	    -472	(  2  1  6)	  0  1
     94.5512	        	        	        	        	       0	(  2  0 10)	  0  1
     94.5512	        	        	        	        	    -472	(  2  0 10)	  0  1
     95.5762	        	        	        	        	       0	(  3  0  0)	  0  1
     95.5762	        	        	        	        	    -472	(  3  0  0)	  0  1
     95.9176	        	        	        	        	       0	(  3  0  1)	  0  1
     95.9176	        	        	        	        	    -472	(  3  0  1)	  0  1
     96.9429	        	        	        	        	       0	(  3  0  2)	  0  1
     96.9429	        	        	        	        	    -472	(  3  0  2)	  0  1
     97.0078	        	        	        	        	       0	(  1  0 13)	  0  1
     97.0078	        	        	        	        	    -472	(  1  0 13)	  0  1
     98.2440	        	        	        	        	       0	(  2  1  7)	  0  1
     98.2440	        	        	        	        	    -472	(  2  1  7)	  0  1
     98.6569	        	        	        	        	       0	(  3  0  3)	  0  1
     98.6569	        	        	        	        	    -472	(  3  0  3)	  0  1
     99.2030	        	        	        	        	       0	(  0  0 14)	  0  1
     99.2030	        	        	        	        	    -472	(  0  0 14)	  0  1
    101.0703	        	        	        	        	       0	(  3  0  4)	  0  1
    101.0703	        	        	        	        	    -472	(  3  0  4)	  0  1
    101.7611	        	        	        	        	       0	(  2  0 11)	  0  1
    101.7611	        	        	        	        	    -472	(  2  0 11)	  0  1
    102.5947	        	        	        	        	       0	(  1  1 12)	  0  1
    102.5947	        	        	        	        	    -472	(  1  1 12)	  0  1
    103.4332	        	        	        	        	       0	(  2  1  8)	  0  1
    103.4332	        	        	        	        	    -472	(  2  1  8)	  0  1
    104.2037	        	        	        	        	       0	(  3  0  5)	  0  1
    104.2037	        	        	        	        	    -472	(  3  0  5)	  0  1
    106.3837	        	        	        	        	       0	(  1  0 14)	  0  1
    106.3837	        	        	        	        	    -472	(  1  0 14)	  0  1
    108.0948	        	        	        	        	       0	(  3  0  6)	  0  1
    108.0948	        	        	        	        	    -472	(  3  0  6)	  0  1
    109.4575	        	        	        	        	       0	(  2  1  9)	  0  1
    109.4575	        	        	        	        	    -472	(  2  1  9)	  0  1
    109.8891	        	        	        	        	       0	(  2  0 12)	  0  1
    109.8891	        	        	        	        	    -472	(  2  0 12)	  0  1
    112.8102	        	        	        	        	       0	(  3  0  7)	  0  1
    112.8102	        	        	        	        	    -472	(  3  0  7)	  0  1
    116.4736	        	        	        	        	       0	(  2  1 10)	  0  1
    116.4736	        	        	        	        	    -472	(  2  1 10)	  0  1
    117.0034	        	        	        	        	       0	(  1  0 15)	  0  1
    117.0034	        	        	        	        	    -472	(  1  0 15)	  0  1
    117.6208	        	        	        	        	       0	(  2  2  0)	  0  1
    117.6208	        	        	        	        	    -472	(  2  2  0)	  0  1
    118.4665	        	        	        	        	       0	(  3  0  8)	  0  1
    118.4665	        	        	        	        	    -472	(  3  0  8)	  0  1
    119.1662	        	        	        	        	       0	(  2  2  2)	  0  1
    119.1662	        	        	        	        	    -472	(  2  2  2)	  0  1
    119.2401	        	        	        	        	       0	(  2  0 13)	  0  1
    119.2401	        	        	        	        	    -472	(  2  0 13)	  0  1
    121.0460	        	        	        	        	       0	(  0  0 16)	  0  1
    121.0460	        	        	        	        	    -472	(  0  0 16)	  0  1
    121.7644	        	        	        	        	       0	(  1  1 14)	  0  1
    121.7644	        	        	        	        	    -472	(  1  1 14)	  0  1
    123.9543	        	        	        	        	       0	(  2  2  4)	  0  1
    123.9543	        	        	        	        	    -472	(  2  2  4)	  0  1
    124.7753	        	        	        	        	       0	(  2  1 11)	  0  1
    124.7753	        	        	        	        	    -472	(  2  1 11)	  0  1
    125.2745	        	        	        	        	       0	(  3  0  9)	  0  1
    125.2745	        	        	        	        	    -472	(  3  0  9)	  0  1
    125.8618	        	        	        	        	       0	(  3  1  0)	  0  1
    125.8618	        	        	        	        	    -472	(  3  1  0)	  0  1
    126.2824	        	        	        	        	       0	(  3  1  1)	  0  1
    126.2824	        	        	        	        	    -472	(  3  1  1)	  0  1
    127.5581	        	        	        	        	       0	(  3  1  2)	  0  1
    127.5581	        	        	        	        	    -472	(  3  1  2)	  0  1
    129.6398	        	        	        	        	       0	(  1  0 16)	  0  1
    129.6398	        	        	        	        	    -472	(  1  0 16)	  0  1
    129.7349	        	        	        	        	       0	(  3  1  3)	  0  1
    129.7349	        	        	        	        	    -472	(  3  1  3)	  0  1
    130.4409	        	        	        	        	       0	(  2  0 14)	  0  1
    130.4409	        	        	        	        	    -472	(  2  0 14)	  0  1
    132.6262	        	        	        	        	       0	(  2  2  6)	  0  1
    132.6262	        	        	        	        	    -472	(  2  2  6)	  0  1
    132.9047	        	        	        	        	       0	(  3  1  4)	  0  1
    132.9047	        	        	        	        	    -472	(  3  1  4)	  0  1
    133.6497	        	        	        	        	       0	(  3  0 10)	  0  1
    133.6497	        	        	        	        	    -472	(  3  0 10)	  0  1
    134.9794	        	        	        	        	       0	(  2  1 12)	  0  1
    134.9794	        	        	        	        	    -472	(  2  1 12)	  0  1
    137.2401	        	        	        	        	       0	(  3  1  5)	  0  1
    137.2401	        	        	        	        	    -472	(  3  1  5)	  0  1
    143.0846	        	        	        	        	       0	(  3  1  6)	  0  1
    143.0846	        	        	        	        	    -472	(  3  1  6)	  0  1
    144.5810	        	        	        	        	       0	(  3  0 11)	  0  1
    144.5810	        	        	        	        	    -472	(  3  0 11)	  0  1
    145.1688	        	        	        	        	       0	(  2  0 15)	  0  1
    145.1688	        	        	        	        	    -472	(  2  0 15)	  0  1
    146.4999	        	        	        	        	       0	(  1  0 17)	  0  1
    146.4999	        	        	        	        	    -472	(  1  0 17)	  0  1
    147.5089	        	        	        	        	       0	(  2  2  8)	  0  1
    147.5089	        	        	        	        	    -472	(  2  2  8)	  0  1
    148.7952	        	        	        	        	       0	(  2  1 13)	  0  1
    148.7952	        	        	        	        	    -472	(  2  1 13)	  0  1
    151.2542	        	        	        	        	       0	(  3  1  7)	  0  1
    151.2542	        	        	        	        	    -472	(  3  1  7)	  0  1
    151.9613	        	        	        	        	       0	(  1  1 16)	  0  1
    151.9613	        	        	        	        	    -472	(  1  1 16)	  0  1
    156.8497	        	        	        	        	       0	(  0  0 18)	  0  1
    156.8497	        	        	        	        	    -472	(  0  0 18)	  0  1
    162.1176	        	        	        	        	       0	(  3  0 12)	  0  1
    162.1176	        	        	        	        	    -472	(  3  0 12)	  0  1
    162.3513	        	        	        	        	       0	(  4  0  0)	  0  1
    162.3513	        	        	        	        	    -472	(  4  0  0)	  0  1
    163.5146	        	        	        	        	       0	(  4  0  1)	  0  1
    163.5146	        	        	        	        	    -472	(  4  0  1)	  0  1
    165.0213	        	        	        	        	       0	(  3  1  8)	  0  1
    165.0213	        	        	        	        	    -472	(  3  1  8)	  0  1
    167.6301	        	        	        	        	       0	(  4  0  2)	  0  1
    167.6301	        	        	        	        	    -472	(  4  0  2)	  0  1
