MSG Master    CELL:    5.91913   5.91913  23.27242   90.0000   90.0000  120.0000   SPGR: P 63/m m c             TEMP:   1074.85
  1   1280     2.52000     0.00000    -0.12879     0.00000     0.00000    0
    99     0     2
       0.00000      10.00000
     125.00000     130.00000
 2Theta	Yobs	Ycal	Yobs-Ycal	Backg	Posr	(hkl)	K
      0.7700	    0.00	  538.34	-1739.25	  419.79
      0.8700	    0.00	  539.16	-1739.25	  420.61
      0.9700	   33.00	  539.97	-1739.25	  421.42
      1.0700	   39.00	  540.77	-1739.25	  422.22
      1.1700	   28.00	  541.56	-1739.25	  423.01
      1.2700	   36.00	  542.33	-1739.25	  423.78
      1.3700	   42.00	  543.10	-1739.25	  424.55
      1.4700	   80.00	  543.85	-1739.25	  425.30
      1.5700	  279.00	  544.59	-1739.25	  426.04
      1.6700	  470.00	  545.32	-1739.25	  426.77
      1.7700	  584.00	  546.04	-1739.25	  427.49
      1.8700	  662.00	  546.75	-1739.25	  428.20
      1.9700	  747.00	  547.45	-1739.25	  428.89
      2.0700	  786.00	  548.13	-1739.25	  429.58
      2.1700	  857.00	  548.81	-1739.25	  430.26
      2.2700	  747.00	  549.47	-1739.25	  430.92
      2.3700	  714.00	  550.13	-1739.25	  431.57
      2.4700	  692.00	  550.77	-1739.25	  432.22
      2.5700	  705.00	  551.40	-1739.25	  432.85
      2.6700	  682.00	  552.03	-1739.25	  433.47
      2.7700	  642.00	  552.64	-1739.25	  434.08
      2.8700	  656.00	  553.24	-1739.25	  434.69
      2.9700	  665.00	  553.83	-1739.25	  435.28
      3.0700	  592.00	  554.41	-1739.25	  435.86
      3.1700	  606.00	  554.98	-1739.25	  436.43
      3.2700	  632.00	  555.55	-1739.25	  436.99
      3.3700	  695.00	  556.10	-1739.25	  437.54
      3.4700	  780.00	  556.64	-1739.25	  438.09
      3.5700	  816.00	  557.17	-1739.25	  438.62
      3.6700	  863.00	  557.69	-1739.25	  439.14
      3.7700	  937.00	  558.20	-1739.25	  439.65
      3.8700	  956.00	  558.71	-1739.25	  440.15
      3.9700	 1033.00	  559.20	-1739.25	  440.65
      4.0700	  973.00	  559.68	-1739.25	  441.13
      4.1700	 1083.00	  560.16	-1739.25	  441.61
      4.2700	 1106.00	  560.62	-1739.25	  442.07
      4.3700	 1047.00	  561.08	-1739.25	  442.53
      4.4700	 1062.00	  561.53	-1739.25	  442.97
      4.5700	 1080.00	  561.96	-1739.25	  443.41
      4.6700	  956.00	  562.39	-1739.25	  443.84
      4.7700	 1086.00	  562.81	-1739.25	  444.26
      4.8700	  988.00	  563.22	-1739.25	  444.67
      4.9700	  952.00	  563.63	-1739.25	  445.07
      5.0700	  966.00	  564.02	-1739.25	  445.47
      5.1700	  928.00	  564.40	-1739.25	  445.85
      5.2700	  911.00	  564.78	-1739.25	  446.23
      5.3700	  911.00	  565.15	-1739.25	  446.60
      5.4700	  891.00	  565.51	-1739.25	  446.95
      5.5700	  887.00	  565.86	-1739.25	  447.30
      5.6700	  836.00	  566.20	-1739.25	  447.65
      5.7700	  844.00	  566.53	-1739.25	  447.98
      5.8700	  875.00	  566.86	-1739.25	  448.31
      5.9700	  799.00	  567.18	-1739.25	  448.62
      6.0700	  763.00	  567.49	-1739.25	  448.93
      6.1700	  738.00	  567.79	-1739.25	  449.24
      6.2700	  837.00	  568.08	-1739.25	  449.53
      6.3700	  786.00	  568.37	-1739.25	  449.82
      6.4700	  763.00	  568.65	-1739.25	  450.09
      6.5700	  761.00	  568.92	-1739.25	  450.36
      6.6700	  687.00	  569.18	-1739.25	  450.63
      6.7700	  675.00	  569.43	-1739.25	  450.88
      6.8700	  687.00	  569.68	-1739.25	  451.13
      6.9700	  700.00	  569.92	-1739.25	  451.37
      7.0700	  704.00	  570.15	-1739.25	  451.60
      7.1700	  656.00	  570.38	-1739.25	  451.82
      7.2700	  672.00	  570.59	-1739.25	  452.04
      7.3700	  669.00	  570.80	-1739.25	  452.25
      7.4700	  677.00	  571.01	-1739.25	  452.45
      7.5700	  646.00	  571.20	-1739.25	  452.65
      7.6700	  639.00	  571.39	-1739.25	  452.84
      7.7700	  610.00	  571.57	-1739.25	  453.02
      7.8700	  625.00	  571.75	-1739.25	  453.20
      7.9700	  685.00	  571.92	-1739.25	  453.36
      8.0700	  655.00	  572.08	-1739.25	  453.53
      8.1700	  662.00	  572.23	-1739.25	  453.68
      8.2700	  651.00	  572.38	-1739.25	  453.83
      8.3700	  691.00	  572.52	-1739.25	  453.97
      8.4700	  624.00	  572.66	-1739.25	  454.10
      8.5700	  613.00	  572.78	-1739.25	  454.23
      8.6700	  587.00	  572.90	-1739.25	  454.35
      8.7700	  660.00	  573.02	-1739.25	  454.47
      8.8700	  563.00	  573.13	-1739.25	  454.58
      8.9700	  632.00	  573.23	-1739.25	  454.68
      9.0700	  605.00	  573.33	-1739.25	  454.77
      9.1700	  574.00	  573.42	-1739.25	  454.86
      9.2700	  621.00	  573.50	-1739.25	  454.95
      9.3700	  648.00	  573.58	-1739.25	  455.02
      9.4700	  616.00	  573.65	-1739.25	  455.10
      9.5700	  635.00	  573.71	-1739.25	  455.16
      9.6700	  598.00	  573.77	-1739.25	  455.22
      9.7700	  561.00	  573.83	-1739.25	  455.27
      9.8700	  632.00	  573.88	-1739.25	  455.32
      9.9700	  576.00	  573.92	-1739.25	  455.36
     10.0700	  591.00	  574.74	-1722.99	  455.40
     10.1700	  547.00	  574.85	-1767.10	  455.43
     10.2700	  530.00	  574.98	-1784.23	  455.46
     10.3700	  572.00	  575.13	-1742.38	  455.48
     10.4700	  594.00	  575.34	-1720.59	  455.49
     10.5700	  599.00	  575.66	-1715.91	  455.50
     10.6700	  582.00	  576.16	-1733.41	  455.50
     10.7700	  576.00	  576.96	-1740.21	  455.50
     10.8700	  618.00	  578.12	-1699.37	  455.49
     10.9700	  584.00	  579.62	-1734.87	  455.48
     11.0700	  619.00	  581.44	-1701.69	  455.46
     11.1700	  601.00	  583.58	-1721.83	  455.44
     11.2700	  571.00	  586.07	-1754.32	  455.41
     11.3700	  607.00	  588.99	-1721.24	  455.38
     11.4700	  586.00	  592.45	-1745.70	  455.34
     11.5700	  628.00	  596.65	-1707.90	  455.30
     11.6700	  591.00	  601.91	-1750.16	  455.25
     11.7700	  619.00	  608.80	-1729.05	  455.20
     11.8700	  625.00	  618.14	-1732.39	  455.15
     11.9700	  646.00	  630.40	-1723.65	  455.08
     12.0700	  678.00	  643.98	-1705.23	  455.02
     12.1700	  683.00	  653.24	-1709.49	  454.95
     12.2700	  660.00	  649.60	-1728.85	  454.87
     12.3700	  678.00	  630.90	-1692.15	  454.79
     12.4700	  592.00	  608.47	-1755.72	  454.71
     12.5700	  575.00	  592.07	-1756.32	  454.62
     12.6700	  563.00	  583.04	-1759.29	  454.52
     12.7700	  573.00	  578.87	-1745.12	  454.43
     12.8700	  597.00	  576.94	-1719.19	  454.33
     12.9700	  594.00	  575.89	-1721.14	  454.22
     13.0700	  597.00	  575.17	-1717.42	  454.11
     13.1700	  574.00	  574.62	-1739.87	  454.00
     13.2700	  518.00	  574.18	-1795.43	  453.88
     13.3700	  556.00	  573.81	-1757.06	  453.75
     13.4700	  574.00	  573.49	-1738.74	  453.63
     13.5700	  573.00	  573.21	-1739.46	  453.50
     13.6700	  572.00	  572.95	-1740.20	  453.36
     13.7700	  567.00	  572.70	-1744.95	  453.23
     13.8700	  570.00	  572.48	-1741.73	  453.08
     13.9700	  609.00	  572.26	-1702.51	  452.94
     14.0700	  589.00	  572.05	-1722.30	  452.79
     14.1700	  543.00	  571.84	-1768.09	  452.64
     14.2700	  544.00	  571.64	-1766.89	  452.48
     14.3700	  551.00	  571.44	-1759.69	  452.32
     14.4700	  558.00	  571.24	-1752.49	  452.16
     14.5700	  538.00	  571.04	-1772.29	  451.99
     14.6700	  540.00	  570.85	-1770.10	  451.82
     14.7700	  544.00	  570.65	-1765.90	  451.65
     14.8700	  553.00	  570.45	-1756.70	  451.47
     14.9700	  534.00	  570.25	-1775.50	  451.29
     15.0700	  583.00	  570.05	-1726.30	  451.11
     15.1700	  567.00	  569.85	-1742.10	  450.92
     15.2700	  572.00	  569.64	-1736.89	  450.73
     15.3700	  585.00	  569.44	-1723.69	  450.54
     15.4700	  589.00	  569.23	-1719.48	  450.34
     15.5700	  536.00	  569.02	-1772.27	  450.14
     15.6700	  620.00	  568.81	-1688.06	  449.94
     15.7700	  592.00	  568.59	-1715.84	  449.73
     15.8700	  546.00	  568.38	-1761.63	  449.52
     15.9700	  547.00	  568.16	-1760.41	  449.31
     16.0700	  583.00	  567.96	-1724.21	  449.10
     16.1700	  521.00	  567.74	-1785.99	  448.88
     16.2700	  597.00	  567.52	-1709.77	  448.66
     16.3700	  543.00	  567.29	-1763.54	  448.44
     16.4700	  561.00	  567.06	-1745.31	  448.22
     16.5700	  534.00	  566.83	-1772.08	  447.99
     16.6700	  528.00	  566.59	-1777.84	  447.76
     16.7700	  567.00	  566.36	-1738.61	  447.53
     16.8700	  584.00	  566.12	-1721.37	  447.29
     16.9700	  554.00	  565.88	-1751.13	  447.05
     17.0700	  587.00	  565.64	-1717.89	  446.81
     17.1700	  551.00	  565.39	-1753.64	  446.57
     17.2700	  620.00	  565.15	-1684.40	  446.33
     17.3700	  559.00	  564.90	-1745.15	  446.08
     17.4700	  553.00	  564.65	-1750.90	  445.83
     17.5700	  529.00	  564.39	-1774.64	  445.58
     17.6700	  589.00	  564.14	-1714.39	  445.33
     17.7700	  555.00	  563.88	-1748.13	  445.07
     17.8700	  587.00	  563.62	-1715.87	  444.81
     17.9700	  566.00	  563.36	-1736.61	  444.55
     18.0700	  591.00	  563.19	-1711.44	  444.29
     18.1700	  547.00	  562.93	-1755.18	  444.03
     18.2700	  560.00	  562.67	-1741.92	  443.76
     18.3700	  552.00	  562.40	-1749.65	  443.49
     18.4700	  557.00	  562.13	-1744.38	  443.22
     18.5700	  546.00	  561.86	-1755.11	  442.95
     18.6700	  558.00	  561.59	-1742.84	  442.68
     18.7700	  542.00	  561.32	-1758.57	  442.40
     18.8700	  552.00	  561.05	-1748.30	  442.12
     18.9700	  571.00	  560.85	-1729.10	  441.84
     19.0700	  527.00	  560.57	-1772.82	  441.56
     19.1700	  572.00	  560.30	-1727.55	  441.28
     19.2700	  552.00	  560.02	-1747.27	  441.00
     19.3700	  567.00	  559.74	-1731.99	  440.71
     19.4700	  505.00	  559.46	-1793.71	  440.42
     19.5700	  559.00	  559.17	-1739.42	  440.13
     19.6700	  569.00	  558.89	-1729.14	  439.84
     19.7700	  586.00	  558.61	-1711.86	  439.55
     19.8700	  500.00	  558.32	-1797.57	  439.26
     19.9700	  610.00	  558.04	-1687.29	  438.96
     20.0700	  541.00	  557.75	-1756.00	  438.67
     20.1700	  558.00	  557.46	-1738.71	  438.37
     20.2700	  536.00	  557.17	-1760.42	  438.07
     20.3700	  597.00	  556.88	-1699.13	  437.77
     20.4700	  512.00	  556.59	-1783.84	  437.47
     20.5700	  529.00	  556.30	-1766.55	  437.17
     20.6700	  531.00	  556.01	-1764.26	  436.87
     20.7700	  526.00	  555.69	-1768.94	  436.56
     20.8700	  600.00	  555.43	-1694.68	  436.26
     20.9700	  504.00	  555.14	-1790.39	  435.95
     21.0700	  598.00	  554.85	-1696.10	  435.64
     21.1700	  518.00	  554.56	-1775.81	  435.33
     21.2700	  520.00	  554.27	-1773.52	  435.02
     21.3700	  565.00	  553.98	-1728.23	  434.71
     21.4700	  610.00	  553.68	-1682.93	  434.40
     21.5700	  554.00	  553.40	-1738.65	  434.09
     21.6700	  562.00	  553.11	-1730.36	  433.77
     21.7700	  547.00	  552.82	-1745.07	  433.46
     21.8700	  550.00	  552.53	-1741.78	  433.14
     21.9700	  603.00	  552.25	-1688.50	  432.83
     22.0700	  572.00	  551.96	-1719.21	  432.51
     22.1700	  539.00	  551.68	-1751.93	  432.19
     22.2700	  545.00	  551.40	-1745.65	  431.88
     22.3700	  506.00	  551.13	-1784.38	  431.56
     22.4700	  586.00	  550.86	-1704.11	  431.24
     22.5700	  516.00	  550.59	-1773.84	  430.92
     22.6700	  567.00	  550.33	-1722.58	  430.60
     22.7700	  568.00	  550.07	-1721.32	  430.28
     22.8700	  564.00	  549.83	-1725.08	  429.95
     22.9700	  507.00	  549.59	-1781.84	  429.63
     23.0700	  583.00	  549.37	-1705.62	  429.31
     23.1700	  531.00	  549.16	-1757.41	  428.99
     23.2700	  539.00	  548.97	-1749.22	  428.66
     23.3700	  578.00	  548.81	-1710.06	  428.34
     23.4700	  594.00	  548.68	-1693.93	  428.01
     23.5700	  538.00	  548.60	-1749.85	  427.69
     23.6700	  579.00	  548.72	-1708.97	  427.36
     23.7700	  526.00	  548.82	-1762.07	  427.04
     23.8700	  596.00	  549.14	-1692.39	  426.71
     23.9700	  559.00	  549.89	-1730.14	  426.39
     24.0700	  524.00	  551.48	-1766.73	  426.06
     24.1700	  552.00	  554.53	-1741.78	  425.74
     24.2700	  557.00	  559.83	-1742.08	  425.41
     24.3700	  618.00	  568.27	-1689.52	  425.08
     24.4700	  567.00	  580.74	-1752.99	  424.76
     24.5700	  633.00	  597.29	-1703.54	  424.43
     24.6700	  556.00	  615.15	-1798.40	  424.10
     24.7700	  598.00	  627.08	-1768.33	  423.78
     24.8700	  625.00	  623.66	-1737.91	  423.45
     24.9700	  643.00	  604.19	-1700.44	  423.12
     25.0700	  589.00	  580.96	-1731.21	  422.80
     25.1700	  615.00	  563.54	-1687.79	  422.47
     25.2700	  556.00	  553.57	-1736.82	  422.14
     25.3700	  559.00	  548.76	-1729.01	  421.82
     25.4700	  531.00	  546.51	-1754.76	  421.49
     25.5700	  560.00	  545.30	-1724.55	  421.16
     25.6700	  559.00	  544.51	-1724.76	  420.84
     25.7700	  549.00	  543.92	-1734.17	  420.51
     25.8700	  564.00	  543.48	-1718.73	  420.19
     25.9700	  560.00	  543.13	-1722.38	  419.86
     26.0700	  538.00	  542.87	-1744.12	  419.54
     26.1700	  558.00	  542.69	-1723.94	  419.21
     26.2700	  553.00	  542.58	-1728.83	  418.89
     26.3700	  533.00	  542.54	-1748.79	  418.56
     26.4700	  556.00	  542.58	-1725.83	  418.24
     26.5700	  565.00	  542.71	-1716.96	  417.92
     26.6700	  581.00	  542.95	-1701.20	  417.59
     26.7700	  521.00	  543.32	-1761.57	  417.27
     26.8700	  536.00	  543.86	-1747.11	  416.95
     26.9700	  586.00	  544.60	-1697.85	  416.62
     27.0700	  556.00	  545.63	-1728.88	  416.30
     27.1700	  580.00	  547.07	-1706.32	  415.98
     27.2700	  543.00	  549.16	-1745.41	  415.66
     27.3700	  547.00	  552.39	-1744.64	  415.34
     27.4700	  598.00	  557.70	-1698.95	  415.02
     27.5700	  518.00	  566.81	-1788.06	  414.70
     27.6700	  540.00	  582.44	-1781.69	  414.39
     27.7700	  528.00	  608.09	-1819.34	  414.07
     27.8700	  567.00	  646.84	-1819.09	  413.75
     27.9700	  642.00	  698.82	-1796.07	  413.43
     28.0700	  754.00	  757.95	-1743.20	  413.12
     28.1700	  863.00	  809.06	-1685.31	  412.80
     28.2700	  956.00	  829.55	-1612.80	  412.49
     28.3700	  920.00	  806.70	-1625.95	  412.17
     28.4700	  749.00	  762.57	-1752.82	  411.86
     28.5700	  701.00	  731.84	-1770.09	  411.55
     28.6700	  706.00	  729.83	-1763.08	  411.24
     28.7700	  697.00	  751.56	-1793.81	  410.93
     28.8700	  836.00	  777.62	-1680.87	  410.62
     28.9700	  759.00	  781.16	-1761.41	  410.31
     29.0700	  741.00	  745.83	-1744.08	  410.00
     29.1700	  721.00	  686.98	-1705.23	  409.69
     29.2700	  611.00	  631.46	-1759.71	  409.39
     29.3700	  607.00	  591.70	-1723.95	  409.08
     29.4700	  570.00	  567.84	-1737.09	  408.77
     29.5700	  639.00	  555.01	-1655.26	  408.47
     29.6700	  578.00	  548.24	-1709.49	  408.17
     29.7700	  570.00	  544.37	-1713.62	  407.87
     29.8700	  588.00	  541.94	-1693.19	  407.56
     29.9700	  598.00	  540.36	-1681.61	  407.26
     30.0700	  526.00	  539.51	-1752.76	  406.96
     30.1700	  605.00	  539.51	-1673.76	  406.67
     30.2700	  559.00	  540.83	-1721.08	  406.37
     30.3700	  584.00	  544.38	-1699.63	  406.07
     30.4700	  588.00	  551.53	-1702.78	  405.78
     30.5700	  575.00	  563.70	-1727.95	  405.48
     30.6700	  536.00	  581.25	-1784.50	  405.19
     30.7700	  611.00	  601.92	-1730.17	  404.90
     30.8700	  612.00	  619.75	-1747.00	  404.61
     30.9700	  588.00	  625.74	-1776.99	  404.32
     31.0700	  623.00	  613.88	-1730.13	  404.03
     31.1700	  574.00	  590.47	-1755.72	  403.74
     31.2700	  506.00	  567.18	-1800.43	  403.46
     31.3700	  580.00	  550.05	-1709.30	  403.17
     31.4700	  567.00	  539.65	-1711.90	  402.89
     31.5700	  537.00	  534.09	-1736.34	  402.60
     31.6700	  517.00	  531.21	-1753.46	  402.32
     31.7700	  551.00	  529.62	-1717.87	  402.04
     31.8700	  578.00	  528.61	-1689.86	  401.76
     31.9700	  533.00	  527.91	-1734.16	  401.48
     32.0700	  525.00	  527.42	-1741.67	  401.21
     32.1700	  546.00	  527.10	-1720.35	  400.93
     32.2700	  563.00	  526.93	-1703.18	  400.66
     32.3700	  539.00	  526.90	-1727.15	  400.39
     32.4700	  556.00	  527.02	-1710.27	  400.11
     32.5700	  550.00	  527.30	-1716.55	  399.84
     32.6700	  575.00	  527.79	-1692.04	  399.57
     32.7700	  510.00	  528.52	-1757.77	  399.31
     32.8700	  534.00	  529.57	-1734.82	  399.04
     32.9700	  548.00	  531.05	-1722.30	  398.78
     33.0700	  532.00	  533.20	-1740.45	  398.51
     33.1700	  541.00	  536.48	-1734.73	  398.25
     33.2700	  538.00	  542.00	-1743.25	  397.99
     33.3700	  528.00	  552.09	-1763.34	  397.73
     33.4700	  566.00	  571.22	-1744.47	  397.47
     33.5700	  577.00	  606.44	-1768.69	  397.22
     33.6700	  654.00	  665.68	-1750.93	  396.96
     33.7700	  740.00	  752.24	-1751.49	  396.71
     33.8700	  877.00	  856.41	-1718.66	  396.45
     33.9700	 1044.00	  950.02	-1645.27	  396.20
     34.0700	 1055.00	  990.27	-1674.52	  395.95
     34.1700	 1011.00	  946.39	-1674.64	  395.71
     34.2700	  882.00	  841.27	-1698.52	  395.46
     34.3700	  732.00	  728.79	-1736.04	  395.22
     34.4700	  661.00	  641.80	-1720.05	  394.97
     34.5700	  566.00	  587.01	-1760.26	  394.73
     34.6700	  583.00	  557.22	-1713.47	  394.49
     34.7700	  535.00	  542.18	-1746.43	  394.25
     34.8700	  559.00	  534.31	-1714.56	  394.01
     34.9700	  539.00	  529.60	-1729.85	  393.78
     35.0700	  521.00	  526.35	-1744.60	  393.54
     35.1700	  555.00	  523.91	-1708.16	  393.31
     35.2700	  551.00	  521.98	-1710.23	  393.08
     35.3700	  528.00	  520.40	-1731.65	  392.85
     35.4700	  573.00	  519.09	-1685.34	  392.62
     35.5700	  517.00	  517.98	-1740.23	  392.40
     35.6700	  487.00	  517.04	-1769.29	  392.17
     35.7700	  505.00	  516.21	-1750.46	  391.95
     35.8700	  530.00	  515.49	-1724.74	  391.73
     35.9700	  536.00	  514.84	-1718.09	  391.51
     36.0700	  523.00	  514.73	-1730.98	  391.29
     36.1700	  533.00	  514.22	-1720.47	  391.07
     36.2700	  519.00	  513.75	-1734.00	  390.86
     36.3700	  484.00	  513.33	-1768.58	  390.64
     36.4700	  533.00	  512.95	-1719.20	  390.43
     36.5700	  508.00	  512.60	-1743.85	  390.22
     36.6700	  494.00	  512.30	-1757.55	  390.01
     36.7700	  520.00	  512.03	-1731.28	  389.81
     36.8700	  492.00	  511.84	-1759.09	  389.60
     36.9700	  505.00	  511.76	-1746.01	  389.40
     37.0700	  523.00	  511.92	-1728.17	  389.20
     37.1700	  538.00	  512.52	-1713.77	  389.00
     37.2700	  528.00	  513.87	-1725.12	  388.80
     37.3700	  523.00	  516.25	-1732.50	  388.60
     37.4700	  543.00	  519.63	-1715.88	  388.41
     37.5700	  522.00	  523.34	-1740.59	  388.21
     37.6700	  497.00	  526.07	-1768.32	  388.02
     37.7700	  524.00	  526.40	-1741.65	  387.83
     37.8700	  558.00	  524.08	-1705.33	  387.64
     37.9700	  537.00	  520.45	-1722.70	  387.46
     38.0700	  502.00	  516.83	-1754.08	  387.27
     38.1700	  516.00	  513.78	-1737.03	  387.09
     38.2700	  518.00	  511.47	-1732.72	  386.91
     38.3700	  481.00	  509.86	-1768.11	  386.73
     38.4700	  482.00	  508.79	-1766.04	  386.55
     38.5700	  478.00	  508.09	-1769.34	  386.38
     38.6700	  513.00	  507.52	-1733.77	  386.20
     38.7700	  511.00	  507.17	-1735.42	  386.03
     38.8700	  509.00	  506.90	-1737.15	  385.86
     38.9700	  525.00	  506.66	-1720.91	  385.69
     39.0700	  548.00	  506.45	-1697.70	  385.52
     39.1700	  503.00	  506.18	-1742.43	  385.36
     39.2700	  505.00	  506.00	-1740.25	  385.19
     39.3700	  493.00	  505.83	-1752.08	  385.03
     39.4700	  452.00	  505.80	-1793.05	  384.87
     39.5700	  519.00	  505.66	-1725.91	  384.71
     39.6700	  518.00	  505.52	-1726.77	  384.56
     39.7700	  554.00	  505.39	-1690.64	  384.40
     39.8700	  539.00	  505.27	-1705.52	  384.25
     39.9700	  503.00	  505.17	-1741.42	  384.10
     40.0700	  511.00	  505.07	-1733.32	  383.95
     40.1700	  487.00	  504.98	-1757.23	  383.80
     40.2700	  496.00	  504.90	-1748.15	  383.66
     40.3700	  511.00	  504.83	-1733.08	  383.51
     40.4700	  483.00	  504.78	-1761.03	  383.37
     40.5700	  487.00	  504.74	-1756.99	  383.23
     40.6700	  513.00	  504.72	-1730.97	  383.09
     40.7700	  480.00	  504.72	-1763.97	  382.96
     40.8700	  510.00	  504.75	-1734.00	  382.82
     40.9700	  514.00	  504.80	-1730.05	  382.69
     41.0700	  488.00	  504.89	-1756.14	  382.56
     41.1700	  514.00	  505.02	-1730.27	  382.43
     41.2700	  471.00	  505.17	-1773.42	  382.30
     41.3700	  475.00	  505.43	-1769.68	  382.17
     41.4700	  531.00	  505.77	-1714.02	  382.05
     41.5700	  474.00	  506.66	-1771.91	  381.93
     41.6700	  519.00	  507.32	-1727.57	  381.81
     41.7700	  477.00	  508.31	-1770.56	  381.69
     41.8700	  513.00	  509.97	-1736.22	  381.57
     41.9700	  506.00	  513.02	-1746.27	  381.46
     42.0700	  504.00	  518.87	-1754.12	  381.34
     42.1700	  506.00	  529.72	-1762.97	  381.23
     42.2700	  535.00	  548.09	-1752.34	  381.12
     42.3700	  571.00	  575.30	-1743.55	  381.01
     42.4700	  563.00	  609.33	-1785.58	  380.91
     42.5700	  580.00	  642.65	-1801.90	  380.80
     42.6700	  617.00	  663.27	-1785.52	  380.70
     42.7700	  592.00	  660.37	-1807.62	  380.60
     42.8700	  597.00	  634.86	-1777.11	  380.50
     42.9700	  593.00	  599.22	-1745.47	  380.40
     43.0700	  519.00	  565.83	-1786.08	  380.31
     43.1700	  501.00	  540.73	-1778.98	  380.22
     43.2700	  530.00	  524.72	-1733.97	  380.12
     43.3700	  494.00	  515.73	-1760.98	  380.03
     43.4700	  550.00	  511.04	-1700.29	  379.95
     43.5700	  499.00	  508.59	-1748.84	  379.86
     43.6700	  496.00	  507.20	-1750.45	  379.78
     43.7700	  483.00	  506.48	-1762.73	  379.69
     43.8700	  501.00	  505.83	-1744.08	  379.61
     43.9700	  510.00	  505.37	-1734.62	  379.53
     44.0700	  490.00	  504.99	-1754.24	  379.46
     44.1700	  500.00	  504.69	-1743.94	  379.38
     44.2700	  500.00	  504.46	-1743.71	  379.31
     44.3700	  490.00	  504.29	-1753.54	  379.24
     44.4700	  536.00	  504.16	-1707.41	  379.17
     44.5700	  486.00	  504.06	-1757.31	  379.10
     44.6700	  499.00	  503.87	-1744.12	  379.03
     44.7700	  510.00	  503.84	-1733.09	  378.97
     44.8700	  510.00	  503.84	-1733.09	  378.90
     44.9700	  516.00	  503.86	-1727.11	  378.84
     45.0700	  484.00	  503.90	-1759.15	  378.78
     45.1700	  526.00	  503.97	-1717.22	  378.72
     45.2700	  500.00	  504.24	-1743.49	  378.67
     45.3700	  503.00	  504.35	-1740.60	  378.61
     45.4700	  531.00	  504.48	-1712.73	  378.56
     45.5700	  506.00	  504.64	-1737.89	  378.51
     45.6700	  501.00	  504.82	-1743.07	  378.46
     45.7700	  511.00	  505.03	-1733.28	  378.41
     45.8700	  536.00	  505.27	-1708.52	  378.37
     45.9700	  539.00	  505.53	-1705.78	  378.32
     46.0700	  514.00	  505.83	-1731.08	  378.28
     46.1700	  516.00	  506.17	-1729.42	  378.24
     46.2700	  517.00	  506.55	-1728.80	  378.20
     46.3700	  522.00	  506.98	-1724.23	  378.17
     46.4700	  547.00	  507.46	-1699.71	  378.13
     46.5700	  509.00	  508.02	-1738.27	  378.10
     46.6700	  509.00	  508.65	-1738.90	  378.06
     46.7700	  500.00	  509.40	-1748.65	  378.03
     46.8700	  523.00	  510.30	-1726.55	  378.01
     46.9700	  496.00	  511.49	-1754.74	  377.98
     47.0700	  510.00	  513.21	-1742.46	  377.95
     47.1700	  537.00	  515.97	-1718.22	  377.93
     47.2700	  477.00	  520.60	-1782.85	  377.91
     47.3700	  562.00	  528.09	-1705.34	  377.89
     47.4700	  493.00	  539.46	-1785.71	  377.87
     47.5700	  572.00	  554.81	-1722.06	  377.85
     47.6700	  553.00	  572.61	-1758.86	  377.84
     47.7700	  578.00	  589.12	-1750.37	  377.82
     47.8700	  650.00	  599.03	-1688.28	  377.81
     47.9700	  593.00	  598.27	-1744.52	  377.80
     48.0700	  578.00	  587.91	-1749.16	  377.79
     48.1700	  558.00	  573.19	-1754.44	  377.79
     48.2700	  522.00	  559.29	-1776.54	  377.78
     48.3700	  511.00	  549.11	-1777.36	  377.78
     48.4700	  523.00	  543.44	-1759.69	  377.78
     48.5700	  536.00	  541.80	-1745.05	  377.77
     48.6700	  516.00	  543.21	-1766.46	  377.78
     48.7700	  515.00	  546.84	-1771.09	  377.78
     48.8700	  504.00	  552.29	-1787.54	  377.78
     48.9700	  582.00	  559.66	-1716.91	  377.79
     49.0700	  549.00	  569.62	-1759.87	  377.80
     49.1700	  573.00	  583.82	-1750.07	  377.80
     49.2700	  640.00	  605.75	-1705.00	  377.82
     49.3700	  599.00	  642.11	-1782.36	  377.83
     49.4700	  693.00	  704.27	-1750.52	  377.84
     49.5700	  758.00	  808.96	-1790.21	  377.86
     49.6700	  946.00	  974.29	-1767.54	  377.87
     49.7700	 1143.00	 1214.57	-1810.82	  377.89
     49.8700	 1478.00	 1527.82	-1789.07	  377.91
     49.9700	 1909.00	 1884.05	-1714.30	  377.93
     50.0700	 2237.00	 2215.90	-1718.15	  377.95
     50.1700	 2518.00	 2424.39	-1645.64	  377.98
     50.2700	 2494.00	 2422.94	-1668.19	  378.00
     50.3700	 2298.00	 2210.07	-1651.32	  378.03
     50.4700	 1898.00	 1874.78	-1716.03	  378.06
     50.5700	 1405.00	 1520.11	-1854.36	  378.09
     50.6700	 1054.00	 1213.38	-1898.63	  378.12
     50.7700	  817.00	  983.29	-1905.54	  378.16
     50.8700	  724.00	  830.24	-1845.49	  378.19
     50.9700	  668.00	  738.11	-1809.36	  378.23
     51.0700	  642.00	  685.46	-1782.71	  378.26
     51.1700	  633.00	  653.26	-1759.51	  378.30
     51.2700	  627.00	  629.24	-1741.49	  378.34
     51.3700	  583.00	  608.43	-1764.68	  378.38
     51.4700	  598.00	  590.23	-1731.48	  378.43
     51.5700	  572.00	  575.22	-1742.47	  378.47
     51.6700	  577.00	  563.72	-1725.97	  378.52
     51.7700	  578.00	  555.52	-1716.77	  378.57
     51.8700	  550.00	  550.00	-1739.25	  378.61
     51.9700	  541.00	  546.46	-1744.71	  378.66
     52.0700	  514.00	  544.34	-1769.59	  378.72
     52.1700	  559.00	  543.29	-1723.54	  378.77
     52.2700	  553.00	  543.40	-1729.65	  378.82
     52.3700	  543.00	  544.33	-1740.58	  378.88
     52.4700	  530.00	  546.73	-1755.98	  378.93
     52.5700	  569.00	  551.65	-1721.90	  378.99
     52.6700	  590.00	  561.33	-1710.58	  379.05
     52.7700	  571.00	  579.74	-1747.99	  379.11
     52.8700	  626.00	  612.94	-1726.19	  379.18
     52.9700	  710.00	  668.25	-1697.50	  379.24
     53.0700	  826.00	  751.62	-1664.87	  379.30
     53.1700	  946.00	  863.37	-1656.62	  379.37
     53.2700	 1046.00	  993.48	-1686.73	  379.44
     53.3700	 1147.00	 1118.78	-1711.03	  379.50
     53.4700	 1155.00	 1204.84	-1789.09	  379.57
     53.5700	 1155.00	 1219.07	-1803.32	  379.64
     53.6700	 1150.00	 1154.71	-1743.96	  379.72
     53.7700	  985.00	 1038.04	-1792.29	  379.79
     53.8700	  859.00	  905.99	-1786.24	  379.86
     53.9700	  751.00	  786.40	-1774.65	  379.94
     54.0700	  681.00	  693.50	-1751.75	  380.02
     54.1700	  615.00	  629.84	-1754.09	  380.10
     54.2700	  623.00	  590.72	-1706.97	  380.17
     54.3700	  561.00	  568.79	-1747.04	  380.26
     54.4700	  570.00	  557.31	-1726.56	  380.34
     54.5700	  575.00	  551.60	-1715.85	  380.42
     54.6700	  559.00	  548.89	-1729.14	  380.50
     54.7700	  577.00	  547.87	-1710.12	  380.59
     54.8700	  565.00	  547.92	-1722.17	  380.67
     54.9700	  550.00	  548.77	-1738.02	  380.76
     55.0700	  547.00	  550.37	-1742.62	  380.85
     55.1700	  567.00	  552.73	-1724.98	  380.94
     55.2700	  570.00	  555.88	-1725.13	  381.03
     55.3700	  537.00	  559.97	-1762.22	  381.12
     55.4700	  563.00	  565.19	-1741.44	  381.21
     55.5700	  573.00	  571.97	-1738.22	  381.31
     55.6700	  603.00	  581.10	-1717.35	  381.40
     55.7700	  588.00	  594.27	-1745.52	  381.50
     55.8700	  613.00	  614.79	-1741.04	  381.60
     55.9700	  642.00	  648.93	-1746.18	  381.69
     56.0700	  640.00	  707.10	-1806.35	  381.79
     56.1700	  761.00	  804.36	-1782.61	  381.89
     56.2700	  903.00	  958.60	-1794.85	  381.99
     56.3700	 1121.00	 1185.28	-1803.53	  382.09
     56.4700	 1430.00	 1488.74	-1797.99	  382.20
     56.5700	 1720.00	 1852.54	-1871.79	  382.30
     56.6700	 2218.00	 2231.66	-1752.91	  382.40
     56.7700	 2516.00	 2550.46	-1773.71	  382.51
     56.8700	 2578.00	 2716.98	-1878.23	  382.62
     56.9700	 2631.00	 2669.36	-1777.61	  382.72
     57.0700	 2354.00	 2426.03	-1811.28	  382.83
     57.1700	 2059.00	 2070.51	-1750.76	  382.94
     57.2700	 1632.00	 1692.44	-1799.69	  383.05
     57.3700	 1337.00	 1354.43	-1756.68	  383.16
     57.4700	 1028.00	 1088.15	-1799.40	  383.27
     57.5700	  902.00	  899.73	-1736.98	  383.39
     57.6700	  767.00	  778.97	-1751.22	  383.50
     57.7700	  725.00	  709.17	-1723.42	  383.61
     57.8700	  692.00	  674.53	-1721.78	  383.73
     57.9700	  699.00	  663.95	-1704.20	  383.85
     58.0700	  655.00	  671.57	-1755.82	  383.96
     58.1700	  699.00	  695.46	-1735.71	  384.08
     58.2700	  798.00	  735.71	-1676.96	  384.20
     58.3700	  821.00	  792.55	-1710.80	  384.32
     58.4700	  959.00	  864.68	-1644.93	  384.44
     58.5700	  993.00	  947.64	-1693.89	  384.56
     58.6700	 1226.00	 1033.32	-1546.57	  384.68
     58.7700	 1318.00	 1112.23	-1533.48	  384.80
     58.8700	 1333.00	 1177.68	-1583.93	  384.92
     58.9700	 1562.00	 1225.82	-1403.07	  385.05
     59.0700	 1580.00	 1251.52	-1410.77	  385.17
     59.1700	 1516.00	 1250.31	-1473.56	  385.30
     59.2700	 1498.00	 1226.08	-1467.33	  385.42
     59.3700	 1360.00	 1191.47	-1570.72	  385.55
     59.4700	 1226.00	 1159.58	-1672.83	  385.68
     59.5700	 1160.00	 1139.47	-1718.72	  385.80
     59.6700	 1084.00	 1138.71	-1793.96	  385.93
     59.7700	 1118.00	 1165.66	-1786.91	  386.06
     59.8700	 1254.00	 1225.30	-1710.55	  386.19
     59.9700	 1355.00	 1313.05	-1697.30	  386.32
     60.0700	 1473.00	 1411.83	-1678.08	  386.45
     60.1700	 1563.00	 1492.67	-1668.92	  386.58
     60.2700	 1517.00	 1522.10	-1744.35	  386.71
     60.3700	 1515.00	 1479.49	-1703.74	  386.84
     60.4700	 1427.00	 1371.95	-1684.20	  386.98
     60.5700	 1332.00	 1227.19	-1634.44	  387.11
     60.6700	 1098.00	 1074.93	-1716.18	  387.24
     60.7700	  917.00	  936.80	-1759.05	  387.38
     60.8700	  786.00	  824.98	-1778.23	  387.51
     60.9700	  712.00	  743.61	-1770.86	  387.65
     61.0700	  657.00	  691.39	-1773.64	  387.78
     61.1700	  636.00	  664.83	-1768.08	  387.92
     61.2700	  641.00	  660.99	-1759.24	  388.06
     61.3700	  640.00	  679.27	-1778.52	  388.19
     61.4700	  661.00	  721.57	-1799.82	  388.33
     61.5700	  723.00	  790.98	-1807.23	  388.47
     61.6700	  859.00	  889.43	-1769.68	  388.61
     61.7700	  970.00	 1014.60	-1783.85	  388.75
     61.8700	 1127.00	 1157.31	-1769.56	  388.89
     61.9700	 1197.00	 1299.82	-1842.07	  389.02
     62.0700	 1317.00	 1415.74	-1837.99	  389.16
     62.1700	 1435.00	 1475.31	-1779.56	  389.30
     62.2700	 1365.00	 1459.05	-1833.30	  389.45
     62.3700	 1258.00	 1371.87	-1853.12	  389.59
     62.4700	 1128.00	 1239.26	-1850.51	  389.73
     62.5700	 1076.00	 1090.94	-1754.19	  389.87
     62.6700	  871.00	  950.00	-1818.25	  390.01
     62.7700	  760.00	  830.54	-1809.79	  390.15
     62.8700	  671.00	  738.30	-1806.55	  390.30
     62.9700	  655.00	  672.65	-1756.90	  390.44
     63.0700	  641.00	  629.20	-1727.45	  390.58
     63.1700	  630.00	  602.19	-1711.44	  390.72
     63.2700	  619.00	  586.37	-1706.62	  390.87
     63.3700	  530.00	  577.84	-1787.09	  391.01
     63.4700	  587.00	  574.29	-1726.54	  391.15
     63.5700	  546.00	  574.90	-1768.15	  391.30
     63.6700	  572.00	  580.04	-1747.29	  391.44
     63.7700	  575.00	  591.09	-1755.34	  391.59
     63.8700	  641.00	  610.04	-1708.29	  391.73
     63.9700	  673.00	  639.01	-1705.26	  391.88
     64.0700	  701.00	  679.44	-1717.69	  392.02
     64.1700	  768.00	  731.15	-1702.40	  392.17
     64.2700	  848.00	  791.44	-1682.69	  392.31
     64.3700	  894.00	  854.42	-1699.67	  392.46
     64.4700	  949.00	  911.04	-1701.29	  392.60
     64.5700	 1053.00	  950.09	-1636.34	  392.75
     64.6700	 1017.00	  964.07	-1686.32	  392.89
     64.7700	 1029.00	  950.73	-1660.98	  393.04
     64.8700	  916.00	  914.79	-1738.04	  393.18
     64.9700	  894.00	  865.00	-1710.25	  393.33
     65.0700	  832.00	  810.71	-1717.96	  393.47
     65.1700	  762.00	  759.38	-1736.63	  393.62
     65.2700	  709.00	  715.11	-1745.36	  393.76
     65.3700	  647.00	  678.86	-1771.11	  393.91
     65.4700	  646.00	  649.72	-1742.97	  394.06
     65.5700	  666.00	  626.37	-1699.62	  394.20
     65.6700	  578.00	  607.85	-1769.10	  394.35
     65.7700	  602.00	  593.46	-1730.71	  394.49
     65.8700	  609.00	  582.67	-1712.92	  394.64
     65.9700	  539.00	  575.04	-1775.29	  394.78
     66.0700	  573.00	  570.15	-1736.40	  394.93
     66.1700	  566.00	  567.60	-1740.85	  395.07
     66.2700	  537.00	  566.97	-1769.22	  395.22
     66.3700	  528.00	  567.95	-1779.20	  395.36
     66.4700	  569.00	  570.36	-1740.61	  395.51
     66.5700	  551.00	  574.31	-1762.56	  395.65
     66.6700	  561.00	  579.97	-1758.22	  395.79
     66.7700	  560.00	  588.33	-1767.58	  395.94
     66.8700	  594.00	  601.12	-1746.37	  396.08
     66.9700	  613.00	  621.35	-1747.60	  396.23
     67.0700	  633.00	  653.81	-1760.06	  396.37
     67.1700	  708.00	  705.29	-1736.54	  396.51
     67.2700	  819.00	  784.41	-1704.66	  396.66
     67.3700	  865.00	  900.45	-1774.70	  396.80
     67.4700	 1084.00	 1060.93	-1716.18	  396.94
     67.5700	 1246.00	 1268.70	-1761.95	  397.08
     67.6700	 1577.00	 1517.84	-1680.09	  397.23
     67.7700	 1804.00	 1791.39	-1726.64	  397.37
     67.8700	 2096.00	 2060.25	-1703.50	  397.51
     67.9700	 2297.00	 2283.24	-1725.49	  397.65
     68.0700	 2446.00	 2414.55	-1707.80	  397.79
     68.1700	 2508.00	 2420.49	-1651.74	  397.93
     68.2700	 2286.00	 2299.41	-1752.66	  398.07
     68.3700	 2105.00	 2082.81	-1717.06	  398.21
     68.4700	 1867.00	 1816.57	-1688.82	  398.35
     68.5700	 1535.00	 1542.28	-1746.53	  398.49
     68.6700	 1230.00	 1290.59	-1799.84	  398.63
     68.7700	 1045.00	 1079.45	-1773.70	  398.77
     68.8700	  854.00	  915.42	-1800.67	  398.91
     68.9700	  803.00	  796.33	-1732.58	  399.04
     69.0700	  677.00	  714.89	-1777.14	  399.18
     69.1700	  657.00	  661.90	-1744.15	  399.32
     69.2700	  659.00	  628.63	-1708.88	  399.45
     69.3700	  571.00	  608.06	-1776.31	  399.59
     69.4700	  618.00	  595.26	-1716.51	  399.72
     69.5700	  610.00	  587.06	-1716.31	  399.86
     69.6700	  582.00	  581.59	-1738.84	  399.99
     69.7700	  637.00	  577.83	-1680.08	  400.13
     69.8700	  649.00	  575.23	-1665.48	  400.26
     69.9700	  595.00	  573.51	-1717.76	  400.39
     70.0700	  553.00	  572.55	-1758.80	  400.53
     70.1700	  582.00	  572.28	-1729.53	  400.66
     70.2700	  531.00	  572.77	-1781.02	  400.79
     70.3700	  617.00	  574.06	-1696.31	  400.92
     70.4700	  593.00	  576.41	-1722.66	  401.05
     70.5700	  578.00	  580.30	-1741.55	  401.18
     70.6700	  597.00	  586.59	-1728.84	  401.31
     70.7700	  561.00	  596.80	-1775.05	  401.44
     70.8700	  601.00	  613.32	-1751.57	  401.56
     70.9700	  612.00	  639.71	-1766.96	  401.69
     71.0700	  652.00	  680.69	-1767.94	  401.82
     71.1700	  740.00	  741.94	-1741.19	  401.94
     71.2700	  795.00	  829.19	-1773.44	  402.07
     71.3700	  935.00	  946.72	-1750.97	  402.19
     71.4700	 1092.00	 1095.59	-1742.84	  402.32
     71.5700	 1271.00	 1271.60	-1739.85	  402.44
     71.6700	 1367.00	 1464.80	-1837.05	  402.56
     71.7700	 1558.00	 1655.55	-1836.80	  402.68
     71.8700	 1770.00	 1819.83	-1789.08	  402.80
     71.9700	 1900.00	 1929.36	-1768.61	  402.92
     72.0700	 2012.00	 1960.47	-1687.72	  403.04
     72.1700	 1967.00	 1905.71	-1677.96	  403.16
     72.2700	 1751.00	 1778.20	-1766.45	  403.28
     72.3700	 1637.00	 1603.69	-1705.94	  403.40
     72.4700	 1472.00	 1410.88	-1678.13	  403.51
     72.5700	 1291.00	 1222.28	-1670.53	  403.63
     72.6700	 1123.00	 1053.67	-1669.92	  403.74
     72.7700	 1075.00	  913.67	-1577.92	  403.86
     72.8700	  984.00	  804.65	-1559.90	  403.97
     72.9700	  866.00	  724.43	-1597.68	  404.08
     73.0700	  803.00	  668.21	-1604.46	  404.19
     73.1700	  800.00	  630.30	-1569.55	  404.30
     73.2700	  735.00	  605.39	-1609.64	  404.41
     73.3700	  645.00	  589.19	-1683.44	  404.52
     73.4700	  618.00	  578.60	-1699.85	  404.63
     73.5700	  592.00	  571.57	-1718.82	  404.74
     73.6700	  590.00	  566.84	-1716.09	  404.84
     73.7700	  628.00	  563.69	-1674.94	  404.95
     73.8700	  633.00	  561.72	-1667.97	  405.05
     73.9700	  672.00	  560.70	-1627.95	  405.16
     74.0700	  629.00	  560.45	-1670.70	  405.26
     74.1700	  642.00	  560.82	-1658.07	  405.36
     74.2700	  607.00	  561.59	-1693.84	  405.46
     74.3700	  625.00	  562.51	-1676.76	  405.56
     74.4700	  637.00	  563.27	-1665.52	  405.66
     74.5700	  642.00	  563.55	-1660.80	  405.76
     74.6700	  606.00	  563.12	-1696.37	  405.85
     74.7700	  652.00	  561.90	-1649.15	  405.95
     74.8700	  607.00	  560.07	-1692.32	  406.04
     74.9700	  589.00	  557.93	-1708.18	  406.14
     75.0700	  545.00	  555.83	-1750.08	  406.23
     75.1700	  557.00	  554.10	-1736.35	  406.32
     75.2700	  552.00	  553.22	-1740.47	  406.41
     75.3700	  529.00	  553.47	-1763.72	  406.50
     75.4700	  568.00	  555.37	-1726.62	  406.59
     75.5700	  601.00	  559.28	-1697.53	  406.68
     75.6700	  593.00	  565.87	-1712.12	  406.76
     75.7700	  582.00	  575.51	-1732.76	  406.85
     75.8700	  615.00	  588.49	-1712.74	  406.93
     75.9700	  600.00	  604.77	-1744.02	  407.02
     76.0700	  624.00	  623.85	-1739.10	  407.10
     76.1700	  623.00	  644.63	-1760.88	  407.18
     76.2700	  666.00	  665.40	-1738.65	  407.26
     76.3700	  675.00	  683.89	-1748.14	  407.34
     76.4700	  740.00	  697.44	-1696.69	  407.42
     76.5700	  658.00	  703.64	-1784.89	  407.49
     76.6700	  729.00	  701.19	-1711.44	  407.57
     76.7700	  657.00	  690.58	-1772.83	  407.64
     76.8700	  682.00	  673.82	-1731.07	  407.71
     76.9700	  655.00	  653.36	-1737.61	  407.78
     77.0700	  568.00	  632.04	-1803.29	  407.85
     77.1700	  608.00	  611.66	-1742.91	  407.92
     77.2700	  569.00	  593.59	-1763.84	  407.99
     77.3700	  546.00	  578.54	-1771.79	  408.06
     77.4700	  504.00	  566.71	-1801.96	  408.12
     77.5700	  513.00	  557.88	-1784.13	  408.19
     77.6700	  541.00	  551.60	-1749.85	  408.25
     77.7700	  572.00	  547.31	-1714.56	  408.31
     77.8700	  541.00	  544.48	-1742.73	  408.37
     77.9700	  541.00	  542.65	-1740.90	  408.43
     78.0700	  554.00	  541.49	-1726.74	  408.49
     78.1700	  525.00	  540.76	-1755.01	  408.55
     78.2700	  471.00	  540.30	-1808.55	  408.60
     78.3700	  533.00	  540.01	-1746.26	  408.66
     78.4700	  533.00	  539.86	-1746.11	  408.71
     78.5700	  457.00	  539.81	-1822.06	  408.76
     78.6700	  566.00	  539.85	-1713.10	  408.81
     78.7700	  524.00	  540.00	-1755.25	  408.86
     78.8700	  526.00	  540.29	-1753.54	  408.91
     78.9700	  518.00	  540.73	-1761.98	  408.95
     79.0700	  488.00	  541.37	-1792.62	  409.00
     79.1700	  550.00	  542.26	-1731.51	  409.04
     79.2700	  519.00	  543.46	-1763.71	  409.08
     79.3700	  532.00	  544.86	-1752.11	  409.13
     79.4700	  547.00	  546.86	-1739.11	  409.16
     79.5700	  525.00	  549.36	-1763.61	  409.20
     79.6700	  531.00	  552.45	-1760.70	  409.24
     79.7700	  550.00	  556.22	-1745.47	  409.28
     79.8700	  524.00	  560.81	-1776.06	  409.31
     79.9700	  508.00	  566.41	-1797.66	  409.34
     80.0700	  521.00	  573.24	-1791.49	  409.37
     80.1700	  548.00	  581.61	-1772.86	  409.40
     80.2700	  567.00	  591.86	-1764.11	  409.43
     80.3700	  542.00	  604.28	-1801.53	  409.46
     80.4700	  551.00	  619.00	-1807.25	  409.48
     80.5700	  588.00	  635.90	-1787.15	  409.51
     80.6700	  583.00	  654.48	-1810.73	  409.53
     80.7700	  657.00	  673.85	-1756.10	  409.55
     80.8700	  627.00	  692.76	-1805.01	  409.57
     80.9700	  611.00	  709.77	-1838.02	  409.59
     81.0700	  763.00	  723.50	-1699.75	  409.61
     81.1700	  741.00	  732.91	-1731.16	  409.62
     81.2700	  811.00	  737.31	-1665.56	  409.64
     81.3700	  772.00	  736.43	-1703.68	  409.65
     81.4700	  778.00	  730.49	-1691.74	  409.66
     81.5700	  750.00	  720.13	-1709.38	  409.67
     81.6700	  760.00	  706.24	-1685.49	  409.68
     81.7700	  769.00	  689.81	-1660.06	  409.68
     81.8700	  741.00	  671.90	-1670.15	  409.69
     81.9700	  718.00	  653.62	-1674.87	  409.69
     82.0700	  683.00	  635.97	-1692.22	  409.69
     82.1700	  698.00	  619.61	-1660.86	  409.69
     82.2700	  594.00	  605.10	-1750.35	  409.69
     82.3700	  611.00	  592.58	-1720.83	  409.69
     82.4700	  586.00	  582.07	-1735.32	  409.69
     82.5700	  627.00	  573.53	-1685.78	  409.68
     82.6700	  577.00	  566.83	-1729.08	  409.67
     82.7700	  599.00	  561.91	-1702.16	  409.66
     82.8700	  555.00	  558.63	-1742.88	  409.65
     82.9700	  576.00	  556.87	-1720.12	  409.64
     83.0700	  564.00	  556.54	-1731.79	  409.63
     83.1700	  569.00	  557.53	-1727.78	  409.61
     83.2700	  537.00	  559.73	-1761.98	  409.60
     83.3700	  533.00	  562.98	-1769.23	  409.58
     83.4700	  555.00	  567.05	-1751.30	  409.56
     83.5700	  567.00	  571.61	-1743.86	  409.54
     83.6700	  573.00	  576.28	-1742.53	  409.52
     83.7700	  540.00	  580.57	-1779.82	  409.49
     83.8700	  547.00	  583.94	-1776.19	  409.47
     83.9700	  563.00	  585.90	-1762.15	  409.44
     84.0700	  594.00	  586.07	-1731.32	  409.41
     84.1700	  591.00	  584.39	-1732.64	  409.38
     84.2700	  560.00	  581.09	-1760.34	  409.35
     84.3700	  556.00	  576.59	-1759.84	  409.32
     84.4700	  508.00	  571.40	-1802.65	  409.28
     84.5700	  552.00	  565.99	-1753.24	  409.24
     84.6700	  527.00	  560.74	-1772.99	  409.21
     84.7700	  520.00	  555.92	-1775.17	  409.17
     84.8700	  567.00	  551.73	-1723.98	  409.12
     84.9700	  541.00	  548.25	-1746.50	  409.08
     85.0700	  514.00	  545.48	-1770.73	  409.04
     85.1700	  507.00	  543.38	-1775.63	  408.99
     85.2700	  532.00	  541.85	-1749.10	  408.94
     85.3700	  539.00	  540.82	-1741.07	  408.89
     85.4700	  517.00	  540.18	-1762.43	  408.84
     85.5700	  582.00	  539.86	-1697.11	  408.79
     85.6700	  569.00	  539.83	-1710.08	  408.73
     85.7700	  528.00	  540.07	-1751.32	  408.68
     85.8700	  540.00	  540.59	-1739.84	  408.62
     85.9700	  535.00	  541.46	-1745.71	  408.56
     86.0700	  579.00	  542.78	-1703.03	  408.50
     86.1700	  517.00	  544.66	-1766.91	  408.44
     86.2700	  539.00	  547.26	-1747.51	  408.37
     86.3700	  534.00	  550.75	-1756.00	  408.31
     86.4700	  568.00	  555.28	-1726.53	  408.24
     86.5700	  567.00	  560.96	-1733.21	  408.17
     86.6700	  576.00	  567.84	-1731.09	  408.10
     86.7700	  592.00	  575.85	-1723.10	  408.03
     86.8700	  607.00	  584.43	-1716.68	  407.95
     86.9700	  598.00	  593.86	-1735.11	  407.88
     87.0700	  607.00	  603.25	-1735.50	  407.80
     87.1700	  658.00	  611.93	-1693.18	  407.72
     87.2700	  611.00	  619.11	-1747.36	  407.64
     87.3700	  686.00	  624.00	-1677.25	  407.56
     87.4700	  675.00	  626.01	-1690.26	  407.48
     87.5700	  655.00	  624.89	-1709.14	  407.39
     87.6700	  627.00	  620.85	-1733.10	  407.31
     87.7700	  590.00	  614.51	-1763.76	  407.22
     87.8700	  669.00	  606.68	-1676.93	  407.13
     87.9700	  631.00	  598.22	-1706.47	  407.04
     88.0700	  614.00	  589.90	-1715.15	  406.94
     88.1700	  638.00	  582.41	-1683.67	  406.85
     88.2700	  598.00	  576.27	-1717.52	  406.75
     88.3700	  592.00	  571.83	-1719.08	  406.65
     88.4700	  550.00	  569.27	-1758.52	  406.55
     88.5700	  564.00	  568.60	-1743.85	  406.45
     88.6700	  595.00	  569.69	-1713.94	  406.35
     88.7700	  545.00	  572.28	-1766.53	  406.25
     88.8700	  612.00	  576.02	-1703.27	  406.14
     88.9700	  600.00	  580.44	-1719.69	  406.03
     89.0700	  605.00	  585.04	-1719.29	  405.92
     89.1700	  626.00	  589.25	-1702.50	  405.81
     89.2700	  566.00	  592.53	-1765.78	  405.70
     89.3700	  604.00	  594.38	-1729.63	  405.59
     89.4700	  583.00	  594.49	-1750.74	  405.47
     89.5700	  528.00	  592.78	-1804.03	  405.35
     89.6700	  568.00	  589.44	-1760.69	  405.24
     89.7700	  556.00	  584.84	-1768.09	  405.12
     89.8700	  549.00	  579.43	-1769.68	  404.99
     89.9700	  572.00	  573.67	-1740.92	  404.87
     90.0700	  544.00	  567.92	-1763.17	  404.74
     90.1700	  537.00	  562.49	-1764.74	  404.62
     90.2700	  491.00	  557.61	-1805.86	  404.49
     90.3700	  574.00	  553.41	-1718.66	  404.36
     90.4700	  534.00	  549.95	-1755.20	  404.23
     90.5700	  513.00	  547.21	-1773.46	  404.10
     90.6700	  549.00	  545.15	-1735.40	  403.96
     90.7700	  554.00	  543.70	-1728.95	  403.83
     90.8700	  535.00	  542.76	-1747.01	  403.69
     90.9700	  537.00	  542.28	-1744.53	  403.55
     91.0700	  528.00	  542.18	-1753.43	  403.41
     91.1700	  499.00	  542.44	-1782.69	  403.27
     91.2700	  524.00	  543.07	-1758.32	  403.12
     91.3700	  586.00	  544.10	-1697.35	  402.98
     91.4700	  515.00	  545.63	-1769.88	  402.83
     91.5700	  505.00	  547.76	-1782.01	  402.68
     91.6700	  537.00	  550.66	-1752.91	  402.54
     91.7700	  496.00	  554.50	-1797.75	  402.38
     91.8700	  499.00	  559.50	-1799.75	  402.23
     91.9700	  535.00	  565.85	-1770.10	  402.08
     92.0700	  561.00	  573.51	-1751.76	  401.92
     92.1700	  569.00	  583.06	-1753.31	  401.77
     92.2700	  588.00	  594.33	-1745.58	  401.61
     92.3700	  598.00	  607.28	-1748.53	  401.45
     92.4700	  632.00	  621.76	-1729.01	  401.29
     92.5700	  669.00	  637.49	-1707.74	  401.12
     92.6700	  712.00	  654.05	-1681.30	  400.96
     92.7700	  672.00	  670.89	-1738.14	  400.79
     92.8700	  733.00	  687.38	-1693.63	  400.63
     92.9700	  733.00	  702.85	-1709.10	  400.46
     93.0700	  719.00	  716.73	-1736.98	  400.29
     93.1700	  722.00	  728.71	-1745.96	  400.12
     93.2700	  795.00	  738.85	-1683.10	  399.94
     93.3700	  807.00	  747.52	-1679.77	  399.77
     93.4700	  777.00	  755.29	-1717.54	  399.59
     93.5700	  814.00	  762.78	-1688.03	  399.42
     93.6700	  821.00	  770.54	-1688.79	  399.24
     93.7700	  865.00	  779.05	-1653.30	  399.06
     93.8700	  836.00	  788.75	-1692.00	  398.88
     93.9700	  858.00	  800.04	-1681.29	  398.70
     94.0700	  800.00	  813.28	-1752.53	  398.51
     94.1700	  875.00	  828.59	-1692.84	  398.33
     94.2700	  914.00	  845.74	-1670.99	  398.14
     94.3700	  896.00	  864.07	-1707.32	  397.96
     94.4700	  902.00	  882.48	-1719.73	  397.77
     94.5700	  894.00	  899.45	-1744.70	  397.58
     94.6700	  923.00	  913.15	-1729.40	  397.38
     94.7700	  917.00	  921.68	-1743.93	  397.19
     94.8700	  943.00	  923.45	-1719.70	  397.00
     94.9700	  892.00	  917.54	-1764.79	  396.80
     95.0700	  926.00	  904.02	-1717.27	  396.61
     95.1700	  872.00	  883.89	-1751.14	  396.41
     95.2700	  832.00	  858.81	-1766.06	  396.21
     95.3700	  795.00	  830.80	-1775.05	  396.01
     95.4700	  774.00	  801.91	-1767.16	  395.81
     95.5700	  755.00	  774.13	-1758.38	  395.61
     95.6700	  713.00	  749.26	-1775.51	  395.40
     95.7700	  683.00	  728.97	-1785.22	  395.20
     95.8700	  732.00	  714.70	-1721.95	  394.99
     95.9700	  662.00	  707.73	-1784.98	  394.78
     96.0700	  646.00	  709.18	-1802.43	  394.58
     96.1700	  701.00	  719.97	-1758.22	  394.37
     96.2700	  721.00	  740.80	-1759.05	  394.15
     96.3700	  772.00	  772.15	-1739.40	  393.94
     96.4700	  747.00	  814.11	-1806.36	  393.73
     96.5700	  810.00	  866.38	-1795.63	  393.52
     96.6700	  891.00	  928.10	-1776.35	  393.30
     96.7700	  973.00	  997.76	-1764.01	  393.09
     96.8700	 1075.00	 1073.20	-1737.45	  392.87
     96.9700	 1127.00	 1151.50	-1763.75	  392.65
     97.0700	 1222.00	 1229.10	-1746.35	  392.43
     97.1700	 1312.00	 1301.80	-1729.05	  392.21
     97.2700	 1302.00	 1365.03	-1802.28	  391.99
     97.3700	 1348.00	 1414.25	-1805.50	  391.77
     97.4700	 1437.00	 1445.48	-1747.73	  391.54
     97.5700	 1463.00	 1456.13	-1732.38	  391.32
     97.6700	 1433.00	 1445.56	-1751.81	  391.09
     97.7700	 1483.00	 1415.24	-1671.49	  390.87
     97.8700	 1440.00	 1368.25	-1667.50	  390.64
     97.9700	 1291.00	 1308.70	-1756.95	  390.41
     98.0700	 1253.00	 1240.99	-1727.24	  390.19
     98.1700	 1100.00	 1169.50	-1808.75	  389.96
     98.2700	 1151.00	 1098.21	-1686.46	  389.72
     98.3700	 1062.00	 1030.57	-1707.82	  389.49
     98.4700	  989.00	  969.51	-1719.76	  389.26
     98.5700	  838.00	  917.34	-1818.59	  389.03
     98.6700	  839.00	  875.87	-1776.12	  388.79
     98.7700	  780.00	  846.46	-1805.71	  388.56
     98.8700	  794.00	  830.07	-1775.32	  388.32
     98.9700	  835.00	  827.35	-1731.60	  388.09
     99.0700	  800.00	  838.70	-1777.95	  387.85
     99.1700	  879.00	  864.31	-1724.56	  387.61
     99.2700	  908.00	  904.18	-1735.43	  387.38
     99.3700	  941.00	  958.08	-1756.33	  387.14
     99.4700	 1000.00	 1025.46	-1764.71	  386.90
     99.5700	 1112.00	 1105.40	-1732.65	  386.66
     99.6700	 1179.00	 1196.46	-1756.71	  386.42
     99.7700	 1330.00	 1296.70	-1705.95	  386.17
     99.8700	 1347.00	 1403.46	-1795.71	  385.93
     99.9700	 1574.00	 1513.41	-1678.66	  385.69
    100.0700	 1681.00	 1622.54	-1680.79	  385.44
    100.1700	 1695.00	 1726.42	-1770.67	  385.20
    100.2700	 1708.00	 1820.58	-1851.83	  384.96
    100.3700	 1829.00	 1901.01	-1811.26	  384.71
    100.4700	 2034.00	 1964.52	-1669.77	  384.47
    100.5700	 2076.00	 2008.93	-1672.18	  384.22
    100.6700	 2180.00	 2032.88	-1592.13	  383.97
    100.7700	 2067.00	 2035.66	-1707.91	  383.73
    100.8700	 2067.00	 2017.10	-1689.35	  383.48
    100.9700	 2006.00	 1977.85	-1711.10	  383.23
    101.0700	 1941.00	 1919.74	-1717.99	  382.98
    101.1700	 1827.00	 1845.98	-1758.23	  382.73
    101.2700	 1778.00	 1760.88	-1722.13	  382.48
    101.3700	 1686.00	 1669.41	-1722.66	  382.23
    101.4700	 1579.00	 1576.54	-1736.79	  381.98
    101.5700	 1536.00	 1486.75	-1690.00	  381.73
    101.6700	 1438.00	 1403.69	-1704.94	  381.48
    101.7700	 1374.00	 1329.95	-1695.20	  381.23
    101.8700	 1302.00	 1267.08	-1704.33	  380.98
    101.9700	 1227.00	 1215.59	-1727.84	  380.73
    102.0700	 1202.00	 1175.00	-1712.25	  380.48
    102.1700	 1134.00	 1143.99	-1749.24	  380.23
    102.2700	 1079.00	 1120.50	-1780.75	  379.98
    102.3700	 1036.00	 1101.98	-1805.23	  379.72
    102.4700	 1068.00	 1085.69	-1756.94	  379.47
    102.5700	 1104.00	 1069.00	-1704.25	  379.22
    102.6700	 1056.00	 1049.75	-1733.00	  378.97
    102.7700	 1036.00	 1026.50	-1729.75	  378.71
    102.8700	  943.00	  998.68	-1794.93	  378.46
    102.9700	  938.00	  966.50	-1767.75	  378.21
    103.0700	  940.00	  930.76	-1730.01	  377.96
    103.1700	  879.00	  892.57	-1752.82	  377.71
    103.2700	  841.00	  853.18	-1751.43	  377.45
    103.3700	  830.00	  813.82	-1723.07	  377.20
    103.4700	  767.00	  775.62	-1747.87	  376.95
    103.5700	  758.00	  739.53	-1720.78	  376.70
    103.6700	  674.00	  706.29	-1771.54	  376.44
    103.7700	  653.00	  676.42	-1762.67	  376.19
    103.8700	  713.00	  650.23	-1676.48	  375.94
    103.9700	  620.00	  627.79	-1747.04	  375.69
    104.0700	  602.00	  609.03	-1746.28	  375.44
    104.1700	  588.00	  593.70	-1744.95	  375.19
    104.2700	  593.00	  581.51	-1727.76	  374.94
    104.3700	  602.00	  572.08	-1709.33	  374.69
    104.4700	  527.00	  565.02	-1777.27	  374.44
    104.5700	  551.00	  559.95	-1748.20	  374.19
    104.6700	  517.00	  556.52	-1778.77	  373.94
    104.7700	  531.00	  554.42	-1762.67	  373.69
    104.8700	  574.00	  553.37	-1718.62	  373.44
    104.9700	  533.00	  553.17	-1759.42	  373.19
    105.0700	  552.00	  553.65	-1740.90	  372.95
    105.1700	  541.00	  554.67	-1752.92	  372.70
    105.2700	  521.00	  556.15	-1774.40	  372.45
    105.3700	  550.00	  558.05	-1747.30	  372.21
    105.4700	  551.00	  560.35	-1748.60	  371.96
    105.5700	  541.00	  563.10	-1761.35	  371.72
    105.6700	  574.00	  566.35	-1731.60	  371.47
    105.7700	  570.00	  570.19	-1739.44	  371.23
    105.8700	  540.00	  574.75	-1774.00	  370.99
    105.9700	  580.00	  580.10	-1739.35	  370.74
    106.0700	  544.00	  586.33	-1781.58	  370.50
    106.1700	  588.00	  593.47	-1744.72	  370.26
    106.2700	  566.00	  601.49	-1774.74	  370.02
    106.3700	  578.00	  610.32	-1771.57	  369.78
    106.4700	  630.00	  619.80	-1729.05	  369.54
    106.5700	  593.00	  629.71	-1775.96	  369.31
    106.6700	  631.00	  639.77	-1748.02	  369.07
    106.7700	  625.00	  649.67	-1763.92	  368.84
    106.8700	  654.00	  659.04	-1744.29	  368.60
    106.9700	  665.00	  667.50	-1741.75	  368.37
    107.0700	  634.00	  674.70	-1779.95	  368.14
    107.1700	  712.00	  680.37	-1707.62	  367.90
    107.2700	  663.00	  684.36	-1760.61	  367.67
    107.3700	  683.00	  686.66	-1742.91	  367.45
    107.4700	  612.00	  687.47	-1814.72	  367.22
    107.5700	  733.00	  687.10	-1693.35	  366.99
    107.6700	  656.00	  685.96	-1769.21	  366.76
    107.7700	  672.00	  684.50	-1751.75	  366.54
    107.8700	  672.00	  683.13	-1750.38	  366.32
    107.9700	  698.00	  682.18	-1723.43	  366.10
    108.0700	  703.00	  681.88	-1718.13	  365.88
    108.1700	  656.00	  682.37	-1765.62	  365.66
    108.2700	  682.00	  683.65	-1740.90	  365.44
    108.3700	  703.00	  685.59	-1721.84	  365.22
    108.4700	  712.00	  687.95	-1715.20	  365.01
    108.5700	  694.00	  690.40	-1735.65	  364.79
    108.6700	  688.00	  692.54	-1743.79	  364.58
    108.7700	  696.00	  693.91	-1737.16	  364.37
    108.8700	  686.00	  694.08	-1747.33	  364.16
    108.9700	  712.00	  692.69	-1719.94	  363.96
    109.0700	  727.00	  689.49	-1701.74	  363.75
    109.1700	  680.00	  684.40	-1743.65	  363.55
    109.2700	  659.00	  677.49	-1757.74	  363.34
    109.3700	  649.00	  668.99	-1759.24	  363.14
    109.4700	  691.00	  659.20	-1707.45	  362.95
    109.5700	  664.00	  648.49	-1723.74	  362.75
    109.6700	  649.00	  637.24	-1727.49	  362.55
    109.7700	  598.00	  625.82	-1767.07	  362.36
    109.8700	  621.00	  614.56	-1732.81	  362.17
    109.9700	  604.00	  603.77	-1739.02	  361.98
    110.0700	  589.00	  593.67	-1743.92	  361.79
    110.1700	  584.00	  584.47	-1739.72	  361.61
    110.2700	  594.00	  576.27	-1721.52	  361.43
    110.3700	  587.00	  569.16	-1721.41	  361.24
    110.4700	  573.00	  563.16	-1729.41	  361.07
    110.5700	  562.00	  558.24	-1735.49	  360.89
    110.6700	  541.00	  554.35	-1752.60	  360.71
    110.7700	  539.00	  551.41	-1751.66	  360.54
    110.8700	  579.00	  549.33	-1709.58	  360.37
    110.9700	  528.00	  548.02	-1759.27	  360.21
    111.0700	  585.00	  547.36	-1701.61	  360.04
    111.1700	  515.00	  547.26	-1771.51	  359.88
    111.2700	  507.00	  547.65	-1779.90	  359.72
    111.3700	  576.00	  548.44	-1711.69	  359.56
    111.4700	  529.00	  549.58	-1759.83	  359.40
    111.5700	  546.00	  551.02	-1744.27	  359.25
    111.6700	  514.00	  552.71	-1777.96	  359.10
    111.7700	  559.00	  554.63	-1734.88	  358.95
    111.8700	  522.00	  556.76	-1774.01	  358.81
    111.9700	  564.00	  559.10	-1734.35	  358.66
    112.0700	  572.00	  561.65	-1728.90	  358.53
    112.1700	  601.00	  564.41	-1702.66	  358.39
    112.2700	  584.00	  567.41	-1722.66	  358.25
    112.3700	  577.00	  570.67	-1732.92	  358.12
    112.4700	  576.00	  574.22	-1737.47	  358.00
    112.5700	  607.00	  578.13	-1710.38	  357.87
    112.6700	  592.00	  582.44	-1729.69	  357.75
    112.7700	  655.00	  587.24	-1671.49	  357.63
    112.8700	  623.00	  592.65	-1708.90	  357.51
    112.9700	  656.00	  598.79	-1682.04	  357.40
    113.0700	  654.00	  605.85	-1691.10	  357.29
    113.1700	  683.00	  614.08	-1670.33	  357.18
    113.2700	  729.00	  623.75	-1634.00	  357.08
    113.3700	  765.00	  635.30	-1609.55	  356.98
    113.4700	  735.00	  649.20	-1653.45	  356.88
    113.5700	  812.00	  666.09	-1593.34	  356.79
    113.6700	  814.00	  686.74	-1611.99	  356.70
    113.7700	  832.00	  712.10	-1619.35	  356.61
    113.8700	  923.00	  743.33	-1559.58	  356.53
    113.9700	  942.00	  781.77	-1579.02	  356.45
    114.0700	  996.00	  828.99	-1572.24	  356.37
    114.1700	 1045.00	  886.79	-1581.04	  356.30
    114.2700	 1097.00	  957.17	-1599.42	  356.23
    114.3700	 1167.00	 1042.32	-1614.57	  356.16
    114.4700	 1281.00	 1144.53	-1602.78	  356.10
    114.5700	 1466.00	 1266.18	-1539.43	  356.04
    114.6700	 1550.00	 1409.57	-1598.82	  355.99
    114.7700	 1655.00	 1576.88	-1661.13	  355.94
    114.8700	 1939.00	 1770.03	-1570.28	  355.89
    114.9700	 2107.00	 1990.45	-1622.70	  355.85
    115.0700	 2299.00	 2238.98	-1679.23	  355.81
    115.1700	 2537.00	 2515.66	-1717.91	  355.78
    115.2700	 2716.00	 2819.72	-1842.97	  355.75
    115.3700	 3073.00	 3149.33	-1815.58	  355.72
    115.4700	 3422.00	 3501.46	-1818.71	  355.70
    115.5700	 3737.00	 3871.88	-1874.13	  355.68
    115.6700	 4150.00	 4255.07	-1844.32	  355.67
    115.7700	 4477.00	 4644.37	-1906.62	  355.66
    115.8700	 4826.00	 5031.96	-1945.21	  355.66
    115.9700	 5236.00	 5408.79	-1912.04	  355.66
    116.0700	 5506.00	 5764.96	-1998.21	  355.66
    116.1700	 5874.00	 6089.84	-1955.09	  355.67
    116.2700	 6268.00	 6372.70	-1843.95	  355.69
    116.3700	 6535.00	 6603.10	-1807.35	  355.70
    116.4700	 6794.00	 6771.63	-1716.88	  355.73
    116.5700	 6957.00	 6870.98	-1653.23	  355.76
    116.6700	 6921.00	 6896.71	-1714.96	  355.79
    116.7700	 6938.00	 6847.83	-1649.08	  355.83
    116.8700	 6850.00	 6726.89	-1616.14	  355.87
    116.9700	 6631.00	 6539.71	-1647.96	  355.91
    117.0700	 6262.00	 6294.60	-1771.85	  355.97
    117.1700	 6020.00	 6001.51	-1720.76	  356.02
    117.2700	 5587.00	 5671.03	-1823.28	  356.09
    117.3700	 5204.00	 5313.77	-1849.02	  356.15
    117.4700	 4858.00	 4939.98	-1821.23	  356.23
    117.5700	 4589.00	 4559.05	-1709.30	  356.30
    117.6700	 4251.00	 4179.40	-1667.65	  356.39
    117.7700	 4012.00	 3808.19	-1535.44	  356.48
    117.8700	 3641.00	 3451.34	-1549.59	  356.57
    117.9700	 3279.00	 3113.67	-1573.92	  356.67
    118.0700	 2927.00	 2798.71	-1610.96	  356.77
    118.1700	 2561.00	 2508.87	-1687.12	  356.88
    118.2700	 2315.00	 2245.43	-1669.68	  357.00
    118.3700	 1969.00	 2008.78	-1779.03	  357.12
    118.4700	 1720.00	 1798.57	-1817.82	  357.25
    118.5700	 1559.00	 1613.79	-1794.04	  357.38
    118.6700	 1329.00	 1452.98	-1863.23	  357.52
    118.7700	 1238.00	 1314.26	-1815.51	  357.67
    118.8700	 1121.00	 1195.55	-1813.80	  357.82
    118.9700	  995.00	 1094.74	-1838.99	  357.97
    119.0700	  959.00	 1009.65	-1789.90	  358.14
    119.1700	  877.00	  938.23	-1800.48	  358.31
    119.2700	  847.00	  878.53	-1770.78	  358.48
    119.3700	  758.00	  828.77	-1810.02	  358.66
    119.4700	  694.00	  787.38	-1832.63	  358.85
    119.5700	  671.00	  752.99	-1821.24	  359.04
    119.6700	  663.00	  724.42	-1800.67	  359.24
    119.7700	  640.00	  700.65	-1799.90	  359.45
    119.8700	  663.00	  680.87	-1757.12	  359.66
    119.9700	  630.00	  664.36	-1773.61	  359.88
    120.0700	  580.00	  650.58	-1809.83	  360.11
    120.1700	  597.00	  639.07	-1781.32	  360.34
    120.2700	  635.00	  629.45	-1733.70	  360.58
    120.3700	  586.00	  621.44	-1774.69	  360.83
    120.4700	  535.00	  614.80	-1819.05	  361.08
    120.5700	  563.00	  609.35	-1785.60	  361.34
    120.6700	  591.00	  604.95	-1753.20	  361.61
    120.7700	  572.00	  601.47	-1768.72	  361.88
    120.8700	  546.00	  598.84	-1792.09	  362.16
    120.9700	  599.00	  596.98	-1737.23	  362.45
    121.0700	  604.00	  595.83	-1731.08	  362.75
    121.1700	  539.00	  595.34	-1795.59	  363.05
    121.2700	  567.00	  595.47	-1767.72	  363.36
    121.3700	  570.00	  596.18	-1765.43	  363.68
    121.4700	  588.00	  597.41	-1748.66	  364.00
    121.5700	  642.00	  599.12	-1696.37	  364.34
    121.6700	  611.00	  601.26	-1729.51	  364.68
    121.7700	  580.00	  603.76	-1763.01	  365.03
    121.8700	  599.00	  606.53	-1746.78	  365.38
    121.9700	  586.00	  609.54	-1762.79	  365.74
    122.0700	  620.00	  612.69	-1731.94	  366.12
    122.1700	  645.00	  615.88	-1710.13	  366.49
    122.2700	  585.00	  619.01	-1773.26	  366.88
    122.3700	  615.00	  622.00	-1746.25	  367.28
    122.4700	  626.00	  624.73	-1737.98	  367.68
    122.5700	  632.00	  627.12	-1734.37	  368.09
    122.6700	  648.00	  629.06	-1720.31	  368.51
    122.7700	  627.00	  630.51	-1742.76	  368.94
    122.8700	  587.00	  631.40	-1783.65	  369.37
    122.9700	  628.00	  631.70	-1742.95	  369.82
    123.0700	  647.00	  631.41	-1723.66	  370.27
    123.1700	  669.00	  630.56	-1700.81	  370.73
    123.2700	  638.00	  629.17	-1730.42	  371.20
    123.3700	  639.00	  627.31	-1727.56	  371.68
    123.4700	  623.00	  625.04	-1741.29	  372.17
    123.5700	  569.00	  622.42	-1792.67	  372.66
    123.6700	  642.00	  619.53	-1716.78	  373.17
    123.7700	  626.00	  616.43	-1729.68	  373.68
    123.8700	  655.00	  613.20	-1697.45	  374.20
    123.9700	  599.00	  609.91	-1750.16	  374.74
    124.0700	  647.00	  606.60	-1698.85	  375.28
    124.1700	  623.00	  603.33	-1719.58	  375.83
    124.2700	  624.00	  600.14	-1715.39	  376.39
    124.3700	  674.00	  597.08	-1662.33	  376.96
    124.4700	  598.00	  594.18	-1735.43	  377.53
    124.5700	  573.00	  591.45	-1757.70	  378.12
    124.6700	  637.00	  588.92	-1691.17	  378.72
    124.7700	  583.00	  586.61	-1742.86	  379.33
    124.8700	  646.00	  584.52	-1677.77	  379.94
    124.9700	  570.00	  499.12	-1668.37	  380.57
    125.0700	  604.00	  499.76	-1739.25	  381.20
    125.1700	  586.00	  500.40	-1739.25	  381.85
    125.2700	  581.00	  501.06	-1739.25	  382.51
    125.3700	  576.00	  501.72	-1739.25	  383.17
    125.4700	  571.00	  502.40	-1739.25	  383.85
    125.5700	  545.00	  503.09	-1739.25	  384.53
    125.6700	  580.00	  503.78	-1739.25	  385.23
    125.7700	  579.00	  504.49	-1739.25	  385.94
    125.8700	  532.00	  505.21	-1739.25	  386.65
    125.9700	  562.00	  505.94	-1739.25	  387.38
    126.0700	  557.00	  506.67	-1739.25	  388.12
    126.1700	  578.00	  507.42	-1739.25	  388.87
    126.2700	  604.00	  508.18	-1739.25	  389.63
    126.3700	  552.00	  508.95	-1739.25	  390.40
    126.4700	  618.00	  509.73	-1739.25	  391.18
    126.5700	  626.00	  510.53	-1739.25	  391.97
    126.6700	  581.00	  511.33	-1739.25	  392.78
    126.7700	  606.00	  512.14	-1739.25	  393.59
    126.8700	  621.00	  512.97	-1739.25	  394.42
    126.9700	  624.00	  513.81	-1739.25	  395.25
    127.0700	  635.00	  514.65	-1739.25	  396.10
    127.1700	  648.00	  515.51	-1739.25	  396.96
    127.2700	  689.00	  516.38	-1739.25	  397.83
    127.3700	  621.00	  517.27	-1739.25	  398.71
    127.4700	  666.00	  518.16	-1739.25	  399.61
    127.5700	  690.00	  519.06	-1739.25	  400.51
    127.6700	  687.00	  519.98	-1739.25	  401.43
    127.7700	  730.00	  520.91	-1739.25	  402.36
    127.8700	  741.00	  521.85	-1739.25	  403.30
    127.9700	  731.00	  522.81	-1739.25	  404.25
    128.0700	  771.00	  523.77	-1739.25	  405.22
    128.1700	  721.00	  524.75	-1739.25	  406.19
    128.2700	  778.00	  525.74	-1739.25	  407.18
    128.3700	  785.00	  526.74	-1739.25	  408.19
    128.4700	  811.00	  527.75	-1739.25	  409.20
    128.5700	    0.00	  528.78	-1739.25	  410.23
    128.6700	    0.00	  529.82	-1739.25	  411.27
     12.3039	        	        	        	        	       0	(  0  0  2)	  0  1
     24.8860	        	        	        	        	       0	(  0  0  4)	  0  1
     28.3295	        	        	        	        	       0	(  1  0  0)	  0  1
     29.0266	        	        	        	        	       0	(  1  0  1)	  0  1
     31.0325	        	        	        	        	       0	(  1  0  2)	  0  1
     34.1404	        	        	        	        	       0	(  1  0  3)	  0  1
     37.7839	        	        	        	        	       0	(  0  0  6)	  0  1
     38.1169	        	        	        	        	       0	(  1  0  4)	  0  1
     42.7664	        	        	        	        	       0	(  1  0  5)	  0  1
     47.9497	        	        	        	        	       0	(  1  0  6)	  0  1
     50.2661	        	        	        	        	       0	(  1  1  0)	  0  1
     51.2040	        	        	        	        	       0	(  0  0  8)	  0  1
     51.9888	        	        	        	        	       0	(  1  1  2)	  0  1
     53.5794	        	        	        	        	       0	(  1  0  7)	  0  1
     56.9359	        	        	        	        	       0	(  1  1  4)	  0  1
     58.7629	        	        	        	        	       0	(  2  0  0)	  0  1
     59.1545	        	        	        	        	       0	(  2  0  1)	  0  1
     59.6089	        	        	        	        	       0	(  1  0  8)	  0  1
     60.3197	        	        	        	        	       0	(  2  0  2)	  0  1
     62.2326	        	        	        	        	       0	(  2  0  3)	  0  1
     64.6293	        	        	        	        	       0	(  1  1  6)	  0  1
     64.8562	        	        	        	        	       0	(  2  0  4)	  0  1
     65.4310	        	        	        	        	       0	(  0  0 10)	  0  1
     66.0242	        	        	        	        	       0	(  1  0  9)	  0  1
     68.1499	        	        	        	        	       0	(  2  0  5)	  0  1
     72.0767	        	        	        	        	       0	(  2  0  6)	  0  1
     72.8391	        	        	        	        	       0	(  1  0 10)	  0  1
     74.6653	        	        	        	        	       0	(  1  1  8)	  0  1
     76.6100	        	        	        	        	       0	(  2  0  7)	  0  1
     80.0954	        	        	        	        	       0	(  1  0 11)	  0  1
     80.9086	        	        	        	        	       0	(  0  0 12)	  0  1
     81.0037	        	        	        	        	       0	(  2  1  0)	  0  1
     81.3436	        	        	        	        	       0	(  2  1  1)	  0  1
     81.7393	        	        	        	        	       0	(  2  0  8)	  0  1
     82.3612	        	        	        	        	       0	(  2  1  2)	  0  1
     84.0522	        	        	        	        	       0	(  2  1  3)	  0  1
     86.4114	        	        	        	        	       0	(  2  1  4)	  0  1
     86.9343	        	        	        	        	       0	(  1  1 10)	  0  1
     87.4762	        	        	        	        	       0	(  2  0  9)	  0  1
     87.8680	        	        	        	        	       0	(  1  0 12)	  0  1
     89.4366	        	        	        	        	       0	(  2  1  5)	  0  1
     93.1333	        	        	        	        	       0	(  2  1  6)	  0  1
     93.8622	        	        	        	        	       0	(  2  0 10)	  0  1
     94.8923	        	        	        	        	       0	(  3  0  0)	  0  1
     95.2296	        	        	        	        	       0	(  3  0  1)	  0  1
     96.2426	        	        	        	        	       0	(  3  0  2)	  0  1
     96.2793	        	        	        	        	       0	(  1  0 13)	  0  1
     97.5209	        	        	        	        	       0	(  2  1  7)	  0  1
     97.9356	        	        	        	        	       0	(  3  0  3)	  0  1
     98.4438	        	        	        	        	       0	(  0  0 14)	  0  1
    100.3181	        	        	        	        	       0	(  3  0  4)	  0  1
    100.9824	        	        	        	        	       0	(  2  0 11)	  0  1
    101.8012	        	        	        	        	       0	(  1  1 12)	  0  1
    102.6422	        	        	        	        	       0	(  2  1  8)	  0  1
    103.4090	        	        	        	        	       0	(  3  0  5)	  0  1
    105.5294	        	        	        	        	       0	(  1  0 14)	  0  1
    107.2432	        	        	        	        	       0	(  3  0  6)	  0  1
    108.5776	        	        	        	        	       0	(  2  1  9)	  0  1
    108.9915	        	        	        	        	       0	(  2  0 12)	  0  1
    111.8824	        	        	        	        	       0	(  3  0  7)	  0  1
    115.4726	        	        	        	        	       0	(  2  1 10)	  0  1
    115.9695	        	        	        	        	       0	(  1  0 15)	  0  1
    116.6168	        	        	        	        	       0	(  2  2  0)	  0  1
    117.4344	        	        	        	        	       0	(  3  0  8)	  0  1
    118.1316	        	        	        	        	       0	(  2  2  2)	  0  1
    118.1731	        	        	        	        	       0	(  2  0 13)	  0  1
    119.9253	        	        	        	        	       0	(  0  0 16)	  0  1
    120.6397	        	        	        	        	       0	(  1  1 14)	  0  1
    122.8160	        	        	        	        	       0	(  2  2  4)	  0  1
    123.5971	        	        	        	        	       0	(  2  1 11)	  0  1
    124.0925	        	        	        	        	       0	(  3  0  9)	  0  1
    124.6818	        	        	        	        	       0	(  3  1  0)	  0  1
    125.0919	        	        	        	        	       0	(  3  1  1)	  0  1
    126.3351	        	        	        	        	       0	(  3  1  2)	  0  1
    128.3081	        	        	        	        	       0	(  1  0 16)	  0  1
    128.4528	        	        	        	        	       0	(  3  1  3)	  0  1
    129.0991	        	        	        	        	       0	(  2  0 14)	  0  1
    131.2536	        	        	        	        	       0	(  2  2  6)	  0  1
    131.5279	        	        	        	        	       0	(  3  1  4)	  0  1
    132.2306	        	        	        	        	       0	(  3  0 10)	  0  1
    133.5061	        	        	        	        	       0	(  2  1 12)	  0  1
    135.7139	        	        	        	        	       0	(  3  1  5)	  0  1
    141.3077	        	        	        	        	       0	(  3  1  6)	  0  1
    142.7056	        	        	        	        	       0	(  3  0 11)	  0  1
    143.2330	        	        	        	        	       0	(  2  0 15)	  0  1
    144.4702	        	        	        	        	       0	(  1  0 17)	  0  1
    145.4834	        	        	        	        	       0	(  2  2  8)	  0  1
    146.6565	        	        	        	        	       0	(  2  1 13)	  0  1
    148.9786	        	        	        	        	       0	(  3  1  7)	  0  1
    149.5631	        	        	        	        	       0	(  1  1 16)	  0  1
    153.9599	        	        	        	        	       0	(  0  0 18)	  0  1
    158.5776	        	        	        	        	       0	(  3  0 12)	  0  1
    158.8380	        	        	        	        	       0	(  4  0  0)	  0  1
    159.7947	        	        	        	        	       0	(  4  0  1)	  0  1
    160.9684	        	        	        	        	       0	(  3  1  8)	  0  1
    162.9730	        	        	        	        	       0	(  4  0  2)	  0  1
    169.6597	        	        	        	        	       0	(  2  0 16)	  0  1
    170.3193	        	        	        	        	       0	(  4  0  3)	  0  1
    174.0897	        	        	        	        	       0	(  2  1 14)	  0  1
