MSG Master    CELL:    5.91959   5.91959  23.28281   90.0000   90.0000  120.0000   SPGR: P 63/m m c             TEMP:   1074.85
  1   1280     2.52000     0.00000    -0.12979     0.00000     0.00000    0
    99     0     2
       0.00000      10.00000
     125.00000     130.00000
 2Theta	Yobs	Ycal	Yobs-Ycal	Backg	Posr	(hkl)	K
      0.7700	    0.00	  545.11	-1725.50	  426.33
      0.8700	    0.00	  545.79	-1725.50	  427.01
      0.9700	   50.00	  546.46	-1725.50	  427.68
      1.0700	   40.00	  547.13	-1725.50	  428.35
      1.1700	   37.00	  547.78	-1725.50	  429.00
      1.2700	   32.00	  548.43	-1725.50	  429.64
      1.3700	   53.00	  549.06	-1725.50	  430.28
      1.4700	  106.00	  549.68	-1725.50	  430.90
      1.5700	  296.00	  550.29	-1725.50	  431.51
      1.6700	  477.00	  550.90	-1725.50	  432.12
      1.7700	  586.00	  551.49	-1725.50	  432.71
      1.8700	  664.00	  552.07	-1725.50	  433.29
      1.9700	  713.00	  552.65	-1725.50	  433.87
      2.0700	  798.00	  553.21	-1725.50	  434.43
      2.1700	  788.00	  553.77	-1725.50	  434.99
      2.2700	  706.00	  554.31	-1725.50	  435.53
      2.3700	  729.00	  554.85	-1725.50	  436.07
      2.4700	  666.00	  555.38	-1725.50	  436.60
      2.5700	  709.00	  555.89	-1725.50	  437.11
      2.6700	  660.00	  556.40	-1725.50	  437.62
      2.7700	  711.00	  556.90	-1725.50	  438.12
      2.8700	  620.00	  557.39	-1725.50	  438.61
      2.9700	  642.00	  557.87	-1725.50	  439.09
      3.0700	  584.00	  558.34	-1725.50	  439.56
      3.1700	  638.00	  558.80	-1725.50	  440.02
      3.2700	  616.00	  559.26	-1725.50	  440.48
      3.3700	  685.00	  559.70	-1725.50	  440.92
      3.4700	  772.00	  560.14	-1725.50	  441.36
      3.5700	  816.00	  560.57	-1725.50	  441.79
      3.6700	  866.00	  560.99	-1725.50	  442.21
      3.7700	  904.00	  561.40	-1725.50	  442.62
      3.8700	 1035.00	  561.80	-1725.50	  443.02
      3.9700	 1032.00	  562.20	-1725.50	  443.42
      4.0700	  967.00	  562.58	-1725.50	  443.80
      4.1700	 1066.00	  562.96	-1725.50	  444.18
      4.2700	 1078.00	  563.33	-1725.50	  444.55
      4.3700	 1122.00	  563.69	-1725.50	  444.91
      4.4700	 1156.00	  564.04	-1725.50	  445.26
      4.5700	 1002.00	  564.39	-1725.50	  445.61
      4.6700	 1078.00	  564.72	-1725.50	  445.94
      4.7700	 1063.00	  565.05	-1725.50	  446.27
      4.8700	  938.00	  565.38	-1725.50	  446.60
      4.9700	  927.00	  565.69	-1725.50	  446.91
      5.0700	  967.00	  566.00	-1725.50	  447.22
      5.1700	  968.00	  566.29	-1725.50	  447.51
      5.2700	  949.00	  566.58	-1725.50	  447.80
      5.3700	  905.00	  566.87	-1725.50	  448.09
      5.4700	  936.00	  567.14	-1725.50	  448.36
      5.5700	  892.00	  567.41	-1725.50	  448.63
      5.6700	  841.00	  567.67	-1725.50	  448.89
      5.7700	  839.00	  567.93	-1725.50	  449.15
      5.8700	  773.00	  568.17	-1725.50	  449.39
      5.9700	  836.00	  568.41	-1725.50	  449.63
      6.0700	  801.00	  568.65	-1725.50	  449.87
      6.1700	  788.00	  568.87	-1725.50	  450.09
      6.2700	  767.00	  569.09	-1725.50	  450.31
      6.3700	  765.00	  569.30	-1725.50	  450.52
      6.4700	  751.00	  569.51	-1725.50	  450.73
      6.5700	  734.00	  569.70	-1725.50	  450.92
      6.6700	  792.00	  569.89	-1725.50	  451.11
      6.7700	  693.00	  570.08	-1725.50	  451.30
      6.8700	  717.00	  570.26	-1725.50	  451.48
      6.9700	  683.00	  570.43	-1725.50	  451.65
      7.0700	  626.00	  570.59	-1725.50	  451.81
      7.1700	  703.00	  570.75	-1725.50	  451.97
      7.2700	  641.00	  570.90	-1725.50	  452.12
      7.3700	  673.00	  571.05	-1725.50	  452.27
      7.4700	  659.00	  571.19	-1725.50	  452.41
      7.5700	  697.00	  571.32	-1725.50	  452.54
      7.6700	  666.00	  571.45	-1725.50	  452.66
      7.7700	  647.00	  571.57	-1725.50	  452.78
      7.8700	  613.00	  571.68	-1725.50	  452.90
      7.9700	  628.00	  571.79	-1725.50	  453.01
      8.0700	  610.00	  571.89	-1725.50	  453.11
      8.1700	  642.00	  571.99	-1725.50	  453.21
      8.2700	  599.00	  572.08	-1725.50	  453.30
      8.3700	  691.00	  572.16	-1725.50	  453.38
      8.4700	  660.00	  572.24	-1725.50	  453.46
      8.5700	  613.00	  572.31	-1725.50	  453.53
      8.6700	  706.00	  572.38	-1725.50	  453.60
      8.7700	  602.00	  572.44	-1725.50	  453.66
      8.8700	  648.00	  572.50	-1725.50	  453.72
      8.9700	  622.00	  572.55	-1725.50	  453.77
      9.0700	  621.00	  572.60	-1725.50	  453.82
      9.1700	  581.00	  572.64	-1725.50	  453.86
      9.2700	  594.00	  572.67	-1725.50	  453.89
      9.3700	  633.00	  572.70	-1725.50	  453.92
      9.4700	  598.00	  572.72	-1725.50	  453.94
      9.5700	  635.00	  572.74	-1725.50	  453.96
      9.6700	  619.00	  572.76	-1725.50	  453.98
      9.7700	  628.00	  572.76	-1725.50	  453.98
      9.8700	  617.00	  572.77	-1725.50	  453.99
      9.9700	  601.00	  572.77	-1725.50	  453.99
     10.0700	  625.00	  573.81	-1674.31	  453.98
     10.1700	  610.00	  573.91	-1689.41	  453.97
     10.2700	  613.00	  574.04	-1686.54	  453.95
     10.3700	  615.00	  574.21	-1684.71	  453.93
     10.4700	  550.00	  574.46	-1749.96	  453.91
     10.5700	  581.00	  574.84	-1719.34	  453.87
     10.6700	  608.00	  575.45	-1692.95	  453.84
     10.7700	  547.00	  576.38	-1754.88	  453.80
     10.8700	  614.00	  577.70	-1689.20	  453.76
     10.9700	  602.00	  579.41	-1702.91	  453.71
     11.0700	  576.00	  581.48	-1730.98	  453.65
     11.1700	  609.00	  583.91	-1700.41	  453.60
     11.2700	  558.00	  586.76	-1754.26	  453.53
     11.3700	  556.00	  590.10	-1759.60	  453.47
     11.4700	  570.00	  594.07	-1749.57	  453.40
     11.5700	  602.00	  598.90	-1722.40	  453.32
     11.6700	  661.00	  604.97	-1669.47	  453.24
     11.7700	  631.00	  612.86	-1707.36	  453.16
     11.8700	  570.00	  623.26	-1778.76	  453.07
     11.9700	  676.00	  636.21	-1685.71	  452.98
     12.0700	  664.00	  649.54	-1711.04	  452.88
     12.1700	  668.00	  657.54	-1715.04	  452.78
     12.2700	  678.00	  652.40	-1699.90	  452.68
     12.3700	  701.00	  633.10	-1657.60	  452.57
     12.4700	  609.00	  610.63	-1727.13	  452.46
     12.5700	  644.00	  593.76	-1675.26	  452.35
     12.6700	  603.00	  583.83	-1706.33	  452.23
     12.7700	  567.00	  578.78	-1737.28	  452.11
     12.8700	  600.00	  576.26	-1701.76	  451.98
     12.9700	  615.00	  574.83	-1685.33	  451.85
     13.0700	  565.00	  573.88	-1734.38	  451.72
     13.1700	  555.00	  573.15	-1743.65	  451.58
     13.2700	  537.00	  572.58	-1761.08	  451.44
     13.3700	  553.00	  572.10	-1744.60	  451.30
     13.4700	  556.00	  571.68	-1741.19	  451.15
     13.5700	  569.00	  571.32	-1727.82	  451.00
     13.6700	  524.00	  571.00	-1772.50	  450.84
     13.7700	  562.00	  570.70	-1734.20	  450.69
     13.8700	  539.00	  570.42	-1756.92	  450.53
     13.9700	  586.00	  570.15	-1709.65	  450.36
     14.0700	  582.00	  569.90	-1713.40	  450.20
     14.1700	  597.00	  569.66	-1698.16	  450.03
     14.2700	  574.00	  569.42	-1720.92	  449.85
     14.3700	  590.00	  569.19	-1704.69	  449.68
     14.4700	  568.00	  568.96	-1726.46	  449.50
     14.5700	  520.00	  568.74	-1774.24	  449.32
     14.6700	  554.00	  568.52	-1740.02	  449.13
     14.7700	  526.00	  568.30	-1767.80	  448.94
     14.8700	  566.00	  568.08	-1727.58	  448.75
     14.9700	  572.00	  567.86	-1721.36	  448.56
     15.0700	  539.00	  567.64	-1754.14	  448.36
     15.1700	  560.00	  567.41	-1732.91	  448.16
     15.2700	  554.00	  567.19	-1738.69	  447.96
     15.3700	  556.00	  566.97	-1736.47	  447.76
     15.4700	  567.00	  566.77	-1725.27	  447.55
     15.5700	  518.00	  566.55	-1774.05	  447.34
     15.6700	  541.00	  566.33	-1750.83	  447.13
     15.7700	  545.00	  566.10	-1746.60	  446.91
     15.8700	  569.00	  565.87	-1722.37	  446.70
     15.9700	  552.00	  565.64	-1739.14	  446.48
     16.0700	  560.00	  565.41	-1730.91	  446.25
     16.1700	  527.00	  565.18	-1763.68	  446.03
     16.2700	  538.00	  564.94	-1752.44	  445.80
     16.3700	  560.00	  564.71	-1730.21	  445.58
     16.4700	  549.00	  564.47	-1740.97	  445.34
     16.5700	  611.00	  564.23	-1678.73	  445.11
     16.6700	  561.00	  563.99	-1728.49	  444.87
     16.7700	  569.00	  563.75	-1720.25	  444.64
     16.8700	  534.00	  563.50	-1755.00	  444.40
     16.9700	  534.00	  563.26	-1754.76	  444.16
     17.0700	  570.00	  563.01	-1718.51	  443.91
     17.1700	  552.00	  562.76	-1736.26	  443.67
     17.2700	  557.00	  562.51	-1731.01	  443.42
     17.3700	  558.00	  562.26	-1729.76	  443.17
     17.4700	  560.00	  562.00	-1727.50	  442.92
     17.5700	  557.00	  561.74	-1730.24	  442.66
     17.6700	  527.00	  561.49	-1759.99	  442.41
     17.7700	  583.00	  561.23	-1703.73	  442.15
     17.8700	  564.00	  560.97	-1722.47	  441.89
     17.9700	  565.00	  560.71	-1721.21	  441.63
     18.0700	  601.00	  560.44	-1684.94	  441.37
     18.1700	  559.00	  560.28	-1726.78	  441.10
     18.2700	  544.00	  560.02	-1741.52	  440.84
     18.3700	  563.00	  559.75	-1722.25	  440.57
     18.4700	  561.00	  559.48	-1723.98	  440.30
     18.5700	  546.00	  559.21	-1738.71	  440.03
     18.6700	  577.00	  558.95	-1707.45	  439.76
     18.7700	  522.00	  558.67	-1762.17	  439.49
     18.8700	  568.00	  558.48	-1715.98	  439.21
     18.9700	  543.00	  558.21	-1740.71	  438.93
     19.0700	  540.00	  557.94	-1743.44	  438.66
     19.1700	  539.00	  557.66	-1744.16	  438.38
     19.2700	  560.00	  557.39	-1722.89	  438.10
     19.3700	  594.00	  557.11	-1688.61	  437.82
     19.4700	  581.00	  556.84	-1701.34	  437.53
     19.5700	  565.00	  556.56	-1717.06	  437.25
     19.6700	  503.00	  556.28	-1778.78	  436.96
     19.7700	  562.00	  556.00	-1719.50	  436.68
     19.8700	  537.00	  555.72	-1744.22	  436.39
     19.9700	  517.00	  555.44	-1763.94	  436.10
     20.0700	  561.00	  555.16	-1719.66	  435.81
     20.1700	  552.00	  554.88	-1728.38	  435.52
     20.2700	  558.00	  554.60	-1722.10	  435.23
     20.3700	  562.00	  554.32	-1717.82	  434.93
     20.4700	  551.00	  554.04	-1728.54	  434.64
     20.5700	  492.00	  553.76	-1787.26	  434.35
     20.6700	  520.00	  553.51	-1759.01	  434.05
     20.7700	  492.00	  553.23	-1786.73	  433.75
     20.8700	  570.00	  552.94	-1708.44	  433.46
     20.9700	  537.00	  552.66	-1741.16	  433.16
     21.0700	  571.00	  552.38	-1706.88	  432.86
     21.1700	  541.00	  552.10	-1736.60	  432.56
     21.2700	  553.00	  551.82	-1724.32	  432.26
     21.3700	  553.00	  551.50	-1724.00	  431.96
     21.4700	  527.00	  551.23	-1749.73	  431.65
     21.5700	  546.00	  550.95	-1730.45	  431.35
     21.6700	  557.00	  550.67	-1719.17	  431.05
     21.7700	  532.00	  550.40	-1743.90	  430.74
     21.8700	  504.00	  550.13	-1771.63	  430.44
     21.9700	  553.00	  549.86	-1722.36	  430.13
     22.0700	  564.00	  549.59	-1711.09	  429.83
     22.1700	  575.00	  549.32	-1699.82	  429.52
     22.2700	  543.00	  549.06	-1731.56	  429.21
     22.3700	  539.00	  548.80	-1735.30	  428.91
     22.4700	  543.00	  548.55	-1731.05	  428.60
     22.5700	  551.00	  548.30	-1722.80	  428.29
     22.6700	  542.00	  548.06	-1731.56	  427.98
     22.7700	  556.00	  547.83	-1717.33	  427.67
     22.8700	  527.00	  547.61	-1746.11	  427.36
     22.9700	  561.00	  547.40	-1711.90	  427.06
     23.0700	  547.00	  547.20	-1725.70	  426.75
     23.1700	  572.00	  547.03	-1700.53	  426.44
     23.2700	  553.00	  546.87	-1719.37	  426.13
     23.3700	  582.00	  546.89	-1690.39	  425.81
     23.4700	  551.00	  546.82	-1721.32	  425.50
     23.5700	  572.00	  546.80	-1700.30	  425.19
     23.6700	  561.00	  546.86	-1711.36	  424.88
     23.7700	  553.00	  547.07	-1719.57	  424.57
     23.8700	  532.00	  547.54	-1741.04	  424.26
     23.9700	  580.00	  548.50	-1694.00	  423.95
     24.0700	  547.00	  550.34	-1728.84	  423.64
     24.1700	  535.00	  553.65	-1744.15	  423.32
     24.2700	  574.00	  559.14	-1710.64	  423.01
     24.3700	  574.00	  567.55	-1719.05	  422.70
     24.4700	  597.00	  579.42	-1707.92	  422.39
     24.5700	  640.00	  594.22	-1679.72	  422.08
     24.6700	  634.00	  608.99	-1700.49	  421.77
     24.7700	  621.00	  617.45	-1721.95	  421.46
     24.8700	  677.00	  612.53	-1661.03	  421.14
     24.9700	  606.00	  595.24	-1714.74	  420.83
     25.0700	  570.00	  575.76	-1731.26	  420.52
     25.1700	  552.00	  561.03	-1734.53	  420.21
     25.2700	  546.00	  552.15	-1731.65	  419.90
     25.3700	  556.00	  547.52	-1717.02	  419.59
     25.4700	  544.00	  545.18	-1726.68	  419.28
     25.5700	  580.00	  543.88	-1689.38	  418.97
     25.6700	  545.00	  543.03	-1723.53	  418.66
     25.7700	  511.00	  542.41	-1756.91	  418.35
     25.8700	  557.00	  541.95	-1710.45	  418.04
     25.9700	  555.00	  541.60	-1712.10	  417.73
     26.0700	  559.00	  541.34	-1707.84	  417.42
     26.1700	  513.00	  541.17	-1753.67	  417.12
     26.2700	  552.00	  541.07	-1714.57	  416.81
     26.3700	  583.00	  541.05	-1683.55	  416.50
     26.4700	  576.00	  541.12	-1690.62	  416.19
     26.5700	  550.00	  541.29	-1716.79	  415.89
     26.6700	  555.00	  541.57	-1712.07	  415.58
     26.7700	  563.00	  541.98	-1704.48	  415.28
     26.8700	  561.00	  542.57	-1707.07	  414.97
     26.9700	  553.00	  543.38	-1715.88	  414.67
     27.0700	  540.00	  544.49	-1729.99	  414.36
     27.1700	  535.00	  546.04	-1736.54	  414.06
     27.2700	  543.00	  548.28	-1730.78	  413.76
     27.3700	  559.00	  551.73	-1718.23	  413.45
     27.4700	  575.00	  557.42	-1707.92	  413.15
     27.5700	  522.00	  567.21	-1770.71	  412.85
     27.6700	  570.00	  584.03	-1739.53	  412.55
     27.7700	  615.00	  611.68	-1722.18	  412.25
     27.8700	  635.00	  653.44	-1743.94	  411.95
     27.9700	  652.00	  709.40	-1782.90	  411.65
     28.0700	  780.00	  772.79	-1718.29	  411.36
     28.1700	  876.00	  826.91	-1676.41	  411.06
     28.2700	  980.00	  847.11	-1592.61	  410.76
     28.3700	  919.00	  820.31	-1626.81	  410.47
     28.4700	  774.00	  771.14	-1722.64	  410.17
     28.5700	  690.00	  736.33	-1771.83	  409.88
     28.6700	  703.00	  731.38	-1753.88	  409.58
     28.7700	  782.00	  750.73	-1694.23	  409.29
     28.8700	  814.00	  774.45	-1685.95	  409.00
     28.9700	  805.00	  775.93	-1696.43	  408.71
     29.0700	  693.00	  739.99	-1772.49	  408.42
     29.1700	  721.00	  682.32	-1686.82	  408.13
     29.2700	  643.00	  628.50	-1711.00	  407.84
     29.3700	  558.00	  590.05	-1757.55	  407.55
     29.4700	  572.00	  566.89	-1720.39	  407.27
     29.5700	  566.00	  554.36	-1713.86	  406.98
     29.6700	  575.00	  547.71	-1698.21	  406.70
     29.7700	  556.00	  543.93	-1713.43	  406.41
     29.8700	  578.00	  541.58	-1689.08	  406.13
     29.9700	  583.00	  540.14	-1682.64	  405.85
     30.0700	  537.00	  539.48	-1727.98	  405.57
     30.1700	  607.00	  539.80	-1658.30	  405.29
     30.2700	  551.00	  541.65	-1716.15	  405.01
     30.3700	  607.00	  546.05	-1664.55	  404.73
     30.4700	  537.00	  554.49	-1742.99	  404.46
     30.5700	  534.00	  568.44	-1759.94	  404.18
     30.6700	  555.00	  587.95	-1758.45	  403.91
     30.7700	  600.00	  610.36	-1735.86	  403.63
     30.8700	  658.00	  629.05	-1696.55	  403.36
     30.9700	  602.00	  634.45	-1757.95	  403.09
     31.0700	  583.00	  620.85	-1763.35	  402.82
     31.1700	  562.00	  595.51	-1759.01	  402.55
     31.2700	  566.00	  570.62	-1730.12	  402.28
     31.3700	  547.00	  552.28	-1730.78	  402.01
     31.4700	  522.00	  541.02	-1744.52	  401.75
     31.5700	  536.00	  534.89	-1724.39	  401.48
     31.6700	  560.00	  531.68	-1697.18	  401.22
     31.7700	  551.00	  529.89	-1704.39	  400.96
     31.8700	  537.00	  528.78	-1717.28	  400.70
     31.9700	  527.00	  528.02	-1726.52	  400.44
     32.0700	  528.00	  527.51	-1725.01	  400.18
     32.1700	  513.00	  527.19	-1739.69	  399.92
     32.2700	  539.00	  527.04	-1713.54	  399.66
     32.3700	  571.00	  527.05	-1681.55	  399.41
     32.4700	  577.00	  527.23	-1675.73	  399.16
     32.5700	  541.00	  527.59	-1712.09	  398.90
     32.6700	  506.00	  528.19	-1747.69	  398.65
     32.7700	  563.00	  529.05	-1691.55	  398.40
     32.8700	  529.00	  530.28	-1726.78	  398.15
     32.9700	  559.00	  532.00	-1698.50	  397.91
     33.0700	  560.00	  534.48	-1699.98	  397.66
     33.1700	  528.00	  538.29	-1735.79	  397.42
     33.2700	  572.00	  544.64	-1698.14	  397.17
     33.3700	  514.00	  556.06	-1767.56	  396.93
     33.4700	  591.00	  577.11	-1711.61	  396.69
     33.5700	  638.00	  614.53	-1702.03	  396.45
     33.6700	  659.00	  675.24	-1741.74	  396.21
     33.7700	  821.00	  760.90	-1665.40	  395.98
     33.8700	  878.00	  860.53	-1708.03	  395.74
     33.9700	 1001.00	  946.53	-1671.03	  395.51
     34.0700	 1075.00	  978.93	-1629.43	  395.28
     34.1700	 1001.00	  931.99	-1656.49	  395.04
     34.2700	  905.00	  830.61	-1651.11	  394.81
     34.3700	  761.00	  724.36	-1688.86	  394.59
     34.4700	  644.00	  642.01	-1723.51	  394.36
     34.5700	  540.00	  589.21	-1774.71	  394.13
     34.6700	  571.00	  559.67	-1714.17	  393.91
     34.7700	  557.00	  544.20	-1712.70	  393.69
     34.8700	  556.00	  535.87	-1705.37	  393.47
     34.9700	  540.00	  530.83	-1716.32	  393.25
     35.0700	  486.00	  527.35	-1766.85	  393.03
     35.1700	  538.00	  524.73	-1712.23	  392.81
     35.2700	  477.00	  522.67	-1771.17	  392.60
     35.3700	  546.00	  521.00	-1700.50	  392.38
     35.4700	  530.00	  519.61	-1715.11	  392.17
     35.5700	  527.00	  518.45	-1716.95	  391.96
     35.6700	  550.00	  517.45	-1692.95	  391.75
     35.7700	  518.00	  516.59	-1724.09	  391.55
     35.8700	  536.00	  515.84	-1705.34	  391.34
     35.9700	  512.00	  515.17	-1728.67	  391.14
     36.0700	  528.00	  514.58	-1712.08	  390.93
     36.1700	  522.00	  514.50	-1718.00	  390.73
     36.2700	  495.00	  514.03	-1744.53	  390.53
     36.3700	  498.00	  513.61	-1741.11	  390.33
     36.4700	  498.00	  513.23	-1740.73	  390.14
     36.5700	  505.00	  512.90	-1733.40	  389.94
     36.6700	  517.00	  512.61	-1721.11	  389.75
     36.7700	  508.00	  512.38	-1729.88	  389.55
     36.8700	  512.00	  512.24	-1725.74	  389.36
     36.9700	  519.00	  512.25	-1718.75	  389.18
     37.0700	  502.00	  512.56	-1736.06	  388.99
     37.1700	  529.00	  513.37	-1709.87	  388.80
     37.2700	  516.00	  514.96	-1724.46	  388.62
     37.3700	  526.00	  517.48	-1716.98	  388.43
     37.4700	  508.00	  520.76	-1738.26	  388.25
     37.5700	  550.00	  524.07	-1699.57	  388.07
     37.6700	  574.00	  526.18	-1677.68	  387.90
     37.7700	  513.00	  525.91	-1738.41	  387.72
     37.8700	  512.00	  523.36	-1736.86	  387.55
     37.9700	  514.00	  519.88	-1731.38	  387.37
     38.0700	  492.00	  516.52	-1750.02	  387.20
     38.1700	  480.00	  513.72	-1759.22	  387.03
     38.2700	  533.00	  511.60	-1704.10	  386.86
     38.3700	  492.00	  510.13	-1743.63	  386.70
     38.4700	  543.00	  509.14	-1691.64	  386.53
     38.5700	  496.00	  508.37	-1737.88	  386.37
     38.6700	  528.00	  507.92	-1705.42	  386.21
     38.7700	  489.00	  507.58	-1744.08	  386.05
     38.8700	  522.00	  507.31	-1710.81	  385.89
     38.9700	  506.00	  507.22	-1726.72	  385.73
     39.0700	  500.00	  507.02	-1732.52	  385.58
     39.1700	  479.00	  506.83	-1753.33	  385.42
     39.2700	  495.00	  506.58	-1737.08	  385.27
     39.3700	  508.00	  506.42	-1723.92	  385.12
     39.4700	  526.00	  506.27	-1705.77	  384.97
     39.5700	  454.00	  506.14	-1777.64	  384.83
     39.6700	  548.00	  506.01	-1683.51	  384.68
     39.7700	  537.00	  505.89	-1694.39	  384.54
     39.8700	  516.00	  505.79	-1715.29	  384.40
     39.9700	  490.00	  505.69	-1741.19	  384.25
     40.0700	  470.00	  505.60	-1761.10	  384.12
     40.1700	  507.00	  505.52	-1724.02	  383.98
     40.2700	  542.00	  505.46	-1688.96	  383.84
     40.3700	  510.00	  505.41	-1720.91	  383.71
     40.4700	  497.00	  505.37	-1733.87	  383.58
     40.5700	  512.00	  505.35	-1718.85	  383.45
     40.6700	  530.00	  505.35	-1700.85	  383.32
     40.7700	  515.00	  505.37	-1715.87	  383.19
     40.8700	  476.00	  505.42	-1754.92	  383.07
     40.9700	  517.00	  505.50	-1714.00	  382.94
     41.0700	  502.00	  505.61	-1729.11	  382.82
     41.1700	  492.00	  505.78	-1739.28	  382.70
     41.2700	  532.00	  506.44	-1699.94	  382.58
     41.3700	  497.00	  506.74	-1735.24	  382.47
     41.4700	  478.00	  507.11	-1754.61	  382.35
     41.5700	  460.00	  507.65	-1773.15	  382.24
     41.6700	  526.00	  508.42	-1707.92	  382.13
     41.7700	  519.00	  509.58	-1716.08	  382.01
     41.8700	  500.00	  511.51	-1737.01	  381.91
     41.9700	  508.00	  515.00	-1732.50	  381.80
     42.0700	  522.00	  521.41	-1724.91	  381.69
     42.1700	  497.00	  532.65	-1761.15	  381.59
     42.2700	  533.00	  550.63	-1743.13	  381.49
     42.3700	  529.00	  575.94	-1772.44	  381.39
     42.4700	  586.00	  606.09	-1745.59	  381.29
     42.5700	  598.00	  634.01	-1761.51	  381.19
     42.6700	  598.00	  649.36	-1776.86	  381.10
     42.7700	  627.00	  643.95	-1742.45	  381.00
     42.8700	  537.00	  620.00	-1808.50	  380.91
     42.9700	  572.00	  588.83	-1742.33	  380.82
     43.0700	  520.00	  560.21	-1765.71	  380.73
     43.1700	  533.00	  538.64	-1731.14	  380.65
     43.2700	  497.00	  524.61	-1753.11	  380.56
     43.3700	  527.00	  516.50	-1715.00	  380.48
     43.4700	  506.00	  512.07	-1731.57	  380.39
     43.5700	  535.00	  509.65	-1700.15	  380.31
     43.6700	  541.00	  508.42	-1692.92	  380.23
     43.7700	  503.00	  507.49	-1729.99	  380.16
     43.8700	  500.00	  506.82	-1732.32	  380.08
     43.9700	  528.00	  506.31	-1703.81	  380.01
     44.0700	  515.00	  505.92	-1716.42	  379.94
     44.1700	  523.00	  505.61	-1708.11	  379.87
     44.2700	  505.00	  505.37	-1725.87	  379.80
     44.3700	  520.00	  505.19	-1710.69	  379.73
     44.4700	  534.00	  505.06	-1696.56	  379.66
     44.5700	  549.00	  504.96	-1681.46	  379.60
     44.6700	  505.00	  504.90	-1725.40	  379.54
     44.7700	  505.00	  504.86	-1725.36	  379.48
     44.8700	  529.00	  504.86	-1701.36	  379.42
     44.9700	  506.00	  504.75	-1724.25	  379.36
     45.0700	  480.00	  504.98	-1750.48	  379.30
     45.1700	  502.00	  505.05	-1728.55	  379.25
     45.2700	  539.00	  505.14	-1691.64	  379.20
     45.3700	  527.00	  505.26	-1703.76	  379.14
     45.4700	  490.00	  505.40	-1740.90	  379.09
     45.5700	  493.00	  505.57	-1738.07	  379.05
     45.6700	  510.00	  505.76	-1721.26	  379.00
     45.7700	  500.00	  505.98	-1731.48	  378.95
     45.8700	  533.00	  506.23	-1698.73	  378.91
     45.9700	  497.00	  506.51	-1735.01	  378.87
     46.0700	  487.00	  506.83	-1745.33	  378.83
     46.1700	  504.00	  507.19	-1728.69	  378.79
     46.2700	  512.00	  507.59	-1721.09	  378.75
     46.3700	  502.00	  508.06	-1731.56	  378.72
     46.4700	  521.00	  508.58	-1713.08	  378.68
     46.5700	  533.00	  509.19	-1701.69	  378.65
     46.6700	  541.00	  509.90	-1694.40	  378.62
     46.7700	  485.00	  510.74	-1751.24	  378.59
     46.8700	  538.00	  511.86	-1699.36	  378.56
     46.9700	  587.00	  513.34	-1651.84	  378.54
     47.0700	  519.00	  515.50	-1722.00	  378.51
     47.1700	  516.00	  518.98	-1728.48	  378.49
     47.2700	  505.00	  524.65	-1745.15	  378.47
     47.3700	  526.00	  533.55	-1733.05	  378.45
     47.4700	  543.00	  546.45	-1728.95	  378.43
     47.5700	  557.00	  563.09	-1731.59	  378.41
     47.6700	  553.00	  581.49	-1753.99	  378.40
     47.7700	  584.00	  597.59	-1739.09	  378.38
     47.8700	  582.00	  605.93	-1749.43	  378.37
     47.9700	  600.00	  603.11	-1728.61	  378.36
     48.0700	  573.00	  591.14	-1743.64	  378.35
     48.1700	  559.00	  575.62	-1742.12	  378.34
     48.2700	  571.00	  561.35	-1715.85	  378.33
     48.3700	  546.00	  550.90	-1730.40	  378.33
     48.4700	  538.00	  544.90	-1732.40	  378.32
     48.5700	  551.00	  542.83	-1717.33	  378.32
     48.6700	  540.00	  543.80	-1729.30	  378.32
     48.7700	  560.00	  547.01	-1712.51	  378.32
     48.8700	  524.00	  552.05	-1753.55	  378.32
     48.9700	  531.00	  559.01	-1753.51	  378.33
     49.0700	  523.00	  568.50	-1771.00	  378.33
     49.1700	  561.00	  582.16	-1746.66	  378.34
     49.2700	  563.00	  603.74	-1766.24	  378.34
     49.3700	  583.00	  639.20	-1781.70	  378.35
     49.4700	  666.00	  700.13	-1759.63	  378.36
     49.5700	  776.00	  802.71	-1752.21	  378.38
     49.6700	  856.00	  965.33	-1834.83	  378.39
     49.7700	 1143.00	 1201.33	-1783.83	  378.40
     49.8700	 1448.00	 1507.99	-1785.49	  378.42
     49.9700	 1869.00	 1854.47	-1710.97	  378.44
     50.0700	 2269.00	 2173.19	-1629.69	  378.45
     50.1700	 2512.00	 2366.96	-1580.46	  378.47
     50.2700	 2465.00	 2354.02	-1614.52	  378.50
     50.3700	 2149.00	 2138.50	-1715.00	  378.52
     50.4700	 1833.00	 1809.99	-1702.49	  378.54
     50.5700	 1353.00	 1467.69	-1840.19	  378.57
     50.6700	  995.00	 1174.78	-1905.28	  378.59
     50.7700	  852.00	  957.19	-1830.69	  378.62
     50.8700	  727.00	  813.64	-1812.14	  378.65
     50.9700	  678.00	  727.58	-1775.08	  378.68
     51.0700	  604.00	  678.06	-1799.56	  378.71
     51.1700	  605.00	  647.17	-1767.67	  378.75
     51.2700	  599.00	  624.00	-1750.50	  378.78
     51.3700	  610.00	  604.37	-1719.87	  378.82
     51.4700	  610.00	  587.67	-1703.17	  378.85
     51.5700	  590.00	  574.14	-1709.64	  378.89
     51.6700	  570.00	  563.89	-1719.39	  378.93
     51.7700	  575.00	  556.63	-1707.13	  378.97
     51.8700	  562.00	  552.03	-1715.53	  379.01
     51.9700	  601.00	  549.02	-1673.52	  379.06
     52.0700	  542.00	  547.38	-1730.88	  379.10
     52.1700	  554.00	  546.83	-1718.33	  379.15
     52.2700	  560.00	  547.35	-1712.85	  379.19
     52.3700	  559.00	  549.15	-1715.65	  379.24
     52.4700	  581.00	  552.87	-1697.37	  379.29
     52.5700	  600.00	  559.92	-1685.42	  379.34
     52.6700	  594.00	  572.94	-1704.44	  379.39
     52.7700	  618.00	  596.27	-1703.77	  379.45
     52.8700	  669.00	  635.83	-1692.33	  379.50
     52.9700	  732.00	  697.90	-1691.40	  379.55
     53.0700	  837.00	  786.43	-1674.93	  379.61
     53.1700	  887.00	  899.24	-1737.74	  379.67
     53.2700	 1092.00	 1024.39	-1657.89	  379.73
     53.3700	 1145.00	 1138.01	-1718.51	  379.79
     53.4700	 1118.00	 1207.18	-1814.68	  379.85
     53.5700	 1160.00	 1204.78	-1770.28	  379.91
     53.6700	 1052.00	 1131.40	-1804.90	  379.97
     53.7700	  946.00	 1015.51	-1795.01	  380.03
     53.8700	  877.00	  890.48	-1738.98	  380.10
     53.9700	  775.00	  779.45	-1729.95	  380.17
     54.0700	  658.00	  693.44	-1760.94	  380.23
     54.1700	  611.00	  633.91	-1748.41	  380.30
     54.2700	  554.00	  596.54	-1768.04	  380.37
     54.3700	  603.00	  574.88	-1697.38	  380.44
     54.4700	  561.00	  563.07	-1727.57	  380.51
     54.5700	  582.00	  556.89	-1700.39	  380.58
     54.6700	  603.00	  553.82	-1676.32	  380.66
     54.7700	  580.00	  552.53	-1698.03	  380.73
     54.8700	  587.00	  552.42	-1690.92	  380.81
     54.9700	  573.00	  553.19	-1705.69	  380.88
     55.0700	  560.00	  554.74	-1720.24	  380.96
     55.1700	  563.00	  557.15	-1719.65	  381.04
     55.2700	  599.00	  560.44	-1686.94	  381.12
     55.3700	  541.00	  564.76	-1749.26	  381.20
     55.4700	  579.00	  570.34	-1716.84	  381.28
     55.5700	  557.00	  577.65	-1746.15	  381.36
     55.6700	  590.00	  587.63	-1723.13	  381.44
     55.7700	  626.00	  602.17	-1701.67	  381.53
     55.8700	  598.00	  624.92	-1752.42	  381.61
     55.9700	  614.00	  662.50	-1774.00	  381.70
     56.0700	  650.00	  725.44	-1800.94	  381.78
     56.1700	  767.00	  828.32	-1786.82	  381.87
     56.2700	  920.00	  987.54	-1793.04	  381.96
     56.3700	 1179.00	 1215.94	-1762.44	  382.05
     56.4700	 1411.00	 1515.04	-1829.54	  382.14
     56.5700	 1795.00	 1866.13	-1796.63	  382.23
     56.6700	 2216.00	 2223.81	-1733.31	  382.32
     56.7700	 2404.00	 2514.49	-1835.99	  382.41
     56.8700	 2591.00	 2652.16	-1786.66	  382.50
     56.9700	 2582.00	 2585.13	-1728.63	  382.60
     57.0700	 2258.00	 2339.20	-1806.70	  382.69
     57.1700	 1999.00	 1996.09	-1722.59	  382.79
     57.2700	 1652.00	 1637.97	-1711.47	  382.88
     57.3700	 1257.00	 1320.47	-1788.97	  382.98
     57.4700	 1077.00	 1070.69	-1719.19	  383.08
     57.5700	  872.00	  893.34	-1746.84	  383.18
     57.6700	  806.00	  778.76	-1698.26	  383.28
     57.7700	  697.00	  711.71	-1740.21	  383.38
     57.8700	  702.00	  677.88	-1701.38	  383.48
     57.9700	  688.00	  667.21	-1704.71	  383.58
     58.0700	  688.00	  674.33	-1711.83	  383.68
     58.1700	  726.00	  697.53	-1697.03	  383.78
     58.2700	  765.00	  736.89	-1697.39	  383.89
     58.3700	  773.00	  792.61	-1745.11	  383.99
     58.4700	  948.00	  863.28	-1640.78	  384.09
     58.5700	 1013.00	  944.46	-1656.96	  384.20
     58.6700	 1116.00	 1028.24	-1637.74	  384.31
     58.7700	 1285.00	 1105.54	-1546.04	  384.41
     58.8700	 1339.00	 1170.14	-1556.64	  384.52
     58.9700	 1417.00	 1218.11	-1526.61	  384.63
     59.0700	 1420.00	 1244.00	-1549.50	  384.74
     59.1700	 1397.00	 1243.32	-1571.82	  384.85
     59.2700	 1435.00	 1220.07	-1510.57	  384.95
     59.3700	 1318.00	 1186.43	-1593.93	  385.06
     59.4700	 1237.00	 1154.74	-1643.24	  385.18
     59.5700	 1244.00	 1133.94	-1615.44	  385.29
     59.6700	 1150.00	 1132.59	-1708.09	  385.40
     59.7700	 1175.00	 1159.63	-1710.13	  385.51
     59.8700	 1243.00	 1219.42	-1701.92	  385.62
     59.9700	 1378.00	 1306.17	-1653.67	  385.74
     60.0700	 1453.00	 1401.88	-1674.38	  385.85
     60.1700	 1446.00	 1477.64	-1757.14	  385.96
     60.2700	 1565.00	 1501.18	-1661.68	  386.08
     60.3700	 1472.00	 1454.37	-1707.87	  386.19
     60.4700	 1433.00	 1346.19	-1638.69	  386.31
     60.5700	 1220.00	 1204.26	-1709.76	  386.43
     60.6700	 1035.00	 1056.90	-1747.40	  386.54
     60.7700	  921.00	  924.35	-1728.85	  386.66
     60.8700	  812.00	  817.76	-1731.26	  386.78
     60.9700	  692.00	  740.75	-1774.25	  386.89
     61.0700	  631.00	  692.04	-1786.54	  387.01
     61.1700	  695.00	  668.42	-1698.92	  387.13
     61.2700	  669.00	  667.42	-1723.92	  387.25
     61.3700	  686.00	  688.79	-1728.29	  387.37
     61.4700	  697.00	  734.56	-1763.06	  387.49
     61.5700	  746.00	  807.66	-1787.16	  387.61
     61.6700	  845.00	  909.48	-1789.98	  387.73
     61.7700	 1012.00	 1037.08	-1750.58	  387.85
     61.8700	 1129.00	 1180.53	-1777.03	  387.97
     61.9700	 1265.00	 1321.43	-1781.93	  388.09
     62.0700	 1357.00	 1433.07	-1801.57	  388.21
     62.1700	 1456.00	 1486.07	-1755.57	  388.34
     62.2700	 1382.00	 1462.91	-1806.41	  388.46
     62.3700	 1345.00	 1370.76	-1751.26	  388.58
     62.4700	 1117.00	 1236.00	-1844.50	  388.70
     62.5700	 1057.00	 1087.77	-1756.27	  388.83
     62.6700	  891.00	  948.22	-1782.72	  388.95
     62.7700	  765.00	  830.47	-1790.97	  389.07
     62.8700	  700.00	  739.72	-1765.22	  389.19
     62.9700	  601.00	  675.12	-1799.62	  389.32
     63.0700	  618.00	  632.26	-1739.76	  389.44
     63.1700	  562.00	  605.57	-1769.07	  389.57
     63.2700	  578.00	  589.95	-1737.45	  389.69
     63.3700	  563.00	  581.69	-1744.19	  389.81
     63.4700	  636.00	  578.62	-1668.12	  389.94
     63.5700	  604.00	  580.01	-1701.51	  390.06
     63.6700	  598.00	  586.34	-1713.84	  390.19
     63.7700	  600.00	  598.97	-1724.47	  390.31
     63.8700	  670.00	  619.81	-1675.31	  390.44
     63.9700	  711.00	  650.73	-1665.23	  390.56
     64.0700	  696.00	  692.82	-1722.32	  390.69
     64.1700	  785.00	  745.56	-1686.06	  390.81
     64.2700	  836.00	  805.90	-1695.40	  390.94
     64.3700	  922.00	  867.80	-1671.30	  391.06
     64.4700	  959.00	  921.78	-1688.28	  391.19
     64.5700	 1066.00	  958.39	-1617.89	  391.31
     64.6700	 1044.00	  969.71	-1651.21	  391.44
     64.7700	 1026.00	  954.68	-1654.18	  391.57
     64.8700	  910.00	  918.16	-1733.66	  391.69
     64.9700	  940.00	  868.47	-1653.97	  391.82
     65.0700	  824.00	  814.48	-1715.98	  391.94
     65.1700	  772.00	  763.17	-1716.67	  392.07
     65.2700	  742.00	  718.37	-1701.87	  392.19
     65.3700	  651.00	  681.13	-1755.63	  392.32
     65.4700	  683.00	  650.91	-1693.41	  392.44
     65.5700	  590.00	  626.85	-1762.35	  392.57
     65.6700	  586.00	  608.12	-1747.62	  392.69
     65.7700	  546.00	  593.98	-1773.48	  392.82
     65.8700	  538.00	  583.70	-1771.20	  392.94
     65.9700	  531.00	  576.64	-1771.14	  393.07
     66.0700	  527.00	  572.29	-1770.79	  393.19
     66.1700	  543.00	  570.17	-1752.67	  393.32
     66.2700	  509.00	  570.02	-1786.52	  393.44
     66.3700	  561.00	  571.33	-1735.83	  393.56
     66.4700	  561.00	  574.09	-1738.59	  393.69
     66.5700	  555.00	  578.42	-1748.92	  393.81
     66.6700	  521.00	  584.78	-1789.28	  393.93
     66.7700	  652.00	  594.23	-1667.73	  394.06
     66.8700	  583.00	  608.68	-1751.18	  394.18
     66.9700	  681.00	  631.36	-1675.86	  394.30
     67.0700	  636.00	  667.22	-1756.72	  394.43
     67.1700	  662.00	  723.08	-1786.58	  394.55
     67.2700	  751.00	  807.17	-1781.67	  394.67
     67.3700	  944.00	  928.04	-1709.54	  394.79
     67.4700	 1110.00	 1091.76	-1707.26	  394.91
     67.5700	 1303.00	 1299.60	-1722.10	  395.04
     67.6700	 1638.00	 1544.58	-1632.08	  395.16
     67.7700	 1755.00	 1809.02	-1779.52	  395.28
     67.8700	 2094.00	 2063.62	-1695.12	  395.40
     67.9700	 2271.00	 2268.07	-1722.57	  395.52
     68.0700	 2384.00	 2379.25	-1720.75	  395.64
     68.1700	 2447.00	 2368.16	-1646.66	  395.76
     68.2700	 2244.00	 2237.73	-1719.23	  395.88
     68.3700	 2020.00	 2021.41	-1726.91	  396.00
     68.4700	 1749.00	 1762.80	-1739.30	  396.11
     68.5700	 1560.00	 1500.39	-1665.89	  396.23
     68.6700	 1282.00	 1261.45	-1704.95	  396.35
     68.7700	  986.00	 1061.62	-1801.12	  396.47
     68.8700	  888.00	  906.28	-1743.78	  396.58
     68.9700	  792.00	  793.11	-1726.61	  396.70
     69.0700	  714.00	  715.19	-1726.69	  396.82
     69.1700	  657.00	  663.97	-1732.47	  396.93
     69.2700	  674.00	  631.39	-1682.89	  397.05
     69.3700	  643.00	  610.97	-1693.47	  397.16
     69.4700	  579.00	  598.08	-1744.58	  397.28
     69.5700	  569.00	  589.72	-1746.22	  397.39
     69.6700	  603.00	  584.12	-1706.62	  397.50
     69.7700	  586.00	  580.26	-1719.76	  397.62
     69.8700	  581.00	  577.62	-1722.12	  397.73
     69.9700	  596.00	  575.95	-1705.45	  397.84
     70.0700	  563.00	  575.06	-1737.56	  397.95
     70.1700	  601.00	  574.95	-1699.45	  398.06
     70.2700	  532.00	  575.65	-1769.15	  398.17
     70.3700	  566.00	  577.30	-1736.80	  398.28
     70.4700	  564.00	  580.20	-1741.70	  398.39
     70.5700	  585.00	  584.93	-1725.43	  398.50
     70.6700	  577.00	  592.51	-1741.01	  398.61
     70.7700	  628.00	  604.61	-1702.11	  398.71
     70.8700	  594.00	  623.87	-1755.37	  398.82
     70.9700	  624.00	  653.96	-1755.46	  398.93
     71.0700	  689.00	  699.66	-1736.16	  399.03
     71.1700	  783.00	  766.40	-1708.90	  399.14
     71.2700	  858.00	  859.26	-1726.76	  399.24
     71.3700	  946.00	  981.65	-1761.15	  399.34
     71.4700	 1161.00	 1133.48	-1697.98	  399.45
     71.5700	 1266.00	 1309.51	-1769.01	  399.55
     71.6700	 1417.00	 1498.20	-1806.70	  399.65
     71.7700	 1680.00	 1681.89	-1727.39	  399.75
     71.8700	 1808.00	 1834.33	-1751.83	  399.85
     71.9700	 1878.00	 1929.06	-1776.56	  399.95
     72.0700	 1913.00	 1945.09	-1757.59	  400.05
     72.1700	 1912.00	 1878.61	-1692.11	  400.15
     72.2700	 1746.00	 1745.24	-1724.74	  400.24
     72.3700	 1528.00	 1571.21	-1768.71	  400.34
     72.4700	 1533.00	 1382.78	-1575.28	  400.44
     72.5700	 1238.00	 1200.80	-1688.30	  400.53
     72.6700	 1172.00	 1038.80	-1592.30	  400.62
     72.7700	  985.00	  904.94	-1645.44	  400.72
     72.8700	  887.00	  800.56	-1639.06	  400.81
     72.9700	  776.00	  723.38	-1672.88	  400.90
     73.0700	  758.00	  668.87	-1636.37	  400.99
     73.1700	  705.00	  631.71	-1652.21	  401.08
     73.2700	  672.00	  606.98	-1660.48	  401.17
     73.3700	  646.00	  590.66	-1670.16	  401.26
     73.4700	  592.00	  579.82	-1713.32	  401.35
     73.5700	  615.00	  572.51	-1683.01	  401.44
     73.6700	  624.00	  567.52	-1669.02	  401.52
     73.7700	  558.00	  564.13	-1731.63	  401.61
     73.8700	  610.00	  561.92	-1677.42	  401.69
     73.9700	  633.00	  560.65	-1653.15	  401.77
     74.0700	  574.00	  560.13	-1711.63	  401.86
     74.1700	  565.00	  560.18	-1720.68	  401.94
     74.2700	  632.00	  560.59	-1654.09	  402.02
     74.3700	  624.00	  561.12	-1662.62	  402.10
     74.4700	  638.00	  561.48	-1648.98	  402.18
     74.5700	  609.00	  561.39	-1677.89	  402.26
     74.6700	  637.00	  560.67	-1649.17	  402.33
     74.7700	  646.00	  559.31	-1638.81	  402.41
     74.8700	  611.00	  557.51	-1672.01	  402.48
     74.9700	  627.00	  555.55	-1654.05	  402.56
     75.0700	  608.00	  553.79	-1671.29	  402.63
     75.1700	  589.00	  552.51	-1689.01	  402.70
     75.2700	  587.00	  552.20	-1690.70	  402.78
     75.3700	  567.00	  553.20	-1711.70	  402.85
     75.4700	  596.00	  555.97	-1685.47	  402.92
     75.5700	  569.00	  560.91	-1717.42	  402.98
     75.6700	  556.00	  568.72	-1738.22	  403.05
     75.7700	  566.00	  579.70	-1739.20	  403.12
     75.8700	  597.00	  594.03	-1722.53	  403.18
     75.9700	  592.00	  611.63	-1745.13	  403.25
     76.0700	  621.00	  631.82	-1736.32	  403.31
     76.1700	  689.00	  653.36	-1689.86	  403.37
     76.2700	  744.00	  674.40	-1655.90	  403.43
     76.3700	  712.00	  692.52	-1706.02	  403.49
     76.4700	  695.00	  705.01	-1735.51	  403.55
     76.5700	  651.00	  709.56	-1784.06	  403.61
     76.6700	  724.00	  705.17	-1706.67	  403.67
     76.7700	  689.00	  692.74	-1729.24	  403.72
     76.8700	  722.00	  674.52	-1678.02	  403.78
     76.9700	  667.00	  653.21	-1711.71	  403.83
     77.0700	  612.00	  631.08	-1744.58	  403.88
     77.1700	  559.00	  610.34	-1776.84	  403.93
     77.2700	  592.00	  592.06	-1725.56	  403.98
     77.3700	  527.00	  576.89	-1775.39	  404.03
     77.4700	  524.00	  564.96	-1766.46	  404.08
     77.5700	  545.00	  556.01	-1736.51	  404.13
     77.6700	  544.00	  549.59	-1731.09	  404.17
     77.7700	  579.00	  545.15	-1691.65	  404.22
     77.8700	  535.00	  542.17	-1732.67	  404.26
     77.9700	  521.00	  540.20	-1744.70	  404.30
     78.0700	  494.00	  538.92	-1770.42	  404.34
     78.1700	  522.00	  538.07	-1741.57	  404.38
     78.2700	  513.00	  537.52	-1750.02	  404.42
     78.3700	  515.00	  537.16	-1747.66	  404.46
     78.4700	  522.00	  536.94	-1740.44	  404.49
     78.5700	  491.00	  536.83	-1771.33	  404.53
     78.6700	  518.00	  536.84	-1744.34	  404.56
     78.7700	  526.00	  536.97	-1736.47	  404.60
     78.8700	  541.00	  537.25	-1721.75	  404.63
     78.9700	  511.00	  537.69	-1752.19	  404.66
     79.0700	  554.00	  538.35	-1709.85	  404.69
     79.1700	  520.00	  539.26	-1744.76	  404.71
     79.2700	  527.00	  540.47	-1738.97	  404.74
     79.3700	  529.00	  542.02	-1738.52	  404.76
     79.4700	  542.00	  543.77	-1727.27	  404.79
     79.5700	  485.00	  546.16	-1786.66	  404.81
     79.6700	  529.00	  549.05	-1745.55	  404.83
     79.7700	  557.00	  552.53	-1721.03	  404.85
     79.8700	  527.00	  556.74	-1755.24	  404.87
     79.9700	  533.00	  561.84	-1754.34	  404.89
     80.0700	  539.00	  568.09	-1754.59	  404.90
     80.1700	  514.00	  575.80	-1787.30	  404.92
     80.2700	  545.00	  585.34	-1765.84	  404.93
     80.3700	  599.00	  597.03	-1723.53	  404.95
     80.4700	  589.00	  611.02	-1747.52	  404.96
     80.5700	  608.00	  627.19	-1744.69	  404.97
     80.6700	  631.00	  645.09	-1739.59	  404.97
     80.7700	  649.00	  663.90	-1740.40	  404.98
     80.8700	  705.00	  682.43	-1702.93	  404.99
     80.9700	  724.00	  699.32	-1700.82	  404.99
     81.0700	  679.00	  713.25	-1759.75	  404.99
     81.1700	  754.00	  723.15	-1694.65	  405.00
     81.2700	  731.00	  728.23	-1722.73	  405.00
     81.3700	  803.00	  728.11	-1650.61	  404.99
     81.4700	  717.00	  722.89	-1731.39	  404.99
     81.5700	  733.00	  713.15	-1705.65	  404.99
     81.6700	  738.00	  699.70	-1687.20	  404.98
     81.7700	  736.00	  683.56	-1673.06	  404.98
     81.8700	  728.00	  665.86	-1663.36	  404.97
     81.9700	  671.00	  647.77	-1702.27	  404.96
     82.0700	  667.00	  630.31	-1688.81	  404.95
     82.1700	  636.00	  614.22	-1703.72	  404.94
     82.2700	  603.00	  599.93	-1722.43	  404.92
     82.3700	  581.00	  587.63	-1732.13	  404.91
     82.4700	  583.00	  577.28	-1719.78	  404.89
     82.5700	  586.00	  568.93	-1708.43	  404.88
     82.6700	  558.00	  562.45	-1729.95	  404.86
     82.7700	  562.00	  557.70	-1721.20	  404.84
     82.8700	  557.00	  554.55	-1723.05	  404.81
     82.9700	  548.00	  552.94	-1730.44	  404.79
     83.0700	  533.00	  552.74	-1745.24	  404.77
     83.1700	  543.00	  553.85	-1736.35	  404.74
     83.2700	  584.00	  556.14	-1697.64	  404.71
     83.3700	  560.00	  559.43	-1724.93	  404.68
     83.4700	  508.00	  563.51	-1781.01	  404.65
     83.5700	  531.00	  568.04	-1762.54	  404.62
     83.6700	  551.00	  572.62	-1747.12	  404.59
     83.7700	  520.00	  576.77	-1782.27	  404.56
     83.8700	  596.00	  579.96	-1709.46	  404.52
     83.9700	  542.00	  581.70	-1765.20	  404.48
     84.0700	  637.00	  581.66	-1670.16	  404.44
     84.1700	  605.00	  579.80	-1700.30	  404.40
     84.2700	  537.00	  576.39	-1764.89	  404.36
     84.3700	  498.00	  571.85	-1799.35	  404.32
     84.4700	  539.00	  566.70	-1753.20	  404.27
     84.5700	  537.00	  561.37	-1749.87	  404.23
     84.6700	  502.00	  556.24	-1779.74	  404.18
     84.7700	  523.00	  551.57	-1754.07	  404.13
     84.8700	  522.00	  547.53	-1751.03	  404.08
     84.9700	  548.00	  544.20	-1721.70	  404.03
     85.0700	  543.00	  541.59	-1724.09	  403.98
     85.1700	  537.00	  539.65	-1728.15	  403.92
     85.2700	  548.00	  538.29	-1715.79	  403.87
     85.3700	  531.00	  537.44	-1731.94	  403.81
     85.4700	  546.00	  537.02	-1716.52	  403.75
     85.5700	  566.00	  536.97	-1696.47	  403.69
     85.6700	  508.00	  537.25	-1754.75	  403.63
     85.7700	  541.00	  537.88	-1722.38	  403.57
     85.8700	  554.00	  538.88	-1710.38	  403.50
     85.9700	  512.00	  540.34	-1753.84	  403.43
     86.0700	  547.00	  542.36	-1720.86	  403.37
     86.1700	  575.00	  545.09	-1695.59	  403.30
     86.2700	  536.00	  548.70	-1738.20	  403.23
     86.3700	  530.00	  553.34	-1748.84	  403.16
     86.4700	  592.00	  559.18	-1692.68	  403.08
     86.5700	  557.00	  566.31	-1734.81	  403.01
     86.6700	  574.00	  574.74	-1726.24	  402.93
     86.7700	  559.00	  584.33	-1750.83	  402.85
     86.8700	  566.00	  594.79	-1754.29	  402.77
     86.9700	  615.00	  605.64	-1716.14	  402.69
     87.0700	  604.00	  616.21	-1737.71	  402.61
     87.1700	  649.00	  625.36	-1701.86	  402.53
     87.2700	  621.00	  632.83	-1737.33	  402.44
     87.3700	  656.00	  637.44	-1706.94	  402.36
     87.4700	  619.00	  638.57	-1745.07	  402.27
     87.5700	  658.00	  636.10	-1703.60	  402.18
     87.6700	  662.00	  630.45	-1693.95	  402.09
     87.7700	  678.00	  622.41	-1669.91	  402.00
     87.8700	  606.00	  612.95	-1732.45	  401.90
     87.9700	  616.00	  603.05	-1712.55	  401.81
     88.0700	  627.00	  593.57	-1692.07	  401.71
     88.1700	  603.00	  585.22	-1707.72	  401.61
     88.2700	  613.00	  578.54	-1691.04	  401.51
     88.3700	  559.00	  573.86	-1740.36	  401.41
     88.4700	  613.00	  571.35	-1683.85	  401.31
     88.5700	  562.00	  570.99	-1734.49	  401.21
     88.6700	  589.00	  572.59	-1709.09	  401.10
     88.7700	  576.00	  575.84	-1725.34	  401.00
     88.8700	  590.00	  580.31	-1715.81	  400.89
     88.9700	  598.00	  585.47	-1712.97	  400.78
     89.0700	  613.00	  590.72	-1703.22	  400.67
     89.1700	  609.00	  595.43	-1711.93	  400.56
     89.2700	  640.00	  598.95	-1684.45	  400.44
     89.3700	  561.00	  600.75	-1765.25	  400.33
     89.4700	  613.00	  600.49	-1712.99	  400.21
     89.5700	  595.00	  598.15	-1728.65	  400.09
     89.6700	  554.00	  593.98	-1765.48	  399.97
     89.7700	  581.00	  588.44	-1732.94	  399.85
     89.8700	  536.00	  582.05	-1771.55	  399.73
     89.9700	  584.00	  575.31	-1716.81	  399.61
     90.0700	  570.00	  568.65	-1724.15	  399.48
     90.1700	  530.00	  562.41	-1757.91	  399.36
     90.2700	  576.00	  556.81	-1706.31	  399.23
     90.3700	  533.00	  552.01	-1744.51	  399.10
     90.4700	  571.00	  548.05	-1702.55	  398.97
     90.5700	  533.00	  544.93	-1737.43	  398.84
     90.6700	  537.00	  542.57	-1731.07	  398.71
     90.7700	  559.00	  540.90	-1707.40	  398.57
     90.8700	  503.00	  539.83	-1762.33	  398.44
     90.9700	  518.00	  539.25	-1746.75	  398.30
     91.0700	  555.00	  539.12	-1709.62	  398.16
     91.1700	  523.00	  539.40	-1741.90	  398.02
     91.2700	  501.00	  540.10	-1764.60	  397.88
     91.3700	  520.00	  541.25	-1746.75	  397.74
     91.4700	  549.00	  542.95	-1719.45	  397.60
     91.5700	  512.00	  545.32	-1758.82	  397.45
     91.6700	  522.00	  548.52	-1752.02	  397.30
     91.7700	  561.00	  552.73	-1717.23	  397.16
     91.8700	  541.00	  558.15	-1742.65	  397.01
     91.9700	  570.00	  564.98	-1720.48	  396.86
     92.0700	  581.00	  573.39	-1717.89	  396.71
     92.1700	  599.00	  583.49	-1709.99	  396.55
     92.2700	  552.00	  595.30	-1768.80	  396.40
     92.3700	  586.00	  608.54	-1748.04	  396.25
     92.4700	  616.00	  623.49	-1732.99	  396.09
     92.5700	  642.00	  639.59	-1723.09	  395.93
     92.6700	  634.00	  656.38	-1747.88	  395.77
     92.7700	  689.00	  673.28	-1709.78	  395.61
     92.8700	  684.00	  689.63	-1731.13	  395.45
     92.9700	  728.00	  704.72	-1702.22	  395.29
     93.0700	  739.00	  718.01	-1704.51	  395.12
     93.1700	  707.00	  729.23	-1747.73	  394.96
     93.2700	  799.00	  738.50	-1665.00	  394.79
     93.3700	  749.00	  746.25	-1722.75	  394.63
     93.4700	  851.00	  753.06	-1627.56	  394.46
     93.5700	  830.00	  759.57	-1655.07	  394.29
     93.6700	  838.00	  766.31	-1653.81	  394.12
     93.7700	  832.00	  773.79	-1667.29	  393.94
     93.8700	  826.00	  782.52	-1682.02	  393.77
     93.9700	  771.00	  792.96	-1747.46	  393.60
     94.0700	  819.00	  805.47	-1711.97	  393.42
     94.1700	  819.00	  820.16	-1726.66	  393.24
     94.2700	  819.00	  836.77	-1743.27	  393.07
     94.3700	  864.00	  854.57	-1716.07	  392.89
     94.4700	  876.00	  872.38	-1721.88	  392.71
     94.5700	  944.00	  888.64	-1670.14	  392.53
     94.6700	  969.00	  901.52	-1658.02	  392.34
     94.7700	  919.00	  909.15	-1715.65	  392.16
     94.8700	  866.00	  910.04	-1769.54	  391.98
     94.9700	  896.00	  903.40	-1732.90	  391.79
     95.0700	  857.00	  889.42	-1757.92	  391.61
     95.1700	  852.00	  869.22	-1742.72	  391.42
     95.2700	  891.00	  844.52	-1679.02	  391.23
     95.3700	  817.00	  817.33	-1725.83	  391.04
     95.4700	  819.00	  789.72	-1696.22	  390.85
     95.5700	  811.00	  763.61	-1678.11	  390.66
     95.6700	  752.00	  740.80	-1714.30	  390.47
     95.7700	  696.00	  722.88	-1752.38	  390.27
     95.8700	  714.00	  711.27	-1722.77	  390.08
     95.9700	  706.00	  707.21	-1726.71	  389.88
     96.0700	  672.00	  711.74	-1765.24	  389.69
     96.1700	  725.00	  725.71	-1726.21	  389.49
     96.2700	  752.00	  749.75	-1723.25	  389.29
     96.3700	  800.00	  784.19	-1709.69	  389.09
     96.4700	  834.00	  829.03	-1720.53	  388.89
     96.5700	  811.00	  883.79	-1798.29	  388.69
     96.6700	  956.00	  947.47	-1716.97	  388.49
     96.7700	  970.00	 1018.47	-1773.97	  388.29
     96.8700	 1125.00	 1094.49	-1694.99	  388.08
     96.9700	 1128.00	 1172.53	-1770.03	  387.88
     97.0700	 1233.00	 1248.96	-1741.46	  387.67
     97.1700	 1377.00	 1319.58	-1668.08	  387.47
     97.2700	 1380.00	 1379.90	-1725.40	  387.26
     97.3700	 1384.00	 1425.45	-1766.95	  387.05
     97.4700	 1390.00	 1452.56	-1788.06	  386.84
     97.5700	 1497.00	 1459.06	-1687.56	  386.64
     97.6700	 1450.00	 1444.79	-1720.29	  386.43
     97.7700	 1347.00	 1411.55	-1790.05	  386.21
     97.8700	 1457.00	 1362.68	-1631.18	  386.00
     97.9700	 1248.00	 1302.28	-1779.78	  385.79
     98.0700	 1213.00	 1234.68	-1747.18	  385.58
     98.1700	 1147.00	 1164.04	-1742.54	  385.37
     98.2700	 1071.00	 1094.12	-1748.62	  385.15
     98.3700	 1040.00	 1028.22	-1713.72	  384.94
     98.4700	  941.00	  969.08	-1753.58	  384.72
     98.5700	  891.00	  919.01	-1753.51	  384.51
     98.6700	  789.00	  879.73	-1816.23	  384.29
     98.7700	  831.00	  852.56	-1747.06	  384.07
     98.8700	  826.00	  838.48	-1737.98	  383.85
     98.9700	  847.00	  838.15	-1716.65	  383.64
     99.0700	  891.00	  851.98	-1686.48	  383.42
     99.1700	  868.00	  880.18	-1737.68	  383.20
     99.2700	  896.00	  922.73	-1752.23	  382.98
     99.3700	  928.00	  979.31	-1776.81	  382.76
     99.4700	 1037.00	 1049.31	-1737.81	  382.54
     99.5700	 1133.00	 1131.68	-1724.18	  382.32
     99.6700	 1187.00	 1224.86	-1763.36	  382.09
     99.7700	 1339.00	 1326.69	-1713.19	  381.87
     99.8700	 1426.00	 1434.32	-1733.82	  381.65
     99.9700	 1527.00	 1544.19	-1742.69	  381.43
    100.0700	 1639.00	 1652.17	-1738.67	  381.20
    100.1700	 1745.00	 1753.74	-1734.24	  380.98
    100.2700	 1909.00	 1844.45	-1660.95	  380.75
    100.3700	 1908.00	 1920.41	-1737.91	  380.53
    100.4700	 2008.00	 1978.61	-1696.11	  380.30
    100.5700	 2123.00	 2017.05	-1619.55	  380.08
    100.6700	 2079.00	 2034.57	-1681.07	  379.85
    100.7700	 1965.00	 2030.65	-1791.15	  379.63
    100.8700	 1988.00	 2005.45	-1742.95	  379.40
    100.9700	 1955.00	 1960.14	-1730.64	  379.18
    101.0700	 1903.00	 1897.15	-1719.65	  378.95
    101.1700	 1854.00	 1820.24	-1691.74	  378.72
    101.2700	 1723.00	 1734.08	-1736.58	  378.50
    101.3700	 1681.00	 1643.75	-1688.25	  378.27
    101.4700	 1583.00	 1554.00	-1696.50	  378.04
    101.5700	 1435.00	 1468.95	-1759.45	  377.81
    101.6700	 1443.00	 1391.70	-1674.20	  377.59
    101.7700	 1371.00	 1324.37	-1678.87	  377.36
    101.8700	 1283.00	 1268.05	-1710.55	  377.13
    101.9700	 1266.00	 1222.79	-1682.29	  376.91
    102.0700	 1222.00	 1187.75	-1691.25	  376.68
    102.1700	 1130.00	 1161.29	-1756.79	  376.45
    102.2700	 1174.00	 1141.16	-1692.66	  376.22
    102.3700	 1122.00	 1124.73	-1728.23	  375.99
    102.4700	 1117.00	 1109.26	-1717.76	  375.77
    102.5700	 1038.00	 1092.21	-1779.71	  375.54
    102.6700	 1025.00	 1071.64	-1772.14	  375.31
    102.7700	 1051.00	 1046.41	-1720.91	  375.09
    102.8700	 1058.00	 1016.27	-1683.77	  374.86
    102.9700	  999.00	  981.70	-1708.20	  374.63
    103.0700	  934.00	  943.69	-1735.19	  374.40
    103.1700	  881.00	  903.48	-1747.98	  374.18
    103.2700	  812.00	  862.38	-1775.88	  373.95
    103.3700	  786.00	  821.61	-1761.11	  373.73
    103.4700	  833.00	  782.29	-1674.79	  373.50
    103.5700	  755.00	  745.34	-1715.84	  373.27
    103.6700	  700.00	  711.46	-1736.96	  373.05
    103.7700	  724.00	  681.13	-1682.62	  372.82
    103.8700	  672.00	  654.58	-1708.08	  372.60
    103.9700	  639.00	  631.88	-1718.38	  372.38
    104.0700	  623.00	  612.92	-1715.42	  372.15
    104.1700	  580.00	  597.45	-1742.95	  371.93
    104.2700	  594.00	  585.15	-1716.65	  371.71
    104.3700	  606.00	  575.62	-1695.12	  371.48
    104.4700	  553.00	  568.48	-1740.98	  371.26
    104.5700	  569.00	  563.34	-1719.84	  371.04
    104.6700	  567.00	  559.85	-1718.35	  370.82
    104.7700	  528.00	  557.68	-1755.18	  370.60
    104.8700	  554.00	  556.59	-1728.09	  370.38
    104.9700	  498.00	  556.33	-1783.83	  370.16
    105.0700	  553.00	  556.74	-1729.24	  369.94
    105.1700	  569.00	  557.69	-1714.19	  369.73
    105.2700	  541.00	  559.07	-1743.57	  369.51
    105.3700	  583.00	  560.88	-1703.38	  369.29
    105.4700	  528.00	  563.09	-1760.59	  369.08
    105.5700	  577.00	  565.74	-1714.24	  368.86
    105.6700	  535.00	  568.93	-1759.43	  368.65
    105.7700	  539.00	  572.75	-1759.25	  368.43
    105.8700	  488.00	  577.32	-1814.82	  368.22
    105.9700	  561.00	  582.72	-1747.22	  368.01
    106.0700	  569.00	  589.03	-1745.53	  367.80
    106.1700	  594.00	  596.26	-1727.76	  367.59
    106.2700	  593.00	  604.39	-1736.89	  367.38
    106.3700	  598.00	  613.30	-1740.80	  367.17
    106.4700	  588.00	  622.85	-1760.35	  366.97
    106.5700	  606.00	  632.79	-1752.29	  366.76
    106.6700	  660.00	  642.86	-1708.36	  366.56
    106.7700	  648.00	  652.72	-1730.22	  366.35
    106.8700	  635.00	  662.00	-1752.50	  366.15
    106.9700	  689.00	  670.34	-1706.84	  365.95
    107.0700	  667.00	  677.40	-1735.90	  365.75
    107.1700	  684.00	  682.93	-1724.43	  365.55
    107.2700	  692.00	  686.79	-1720.29	  365.35
    107.3700	  724.00	  689.03	-1690.53	  365.16
    107.4700	  688.00	  689.85	-1727.35	  364.96
    107.5700	  642.00	  689.57	-1773.07	  364.77
    107.6700	  649.00	  688.61	-1765.11	  364.57
    107.7700	  697.00	  687.36	-1715.86	  364.38
    107.8700	  706.00	  686.21	-1705.71	  364.19
    107.9700	  689.00	  685.45	-1721.95	  364.00
    108.0700	  717.00	  685.27	-1693.77	  363.82
    108.1700	  674.00	  685.77	-1737.27	  363.63
    108.2700	  677.00	  686.90	-1735.40	  363.45
    108.3700	  675.00	  688.51	-1739.01	  363.27
    108.4700	  708.00	  690.36	-1707.86	  363.09
    108.5700	  721.00	  692.11	-1696.61	  362.91
    108.6700	  784.00	  693.34	-1634.84	  362.73
    108.7700	  746.00	  693.65	-1673.15	  362.55
    108.8700	  728.00	  692.64	-1690.14	  362.38
    108.9700	  720.00	  690.02	-1695.52	  362.21
    109.0700	  689.00	  685.64	-1722.14	  362.04
    109.1700	  641.00	  679.49	-1763.99	  361.87
    109.2700	  643.00	  671.73	-1754.23	  361.70
    109.3700	  662.00	  662.62	-1726.12	  361.53
    109.4700	  634.00	  652.48	-1743.98	  361.37
    109.5700	  642.00	  641.67	-1725.17	  361.21
    109.6700	  646.00	  630.55	-1710.05	  361.05
    109.7700	  645.00	  619.45	-1699.95	  360.89
    109.8700	  639.00	  608.65	-1695.15	  360.74
    109.9700	  575.00	  598.42	-1748.92	  360.58
    110.0700	  584.00	  588.95	-1730.45	  360.43
    110.1700	  581.00	  580.39	-1724.89	  360.28
    110.2700	  555.00	  572.82	-1743.32	  360.14
    110.3700	  562.00	  566.31	-1729.81	  359.99
    110.4700	  545.00	  560.85	-1741.35	  359.85
    110.5700	  527.00	  556.42	-1754.92	  359.71
    110.6700	  574.00	  552.94	-1704.44	  359.57
    110.7700	  537.00	  550.35	-1738.85	  359.44
    110.8700	  545.00	  548.56	-1729.06	  359.30
    110.9700	  589.00	  547.46	-1683.96	  359.17
    111.0700	  531.00	  546.98	-1741.48	  359.04
    111.1700	  574.00	  547.02	-1698.52	  358.92
    111.2700	  556.00	  547.50	-1717.00	  358.79
    111.3700	  538.00	  548.36	-1735.86	  358.67
    111.4700	  614.00	  549.55	-1661.05	  358.56
    111.5700	  576.00	  551.01	-1700.51	  358.44
    111.6700	  563.00	  552.71	-1715.21	  358.33
    111.7700	  530.00	  554.64	-1750.14	  358.22
    111.8700	  579.00	  556.76	-1703.26	  358.11
    111.9700	  556.00	  559.08	-1728.58	  358.00
    112.0700	  524.00	  561.61	-1763.11	  357.90
    112.1700	  541.00	  564.35	-1748.85	  357.80
    112.2700	  533.00	  567.32	-1759.82	  357.71
    112.3700	  597.00	  570.55	-1699.05	  357.61
    112.4700	  544.00	  574.08	-1755.58	  357.52
    112.5700	  547.00	  577.97	-1756.47	  357.44
    112.6700	  558.00	  582.28	-1749.78	  357.35
    112.7700	  637.00	  587.09	-1675.59	  357.27
    112.8700	  618.00	  592.51	-1700.01	  357.19
    112.9700	  598.00	  598.69	-1726.19	  357.12
    113.0700	  672.00	  605.83	-1659.33	  357.04
    113.1700	  627.00	  614.15	-1712.65	  356.98
    113.2700	  690.00	  623.99	-1659.49	  356.91
    113.3700	  655.00	  635.74	-1706.24	  356.85
    113.4700	  704.00	  649.91	-1671.41	  356.79
    113.5700	  683.00	  667.15	-1709.65	  356.74
    113.6700	  733.00	  688.24	-1680.74	  356.68
    113.7700	  807.00	  714.18	-1632.68	  356.64
    113.8700	  848.00	  746.13	-1623.63	  356.59
    113.9700	  934.00	  785.45	-1576.95	  356.55
    114.0700	  892.00	  833.74	-1667.24	  356.51
    114.1700	  976.00	  892.85	-1642.35	  356.48
    114.2700	 1024.00	  964.77	-1666.27	  356.45
    114.3700	 1117.00	 1051.72	-1660.22	  356.42
    114.4700	 1271.00	 1155.99	-1610.49	  356.40
    114.5700	 1417.00	 1279.97	-1588.47	  356.38
    114.6700	 1514.00	 1425.98	-1637.48	  356.36
    114.7700	 1706.00	 1596.17	-1615.67	  356.35
    114.8700	 1937.00	 1792.37	-1580.87	  356.34
    114.9700	 2135.00	 2015.93	-1606.43	  356.34
    115.0700	 2327.00	 2267.62	-1666.12	  356.34
    115.1700	 2619.00	 2547.47	-1653.97	  356.35
    115.2700	 2903.00	 2854.49	-1676.99	  356.36
    115.3700	 3097.00	 3186.64	-1815.14	  356.37
    115.4700	 3470.00	 3540.71	-1796.21	  356.39
    115.5700	 3899.00	 3912.34	-1738.84	  356.41
    115.6700	 4145.00	 4295.93	-1876.43	  356.43
    115.7700	 4498.00	 4684.55	-1912.05	  356.46
    115.8700	 4841.00	 5070.12	-1954.62	  356.50
    115.9700	 5247.00	 5443.45	-1921.95	  356.54
    116.0700	 5656.00	 5794.59	-1864.09	  356.58
    116.1700	 6094.00	 6112.94	-1744.44	  356.63
    116.2700	 6306.00	 6387.65	-1807.15	  356.68
    116.3700	 6517.00	 6608.40	-1816.90	  356.74
    116.4700	 6829.00	 6766.08	-1662.58	  356.80
    116.5700	 6902.00	 6853.81	-1677.31	  356.86
    116.6700	 6900.00	 6867.67	-1693.17	  356.94
    116.7700	 6720.00	 6807.21	-1812.71	  357.01
    116.8700	 6669.00	 6675.55	-1732.05	  357.09
    116.9700	 6406.00	 6478.98	-1798.48	  357.18
    117.0700	 6310.00	 6226.09	-1641.59	  357.27
    117.1700	 5925.00	 5926.89	-1727.39	  357.36
    117.2700	 5502.00	 5592.08	-1815.58	  357.47
    117.3700	 5056.00	 5232.29	-1901.79	  357.57
    117.4700	 4840.00	 4857.65	-1743.15	  357.68
    117.5700	 4518.00	 4477.34	-1684.84	  357.80
    117.6700	 4228.00	 4099.48	-1596.98	  357.92
    117.7700	 3884.00	 3731.16	-1572.66	  358.05
    117.8700	 3586.00	 3378.14	-1517.64	  358.18
    117.9700	 3151.00	 3045.03	-1619.53	  358.32
    118.0700	 2804.00	 2735.10	-1656.60	  358.46
    118.1700	 2451.00	 2450.51	-1725.01	  358.61
    118.2700	 2139.00	 2192.46	-1778.96	  358.76
    118.3700	 2011.00	 1961.24	-1675.74	  358.92
    118.4700	 1700.00	 1756.36	-1781.86	  359.08
    118.5700	 1512.00	 1576.69	-1790.19	  359.26
    118.6700	 1474.00	 1420.64	-1672.14	  359.43
    118.7700	 1254.00	 1286.34	-1757.84	  359.61
    118.8700	 1165.00	 1171.69	-1732.19	  359.80
    118.9700	 1049.00	 1074.54	-1751.04	  360.00
    119.0700	  964.00	  992.72	-1754.22	  360.20
    119.1700	  911.00	  924.15	-1738.65	  360.40
    119.2700	  827.00	  866.93	-1765.43	  360.61
    119.3700	  785.00	  819.33	-1759.83	  360.83
    119.4700	  770.00	  779.79	-1735.29	  361.06
    119.5700	  714.00	  746.98	-1758.48	  361.29
    119.6700	  660.00	  719.74	-1785.24	  361.52
    119.7700	  630.00	  697.11	-1792.61	  361.77
    119.8700	  599.00	  678.28	-1804.78	  362.02
    119.9700	  631.00	  662.59	-1757.09	  362.27
    120.0700	  633.00	  649.49	-1741.99	  362.53
    120.1700	  629.00	  638.55	-1735.05	  362.80
    120.2700	  576.00	  629.42	-1778.92	  363.08
    120.3700	  561.00	  621.82	-1786.32	  363.36
    120.4700	  586.00	  615.53	-1755.03	  363.65
    120.5700	  584.00	  610.38	-1751.88	  363.94
    120.6700	  580.00	  606.23	-1751.73	  364.25
    120.7700	  535.00	  602.96	-1793.46	  364.56
    120.8700	  606.00	  600.50	-1720.00	  364.87
    120.9700	  606.00	  598.78	-1718.28	  365.19
    121.0700	  557.00	  597.75	-1766.25	  365.53
    121.1700	  578.00	  597.35	-1744.85	  365.86
    121.2700	  592.00	  597.54	-1731.04	  366.21
    121.3700	  603.00	  598.28	-1720.78	  366.56
    121.4700	  582.00	  599.52	-1743.02	  366.92
    121.5700	  580.00	  601.21	-1746.71	  367.28
    121.6700	  613.00	  603.31	-1715.81	  367.66
    121.7700	  563.00	  605.75	-1768.25	  368.04
    121.8700	  612.00	  608.46	-1721.96	  368.43
    121.9700	  616.00	  611.37	-1720.87	  368.82
    122.0700	  632.00	  614.40	-1707.90	  369.23
    122.1700	  608.00	  617.45	-1734.95	  369.64
    122.2700	  602.00	  620.45	-1743.95	  370.06
    122.3700	  628.00	  623.29	-1720.79	  370.49
    122.4700	  621.00	  625.88	-1730.38	  370.92
    122.5700	  612.00	  628.13	-1741.63	  371.36
    122.6700	  657.00	  629.97	-1698.47	  371.81
    122.7700	  649.00	  631.31	-1707.81	  372.27
    122.8700	  607.00	  632.13	-1750.63	  372.74
    122.9700	  637.00	  632.39	-1720.89	  373.21
    123.0700	  684.00	  632.10	-1673.60	  373.70
    123.1700	  645.00	  631.28	-1711.78	  374.19
    123.2700	  590.00	  629.98	-1765.48	  374.69
    123.3700	  665.00	  628.25	-1688.75	  375.20
    123.4700	  610.00	  626.15	-1741.65	  375.72
    123.5700	  681.00	  623.75	-1668.25	  376.24
    123.6700	  654.00	  621.10	-1692.60	  376.78
    123.7700	  623.00	  618.29	-1720.79	  377.32
    123.8700	  643.00	  615.38	-1697.88	  377.87
    123.9700	  675.00	  612.42	-1662.92	  378.43
    124.0700	  595.00	  609.47	-1739.97	  379.00
    124.1700	  607.00	  606.58	-1725.08	  379.58
    124.2700	  643.00	  603.79	-1686.29	  380.16
    124.3700	  591.00	  601.13	-1735.63	  380.76
    124.4700	  647.00	  598.63	-1677.13	  381.37
    124.5700	  609.00	  596.31	-1712.81	  381.98
    124.6700	  609.00	  594.19	-1710.69	  382.60
    124.7700	  570.00	  592.28	-1747.78	  383.24
    124.8700	  603.00	  590.59	-1713.09	  383.88
    124.9700	  590.00	  503.31	-1638.81	  384.53
    125.0700	  630.00	  503.97	-1725.50	  385.19
    125.1700	  554.00	  504.65	-1725.50	  385.86
    125.2700	  560.00	  505.33	-1725.50	  386.55
    125.3700	  619.00	  506.02	-1725.50	  387.24
    125.4700	  592.00	  506.72	-1725.50	  387.94
    125.5700	  587.00	  507.43	-1725.50	  388.65
    125.6700	  587.00	  508.15	-1725.50	  389.37
    125.7700	  601.00	  508.88	-1725.50	  390.10
    125.8700	  566.00	  509.62	-1725.50	  390.84
    125.9700	  568.00	  510.37	-1725.50	  391.59
    126.0700	  598.00	  511.13	-1725.50	  392.35
    126.1700	  544.00	  511.90	-1725.50	  393.12
    126.2700	  578.00	  512.68	-1725.50	  393.90
    126.3700	  620.00	  513.47	-1725.50	  394.69
    126.4700	  615.00	  514.27	-1725.50	  395.49
    126.5700	  629.00	  515.09	-1725.50	  396.30
    126.6700	  648.00	  515.91	-1725.50	  397.13
    126.7700	  635.00	  516.74	-1725.50	  397.96
    126.8700	  645.00	  517.59	-1725.50	  398.81
    126.9700	  652.00	  518.44	-1725.50	  399.66
    127.0700	  624.00	  519.31	-1725.50	  400.53
    127.1700	  661.00	  520.19	-1725.50	  401.41
    127.2700	  635.00	  521.07	-1725.50	  402.29
    127.3700	  622.00	  521.97	-1725.50	  403.19
    127.4700	  707.00	  522.88	-1725.50	  404.10
    127.5700	  682.00	  523.81	-1725.50	  405.03
    127.6700	  704.00	  524.74	-1725.50	  405.96
    127.7700	  670.00	  525.68	-1725.50	  406.90
    127.8700	  734.00	  526.64	-1725.50	  407.86
    127.9700	  700.00	  527.61	-1725.50	  408.83
    128.0700	  730.00	  528.59	-1725.50	  409.81
    128.1700	  803.00	  529.58	-1725.50	  410.80
    128.2700	  798.00	  530.58	-1725.50	  411.80
    128.3700	  744.00	  531.60	-1725.50	  412.82
    128.4700	  764.00	  532.62	-1725.50	  413.84
    128.5700	    0.00	  533.66	-1725.50	  414.88
    128.6700	    0.00	  534.71	-1725.50	  415.93
     12.2973	        	        	        	        	       0	(  0  0  2)	  0  1
     24.8736	        	        	        	        	       0	(  0  0  4)	  0  1
     28.3262	        	        	        	        	       0	(  1  0  0)	  0  1
     29.0227	        	        	        	        	       0	(  1  0  1)	  0  1
     31.0270	        	        	        	        	       0	(  1  0  2)	  0  1
     34.1326	        	        	        	        	       0	(  1  0  3)	  0  1
     37.7654	        	        	        	        	       0	(  0  0  6)	  0  1
     38.1064	        	        	        	        	       0	(  1  0  4)	  0  1
     42.7527	        	        	        	        	       0	(  1  0  5)	  0  1
     47.9327	        	        	        	        	       0	(  1  0  6)	  0  1
     50.2608	        	        	        	        	       0	(  1  1  0)	  0  1
     51.1784	        	        	        	        	       0	(  0  0  8)	  0  1
     51.9821	        	        	        	        	       0	(  1  1  2)	  0  1
     53.5588	        	        	        	        	       0	(  1  0  7)	  0  1
     56.9252	        	        	        	        	       0	(  1  1  4)	  0  1
     58.7567	        	        	        	        	       0	(  2  0  0)	  0  1
     59.1479	        	        	        	        	       0	(  2  0  1)	  0  1
     59.5844	        	        	        	        	       0	(  1  0  8)	  0  1
     60.3121	        	        	        	        	       0	(  2  0  2)	  0  1
     62.2235	        	        	        	        	       0	(  2  0  3)	  0  1
     64.6127	        	        	        	        	       0	(  1  1  6)	  0  1
     64.8450	        	        	        	        	       0	(  2  0  4)	  0  1
     65.3971	        	        	        	        	       0	(  0  0 10)	  0  1
     65.9954	        	        	        	        	       0	(  1  0  9)	  0  1
     68.1360	        	        	        	        	       0	(  2  0  5)	  0  1
     72.0597	        	        	        	        	       0	(  2  0  6)	  0  1
     72.8056	        	        	        	        	       0	(  1  0 10)	  0  1
     74.6410	        	        	        	        	       0	(  1  1  8)	  0  1
     76.5893	        	        	        	        	       0	(  2  0  7)	  0  1
     80.0565	        	        	        	        	       0	(  1  0 11)	  0  1
     80.8639	        	        	        	        	       0	(  0  0 12)	  0  1
     80.9948	        	        	        	        	       0	(  2  1  0)	  0  1
     81.3343	        	        	        	        	       0	(  2  1  1)	  0  1
     81.7144	        	        	        	        	       0	(  2  0  8)	  0  1
     82.3511	        	        	        	        	       0	(  2  1  2)	  0  1
     84.0406	        	        	        	        	       0	(  2  1  3)	  0  1
     86.3978	        	        	        	        	       0	(  2  1  4)	  0  1
     86.9000	        	        	        	        	       0	(  1  1 10)	  0  1
     87.4464	        	        	        	        	       0	(  2  0  9)	  0  1
     87.8227	        	        	        	        	       0	(  1  0 12)	  0  1
     89.4203	        	        	        	        	       0	(  2  1  5)	  0  1
     93.1136	        	        	        	        	       0	(  2  1  6)	  0  1
     93.8267	        	        	        	        	       0	(  2  0 10)	  0  1
     94.8812	        	        	        	        	       0	(  3  0  0)	  0  1
     95.2182	        	        	        	        	       0	(  3  0  1)	  0  1
     96.2262	        	        	        	        	       0	(  1  0 13)	  0  1
     96.2303	        	        	        	        	       0	(  3  0  2)	  0  1
     97.4972	        	        	        	        	       0	(  2  1  7)	  0  1
     97.9217	        	        	        	        	       0	(  3  0  3)	  0  1
     98.3834	        	        	        	        	       0	(  0  0 14)	  0  1
    100.3020	        	        	        	        	       0	(  3  0  4)	  0  1
    100.9399	        	        	        	        	       0	(  2  0 11)	  0  1
    101.7527	        	        	        	        	       0	(  1  1 12)	  0  1
    102.6135	        	        	        	        	       0	(  2  1  8)	  0  1
    103.3899	        	        	        	        	       0	(  3  0  5)	  0  1
    105.4663	        	        	        	        	       0	(  1  0 14)	  0  1
    107.2204	        	        	        	        	       0	(  3  0  6)	  0  1
    108.5427	        	        	        	        	       0	(  2  1  9)	  0  1
    108.9401	        	        	        	        	       0	(  2  0 12)	  0  1
    111.8547	        	        	        	        	       0	(  3  0  7)	  0  1
    115.4297	        	        	        	        	       0	(  2  1 10)	  0  1
    115.8923	        	        	        	        	       0	(  1  0 15)	  0  1
    116.6008	        	        	        	        	       0	(  2  2  0)	  0  1
    117.4004	        	        	        	        	       0	(  3  0  8)	  0  1
    118.1095	        	        	        	        	       0	(  2  0 13)	  0  1
    118.1141	        	        	        	        	       0	(  2  2  2)	  0  1
    119.8357	        	        	        	        	       0	(  0  0 16)	  0  1
    120.5665	        	        	        	        	       0	(  1  1 14)	  0  1
    122.7933	        	        	        	        	       0	(  2  2  4)	  0  1
    123.5432	        	        	        	        	       0	(  2  1 11)	  0  1
    124.0499	        	        	        	        	       0	(  3  0  9)	  0  1
    124.6631	        	        	        	        	       0	(  3  1  0)	  0  1
    125.0728	        	        	        	        	       0	(  3  1  1)	  0  1
    126.3145	        	        	        	        	       0	(  3  1  2)	  0  1
    128.2078	        	        	        	        	       0	(  1  0 16)	  0  1
    128.4298	        	        	        	        	       0	(  3  1  3)	  0  1
    129.0165	        	        	        	        	       0	(  2  0 14)	  0  1
    131.2204	        	        	        	        	       0	(  2  2  6)	  0  1
    131.5011	        	        	        	        	       0	(  3  1  4)	  0  1
    132.1755	        	        	        	        	       0	(  3  0 10)	  0  1
    133.4347	        	        	        	        	       0	(  2  1 12)	  0  1
    135.6813	        	        	        	        	       0	(  3  1  5)	  0  1
    141.2661	        	        	        	        	       0	(  3  1  6)	  0  1
    142.6280	        	        	        	        	       0	(  3  0 11)	  0  1
    143.1118	        	        	        	        	       0	(  2  0 15)	  0  1
    144.3181	        	        	        	        	       0	(  1  0 17)	  0  1
    145.4248	        	        	        	        	       0	(  2  2  8)	  0  1
    146.5490	        	        	        	        	       0	(  2  1 13)	  0  1
    148.9208	        	        	        	        	       0	(  3  1  7)	  0  1
    149.4039	        	        	        	        	       0	(  1  1 16)	  0  1
    153.7376	        	        	        	        	       0	(  0  0 18)	  0  1
    158.4306	        	        	        	        	       0	(  3  0 12)	  0  1
    158.7873	        	        	        	        	       0	(  4  0  0)	  0  1
    159.7409	        	        	        	        	       0	(  4  0  1)	  0  1
    160.8637	        	        	        	        	       0	(  3  1  8)	  0  1
    162.9066	        	        	        	        	       0	(  4  0  2)	  0  1
    169.2105	        	        	        	        	       0	(  2  0 16)	  0  1
    170.1953	        	        	        	        	       0	(  4  0  3)	  0  1
    173.4621	        	        	        	        	       0	(  2  1 14)	  0  1
