MSG Master    CELL:    5.92009   5.92009  23.28436   90.0000   90.0000  120.0000   SPGR: P 63/m m c             TEMP:   1074.85
  1   1280     2.52000     0.00000    -0.12375     0.00000     0.00000    0
    99     0     2
       0.00000      10.00000
     125.00000     130.00000
 2Theta	Yobs	Ycal	Yobs-Ycal	Backg	Posr	(hkl)	K
      0.7700	    0.00	  558.62	-1707.16	  439.70
      0.8700	    0.00	  559.23	-1707.16	  440.30
      0.9700	   43.00	  559.82	-1707.16	  440.90
      1.0700	   57.00	  560.41	-1707.16	  441.48
      1.1700	   47.00	  560.99	-1707.16	  442.06
      1.2700	   50.00	  561.55	-1707.16	  442.62
      1.3700	   47.00	  562.11	-1707.16	  443.18
      1.4700	   79.00	  562.65	-1707.16	  443.73
      1.5700	  280.00	  563.19	-1707.16	  444.26
      1.6700	  457.00	  563.71	-1707.16	  444.79
      1.7700	  589.00	  564.23	-1707.16	  445.30
      1.8700	  614.00	  564.74	-1707.16	  445.81
      1.9700	  738.00	  565.23	-1707.16	  446.31
      2.0700	  741.00	  565.72	-1707.16	  446.80
      2.1700	  803.00	  566.20	-1707.16	  447.27
      2.2700	  803.00	  566.67	-1707.16	  447.74
      2.3700	  723.00	  567.13	-1707.16	  448.20
      2.4700	  720.00	  567.58	-1707.16	  448.66
      2.5700	  683.00	  568.02	-1707.16	  449.10
      2.6700	  645.00	  568.46	-1707.16	  449.53
      2.7700	  630.00	  568.88	-1707.16	  449.96
      2.8700	  644.00	  569.30	-1707.16	  450.37
      2.9700	  663.00	  569.70	-1707.16	  450.78
      3.0700	  602.00	  570.10	-1707.16	  451.17
      3.1700	  604.00	  570.49	-1707.16	  451.56
      3.2700	  543.00	  570.87	-1707.16	  451.94
      3.3700	  701.00	  571.24	-1707.16	  452.32
      3.4700	  790.00	  571.61	-1707.16	  452.68
      3.5700	  864.00	  571.96	-1707.16	  453.03
      3.6700	  978.00	  572.31	-1707.16	  453.38
      3.7700	  921.00	  572.65	-1707.16	  453.72
      3.8700	  951.00	  572.98	-1707.16	  454.05
      3.9700	 1034.00	  573.30	-1707.16	  454.37
      4.0700	 1000.00	  573.61	-1707.16	  454.68
      4.1700	 1059.00	  573.92	-1707.16	  454.99
      4.2700	 1082.00	  574.21	-1707.16	  455.29
      4.3700	 1030.00	  574.50	-1707.16	  455.58
      4.4700	 1061.00	  574.79	-1707.16	  455.86
      4.5700	 1068.00	  575.06	-1707.16	  456.13
      4.6700	  998.00	  575.33	-1707.16	  456.40
      4.7700	  980.00	  575.59	-1707.16	  456.66
      4.8700	  932.00	  575.84	-1707.16	  456.91
      4.9700	  971.00	  576.08	-1707.16	  457.15
      5.0700	  934.00	  576.32	-1707.16	  457.39
      5.1700	  914.00	  576.55	-1707.16	  457.62
      5.2700	  918.00	  576.77	-1707.16	  457.84
      5.3700	  937.00	  576.98	-1707.16	  458.05
      5.4700	  885.00	  577.19	-1707.16	  458.26
      5.5700	  845.00	  577.39	-1707.16	  458.46
      5.6700	  856.00	  577.58	-1707.16	  458.65
      5.7700	  887.00	  577.77	-1707.16	  458.84
      5.8700	  823.00	  577.94	-1707.16	  459.02
      5.9700	  829.00	  578.11	-1707.16	  459.19
      6.0700	  859.00	  578.28	-1707.16	  459.35
      6.1700	  778.00	  578.44	-1707.16	  459.51
      6.2700	  827.00	  578.59	-1707.16	  459.66
      6.3700	  744.00	  578.73	-1707.16	  459.81
      6.4700	  757.00	  578.87	-1707.16	  459.94
      6.5700	  763.00	  579.00	-1707.16	  460.07
      6.6700	  760.00	  579.12	-1707.16	  460.20
      6.7700	  714.00	  579.24	-1707.16	  460.32
      6.8700	  753.00	  579.35	-1707.16	  460.43
      6.9700	  724.00	  579.46	-1707.16	  460.53
      7.0700	  717.00	  579.56	-1707.16	  460.63
      7.1700	  667.00	  579.65	-1707.16	  460.72
      7.2700	  682.00	  579.74	-1707.16	  460.81
      7.3700	  722.00	  579.82	-1707.16	  460.89
      7.4700	  676.00	  579.89	-1707.16	  460.96
      7.5700	  699.00	  579.96	-1707.16	  461.03
      7.6700	  652.00	  580.02	-1707.16	  461.09
      7.7700	  641.00	  580.07	-1707.16	  461.15
      7.8700	  648.00	  580.12	-1707.16	  461.20
      7.9700	  641.00	  580.17	-1707.16	  461.24
      8.0700	  675.00	  580.21	-1707.16	  461.28
      8.1700	  654.00	  580.24	-1707.16	  461.31
      8.2700	  614.00	  580.27	-1707.16	  461.34
      8.3700	  611.00	  580.29	-1707.16	  461.36
      8.4700	  653.00	  580.30	-1707.16	  461.38
      8.5700	  642.00	  580.31	-1707.16	  461.39
      8.6700	  636.00	  580.32	-1707.16	  461.39
      8.7700	  631.00	  580.32	-1707.16	  461.39
      8.8700	  617.00	  580.31	-1707.16	  461.38
      8.9700	  645.00	  580.30	-1707.16	  461.37
      9.0700	  640.00	  580.28	-1707.16	  461.36
      9.1700	  636.00	  580.26	-1707.16	  461.33
      9.2700	  584.00	  580.23	-1707.16	  461.31
      9.3700	  597.00	  580.20	-1707.16	  461.27
      9.4700	  599.00	  580.16	-1707.16	  461.24
      9.5700	  600.00	  580.12	-1707.16	  461.19
      9.6700	  610.00	  580.07	-1707.16	  461.15
      9.7700	  612.00	  580.02	-1707.16	  461.10
      9.8700	  566.00	  579.96	-1707.16	  461.04
      9.9700	  616.00	  579.90	-1707.16	  460.98
     10.0700	  581.00	  580.97	-1707.12	  460.91
     10.1700	  602.00	  581.02	-1686.18	  460.84
     10.2700	  598.00	  581.11	-1690.26	  460.76
     10.3700	  603.00	  581.23	-1685.39	  460.68
     10.4700	  556.00	  581.44	-1732.60	  460.60
     10.5700	  573.00	  581.79	-1715.95	  460.51
     10.6700	  622.00	  582.39	-1667.54	  460.41
     10.7700	  604.00	  583.33	-1686.49	  460.31
     10.8700	  603.00	  584.70	-1688.86	  460.21
     10.9700	  594.00	  586.49	-1699.64	  460.10
     11.0700	  528.00	  588.68	-1767.83	  459.99
     11.1700	  618.00	  591.26	-1680.42	  459.87
     11.2700	  610.00	  594.30	-1691.45	  459.75
     11.3700	  562.00	  597.87	-1743.02	  459.63
     11.4700	  635.00	  602.12	-1674.27	  459.50
     11.5700	  614.00	  607.30	-1700.45	  459.37
     11.6700	  644.00	  613.79	-1676.95	  459.23
     11.7700	  607.00	  622.24	-1722.40	  459.09
     11.8700	  679.00	  633.37	-1661.53	  458.95
     11.9700	  628.00	  647.28	-1726.43	  458.80
     12.0700	  699.00	  661.75	-1669.91	  458.65
     12.1700	  697.00	  670.84	-1681.00	  458.49
     12.2700	  645.00	  666.07	-1728.23	  458.33
     12.3700	  643.00	  645.68	-1709.84	  458.17
     12.4700	  621.00	  621.14	-1707.30	  458.00
     12.5700	  636.00	  602.35	-1673.51	  457.83
     12.6700	  594.00	  591.11	-1704.26	  457.66
     12.7700	  609.00	  585.30	-1683.46	  457.48
     12.8700	  601.00	  582.38	-1688.54	  457.30
     12.9700	  604.00	  580.72	-1683.88	  457.11
     13.0700	  564.00	  579.60	-1722.76	  456.92
     13.1700	  608.00	  578.75	-1677.91	  456.73
     13.2700	  571.00	  578.07	-1714.22	  456.54
     13.3700	  551.00	  577.49	-1733.65	  456.34
     13.4700	  564.00	  577.00	-1720.15	  456.14
     13.5700	  589.00	  576.55	-1694.71	  455.93
     13.6700	  537.00	  576.15	-1746.31	  455.72
     13.7700	  561.00	  575.78	-1721.94	  455.51
     13.8700	  589.00	  575.44	-1693.59	  455.30
     13.9700	  653.00	  575.11	-1629.27	  455.08
     14.0700	  577.00	  574.79	-1704.95	  454.86
     14.1700	  593.00	  574.49	-1688.65	  454.64
     14.2700	  537.00	  574.19	-1744.35	  454.41
     14.3700	  580.00	  573.90	-1701.06	  454.18
     14.4700	  548.00	  573.62	-1732.77	  453.95
     14.5700	  571.00	  573.34	-1709.49	  453.72
     14.6700	  581.00	  573.06	-1699.21	  453.48
     14.7700	  572.00	  572.78	-1707.94	  453.24
     14.8700	  564.00	  572.51	-1715.66	  453.00
     14.9700	  612.00	  572.23	-1667.39	  452.75
     15.0700	  527.00	  571.96	-1752.11	  452.51
     15.1700	  567.00	  571.68	-1711.84	  452.26
     15.2700	  568.00	  571.41	-1710.56	  452.00
     15.3700	  622.00	  571.16	-1656.32	  451.75
     15.4700	  566.00	  570.88	-1712.04	  451.49
     15.5700	  540.00	  570.61	-1737.76	  451.23
     15.6700	  556.00	  570.33	-1721.49	  450.97
     15.7700	  602.00	  570.05	-1675.21	  450.70
     15.8700	  556.00	  569.77	-1720.93	  450.43
     15.9700	  537.00	  569.49	-1739.65	  450.17
     16.0700	  567.00	  569.21	-1709.37	  449.89
     16.1700	  587.00	  568.93	-1689.08	  449.62
     16.2700	  511.00	  568.64	-1764.80	  449.34
     16.3700	  546.00	  568.36	-1729.51	  449.07
     16.4700	  508.00	  568.07	-1767.23	  448.79
     16.5700	  516.00	  567.78	-1758.94	  448.50
     16.6700	  602.00	  567.49	-1672.65	  448.22
     16.7700	  521.00	  567.20	-1753.35	  447.93
     16.8700	  551.00	  566.90	-1723.06	  447.64
     16.9700	  586.00	  566.61	-1687.77	  447.35
     17.0700	  541.00	  566.31	-1732.47	  447.06
     17.1700	  534.00	  566.02	-1739.17	  446.77
     17.2700	  569.00	  565.72	-1703.87	  446.47
     17.3700	  503.00	  565.42	-1769.57	  446.17
     17.4700	  581.00	  565.11	-1691.27	  445.88
     17.5700	  534.00	  564.81	-1737.97	  445.57
     17.6700	  553.00	  564.50	-1718.66	  445.27
     17.7700	  555.00	  564.20	-1716.35	  444.97
     17.8700	  570.00	  563.89	-1701.05	  444.66
     17.9700	  584.00	  563.58	-1686.74	  444.35
     18.0700	  594.00	  563.37	-1676.53	  444.05
     18.1700	  592.00	  563.07	-1678.22	  443.73
     18.2700	  582.00	  562.75	-1687.91	  443.42
     18.3700	  528.00	  562.44	-1741.60	  443.11
     18.4700	  541.00	  562.13	-1728.29	  442.79
     18.5700	  550.00	  561.82	-1718.97	  442.48
     18.6700	  534.00	  561.50	-1734.66	  442.16
     18.7700	  519.00	  561.27	-1749.42	  441.84
     18.8700	  553.00	  560.95	-1715.11	  441.52
     18.9700	  524.00	  560.64	-1743.79	  441.20
     19.0700	  572.00	  560.32	-1695.47	  440.88
     19.1700	  516.00	  560.00	-1751.16	  440.55
     19.2700	  594.00	  559.68	-1672.84	  440.23
     19.3700	  537.00	  559.36	-1729.52	  439.90
     19.4700	  540.00	  559.04	-1726.20	  439.58
     19.5700	  566.00	  558.72	-1699.88	  439.25
     19.6700	  561.00	  558.40	-1704.55	  438.92
     19.7700	  553.00	  558.08	-1712.23	  438.59
     19.8700	  557.00	  557.75	-1707.91	  438.26
     19.9700	  592.00	  557.43	-1672.59	  437.92
     20.0700	  548.00	  557.11	-1716.26	  437.59
     20.1700	  579.00	  556.78	-1684.94	  437.26
     20.2700	  586.00	  556.46	-1677.62	  436.92
     20.3700	  577.00	  556.14	-1686.29	  436.59
     20.4700	  532.00	  555.81	-1730.97	  436.25
     20.5700	  565.00	  555.52	-1697.68	  435.91
     20.6700	  519.00	  555.20	-1743.35	  435.57
     20.7700	  561.00	  554.87	-1701.03	  435.23
     20.8700	  537.00	  554.55	-1724.71	  434.89
     20.9700	  557.00	  554.23	-1704.38	  434.55
     21.0700	  552.00	  553.90	-1709.06	  434.21
     21.1700	  524.00	  553.58	-1736.74	  433.87
     21.2700	  584.00	  553.26	-1676.42	  433.53
     21.3700	  591.00	  552.90	-1669.06	  433.19
     21.4700	  531.00	  552.58	-1728.74	  432.84
     21.5700	  538.00	  552.27	-1721.42	  432.50
     21.6700	  551.00	  551.95	-1708.11	  432.15
     21.7700	  572.00	  551.64	-1686.80	  431.81
     21.8700	  562.00	  551.33	-1696.49	  431.46
     21.9700	  576.00	  551.02	-1682.18	  431.12
     22.0700	  535.00	  550.71	-1722.87	  430.77
     22.1700	  503.00	  550.41	-1754.57	  430.43
     22.2700	  571.00	  550.11	-1686.27	  430.08
     22.3700	  593.00	  549.82	-1663.98	  429.73
     22.4700	  538.00	  549.53	-1718.69	  429.38
     22.5700	  542.00	  549.25	-1714.40	  429.04
     22.6700	  518.00	  548.97	-1738.13	  428.69
     22.7700	  511.00	  548.71	-1744.86	  428.34
     22.8700	  528.00	  548.45	-1727.61	  427.99
     22.9700	  546.00	  548.21	-1709.37	  427.64
     23.0700	  531.00	  547.99	-1724.14	  427.30
     23.1700	  586.00	  547.78	-1668.94	  426.95
     23.2700	  514.00	  547.60	-1740.76	  426.60
     23.3700	  598.00	  547.61	-1656.76	  426.25
     23.4700	  507.00	  547.51	-1747.67	  425.90
     23.5700	  563.00	  547.48	-1691.63	  425.55
     23.6700	  576.00	  547.53	-1678.69	  425.20
     23.7700	  569.00	  547.74	-1685.90	  424.85
     23.8700	  525.00	  548.23	-1730.38	  424.50
     23.9700	  564.00	  549.23	-1692.38	  424.15
     24.0700	  542.00	  551.17	-1716.32	  423.81
     24.1700	  559.00	  554.66	-1702.81	  423.46
     24.2700	  565.00	  560.47	-1702.63	  423.11
     24.3700	  591.00	  569.41	-1685.57	  422.76
     24.4700	  641.00	  582.05	-1648.21	  422.41
     24.5700	  593.00	  597.91	-1712.06	  422.06
     24.6700	  589.00	  613.92	-1732.08	  421.72
     24.7700	  661.00	  623.53	-1669.68	  421.37
     24.8700	  625.00	  618.98	-1701.14	  421.02
     24.9700	  638.00	  600.77	-1669.92	  420.67
     25.0700	  573.00	  579.64	-1713.80	  420.33
     25.1700	  602.00	  563.40	-1668.56	  419.98
     25.2700	  592.00	  553.49	-1668.64	  419.63
     25.3700	  547.00	  548.25	-1708.40	  419.29
     25.4700	  604.00	  545.59	-1648.74	  418.94
     25.5700	  565.00	  544.10	-1686.26	  418.60
     25.6700	  584.00	  543.14	-1666.29	  418.25
     25.7700	  558.00	  542.44	-1691.59	  417.91
     25.8700	  569.00	  541.90	-1680.06	  417.56
     25.9700	  576.00	  541.49	-1672.65	  417.22
     26.0700	  527.00	  541.18	-1721.34	  416.88
     26.1700	  541.00	  540.96	-1707.12	  416.54
     26.2700	  541.00	  540.82	-1706.98	  416.19
     26.3700	  513.00	  540.77	-1734.92	  415.85
     26.4700	  578.00	  540.80	-1669.96	  415.51
     26.5700	  542.00	  540.94	-1706.10	  415.17
     26.6700	  580.00	  541.20	-1668.35	  414.83
     26.7700	  529.00	  541.59	-1719.74	  414.49
     26.8700	  527.00	  542.16	-1722.31	  414.16
     26.9700	  561.00	  542.95	-1689.11	  413.82
     27.0700	  553.00	  544.05	-1698.21	  413.48
     27.1700	  535.00	  545.59	-1717.75	  413.14
     27.2700	  562.00	  547.82	-1692.98	  412.81
     27.3700	  506.00	  551.26	-1752.42	  412.47
     27.4700	  563.00	  556.90	-1701.06	  412.14
     27.5700	  548.00	  566.54	-1725.69	  411.81
     27.6700	  551.00	  582.98	-1739.14	  411.47
     27.7700	  576.00	  609.88	-1741.04	  411.14
     27.8700	  602.00	  650.36	-1755.51	  410.81
     27.9700	  712.00	  704.49	-1699.65	  410.48
     28.0700	  814.00	  765.96	-1659.12	  410.15
     28.1700	  896.00	  819.11	-1630.27	  409.82
     28.2700	  919.00	  840.67	-1628.83	  409.50
     28.3700	  882.00	  817.47	-1642.62	  409.17
     28.4700	  755.00	  771.97	-1724.12	  408.84
     28.5700	  705.00	  739.72	-1741.88	  408.52
     28.6700	  653.00	  736.39	-1790.55	  408.19
     28.7700	  779.00	  756.95	-1685.11	  407.87
     28.8700	  761.00	  781.94	-1728.10	  407.55
     28.9700	  776.00	  784.69	-1715.84	  407.23
     29.0700	  786.00	  749.02	-1670.18	  406.91
     29.1700	  717.00	  689.98	-1680.14	  406.59
     29.2700	  599.00	  633.93	-1742.09	  406.27
     29.3700	  617.00	  593.28	-1683.43	  405.95
     29.4700	  625.00	  568.40	-1650.56	  405.64
     29.5700	  588.00	  554.73	-1673.89	  405.32
     29.6700	  583.00	  547.39	-1671.54	  405.01
     29.7700	  552.00	  543.18	-1698.34	  404.69
     29.8700	  559.00	  540.54	-1688.69	  404.38
     29.9700	  550.00	  538.84	-1696.00	  404.07
     30.0700	  538.00	  537.93	-1707.09	  403.76
     30.1700	  548.00	  537.95	-1697.10	  403.45
     30.2700	  609.00	  539.34	-1637.50	  403.15
     30.3700	  549.00	  542.98	-1701.14	  402.84
     30.4700	  549.00	  550.19	-1708.34	  402.54
     30.5700	  562.00	  562.10	-1707.26	  402.23
     30.6700	  579.00	  578.89	-1707.05	  401.93
     30.7700	  547.00	  598.27	-1758.42	  401.63
     30.8700	  637.00	  614.62	-1684.78	  401.33
     30.9700	  627.00	  619.72	-1699.88	  401.03
     31.0700	  590.00	  608.36	-1725.51	  400.73
     31.1700	  586.00	  586.42	-1707.58	  400.43
     31.2700	  586.00	  564.52	-1685.68	  400.14
     31.3700	  551.00	  548.15	-1704.30	  399.85
     31.4700	  621.00	  537.93	-1624.09	  399.55
     31.5700	  579.00	  532.27	-1660.43	  399.26
     31.6700	  528.00	  529.27	-1708.42	  398.97
     31.7700	  562.00	  527.58	-1672.74	  398.68
     31.8700	  560.00	  526.53	-1673.69	  398.39
     31.9700	  549.00	  525.83	-1683.98	  398.11
     32.0700	  545.00	  525.35	-1687.51	  397.82
     32.1700	  556.00	  525.06	-1676.21	  397.54
     32.2700	  514.00	  524.93	-1718.08	  397.26
     32.3700	  532.00	  524.96	-1700.12	  396.98
     32.4700	  558.00	  525.16	-1674.32	  396.70
     32.5700	  532.00	  525.56	-1700.72	  396.42
     32.6700	  550.00	  526.19	-1683.35	  396.14
     32.7700	  518.00	  527.10	-1716.26	  395.87
     32.8700	  574.00	  528.39	-1661.55	  395.60
     32.9700	  537.00	  530.19	-1700.35	  395.32
     33.0700	  534.00	  532.79	-1705.95	  395.05
     33.1700	  534.00	  536.75	-1709.91	  394.78
     33.2700	  557.00	  543.34	-1693.50	  394.52
     33.3700	  566.00	  555.13	-1696.28	  394.25
     33.4700	  569.00	  576.72	-1714.88	  393.98
     33.5700	  605.00	  614.92	-1717.08	  393.72
     33.6700	  684.00	  676.72	-1699.87	  393.46
     33.7700	  761.00	  763.81	-1709.97	  393.20
     33.8700	  852.00	  865.35	-1720.50	  392.94
     33.9700	 1069.00	  953.72	-1591.88	  392.68
     34.0700	 1070.00	  988.63	-1625.78	  392.43
     34.1700	  979.00	  943.06	-1671.22	  392.17
     34.2700	  844.00	  840.72	-1703.88	  391.92
     34.3700	  761.00	  731.93	-1678.08	  391.67
     34.4700	  646.00	  646.63	-1707.78	  391.42
     34.5700	  561.00	  591.33	-1737.48	  391.17
     34.6700	  602.00	  559.97	-1665.12	  390.93
     34.7700	  526.00	  543.40	-1724.55	  390.68
     34.8700	  473.00	  534.44	-1768.60	  390.44
     34.9700	  508.00	  529.03	-1728.19	  390.20
     35.0700	  563.00	  525.32	-1669.47	  389.96
     35.1700	  495.00	  522.53	-1734.68	  389.72
     35.2700	  506.00	  520.33	-1721.49	  389.48
     35.3700	  484.00	  518.55	-1741.70	  389.24
     35.4700	  500.00	  517.07	-1724.23	  389.01
     35.5700	  498.00	  515.83	-1724.98	  388.78
     35.6700	  529.00	  514.76	-1692.92	  388.55
     35.7700	  528.00	  513.84	-1693.00	  388.32
     35.8700	  518.00	  513.04	-1702.20	  388.09
     35.9700	  448.00	  512.33	-1771.48	  387.87
     36.0700	  519.00	  512.15	-1700.31	  387.64
     36.1700	  488.00	  511.59	-1730.75	  387.42
     36.2700	  507.00	  511.09	-1711.25	  387.20
     36.3700	  510.00	  510.64	-1707.80	  386.98
     36.4700	  538.00	  510.24	-1679.40	  386.76
     36.5700	  496.00	  509.89	-1721.04	  386.55
     36.6700	  480.00	  509.59	-1736.74	  386.34
     36.7700	  501.00	  509.35	-1715.51	  386.12
     36.8700	  519.00	  509.22	-1697.38	  385.91
     36.9700	  543.00	  509.28	-1673.43	  385.70
     37.0700	  501.00	  509.67	-1715.83	  385.50
     37.1700	  484.00	  510.69	-1733.85	  385.29
     37.2700	  479.00	  512.62	-1740.78	  385.09
     37.3700	  508.00	  515.68	-1714.84	  384.89
     37.4700	  502.00	  519.64	-1724.80	  384.69
     37.5700	  524.00	  523.63	-1706.79	  384.49
     37.6700	  552.00	  526.12	-1681.28	  384.29
     37.7700	  510.00	  525.67	-1722.83	  384.10
     37.8700	  495.00	  522.37	-1734.53	  383.90
     37.9700	  506.00	  517.92	-1719.07	  383.71
     38.0700	  498.00	  513.76	-1722.91	  383.52
     38.1700	  504.00	  510.47	-1713.63	  383.33
     38.2700	  536.00	  508.14	-1679.30	  383.15
     38.3700	  552.00	  506.61	-1661.76	  382.96
     38.4700	  520.00	  505.61	-1692.77	  382.78
     38.5700	  499.00	  504.85	-1713.01	  382.60
     38.6700	  541.00	  504.38	-1670.54	  382.42
     38.7700	  510.00	  504.02	-1701.18	  382.24
     38.8700	  524.00	  503.88	-1687.04	  382.07
     38.9700	  482.00	  503.62	-1728.78	  381.89
     39.0700	  511.00	  503.39	-1699.55	  381.72
     39.1700	  497.00	  503.18	-1713.33	  381.55
     39.2700	  466.00	  502.90	-1744.06	  381.38
     39.3700	  518.00	  502.72	-1691.88	  381.22
     39.4700	  533.00	  502.55	-1676.71	  381.05
     39.5700	  509.00	  502.39	-1700.55	  380.89
     39.6700	  527.00	  502.24	-1682.40	  380.73
     39.7700	  503.00	  502.10	-1706.26	  380.57
     39.8700	  457.00	  501.97	-1752.13	  380.41
     39.9700	  539.00	  501.85	-1670.01	  380.25
     40.0700	  489.00	  501.74	-1719.90	  380.10
     40.1700	  492.00	  501.65	-1716.80	  379.95
     40.2700	  518.00	  501.56	-1690.72	  379.79
     40.3700	  522.00	  501.49	-1686.64	  379.65
     40.4700	  505.00	  501.43	-1703.58	  379.50
     40.5700	  534.00	  501.38	-1674.54	  379.35
     40.6700	  539.00	  501.36	-1669.51	  379.21
     40.7700	  494.00	  501.35	-1714.51	  379.07
     40.8700	  482.00	  501.37	-1726.53	  378.93
     40.9700	  487.00	  501.42	-1721.57	  378.79
     41.0700	  455.00	  501.50	-1753.66	  378.65
     41.1700	  498.00	  501.63	-1710.79	  378.52
     41.2700	  518.00	  502.27	-1691.43	  378.39
     41.3700	  504.00	  502.53	-1705.68	  378.25
     41.4700	  539.00	  502.87	-1671.03	  378.12
     41.5700	  532.00	  503.32	-1678.48	  378.00
     41.6700	  518.00	  504.00	-1693.16	  377.87
     41.7700	  516.00	  505.04	-1696.20	  377.75
     41.8700	  527.00	  506.79	-1686.94	  377.62
     41.9700	  474.00	  509.92	-1743.08	  377.50
     42.0700	  506.00	  515.66	-1716.82	  377.39
     42.1700	  519.00	  525.72	-1713.87	  377.27
     42.2700	  519.00	  541.78	-1729.93	  377.15
     42.3700	  543.00	  564.44	-1728.60	  377.04
     42.4700	  551.00	  591.39	-1747.54	  376.93
     42.5700	  585.00	  616.56	-1738.72	  376.82
     42.6700	  623.00	  630.81	-1714.97	  376.71
     42.7700	  581.00	  626.40	-1752.56	  376.61
     42.8700	  535.00	  605.26	-1777.41	  376.50
     42.9700	  560.00	  577.33	-1724.49	  376.40
     43.0700	  503.00	  551.45	-1755.61	  376.30
     43.1700	  516.00	  531.80	-1722.96	  376.20
     43.2700	  456.00	  518.91	-1770.06	  376.10
     43.3700	  483.00	  511.39	-1735.54	  376.01
     43.4700	  508.00	  507.24	-1706.40	  375.91
     43.5700	  490.00	  505.17	-1722.32	  375.82
     43.6700	  493.00	  503.83	-1717.99	  375.73
     43.7700	  435.00	  502.96	-1775.11	  375.64
     43.8700	  533.00	  502.33	-1676.48	  375.55
     43.9700	  496.00	  501.85	-1713.01	  375.47
     44.0700	  539.00	  501.49	-1669.64	  375.39
     44.1700	  513.00	  501.20	-1695.36	  375.30
     44.2700	  480.00	  500.98	-1728.13	  375.22
     44.3700	  524.00	  500.81	-1683.96	  375.15
     44.4700	  488.00	  500.68	-1719.84	  375.07
     44.5700	  495.00	  500.60	-1712.75	  375.00
     44.6700	  472.00	  500.54	-1735.70	  374.92
     44.7700	  530.00	  500.51	-1677.67	  374.85
     44.8700	  554.00	  500.52	-1653.67	  374.78
     44.9700	  510.00	  500.73	-1697.88	  374.72
     45.0700	  545.00	  500.64	-1662.80	  374.65
     45.1700	  500.00	  500.72	-1707.88	  374.59
     45.2700	  528.00	  500.82	-1679.98	  374.52
     45.3700	  495.00	  500.94	-1713.10	  374.46
     45.4700	  508.00	  501.09	-1700.25	  374.40
     45.5700	  497.00	  501.27	-1711.42	  374.35
     45.6700	  496.00	  501.47	-1712.62	  374.29
     45.7700	  505.00	  501.70	-1703.85	  374.24
     45.8700	  482.00	  501.96	-1727.11	  374.18
     45.9700	  511.00	  502.25	-1698.41	  374.13
     46.0700	  491.00	  502.59	-1718.75	  374.08
     46.1700	  468.00	  502.97	-1742.12	  374.04
     46.2700	  507.00	  503.40	-1703.55	  373.99
     46.3700	  494.00	  503.89	-1717.04	  373.95
     46.4700	  523.00	  504.45	-1688.60	  373.91
     46.5700	  481.00	  505.09	-1731.25	  373.87
     46.6700	  493.00	  505.85	-1720.00	  373.83
     46.7700	  514.00	  506.81	-1699.97	  373.79
     46.8700	  503.00	  507.99	-1712.14	  373.75
     46.9700	  519.00	  509.55	-1697.71	  373.72
     47.0700	  524.00	  511.91	-1695.06	  373.69
     47.1700	  540.00	  515.69	-1682.84	  373.66
     47.2700	  529.00	  521.86	-1700.02	  373.63
     47.3700	  534.00	  531.56	-1704.71	  373.60
     47.4700	  539.00	  545.60	-1713.75	  373.58
     47.5700	  554.00	  563.77	-1716.93	  373.55
     47.6700	  593.00	  583.87	-1698.02	  373.53
     47.7700	  599.00	  601.50	-1709.66	  373.51
     47.8700	  611.00	  610.80	-1706.96	  373.49
     47.9700	  526.00	  607.91	-1789.07	  373.47
     48.0700	  619.00	  594.88	-1683.03	  373.46
     48.1700	  593.00	  577.77	-1691.92	  373.44
     48.2700	  517.00	  561.90	-1752.06	  373.43
     48.3700	  571.00	  550.12	-1686.28	  373.42
     48.4700	  543.00	  543.18	-1707.33	  373.41
     48.5700	  560.00	  540.54	-1687.70	  373.40
     48.6700	  512.00	  541.22	-1736.37	  373.39
     48.7700	  502.00	  544.33	-1749.49	  373.39
     48.8700	  553.00	  549.43	-1703.59	  373.38
     48.9700	  546.00	  556.53	-1717.69	  373.38
     49.0700	  520.00	  566.29	-1753.44	  373.38
     49.1700	  561.00	  580.69	-1726.85	  373.38
     49.2700	  597.00	  602.52	-1712.67	  373.38
     49.3700	  626.00	  638.73	-1719.88	  373.39
     49.4700	  637.00	  700.43	-1770.59	  373.39
     49.5700	  768.00	  803.40	-1742.56	  373.40
     49.6700	  929.00	  965.35	-1743.51	  373.41
     49.7700	 1106.00	 1199.00	-1800.15	  373.42
     49.8700	 1497.00	 1501.40	-1711.56	  373.43
     49.9700	 1906.00	 1842.67	-1643.82	  373.44
     50.0700	 2176.00	 2157.24	-1688.39	  373.46
     50.1700	 2408.00	 2350.23	-1649.39	  373.47
     50.2700	 2402.00	 2341.00	-1646.15	  373.49
     50.3700	 2202.00	 2132.01	-1637.17	  373.51
     50.4700	 1692.00	 1810.02	-1825.17	  373.53
     50.5700	 1425.00	 1472.41	-1754.57	  373.55
     50.6700	 1097.00	 1181.79	-1791.95	  373.58
     50.7700	  776.00	  964.27	-1895.42	  373.60
     50.8700	  734.00	  819.49	-1792.65	  373.63
     50.9700	  666.00	  731.81	-1772.97	  373.65
     51.0700	  630.00	  680.85	-1758.01	  373.68
     51.1700	  649.00	  648.83	-1706.99	  373.71
     51.2700	  630.00	  624.72	-1701.87	  373.74
     51.3700	  614.00	  604.25	-1697.41	  373.78
     51.4700	  591.00	  586.79	-1702.95	  373.81
     51.5700	  557.00	  572.62	-1722.78	  373.85
     51.6700	  561.00	  561.85	-1708.01	  373.89
     51.7700	  566.00	  554.45	-1695.61	  373.92
     51.8700	  574.00	  549.36	-1682.52	  373.96
     51.9700	  553.00	  546.22	-1700.38	  374.00
     52.0700	  579.00	  544.55	-1672.70	  374.05
     52.1700	  543.00	  544.05	-1708.20	  374.09
     52.2700	  573.00	  544.68	-1678.83	  374.14
     52.3700	  531.00	  546.65	-1722.81	  374.18
     52.4700	  570.00	  550.65	-1687.81	  374.23
     52.5700	  587.00	  558.13	-1678.29	  374.28
     52.6700	  610.00	  571.86	-1669.01	  374.33
     52.7700	  658.00	  596.32	-1645.47	  374.38
     52.8700	  655.00	  637.64	-1689.79	  374.43
     52.9700	  726.00	  702.31	-1683.46	  374.49
     53.0700	  876.00	  794.42	-1625.58	  374.54
     53.1700	  990.00	  911.80	-1628.96	  374.60
     53.2700	 1060.00	 1042.20	-1689.36	  374.66
     53.3700	 1139.00	 1161.07	-1729.23	  374.71
     53.4700	 1251.00	 1234.27	-1690.43	  374.77
     53.5700	 1169.00	 1233.28	-1771.43	  374.84
     53.6700	 1095.00	 1158.03	-1770.19	  374.90
     53.7700	 1005.00	 1037.80	-1739.96	  374.96
     53.8700	  889.00	  907.37	-1725.53	  375.03
     53.9700	  806.00	  791.03	-1692.19	  375.09
     54.0700	  692.00	  700.48	-1715.64	  375.16
     54.1700	  673.00	  637.48	-1671.64	  375.23
     54.2700	  589.00	  597.69	-1715.84	  375.30
     54.3700	  575.00	  574.48	-1706.64	  375.37
     54.4700	  551.00	  561.74	-1717.89	  375.44
     54.5700	  554.00	  555.02	-1708.17	  375.51
     54.6700	  539.00	  551.63	-1719.79	  375.59
     54.7700	  565.00	  550.19	-1692.35	  375.66
     54.8700	  624.00	  549.96	-1633.11	  375.74
     54.9700	  537.00	  550.68	-1720.84	  375.82
     55.0700	  555.00	  552.24	-1704.39	  375.89
     55.1700	  602.00	  554.69	-1659.85	  375.97
     55.2700	  590.00	  558.06	-1675.22	  376.05
     55.3700	  557.00	  562.50	-1712.65	  376.14
     55.4700	  596.00	  568.25	-1679.41	  376.22
     55.5700	  602.00	  575.82	-1680.97	  376.30
     55.6700	  569.00	  586.15	-1724.31	  376.39
     55.7700	  592.00	  601.20	-1716.36	  376.47
     55.8700	  641.00	  624.71	-1690.87	  376.56
     55.9700	  616.00	  663.36	-1754.52	  376.65
     56.0700	  693.00	  727.74	-1741.89	  376.73
     56.1700	  756.00	  832.38	-1783.54	  376.82
     56.2700	  994.00	  993.50	-1706.65	  376.91
     56.3700	 1138.00	 1223.76	-1792.91	  377.01
     56.4700	 1452.00	 1524.44	-1779.60	  377.10
     56.5700	 1825.00	 1876.91	-1759.06	  377.19
     56.6700	 2152.00	 2236.13	-1791.29	  377.29
     56.7700	 2412.00	 2528.74	-1823.90	  377.38
     56.8700	 2678.00	 2668.76	-1697.92	  377.48
     56.9700	 2630.00	 2603.78	-1680.94	  377.57
     57.0700	 2312.00	 2358.83	-1753.99	  377.67
     57.1700	 2023.00	 2015.22	-1699.38	  377.77
     57.2700	 1693.00	 1655.38	-1669.54	  377.87
     57.3700	 1324.00	 1335.17	-1718.33	  377.97
     57.4700	 1079.00	 1082.12	-1710.28	  378.07
     57.5700	  848.00	  901.44	-1760.60	  378.17
     57.6700	  774.00	  783.91	-1717.07	  378.28
     57.7700	  744.00	  714.58	-1677.74	  378.38
     57.8700	  645.00	  679.13	-1741.29	  378.49
     57.9700	  699.00	  667.33	-1675.49	  378.59
     58.0700	  718.00	  673.58	-1662.74	  378.70
     58.1700	  725.00	  695.84	-1678.00	  378.80
     58.2700	  739.00	  733.94	-1702.09	  378.91
     58.3700	  872.00	  787.76	-1622.91	  379.02
     58.4700	  899.00	  855.69	-1663.85	  379.13
     58.5700	 1020.00	  933.21	-1620.37	  379.24
     58.6700	 1089.00	 1012.50	-1630.66	  379.35
     58.7700	 1223.00	 1084.87	-1569.03	  379.46
     58.8700	 1294.00	 1144.73	-1557.88	  379.57
     58.9700	 1440.00	 1189.11	-1456.27	  379.69
     59.0700	 1454.00	 1213.76	-1466.92	  379.80
     59.1700	 1450.00	 1215.04	-1472.20	  379.91
     59.2700	 1357.00	 1196.77	-1546.93	  380.03
     59.3700	 1246.00	 1170.01	-1631.16	  380.14
     59.4700	 1240.00	 1145.72	-1612.88	  380.26
     59.5700	 1161.00	 1131.81	-1677.97	  380.38
     59.6700	 1134.00	 1136.05	-1709.21	  380.49
     59.7700	 1217.00	 1167.23	-1657.39	  380.61
     59.8700	 1257.00	 1229.82	-1679.97	  380.73
     59.9700	 1365.00	 1318.36	-1660.51	  380.85
     60.0700	 1456.00	 1415.18	-1666.33	  380.97
     60.1700	 1522.00	 1491.41	-1676.57	  381.09
     60.2700	 1572.00	 1514.87	-1650.02	  381.21
     60.3700	 1536.00	 1467.36	-1638.52	  381.33
     60.4700	 1397.00	 1358.02	-1668.17	  381.45
     60.5700	 1226.00	 1214.57	-1695.73	  381.58
     60.6700	 1072.00	 1065.54	-1700.70	  381.70
     60.7700	  935.00	  931.20	-1703.36	  381.82
     60.8700	  837.00	  822.82	-1692.98	  381.95
     60.9700	  706.00	  744.14	-1745.30	  382.07
     61.0700	  700.00	  694.00	-1701.15	  382.20
     61.1700	  654.00	  669.26	-1722.42	  382.32
     61.2700	  612.00	  667.42	-1762.58	  382.45
     61.3700	  636.00	  688.02	-1759.17	  382.58
     61.4700	  673.00	  732.88	-1767.04	  382.70
     61.5700	  810.00	  804.63	-1701.79	  382.83
     61.6700	  880.00	  904.45	-1731.60	  382.96
     61.7700	  980.00	 1029.29	-1756.45	  383.09
     61.8700	 1160.00	 1169.51	-1716.67	  383.21
     61.9700	 1259.00	 1307.17	-1755.33	  383.34
     62.0700	 1310.00	 1416.28	-1813.44	  383.47
     62.1700	 1378.00	 1468.25	-1797.40	  383.60
     62.2700	 1356.00	 1445.86	-1797.02	  383.73
     62.3700	 1297.00	 1356.04	-1766.19	  383.86
     62.4700	 1180.00	 1224.43	-1751.59	  383.99
     62.5700	 1001.00	 1079.45	-1785.60	  384.12
     62.6700	  823.00	  942.64	-1826.80	  384.26
     62.7700	  742.00	  826.89	-1792.05	  384.39
     62.8700	  711.00	  737.32	-1733.47	  384.52
     62.9700	  623.00	  673.26	-1757.41	  384.65
     63.0700	  637.00	  630.55	-1700.71	  384.78
     63.1700	  569.00	  603.83	-1741.99	  384.92
     63.2700	  592.00	  588.18	-1703.33	  385.05
     63.3700	  608.00	  579.95	-1679.11	  385.18
     63.4700	  610.00	  577.06	-1674.22	  385.32
     63.5700	  596.00	  578.83	-1689.98	  385.45
     63.6700	  575.00	  585.79	-1717.94	  385.58
     63.7700	  617.00	  599.39	-1689.55	  385.72
     63.8700	  657.00	  621.62	-1671.77	  385.85
     63.9700	  649.00	  654.40	-1712.56	  385.99
     64.0700	  754.00	  698.87	-1652.03	  386.12
     64.1700	  766.00	  754.38	-1695.53	  386.26
     64.2700	  843.00	  817.74	-1681.90	  386.39
     64.3700	  932.00	  882.62	-1657.78	  386.53
     64.4700	 1006.00	  939.07	-1640.23	  386.66
     64.5700	  958.00	  977.22	-1726.38	  386.80
     64.6700	 1034.00	  988.80	-1661.95	  386.93
     64.7700	 1045.00	  972.62	-1634.78	  387.07
     64.8700	 1019.00	  933.99	-1622.14	  387.20
     64.9700	  874.00	  881.61	-1714.77	  387.34
     65.0700	  858.00	  824.77	-1673.93	  387.47
     65.1700	  816.00	  770.77	-1661.93	  387.61
     65.2700	  717.00	  723.65	-1713.80	  387.74
     65.3700	  669.00	  684.52	-1722.68	  387.88
     65.4700	  633.00	  652.87	-1727.02	  388.02
     65.5700	  627.00	  627.75	-1707.90	  388.15
     65.6700	  610.00	  608.29	-1705.44	  388.29
     65.7700	  595.00	  593.65	-1705.81	  388.42
     65.8700	  592.00	  583.05	-1698.20	  388.56
     65.9700	  552.00	  575.79	-1730.94	  388.69
     66.0700	  542.00	  571.30	-1736.46	  388.83
     66.1700	  562.00	  569.23	-1714.39	  388.97
     66.2700	  530.00	  568.94	-1746.10	  389.10
     66.3700	  557.00	  570.28	-1720.44	  389.24
     66.4700	  587.00	  573.15	-1693.30	  389.37
     66.5700	  551.00	  577.66	-1733.82	  389.51
     66.6700	  526.00	  584.33	-1765.49	  389.64
     66.7700	  606.00	  594.24	-1695.39	  389.78
     66.8700	  580.00	  609.38	-1736.54	  389.91
     66.9700	  591.00	  633.09	-1749.25	  390.05
     67.0700	  642.00	  670.40	-1735.56	  390.18
     67.1700	  659.00	  728.25	-1776.41	  390.31
     67.2700	  773.00	  815.05	-1749.21	  390.45
     67.3700	  918.00	  939.05	-1728.21	  390.58
     67.4700	 1119.00	 1106.54	-1694.70	  390.72
     67.5700	 1308.00	 1318.57	-1717.73	  390.85
     67.6700	 1561.00	 1567.92	-1714.08	  390.98
     67.7700	 1809.00	 1836.80	-1734.95	  391.12
     67.8700	 2089.00	 2095.18	-1713.34	  391.25
     67.9700	 2321.00	 2302.63	-1688.79	  391.38
     68.0700	 2448.00	 2415.34	-1674.49	  391.51
     68.1700	 2535.00	 2403.94	-1576.10	  391.65
     68.2700	 2270.00	 2271.44	-1708.59	  391.78
     68.3700	 2050.00	 2051.78	-1708.94	  391.91
     68.4700	 1808.00	 1789.13	-1688.29	  392.04
     68.5700	 1604.00	 1522.43	-1625.59	  392.17
     68.6700	 1239.00	 1279.24	-1747.40	  392.30
     68.7700	 1003.00	 1075.43	-1779.59	  392.43
     68.8700	  901.00	  916.54	-1722.70	  392.56
     68.9700	  762.00	  800.38	-1745.54	  392.69
     69.0700	  714.00	  720.07	-1713.23	  392.82
     69.1700	  674.00	  667.05	-1700.20	  392.95
     69.2700	  661.00	  633.17	-1679.32	  393.08
     69.3700	  629.00	  611.83	-1689.99	  393.21
     69.4700	  580.00	  598.32	-1725.48	  393.33
     69.5700	  568.00	  589.55	-1728.71	  393.46
     69.6700	  586.00	  583.67	-1704.82	  393.59
     69.7700	  590.00	  579.62	-1696.78	  393.71
     69.8700	  568.00	  576.88	-1716.03	  393.84
     69.9700	  560.00	  575.10	-1722.26	  393.97
     70.0700	  591.00	  574.18	-1690.34	  394.09
     70.1700	  614.00	  574.08	-1667.24	  394.22
     70.2700	  566.00	  574.83	-1715.99	  394.34
     70.3700	  567.00	  576.58	-1716.74	  394.46
     70.4700	  546.00	  579.66	-1740.81	  394.59
     70.5700	  562.00	  584.67	-1729.82	  394.71
     70.6700	  611.00	  592.65	-1688.81	  394.83
     70.7700	  622.00	  605.36	-1690.51	  394.95
     70.8700	  635.00	  625.49	-1697.65	  395.07
     70.9700	  658.00	  656.83	-1705.99	  395.19
     71.0700	  669.00	  704.27	-1742.43	  395.31
     71.1700	  778.00	  773.21	-1702.37	  395.43
     71.2700	  879.00	  868.80	-1696.96	  395.55
     71.3700	 1013.00	  994.41	-1688.57	  395.67
     71.4700	 1086.00	 1149.82	-1770.97	  395.79
     71.5700	 1304.00	 1330.47	-1733.63	  395.90
     71.6700	 1503.00	 1522.94	-1727.09	  396.02
     71.7700	 1681.00	 1709.21	-1735.37	  396.14
     71.8700	 1800.00	 1864.26	-1771.42	  396.25
     71.9700	 1880.00	 1960.29	-1787.45	  396.37
     72.0700	 1916.00	 1976.07	-1767.23	  396.48
     72.1700	 1884.00	 1907.75	-1730.91	  396.59
     72.2700	 1821.00	 1771.40	-1657.56	  396.70
     72.3700	 1650.00	 1593.67	-1650.83	  396.82
     72.4700	 1506.00	 1401.31	-1602.47	  396.93
     72.5700	 1360.00	 1215.43	-1562.58	  397.04
     72.6700	 1154.00	 1049.78	-1602.93	  397.15
     72.7700	  965.00	  912.78	-1654.93	  397.26
     72.8700	  862.00	  805.76	-1650.92	  397.36
     72.9700	  795.00	  726.52	-1638.68	  397.47
     73.0700	  745.00	  670.44	-1632.60	  397.58
     73.1700	  736.00	  632.17	-1603.32	  397.68
     73.2700	  661.00	  606.67	-1652.82	  397.79
     73.3700	  671.00	  589.82	-1625.97	  397.89
     73.4700	  629.00	  578.60	-1656.75	  398.00
     73.5700	  619.00	  570.98	-1659.14	  398.10
     73.6700	  587.00	  565.69	-1685.85	  398.20
     73.7700	  554.00	  561.98	-1715.13	  398.30
     73.8700	  566.00	  559.40	-1700.56	  398.40
     73.9700	  591.00	  557.71	-1673.86	  398.50
     74.0700	  586.00	  556.70	-1677.85	  398.60
     74.1700	  559.00	  556.22	-1704.38	  398.70
     74.2700	  590.00	  556.10	-1673.25	  398.80
     74.3700	  646.00	  556.12	-1617.28	  398.89
     74.4700	  626.00	  556.08	-1637.24	  398.99
     74.5700	  614.00	  555.75	-1648.90	  399.08
     74.6700	  607.00	  554.98	-1655.13	  399.17
     74.7700	  645.00	  553.77	-1615.92	  399.27
     74.8700	  612.00	  552.27	-1647.43	  399.36
     74.9700	  600.00	  550.72	-1657.88	  399.45
     75.0700	  582.00	  549.35	-1674.50	  399.54
     75.1700	  616.00	  548.55	-1639.71	  399.63
     75.2700	  571.00	  548.61	-1684.77	  399.72
     75.3700	  529.00	  549.90	-1728.06	  399.80
     75.4700	  552.00	  552.85	-1708.01	  399.89
     75.5700	  599.00	  557.86	-1666.02	  399.97
     75.6700	  547.00	  565.59	-1725.75	  400.06
     75.7700	  554.00	  576.35	-1729.51	  400.14
     75.8700	  563.00	  590.30	-1734.46	  400.22
     75.9700	  663.00	  607.38	-1651.54	  400.31
     76.0700	  631.00	  626.91	-1703.07	  400.39
     76.1700	  638.00	  647.71	-1716.87	  400.46
     76.2700	  718.00	  667.99	-1657.15	  400.54
     76.3700	  671.00	  685.43	-1721.59	  400.62
     76.4700	  691.00	  697.42	-1713.57	  400.70
     76.5700	  702.00	  701.72	-1706.88	  400.77
     76.6700	  683.00	  697.42	-1721.58	  400.85
     76.7700	  691.00	  685.37	-1701.53	  400.92
     76.8700	  664.00	  667.77	-1710.93	  400.99
     76.9700	  694.00	  647.22	-1660.37	  401.06
     77.0700	  622.00	  625.85	-1711.01	  401.13
     77.1700	  608.00	  605.86	-1705.01	  401.20
     77.2700	  542.00	  588.22	-1753.38	  401.27
     77.3700	  541.00	  573.57	-1739.73	  401.33
     77.4700	  543.00	  562.02	-1726.18	  401.40
     77.5700	  491.00	  553.35	-1769.51	  401.46
     77.6700	  484.00	  547.12	-1770.28	  401.53
     77.7700	  502.00	  542.80	-1747.96	  401.59
     77.8700	  510.00	  539.90	-1737.06	  401.65
     77.9700	  513.00	  537.99	-1732.14	  401.71
     78.0700	  522.00	  536.74	-1721.89	  401.77
     78.1700	  524.00	  535.92	-1719.08	  401.83
     78.2700	  468.00	  535.39	-1774.55	  401.88
     78.3700	  515.00	  535.06	-1727.21	  401.94
     78.4700	  530.00	  534.86	-1712.02	  401.99
     78.5700	  476.00	  534.79	-1765.95	  402.04
     78.6700	  494.00	  534.84	-1747.99	  402.09
     78.7700	  524.00	  535.01	-1718.17	  402.15
     78.8700	  513.00	  535.34	-1729.50	  402.19
     78.9700	  558.00	  535.86	-1685.02	  402.24
     79.0700	  535.00	  536.61	-1708.76	  402.29
     79.1700	  494.00	  537.63	-1750.79	  402.33
     79.2700	  521.00	  538.97	-1725.13	  402.38
     79.3700	  531.00	  540.69	-1716.84	  402.42
     79.4700	  522.00	  542.62	-1727.77	  402.46
     79.5700	  552.00	  545.19	-1700.34	  402.51
     79.6700	  498.00	  548.25	-1757.41	  402.54
     79.7700	  541.00	  551.87	-1718.03	  402.58
     79.8700	  532.00	  556.15	-1731.30	  402.62
     79.9700	  606.00	  561.21	-1662.36	  402.66
     80.0700	  529.00	  567.26	-1745.41	  402.69
     80.1700	  589.00	  574.59	-1692.75	  402.72
     80.2700	  581.00	  583.56	-1709.72	  402.75
     80.3700	  601.00	  594.49	-1700.64	  402.79
     80.4700	  571.00	  607.53	-1743.68	  402.81
     80.5700	  594.00	  622.60	-1735.76	  402.84
     80.6700	  591.00	  639.33	-1755.49	  402.87
     80.7700	  643.00	  656.95	-1721.11	  402.89
     80.8700	  661.00	  674.40	-1720.56	  402.92
     80.9700	  675.00	  690.43	-1722.58	  402.94
     81.0700	  733.00	  703.84	-1678.00	  402.96
     81.1700	  755.00	  713.68	-1665.83	  402.98
     81.2700	  752.00	  719.26	-1674.41	  403.00
     81.3700	  790.00	  720.20	-1637.36	  403.02
     81.4700	  689.00	  716.50	-1734.66	  403.04
     81.5700	  732.00	  708.49	-1683.64	  403.05
     81.6700	  762.00	  696.72	-1641.87	  403.06
     81.7700	  728.00	  681.96	-1661.12	  403.08
     81.8700	  740.00	  665.22	-1632.38	  403.09
     81.9700	  659.00	  647.66	-1695.82	  403.10
     82.0700	  674.00	  630.36	-1663.52	  403.10
     82.1700	  696.00	  614.16	-1625.32	  403.11
     82.2700	  633.00	  599.61	-1673.77	  403.12
     82.3700	  556.00	  587.00	-1738.16	  403.12
     82.4700	  644.00	  576.45	-1639.61	  403.12
     82.5700	  560.00	  567.91	-1715.06	  403.12
     82.6700	  524.00	  561.43	-1744.58	  403.12
     82.7700	  599.00	  556.85	-1665.00	  403.12
     82.8700	  580.00	  554.03	-1681.19	  403.12
     82.9700	  597.00	  552.91	-1663.07	  403.11
     83.0700	  550.00	  553.35	-1710.51	  403.11
     83.1700	  550.00	  555.25	-1712.40	  403.10
     83.2700	  537.00	  558.45	-1728.60	  403.09
     83.3700	  541.00	  562.76	-1728.91	  403.08
     83.4700	  585.00	  567.91	-1690.06	  403.07
     83.5700	  585.00	  573.53	-1695.69	  403.06
     83.6700	  561.00	  579.15	-1725.31	  403.04
     83.7700	  583.00	  584.21	-1708.36	  403.03
     83.8700	  562.00	  588.07	-1733.23	  403.01
     83.9700	  605.00	  590.17	-1692.33	  402.99
     84.0700	  572.00	  590.13	-1725.29	  402.97
     84.1700	  594.00	  587.92	-1701.08	  402.95
     84.2700	  574.00	  583.85	-1717.00	  402.93
     84.3700	  555.00	  578.45	-1730.60	  402.90
     84.4700	  569.00	  572.31	-1710.46	  402.88
     84.5700	  541.00	  565.97	-1732.12	  402.85
     84.6700	  561.00	  559.85	-1706.01	  402.82
     84.7700	  543.00	  554.29	-1718.44	  402.79
     84.8700	  531.00	  549.46	-1725.62	  402.76
     84.9700	  516.00	  545.46	-1736.62	  402.73
     85.0700	  512.00	  542.30	-1737.46	  402.69
     85.1700	  556.00	  539.91	-1691.06	  402.66
     85.2700	  560.00	  538.19	-1685.35	  402.62
     85.3700	  603.00	  537.05	-1641.20	  402.58
     85.4700	  536.00	  536.37	-1707.53	  402.54
     85.5700	  527.00	  536.10	-1716.25	  402.50
     85.6700	  508.00	  536.18	-1735.33	  402.46
     85.7700	  516.00	  536.61	-1727.77	  402.41
     85.8700	  509.00	  537.44	-1735.60	  402.37
     85.9700	  518.00	  538.74	-1727.90	  402.32
     86.0700	  584.00	  540.64	-1663.80	  402.27
     86.1700	  514.00	  543.30	-1736.45	  402.22
     86.2700	  552.00	  546.88	-1702.04	  402.17
     86.3700	  537.00	  551.57	-1721.73	  402.11
     86.4700	  531.00	  557.53	-1733.69	  402.06
     86.5700	  553.00	  564.84	-1719.00	  402.00
     86.6700	  572.00	  573.49	-1708.65	  401.94
     86.7700	  578.00	  583.34	-1712.49	  401.89
     86.8700	  600.00	  594.05	-1701.21	  401.83
     86.9700	  596.00	  605.15	-1716.30	  401.76
     87.0700	  633.00	  615.94	-1690.09	  401.70
     87.1700	  642.00	  625.25	-1690.41	  401.63
     87.2700	  629.00	  632.86	-1711.02	  401.57
     87.3700	  676.00	  637.55	-1668.71	  401.50
     87.4700	  675.00	  638.73	-1670.88	  401.43
     87.5700	  646.00	  636.27	-1697.42	  401.36
     87.6700	  613.00	  630.59	-1724.75	  401.29
     87.7700	  628.00	  622.50	-1701.66	  401.21
     87.8700	  628.00	  612.97	-1692.12	  401.14
     87.9700	  596.00	  602.96	-1714.11	  401.06
     88.0700	  611.00	  593.32	-1689.47	  400.98
     88.1700	  570.00	  584.75	-1721.91	  400.90
     88.2700	  574.00	  577.78	-1710.94	  400.82
     88.3700	  564.00	  572.74	-1715.90	  400.74
     88.4700	  549.00	  569.77	-1727.93	  400.65
     88.5700	  532.00	  568.85	-1744.01	  400.57
     88.6700	  582.00	  569.81	-1694.96	  400.48
     88.7700	  606.00	  572.33	-1673.49	  400.39
     88.8700	  630.00	  576.03	-1653.19	  400.30
     88.9700	  600.00	  580.41	-1687.56	  400.21
     89.0700	  592.00	  584.91	-1700.07	  400.12
     89.1700	  624.00	  588.96	-1672.12	  400.03
     89.2700	  610.00	  591.99	-1689.15	  399.93
     89.3700	  599.00	  593.50	-1701.66	  399.83
     89.4700	  594.00	  593.21	-1706.36	  399.73
     89.5700	  620.00	  591.08	-1678.24	  399.63
     89.6700	  608.00	  587.36	-1686.51	  399.53
     89.7700	  545.00	  582.44	-1744.60	  399.43
     89.8700	  570.00	  576.80	-1713.95	  399.33
     89.9700	  555.00	  570.86	-1723.02	  399.22
     90.0700	  513.00	  565.01	-1759.16	  399.11
     90.1700	  569.00	  559.53	-1697.68	  399.00
     90.2700	  560.00	  554.63	-1701.78	  398.89
     90.3700	  528.00	  550.44	-1729.59	  398.78
     90.4700	  507.00	  547.00	-1747.15	  398.67
     90.5700	  451.00	  544.30	-1800.46	  398.56
     90.6700	  518.00	  542.29	-1731.45	  398.44
     90.7700	  528.00	  540.91	-1720.06	  398.32
     90.8700	  532.00	  540.05	-1715.21	  398.21
     90.9700	  520.00	  539.67	-1726.83	  398.09
     91.0700	  507.00	  539.71	-1739.87	  397.96
     91.1700	  527.00	  540.15	-1720.31	  397.84
     91.2700	  553.00	  541.02	-1695.17	  397.72
     91.3700	  588.00	  542.36	-1661.52	  397.59
     91.4700	  543.00	  544.28	-1708.44	  397.47
     91.5700	  539.00	  546.92	-1715.07	  397.34
     91.6700	  533.00	  550.44	-1724.60	  397.21
     91.7700	  510.00	  555.05	-1752.21	  397.08
     91.8700	  504.00	  560.97	-1764.13	  396.95
     91.9700	  515.00	  568.40	-1760.55	  396.81
     92.0700	  540.00	  577.51	-1744.67	  396.68
     92.1700	  583.00	  588.45	-1712.60	  396.54
     92.2700	  623.00	  601.23	-1685.39	  396.41
     92.3700	  618.00	  615.55	-1704.71	  396.27
     92.4700	  595.00	  631.72	-1743.88	  396.13
     92.5700	  641.00	  649.16	-1715.32	  395.99
     92.6700	  671.00	  667.38	-1703.54	  395.84
     92.7700	  677.00	  685.77	-1715.93	  395.70
     92.8700	  735.00	  703.61	-1675.76	  395.55
     92.9700	  703.00	  720.15	-1724.31	  395.41
     93.0700	  761.00	  734.80	-1680.95	  395.26
     93.1700	  768.00	  747.24	-1686.40	  395.11
     93.2700	  815.00	  757.57	-1649.73	  394.96
     93.3700	  746.00	  766.18	-1727.33	  394.81
     93.4700	  797.00	  773.61	-1683.77	  394.66
     93.5700	  779.00	  780.43	-1708.59	  394.50
     93.6700	  874.00	  787.13	-1620.29	  394.35
     93.7700	  920.00	  794.17	-1581.33	  394.19
     93.8700	  845.00	  802.02	-1664.18	  394.03
     93.9700	  866.00	  811.19	-1652.34	  393.87
     94.0700	  830.00	  822.09	-1699.25	  393.71
     94.1700	  909.00	  834.92	-1633.08	  393.55
     94.2700	  887.00	  849.51	-1669.66	  393.39
     94.3700	  872.00	  865.21	-1700.37	  393.23
     94.4700	  838.00	  880.95	-1750.11	  393.06
     94.5700	  910.00	  895.22	-1692.38	  392.90
     94.6700	  920.00	  906.26	-1693.42	  392.73
     94.7700	  914.00	  912.27	-1705.43	  392.56
     94.8700	  948.00	  911.81	-1670.96	  392.39
     94.9700	  900.00	  904.13	-1711.29	  392.22
     95.0700	  869.00	  889.47	-1727.62	  392.05
     95.1700	  894.00	  868.92	-1682.07	  391.87
     95.2700	  831.00	  844.19	-1720.34	  391.70
     95.3700	  750.00	  817.23	-1774.39	  391.53
     95.4700	  781.00	  790.04	-1716.20	  391.35
     95.5700	  755.00	  764.51	-1716.66	  391.17
     95.6700	  699.00	  742.35	-1750.51	  390.99
     95.7700	  740.00	  725.13	-1692.28	  390.81
     95.8700	  719.00	  714.21	-1702.37	  390.63
     95.9700	  755.00	  710.81	-1662.97	  390.45
     96.0700	  721.00	  715.94	-1702.09	  390.27
     96.1700	  740.00	  730.41	-1697.57	  390.09
     96.2700	  724.00	  754.84	-1737.99	  389.90
     96.3700	  812.00	  789.52	-1684.68	  389.72
     96.4700	  847.00	  834.43	-1694.59	  389.53
     96.5700	  883.00	  889.06	-1713.22	  389.34
     96.6700	  942.00	  952.38	-1717.54	  389.15
     96.7700	 1015.00	 1022.75	-1714.91	  388.97
     96.8700	 1079.00	 1097.88	-1726.04	  388.78
     96.9700	 1130.00	 1174.77	-1751.93	  388.58
     97.0700	 1271.00	 1249.81	-1685.97	  388.39
     97.1700	 1319.00	 1318.81	-1706.97	  388.20
     97.2700	 1372.00	 1377.31	-1712.47	  388.00
     97.3700	 1392.00	 1420.96	-1736.12	  387.81
     97.4700	 1418.00	 1446.17	-1735.32	  387.61
     97.5700	 1439.00	 1450.90	-1719.05	  387.42
     97.6700	 1456.00	 1435.12	-1686.28	  387.22
     97.7700	 1387.00	 1400.79	-1720.95	  387.02
     97.8700	 1335.00	 1351.28	-1723.44	  386.82
     97.9700	 1260.00	 1290.74	-1737.90	  386.62
     98.0700	 1158.00	 1223.47	-1772.63	  386.42
     98.1700	 1142.00	 1153.58	-1718.74	  386.22
     98.2700	 1129.00	 1084.76	-1662.92	  386.02
     98.3700	 1066.00	 1020.21	-1661.37	  385.81
     98.4700	  907.00	  962.58	-1762.74	  385.61
     98.5700	  912.00	  914.11	-1709.26	  385.41
     98.6700	  836.00	  876.44	-1747.60	  385.20
     98.7700	  826.00	  850.87	-1732.02	  385.00
     98.8700	  799.00	  838.30	-1746.46	  384.79
     98.9700	  794.00	  839.38	-1752.54	  384.58
     99.0700	  798.00	  854.51	-1763.67	  384.37
     99.1700	  878.00	  883.88	-1713.03	  384.16
     99.2700	  908.00	  927.46	-1726.62	  383.96
     99.3700	  954.00	  984.98	-1738.13	  383.75
     99.4700	 1102.00	 1055.82	-1660.98	  383.54
     99.5700	 1114.00	 1138.97	-1732.13	  383.32
     99.6700	 1148.00	 1232.88	-1792.04	  383.11
     99.7700	 1377.00	 1335.44	-1665.59	  382.90
     99.8700	 1506.00	 1443.82	-1644.98	  382.69
     99.9700	 1530.00	 1554.51	-1731.67	  382.47
    100.0700	 1736.00	 1663.36	-1634.51	  382.26
    100.1700	 1798.00	 1765.87	-1675.03	  382.05
    100.2700	 1910.00	 1857.64	-1654.79	  381.83
    100.3700	 1931.00	 1934.74	-1710.89	  381.62
    100.4700	 1952.00	 1994.15	-1749.31	  381.40
    100.5700	 1997.00	 2033.80	-1743.96	  381.18
    100.6700	 2021.00	 2052.40	-1738.55	  380.97
    100.7700	 2054.00	 2049.28	-1702.44	  380.75
    100.8700	 2000.00	 2024.46	-1731.62	  380.53
    100.9700	 1996.00	 1979.01	-1690.17	  380.32
    101.0700	 1927.00	 1915.34	-1695.50	  380.10
    101.1700	 1912.00	 1837.23	-1632.39	  379.88
    101.2700	 1739.00	 1749.40	-1717.55	  379.66
    101.3700	 1654.00	 1656.95	-1710.11	  379.44
    101.4700	 1497.00	 1564.74	-1774.89	  379.22
    101.5700	 1475.00	 1476.92	-1709.08	  379.00
    101.6700	 1387.00	 1396.72	-1716.87	  378.78
    101.7700	 1347.00	 1326.28	-1686.43	  378.56
    101.8700	 1341.00	 1266.76	-1632.92	  378.34
    101.9700	 1139.00	 1218.31	-1786.47	  378.12
    102.0700	 1159.00	 1180.16	-1728.32	  377.90
    102.1700	 1152.00	 1150.75	-1705.90	  377.68
    102.2700	 1175.00	 1127.91	-1660.06	  377.46
    102.3700	 1121.00	 1109.10	-1695.25	  377.24
    102.4700	 1100.00	 1091.64	-1698.80	  377.02
    102.5700	 1117.00	 1073.11	-1663.27	  376.80
    102.6700	 1009.00	 1051.60	-1749.76	  376.58
    102.7700	 1003.00	 1026.01	-1730.17	  376.35
    102.8700	  918.00	  996.07	-1785.23	  376.13
    102.9700	  924.00	  962.21	-1745.37	  375.91
    103.0700	  939.00	  925.34	-1693.49	  375.69
    103.1700	  910.00	  886.59	-1683.75	  375.47
    103.2700	  841.00	  847.17	-1713.33	  375.25
    103.3700	  865.00	  808.22	-1650.38	  375.03
    103.4700	  796.00	  770.76	-1681.91	  374.81
    103.5700	  747.00	  735.62	-1695.78	  374.59
    103.6700	  715.00	  703.45	-1695.61	  374.37
    103.7700	  707.00	  674.68	-1674.83	  374.15
    103.8700	  677.00	  649.51	-1679.67	  373.92
    103.9700	  598.00	  627.99	-1737.15	  373.70
    104.0700	  638.00	  610.00	-1679.15	  373.49
    104.1700	  554.00	  595.29	-1748.45	  373.27
    104.2700	  580.00	  583.56	-1710.72	  373.05
    104.3700	  607.00	  574.44	-1674.59	  372.83
    104.4700	  578.00	  567.55	-1696.70	  372.61
    104.5700	  561.00	  562.54	-1708.70	  372.39
    104.6700	  541.00	  559.08	-1725.23	  372.17
    104.7700	  566.00	  556.86	-1698.02	  371.95
    104.8700	  568.00	  555.68	-1694.83	  371.74
    104.9700	  560.00	  555.31	-1702.47	  371.52
    105.0700	  538.00	  555.61	-1724.77	  371.30
    105.1700	  540.00	  556.47	-1723.63	  371.09
    105.2700	  546.00	  557.82	-1718.98	  370.87
    105.3700	  563.00	  559.66	-1703.82	  370.66
    105.4700	  572.00	  561.98	-1697.14	  370.45
    105.5700	  555.00	  564.83	-1716.99	  370.23
    105.6700	  550.00	  568.31	-1725.47	  370.02
    105.7700	  597.00	  572.51	-1682.67	  369.81
    105.8700	  559.00	  577.53	-1725.68	  369.59
    105.9700	  597.00	  583.44	-1693.60	  369.38
    106.0700	  606.00	  590.30	-1691.46	  369.17
    106.1700	  590.00	  598.11	-1715.26	  368.96
    106.2700	  600.00	  606.80	-1713.96	  368.76
    106.3700	  625.00	  616.28	-1698.44	  368.55
    106.4700	  641.00	  626.35	-1692.51	  368.34
    106.5700	  622.00	  636.77	-1721.93	  368.13
    106.6700	  666.00	  647.24	-1688.40	  367.93
    106.7700	  645.00	  657.42	-1719.57	  367.72
    106.8700	  633.00	  666.92	-1741.08	  367.52
    106.9700	  659.00	  675.37	-1723.53	  367.32
    107.0700	  678.00	  682.42	-1711.58	  367.12
    107.1700	  667.00	  687.81	-1727.96	  366.92
    107.2700	  738.00	  691.40	-1660.56	  366.72
    107.3700	  696.00	  693.26	-1704.41	  366.52
    107.4700	  687.00	  693.58	-1713.74	  366.32
    107.5700	  661.00	  692.71	-1738.87	  366.12
    107.6700	  723.00	  691.07	-1675.23	  365.93
    107.7700	  723.00	  689.08	-1673.24	  365.73
    107.8700	  693.00	  687.12	-1701.28	  365.54
    107.9700	  656.00	  685.50	-1736.66	  365.35
    108.0700	  715.00	  684.42	-1676.58	  365.16
    108.1700	  752.00	  683.99	-1639.15	  364.97
    108.2700	  647.00	  684.19	-1744.35	  364.78
    108.3700	  737.00	  684.89	-1655.05	  364.59
    108.4700	  717.00	  685.87	-1676.02	  364.41
    108.5700	  628.00	  686.81	-1765.96	  364.22
    108.6700	  719.00	  687.33	-1675.49	  364.04
    108.7700	  700.00	  687.05	-1694.21	  363.86
    108.8700	  691.00	  685.61	-1701.76	  363.68
    108.9700	  678.00	  682.71	-1711.87	  363.50
    109.0700	  669.00	  678.25	-1716.41	  363.33
    109.1700	  723.00	  672.21	-1656.37	  363.15
    109.2700	  742.00	  664.73	-1629.88	  362.98
    109.3700	  706.00	  656.04	-1657.20	  362.81
    109.4700	  599.00	  646.46	-1754.62	  362.64
    109.5700	  588.00	  636.31	-1755.46	  362.47
    109.6700	  616.00	  625.91	-1717.06	  362.30
    109.7700	  647.00	  615.56	-1675.72	  362.14
    109.8700	  616.00	  605.54	-1696.69	  361.97
    109.9700	  596.00	  596.06	-1707.22	  361.81
    110.0700	  534.00	  587.32	-1760.47	  361.65
    110.1700	  485.00	  579.43	-1801.59	  361.50
    110.2700	  570.00	  572.50	-1709.65	  361.34
    110.3700	  587.00	  566.54	-1686.70	  361.19
    110.4700	  565.00	  561.58	-1703.74	  361.04
    110.5700	  544.00	  557.58	-1720.74	  360.89
    110.6700	  569.00	  554.48	-1692.63	  360.74
    110.7700	  563.00	  552.21	-1696.36	  360.59
    110.8700	  539.00	  550.68	-1718.83	  360.45
    110.9700	  556.00	  549.81	-1700.97	  360.31
    111.0700	  557.00	  549.52	-1699.67	  360.17
    111.1700	  499.00	  549.72	-1757.88	  360.03
    111.2700	  541.00	  550.35	-1716.50	  359.90
    111.3700	  526.00	  551.33	-1732.49	  359.77
    111.4700	  541.00	  552.63	-1718.78	  359.64
    111.5700	  535.00	  554.19	-1726.35	  359.51
    111.6700	  590.00	  555.99	-1673.15	  359.39
    111.7700	  565.00	  558.01	-1700.16	  359.26
    111.8700	  542.00	  560.22	-1725.38	  359.14
    111.9700	  533.00	  562.64	-1736.80	  359.02
    112.0700	  620.00	  565.26	-1652.42	  358.91
    112.1700	  605.00	  568.10	-1670.25	  358.80
    112.2700	  522.00	  571.18	-1756.33	  358.69
    112.3700	  563.00	  574.52	-1718.68	  358.58
    112.4700	  584.00	  578.18	-1701.34	  358.48
    112.5700	  556.00	  582.21	-1733.36	  358.37
    112.6700	  632.00	  586.66	-1661.82	  358.27
    112.7700	  554.00	  591.64	-1744.80	  358.18
    112.8700	  653.00	  597.25	-1651.41	  358.08
    112.9700	  635.00	  603.65	-1675.81	  357.99
    113.0700	  585.00	  611.04	-1733.19	  357.91
    113.1700	  680.00	  619.65	-1646.81	  357.82
    113.2700	  659.00	  629.83	-1677.98	  357.74
    113.3700	  664.00	  641.98	-1685.14	  357.66
    113.4700	  704.00	  656.63	-1659.79	  357.59
    113.5700	  729.00	  674.44	-1652.60	  357.51
    113.6700	  755.00	  696.22	-1648.38	  357.44
    113.7700	  817.00	  722.94	-1613.09	  357.38
    113.8700	  849.00	  755.81	-1613.97	  357.32
    113.9700	  922.00	  796.20	-1581.36	  357.26
    114.0700	  911.00	  845.74	-1641.90	  357.20
    114.1700	  979.00	  906.23	-1634.39	  357.15
    114.2700	 1029.00	  979.69	-1657.84	  357.10
    114.3700	 1141.00	 1068.31	-1634.47	  357.05
    114.4700	 1275.00	 1174.36	-1606.52	  357.01
    114.5700	 1420.00	 1300.19	-1587.35	  356.97
    114.6700	 1554.00	 1448.05	-1601.21	  356.93
    114.7700	 1778.00	 1619.99	-1549.14	  356.90
    114.8700	 1938.00	 1817.80	-1586.95	  356.87
    114.9700	 2179.00	 2042.71	-1570.86	  356.85
    115.0700	 2281.00	 2295.43	-1721.59	  356.83
    115.1700	 2610.00	 2575.82	-1672.97	  356.81
    115.2700	 2896.00	 2882.75	-1693.90	  356.80
    115.3700	 3260.00	 3214.21	-1661.37	  356.79
    115.4700	 3605.00	 3566.86	-1669.02	  356.78
    115.5700	 3876.00	 3936.34	-1767.50	  356.78
    115.6700	 4053.00	 4316.94	-1971.09	  356.78
    115.7700	 4474.00	 4701.68	-1934.84	  356.79
    115.8700	 4925.00	 5082.66	-1864.82	  356.80
    115.9700	 5220.00	 5450.67	-1937.83	  356.81
    116.0700	 5725.00	 5795.88	-1778.03	  356.83
    116.1700	 6102.00	 6107.69	-1712.85	  356.85
    116.2700	 6308.00	 6375.44	-1774.60	  356.88
    116.3700	 6559.00	 6589.06	-1737.22	  356.91
    116.4700	 6619.00	 6739.68	-1827.84	  356.95
    116.5700	 6779.00	 6820.74	-1748.90	  356.99
    116.6700	 6769.00	 6828.62	-1766.78	  357.03
    116.7700	 6805.00	 6763.25	-1665.41	  357.08
    116.8700	 6555.00	 6628.01	-1780.17	  357.13
    116.9700	 6450.00	 6429.38	-1686.54	  357.19
    117.0700	 6165.00	 6175.95	-1718.11	  357.26
    117.1700	 5890.00	 5877.79	-1694.94	  357.32
    117.2700	 5339.00	 5545.47	-1913.62	  357.39
    117.3700	 5226.00	 5189.31	-1670.46	  357.47
    117.4700	 4837.00	 4819.25	-1689.41	  357.55
    117.5700	 4550.00	 4444.16	-1601.32	  357.64
    117.6700	 4183.00	 4072.00	-1596.16	  357.73
    117.7700	 3916.00	 3709.60	-1500.75	  357.83
    117.8700	 3541.00	 3362.37	-1528.53	  357.93
    117.9700	 3130.00	 3034.78	-1611.94	  358.03
    118.0700	 2841.00	 2729.88	-1596.04	  358.15
    118.1700	 2502.00	 2449.81	-1654.96	  358.26
    118.2700	 2198.00	 2195.69	-1704.84	  358.38
    118.3700	 1923.00	 1967.67	-1751.83	  358.51
    118.4700	 1718.00	 1765.34	-1754.49	  358.64
    118.5700	 1543.00	 1587.55	-1751.70	  358.78
    118.6700	 1421.00	 1432.82	-1718.97	  358.92
    118.7700	 1257.00	 1299.33	-1749.48	  359.07
    118.8700	 1158.00	 1185.03	-1734.18	  359.22
    118.9700	 1054.00	 1087.86	-1741.01	  359.38
    119.0700	  900.00	 1005.71	-1812.87	  359.55
    119.1700	  905.00	  936.62	-1738.77	  359.72
    119.2700	  827.00	  878.72	-1758.88	  359.89
    119.3700	  799.00	  830.32	-1738.48	  360.08
    119.4700	  745.00	  789.95	-1752.10	  360.26
    119.5700	  753.00	  756.27	-1710.43	  360.46
    119.6700	  689.00	  728.19	-1746.34	  360.66
    119.7700	  671.00	  704.75	-1740.90	  360.86
    119.8700	  668.00	  685.15	-1724.31	  361.07
    119.9700	  615.00	  668.76	-1760.92	  361.29
    120.0700	  613.00	  655.03	-1749.18	  361.51
    120.1700	  603.00	  643.52	-1747.67	  361.74
    120.2700	  622.00	  633.88	-1719.04	  361.98
    120.3700	  609.00	  625.84	-1724.00	  362.22
    120.4700	  598.00	  619.17	-1728.33	  362.47
    120.5700	  558.00	  613.68	-1762.84	  362.73
    120.6700	  556.00	  609.25	-1760.40	  362.99
    120.7700	  611.00	  605.74	-1701.90	  363.25
    120.8700	  553.00	  603.08	-1757.24	  363.53
    120.9700	  590.00	  601.20	-1718.35	  363.81
    121.0700	  595.00	  600.02	-1712.18	  364.10
    121.1700	  551.00	  599.51	-1755.66	  364.39
    121.2700	  602.00	  599.61	-1704.76	  364.69
    121.3700	  600.00	  600.27	-1707.43	  365.00
    121.4700	  607.00	  601.46	-1701.62	  365.31
    121.5700	  580.00	  603.11	-1730.27	  365.64
    121.6700	  624.00	  605.18	-1688.34	  365.96
    121.7700	  608.00	  607.60	-1706.75	  366.30
    121.8700	  589.00	  610.29	-1728.45	  366.64
    121.9700	  620.00	  613.19	-1700.35	  366.99
    122.0700	  621.00	  616.22	-1702.37	  367.35
    122.1700	  659.00	  619.27	-1667.43	  367.71
    122.2700	  625.00	  622.24	-1704.40	  368.09
    122.3700	  612.00	  625.07	-1720.23	  368.46
    122.4700	  627.00	  627.65	-1707.80	  368.85
    122.5700	  633.00	  629.87	-1704.03	  369.24
    122.6700	  676.00	  631.67	-1662.83	  369.65
    122.7700	  641.00	  632.97	-1699.13	  370.06
    122.8700	  626.00	  633.74	-1714.89	  370.47
    122.9700	  606.00	  633.94	-1735.09	  370.90
    123.0700	  700.00	  633.58	-1640.74	  371.33
    123.1700	  620.00	  632.67	-1719.82	  371.77
    123.2700	  669.00	  631.27	-1669.43	  372.22
    123.3700	  668.00	  629.43	-1668.58	  372.67
    123.4700	  681.00	  627.20	-1653.36	  373.14
    123.5700	  656.00	  624.65	-1675.81	  373.61
    123.6700	  614.00	  621.85	-1715.01	  374.09
    123.7700	  619.00	  618.87	-1707.03	  374.58
    123.8700	  630.00	  615.77	-1692.92	  375.08
    123.9700	  612.00	  612.61	-1707.76	  375.58
    124.0700	  629.00	  609.44	-1687.60	  376.10
    124.1700	  623.00	  606.33	-1690.48	  376.62
    124.2700	  622.00	  603.31	-1688.46	  377.15
    124.3700	  588.00	  600.41	-1719.56	  377.69
    124.4700	  614.00	  597.67	-1690.82	  378.24
    124.5700	  566.00	  595.10	-1736.26	  378.79
    124.6700	  562.00	  592.74	-1737.90	  379.36
    124.7700	  635.00	  590.59	-1662.75	  379.93
    124.8700	  583.00	  588.67	-1712.83	  380.52
    124.9700	  573.00	  500.03	-1634.19	  381.11
    125.0700	  564.00	  500.64	-1707.16	  381.71
    125.1700	  562.00	  501.25	-1707.16	  382.32
    125.2700	  571.00	  501.87	-1707.16	  382.94
    125.3700	  526.00	  502.49	-1707.16	  383.57
    125.4700	  583.00	  503.13	-1707.16	  384.21
    125.5700	  545.00	  503.78	-1707.16	  384.85
    125.6700	  518.00	  504.44	-1707.16	  385.51
    125.7700	  558.00	  505.10	-1707.16	  386.18
    125.8700	  560.00	  505.78	-1707.16	  386.85
    125.9700	  584.00	  506.47	-1707.16	  387.54
    126.0700	  568.00	  507.16	-1707.16	  388.24
    126.1700	  561.00	  507.87	-1707.16	  388.94
    126.2700	  583.00	  508.58	-1707.16	  389.66
    126.3700	  597.00	  509.31	-1707.16	  390.38
    126.4700	  626.00	  510.04	-1707.16	  391.12
    126.5700	  594.00	  510.79	-1707.16	  391.86
    126.6700	  622.00	  511.54	-1707.16	  392.62
    126.7700	  627.00	  512.31	-1707.16	  393.38
    126.8700	  642.00	  513.08	-1707.16	  394.16
    126.9700	  607.00	  513.87	-1707.16	  394.94
    127.0700	  617.00	  514.67	-1707.16	  395.74
    127.1700	  667.00	  515.47	-1707.16	  396.55
    127.2700	  655.00	  516.29	-1707.16	  397.36
    127.3700	  682.00	  517.12	-1707.16	  398.19
    127.4700	  662.00	  517.96	-1707.16	  399.03
    127.5700	  677.00	  518.81	-1707.16	  399.88
    127.6700	  744.00	  519.67	-1707.16	  400.74
    127.7700	  726.00	  520.54	-1707.16	  401.61
    127.8700	  742.00	  521.42	-1707.16	  402.49
    127.9700	  744.00	  522.31	-1707.16	  403.39
    128.0700	  792.00	  523.22	-1707.16	  404.29
    128.1700	  740.00	  524.13	-1707.16	  405.21
    128.2700	  778.00	  525.06	-1707.16	  406.13
    128.3700	  760.00	  526.00	-1707.16	  407.07
    128.4700	  833.00	  526.95	-1707.16	  408.02
    128.5700	    0.00	  527.91	-1707.16	  408.98
    128.6700	    0.00	  528.88	-1707.16	  409.96
     12.3025	        	        	        	        	       0	(  0  0  2)	  0  1
     24.8780	        	        	        	        	       0	(  0  0  4)	  0  1
     28.3298	        	        	        	        	       0	(  1  0  0)	  0  1
     29.0263	        	        	        	        	       0	(  1  0  1)	  0  1
     31.0305	        	        	        	        	       0	(  1  0  2)	  0  1
     34.1359	        	        	        	        	       0	(  1  0  3)	  0  1
     37.7688	        	        	        	        	       0	(  0  0  6)	  0  1
     38.1094	        	        	        	        	       0	(  1  0  4)	  0  1
     42.7554	        	        	        	        	       0	(  1  0  5)	  0  1
     47.9350	        	        	        	        	       0	(  1  0  6)	  0  1
     50.2623	        	        	        	        	       0	(  1  1  0)	  0  1
     51.1808	        	        	        	        	       0	(  0  0  8)	  0  1
     51.9835	        	        	        	        	       0	(  1  1  2)	  0  1
     53.5606	        	        	        	        	       0	(  1  0  7)	  0  1
     56.9263	        	        	        	        	       0	(  1  1  4)	  0  1
     58.7574	        	        	        	        	       0	(  2  0  0)	  0  1
     59.1486	        	        	        	        	       0	(  2  0  1)	  0  1
     59.5857	        	        	        	        	       0	(  1  0  8)	  0  1
     60.3127	        	        	        	        	       0	(  2  0  2)	  0  1
     62.2239	        	        	        	        	       0	(  2  0  3)	  0  1
     64.6132	        	        	        	        	       0	(  1  1  6)	  0  1
     64.8452	        	        	        	        	       0	(  2  0  4)	  0  1
     65.3982	        	        	        	        	       0	(  0  0 10)	  0  1
     65.9962	        	        	        	        	       0	(  1  0  9)	  0  1
     68.1359	        	        	        	        	       0	(  2  0  5)	  0  1
     72.0592	        	        	        	        	       0	(  2  0  6)	  0  1
     72.8057	        	        	        	        	       0	(  1  0 10)	  0  1
     74.6405	        	        	        	        	       0	(  1  1  8)	  0  1
     76.5884	        	        	        	        	       0	(  2  0  7)	  0  1
     80.0558	        	        	        	        	       0	(  1  0 11)	  0  1
     80.8633	        	        	        	        	       0	(  0  0 12)	  0  1
     80.9927	        	        	        	        	       0	(  2  1  0)	  0  1
     81.3322	        	        	        	        	       0	(  2  1  1)	  0  1
     81.7129	        	        	        	        	       0	(  2  0  8)	  0  1
     82.3489	        	        	        	        	       0	(  2  1  2)	  0  1
     84.0382	        	        	        	        	       0	(  2  1  3)	  0  1
     86.3950	        	        	        	        	       0	(  2  1  4)	  0  1
     86.8980	        	        	        	        	       0	(  1  1 10)	  0  1
     87.4442	        	        	        	        	       0	(  2  0  9)	  0  1
     87.8211	        	        	        	        	       0	(  1  0 12)	  0  1
     89.4172	        	        	        	        	       0	(  2  1  5)	  0  1
     93.1100	        	        	        	        	       0	(  2  1  6)	  0  1
     93.8236	        	        	        	        	       0	(  2  0 10)	  0  1
     94.8769	        	        	        	        	       0	(  3  0  0)	  0  1
     95.2138	        	        	        	        	       0	(  3  0  1)	  0  1
     96.2235	        	        	        	        	       0	(  1  0 13)	  0  1
     96.2257	        	        	        	        	       0	(  3  0  2)	  0  1
     97.4929	        	        	        	        	       0	(  2  1  7)	  0  1
     97.9169	        	        	        	        	       0	(  3  0  3)	  0  1
     98.3806	        	        	        	        	       0	(  0  0 14)	  0  1
    100.2968	        	        	        	        	       0	(  3  0  4)	  0  1
    100.9357	        	        	        	        	       0	(  2  0 11)	  0  1
    101.7486	        	        	        	        	       0	(  1  1 12)	  0  1
    102.6084	        	        	        	        	       0	(  2  1  8)	  0  1
    103.3842	        	        	        	        	       0	(  3  0  5)	  0  1
    105.4620	        	        	        	        	       0	(  1  0 14)	  0  1
    107.2139	        	        	        	        	       0	(  3  0  6)	  0  1
    108.5364	        	        	        	        	       0	(  2  1  9)	  0  1
    108.9344	        	        	        	        	       0	(  2  0 12)	  0  1
    111.8473	        	        	        	        	       0	(  3  0  7)	  0  1
    115.4218	        	        	        	        	       0	(  2  1 10)	  0  1
    115.8857	        	        	        	        	       0	(  1  0 15)	  0  1
    116.5914	        	        	        	        	       0	(  2  2  0)	  0  1
    117.3916	        	        	        	        	       0	(  3  0  8)	  0  1
    118.1017	        	        	        	        	       0	(  2  0 13)	  0  1
    118.1043	        	        	        	        	       0	(  2  2  2)	  0  1
    119.8284	        	        	        	        	       0	(  0  0 16)	  0  1
    120.5583	        	        	        	        	       0	(  1  1 14)	  0  1
    122.7821	        	        	        	        	       0	(  2  2  4)	  0  1
    123.5330	        	        	        	        	       0	(  2  1 11)	  0  1
    124.0391	        	        	        	        	       0	(  3  0  9)	  0  1
    124.6510	        	        	        	        	       0	(  3  1  0)	  0  1
    125.0606	        	        	        	        	       0	(  3  1  1)	  0  1
    126.3018	        	        	        	        	       0	(  3  1  2)	  0  1
    128.1977	        	        	        	        	       0	(  1  0 16)	  0  1
    128.4163	        	        	        	        	       0	(  3  1  3)	  0  1
    129.0053	        	        	        	        	       0	(  2  0 14)	  0  1
    131.2060	        	        	        	        	       0	(  2  2  6)	  0  1
    131.4863	        	        	        	        	       0	(  3  1  4)	  0  1
    132.1615	        	        	        	        	       0	(  3  0 10)	  0  1
    133.4207	        	        	        	        	       0	(  2  1 12)	  0  1
    135.6643	        	        	        	        	       0	(  3  1  5)	  0  1
    141.2457	        	        	        	        	       0	(  3  1  6)	  0  1
    142.6080	        	        	        	        	       0	(  3  0 11)	  0  1
    143.0933	        	        	        	        	       0	(  2  0 15)	  0  1
    144.2997	        	        	        	        	       0	(  1  0 17)	  0  1
    145.4014	        	        	        	        	       0	(  2  2  8)	  0  1
    146.5266	        	        	        	        	       0	(  2  1 13)	  0  1
    148.8936	        	        	        	        	       0	(  3  1  7)	  0  1
    149.3804	        	        	        	        	       0	(  1  1 16)	  0  1
    153.7105	        	        	        	        	       0	(  0  0 18)	  0  1
    158.3907	        	        	        	        	       0	(  3  0 12)	  0  1
    158.7424	        	        	        	        	       0	(  4  0  0)	  0  1
    159.6936	        	        	        	        	       0	(  4  0  1)	  0  1
    160.8152	        	        	        	        	       0	(  3  1  8)	  0  1
    162.8493	        	        	        	        	       0	(  4  0  2)	  0  1
    169.1298	        	        	        	        	       0	(  2  0 16)	  0  1
    170.0904	        	        	        	        	       0	(  4  0  3)	  0  1
    173.3189	        	        	        	        	       0	(  2  1 14)	  0  1
