MSG Master    CELL:    5.89103   5.89103  23.15314   90.0000   90.0000  120.0000   SPGR: P 63/m m c             TEMP:    658.95
  2   1280     2.52000     0.00000    -0.09823     0.00000     0.00000    0
    96    96     0     0     2
       0.00000      10.00000
     125.00000     130.00000
 2Theta	Yobs	Ycal	Yobs-Ycal	Backg	Posr	(hkl)	K
      0.7700	    0.00	  743.84	-1867.42	  621.06
      0.8700	    0.00	  742.91	-1867.42	  620.13
      0.9700	   42.00	  741.99	-1867.42	  619.21
      1.0700	   40.00	  741.07	-1867.42	  618.29
      1.1700	   39.00	  740.15	-1867.42	  617.37
      1.2700	   46.00	  739.24	-1867.42	  616.45
      1.3700	   49.00	  738.32	-1867.42	  615.54
      1.4700	  105.00	  737.40	-1867.42	  614.62
      1.5700	  271.00	  736.49	-1867.42	  613.71
      1.6700	  453.00	  735.58	-1867.42	  612.80
      1.7700	  585.00	  734.67	-1867.42	  611.89
      1.8700	  665.00	  733.76	-1867.42	  610.98
      1.9700	  711.00	  732.85	-1867.42	  610.07
      2.0700	  768.00	  731.94	-1867.42	  609.16
      2.1700	  780.00	  731.04	-1867.42	  608.26
      2.2700	  784.00	  730.14	-1867.42	  607.35
      2.3700	  740.00	  729.23	-1867.42	  606.45
      2.4700	  738.00	  728.33	-1867.42	  605.55
      2.5700	  670.00	  727.44	-1867.42	  604.65
      2.6700	  706.00	  726.54	-1867.42	  603.76
      2.7700	  623.00	  725.64	-1867.42	  602.86
      2.8700	  643.00	  724.75	-1867.42	  601.97
      2.9700	  630.00	  723.86	-1867.42	  601.07
      3.0700	  584.00	  722.96	-1867.42	  600.18
      3.1700	  609.00	  722.08	-1867.42	  599.29
      3.2700	  644.00	  721.19	-1867.42	  598.41
      3.3700	  905.00	  720.30	-1867.42	  597.52
      3.4700	 1016.00	  719.42	-1867.42	  596.63
      3.5700	 1097.00	  718.53	-1867.42	  595.75
      3.6700	 1306.00	  717.65	-1867.42	  594.87
      3.7700	 1372.00	  716.77	-1867.42	  593.99
      3.8700	 1479.00	  715.90	-1867.42	  593.11
      3.9700	 1462.00	  715.02	-1867.42	  592.24
      4.0700	 1547.00	  714.14	-1867.42	  591.36
      4.1700	 1616.00	  713.27	-1867.42	  590.49
      4.2700	 1638.00	  712.40	-1867.42	  589.62
      4.3700	 1577.00	  711.53	-1867.42	  588.75
      4.4700	 1447.00	  710.66	-1867.42	  587.88
      4.5700	 1467.00	  709.80	-1867.42	  587.01
      4.6700	 1434.00	  708.93	-1867.42	  586.15
      4.7700	 1384.00	  708.07	-1867.42	  585.29
      4.8700	 1311.00	  707.21	-1867.42	  584.43
      4.9700	 1316.00	  706.35	-1867.42	  583.57
      5.0700	 1243.00	  705.49	-1867.42	  582.71
      5.1700	 1233.00	  704.64	-1867.42	  581.86
      5.2700	 1253.00	  703.78	-1867.42	  581.00
      5.3700	 1159.00	  702.93	-1867.42	  580.15
      5.4700	 1101.00	  702.08	-1867.42	  579.30
      5.5700	 1098.00	  701.23	-1867.42	  578.45
      5.6700	 1097.00	  700.39	-1867.42	  577.61
      5.7700	 1030.00	  699.54	-1867.42	  576.76
      5.8700	 1048.00	  698.70	-1867.42	  575.92
      5.9700	  996.00	  697.86	-1867.42	  575.08
      6.0700	 1008.00	  697.02	-1867.42	  574.24
      6.1700	  971.00	  696.19	-1867.42	  573.40
      6.2700	  966.00	  695.35	-1867.42	  572.57
      6.3700	  981.00	  694.52	-1867.42	  571.74
      6.4700	  940.00	  693.69	-1867.42	  570.90
      6.5700	  911.00	  692.86	-1867.42	  570.08
      6.6700	  893.00	  692.03	-1867.42	  569.25
      6.7700	  852.00	  691.20	-1867.42	  568.42
      6.8700	  850.00	  690.38	-1867.42	  567.60
      6.9700	  816.00	  689.56	-1867.42	  566.78
      7.0700	  879.00	  688.74	-1867.42	  565.96
      7.1700	  779.00	  687.92	-1867.42	  565.14
      7.2700	  821.00	  687.11	-1867.42	  564.33
      7.3700	  773.00	  686.29	-1867.42	  563.51
      7.4700	  827.00	  685.48	-1867.42	  562.70
      7.5700	  730.00	  684.67	-1867.42	  561.89
      7.6700	  815.00	  683.86	-1867.42	  561.08
      7.7700	  763.00	  683.06	-1867.42	  560.28
      7.8700	  752.00	  682.26	-1867.42	  559.47
      7.9700	  768.00	  681.45	-1867.42	  558.67
      8.0700	  688.00	  680.65	-1867.42	  557.87
      8.1700	  778.00	  679.86	-1867.42	  557.08
      8.2700	  761.00	  679.06	-1867.42	  556.28
      8.3700	  705.00	  678.27	-1867.42	  555.49
      8.4700	  767.00	  677.48	-1867.42	  554.70
      8.5700	  757.00	  676.69	-1867.42	  553.91
      8.6700	  744.00	  675.90	-1867.42	  553.12
      8.7700	  692.00	  675.12	-1867.42	  552.33
      8.8700	  697.00	  674.33	-1867.42	  551.55
      8.9700	  725.00	  673.55	-1867.42	  550.77
      9.0700	  730.00	  672.77	-1867.42	  549.99
      9.1700	  709.00	  672.00	-1867.42	  549.22
      9.2700	  675.00	  671.22	-1867.42	  548.44
      9.3700	  735.00	  670.45	-1867.42	  547.67
      9.4700	  735.00	  669.68	-1867.42	  546.90
      9.5700	  715.00	  668.91	-1867.42	  546.13
      9.6700	  693.00	  668.15	-1867.42	  545.36
      9.7700	  678.00	  667.38	-1867.42	  544.60
      9.8700	  662.00	  666.62	-1867.42	  543.84
      9.9700	  704.00	  665.86	-1867.42	  543.08
     10.0700	  710.00	  667.38	-1824.79	  542.32
     10.1700	  691.00	  666.88	-1843.29	  541.57
     10.2700	  681.00	  666.43	-1852.85	  540.81
     10.3700	  738.00	  666.06	-1795.48	  540.06
     10.4700	  688.00	  665.80	-1845.22	  539.31
     10.5700	  662.00	  665.69	-1871.11	  538.57
     10.6700	  629.00	  665.81	-1904.23	  537.82
     10.7700	  680.00	  666.25	-1853.67	  537.08
     10.8700	  721.00	  667.11	-1813.53	  536.34
     10.9700	  697.00	  668.46	-1838.88	  535.60
     11.0700	  675.00	  670.34	-1862.75	  534.87
     11.1700	  670.00	  672.76	-1870.17	  534.14
     11.2700	  682.00	  675.75	-1861.16	  533.41
     11.3700	  633.00	  679.37	-1913.79	  532.68
     11.4700	  657.00	  683.75	-1894.17	  531.95
     11.5700	  722.00	  689.07	-1834.48	  531.23
     11.6700	  687.00	  695.58	-1876.00	  530.50
     11.7700	  722.00	  703.61	-1849.02	  529.78
     11.8700	  763.00	  713.37	-1817.79	  529.07
     11.9700	  781.00	  724.75	-1811.17	  528.35
     12.0700	  819.00	  736.77	-1785.18	  527.64
     12.1700	  796.00	  747.04	-1818.45	  526.93
     12.2700	  818.00	  751.34	-1800.76	  526.22
     12.3700	  778.00	  744.95	-1834.36	  525.51
     12.4700	  772.00	  727.82	-1823.24	  524.81
     12.5700	  681.00	  706.76	-1893.18	  524.11
     12.6700	  671.00	  688.25	-1884.67	  523.41
     12.7700	  665.00	  674.41	-1876.83	  522.71
     12.8700	  627.00	  664.93	-1905.34	  522.02
     12.9700	  629.00	  658.66	-1897.08	  521.33
     13.0700	  655.00	  654.47	-1866.89	  520.64
     13.1700	  582.00	  651.51	-1936.92	  519.95
     13.2700	  629.00	  649.25	-1887.67	  519.26
     13.3700	  617.00	  647.41	-1897.83	  518.58
     13.4700	  664.00	  645.85	-1849.27	  517.90
     13.5700	  644.00	  644.47	-1867.89	  517.22
     13.6700	  640.00	  643.24	-1870.65	  516.54
     13.7700	  616.00	  642.10	-1893.52	  515.87
     13.8700	  594.00	  641.05	-1914.47	  515.20
     13.9700	  642.00	  640.07	-1865.48	  514.53
     14.0700	  615.00	  639.13	-1891.55	  513.86
     14.1700	  616.00	  638.24	-1889.65	  513.20
     14.2700	  610.00	  637.38	-1894.79	  512.54
     14.3700	  619.00	  636.55	-1884.96	  511.88
     14.4700	  653.00	  635.74	-1850.16	  511.22
     14.5700	  645.00	  634.96	-1857.37	  510.56
     14.6700	  634.00	  634.19	-1867.60	  509.91
     14.7700	  616.00	  633.44	-1884.85	  509.26
     14.8700	  619.00	  632.70	-1881.11	  508.61
     14.9700	  605.00	  631.97	-1894.39	  507.97
     15.0700	  619.00	  631.26	-1879.67	  507.32
     15.1700	  654.00	  630.55	-1843.97	  506.68
     15.2700	  619.00	  629.85	-1878.27	  506.05
     15.3700	  610.00	  629.17	-1886.58	  505.41
     15.4700	  590.00	  628.48	-1905.90	  504.78
     15.5700	  606.00	  627.81	-1889.22	  504.14
     15.6700	  667.00	  627.14	-1827.55	  503.52
     15.7700	  611.00	  626.48	-1882.89	  502.89
     15.8700	  636.00	  625.82	-1857.23	  502.26
     15.9700	  622.00	  625.17	-1870.58	  501.64
     16.0700	  577.00	  624.52	-1914.93	  501.02
     16.1700	  589.00	  623.88	-1902.29	  500.41
     16.2700	  623.00	  623.24	-1867.65	  499.79
     16.3700	  620.00	  622.60	-1870.02	  499.18
     16.4700	  611.00	  621.97	-1878.39	  498.57
     16.5700	  634.00	  621.35	-1854.76	  497.96
     16.6700	  635.00	  620.72	-1853.14	  497.36
     16.7700	  615.00	  620.10	-1872.52	  496.75
     16.8700	  628.00	  619.49	-1858.90	  496.15
     16.9700	  598.00	  618.88	-1888.29	  495.56
     17.0700	  581.00	  618.27	-1904.68	  494.96
     17.1700	  617.00	  617.66	-1868.08	  494.37
     17.2700	  596.00	  617.06	-1888.48	  493.78
     17.3700	  585.00	  616.46	-1898.88	  493.19
     17.4700	  578.00	  615.87	-1905.28	  492.60
     17.5700	  577.00	  615.28	-1905.69	  492.02
     17.6700	  614.00	  614.69	-1868.10	  491.44
     17.7700	  587.00	  614.10	-1894.52	  490.86
     17.8700	  601.00	  613.52	-1879.93	  490.28
     17.9700	  609.00	  612.94	-1871.35	  489.71
     18.0700	  586.00	  612.36	-1893.78	  489.14
     18.1700	  630.00	  611.79	-1849.20	  488.57
     18.2700	  601.00	  611.22	-1877.63	  488.00
     18.3700	  593.00	  610.65	-1885.06	  487.44
     18.4700	  652.00	  611.16	-1826.58	  486.88
     18.5700	  595.00	  611.26	-1883.67	  486.32
     18.6700	  586.00	  610.73	-1892.15	  485.76
     18.7700	  622.00	  610.21	-1855.63	  485.21
     18.8700	  567.00	  609.69	-1910.11	  484.65
     18.9700	  632.00	  609.18	-1844.60	  484.10
     19.0700	  594.00	  608.67	-1882.09	  483.56
     19.1700	  599.00	  608.17	-1876.58	  483.01
     19.2700	  603.00	  607.67	-1872.08	  482.47
     19.3700	  605.00	  607.17	-1869.59	  481.93
     19.4700	  609.00	  606.68	-1865.10	  481.39
     19.5700	  647.00	  606.19	-1826.61	  480.86
     19.6700	  570.00	  605.71	-1903.13	  480.32
     19.7700	  601.00	  605.28	-1871.70	  479.79
     19.8700	  589.00	  604.81	-1883.23	  479.26
     19.9700	  592.00	  604.34	-1879.76	  478.74
     20.0700	  598.00	  603.88	-1873.30	  478.22
     20.1700	  593.00	  603.42	-1877.84	  477.69
     20.2700	  567.00	  602.97	-1903.39	  477.18
     20.3700	  586.00	  602.52	-1883.94	  476.66
     20.4700	  608.00	  602.08	-1861.50	  476.15
     20.5700	  600.00	  601.64	-1869.06	  475.64
     20.6700	  617.00	  601.21	-1851.63	  475.13
     20.7700	  599.00	  600.79	-1869.20	  474.62
     20.8700	  594.00	  600.37	-1873.79	  474.12
     20.9700	  577.00	  599.96	-1890.37	  473.61
     21.0700	  613.00	  599.55	-1853.97	  473.12
     21.1700	  574.00	  599.15	-1892.57	  472.62
     21.2700	  597.00	  598.76	-1869.18	  472.12
     21.3700	  581.00	  598.38	-1884.80	  471.63
     21.4700	  572.00	  598.00	-1893.42	  471.14
     21.5700	  566.00	  597.64	-1899.05	  470.66
     21.6700	  611.00	  597.28	-1853.70	  470.17
     21.7700	  606.00	  596.93	-1858.35	  469.69
     21.8700	  582.00	  596.59	-1882.01	  469.21
     21.9700	  625.00	  596.26	-1838.68	  468.73
     22.0700	  608.00	  596.13	-1855.55	  468.26
     22.1700	  595.00	  595.83	-1868.24	  467.78
     22.2700	  608.00	  595.54	-1854.96	  467.31
     22.3700	  612.00	  595.27	-1850.68	  466.84
     22.4700	  634.00	  595.01	-1828.43	  466.38
     22.5700	  592.00	  594.77	-1870.19	  465.92
     22.6700	  583.00	  594.55	-1878.96	  465.45
     22.7700	  606.00	  594.35	-1855.76	  465.00
     22.8700	  619.00	  594.17	-1842.59	  464.54
     22.9700	  605.00	  594.02	-1856.44	  464.09
     23.0700	  594.00	  593.91	-1867.32	  463.63
     23.1700	  632.00	  593.83	-1829.24	  463.19
     23.2700	  594.00	  593.79	-1867.20	  462.74
     23.3700	  648.00	  593.80	-1813.21	  462.29
     23.4700	  576.00	  593.87	-1885.29	  461.85
     23.5700	  605.00	  594.02	-1856.44	  461.41
     23.6700	  654.00	  594.28	-1807.69	  460.98
     23.7700	  595.00	  594.66	-1867.08	  460.54
     23.8700	  623.00	  595.25	-1839.67	  460.11
     23.9700	  602.00	  596.13	-1861.55	  459.68
     24.0700	  650.00	  597.47	-1814.88	  459.25
     24.1700	  604.00	  599.52	-1862.93	  458.83
     24.2700	  619.00	  602.64	-1851.05	  458.40
     24.3700	  621.00	  607.19	-1853.61	  457.98
     24.4700	  667.00	  613.67	-1814.09	  457.56
     24.5700	  681.00	  622.12	-1808.54	  457.15
     24.6700	  708.00	  632.16	-1791.58	  456.73
     24.7700	  647.00	  642.60	-1863.01	  456.32
     24.8700	  721.00	  651.07	-1797.48	  455.91
     24.9700	  705.00	  654.13	-1816.54	  455.51
     25.0700	  685.00	  649.36	-1831.78	  455.10
     25.1700	  659.00	  638.72	-1847.14	  454.70
     25.2700	  641.00	  627.07	-1853.48	  454.30
     25.3700	  653.00	  617.51	-1831.93	  453.90
     25.4700	  620.00	  610.86	-1858.27	  453.51
     25.5700	  616.00	  606.78	-1858.19	  453.11
     25.6700	  643.00	  604.63	-1829.04	  452.72
     25.7700	  648.00	  603.77	-1823.19	  452.33
     25.8700	  610.00	  603.77	-1861.19	  451.95
     25.9700	  643.00	  604.36	-1828.78	  451.56
     26.0700	  635.00	  605.42	-1837.83	  451.18
     26.1700	  621.00	  606.89	-1853.31	  450.80
     26.2700	  634.00	  608.79	-1842.21	  450.43
     26.3700	  616.00	  611.15	-1862.56	  450.05
     26.4700	  671.00	  614.02	-1810.43	  449.68
     26.5700	  630.00	  617.49	-1854.90	  449.31
     26.6700	  673.00	  621.67	-1816.08	  448.94
     26.7700	  621.00	  626.72	-1873.13	  448.58
     26.8700	  613.00	  632.84	-1887.26	  448.21
     26.9700	  653.00	  640.33	-1854.75	  447.85
     27.0700	  621.00	  649.58	-1895.99	  447.49
     27.1700	  660.00	  661.15	-1868.57	  447.14
     27.2700	  655.00	  675.95	-1888.37	  446.78
     27.3700	  724.00	  695.55	-1838.96	  446.43
     27.4700	  703.00	  723.07	-1887.49	  446.08
     27.5700	  726.00	  765.00	-1906.41	  445.73
     27.6700	  746.00	  834.12	-1955.53	  445.39
     27.7700	  816.00	  953.26	-2004.68	  445.05
     27.8700	  863.00	 1157.67	-2162.09	  444.70
     27.9700	 1162.00	 1490.47	-2195.89	  444.37
     28.0700	 1677.00	 1983.91	-2174.33	  444.03
     28.1700	 2544.00	 2625.21	-1948.62	  443.70
     28.2700	 3568.00	 3312.40	-1611.82	  443.36
     28.3700	 4431.00	 3825.71	-1262.13	  443.03
     28.4700	 4383.00	 3885.63	-1370.05	  442.71
     28.5700	 3694.00	 3436.55	-1609.96	  442.38
     28.6700	 2648.00	 2829.77	-2049.19	  442.06
     28.7700	 2116.00	 2414.32	-2165.74	  441.74
     28.8700	 2087.00	 2290.94	-2071.35	  441.42
     28.9700	 2423.00	 2375.76	-1820.18	  441.10
     29.0700	 2616.00	 2484.95	-1736.37	  440.79
     29.1700	 2596.00	 2417.66	-1689.08	  440.47
     29.2700	 2232.00	 2103.16	-1738.58	  440.16
     29.3700	 1685.00	 1679.70	-1862.11	  439.86
     29.4700	 1222.00	 1305.36	-1950.77	  439.55
     29.5700	 1029.00	 1039.65	-1878.07	  439.25
     29.6700	  824.00	  875.91	-1919.32	  438.94
     29.7700	  782.00	  782.98	-1868.39	  438.64
     29.8700	  775.00	  730.48	-1822.90	  438.35
     29.9700	  769.00	  698.59	-1797.00	  438.05
     30.0700	  762.00	  677.20	-1782.61	  437.76
     30.1700	  698.00	  661.88	-1831.30	  437.47
     30.2700	  698.00	  650.85	-1820.26	  437.18
     30.3700	  666.00	  643.53	-1844.95	  436.89
     30.4700	  682.00	  640.18	-1825.59	  436.61
     30.5700	  688.00	  641.68	-1821.10	  436.32
     30.6700	  629.00	  649.35	-1887.77	  436.04
     30.7700	  710.00	  664.05	-1821.46	  435.77
     30.8700	  733.00	  684.87	-1819.28	  435.49
     30.9700	  693.00	  707.83	-1882.25	  435.22
     31.0700	  736.00	  725.16	-1856.58	  434.94
     31.1700	  718.00	  726.69	-1876.11	  434.67
     31.2700	  713.00	  707.68	-1862.10	  434.41
     31.3700	  688.00	  676.72	-1856.14	  434.14
     31.4700	  682.00	  646.28	-1831.70	  433.88
     31.5700	  596.00	  622.60	-1894.01	  433.61
     31.6700	  634.00	  606.53	-1839.94	  433.35
     31.7700	  583.00	  596.52	-1880.93	  433.10
     31.8700	  614.00	  590.44	-1843.86	  432.84
     31.9700	  570.00	  586.61	-1884.03	  432.59
     32.0700	  606.00	  584.02	-1845.43	  432.33
     32.1700	  565.00	  582.14	-1884.56	  432.08
     32.2700	  600.00	  580.75	-1848.17	  431.84
     32.3700	  575.00	  579.74	-1872.16	  431.59
     32.4700	  595.00	  579.07	-1851.49	  431.35
     32.5700	  566.00	  578.71	-1880.13	  431.11
     32.6700	  595.00	  578.71	-1851.12	  430.87
     32.7700	  585.00	  579.02	-1861.44	  430.63
     32.8700	  638.00	  579.73	-1809.15	  430.39
     32.9700	  576.00	  580.92	-1872.34	  430.16
     33.0700	  627.00	  582.72	-1823.14	  429.93
     33.1700	  608.00	  585.37	-1844.78	  429.70
     33.2700	  607.00	  589.29	-1849.70	  429.47
     33.3700	  575.00	  595.33	-1887.75	  429.24
     33.4700	  616.00	  605.10	-1856.51	  429.02
     33.5700	  649.00	  621.37	-1839.78	  428.80
     33.6700	  650.00	  648.41	-1865.83	  428.58
     33.7700	  670.00	  691.50	-1888.91	  428.36
     33.8700	  711.00	  754.86	-1911.28	  428.14
     33.9700	  879.00	  837.75	-1826.17	  427.93
     34.0700	 1023.00	  929.88	-1774.30	  427.71
     34.1700	 1113.00	 1008.74	-1763.15	  427.50
     34.2700	 1109.00	 1042.32	-1800.74	  427.30
     34.3700	 1088.00	 1008.16	-1787.57	  427.09
     34.4700	  946.00	  921.56	-1842.98	  426.88
     34.5700	  831.00	  821.99	-1858.41	  426.68
     34.6700	  728.00	  736.67	-1876.09	  426.48
     34.7700	  612.00	  674.42	-1929.84	  426.28
     34.8700	  631.00	  633.72	-1870.13	  426.08
     34.9700	  598.00	  608.91	-1878.33	  425.89
     35.0700	  583.00	  594.11	-1878.53	  425.69
     35.1700	  617.00	  584.96	-1835.38	  425.50
     35.2700	  566.00	  578.84	-1880.26	  425.31
     35.3700	  591.00	  574.40	-1850.82	  425.12
     35.4700	  518.00	  570.99	-1920.41	  424.93
     35.5700	  629.00	  568.28	-1806.69	  424.75
     35.6700	  601.00	  566.07	-1832.48	  424.57
     35.7700	  567.00	  564.24	-1864.66	  424.39
     35.8700	  524.00	  562.72	-1906.14	  424.21
     35.9700	  578.00	  561.44	-1850.86	  424.03
     36.0700	  606.00	  560.36	-1821.78	  423.85
     36.1700	  536.00	  559.45	-1890.87	  423.68
     36.2700	  542.00	  558.69	-1884.11	  423.51
     36.3700	  544.00	  558.06	-1881.48	  423.33
     36.4700	  531.00	  557.55	-1893.97	  423.17
     36.5700	  538.00	  557.66	-1887.07	  423.00
     36.6700	  505.00	  557.39	-1919.81	  422.83
     36.7700	  587.00	  557.46	-1837.88	  422.67
     36.8700	  542.00	  557.49	-1882.90	  422.51
     36.9700	  564.00	  557.70	-1861.12	  422.35
     37.0700	  539.00	  558.17	-1886.59	  422.19
     37.1700	  538.00	  559.02	-1888.43	  422.03
     37.2700	  534.00	  560.43	-1893.85	  421.88
     37.3700	  524.00	  562.72	-1906.14	  421.72
     37.4700	  539.00	  566.37	-1894.79	  421.57
     37.5700	  576.00	  572.00	-1863.42	  421.42
     37.6700	  561.00	  580.44	-1886.85	  421.27
     37.7700	  551.00	  592.31	-1908.73	  421.13
     37.8700	  642.00	  607.72	-1833.14	  420.98
     37.9700	  621.00	  625.66	-1872.07	  420.84
     38.0700	  667.00	  643.70	-1844.11	  420.70
     38.1700	  606.00	  657.82	-1919.24	  420.55
     38.2700	  654.00	  662.63	-1876.04	  420.42
     38.3700	  665.00	  654.34	-1856.75	  420.28
     38.4700	  676.00	  635.75	-1827.16	  420.14
     38.5700	  636.00	  612.92	-1844.34	  420.01
     38.6700	  614.00	  593.46	-1846.88	  419.88
     38.7700	  563.00	  578.49	-1882.90	  419.75
     38.8700	  560.00	  568.07	-1875.48	  419.62
     38.9700	  582.00	  561.31	-1846.73	  419.49
     39.0700	  570.00	  557.09	-1854.50	  419.36
     39.1700	  626.00	  554.41	-1795.83	  419.24
     39.2700	  521.00	  552.63	-1899.04	  419.12
     39.3700	  527.00	  551.35	-1891.77	  419.00
     39.4700	  571.00	  550.37	-1846.79	  418.88
     39.5700	  573.00	  549.59	-1844.01	  418.76
     39.6700	  531.00	  548.96	-1885.37	  418.64
     39.7700	  518.00	  548.42	-1897.84	  418.52
     39.8700	  542.00	  547.98	-1873.39	  418.41
     39.9700	  543.00	  547.00	-1871.42	  418.30
     40.0700	  513.00	  546.69	-1901.11	  418.19
     40.1700	  538.00	  546.43	-1875.85	  418.08
     40.2700	  548.00	  546.21	-1865.63	  417.97
     40.3700	  550.00	  546.58	-1863.99	  417.86
     40.4700	  513.00	  546.44	-1900.86	  417.76
     40.5700	  555.00	  546.34	-1858.75	  417.66
     40.6700	  557.00	  546.27	-1856.68	  417.55
     40.7700	  522.00	  546.23	-1891.65	  417.45
     40.8700	  536.00	  546.23	-1877.65	  417.35
     40.9700	  551.00	  546.27	-1862.69	  417.26
     41.0700	  549.00	  546.35	-1864.77	  417.16
     41.1700	  591.00	  546.54	-1822.95	  417.07
     41.2700	  534.00	  546.72	-1880.14	  416.97
     41.3700	  614.00	  546.97	-1800.38	  416.88
     41.4700	  562.00	  547.30	-1852.71	  416.79
     41.5700	  556.00	  547.73	-1859.14	  416.70
     41.6700	  517.00	  548.29	-1898.70	  416.61
     41.7700	  514.00	  549.03	-1902.44	  416.52
     41.8700	  536.00	  550.04	-1881.46	  416.44
     41.9700	  537.00	  551.50	-1881.92	  416.36
     42.0700	  587.00	  553.72	-1834.13	  416.27
     42.1700	  541.00	  557.20	-1883.62	  416.19
     42.2700	  536.00	  562.74	-1894.15	  416.11
     42.3700	  574.00	  571.28	-1864.70	  416.03
     42.4700	  540.00	  583.76	-1911.18	  415.96
     42.5700	  552.00	  600.60	-1916.01	  415.88
     42.6700	  624.00	  621.01	-1864.42	  415.80
     42.7700	  633.00	  642.17	-1876.58	  415.73
     42.8700	  621.00	  659.13	-1905.54	  415.66
     42.9700	  712.00	  665.17	-1820.58	  415.59
     43.0700	  607.00	  657.23	-1917.64	  415.52
     43.1700	  648.00	  638.83	-1858.24	  415.45
     43.2700	  596.00	  616.94	-1888.35	  415.38
     43.3700	  617.00	  596.75	-1847.17	  415.32
     43.4700	  598.00	  580.82	-1850.23	  415.25
     43.5700	  595.00	  569.12	-1841.54	  415.19
     43.6700	  558.00	  561.27	-1870.68	  415.13
     43.7700	  540.00	  556.26	-1883.67	  415.06
     43.8700	  558.00	  553.12	-1862.54	  415.00
     43.9700	  517.00	  551.12	-1901.53	  414.95
     44.0700	  507.00	  549.78	-1910.19	  414.89
     44.1700	  553.00	  548.83	-1863.24	  414.83
     44.2700	  545.00	  548.12	-1870.53	  414.78
     44.3700	  534.00	  547.58	-1880.99	  414.72
     44.4700	  573.00	  547.16	-1841.57	  414.67
     44.5700	  525.00	  547.05	-1889.46	  414.62
     44.6700	  568.00	  546.80	-1846.22	  414.57
     44.7700	  548.00	  546.62	-1866.04	  414.52
     44.8700	  531.00	  546.52	-1882.93	  414.47
     44.9700	  531.00	  546.44	-1882.85	  414.42
     45.0700	  544.00	  546.40	-1869.82	  414.37
     45.1700	  564.00	  546.41	-1849.82	  414.33
     45.2700	  588.00	  546.45	-1825.86	  414.29
     45.3700	  542.00	  546.52	-1871.93	  414.24
     45.4700	  569.00	  546.71	-1845.13	  414.20
     45.5700	  605.00	  546.85	-1809.27	  414.16
     45.6700	  525.00	  547.02	-1889.44	  414.12
     45.7700	  544.00	  547.23	-1870.64	  414.08
     45.8700	  575.00	  547.46	-1839.88	  414.04
     45.9700	  529.00	  547.74	-1886.15	  414.01
     46.0700	  566.00	  548.05	-1849.47	  413.97
     46.1700	  571.00	  548.50	-1844.91	  413.94
     46.2700	  528.00	  548.91	-1888.32	  413.90
     46.3700	  573.00	  549.37	-1843.79	  413.87
     46.4700	  527.00	  549.90	-1890.32	  413.84
     46.5700	  571.00	  550.50	-1846.92	  413.81
     46.6700	  546.00	  551.01	-1872.43	  413.78
     46.7700	  581.00	  551.81	-1838.22	  413.75
     46.8700	  521.00	  552.74	-1899.16	  413.72
     46.9700	  545.00	  553.86	-1876.28	  413.69
     47.0700	  583.00	  555.25	-1839.67	  413.67
     47.1700	  553.00	  557.07	-1871.49	  413.64
     47.2700	  536.00	  559.57	-1890.99	  413.62
     47.3700	  570.00	  563.16	-1860.57	  413.59
     47.4700	  603.00	  568.37	-1832.79	  413.57
     47.5700	  544.00	  575.83	-1899.25	  413.55
     47.6700	  648.00	  586.09	-1805.50	  413.53
     47.7700	  561.00	  599.32	-1905.74	  413.51
     47.8700	  551.00	  615.00	-1931.41	  413.49
     47.9700	  644.00	  631.44	-1854.86	  413.47
     48.0700	  610.00	  645.50	-1902.92	  413.46
     48.1700	  654.00	  653.55	-1866.96	  413.44
     48.2700	  663.00	  652.09	-1856.50	  413.42
     48.3700	  699.00	  642.86	-1811.28	  413.41
     48.4700	  620.00	  629.99	-1877.40	  413.40
     48.5700	  599.00	  617.29	-1885.71	  413.38
     48.6700	  605.00	  607.01	-1869.42	  413.37
     48.7700	  565.00	  600.05	-1902.46	  413.36
     48.8700	  582.00	  596.51	-1881.93	  413.35
     48.9700	  559.00	  596.07	-1904.49	  413.34
     49.0700	  631.00	  598.31	-1834.72	  413.33
     49.1700	  628.00	  602.92	-1842.34	  413.32
     49.2700	  581.00	  609.98	-1896.39	  413.31
     49.3700	  620.00	  620.11	-1867.53	  413.31
     49.4700	  620.00	  635.11	-1882.52	  413.30
     49.5700	  661.00	  658.93	-1865.34	  413.29
     49.6700	  639.00	  699.37	-1927.78	  413.29
     49.7700	  759.00	  769.77	-1878.18	  413.29
     49.8700	  952.00	  889.39	-1804.80	  413.28
     49.9700	 1141.00	 1079.96	-1806.37	  413.28
     50.0700	 1361.00	 1356.86	-1863.28	  413.28
     50.1700	 1739.00	 1715.66	-1844.07	  413.28
     50.2700	 2270.00	 2117.89	-1715.31	  413.28
     50.3700	 2492.00	 2482.08	-1857.49	  413.28
     50.4700	 2711.00	 2693.99	-1850.41	  413.28
     50.5700	 2745.00	 2663.43	-1785.84	  413.28
     50.6700	 2354.00	 2402.37	-1915.78	  413.28
     50.7700	 1974.00	 2018.45	-1911.86	  413.28
     50.8700	 1504.00	 1624.71	-1988.12	  413.29
     50.9700	 1122.00	 1291.78	-2037.19	  413.29
     51.0700	  993.00	 1047.21	-1921.62	  413.30
     51.1700	  824.00	  887.81	-1931.22	  413.30
     51.2700	  761.00	  793.83	-1900.24	  413.31
     51.3700	  765.00	  741.52	-1843.93	  413.31
     51.4700	  708.00	  710.99	-1870.41	  413.32
     51.5700	  676.00	  689.56	-1880.98	  413.33
     51.6700	  618.00	  671.56	-1920.97	  413.34
     51.7700	  648.00	  655.83	-1875.25	  413.34
     51.8700	  605.00	  642.59	-1905.00	  413.35
     51.9700	  608.00	  632.10	-1891.52	  413.36
     52.0700	  606.00	  624.29	-1885.70	  413.37
     52.1700	  604.00	  618.72	-1882.13	  413.38
     52.2700	  626.00	  614.82	-1856.24	  413.39
     52.3700	  656.00	  612.25	-1823.66	  413.41
     52.4700	  662.00	  611.01	-1816.42	  413.42
     52.5700	  676.00	  611.44	-1802.85	  413.43
     52.6700	  630.00	  614.09	-1851.51	  413.44
     52.7700	  631.00	  619.87	-1856.29	  413.46
     52.8700	  649.00	  630.21	-1848.63	  413.47
     52.9700	  623.00	  647.27	-1891.68	  413.49
     53.0700	  680.00	  673.90	-1861.32	  413.50
     53.1700	  712.00	  713.42	-1868.84	  413.52
     53.2700	  796.00	  768.81	-1840.22	  413.53
     53.3700	  873.00	  841.59	-1836.00	  413.55
     53.4700	  984.00	  930.04	-1813.45	  413.57
     53.5700	 1031.00	 1027.78	-1864.20	  413.58
     53.6700	 1132.00	 1121.50	-1856.92	  413.60
     53.7700	 1229.00	 1190.63	-1829.04	  413.62
     53.8700	 1195.00	 1213.49	-1885.90	  413.64
     53.9700	 1169.00	 1181.26	-1879.68	  413.65
     54.0700	 1112.00	 1105.89	-1861.31	  413.67
     54.1700	 1026.00	 1010.21	-1851.62	  413.69
     54.2700	  922.00	  913.92	-1859.33	  413.71
     54.3700	  795.00	  828.87	-1901.28	  413.73
     54.4700	  768.00	  760.32	-1859.73	  413.75
     54.5700	  688.00	  709.04	-1888.45	  413.77
     54.6700	  656.00	  673.08	-1884.50	  413.79
     54.7700	  625.00	  649.26	-1891.68	  413.82
     54.8700	  647.00	  634.23	-1854.65	  413.84
     54.9700	  623.00	  625.18	-1869.60	  413.86
     55.0700	  593.00	  620.07	-1894.49	  413.88
     55.1700	  556.00	  617.58	-1928.99	  413.90
     55.2700	  644.00	  616.95	-1840.36	  413.93
     55.3700	  667.00	  617.78	-1818.20	  413.95
     55.4700	  669.00	  619.93	-1818.35	  413.97
     55.5700	  598.00	  623.40	-1892.82	  414.00
     55.6700	  645.00	  628.31	-1850.72	  414.02
     55.7700	  643.00	  634.95	-1859.36	  414.04
     55.8700	  663.00	  643.89	-1848.31	  414.07
     55.9700	  700.00	  656.21	-1823.62	  414.09
     56.0700	  695.00	  673.90	-1846.31	  414.12
     56.1700	  701.00	  700.48	-1866.90	  414.14
     56.2700	  684.00	  741.78	-1925.19	  414.17
     56.3700	  794.00	  806.24	-1879.66	  414.19
     56.4700	  839.00	  904.99	-1933.40	  414.22
     56.5700	 1047.00	 1049.97	-1870.39	  414.24
     56.6700	 1252.00	 1250.70	-1866.12	  414.27
     56.7700	 1485.00	 1509.39	-1891.81	  414.29
     56.8700	 1893.00	 1815.30	-1789.71	  414.32
     56.9700	 2139.00	 2139.43	-1867.84	  414.34
     57.0700	 2397.00	 2429.88	-1900.29	  414.37
     57.1700	 2654.00	 2616.35	-1829.76	  414.40
     57.2700	 2694.00	 2637.79	-1811.21	  414.42
     57.3700	 2418.00	 2486.04	-1935.45	  414.45
     57.4700	 2122.00	 2213.55	-1958.96	  414.48
     57.5700	 1794.00	 1893.27	-1966.68	  414.50
     57.6700	 1482.00	 1582.53	-1967.95	  414.53
     57.7700	 1216.00	 1315.27	-1966.68	  414.56
     57.8700	 1022.00	 1105.72	-1951.14	  414.58
     57.9700	  867.00	  954.43	-1954.84	  414.61
     58.0700	  853.00	  853.81	-1868.23	  414.64
     58.1700	  754.00	  793.39	-1906.80	  414.66
     58.2700	  743.00	  763.71	-1888.12	  414.69
     58.3700	  732.00	  758.40	-1893.82	  414.72
     58.4700	  809.00	  774.27	-1832.68	  414.74
     58.5700	  810.00	  810.19	-1867.60	  414.77
     58.6700	  830.00	  865.41	-1902.83	  414.80
     58.7700	  925.00	  937.65	-1880.06	  414.83
     58.8700	 1051.00	 1021.43	-1837.84	  414.85
     58.9700	 1067.00	 1107.09	-1907.50	  414.88
     59.0700	 1222.00	 1182.56	-1827.98	  414.91
     59.1700	 1260.00	 1238.91	-1846.32	  414.93
     59.2700	 1278.00	 1273.64	-1863.06	  414.96
     59.3700	 1266.00	 1286.60	-1888.01	  414.99
     59.4700	 1244.00	 1276.57	-1899.99	  415.02
     59.5700	 1288.00	 1246.31	-1825.73	  415.04
     59.6700	 1205.00	 1206.56	-1868.98	  415.07
     59.7700	 1241.00	 1171.33	-1797.75	  415.10
     59.8700	 1162.00	 1151.50	-1856.91	  415.12
     59.9700	 1118.00	 1153.91	-1903.33	  415.15
     60.0700	 1261.00	 1183.49	-1789.90	  415.18
     60.1700	 1316.00	 1243.02	-1794.43	  415.20
     60.2700	 1366.00	 1329.59	-1831.00	  415.23
     60.3700	 1474.00	 1431.20	-1824.61	  415.25
     60.4700	 1534.00	 1525.48	-1858.89	  415.28
     60.5700	 1576.00	 1582.44	-1873.85	  415.31
     60.6700	 1577.00	 1575.81	-1866.23	  415.33
     60.7700	 1551.00	 1499.99	-1816.40	  415.36
     60.8700	 1396.00	 1374.02	-1845.44	  415.38
     60.9700	 1243.00	 1226.88	-1851.30	  415.41
     61.0700	 1074.00	 1083.16	-1876.58	  415.43
     61.1700	  958.00	  958.66	-1868.07	  415.46
     61.2700	  882.00	  861.25	-1846.67	  415.48
     61.3700	  837.00	  792.84	-1823.26	  415.51
     61.4700	  757.00	  751.78	-1862.19	  415.53
     61.5700	  788.00	  735.42	-1814.84	  415.56
     61.6700	  741.00	  741.98	-1868.40	  415.58
     61.7700	  797.00	  771.45	-1841.87	  415.60
     61.8700	  882.00	  825.15	-1810.56	  415.63
     61.9700	  975.00	  904.38	-1796.79	  415.65
     62.0700	 1074.00	 1008.38	-1801.80	  415.67
     62.1700	 1144.00	 1132.20	-1855.62	  415.70
     62.2700	 1284.00	 1264.90	-1848.32	  415.72
     62.3700	 1447.00	 1388.15	-1808.56	  415.74
     62.4700	 1445.00	 1477.12	-1899.54	  415.76
     62.5700	 1484.00	 1507.35	-1890.76	  415.79
     62.6700	 1437.00	 1468.65	-1899.07	  415.81
     62.7700	 1316.00	 1372.85	-1924.26	  415.83
     62.8700	 1199.00	 1244.96	-1913.37	  415.85
     62.9700	 1116.00	 1109.39	-1860.80	  415.87
     63.0700	  953.00	  983.59	-1898.01	  415.89
     63.1700	  846.00	  877.50	-1898.92	  415.91
     63.2700	  796.00	  794.92	-1866.34	  415.93
     63.3700	  726.00	  735.15	-1876.56	  415.95
     63.4700	  649.00	  694.78	-1913.20	  415.97
     63.5700	  657.00	  669.49	-1879.90	  415.99
     63.6700	  655.00	  655.25	-1867.66	  416.01
     63.7700	  637.00	  649.15	-1879.57	  416.02
     63.8700	  660.00	  649.66	-1857.07	  416.04
     63.9700	  665.00	  656.50	-1858.92	  416.06
     64.0700	  630.00	  670.67	-1908.08	  416.08
     64.1700	  720.00	  693.90	-1841.31	  416.09
     64.2700	  741.00	  728.45	-1854.86	  416.11
     64.3700	  841.00	  776.51	-1802.92	  416.13
     64.4700	  881.00	  839.43	-1825.85	  416.14
     64.5700	  917.00	  916.42	-1866.84	  416.16
     64.6700	 1011.00	 1005.44	-1861.86	  416.17
     64.7700	 1142.00	 1099.34	-1824.76	  416.19
     64.8700	 1217.00	 1187.63	-1838.05	  416.20
     64.9700	 1307.00	 1256.56	-1816.97	  416.21
     65.0700	 1313.00	 1294.00	-1848.41	  416.23
     65.1700	 1300.00	 1293.15	-1860.56	  416.24
     65.2700	 1242.00	 1254.99	-1880.41	  416.25
     65.3700	 1161.00	 1188.36	-1894.77	  416.26
     65.4700	 1091.00	 1105.85	-1882.27	  416.27
     65.5700	  970.00	 1020.15	-1917.57	  416.29
     65.6700	  935.00	  939.96	-1872.38	  416.30
     65.7700	  837.00	  869.79	-1900.21	  416.31
     65.8700	  749.00	  811.07	-1929.48	  416.32
     65.9700	  747.00	  763.63	-1884.05	  416.32
     66.0700	  658.00	  726.54	-1935.96	  416.33
     66.1700	  707.00	  698.51	-1858.93	  416.34
     66.2700	  712.00	  677.85	-1833.26	  416.35
     66.3700	  689.00	  663.08	-1841.50	  416.36
     66.4700	  638.00	  652.94	-1882.35	  416.36
     66.5700	  658.00	  646.48	-1855.89	  416.37
     66.6700	  625.00	  643.07	-1885.48	  416.37
     66.7700	  667.00	  642.53	-1842.95	  416.38
     66.8700	  625.00	  644.37	-1886.79	  416.38
     66.9700	  631.00	  648.96	-1885.37	  416.39
     67.0700	  622.00	  656.91	-1902.33	  416.39
     67.1700	  712.00	  669.49	-1824.91	  416.39
     67.2700	  690.00	  688.85	-1866.27	  416.40
     67.3700	  709.00	  718.33	-1876.74	  416.40
     67.4700	  735.00	  762.60	-1895.02	  416.40
     67.5700	  862.00	  827.64	-1833.06	  416.40
     67.6700	  902.00	  920.14	-1885.55	  416.40
     67.7700	  987.00	 1046.41	-1926.83	  416.40
     67.8700	 1230.00	 1210.58	-1848.00	  416.40
     67.9700	 1420.00	 1412.68	-1860.10	  416.40
     68.0700	 1673.00	 1646.55	-1840.97	  416.40
     68.1700	 1919.00	 1897.93	-1846.34	  416.39
     68.2700	 2057.00	 2142.82	-1953.23	  416.39
     68.3700	 2346.00	 2347.36	-1868.77	  416.39
     68.4700	 2484.00	 2472.50	-1855.92	  416.38
     68.5700	 2430.00	 2488.07	-1925.48	  416.38
     68.6700	 2418.00	 2389.88	-1839.29	  416.37
     68.7700	 2146.00	 2202.59	-1924.01	  416.37
     68.8700	 2072.00	 1964.61	-1760.03	  416.36
     68.9700	 1695.00	 1712.11	-1884.53	  416.35
     69.0700	 1419.00	 1471.74	-1920.16	  416.34
     69.1700	 1235.00	 1260.18	-1892.60	  416.33
     69.2700	 1050.00	 1085.64	-1903.05	  416.32
     69.3700	  950.00	  949.52	-1866.93	  416.31
     69.4700	  918.00	  848.51	-1797.93	  416.30
     69.5700	  772.00	  776.68	-1872.09	  416.29
     69.6700	  693.00	  727.26	-1901.67	  416.28
     69.7700	  727.00	  694.02	-1834.43	  416.27
     69.8700	  677.00	  671.83	-1862.24	  416.25
     69.9700	  691.00	  656.93	-1833.35	  416.24
     70.0700	  622.00	  646.78	-1892.19	  416.22
     70.1700	  663.00	  639.74	-1844.15	  416.21
     70.2700	  644.00	  634.85	-1858.27	  416.19
     70.3700	  656.00	  631.56	-1842.98	  416.18
     70.4700	  663.00	  629.60	-1834.01	  416.16
     70.5700	  632.00	  628.83	-1864.25	  416.14
     70.6700	  678.00	  629.29	-1818.70	  416.12
     70.7700	  658.00	  631.12	-1840.54	  416.10
     70.8700	  648.00	  634.68	-1854.09	  416.08
     70.9700	  635.00	  640.59	-1873.01	  416.06
     71.0700	  675.00	  649.66	-1842.08	  416.04
     71.1700	  704.00	  663.86	-1827.28	  416.02
     71.2700	  753.00	  685.24	-1799.65	  415.99
     71.3700	  757.00	  716.78	-1827.20	  415.97
     71.4700	  725.00	  762.12	-1904.53	  415.95
     71.5700	  807.00	  825.20	-1885.61	  415.92
     71.6700	  882.00	  909.69	-1895.11	  415.89
     71.7700	 1006.00	 1018.10	-1879.52	  415.87
     71.8700	 1161.00	 1150.69	-1857.10	  415.84
     71.9700	 1308.00	 1304.44	-1863.85	  415.81
     72.0700	 1492.00	 1472.89	-1848.30	  415.78
     72.1700	 1677.00	 1642.14	-1832.55	  415.75
     72.2700	 1773.00	 1795.18	-1889.59	  415.72
     72.3700	 1851.00	 1909.70	-1926.11	  415.69
     72.4700	 1950.00	 1963.89	-1881.31	  415.66
     72.5700	 1947.00	 1945.54	-1865.96	  415.62
     72.6700	 1812.00	 1858.86	-1914.28	  415.59
     72.7700	 1754.00	 1721.98	-1835.39	  415.56
     72.8700	 1606.00	 1557.87	-1819.28	  415.52
     72.9700	 1471.00	 1386.93	-1783.35	  415.49
     73.0700	 1171.00	 1224.26	-1920.68	  415.45
     73.1700	 1123.00	 1079.49	-1823.90	  415.41
     73.2700	  971.00	  957.59	-1854.00	  415.37
     73.3700	  856.00	  859.83	-1871.24	  415.33
     73.4700	  807.00	  784.72	-1845.13	  415.29
     73.5700	  732.00	  729.13	-1864.54	  415.25
     73.6700	  766.00	  689.22	-1790.63	  415.21
     73.7700	  695.00	  661.19	-1833.60	  415.17
     73.8700	  680.00	  641.78	-1829.19	  415.13
     73.9700	  649.00	  628.41	-1846.83	  415.08
     74.0700	  616.00	  619.26	-1870.67	  415.04
     74.1700	  572.00	  613.06	-1908.47	  414.99
     74.2700	  592.00	  608.48	-1883.89	  414.95
     74.3700	  612.00	  606.09	-1861.51	  414.90
     74.4700	  569.00	  605.01	-1903.42	  414.85
     74.5700	  622.00	  604.96	-1850.37	  414.80
     74.6700	  617.00	  605.67	-1856.08	  414.75
     74.7700	  648.00	  606.83	-1826.25	  414.70
     74.8700	  651.00	  608.08	-1824.49	  414.65
     74.9700	  688.00	  608.98	-1788.39	  414.60
     75.0700	  697.00	  609.12	-1779.54	  414.54
     75.1700	  699.00	  608.27	-1776.68	  414.49
     75.2700	  700.00	  606.47	-1773.88	  414.44
     75.3700	  669.00	  604.02	-1802.44	  414.38
     75.4700	  682.00	  601.60	-1787.01	  414.32
     75.5700	  687.00	  599.73	-1780.15	  414.27
     75.6700	  693.00	  599.04	-1773.45	  414.21
     75.7700	  621.00	  600.15	-1846.57	  414.15
     75.8700	  652.00	  603.75	-1819.17	  414.09
     75.9700	  648.00	  610.54	-1829.95	  414.03
     76.0700	  663.00	  621.18	-1825.60	  413.97
     76.1700	  671.00	  636.19	-1832.60	  413.91
     76.2700	  664.00	  656.08	-1859.50	  413.84
     76.3700	  692.00	  680.80	-1856.22	  413.78
     76.4700	  692.00	  709.86	-1885.28	  413.71
     76.5700	  733.00	  742.15	-1876.56	  413.65
     76.6700	  818.00	  775.78	-1825.20	  413.58
     76.7700	  823.00	  808.06	-1852.48	  413.51
     76.8700	  867.00	  835.46	-1835.88	  413.45
     76.9700	  855.00	  854.03	-1866.44	  413.38
     77.0700	  855.00	  860.41	-1872.83	  413.31
     77.1700	  823.00	  853.27	-1897.68	  413.24
     77.2700	  789.00	  833.93	-1912.34	  413.16
     77.3700	  840.00	  805.71	-1833.12	  413.09
     77.4700	  744.00	  772.56	-1895.97	  413.02
     77.5700	  709.00	  737.96	-1896.37	  412.94
     77.6700	  711.00	  704.60	-1861.01	  412.87
     77.7700	  628.00	  674.30	-1913.71	  412.79
     77.8700	  664.00	  648.10	-1851.52	  412.72
     77.9700	  578.00	  626.23	-1915.65	  412.64
     78.0700	  626.00	  609.01	-1850.43	  412.56
     78.1700	  515.00	  595.80	-1948.21	  412.48
     78.2700	  565.00	  585.97	-1888.39	  412.40
     78.3700	  568.00	  578.85	-1878.27	  412.32
     78.4700	  569.00	  573.79	-1872.21	  412.24
     78.5700	  522.00	  570.24	-1915.66	  412.15
     78.6700	  586.00	  567.77	-1849.18	  412.07
     78.7700	  543.00	  566.05	-1890.47	  411.98
     78.8700	  517.00	  564.82	-1915.24	  411.90
     78.9700	  564.00	  564.05	-1867.47	  411.81
     79.0700	  599.00	  563.59	-1832.01	  411.73
     79.1700	  626.00	  563.41	-1804.83	  411.64
     79.2700	  569.00	  563.50	-1861.91	  411.55
     79.3700	  571.00	  563.85	-1860.26	  411.46
     79.4700	  554.00	  564.50	-1877.92	  411.37
     79.5700	  562.00	  565.50	-1870.91	  411.27
     79.6700	  572.00	  566.92	-1862.33	  411.18
     79.7700	  594.00	  568.85	-1842.27	  411.09
     79.8700	  550.00	  571.46	-1888.88	  410.99
     79.9700	  585.00	  574.98	-1857.40	  410.90
     80.0700	  581.00	  579.73	-1866.15	  410.80
     80.1700	  558.00	  586.17	-1895.59	  410.71
     80.2700	  583.00	  594.92	-1879.33	  410.61
     80.3700	  616.00	  606.72	-1858.13	  410.51
     80.4700	  599.00	  622.44	-1890.86	  410.41
     80.5700	  639.00	  643.03	-1871.45	  410.31
     80.6700	  724.00	  669.38	-1812.79	  410.21
     80.7700	  710.00	  701.96	-1859.37	  410.11
     80.8700	  761.00	  741.48	-1847.90	  410.00
     80.9700	  782.00	  787.36	-1872.77	  409.90
     81.0700	  819.00	  838.35	-1886.77	  409.79
     81.1700	  857.00	  892.21	-1902.62	  409.69
     81.2700	  962.00	  945.62	-1851.04	  409.58
     81.3700	  957.00	  994.49	-1904.90	  409.47
     81.4700	 1056.00	 1034.54	-1845.95	  409.37
     81.5700	 1089.00	 1062.37	-1840.79	  409.26
     81.6700	 1110.00	 1076.15	-1833.57	  409.15
     81.7700	 1093.00	 1075.68	-1850.09	  409.04
     81.8700	  989.00	 1062.02	-1940.44	  408.92
     81.9700	 1017.00	 1037.29	-1887.70	  408.81
     82.0700	  950.00	 1004.25	-1921.66	  408.70
     82.1700	  975.00	  965.80	-1858.21	  408.58
     82.2700	  908.00	  924.57	-1883.98	  408.47
     82.3700	  822.00	  882.79	-1928.21	  408.35
     82.4700	  793.00	  842.37	-1916.79	  408.24
     82.5700	  783.00	  804.70	-1889.12	  408.12
     82.6700	  728.00	  770.54	-1909.95	  408.00
     82.7700	  688.00	  740.00	-1919.41	  407.88
     82.8700	  621.00	  712.80	-1959.22	  407.76
     82.9700	  648.00	  688.59	-1908.01	  407.64
     83.0700	  651.00	  667.15	-1883.57	  407.52
     83.1700	  600.00	  648.45	-1915.86	  407.40
     83.2700	  605.00	  632.53	-1894.94	  407.27
     83.3700	  563.00	  619.45	-1923.86	  407.15
     83.4700	  596.00	  609.23	-1880.65	  407.02
     83.5700	  633.00	  601.83	-1836.25	  406.90
     83.6700	  586.00	  597.15	-1878.57	  406.77
     83.7700	  603.00	  595.00	-1859.41	  406.64
     83.8700	  606.00	  595.08	-1856.49	  406.51
     83.9700	  586.00	  597.01	-1878.42	  406.39
     84.0700	  567.00	  600.29	-1900.71	  406.26
     84.1700	  600.00	  604.34	-1871.76	  406.13
     84.2700	  620.00	  608.48	-1855.90	  405.99
     84.3700	  604.00	  611.89	-1875.30	  405.86
     84.4700	  614.00	  614.02	-1867.44	  405.73
     84.5700	  588.00	  614.25	-1893.66	  405.59
     84.6700	  591.00	  612.23	-1888.64	  405.46
     84.7700	  610.00	  608.30	-1865.72	  405.32
     84.8700	  563.00	  602.84	-1907.25	  405.19
     84.9700	  582.00	  596.43	-1881.84	  405.05
     85.0700	  582.00	  589.65	-1875.06	  404.91
     85.1700	  609.00	  583.01	-1841.43	  404.78
     85.2700	  565.00	  576.91	-1879.33	  404.64
     85.3700	  564.00	  571.65	-1875.06	  404.50
     85.4700	  560.00	  567.41	-1874.83	  404.35
     85.5700	  563.00	  564.33	-1868.75	  404.21
     85.6700	  579.00	  562.46	-1850.88	  404.07
     85.7700	  624.00	  561.81	-1805.22	  403.93
     85.8700	  552.00	  562.37	-1877.78	  403.78
     85.9700	  588.00	  564.11	-1843.53	  403.64
     86.0700	  532.00	  567.01	-1902.43	  403.49
     86.1700	  579.00	  571.01	-1859.43	  403.35
     86.2700	  567.00	  576.05	-1876.47	  403.20
     86.3700	  612.00	  582.04	-1837.46	  403.05
     86.4700	  563.00	  588.86	-1893.27	  402.91
     86.5700	  560.00	  596.34	-1903.75	  402.76
     86.6700	  596.00	  604.28	-1875.70	  402.61
     86.7700	  622.00	  612.44	-1857.86	  402.46
     86.8700	  621.00	  620.58	-1866.99	  402.31
     86.9700	  621.00	  628.55	-1874.97	  402.16
     87.0700	  605.00	  636.35	-1898.76	  402.00
     87.1700	  600.00	  644.13	-1911.55	  401.85
     87.2700	  598.00	  652.14	-1921.55	  401.70
     87.3700	  657.00	  660.56	-1870.98	  401.54
     87.4700	  632.00	  669.43	-1904.84	  401.39
     87.5700	  620.00	  678.51	-1925.92	  401.23
     87.6700	  705.00	  687.34	-1849.76	  401.08
     87.7700	  696.00	  695.18	-1866.60	  400.92
     87.8700	  649.00	  701.11	-1919.52	  400.76
     87.9700	  710.00	  704.15	-1861.57	  400.60
     88.0700	  661.00	  703.59	-1910.01	  400.45
     88.1700	  690.00	  699.18	-1876.60	  400.29
     88.2700	  678.00	  691.26	-1880.67	  400.13
     88.3700	  621.00	  680.58	-1926.99	  399.97
     88.4700	  682.00	  668.13	-1853.54	  399.80
     88.5700	  673.00	  654.90	-1849.31	  399.64
     88.6700	  639.00	  641.77	-1870.19	  399.48
     88.7700	  647.00	  629.52	-1849.93	  399.32
     88.8700	  639.00	  618.72	-1847.13	  399.15
     88.9700	  654.00	  609.35	-1822.76	  398.99
     89.0700	  643.00	  602.53	-1826.94	  398.82
     89.1700	  627.00	  597.87	-1838.28	  398.66
     89.2700	  589.00	  595.27	-1873.69	  398.49
     89.3700	  638.00	  594.51	-1823.92	  398.33
     89.4700	  586.00	  595.22	-1876.63	  398.16
     89.5700	  670.00	  596.95	-1794.37	  397.99
     89.6700	  669.00	  599.20	-1797.62	  397.82
     89.7700	  592.00	  601.40	-1876.81	  397.66
     89.8700	  620.00	  602.98	-1850.40	  397.49
     89.9700	  583.00	  603.47	-1887.89	  397.32
     90.0700	  651.00	  602.56	-1818.97	  397.15
     90.1700	  651.00	  600.16	-1816.58	  396.98
     90.2700	  588.00	  596.45	-1875.87	  396.81
     90.3700	  577.00	  591.75	-1882.17	  396.63
     90.4700	  621.00	  586.44	-1832.86	  396.46
     90.5700	  600.00	  580.89	-1848.31	  396.29
     90.6700	  609.00	  575.41	-1833.83	  396.12
     90.7700	  543.00	  570.26	-1894.67	  395.94
     90.8700	  563.00	  565.60	-1870.02	  395.77
     90.9700	  566.00	  561.57	-1862.98	  395.60
     91.0700	  589.00	  558.21	-1836.63	  395.42
     91.1700	  574.00	  555.55	-1848.97	  395.25
     91.2700	  581.00	  553.56	-1839.97	  395.07
     91.3700	  548.00	  552.18	-1871.60	  394.89
     91.4700	  546.00	  551.39	-1872.81	  394.72
     91.5700	  540.00	  551.13	-1878.55	  394.54
     91.6700	  577.00	  551.39	-1841.80	  394.36
     91.7700	  532.00	  552.16	-1887.57	  394.19
     91.8700	  552.00	  553.48	-1868.90	  394.01
     91.9700	  572.00	  555.44	-1850.86	  393.83
     92.0700	  558.00	  558.15	-1867.57	  393.65
     92.1700	  551.00	  561.77	-1878.18	  393.47
     92.2700	  598.00	  566.48	-1835.89	  393.30
     92.3700	  561.00	  572.49	-1878.91	  393.12
     92.4700	  563.00	  580.03	-1884.44	  392.94
     92.5700	  558.00	  589.30	-1898.71	  392.76
     92.6700	  587.00	  600.48	-1880.89	  392.58
     92.7700	  639.00	  613.68	-1842.10	  392.40
     92.8700	  594.00	  628.95	-1902.37	  392.21
     92.9700	  605.00	  646.22	-1908.63	  392.03
     93.0700	  634.00	  665.28	-1898.70	  391.85
     93.1700	  640.00	  685.81	-1913.23	  391.67
     93.2700	  662.00	  707.31	-1912.73	  391.49
     93.3700	  682.00	  729.14	-1914.56	  391.31
     93.4700	  697.00	  750.53	-1920.94	  391.12
     93.5700	  737.00	  770.63	-1901.05	  390.94
     93.6700	  682.00	  788.74	-1974.16	  390.76
     93.7700	  803.00	  804.42	-1868.83	  390.58
     93.8700	  762.00	  817.67	-1923.08	  390.39
     93.9700	  822.00	  828.91	-1874.32	  390.21
     94.0700	  816.00	  838.77	-1890.19	  390.03
     94.1700	  852.00	  847.93	-1863.35	  389.84
     94.2700	  863.00	  856.93	-1861.34	  389.66
     94.3700	  863.00	  866.11	-1870.52	  389.48
     94.4700	  877.00	  875.38	-1865.80	  389.29
     94.5700	  907.00	  885.57	-1845.98	  389.11
     94.6700	  957.00	  896.57	-1806.98	  388.92
     94.7700	  897.00	  908.58	-1878.99	  388.74
     94.8700	  949.00	  921.61	-1840.03	  388.56
     94.9700	  917.00	  935.38	-1885.80	  388.37
     95.0700	  977.00	  949.17	-1839.58	  388.19
     95.1700	  985.00	  961.82	-1844.23	  388.00
     95.2700	  963.00	  971.82	-1876.24	  387.82
     95.3700	  985.00	  977.50	-1859.91	  387.63
     95.4700	  957.00	  977.31	-1887.72	  387.45
     95.5700	 1013.00	  970.25	-1824.67	  387.27
     95.6700	  958.00	  956.17	-1865.59	  387.08
     95.7700	  999.00	  935.82	-1804.24	  386.90
     95.8700	  913.00	  910.68	-1865.09	  386.71
     95.9700	  878.00	  882.65	-1872.06	  386.53
     96.0700	  908.00	  853.78	-1813.19	  386.34
     96.1700	  852.00	  826.07	-1841.48	  386.16
     96.2700	  796.00	  801.38	-1872.80	  385.98
     96.3700	  810.00	  781.41	-1838.82	  385.79
     96.4700	  816.00	  767.61	-1819.02	  385.61
     96.5700	  786.00	  761.23	-1842.64	  385.43
     96.6700	  746.00	  763.28	-1884.69	  385.24
     96.7700	  776.00	  774.56	-1865.97	  385.06
     96.8700	  821.00	  795.62	-1842.04	  384.88
     96.9700	  875.00	  826.77	-1819.18	  384.69
     97.0700	  836.00	  868.03	-1899.44	  384.51
     97.1700	  948.00	  919.10	-1838.51	  384.33
     97.2700	 1019.00	  979.27	-1827.68	  384.15
     97.3700	 1017.00	 1047.37	-1897.79	  383.96
     97.4700	 1119.00	 1121.71	-1870.13	  383.78
     97.5700	 1263.00	 1200.04	-1804.46	  383.60
     97.6700	 1259.00	 1279.50	-1887.91	  383.42
     97.7700	 1302.00	 1356.60	-1922.01	  383.24
     97.8700	 1416.00	 1427.31	-1878.73	  383.06
     97.9700	 1490.00	 1487.29	-1864.71	  382.88
     98.0700	 1597.00	 1532.28	-1802.70	  382.70
     98.1700	 1585.00	 1558.80	-1841.21	  382.52
     98.2700	 1538.00	 1564.82	-1894.23	  382.34
     98.3700	 1460.00	 1550.28	-1957.70	  382.16
     98.4700	 1514.00	 1517.07	-1870.48	  381.98
     98.5700	 1410.00	 1468.46	-1925.87	  381.80
     98.6700	 1403.00	 1408.48	-1872.90	  381.62
     98.7700	 1320.00	 1341.34	-1888.76	  381.45
     98.8700	 1268.00	 1271.05	-1870.46	  381.27
     98.9700	 1159.00	 1201.22	-1909.64	  381.09
     99.0700	 1110.00	 1134.99	-1892.41	  380.92
     99.1700	 1136.00	 1075.02	-1806.43	  380.74
     99.2700	 1020.00	 1023.49	-1870.91	  380.57
     99.3700	  970.00	  982.22	-1879.63	  380.39
     99.4700	  969.00	  952.59	-1851.01	  380.22
     99.5700	 1012.00	  935.66	-1791.08	  380.04
     99.6700	  885.00	  932.15	-1914.57	  379.87
     99.7700	  966.00	  942.49	-1843.90	  379.70
     99.8700	  953.00	  966.81	-1881.23	  379.53
     99.9700	 1013.00	 1004.96	-1859.38	  379.36
    100.0700	 1048.00	 1056.49	-1875.91	  379.19
    100.1700	 1136.00	 1120.59	-1852.00	  379.02
    100.2700	 1208.00	 1196.05	-1855.47	  378.85
    100.3700	 1289.00	 1281.29	-1859.70	  378.68
    100.4700	 1374.00	 1374.17	-1867.58	  378.51
    100.5700	 1524.00	 1472.08	-1815.50	  378.34
    100.6700	 1560.00	 1571.87	-1879.28	  378.18
    100.7700	 1670.00	 1669.92	-1867.33	  378.01
    100.8700	 1775.00	 1762.47	-1854.89	  377.85
    100.9700	 1915.00	 1845.78	-1798.19	  377.68
    101.0700	 1827.00	 1916.88	-1957.30	  377.52
    101.1700	 2076.00	 1973.44	-1764.85	  377.36
    101.2700	 1985.00	 2014.02	-1896.43	  377.20
    101.3700	 1980.00	 2037.84	-1925.26	  377.03
    101.4700	 2023.00	 2044.48	-1888.90	  376.87
    101.5700	 2035.00	 2033.79	-1866.20	  376.71
    101.6700	 2051.00	 2006.08	-1822.50	  376.56
    101.7700	 2011.00	 1962.49	-1818.91	  376.40
    101.8700	 1898.00	 1905.19	-1874.61	  376.24
    101.9700	 1908.00	 1837.41	-1796.83	  376.09
    102.0700	 1763.00	 1763.01	-1867.42	  375.93
    102.1700	 1665.00	 1686.00	-1888.42	  375.78
    102.2700	 1631.00	 1610.09	-1846.51	  375.63
    102.3700	 1544.00	 1538.27	-1861.68	  375.47
    102.4700	 1468.00	 1472.75	-1872.17	  375.32
    102.5700	 1455.00	 1414.88	-1827.30	  375.17
    102.6700	 1384.00	 1365.23	-1848.65	  375.03
    102.7700	 1311.00	 1323.63	-1880.05	  374.88
    102.8700	 1269.00	 1289.24	-1887.66	  374.73
    102.9700	 1273.00	 1260.69	-1855.10	  374.59
    103.0700	 1248.00	 1236.12	-1855.54	  374.44
    103.1700	 1212.00	 1213.47	-1868.88	  374.30
    103.2700	 1152.00	 1190.62	-1906.04	  374.16
    103.3700	 1135.00	 1165.74	-1898.16	  374.02
    103.4700	 1078.00	 1137.55	-1926.97	  373.88
    103.5700	 1072.00	 1105.47	-1900.89	  373.74
    103.6700	 1082.00	 1069.61	-1855.03	  373.60
    103.7700	 1009.00	 1030.63	-1889.05	  373.47
    103.8700	 1042.00	  989.48	-1814.90	  373.33
    103.9700	 1005.00	  947.26	-1809.68	  373.20
    104.0700	  910.00	  905.01	-1862.43	  373.07
    104.1700	  896.00	  863.70	-1835.12	  372.94
    104.2700	  859.00	  824.16	-1832.58	  372.81
    104.3700	  825.00	  787.04	-1829.45	  372.68
    104.4700	  797.00	  752.84	-1823.26	  372.55
    104.5700	  779.00	  721.90	-1810.32	  372.43
    104.6700	  747.00	  694.40	-1814.82	  372.31
    104.7700	  715.00	  670.38	-1822.80	  372.18
    104.8700	  699.00	  649.75	-1818.17	  372.06
    104.9700	  683.00	  632.32	-1816.74	  371.94
    105.0700	  610.00	  617.85	-1875.27	  371.83
    105.1700	  646.00	  606.04	-1827.45	  371.71
    105.2700	  642.00	  596.58	-1821.99	  371.60
    105.3700	  626.00	  589.12	-1830.53	  371.48
    105.4700	  591.00	  583.47	-1859.88	  371.37
    105.5700	  588.00	  579.33	-1858.75	  371.26
    105.6700	  592.00	  576.51	-1851.93	  371.15
    105.7700	  630.00	  574.84	-1812.26	  371.05
    105.8700	  601.00	  574.20	-1840.62	  370.94
    105.9700	  597.00	  574.53	-1844.94	  370.84
    106.0700	  580.00	  575.75	-1863.16	  370.74
    106.1700	  584.00	  577.92	-1861.34	  370.64
    106.2700	  576.00	  581.05	-1872.46	  370.54
    106.3700	  617.00	  585.17	-1835.58	  370.45
    106.4700	  643.00	  590.34	-1814.76	  370.35
    106.5700	  558.00	  596.63	-1906.05	  370.26
    106.6700	  633.00	  604.09	-1838.50	  370.17
    106.7700	  657.00	  612.74	-1823.15	  370.08
    106.8700	  592.00	  622.57	-1897.99	  370.00
    106.9700	  632.00	  633.54	-1868.96	  369.91
    107.0700	  659.00	  645.54	-1853.95	  369.83
    107.1700	  653.00	  658.39	-1872.81	  369.75
    107.2700	  713.00	  671.89	-1826.30	  369.67
    107.3700	  716.00	  685.72	-1837.14	  369.59
    107.4700	  683.00	  699.55	-1883.97	  369.52
    107.5700	  762.00	  712.98	-1818.39	  369.44
    107.6700	  669.00	  725.56	-1923.98	  369.37
    107.7700	  701.00	  736.84	-1903.26	  369.31
    107.8700	  698.00	  746.41	-1915.83	  369.24
    107.9700	  674.00	  753.93	-1947.35	  369.18
    108.0700	  692.00	  759.21	-1934.63	  369.11
    108.1700	  769.00	  762.26	-1860.67	  369.05
    108.2700	  767.00	  763.25	-1863.67	  369.00
    108.3700	  752.00	  762.54	-1877.95	  368.94
    108.4700	  743.00	  760.63	-1885.04	  368.89
    108.5700	  678.00	  757.99	-1947.41	  368.84
    108.6700	  704.00	  755.09	-1918.51	  368.79
    108.7700	  769.00	  752.33	-1850.75	  368.74
    108.8700	  671.00	  750.01	-1946.43	  368.70
    108.9700	  717.00	  748.34	-1898.75	  368.66
    109.0700	  704.00	  747.39	-1910.80	  368.62
    109.1700	  710.00	  747.13	-1904.54	  368.58
    109.2700	  735.00	  747.41	-1879.82	  368.55
    109.3700	  689.00	  747.99	-1926.40	  368.52
    109.4700	  757.00	  748.51	-1858.93	  368.49
    109.5700	  779.00	  748.59	-1837.01	  368.46
    109.6700	  688.00	  747.80	-1927.22	  368.44
    109.7700	  722.00	  745.76	-1891.17	  368.42
    109.8700	  712.00	  742.18	-1897.60	  368.40
    109.9700	  727.00	  736.92	-1877.33	  368.38
    110.0700	  722.00	  729.97	-1875.38	  368.37
    110.1700	  701.00	  721.48	-1887.89	  368.36
    110.2700	  733.00	  711.71	-1846.12	  368.35
    110.3700	  687.00	  700.96	-1881.37	  368.35
    110.4700	  699.00	  689.59	-1858.01	  368.35
    110.5700	  658.00	  677.93	-1887.34	  368.35
    110.6700	  674.00	  666.27	-1859.69	  368.35
    110.7700	  670.00	  654.90	-1852.31	  368.36
    110.8700	  629.00	  644.03	-1882.45	  368.37
    110.9700	  626.00	  633.87	-1875.28	  368.38
    111.0700	  627.00	  624.55	-1864.97	  368.39
    111.1700	  618.00	  616.19	-1865.60	  368.41
    111.2700	  556.00	  608.85	-1920.27	  368.43
    111.3700	  621.00	  602.57	-1848.98	  368.46
    111.4700	  557.00	  597.34	-1907.75	  368.48
    111.5700	  592.00	  593.13	-1868.55	  368.51
    111.6700	  588.00	  589.90	-1869.31	  368.55
    111.7700	  573.00	  587.57	-1881.99	  368.58
    111.8700	  578.00	  586.06	-1875.48	  368.62
    111.9700	  589.00	  585.29	-1863.70	  368.67
    112.0700	  540.00	  585.15	-1912.57	  368.71
    112.1700	  590.00	  585.56	-1862.97	  368.76
    112.2700	  584.00	  586.42	-1869.83	  368.81
    112.3700	  604.00	  587.65	-1851.06	  368.87
    112.4700	  577.00	  589.17	-1879.58	  368.93
    112.5700	  577.00	  590.91	-1881.33	  368.99
    112.6700	  551.00	  592.83	-1909.24	  369.06
    112.7700	  575.00	  594.88	-1887.30	  369.13
    112.8700	  571.00	  597.05	-1893.46	  369.20
    112.9700	  635.00	  599.33	-1831.74	  369.27
    113.0700	  581.00	  601.74	-1888.15	  369.35
    113.1700	  539.00	  604.31	-1932.72	  369.44
    113.2700	  623.00	  607.08	-1851.50	  369.52
    113.3700	  561.00	  610.12	-1916.54	  369.61
    113.4700	  616.00	  613.50	-1864.91	  369.71
    113.5700	  603.00	  617.29	-1881.70	  369.81
    113.6700	  604.00	  621.60	-1885.01	  369.91
    113.7700	  649.00	  626.56	-1844.98	  370.01
    113.8700	  583.00	  632.34	-1916.75	  370.12
    113.9700	  597.00	  639.13	-1909.55	  370.23
    114.0700	  636.00	  647.20	-1878.61	  370.35
    114.1700	  628.00	  656.88	-1896.30	  370.47
    114.2700	  690.00	  668.60	-1846.02	  370.59
    114.3700	  674.00	  682.89	-1876.31	  370.72
    114.4700	  681.00	  700.41	-1886.83	  370.85
    114.5700	  718.00	  722.00	-1871.42	  370.99
    114.6700	  719.00	  748.67	-1897.08	  371.13
    114.7700	  797.00	  781.62	-1852.04	  371.27
    114.8700	  797.00	  822.29	-1892.71	  371.42
    114.9700	  926.00	  872.35	-1813.76	  371.57
    115.0700	  960.00	  933.69	-1841.11	  371.73
    115.1700	 1081.00	 1008.45	-1794.87	  371.89
    115.2700	 1084.00	 1098.93	-1882.35	  372.05
    115.3700	 1267.00	 1207.58	-1807.99	  372.22
    115.4700	 1462.00	 1336.87	-1742.29	  372.39
    115.5700	 1641.00	 1489.31	-1715.72	  372.57
    115.6700	 1751.00	 1667.24	-1783.65	  372.75
    115.7700	 2063.00	 1872.66	-1677.08	  372.94
    115.8700	 2275.00	 2107.16	-1699.58	  373.13
    115.9700	 2524.00	 2371.64	-1715.06	  373.32
    116.0700	 2715.00	 2666.31	-1818.72	  373.52
    116.1700	 3132.00	 2990.43	-1725.85	  373.73
    116.2700	 3479.00	 3342.12	-1730.54	  373.93
    116.3700	 3847.00	 3718.31	-1738.73	  374.15
    116.4700	 4158.00	 4114.63	-1824.04	  374.36
    116.5700	 4611.00	 4525.49	-1781.91	  374.58
    116.6700	 5025.00	 4944.06	-1786.48	  374.81
    116.7700	 5278.00	 5362.12	-1951.53	  375.04
    116.8700	 5675.00	 5770.34	-1962.76	  375.28
    116.9700	 6037.00	 6158.50	-1988.92	  375.52
    117.0700	 6401.00	 6515.70	-1982.11	  375.76
    117.1700	 6625.00	 6830.74	-2073.15	  376.01
    117.2700	 6823.00	 7092.59	-2137.01	  376.27
    117.3700	 7101.00	 7291.30	-2057.71	  376.53
    117.4700	 7268.00	 7418.75	-2018.17	  376.79
    117.5700	 7286.00	 7469.66	-2051.08	  377.06
    117.6700	 7222.00	 7442.06	-2087.48	  377.33
    117.7700	 7250.00	 7337.64	-1955.05	  377.61
    117.8700	 7084.00	 7161.48	-1944.90	  377.90
    117.9700	 6737.00	 6921.52	-2051.93	  378.19
    118.0700	 6498.00	 6627.49	-1996.90	  378.48
    118.1700	 6142.00	 6290.14	-2015.56	  378.78
    118.2700	 5789.00	 5920.62	-1999.03	  379.09
    118.3700	 5562.00	 5529.69	-1835.11	  379.40
    118.4700	 5066.00	 5127.52	-1928.94	  379.71
    118.5700	 4678.00	 4723.19	-1912.61	  380.03
    118.6700	 4543.00	 4324.61	-1649.03	  380.36
    118.7700	 4066.00	 3938.60	-1740.02	  380.69
    118.8700	 3660.00	 3570.64	-1778.06	  381.03
    118.9700	 3370.00	 3224.96	-1722.38	  381.37
    119.0700	 3074.00	 2904.45	-1697.87	  381.72
    119.1700	 2831.00	 2610.90	-1647.31	  382.07
    119.2700	 2539.00	 2345.16	-1673.57	  382.43
    119.3700	 2273.00	 2107.18	-1701.59	  382.79
    119.4700	 2017.00	 1896.22	-1746.64	  383.16
    119.5700	 1857.00	 1710.94	-1721.36	  383.54
    119.6700	 1737.00	 1549.58	-1679.99	  383.92
    119.7700	 1451.00	 1410.15	-1826.57	  384.31
    119.8700	 1325.00	 1290.51	-1832.93	  384.70
    119.9700	 1264.00	 1188.45	-1791.87	  385.10
    120.0700	 1216.00	 1101.80	-1753.21	  385.50
    120.1700	 1071.00	 1028.47	-1824.88	  385.91
    120.2700	 1028.00	  966.58	-1805.99	  386.33
    120.3700	  963.00	  914.41	-1818.83	  386.75
    120.4700	  939.00	  870.46	-1798.88	  387.18
    120.5700	  849.00	  833.41	-1851.83	  387.62
    120.6700	  824.00	  802.14	-1845.55	  388.06
    120.7700	  782.00	  775.71	-1861.13	  388.50
    120.8700	  751.00	  753.36	-1869.78	  388.96
    120.9700	  774.00	  734.44	-1827.86	  389.41
    121.0700	  720.00	  718.44	-1865.86	  389.88
    121.1700	  687.00	  704.94	-1885.35	  390.35
    121.2700	  701.00	  693.59	-1860.01	  390.83
    121.3700	  670.00	  684.14	-1881.55	  391.31
    121.4700	  648.00	  676.35	-1895.76	  391.80
    121.5700	  636.00	  670.05	-1901.47	  392.30
    121.6700	  666.00	  665.10	-1866.51	  392.80
    121.7700	  649.00	  661.37	-1879.79	  393.31
    121.8700	  649.00	  658.78	-1877.19	  393.83
    121.9700	  701.00	  657.23	-1823.64	  394.35
    122.0700	  628.00	  656.65	-1896.06	  394.88
    122.1700	  630.00	  656.97	-1894.38	  395.42
    122.2700	  668.00	  658.13	-1857.55	  395.96
    122.3700	  662.00	  660.08	-1865.49	  396.51
    122.4700	  638.00	  662.74	-1892.15	  397.07
    122.5700	  638.00	  666.05	-1895.47	  397.63
    122.6700	  701.00	  669.94	-1836.36	  398.20
    122.7700	  630.00	  674.35	-1911.76	  398.78
    122.8700	  693.00	  679.17	-1853.59	  399.36
    122.9700	  686.00	  684.34	-1865.76	  399.95
    123.0700	  631.00	  689.75	-1926.16	  400.55
    123.1700	  668.00	  695.30	-1894.71	  401.16
    123.2700	  686.00	  700.87	-1882.29	  401.77
    123.3700	  716.00	  706.37	-1857.79	  402.39
    123.4700	  694.00	  711.68	-1885.10	  403.02
    123.5700	  707.00	  716.68	-1877.10	  403.65
    123.6700	  712.00	  721.28	-1876.69	  404.29
    123.7700	  719.00	  725.38	-1873.79	  404.94
    123.8700	  671.00	  728.92	-1925.33	  405.60
    123.9700	  804.00	  731.85	-1795.27	  406.26
    124.0700	  736.00	  734.17	-1865.59	  406.93
    124.1700	  731.00	  735.89	-1872.30	  407.61
    124.2700	  713.00	  737.03	-1891.44	  408.29
    124.3700	  720.00	  737.65	-1885.07	  408.99
    124.4700	  716.00	  737.82	-1889.23	  409.69
    124.5700	  740.00	  737.57	-1864.98	  410.40
    124.6700	  711.00	  737.02	-1893.43	  411.11
    124.7700	  700.00	  736.20	-1903.61	  411.84
    124.8700	  712.00	  735.17	-1890.59	  412.57
    124.9700	  743.00	  536.09	-1660.51	  413.31
    125.0700	  758.00	  536.84	-1867.42	  414.06
    125.1700	  644.00	  537.60	-1867.42	  414.82
    125.2700	  719.00	  538.36	-1867.42	  415.58
    125.3700	  679.00	  539.13	-1867.42	  416.35
    125.4700	  653.00	  539.91	-1867.42	  417.13
    125.5700	  671.00	  540.70	-1867.42	  417.92
    125.6700	  659.00	  541.50	-1867.42	  418.72
    125.7700	  701.00	  542.30	-1867.42	  419.52
    125.8700	  619.00	  543.12	-1867.42	  420.33
    125.9700	  633.00	  543.94	-1867.42	  421.15
    126.0700	  637.00	  544.77	-1867.42	  421.98
    126.1700	  653.00	  545.60	-1867.42	  422.82
    126.2700	  661.00	  546.45	-1867.42	  423.67
    126.3700	  652.00	  547.31	-1867.42	  424.52
    126.4700	  614.00	  548.17	-1867.42	  425.39
    126.5700	  644.00	  549.04	-1867.42	  426.26
    126.6700	  638.00	  549.92	-1867.42	  427.14
    126.7700	  588.00	  550.81	-1867.42	  428.03
    126.8700	  627.00	  551.71	-1867.42	  428.93
    126.9700	  628.00	  552.62	-1867.42	  429.83
    127.0700	  618.00	  553.53	-1867.42	  430.75
    127.1700	  591.00	  554.46	-1867.42	  431.67
    127.2700	  560.00	  555.39	-1867.42	  432.61
    127.3700	  622.00	  556.33	-1867.42	  433.55
    127.4700	  558.00	  557.28	-1867.42	  434.50
    127.5700	  595.00	  558.25	-1867.42	  435.46
    127.6700	  610.00	  559.21	-1867.42	  436.43
    127.7700	  583.00	  560.19	-1867.42	  437.41
    127.8700	  611.00	  561.18	-1867.42	  438.40
    127.9700	  671.00	  562.18	-1867.42	  439.40
    128.0700	  647.00	  563.19	-1867.42	  440.40
    128.1700	  618.00	  564.20	-1867.42	  441.42
    128.2700	  673.00	  565.23	-1867.42	  442.45
    128.3700	  693.00	  566.26	-1867.42	  443.48
    128.4700	  683.00	  567.31	-1867.42	  444.52
    128.5700	    0.00	  568.36	-1867.42	  445.58
    128.6700	    0.00	  569.42	-1867.42	  446.64
     12.3987	        	        	        	        	       0	(  0  0  2)	  0  1
     12.3987	        	        	        	        	    -466	(  0  0  2)	  0  1
     25.0475	        	        	        	        	       0	(  0  0  4)	  0  1
     25.0475	        	        	        	        	    -466	(  0  0  4)	  0  1
     28.4987	        	        	        	        	       0	(  1  0  0)	  0  1
     28.4987	        	        	        	        	    -466	(  1  0  0)	  0  1
     29.1998	        	        	        	        	       0	(  1  0  1)	  0  1
     29.1998	        	        	        	        	    -466	(  1  0  1)	  0  1
     31.2175	        	        	        	        	       0	(  1  0  2)	  0  1
     31.2175	        	        	        	        	    -466	(  1  0  2)	  0  1
     34.3436	        	        	        	        	       0	(  1  0  3)	  0  1
     34.3436	        	        	        	        	    -466	(  1  0  3)	  0  1
     38.0173	        	        	        	        	       0	(  0  0  6)	  0  1
     38.0173	        	        	        	        	    -466	(  0  0  6)	  0  1
     38.3437	        	        	        	        	       0	(  1  0  4)	  0  1
     38.3437	        	        	        	        	    -466	(  1  0  4)	  0  1
     43.0212	        	        	        	        	       0	(  1  0  5)	  0  1
     43.0212	        	        	        	        	    -466	(  1  0  5)	  0  1
     48.2366	        	        	        	        	       0	(  1  0  6)	  0  1
     48.2366	        	        	        	        	    -466	(  1  0  6)	  0  1
     50.5539	        	        	        	        	       0	(  1  1  0)	  0  1
     50.5539	        	        	        	        	    -466	(  1  1  0)	  0  1
     51.5185	        	        	        	        	       0	(  0  0  8)	  0  1
     51.5185	        	        	        	        	    -466	(  0  0  8)	  0  1
     52.2881	        	        	        	        	       0	(  1  1  2)	  0  1
     52.2881	        	        	        	        	    -466	(  1  1  2)	  0  1
     53.9025	        	        	        	        	       0	(  1  0  7)	  0  1
     53.9025	        	        	        	        	    -466	(  1  0  7)	  0  1
     57.2687	        	        	        	        	       0	(  1  1  4)	  0  1
     57.2687	        	        	        	        	    -466	(  1  1  4)	  0  1
     59.1023	        	        	        	        	       0	(  2  0  0)	  0  1
     59.1023	        	        	        	        	    -466	(  2  0  0)	  0  1
     59.4965	        	        	        	        	       0	(  2  0  1)	  0  1
     59.4965	        	        	        	        	    -466	(  2  0  1)	  0  1
     59.9726	        	        	        	        	       0	(  1  0  8)	  0  1
     59.9726	        	        	        	        	    -466	(  1  0  8)	  0  1
     60.6700	        	        	        	        	       0	(  2  0  2)	  0  1
     60.6700	        	        	        	        	    -466	(  2  0  2)	  0  1
     62.5968	        	        	        	        	       0	(  2  0  3)	  0  1
     62.5968	        	        	        	        	    -466	(  2  0  3)	  0  1
     65.0171	        	        	        	        	       0	(  1  1  6)	  0  1
     65.0171	        	        	        	        	    -466	(  1  1  6)	  0  1
     65.2397	        	        	        	        	       0	(  2  0  4)	  0  1
     65.2397	        	        	        	        	    -466	(  2  0  4)	  0  1
     65.8422	        	        	        	        	       0	(  0  0 10)	  0  1
     65.8422	        	        	        	        	    -466	(  0  0 10)	  0  1
     66.4339	        	        	        	        	       0	(  1  0  9)	  0  1
     66.4339	        	        	        	        	    -466	(  1  0  9)	  0  1
     68.5583	        	        	        	        	       0	(  2  0  5)	  0  1
     68.5583	        	        	        	        	    -466	(  2  0  5)	  0  1
     72.5161	        	        	        	        	       0	(  2  0  6)	  0  1
     72.5161	        	        	        	        	    -466	(  2  0  6)	  0  1
     73.3013	        	        	        	        	       0	(  1  0 10)	  0  1
     73.3013	        	        	        	        	    -466	(  1  0 10)	  0  1
     75.1314	        	        	        	        	       0	(  1  1  8)	  0  1
     75.1314	        	        	        	        	    -466	(  1  1  8)	  0  1
     77.0869	        	        	        	        	       0	(  2  0  7)	  0  1
     77.0869	        	        	        	        	    -466	(  2  0  7)	  0  1
     80.6188	        	        	        	        	       0	(  1  0 11)	  0  1
     80.6188	        	        	        	        	    -466	(  1  0 11)	  0  1
     81.4447	        	        	        	        	       0	(  0  0 12)	  0  1
     81.4447	        	        	        	        	    -466	(  0  0 12)	  0  1
     81.5030	        	        	        	        	       0	(  2  1  0)	  0  1
     81.5030	        	        	        	        	    -466	(  2  1  0)	  0  1
     81.8459	        	        	        	        	       0	(  2  1  1)	  0  1
     81.8459	        	        	        	        	    -466	(  2  1  1)	  0  1
     82.2614	        	        	        	        	       0	(  2  0  8)	  0  1
     82.2614	        	        	        	        	    -466	(  2  0  8)	  0  1
     82.8729	        	        	        	        	       0	(  2  1  2)	  0  1
     82.8729	        	        	        	        	    -466	(  2  1  2)	  0  1
     84.5797	        	        	        	        	       0	(  2  1  3)	  0  1
     84.5797	        	        	        	        	    -466	(  2  1  3)	  0  1
     86.9617	        	        	        	        	       0	(  2  1  4)	  0  1
     86.9617	        	        	        	        	    -466	(  2  1  4)	  0  1
     87.5111	        	        	        	        	       0	(  1  1 10)	  0  1
     87.5111	        	        	        	        	    -466	(  1  1 10)	  0  1
     88.0530	        	        	        	        	       0	(  2  0  9)	  0  1
     88.0530	        	        	        	        	    -466	(  2  0  9)	  0  1
     88.4648	        	        	        	        	       0	(  1  0 12)	  0  1
     88.4648	        	        	        	        	    -466	(  1  0 12)	  0  1
     90.0173	        	        	        	        	       0	(  2  1  5)	  0  1
     90.0173	        	        	        	        	    -466	(  2  1  5)	  0  1
     93.7533	        	        	        	        	       0	(  2  1  6)	  0  1
     93.7533	        	        	        	        	    -466	(  2  1  6)	  0  1
     94.5063	        	        	        	        	       0	(  2  0 10)	  0  1
     94.5063	        	        	        	        	    -466	(  2  0 10)	  0  1
     95.5212	        	        	        	        	       0	(  3  0  0)	  0  1
     95.5212	        	        	        	        	    -466	(  3  0  0)	  0  1
     95.8623	        	        	        	        	       0	(  3  0  1)	  0  1
     95.8623	        	        	        	        	    -466	(  3  0  1)	  0  1
     96.8869	        	        	        	        	       0	(  3  0  2)	  0  1
     96.8869	        	        	        	        	    -466	(  3  0  2)	  0  1
     96.9671	        	        	        	        	       0	(  1  0 13)	  0  1
     96.9671	        	        	        	        	    -466	(  1  0 13)	  0  1
     98.1911	        	        	        	        	       0	(  2  1  7)	  0  1
     98.1911	        	        	        	        	    -466	(  2  1  7)	  0  1
     98.5999	        	        	        	        	       0	(  3  0  3)	  0  1
     98.5999	        	        	        	        	    -466	(  3  0  3)	  0  1
     99.1629	        	        	        	        	       0	(  0  0 14)	  0  1
     99.1629	        	        	        	        	    -466	(  0  0 14)	  0  1
    101.0116	        	        	        	        	       0	(  3  0  4)	  0  1
    101.0116	        	        	        	        	    -466	(  3  0  4)	  0  1
    101.7116	        	        	        	        	       0	(  2  0 11)	  0  1
    101.7116	        	        	        	        	    -466	(  2  0 11)	  0  1
    102.5465	        	        	        	        	       0	(  1  1 12)	  0  1
    102.5465	        	        	        	        	    -466	(  1  1 12)	  0  1
    103.3766	        	        	        	        	       0	(  2  1  8)	  0  1
    103.3766	        	        	        	        	    -466	(  2  1  8)	  0  1
    104.1426	        	        	        	        	       0	(  3  0  5)	  0  1
    104.1426	        	        	        	        	    -466	(  3  0  5)	  0  1
    106.3366	        	        	        	        	       0	(  1  0 14)	  0  1
    106.3366	        	        	        	        	    -466	(  1  0 14)	  0  1
    108.0305	        	        	        	        	       0	(  3  0  6)	  0  1
    108.0305	        	        	        	        	    -466	(  3  0  6)	  0  1
    109.3960	        	        	        	        	       0	(  2  1  9)	  0  1
    109.3960	        	        	        	        	    -466	(  2  1  9)	  0  1
    109.8332	        	        	        	        	       0	(  2  0 12)	  0  1
    109.8332	        	        	        	        	    -466	(  2  0 12)	  0  1
    112.7414	        	        	        	        	       0	(  3  0  7)	  0  1
    112.7414	        	        	        	        	    -466	(  3  0  7)	  0  1
    116.4052	        	        	        	        	       0	(  2  1 10)	  0  1
    116.4052	        	        	        	        	    -466	(  2  1 10)	  0  1
    116.9471	        	        	        	        	       0	(  1  0 15)	  0  1
    116.9471	        	        	        	        	    -466	(  1  0 15)	  0  1
    117.5404	        	        	        	        	       0	(  2  2  0)	  0  1
    117.5404	        	        	        	        	    -466	(  2  2  0)	  0  1
    118.3915	        	        	        	        	       0	(  3  0  8)	  0  1
    118.3915	        	        	        	        	    -466	(  3  0  8)	  0  1
    119.0838	        	        	        	        	       0	(  2  2  2)	  0  1
    119.0838	        	        	        	        	    -466	(  2  2  2)	  0  1
    119.1749	        	        	        	        	       0	(  2  0 13)	  0  1
    119.1749	        	        	        	        	    -466	(  2  0 13)	  0  1
    120.9876	        	        	        	        	       0	(  0  0 16)	  0  1
    120.9876	        	        	        	        	    -466	(  0  0 16)	  0  1
    121.6985	        	        	        	        	       0	(  1  1 14)	  0  1
    121.6985	        	        	        	        	    -466	(  1  1 14)	  0  1
    123.8652	        	        	        	        	       0	(  2  2  4)	  0  1
    123.8652	        	        	        	        	    -466	(  2  2  4)	  0  1
    124.6964	        	        	        	        	       0	(  2  1 11)	  0  1
    124.6964	        	        	        	        	    -466	(  2  1 11)	  0  1
    125.1903	        	        	        	        	       0	(  3  0  9)	  0  1
    125.1903	        	        	        	        	    -466	(  3  0  9)	  0  1
    125.7673	        	        	        	        	       0	(  3  1  0)	  0  1
    125.7673	        	        	        	        	    -466	(  3  1  0)	  0  1
    126.1872	        	        	        	        	       0	(  3  1  1)	  0  1
    126.1872	        	        	        	        	    -466	(  3  1  1)	  0  1
    127.4607	        	        	        	        	       0	(  3  1  2)	  0  1
    127.4607	        	        	        	        	    -466	(  3  1  2)	  0  1
    129.5679	        	        	        	        	       0	(  1  0 16)	  0  1
    129.5679	        	        	        	        	    -466	(  1  0 16)	  0  1
    129.6334	        	        	        	        	       0	(  3  1  3)	  0  1
    129.6334	        	        	        	        	    -466	(  3  1  3)	  0  1
    130.3604	        	        	        	        	       0	(  2  0 14)	  0  1
    130.3604	        	        	        	        	    -466	(  2  0 14)	  0  1
    132.5212	        	        	        	        	       0	(  2  2  6)	  0  1
    132.5212	        	        	        	        	    -466	(  2  2  6)	  0  1
    132.7966	        	        	        	        	       0	(  3  1  4)	  0  1
    132.7966	        	        	        	        	    -466	(  3  1  4)	  0  1
    133.5504	        	        	        	        	       0	(  3  0 10)	  0  1
    133.5504	        	        	        	        	    -466	(  3  0 10)	  0  1
    134.8825	        	        	        	        	       0	(  2  1 12)	  0  1
    134.8825	        	        	        	        	    -466	(  2  1 12)	  0  1
    137.1214	        	        	        	        	       0	(  3  1  5)	  0  1
    137.1214	        	        	        	        	    -466	(  3  1  5)	  0  1
    142.9477	        	        	        	        	       0	(  3  1  6)	  0  1
    142.9477	        	        	        	        	    -466	(  3  1  6)	  0  1
    144.4515	        	        	        	        	       0	(  3  0 11)	  0  1
    144.4515	        	        	        	        	    -466	(  3  0 11)	  0  1
    145.0536	        	        	        	        	       0	(  2  0 15)	  0  1
    145.0536	        	        	        	        	    -466	(  2  0 15)	  0  1
    146.3904	        	        	        	        	       0	(  1  0 17)	  0  1
    146.3904	        	        	        	        	    -466	(  1  0 17)	  0  1
    147.3573	        	        	        	        	       0	(  2  2  8)	  0  1
    147.3573	        	        	        	        	    -466	(  2  2  8)	  0  1
    148.6557	        	        	        	        	       0	(  2  1 13)	  0  1
    148.6557	        	        	        	        	    -466	(  2  1 13)	  0  1
    151.0793	        	        	        	        	       0	(  3  1  7)	  0  1
    151.0793	        	        	        	        	    -466	(  3  1  7)	  0  1
    151.8223	        	        	        	        	       0	(  1  1 16)	  0  1
    151.8223	        	        	        	        	    -466	(  1  1 16)	  0  1
    156.6959	        	        	        	        	       0	(  0  0 18)	  0  1
    156.6959	        	        	        	        	    -466	(  0  0 18)	  0  1
    161.8638	        	        	        	        	       0	(  3  0 12)	  0  1
    161.8638	        	        	        	        	    -466	(  3  0 12)	  0  1
    162.0509	        	        	        	        	       0	(  4  0  0)	  0  1
    162.0509	        	        	        	        	    -466	(  4  0  0)	  0  1
    163.1935	        	        	        	        	       0	(  4  0  1)	  0  1
    163.1935	        	        	        	        	    -466	(  4  0  1)	  0  1
    164.6905	        	        	        	        	       0	(  3  1  8)	  0  1
    164.6905	        	        	        	        	    -466	(  3  1  8)	  0  1
    167.2059	        	        	        	        	       0	(  4  0  2)	  0  1
    167.2059	        	        	        	        	    -466	(  4  0  2)	  0  1
