MSG Master    CELL:    5.89348   5.89348  23.16244   90.0000   90.0000  120.0000   SPGR: P 63/m m c             TEMP:    688.95
  2   1280     2.52000     0.00000    -0.10323     0.00000     0.00000    0
    96    96     0     0     2
       0.00000      10.00000
     125.00000     130.00000
 2Theta	Yobs	Ycal	Yobs-Ycal	Backg	Posr	(hkl)	K
      0.7700	    0.00	  669.31	-1831.19	  550.65
      0.8700	    0.00	  669.26	-1831.19	  550.60
      0.9700	   47.00	  669.20	-1831.19	  550.54
      1.0700	   49.00	  669.14	-1831.19	  550.47
      1.1700	   42.00	  669.07	-1831.19	  550.41
      1.2700	   40.00	  668.99	-1831.19	  550.33
      1.3700	   57.00	  668.91	-1831.19	  550.25
      1.4700	  101.00	  668.83	-1831.19	  550.17
      1.5700	  311.00	  668.74	-1831.19	  550.08
      1.6700	  439.00	  668.64	-1831.19	  549.98
      1.7700	  611.00	  668.54	-1831.19	  549.88
      1.8700	  665.00	  668.44	-1831.19	  549.77
      1.9700	  724.00	  668.32	-1831.19	  549.66
      2.0700	  759.00	  668.21	-1831.19	  549.54
      2.1700	  787.00	  668.09	-1831.19	  549.42
      2.2700	  746.00	  667.96	-1831.19	  549.30
      2.3700	  727.00	  667.83	-1831.19	  549.16
      2.4700	  675.00	  667.69	-1831.19	  549.03
      2.5700	  690.00	  667.55	-1831.19	  548.89
      2.6700	  676.00	  667.40	-1831.19	  548.74
      2.7700	  637.00	  667.25	-1831.19	  548.59
      2.8700	  616.00	  667.10	-1831.19	  548.43
      2.9700	  663.00	  666.94	-1831.19	  548.27
      3.0700	  616.00	  666.77	-1831.19	  548.11
      3.1700	  629.00	  666.60	-1831.19	  547.94
      3.2700	  723.00	  666.43	-1831.19	  547.76
      3.3700	  905.00	  666.25	-1831.19	  547.58
      3.4700	 1053.00	  666.06	-1831.19	  547.40
      3.5700	 1127.00	  665.88	-1831.19	  547.21
      3.6700	 1217.00	  665.68	-1831.19	  547.02
      3.7700	 1336.00	  665.49	-1831.19	  546.82
      3.8700	 1399.00	  665.29	-1831.19	  546.62
      3.9700	 1434.00	  665.08	-1831.19	  546.42
      4.0700	 1610.00	  664.87	-1831.19	  546.21
      4.1700	 1545.00	  664.66	-1831.19	  545.99
      4.2700	 1643.00	  664.44	-1831.19	  545.78
      4.3700	 1549.00	  664.22	-1831.19	  545.56
      4.4700	 1426.00	  663.99	-1831.19	  545.33
      4.5700	 1524.00	  663.76	-1831.19	  545.10
      4.6700	 1420.00	  663.53	-1831.19	  544.87
      4.7700	 1344.00	  663.29	-1831.19	  544.63
      4.8700	 1299.00	  663.05	-1831.19	  544.39
      4.9700	 1337.00	  662.81	-1831.19	  544.14
      5.0700	 1207.00	  662.56	-1831.19	  543.89
      5.1700	 1252.00	  662.30	-1831.19	  543.64
      5.2700	 1148.00	  662.05	-1831.19	  543.38
      5.3700	 1203.00	  661.79	-1831.19	  543.12
      5.4700	 1131.00	  661.52	-1831.19	  542.86
      5.5700	 1085.00	  661.25	-1831.19	  542.59
      5.6700	 1117.00	  660.98	-1831.19	  542.32
      5.7700	 1101.00	  660.71	-1831.19	  542.05
      5.8700	 1028.00	  660.43	-1831.19	  541.77
      5.9700	  986.00	  660.15	-1831.19	  541.49
      6.0700	  999.00	  659.86	-1831.19	  541.20
      6.1700	  964.00	  659.58	-1831.19	  540.91
      6.2700	 1016.00	  659.28	-1831.19	  540.62
      6.3700	  953.00	  658.99	-1831.19	  540.33
      6.4700	  899.00	  658.69	-1831.19	  540.03
      6.5700	  906.00	  658.39	-1831.19	  539.73
      6.6700	  869.00	  658.09	-1831.19	  539.42
      6.7700	  857.00	  657.78	-1831.19	  539.11
      6.8700	  875.00	  657.47	-1831.19	  538.80
      6.9700	  884.00	  657.15	-1831.19	  538.49
      7.0700	  845.00	  656.84	-1831.19	  538.17
      7.1700	  746.00	  656.52	-1831.19	  537.85
      7.2700	  819.00	  656.19	-1831.19	  537.53
      7.3700	  826.00	  655.87	-1831.19	  537.20
      7.4700	  811.00	  655.54	-1831.19	  536.88
      7.5700	  767.00	  655.21	-1831.19	  536.54
      7.6700	  784.00	  654.87	-1831.19	  536.21
      7.7700	  794.00	  654.54	-1831.19	  535.87
      7.8700	  766.00	  654.20	-1831.19	  535.53
      7.9700	  762.00	  653.85	-1831.19	  535.19
      8.0700	  692.00	  653.51	-1831.19	  534.85
      8.1700	  785.00	  653.16	-1831.19	  534.50
      8.2700	  790.00	  652.81	-1831.19	  534.15
      8.3700	  755.00	  652.46	-1831.19	  533.79
      8.4700	  724.00	  652.10	-1831.19	  533.44
      8.5700	  695.00	  651.75	-1831.19	  533.08
      8.6700	  713.00	  651.39	-1831.19	  532.72
      8.7700	  726.00	  651.02	-1831.19	  532.36
      8.8700	  695.00	  650.66	-1831.19	  531.99
      8.9700	  710.00	  650.29	-1831.19	  531.63
      9.0700	  709.00	  649.92	-1831.19	  531.26
      9.1700	  722.00	  649.55	-1831.19	  530.88
      9.2700	  693.00	  649.17	-1831.19	  530.51
      9.3700	  709.00	  648.80	-1831.19	  530.13
      9.4700	  652.00	  648.42	-1831.19	  529.76
      9.5700	  706.00	  648.04	-1831.19	  529.37
      9.6700	  681.00	  647.66	-1831.19	  528.99
      9.7700	  690.00	  647.27	-1831.19	  528.61
      9.8700	  644.00	  646.88	-1831.19	  528.22
      9.9700	  699.00	  646.49	-1831.19	  527.83
     10.0700	  688.00	  648.34	-1791.53	  527.44
     10.1700	  666.00	  648.20	-1813.39	  527.05
     10.2700	  658.00	  648.11	-1821.30	  526.65
     10.3700	  661.00	  648.09	-1818.28	  526.26
     10.4700	  736.00	  648.18	-1743.37	  525.86
     10.5700	  643.00	  648.43	-1836.61	  525.46
     10.6700	  669.00	  648.90	-1811.09	  525.05
     10.7700	  693.00	  649.71	-1787.89	  524.65
     10.8700	  656.00	  650.94	-1826.13	  524.24
     10.9700	  706.00	  652.67	-1777.86	  523.84
     11.0700	  641.00	  654.94	-1845.12	  523.43
     11.1700	  635.00	  657.74	-1853.92	  523.02
     11.2700	  677.00	  661.11	-1815.30	  522.61
     11.3700	  643.00	  665.13	-1853.32	  522.19
     11.4700	  692.00	  669.92	-1809.10	  521.78
     11.5700	  667.00	  675.66	-1839.85	  521.36
     11.6700	  712.00	  682.65	-1801.84	  520.94
     11.7700	  663.00	  691.22	-1859.40	  520.52
     11.8700	  736.00	  701.62	-1796.80	  520.10
     11.9700	  722.00	  713.70	-1822.88	  519.68
     12.0700	  770.00	  726.38	-1787.57	  519.25
     12.1700	  745.00	  737.02	-1823.21	  518.83
     12.2700	  840.00	  741.02	-1732.21	  518.40
     12.3700	  808.00	  733.53	-1756.72	  517.97
     12.4700	  751.00	  715.26	-1795.45	  517.54
     12.5700	  722.00	  693.82	-1803.00	  517.11
     12.6700	  678.00	  675.55	-1828.73	  516.68
     12.7700	  643.00	  662.27	-1850.46	  516.25
     12.8700	  669.00	  653.46	-1815.65	  515.81
     12.9700	  635.00	  647.78	-1843.97	  515.38
     13.0700	  639.00	  644.08	-1836.27	  514.94
     13.1700	  581.00	  641.52	-1891.71	  514.51
     13.2700	  605.00	  639.61	-1865.79	  514.07
     13.3700	  641.00	  638.08	-1828.27	  513.63
     13.4700	  586.00	  636.80	-1881.99	  513.19
     13.5700	  634.00	  635.70	-1832.88	  512.75
     13.6700	  581.00	  634.72	-1884.91	  512.30
     13.7700	  609.00	  633.84	-1856.03	  511.86
     13.8700	  654.00	  633.03	-1810.22	  511.42
     13.9700	  626.00	  632.29	-1837.47	  510.97
     14.0700	  663.00	  631.58	-1799.77	  510.53
     14.1700	  617.00	  630.92	-1845.10	  510.08
     14.2700	  602.00	  630.28	-1859.47	  509.63
     14.3700	  665.00	  629.67	-1795.86	  509.18
     14.4700	  602.00	  629.08	-1858.27	  508.74
     14.5700	  618.00	  628.51	-1841.69	  508.29
     14.6700	  580.00	  627.95	-1879.13	  507.84
     14.7700	  590.00	  627.40	-1868.59	  507.39
     14.8700	  629.00	  626.86	-1829.05	  506.93
     14.9700	  589.00	  626.33	-1868.52	  506.48
     15.0700	  606.00	  625.81	-1851.00	  506.03
     15.1700	  613.00	  625.29	-1843.48	  505.58
     15.2700	  618.00	  624.78	-1837.97	  505.12
     15.3700	  559.00	  624.28	-1896.47	  504.67
     15.4700	  657.00	  623.78	-1797.96	  504.21
     15.5700	  626.00	  623.28	-1828.47	  503.76
     15.6700	  623.00	  622.79	-1830.97	  503.30
     15.7700	  619.00	  622.30	-1834.48	  502.85
     15.8700	  604.00	  621.81	-1848.99	  502.39
     15.9700	  631.00	  621.32	-1821.51	  501.93
     16.0700	  603.00	  620.84	-1849.02	  501.48
     16.1700	  612.00	  620.36	-1839.54	  501.02
     16.2700	  631.00	  619.87	-1820.06	  500.56
     16.3700	  571.00	  619.40	-1879.58	  500.10
     16.4700	  618.00	  618.92	-1832.10	  499.65
     16.5700	  623.00	  618.44	-1826.63	  499.19
     16.6700	  639.00	  617.97	-1810.15	  498.73
     16.7700	  626.00	  617.49	-1822.68	  498.27
     16.8700	  570.00	  617.02	-1878.20	  497.81
     16.9700	  580.00	  616.54	-1867.73	  497.35
     17.0700	  604.00	  616.07	-1843.26	  496.89
     17.1700	  585.00	  615.60	-1861.79	  496.43
     17.2700	  635.00	  615.13	-1811.32	  495.97
     17.3700	  595.00	  614.66	-1850.85	  495.51
     17.4700	  596.00	  614.19	-1849.38	  495.05
     17.5700	  597.00	  613.73	-1847.91	  494.60
     17.6700	  597.00	  613.26	-1847.44	  494.14
     17.7700	  581.00	  612.79	-1862.98	  493.68
     17.8700	  615.00	  612.33	-1828.51	  493.22
     17.9700	  622.00	  611.86	-1821.05	  492.76
     18.0700	  585.00	  612.22	-1858.40	  492.30
     18.1700	  627.00	  611.77	-1815.95	  491.84
     18.2700	  600.00	  611.81	-1843.00	  491.38
     18.3700	  576.00	  611.38	-1866.56	  490.92
     18.4700	  559.00	  610.94	-1883.13	  490.46
     18.5700	  613.00	  610.51	-1828.69	  490.00
     18.6700	  625.00	  610.08	-1816.26	  489.54
     18.7700	  607.00	  609.64	-1833.83	  489.09
     18.8700	  594.00	  609.22	-1846.40	  488.63
     18.9700	  590.00	  608.79	-1849.97	  488.17
     19.0700	  569.00	  608.36	-1870.55	  487.71
     19.1700	  611.00	  607.94	-1828.12	  487.26
     19.2700	  619.00	  607.52	-1819.70	  486.80
     19.3700	  584.00	  607.10	-1854.28	  486.34
     19.4700	  595.00	  606.68	-1842.86	  485.89
     19.5700	  592.00	  606.32	-1845.51	  485.43
     19.6700	  613.00	  605.91	-1824.09	  484.97
     19.7700	  584.00	  605.50	-1852.68	  484.52
     19.8700	  640.00	  605.09	-1796.27	  484.06
     19.9700	  575.00	  604.68	-1860.87	  483.61
     20.0700	  566.00	  604.28	-1869.47	  483.16
     20.1700	  568.00	  603.88	-1867.06	  482.70
     20.2700	  622.00	  603.48	-1812.67	  482.25
     20.3700	  598.00	  603.09	-1836.27	  481.80
     20.4700	  611.00	  602.70	-1822.88	  481.35
     20.5700	  567.00	  602.31	-1866.49	  480.90
     20.6700	  605.00	  601.92	-1828.11	  480.44
     20.7700	  565.00	  601.54	-1867.73	  479.99
     20.8700	  604.00	  601.16	-1828.35	  479.55
     20.9700	  587.00	  600.79	-1844.98	  479.10
     21.0700	  628.00	  600.42	-1803.61	  478.65
     21.1700	  613.00	  600.06	-1818.25	  478.20
     21.2700	  562.00	  599.70	-1868.89	  477.75
     21.3700	  603.00	  599.35	-1827.53	  477.31
     21.4700	  614.00	  599.00	-1816.18	  476.86
     21.5700	  592.00	  598.66	-1837.84	  476.42
     21.6700	  567.00	  598.32	-1862.51	  475.97
     21.7700	  611.00	  597.99	-1818.18	  475.53
     21.8700	  584.00	  597.67	-1844.86	  475.08
     21.9700	  616.00	  597.54	-1812.72	  474.64
     22.0700	  621.00	  597.24	-1807.42	  474.20
     22.1700	  612.00	  596.94	-1816.13	  473.76
     22.2700	  587.00	  596.66	-1840.85	  473.32
     22.3700	  587.00	  596.39	-1840.58	  472.88
     22.4700	  602.00	  596.14	-1825.32	  472.44
     22.5700	  574.00	  595.90	-1853.08	  472.01
     22.6700	  568.00	  595.67	-1858.86	  471.57
     22.7700	  604.00	  595.46	-1822.65	  471.13
     22.8700	  594.00	  595.28	-1832.46	  470.70
     22.9700	  563.00	  595.12	-1863.30	  470.27
     23.0700	  609.00	  594.98	-1817.17	  469.83
     23.1700	  593.00	  594.88	-1833.07	  469.40
     23.2700	  583.00	  594.82	-1843.01	  468.97
     23.3700	  582.00	  594.81	-1843.99	  468.54
     23.4700	  653.00	  594.85	-1773.04	  468.11
     23.5700	  598.00	  594.97	-1828.16	  467.68
     23.6700	  585.00	  595.19	-1841.37	  467.26
     23.7700	  648.00	  595.54	-1778.73	  466.83
     23.8700	  621.00	  596.04	-1806.22	  466.40
     23.9700	  611.00	  596.90	-1817.08	  465.98
     24.0700	  604.00	  598.25	-1825.43	  465.56
     24.1700	  618.00	  600.35	-1813.53	  465.13
     24.2700	  620.00	  603.59	-1814.78	  464.71
     24.3700	  587.00	  608.42	-1852.61	  464.29
     24.4700	  641.00	  615.22	-1805.41	  463.87
     24.5700	  679.00	  624.06	-1776.25	  463.46
     24.6700	  686.00	  634.46	-1779.65	  463.04
     24.7700	  651.00	  645.04	-1825.22	  462.62
     24.8700	  678.00	  653.12	-1806.30	  462.21
     24.9700	  719.00	  654.99	-1767.18	  461.80
     25.0700	  700.00	  648.63	-1779.81	  461.38
     25.1700	  657.00	  636.87	-1811.06	  460.97
     25.2700	  659.00	  624.82	-1797.01	  460.56
     25.3700	  605.00	  615.28	-1841.46	  460.15
     25.4700	  630.00	  608.76	-1809.94	  459.75
     25.5700	  653.00	  604.80	-1782.98	  459.34
     25.6700	  613.00	  602.67	-1820.86	  458.94
     25.7700	  625.00	  601.73	-1807.92	  458.53
     25.8700	  633.00	  601.55	-1799.74	  458.13
     25.9700	  678.00	  601.89	-1755.07	  457.73
     26.0700	  627.00	  602.63	-1806.81	  457.33
     26.1700	  650.00	  603.73	-1784.91	  456.93
     26.2700	  664.00	  605.20	-1772.38	  456.53
     26.3700	  623.00	  607.05	-1815.24	  456.13
     26.4700	  619.00	  609.35	-1821.53	  455.74
     26.5700	  650.00	  612.15	-1793.34	  455.35
     26.6700	  622.00	  615.56	-1824.75	  454.95
     26.7700	  631.00	  619.70	-1819.89	  454.56
     26.8700	  654.00	  624.76	-1801.95	  454.17
     26.9700	  648.00	  630.97	-1814.16	  453.78
     27.0700	  676.00	  638.69	-1793.87	  453.40
     27.1700	  657.00	  648.40	-1822.58	  453.01
     27.2700	  674.00	  660.91	-1818.09	  452.63
     27.3700	  689.00	  677.66	-1819.85	  452.24
     27.4700	  717.00	  701.49	-1815.67	  451.86
     27.5700	  715.00	  737.97	-1854.16	  451.48
     27.6700	  752.00	  797.58	-1876.76	  451.10
     27.7700	  752.00	  897.92	-1977.11	  450.72
     27.8700	  855.00	 1064.40	-2040.58	  450.35
     27.9700	 1099.00	 1324.54	-2056.72	  449.97
     28.0700	 1366.00	 1692.73	-2157.92	  449.60
     28.1700	 2111.00	 2147.19	-1867.37	  449.23
     28.2700	 2890.00	 2604.96	-1546.14	  448.86
     28.3700	 3364.00	 2910.62	-1377.81	  448.49
     28.4700	 3275.00	 2893.02	-1449.21	  448.12
     28.5700	 2669.00	 2566.87	-1729.06	  447.76
     28.6700	 2042.00	 2183.16	-1972.35	  447.39
     28.7700	 1706.00	 1944.57	-2069.76	  447.03
     28.8700	 1788.00	 1893.46	-1936.64	  446.67
     28.9700	 1886.00	 1961.06	-1906.25	  446.31
     29.0700	 2145.00	 2017.11	-1703.29	  445.95
     29.1700	 2106.00	 1929.72	-1654.91	  445.59
     29.2700	 1633.00	 1676.19	-1874.38	  445.23
     29.3700	 1422.00	 1367.03	-1776.21	  444.88
     29.4700	 1060.00	 1103.24	-1874.42	  444.53
     29.5700	  935.00	  917.54	-1813.73	  444.18
     29.6700	  776.00	  802.12	-1857.30	  443.83
     29.7700	  788.00	  735.19	-1778.38	  443.48
     29.8700	  748.00	  696.37	-1779.55	  443.13
     29.9700	  730.00	  672.31	-1773.49	  442.79
     30.0700	  756.00	  656.09	-1731.28	  442.44
     30.1700	  680.00	  644.66	-1795.84	  442.10
     30.2700	  701.00	  636.81	-1766.99	  441.76
     30.3700	  678.00	  632.37	-1785.56	  441.42
     30.4700	  638.00	  631.91	-1825.09	  441.09
     30.5700	  670.00	  636.58	-1797.77	  440.75
     30.6700	  682.00	  647.81	-1797.00	  440.42
     30.7700	  680.00	  666.24	-1817.43	  440.08
     30.8700	  666.00	  690.35	-1855.53	  439.75
     30.9700	  755.00	  715.21	-1791.39	  439.42
     31.0700	  736.00	  731.94	-1827.13	  439.10
     31.1700	  726.00	  730.10	-1835.29	  438.77
     31.2700	  716.00	  707.13	-1822.32	  438.45
     31.3700	  655.00	  673.94	-1850.13	  438.12
     31.4700	  654.00	  642.83	-1820.01	  437.80
     31.5700	  595.00	  619.16	-1855.34	  437.48
     31.6700	  637.00	  603.29	-1797.47	  437.16
     31.7700	  623.00	  593.44	-1801.62	  436.85
     31.8700	  581.00	  587.45	-1837.64	  436.53
     31.9700	  612.00	  583.68	-1802.87	  436.22
     32.0700	  611.00	  581.12	-1801.31	  435.91
     32.1700	  587.00	  579.28	-1823.47	  435.60
     32.2700	  609.00	  577.93	-1800.12	  435.29
     32.3700	  614.00	  576.97	-1794.15	  434.98
     32.4700	  584.00	  576.33	-1823.52	  434.68
     32.5700	  610.00	  576.02	-1797.21	  434.38
     32.6700	  603.00	  576.06	-1804.25	  434.08
     32.7700	  609.00	  576.43	-1798.62	  433.78
     32.8700	  605.00	  577.20	-1803.39	  433.48
     32.9700	  601.00	  578.47	-1808.65	  433.18
     33.0700	  587.00	  580.37	-1824.56	  432.89
     33.1700	  597.00	  583.18	-1817.36	  432.59
     33.2700	  610.00	  587.38	-1808.56	  432.30
     33.3700	  614.00	  593.91	-1811.09	  432.01
     33.4700	  623.00	  604.53	-1812.72	  431.72
     33.5700	  596.00	  622.23	-1857.42	  431.44
     33.6700	  615.00	  651.36	-1867.55	  431.15
     33.7700	  650.00	  696.95	-1878.14	  430.87
     33.8700	  774.00	  762.36	-1819.55	  430.59
     33.9700	  874.00	  845.28	-1802.46	  430.31
     34.0700	  940.00	  933.55	-1824.74	  430.03
     34.1700	 1093.00	 1003.30	-1741.48	  429.75
     34.2700	 1115.00	 1023.54	-1739.72	  429.48
     34.3700	 1064.00	  978.32	-1745.50	  429.21
     34.4700	  886.00	  889.54	-1834.72	  428.94
     34.5700	  767.00	  794.73	-1858.91	  428.67
     34.6700	  710.00	  716.24	-1837.43	  428.40
     34.7700	  657.00	  660.10	-1834.29	  428.13
     34.8700	  648.00	  623.76	-1806.94	  427.87
     34.9700	  587.00	  601.64	-1845.82	  427.61
     35.0700	  600.00	  588.31	-1819.50	  427.35
     35.1700	  627.00	  579.92	-1784.11	  427.09
     35.2700	  572.00	  574.19	-1833.38	  426.83
     35.3700	  546.00	  569.97	-1855.15	  426.57
     35.4700	  579.00	  566.68	-1818.86	  426.32
     35.5700	  581.00	  564.03	-1814.21	  426.07
     35.6700	  586.00	  561.85	-1807.03	  425.82
     35.7700	  584.00	  560.03	-1807.21	  425.57
     35.8700	  593.00	  558.49	-1796.68	  425.32
     35.9700	  554.00	  557.18	-1834.37	  425.07
     36.0700	  540.00	  556.56	-1847.75	  424.83
     36.1700	  555.00	  555.60	-1831.79	  424.59
     36.2700	  587.00	  554.78	-1798.97	  424.35
     36.3700	  591.00	  554.09	-1794.27	  424.11
     36.4700	  572.00	  553.50	-1812.68	  423.87
     36.5700	  563.00	  553.02	-1821.20	  423.64
     36.6700	  558.00	  552.65	-1825.83	  423.40
     36.7700	  579.00	  552.39	-1804.58	  423.17
     36.8700	  570.00	  552.47	-1813.66	  422.94
     36.9700	  533.00	  552.50	-1850.68	  422.71
     37.0700	  537.00	  552.79	-1846.97	  422.49
     37.1700	  529.00	  553.43	-1855.61	  422.26
     37.2700	  574.00	  554.60	-1811.79	  422.04
     37.3700	  543.00	  556.59	-1844.78	  421.82
     37.4700	  572.00	  559.81	-1819.00	  421.60
     37.5700	  575.00	  564.77	-1820.95	  421.38
     37.6700	  549.00	  571.99	-1854.17	  421.16
     37.7700	  534.00	  581.76	-1878.94	  420.95
     37.8700	  581.00	  593.80	-1843.98	  420.74
     37.9700	  586.00	  606.94	-1852.13	  420.53
     38.0700	  603.00	  619.13	-1847.32	  420.32
     38.1700	  623.00	  627.40	-1835.59	  420.11
     38.2700	  624.00	  628.07	-1835.26	  419.90
     38.3700	  607.00	  619.40	-1843.58	  419.70
     38.4700	  580.00	  604.34	-1855.53	  419.49
     38.5700	  530.00	  588.21	-1889.39	  419.29
     38.6700	  589.00	  574.39	-1816.57	  419.09
     38.7700	  562.00	  564.00	-1833.19	  418.90
     38.8700	  551.00	  556.87	-1837.05	  418.70
     38.9700	  611.00	  551.47	-1771.66	  418.51
     39.0700	  535.00	  548.55	-1844.74	  418.31
     39.1700	  561.00	  546.65	-1816.84	  418.12
     39.2700	  553.00	  545.33	-1823.52	  417.93
     39.3700	  554.00	  544.34	-1821.53	  417.75
     39.4700	  521.00	  543.56	-1853.74	  417.56
     39.5700	  532.00	  542.91	-1842.10	  417.38
     39.6700	  508.00	  542.36	-1865.55	  417.19
     39.7700	  512.00	  541.90	-1861.08	  417.01
     39.8700	  540.00	  541.49	-1832.68	  416.83
     39.9700	  508.00	  541.14	-1864.32	  416.66
     40.0700	  506.00	  540.83	-1866.01	  416.48
     40.1700	  490.00	  540.64	-1881.83	  416.31
     40.2700	  544.00	  540.42	-1827.61	  416.13
     40.3700	  507.00	  540.23	-1864.42	  415.96
     40.4700	  554.00	  540.07	-1817.26	  415.79
     40.5700	  501.00	  539.95	-1870.13	  415.62
     40.6700	  538.00	  539.85	-1833.03	  415.46
     40.7700	  483.00	  539.78	-1887.97	  415.29
     40.8700	  546.00	  539.75	-1824.93	  415.13
     40.9700	  523.00	  539.75	-1847.94	  414.97
     41.0700	  542.00	  539.80	-1828.98	  414.81
     41.1700	  545.00	  539.89	-1826.08	  414.65
     41.2700	  542.00	  540.10	-1829.28	  414.50
     41.3700	  547.00	  540.31	-1824.50	  414.34
     41.4700	  553.00	  540.61	-1818.80	  414.19
     41.5700	  521.00	  541.02	-1851.21	  414.04
     41.6700	  533.00	  541.56	-1839.75	  413.89
     41.7700	  527.00	  542.31	-1846.49	  413.74
     41.8700	  542.00	  543.35	-1832.54	  413.59
     41.9700	  536.00	  544.90	-1840.09	  413.45
     42.0700	  551.00	  547.30	-1827.49	  413.31
     42.1700	  518.00	  551.14	-1864.32	  413.16
     42.2700	  519.00	  557.25	-1869.44	  413.02
     42.3700	  509.00	  566.64	-1888.83	  412.88
     42.4700	  545.00	  580.35	-1866.53	  412.75
     42.5700	  573.00	  598.27	-1856.45	  412.61
     42.6700	  603.00	  619.38	-1847.57	  412.48
     42.7700	  603.00	  640.26	-1868.44	  412.35
     42.8700	  620.00	  655.23	-1866.42	  412.22
     42.9700	  590.00	  658.04	-1899.23	  412.09
     43.0700	  590.00	  646.91	-1888.10	  411.96
     43.1700	  594.00	  627.00	-1864.18	  411.83
     43.2700	  563.00	  604.86	-1873.04	  411.71
     43.3700	  496.00	  585.25	-1920.44	  411.58
     43.4700	  479.00	  569.99	-1922.17	  411.46
     43.5700	  596.00	  559.16	-1794.35	  411.34
     43.6700	  536.00	  551.99	-1847.18	  411.22
     43.7700	  468.00	  547.45	-1910.64	  411.11
     43.8700	  523.00	  544.59	-1852.78	  410.99
     43.9700	  533.00	  542.74	-1840.92	  410.88
     44.0700	  573.00	  541.46	-1799.65	  410.77
     44.1700	  566.00	  540.53	-1805.72	  410.65
     44.2700	  571.00	  540.03	-1800.22	  410.55
     44.3700	  561.00	  539.48	-1809.67	  410.44
     44.4700	  546.00	  539.04	-1824.23	  410.33
     44.5700	  572.00	  538.70	-1797.88	  410.23
     44.6700	  598.00	  538.43	-1771.61	  410.12
     44.7700	  534.00	  538.22	-1835.41	  410.02
     44.8700	  517.00	  538.06	-1852.25	  409.92
     44.9700	  546.00	  537.96	-1823.14	  409.82
     45.0700	  572.00	  537.91	-1797.09	  409.72
     45.1700	  549.00	  537.88	-1820.06	  409.63
     45.2700	  542.00	  537.89	-1827.07	  409.53
     45.3700	  559.00	  538.02	-1810.21	  409.44
     45.4700	  586.00	  538.10	-1783.28	  409.35
     45.5700	  560.00	  538.20	-1809.39	  409.26
     45.6700	  531.00	  538.35	-1838.53	  409.17
     45.7700	  543.00	  538.53	-1826.71	  409.08
     45.8700	  545.00	  538.74	-1824.92	  408.99
     45.9700	  529.00	  539.06	-1841.25	  408.91
     46.0700	  551.00	  539.36	-1819.54	  408.82
     46.1700	  514.00	  539.70	-1856.89	  408.74
     46.2700	  576.00	  540.09	-1795.28	  408.66
     46.3700	  556.00	  540.55	-1815.73	  408.58
     46.4700	  535.00	  541.07	-1837.25	  408.50
     46.5700	  522.00	  541.49	-1850.67	  408.43
     46.6700	  552.00	  542.18	-1821.37	  408.35
     46.7700	  524.00	  542.99	-1850.18	  408.28
     46.8700	  566.00	  543.95	-1809.14	  408.20
     46.9700	  573.00	  545.11	-1803.30	  408.13
     47.0700	  572.00	  546.59	-1805.78	  408.06
     47.1700	  589.00	  548.55	-1790.73	  407.99
     47.2700	  565.00	  551.28	-1817.47	  407.93
     47.3700	  555.00	  555.25	-1831.43	  407.86
     47.4700	  584.00	  561.03	-1808.22	  407.80
     47.5700	  551.00	  569.28	-1849.46	  407.73
     47.6700	  589.00	  580.49	-1822.68	  407.67
     47.7700	  559.00	  594.73	-1866.92	  407.61
     47.8700	  563.00	  611.19	-1879.38	  407.55
     47.9700	  639.00	  627.79	-1819.97	  407.49
     48.0700	  638.00	  641.34	-1834.53	  407.43
     48.1700	  646.00	  646.88	-1832.07	  407.38
     48.2700	  673.00	  643.06	-1801.24	  407.32
     48.3700	  555.00	  632.23	-1908.42	  407.27
     48.4700	  636.00	  618.85	-1814.03	  407.22
     48.5700	  586.00	  606.44	-1851.62	  407.17
     48.6700	  545.00	  596.90	-1883.08	  407.12
     48.7700	  605.00	  590.88	-1817.07	  407.07
     48.8700	  587.00	  588.35	-1832.54	  407.02
     48.9700	  606.00	  588.91	-1814.09	  406.98
     49.0700	  590.00	  592.14	-1833.32	  406.93
     49.1700	  582.00	  597.85	-1847.03	  406.89
     49.2700	  596.00	  606.27	-1841.46	  406.84
     49.3700	  622.00	  618.41	-1827.60	  406.80
     49.4700	  657.00	  636.67	-1810.86	  406.76
     49.5700	  668.00	  665.93	-1829.12	  406.72
     49.6700	  682.00	  714.98	-1864.17	  406.68
     49.7700	  772.00	  797.49	-1856.68	  406.65
     49.8700	  868.00	  931.12	-1894.31	  406.61
     49.9700	 1124.00	 1133.00	-1840.18	  406.58
     50.0700	 1406.00	 1410.96	-1836.15	  406.54
     50.1700	 1738.00	 1752.39	-1845.58	  406.51
     50.2700	 2326.00	 2112.81	-1617.99	  406.48
     50.3700	 2561.00	 2410.65	-1680.83	  406.45
     50.4700	 2556.00	 2544.97	-1820.15	  406.42
     50.5700	 2500.00	 2455.32	-1786.50	  406.39
     50.6700	 2201.00	 2181.55	-1811.74	  406.37
     50.7700	 1763.00	 1826.76	-1894.94	  406.34
     50.8700	 1366.00	 1481.62	-1946.80	  406.32
     50.9700	 1110.00	 1197.32	-1918.51	  406.29
     51.0700	  900.00	  990.97	-1922.15	  406.27
     51.1700	  797.00	  856.44	-1890.63	  406.25
     51.2700	  787.00	  775.99	-1820.17	  406.23
     51.3700	  668.00	  729.40	-1892.58	  406.21
     51.4700	  700.00	  700.12	-1831.31	  406.19
     51.5700	  676.00	  677.99	-1833.18	  406.17
     51.6700	  674.00	  658.85	-1816.03	  406.15
     51.7700	  631.00	  642.07	-1842.25	  406.14
     51.8700	  649.00	  627.91	-1810.09	  406.12
     51.9700	  637.00	  616.59	-1810.78	  406.11
     52.0700	  641.00	  608.09	-1798.27	  406.10
     52.1700	  645.00	  602.13	-1788.32	  406.08
     52.2700	  622.00	  598.37	-1807.56	  406.07
     52.3700	  609.00	  596.52	-1818.71	  406.06
     52.4700	  611.00	  596.43	-1816.62	  406.05
     52.5700	  633.00	  598.20	-1796.39	  406.05
     52.6700	  628.00	  602.28	-1805.46	  406.04
     52.7700	  601.00	  609.58	-1839.76	  406.03
     52.8700	  666.00	  621.71	-1786.90	  406.03
     52.9700	  642.00	  641.08	-1830.26	  406.02
     53.0700	  707.00	  670.82	-1795.01	  406.02
     53.1700	  722.00	  714.37	-1823.55	  406.01
     53.2700	  794.00	  774.61	-1811.79	  406.01
     53.3700	  895.00	  852.29	-1788.47	  406.01
     53.4700	  929.00	  944.75	-1846.94	  406.01
     53.5700	 1086.00	 1043.71	-1788.90	  406.01
     53.6700	 1138.00	 1133.50	-1826.68	  406.01
     53.7700	 1259.00	 1191.88	-1764.07	  406.01
     53.8700	 1247.00	 1199.03	-1783.22	  406.02
     53.9700	 1191.00	 1151.97	-1792.16	  406.02
     54.0700	 1055.00	 1067.65	-1843.83	  406.03
     54.1700	  956.00	  969.40	-1844.59	  406.03
     54.2700	  875.00	  874.96	-1831.15	  406.04
     54.3700	  813.00	  794.17	-1812.36	  406.04
     54.4700	  745.00	  730.74	-1816.93	  406.05
     54.5700	  668.00	  684.45	-1847.64	  406.06
     54.6700	  613.00	  652.75	-1870.93	  406.07
     54.7700	  612.00	  632.20	-1851.39	  406.08
     54.8700	  678.00	  619.53	-1772.71	  406.09
     54.9700	  603.00	  612.11	-1840.29	  406.10
     55.0700	  658.00	  608.12	-1781.31	  406.11
     55.1700	  638.00	  606.46	-1799.65	  406.12
     55.2700	  590.00	  606.49	-1847.68	  406.14
     55.3700	  631.00	  607.94	-1808.12	  406.15
     55.4700	  656.00	  610.69	-1785.87	  406.16
     55.5700	  640.00	  614.80	-1805.99	  406.18
     55.6700	  605.00	  620.46	-1846.64	  406.20
     55.7700	  600.00	  628.04	-1859.23	  406.21
     55.8700	  658.00	  638.27	-1811.46	  406.23
     55.9700	  654.00	  652.50	-1829.69	  406.25
     56.0700	  695.00	  673.17	-1809.35	  406.26
     56.1700	  698.00	  704.46	-1837.65	  406.28
     56.2700	  723.00	  752.96	-1861.15	  406.30
     56.3700	  804.00	  827.84	-1855.02	  406.32
     56.4700	  871.00	  940.35	-1900.54	  406.34
     56.5700	 1054.00	 1101.61	-1878.80	  406.36
     56.6700	 1288.00	 1318.93	-1862.12	  406.39
     56.7700	 1569.00	 1590.79	-1852.97	  406.41
     56.8700	 1896.00	 1901.55	-1836.74	  406.43
     56.9700	 2205.00	 2216.23	-1842.42	  406.45
     57.0700	 2423.00	 2477.33	-1885.52	  406.48
     57.1700	 2660.00	 2614.83	-1786.01	  406.50
     57.2700	 2462.00	 2581.25	-1950.44	  406.53
     57.3700	 2349.00	 2388.77	-1870.95	  406.55
     57.4700	 2084.00	 2099.83	-1847.01	  406.58
     57.5700	 1663.00	 1783.29	-1951.47	  406.61
     57.6700	 1442.00	 1487.98	-1877.16	  406.63
     57.7700	 1167.00	 1240.72	-1904.90	  406.66
     57.8700	  966.00	 1050.99	-1916.17	  406.69
     57.9700	  869.00	  916.63	-1878.82	  406.71
     58.0700	  776.00	  829.21	-1884.40	  406.74
     58.1700	  759.00	  778.61	-1850.80	  406.77
     58.2700	  751.00	  756.34	-1836.52	  406.80
     58.3700	  764.00	  756.85	-1824.04	  406.83
     58.4700	  750.00	  777.42	-1858.61	  406.86
     58.5700	  875.00	  816.96	-1773.15	  406.89
     58.6700	  830.00	  874.36	-1875.55	  406.92
     58.7700	  924.00	  946.94	-1854.12	  406.95
     58.8700	 1030.00	 1028.79	-1829.98	  406.99
     58.9700	 1131.00	 1110.39	-1810.58	  407.02
     59.0700	 1216.00	 1181.13	-1796.32	  407.05
     59.1700	 1274.00	 1234.39	-1791.58	  407.08
     59.2700	 1301.00	 1268.18	-1798.37	  407.12
     59.3700	 1240.00	 1280.60	-1871.79	  407.15
     59.4700	 1232.00	 1269.78	-1868.96	  407.18
     59.5700	 1313.00	 1240.31	-1758.50	  407.22
     59.6700	 1200.00	 1204.56	-1835.75	  407.25
     59.7700	 1164.00	 1175.90	-1843.09	  407.28
     59.8700	 1105.00	 1163.72	-1889.90	  407.32
     59.9700	 1189.00	 1173.84	-1816.02	  407.35
     60.0700	 1180.00	 1210.65	-1861.83	  407.39
     60.1700	 1315.00	 1275.69	-1791.88	  407.42
     60.2700	 1429.00	 1363.94	-1766.12	  407.46
     60.3700	 1504.00	 1460.74	-1787.93	  407.50
     60.4700	 1591.00	 1541.62	-1781.80	  407.53
     60.5700	 1655.00	 1577.07	-1753.25	  407.57
     60.6700	 1567.00	 1546.58	-1810.76	  407.61
     60.7700	 1519.00	 1453.09	-1765.28	  407.64
     60.8700	 1340.00	 1319.99	-1811.18	  407.68
     60.9700	 1174.00	 1174.78	-1831.97	  407.72
     61.0700	 1031.00	 1038.41	-1838.59	  407.75
     61.1700	  950.00	  923.51	-1804.69	  407.79
     61.2700	  934.00	  835.68	-1732.86	  407.83
     61.3700	  783.00	  775.74	-1823.92	  407.86
     61.4700	  778.00	  741.87	-1795.05	  407.90
     61.5700	  742.00	  731.80	-1820.98	  407.94
     61.6700	  770.00	  744.29	-1805.48	  407.98
     61.7700	  853.00	  779.57	-1757.76	  408.02
     61.8700	  978.00	  838.69	-1691.88	  408.05
     61.9700	  985.00	  922.04	-1768.23	  408.09
     62.0700	 1076.00	 1027.50	-1782.69	  408.13
     62.1700	 1191.00	 1148.49	-1788.68	  408.17
     62.2700	 1270.00	 1272.51	-1833.69	  408.21
     62.3700	 1389.00	 1380.02	-1822.20	  408.24
     62.4700	 1492.00	 1446.81	-1785.99	  408.28
     62.5700	 1404.00	 1452.99	-1880.17	  408.32
     62.6700	 1355.00	 1395.99	-1872.18	  408.36
     62.7700	 1245.00	 1292.55	-1878.73	  408.40
     62.8700	 1166.00	 1167.07	-1832.26	  408.44
     62.9700	 1031.00	 1040.39	-1840.57	  408.47
     63.0700	  901.00	  926.35	-1856.54	  408.51
     63.1700	  795.00	  832.27	-1868.46	  408.55
     63.2700	  699.00	  760.22	-1892.40	  408.59
     63.3700	  736.00	  708.71	-1803.89	  408.63
     63.4700	  625.00	  674.28	-1880.46	  408.66
     63.5700	  677.00	  652.94	-1807.13	  408.70
     63.6700	  589.00	  641.35	-1883.53	  408.74
     63.7700	  597.00	  637.15	-1871.33	  408.78
     63.8700	  644.00	  639.25	-1826.44	  408.82
     63.9700	  632.00	  647.80	-1846.99	  408.85
     64.0700	  677.00	  663.91	-1818.10	  408.89
     64.1700	  753.00	  689.31	-1767.50	  408.93
     64.2700	  772.00	  726.02	-1785.21	  408.97
     64.3700	  806.00	  775.65	-1800.84	  409.00
     64.4700	  841.00	  838.73	-1828.91	  409.04
     64.5700	  923.00	  913.84	-1822.03	  409.08
     64.6700	 1068.00	  996.82	-1760.00	  409.11
     64.7700	 1136.00	 1080.16	-1775.35	  409.15
     64.8700	 1222.00	 1152.35	-1761.54	  409.19
     64.9700	 1255.00	 1200.90	-1777.08	  409.22
     65.0700	 1208.00	 1217.84	-1841.02	  409.26
     65.1700	 1202.00	 1200.27	-1829.45	  409.29
     65.2700	 1091.00	 1152.88	-1893.06	  409.33
     65.3700	 1069.00	 1085.87	-1848.06	  409.36
     65.4700	  970.00	 1010.55	-1871.73	  409.40
     65.5700	  938.00	  936.57	-1829.76	  409.43
     65.6700	  850.00	  869.69	-1850.88	  409.47
     65.7700	  733.00	  812.27	-1910.46	  409.50
     65.8700	  750.00	  764.64	-1845.82	  409.54
     65.9700	  668.00	  726.26	-1889.45	  409.57
     66.0700	  698.00	  696.27	-1829.45	  409.60
     66.1700	  689.00	  673.53	-1815.72	  409.64
     66.2700	  605.00	  656.82	-1883.01	  409.67
     66.3700	  648.00	  645.03	-1828.21	  409.70
     66.4700	  644.00	  637.20	-1824.38	  409.73
     66.5700	  614.00	  632.56	-1849.75	  409.76
     66.6700	  595.00	  630.62	-1866.81	  409.80
     66.7700	  632.00	  631.23	-1830.41	  409.83
     66.8700	  618.00	  634.40	-1847.58	  409.86
     66.9700	  628.00	  640.48	-1843.67	  409.89
     67.0700	  638.00	  650.31	-1843.50	  409.92
     67.1700	  639.00	  665.46	-1857.65	  409.95
     67.2700	  681.00	  688.47	-1838.65	  409.98
     67.3700	  713.00	  723.08	-1841.27	  410.01
     67.4700	  799.00	  774.37	-1806.55	  410.03
     67.5700	  779.00	  848.42	-1900.60	  410.06
     67.6700	  904.00	  951.66	-1878.84	  410.09
     67.7700	 1106.00	 1089.53	-1814.72	  410.12
     67.8700	 1227.00	 1264.63	-1868.81	  410.14
     67.9700	 1538.00	 1474.80	-1767.98	  410.17
     68.0700	 1707.00	 1711.32	-1835.50	  410.20
     68.1700	 1990.00	 1957.00	-1798.19	  410.22
     68.2700	 2176.00	 2184.91	-1840.10	  410.25
     68.3700	 2406.00	 2359.38	-1784.57	  410.27
     68.4700	 2442.00	 2443.74	-1832.93	  410.29
     68.5700	 2392.00	 2416.55	-1855.73	  410.32
     68.6700	 2312.00	 2284.94	-1804.13	  410.34
     68.7700	 2169.00	 2079.98	-1742.17	  410.36
     68.8700	 1813.00	 1839.55	-1857.74	  410.38
     68.9700	 1537.00	 1595.54	-1889.73	  410.41
     69.0700	 1313.00	 1370.09	-1888.28	  410.43
     69.1700	 1163.00	 1176.14	-1844.32	  410.45
     69.2700	  963.00	 1019.04	-1887.23	  410.47
     69.3700	  891.00	  898.38	-1838.57	  410.49
     69.4700	  845.00	  809.93	-1796.11	  410.50
     69.5700	  693.00	  747.56	-1885.74	  410.52
     69.6700	  724.00	  704.85	-1812.03	  410.54
     69.7700	  671.00	  676.11	-1836.30	  410.56
     69.8700	  647.00	  656.85	-1841.04	  410.57
     69.9700	  620.00	  643.82	-1855.01	  410.59
     70.0700	  603.00	  634.87	-1863.06	  410.60
     70.1700	  613.00	  628.65	-1846.84	  410.62
     70.2700	  627.00	  624.37	-1828.55	  410.63
     70.3700	  623.00	  621.57	-1829.76	  410.65
     70.4700	  630.00	  620.07	-1821.25	  410.66
     70.5700	  610.00	  619.75	-1840.94	  410.67
     70.6700	  630.00	  620.52	-1821.70	  410.68
     70.7700	  609.00	  622.98	-1845.17	  410.69
     70.8700	  654.00	  627.38	-1804.57	  410.70
     70.9700	  603.00	  634.49	-1862.67	  410.71
     71.0700	  614.00	  645.49	-1862.68	  410.72
     71.1700	  697.00	  662.19	-1796.37	  410.73
     71.2700	  719.00	  687.06	-1799.25	  410.74
     71.3700	  690.00	  723.31	-1864.49	  410.74
     71.4700	  741.00	  775.51	-1865.69	  410.75
     71.5700	  842.00	  845.71	-1834.90	  410.75
     71.6700	  947.00	  937.98	-1822.16	  410.76
     71.7700	 1061.00	 1053.93	-1824.12	  410.76
     71.8700	 1193.00	 1192.68	-1830.86	  410.76
     71.9700	 1399.00	 1349.69	-1781.87	  410.77
     72.0700	 1583.00	 1516.06	-1764.24	  410.77
     72.1700	 1634.00	 1677.64	-1874.82	  410.77
     72.2700	 1748.00	 1815.01	-1898.20	  410.77
     72.3700	 1909.00	 1905.80	-1827.99	  410.77
     72.4700	 1899.00	 1931.28	-1863.46	  410.77
     72.5700	 1887.00	 1885.48	-1829.67	  410.76
     72.6700	 1803.00	 1778.73	-1806.91	  410.76
     72.7700	 1664.00	 1631.75	-1798.93	  410.76
     72.8700	 1448.00	 1466.51	-1849.69	  410.75
     72.9700	 1284.00	 1301.01	-1848.20	  410.75
     73.0700	 1111.00	 1147.75	-1867.93	  410.74
     73.1700	 1042.00	 1014.28	-1803.46	  410.73
     73.2700	  913.00	  903.95	-1822.14	  410.72
     73.3700	  812.00	  816.82	-1836.01	  410.72
     73.4700	  735.00	  750.75	-1846.94	  410.71
     73.5700	  783.00	  702.33	-1750.52	  410.70
     73.6700	  700.00	  667.81	-1799.00	  410.68
     73.7700	  663.00	  643.66	-1811.84	  410.67
     73.8700	  668.00	  626.92	-1790.10	  410.66
     73.9700	  673.00	  615.37	-1773.56	  410.65
     74.0700	  677.00	  607.43	-1761.62	  410.63
     74.1700	  660.00	  601.51	-1772.69	  410.62
     74.2700	  664.00	  598.04	-1765.23	  410.60
     74.3700	  578.00	  596.04	-1849.23	  410.58
     74.4700	  616.00	  595.21	-1810.39	  410.56
     74.5700	  618.00	  595.27	-1808.46	  410.54
     74.6700	  634.00	  595.97	-1793.16	  410.52
     74.7700	  647.00	  596.98	-1781.17	  410.50
     74.8700	  694.00	  597.92	-1735.11	  410.48
     74.9700	  672.00	  598.39	-1757.58	  410.46
     75.0700	  677.00	  598.04	-1752.23	  410.43
     75.1700	  721.00	  596.75	-1706.94	  410.41
     75.2700	  677.00	  594.70	-1748.89	  410.38
     75.3700	  672.00	  592.30	-1751.48	  410.36
     75.4700	  737.00	  590.08	-1684.27	  410.33
     75.5700	  650.00	  588.61	-1769.79	  410.30
     75.6700	  642.00	  588.46	-1777.64	  410.27
     75.7700	  608.00	  590.16	-1813.34	  410.24
     75.8700	  671.00	  594.46	-1754.65	  410.21
     75.9700	  577.00	  601.92	-1856.11	  410.18
     76.0700	  610.00	  613.13	-1834.32	  410.15
     76.1700	  647.00	  628.54	-1812.73	  410.11
     76.2700	  651.00	  648.36	-1828.54	  410.08
     76.3700	  724.00	  672.41	-1779.59	  410.04
     76.4700	  731.00	  699.93	-1800.11	  410.00
     76.5700	  682.00	  729.82	-1879.00	  409.97
     76.6700	  766.00	  759.99	-1825.18	  409.93
     76.7700	  830.00	  787.67	-1788.85	  409.89
     76.8700	  817.00	  809.43	-1823.62	  409.85
     76.9700	  824.00	  821.79	-1828.98	  409.80
     77.0700	  779.00	  822.36	-1874.55	  409.76
     77.1700	  806.00	  810.94	-1836.12	  409.72
     77.2700	  764.00	  789.63	-1856.82	  409.67
     77.3700	  736.00	  761.82	-1857.01	  409.63
     77.4700	  753.00	  730.98	-1809.17	  409.58
     77.5700	  683.00	  699.96	-1848.14	  409.53
     77.6700	  668.00	  670.83	-1834.01	  409.48
     77.7700	  603.00	  644.93	-1873.12	  409.43
     77.8700	  609.00	  622.97	-1845.15	  409.38
     77.9700	  562.00	  605.10	-1874.28	  409.33
     78.0700	  579.00	  591.10	-1843.29	  409.27
     78.1700	  571.00	  580.50	-1840.68	  409.22
     78.2700	  611.00	  572.48	-1792.67	  409.16
     78.3700	  570.00	  566.88	-1828.06	  409.11
     78.4700	  570.00	  562.86	-1824.05	  409.05
     78.5700	  571.00	  560.09	-1820.28	  408.99
     78.6700	  576.00	  558.17	-1813.35	  408.93
     78.7700	  562.00	  556.84	-1826.03	  408.87
     78.8700	  583.00	  555.95	-1804.14	  408.81
     78.9700	  571.00	  555.38	-1815.57	  408.75
     79.0700	  540.00	  555.09	-1846.27	  408.68
     79.1700	  557.00	  555.03	-1829.22	  408.62
     79.2700	  572.00	  555.22	-1814.41	  408.55
     79.3700	  515.00	  555.67	-1871.85	  408.48
     79.4700	  573.00	  556.40	-1814.59	  408.41
     79.5700	  587.00	  557.48	-1801.67	  408.34
     79.6700	  542.00	  558.97	-1848.16	  408.27
     79.7700	  558.00	  560.99	-1834.18	  408.20
     79.8700	  584.00	  563.69	-1810.88	  408.13
     79.9700	  574.00	  567.28	-1824.47	  408.06
     80.0700	  556.00	  572.08	-1847.27	  407.98
     80.1700	  556.00	  578.49	-1853.68	  407.90
     80.2700	  600.00	  587.02	-1818.21	  407.83
     80.3700	  616.00	  598.28	-1813.47	  407.75
     80.4700	  609.00	  612.94	-1835.13	  407.67
     80.5700	  667.00	  631.68	-1795.87	  407.59
     80.6700	  691.00	  655.11	-1795.30	  407.51
     80.7700	  652.00	  683.45	-1862.63	  407.42
     80.8700	  691.00	  717.17	-1857.35	  407.34
     80.9700	  755.00	  755.56	-1831.75	  407.26
     81.0700	  810.00	  797.43	-1818.62	  407.17
     81.1700	  867.00	  840.80	-1804.99	  407.08
     81.2700	  828.00	  882.92	-1886.11	  406.99
     81.3700	  897.00	  920.57	-1854.75	  406.90
     81.4700	  978.00	  950.68	-1803.87	  406.81
     81.5700	  940.00	  971.09	-1862.27	  406.72
     81.6700	  980.00	  980.80	-1831.99	  406.63
     81.7700	  970.00	  979.89	-1841.07	  406.54
     81.8700	  946.00	  969.26	-1854.44	  406.44
     81.9700	  915.00	  950.51	-1866.69	  406.34
     82.0700	  900.00	  925.59	-1856.77	  406.25
     82.1700	  843.00	  896.41	-1884.59	  406.15
     82.2700	  829.00	  864.72	-1866.91	  406.05
     82.3700	  835.00	  832.17	-1828.35	  405.95
     82.4700	  809.00	  800.21	-1822.40	  405.85
     82.5700	  723.00	  769.94	-1878.13	  405.74
     82.6700	  729.00	  741.90	-1844.08	  405.64
     82.7700	  652.00	  716.16	-1895.35	  405.53
     82.8700	  639.00	  692.60	-1884.79	  405.43
     82.9700	  656.00	  671.14	-1846.33	  405.32
     83.0700	  568.00	  651.88	-1915.06	  405.21
     83.1700	  601.00	  634.99	-1865.17	  405.10
     83.2700	  619.00	  620.67	-1832.85	  404.99
     83.3700	  538.00	  609.05	-1902.23	  404.88
     83.4700	  595.00	  600.17	-1836.36	  404.76
     83.5700	  580.00	  594.00	-1845.19	  404.65
     83.6700	  603.00	  590.41	-1818.60	  404.53
     83.7700	  575.00	  589.18	-1845.37	  404.42
     83.8700	  584.00	  589.99	-1837.17	  404.30
     83.9700	  575.00	  592.40	-1848.58	  404.18
     84.0700	  611.00	  595.89	-1816.08	  404.06
     84.1700	  554.00	  599.84	-1877.03	  403.94
     84.2700	  613.00	  603.57	-1821.75	  403.82
     84.3700	  591.00	  606.34	-1846.53	  403.69
     84.4700	  560.00	  607.35	-1878.54	  403.57
     84.5700	  575.00	  606.52	-1862.70	  403.44
     84.6700	  593.00	  603.62	-1841.81	  403.32
     84.7700	  590.00	  598.97	-1840.15	  403.19
     84.8700	  567.00	  593.08	-1857.27	  403.06
     84.9700	  579.00	  586.55	-1838.73	  402.93
     85.0700	  575.00	  579.89	-1836.07	  402.80
     85.1700	  607.00	  573.53	-1797.72	  402.67
     85.2700	  606.00	  567.82	-1793.00	  402.53
     85.3700	  548.00	  562.96	-1846.15	  402.40
     85.4700	  539.00	  559.12	-1851.31	  402.26
     85.5700	  543.00	  556.36	-1844.54	  402.13
     85.6700	  572.00	  554.69	-1813.88	  401.99
     85.7700	  578.00	  554.11	-1807.30	  401.85
     85.8700	  591.00	  554.59	-1794.77	  401.71
     85.9700	  605.00	  556.08	-1782.27	  401.57
     86.0700	  545.00	  558.55	-1844.74	  401.43
     86.1700	  547.00	  561.96	-1846.15	  401.28
     86.2700	  598.00	  566.24	-1799.43	  401.14
     86.3700	  539.00	  571.37	-1863.55	  400.99
     86.4700	  559.00	  577.25	-1849.43	  400.85
     86.5700	  620.00	  583.78	-1794.97	  400.70
     86.6700	  604.00	  590.84	-1818.03	  400.55
     86.7700	  588.00	  598.29	-1841.47	  400.40
     86.8700	  615.00	  605.97	-1822.16	  400.25
     86.9700	  607.00	  613.83	-1838.02	  400.10
     87.0700	  631.00	  621.92	-1822.11	  399.94
     87.1700	  628.00	  630.37	-1833.56	  399.79
     87.2700	  597.00	  639.33	-1873.52	  399.64
     87.3700	  629.00	  648.84	-1851.02	  399.48
     87.4700	  662.00	  658.72	-1827.91	  399.32
     87.5700	  658.00	  668.60	-1841.79	  399.16
     87.6700	  700.00	  677.84	-1809.02	  399.00
     87.7700	  677.00	  685.58	-1839.76	  398.84
     87.8700	  672.00	  690.86	-1850.04	  398.68
     87.9700	  671.00	  692.81	-1853.00	  398.52
     88.0700	  666.00	  690.95	-1856.14	  398.36
     88.1700	  690.00	  685.34	-1826.52	  398.19
     88.2700	  699.00	  676.54	-1808.72	  398.03
     88.3700	  671.00	  665.45	-1825.63	  397.86
     88.4700	  618.00	  653.06	-1866.25	  397.69
     88.5700	  608.00	  640.34	-1863.52	  397.53
     88.6700	  625.00	  628.09	-1834.28	  397.36
     88.7700	  623.00	  616.99	-1825.18	  397.19
     88.8700	  598.00	  607.09	-1840.28	  397.01
     88.9700	  602.00	  599.63	-1828.82	  396.84
     89.0700	  603.00	  594.29	-1822.48	  396.67
     89.1700	  597.00	  591.05	-1825.24	  396.49
     89.2700	  611.00	  589.74	-1809.93	  396.32
     89.3700	  621.00	  590.07	-1800.26	  396.14
     89.4700	  614.00	  591.62	-1808.81	  395.97
     89.5700	  651.00	  593.92	-1774.11	  395.79
     89.6700	  625.00	  596.40	-1802.59	  395.61
     89.7700	  612.00	  598.50	-1817.69	  395.43
     89.8700	  629.00	  599.67	-1801.85	  395.25
     89.9700	  593.00	  599.49	-1837.68	  395.07
     90.0700	  567.00	  597.79	-1861.98	  394.88
     90.1700	  596.00	  594.62	-1829.81	  394.70
     90.2700	  602.00	  590.25	-1819.43	  394.52
     90.3700	  595.00	  585.06	-1821.24	  394.33
     90.4700	  585.00	  579.43	-1825.62	  394.14
     90.5700	  565.00	  573.73	-1839.91	  393.96
     90.6700	  587.00	  568.23	-1812.42	  393.77
     90.7700	  589.00	  563.17	-1805.35	  393.58
     90.8700	  556.00	  558.68	-1833.87	  393.39
     90.9700	  512.00	  554.87	-1874.05	  393.20
     91.0700	  594.00	  551.75	-1788.94	  393.01
     91.1700	  521.00	  549.34	-1859.53	  392.82
     91.2700	  543.00	  547.60	-1835.78	  392.62
     91.3700	  518.00	  546.47	-1859.66	  392.43
     91.4700	  516.00	  545.92	-1861.11	  392.24
     91.5700	  528.00	  545.91	-1849.10	  392.04
     91.6700	  530.00	  546.44	-1847.62	  391.84
     91.7700	  526.00	  547.52	-1852.71	  391.65
     91.8700	  604.00	  549.22	-1776.40	  391.45
     91.9700	  514.00	  551.63	-1868.82	  391.25
     92.0700	  583.00	  554.89	-1803.08	  391.05
     92.1700	  562.00	  559.18	-1828.37	  390.85
     92.2700	  568.00	  564.70	-1827.88	  390.65
     92.3700	  562.00	  571.65	-1840.84	  390.45
     92.4700	  569.00	  580.26	-1842.45	  390.25
     92.5700	  626.00	  590.72	-1795.90	  390.04
     92.6700	  599.00	  603.16	-1835.35	  389.84
     92.7700	  596.00	  617.67	-1852.86	  389.63
     92.8700	  599.00	  634.22	-1866.41	  389.43
     92.9700	  680.00	  652.69	-1803.87	  389.22
     93.0700	  662.00	  672.79	-1841.98	  389.02
     93.1700	  670.00	  694.12	-1855.30	  388.81
     93.2700	  611.00	  716.09	-1936.28	  388.60
     93.3700	  741.00	  737.99	-1828.18	  388.39
     93.4700	  714.00	  759.00	-1876.18	  388.19
     93.5700	  712.00	  778.30	-1897.48	  387.98
     93.6700	  795.00	  795.31	-1831.49	  387.77
     93.7700	  758.00	  809.81	-1883.00	  387.55
     93.8700	  783.00	  822.04	-1870.22	  387.34
     93.9700	  798.00	  832.52	-1865.70	  387.13
     94.0700	  849.00	  841.91	-1824.09	  386.92
     94.1700	  848.00	  850.76	-1833.94	  386.71
     94.2700	  808.00	  859.45	-1882.64	  386.49
     94.3700	  892.00	  867.88	-1807.06	  386.28
     94.4700	  896.00	  876.84	-1812.02	  386.06
     94.5700	  884.00	  886.17	-1833.35	  385.85
     94.6700	  891.00	  896.10	-1836.29	  385.63
     94.7700	  912.00	  906.80	-1825.99	  385.42
     94.8700	  955.00	  918.20	-1794.38	  385.20
     94.9700	  906.00	  929.88	-1855.07	  384.98
     95.0700	  920.00	  941.01	-1852.20	  384.77
     95.1700	 1042.00	  950.38	-1739.56	  384.55
     95.2700	  993.00	  956.48	-1794.66	  384.33
     95.3700	  968.00	  957.80	-1820.99	  384.11
     95.4700	  944.00	  953.17	-1840.35	  383.89
     95.5700	  989.00	  942.08	-1784.26	  383.67
     95.6700	  929.00	  924.89	-1827.07	  383.45
     95.7700	  893.00	  902.72	-1840.90	  383.23
     95.8700	  852.00	  877.22	-1856.41	  383.01
     95.9700	  849.00	  850.28	-1832.46	  382.79
     96.0700	  837.00	  823.77	-1817.96	  382.57
     96.1700	  767.00	  799.51	-1863.69	  382.35
     96.2700	  824.00	  779.12	-1786.31	  382.12
     96.3700	  772.00	  764.09	-1823.27	  381.90
     96.4700	  750.00	  755.67	-1836.86	  381.68
     96.5700	  783.00	  754.97	-1803.15	  381.46
     96.6700	  739.00	  762.85	-1855.03	  381.23
     96.7700	  810.00	  779.97	-1801.16	  381.01
     96.8700	  790.00	  806.77	-1847.96	  380.79
     96.9700	  860.00	  843.42	-1814.60	  380.56
     97.0700	  917.00	  889.77	-1803.95	  380.34
     97.1700	  941.00	  945.32	-1835.51	  380.12
     97.2700	 1060.00	 1009.14	-1780.32	  379.89
     97.3700	 1101.00	 1079.79	-1809.97	  379.67
     97.4700	 1188.00	 1155.28	-1798.46	  379.44
     97.5700	 1248.00	 1233.07	-1816.25	  379.22
     97.6700	 1222.00	 1310.00	-1919.18	  378.99
     97.7700	 1402.00	 1382.32	-1811.51	  378.77
     97.8700	 1385.00	 1445.87	-1892.06	  378.54
     97.9700	 1454.00	 1496.36	-1873.55	  378.32
     98.0700	 1456.00	 1529.99	-1905.17	  378.10
     98.1700	 1462.00	 1544.11	-1913.29	  377.87
     98.2700	 1478.00	 1537.88	-1891.07	  377.65
     98.3700	 1467.00	 1512.42	-1876.60	  377.42
     98.4700	 1427.00	 1470.47	-1874.66	  377.20
     98.5700	 1472.00	 1415.78	-1774.97	  376.97
     98.6700	 1357.00	 1352.45	-1826.64	  376.75
     98.7700	 1285.00	 1284.53	-1830.72	  376.52
     98.8700	 1250.00	 1215.72	-1796.90	  376.30
     98.9700	 1109.00	 1149.28	-1871.47	  376.07
     99.0700	 1097.00	 1088.00	-1822.19	  375.85
     99.1700	 1002.00	 1034.19	-1863.37	  375.62
     99.2700	 1013.00	  989.76	-1807.94	  375.40
     99.3700	  947.00	  956.23	-1840.41	  375.18
     99.4700	  910.00	  934.77	-1855.96	  374.95
     99.5700	  928.00	  926.21	-1829.40	  374.73
     99.6700	  942.00	  931.08	-1820.26	  374.51
     99.7700	  963.00	  949.63	-1817.82	  374.28
     99.8700	  985.00	  981.83	-1828.01	  374.06
     99.9700	 1031.00	 1027.34	-1827.53	  373.84
    100.0700	 1133.00	 1085.52	-1783.70	  373.62
    100.1700	 1161.00	 1155.37	-1825.55	  373.40
    100.2700	 1262.00	 1235.50	-1804.69	  373.18
    100.3700	 1376.00	 1324.07	-1779.26	  372.95
    100.4700	 1456.00	 1418.72	-1793.91	  372.73
    100.5700	 1572.00	 1516.55	-1775.74	  372.51
    100.6700	 1607.00	 1614.14	-1838.32	  372.29
    100.7700	 1713.00	 1707.94	-1826.12	  372.08
    100.8700	 1872.00	 1794.19	-1753.38	  371.86
    100.9700	 1921.00	 1869.59	-1779.77	  371.64
    101.0700	 1926.00	 1931.53	-1836.72	  371.42
    101.1700	 1929.00	 1978.29	-1880.48	  371.20
    101.2700	 2022.00	 2008.86	-1818.04	  370.99
    101.3700	 1939.00	 2022.65	-1914.83	  370.77
    101.4700	 2098.00	 2019.34	-1752.53	  370.55
    101.5700	 1959.00	 1998.99	-1871.18	  370.34
    101.6700	 1969.00	 1962.30	-1824.48	  370.13
    101.7700	 1908.00	 1910.96	-1834.15	  369.91
    101.8700	 1946.00	 1847.78	-1732.97	  369.70
    101.9700	 1725.00	 1776.39	-1882.58	  369.49
    102.0700	 1741.00	 1700.79	-1790.98	  369.27
    102.1700	 1681.00	 1624.84	-1775.02	  369.06
    102.2700	 1559.00	 1551.79	-1823.97	  368.85
    102.3700	 1555.00	 1484.18	-1760.36	  368.64
    102.4700	 1441.00	 1423.70	-1813.88	  368.44
    102.5700	 1382.00	 1371.24	-1820.43	  368.23
    102.6700	 1382.00	 1326.92	-1776.10	  368.02
    102.7700	 1330.00	 1290.14	-1791.33	  367.82
    102.8700	 1281.00	 1259.74	-1809.92	  367.61
    102.9700	 1151.00	 1234.02	-1914.21	  367.41
    103.0700	 1221.00	 1210.99	-1821.18	  367.20
    103.1700	 1216.00	 1188.51	-1803.70	  367.00
    103.2700	 1121.00	 1164.61	-1874.80	  366.80
    103.3700	 1120.00	 1137.79	-1848.97	  366.60
    103.4700	 1085.00	 1107.19	-1853.38	  366.40
    103.5700	 1034.00	 1072.71	-1869.89	  366.20
    103.6700	 1038.00	 1034.82	-1828.00	  366.00
    103.7700	  966.00	  994.39	-1859.58	  365.81
    103.8700	  993.00	  952.49	-1790.68	  365.61
    103.9700	  911.00	  910.19	-1830.38	  365.42
    104.0700	  960.00	  868.49	-1739.67	  365.23
    104.1700	  903.00	  828.26	-1756.44	  365.03
    104.2700	  834.00	  790.22	-1787.40	  364.84
    104.3700	  732.00	  754.92	-1854.11	  364.65
    104.4700	  722.00	  722.77	-1831.96	  364.47
    104.5700	  740.00	  693.99	-1785.18	  364.28
    104.6700	  706.00	  668.68	-1793.86	  364.10
    104.7700	  697.00	  646.78	-1780.97	  363.91
    104.8700	  666.00	  628.16	-1793.35	  363.73
    104.9700	  619.00	  612.59	-1824.78	  363.55
    105.0700	  629.00	  599.78	-1801.97	  363.37
    105.1700	  667.00	  589.44	-1753.63	  363.19
    105.2700	  639.00	  581.26	-1773.45	  363.01
    105.3700	  593.00	  574.96	-1813.14	  362.84
    105.4700	  611.00	  570.27	-1790.45	  362.66
    105.5700	  575.00	  566.97	-1823.16	  362.49
    105.6700	  549.00	  564.86	-1847.04	  362.32
    105.7700	  556.00	  563.88	-1839.06	  362.15
    105.8700	  541.00	  563.90	-1854.08	  361.98
    105.9700	  577.00	  564.88	-1819.06	  361.82
    106.0700	  541.00	  566.80	-1856.99	  361.65
    106.1700	  586.00	  569.69	-1814.87	  361.49
    106.2700	  552.00	  573.57	-1852.75	  361.33
    106.3700	  585.00	  578.48	-1824.66	  361.17
    106.4700	  578.00	  584.52	-1837.71	  361.01
    106.5700	  578.00	  591.73	-1844.92	  360.86
    106.6700	  624.00	  600.14	-1807.33	  360.71
    106.7700	  596.00	  609.74	-1844.93	  360.55
    106.8700	  603.00	  620.50	-1848.69	  360.40
    106.9700	  623.00	  632.33	-1840.51	  360.26
    107.0700	  643.00	  645.06	-1833.25	  360.11
    107.1700	  640.00	  658.50	-1849.69	  359.97
    107.2700	  667.00	  672.37	-1836.56	  359.82
    107.3700	  660.00	  686.34	-1857.53	  359.68
    107.4700	  716.00	  700.03	-1815.21	  359.55
    107.5700	  706.00	  712.98	-1838.17	  359.41
    107.6700	  729.00	  724.76	-1826.95	  359.28
    107.7700	  730.00	  734.92	-1836.11	  359.15
    107.8700	  728.00	  743.09	-1846.28	  359.02
    107.9700	  776.00	  749.02	-1804.21	  358.89
    108.0700	  688.00	  752.65	-1895.84	  358.77
    108.1700	  748.00	  754.16	-1837.34	  358.64
    108.2700	  770.00	  753.84	-1815.03	  358.52
    108.3700	  725.00	  752.14	-1858.33	  358.40
    108.4700	  721.00	  749.56	-1859.75	  358.29
    108.5700	  684.00	  746.58	-1893.76	  358.18
    108.6700	  706.00	  743.62	-1868.81	  358.07
    108.7700	  721.00	  741.03	-1851.22	  357.96
    108.8700	  705.00	  739.04	-1865.22	  357.85
    108.9700	  707.00	  737.75	-1861.94	  357.75
    109.0700	  736.00	  737.18	-1832.37	  357.65
    109.1700	  704.00	  737.21	-1864.40	  357.55
    109.2700	  715.00	  737.61	-1853.79	  357.46
    109.3700	  763.00	  738.06	-1806.25	  357.36
    109.4700	  707.00	  738.19	-1862.37	  357.27
    109.5700	  725.00	  737.56	-1843.74	  357.19
    109.6700	  728.00	  735.78	-1838.97	  357.10
    109.7700	  730.00	  732.54	-1833.72	  357.02
    109.8700	  713.00	  727.64	-1845.82	  356.94
    109.9700	  748.00	  721.04	-1804.23	  356.87
    110.0700	  712.00	  712.86	-1832.04	  356.79
    110.1700	  676.00	  703.32	-1858.50	  356.72
    110.2700	  709.00	  692.73	-1814.92	  356.66
    110.3700	  693.00	  681.43	-1819.61	  356.59
    110.4700	  655.00	  669.74	-1845.92	  356.53
    110.5700	  652.00	  658.00	-1837.18	  356.47
    110.6700	  647.00	  646.48	-1830.67	  356.42
    110.7700	  652.00	  635.44	-1814.62	  356.37
    110.8700	  646.00	  625.06	-1810.24	  356.32
    110.9700	  631.00	  615.50	-1815.69	  356.27
    111.0700	  658.00	  606.90	-1780.08	  356.23
    111.1700	  598.00	  599.32	-1832.50	  356.19
    111.2700	  605.00	  592.80	-1818.99	  356.16
    111.3700	  607.00	  587.35	-1811.54	  356.12
    111.4700	  586.00	  582.96	-1828.14	  356.09
    111.5700	  577.00	  579.56	-1833.75	  356.07
    111.6700	  567.00	  577.10	-1841.29	  356.05
    111.7700	  555.00	  575.50	-1851.69	  356.03
    111.8700	  558.00	  574.66	-1847.85	  356.01
    111.9700	  603.00	  574.50	-1802.69	  356.00
    112.0700	  568.00	  574.92	-1838.11	  355.99
    112.1700	  584.00	  575.84	-1823.02	  355.99
    112.2700	  572.00	  577.16	-1836.34	  355.99
    112.3700	  563.00	  578.80	-1846.99	  355.99
    112.4700	  577.00	  580.71	-1834.90	  356.00
    112.5700	  551.00	  582.82	-1863.01	  356.01
    112.6700	  600.00	  585.10	-1816.29	  356.03
    112.7700	  543.00	  587.53	-1875.72	  356.05
    112.8700	  575.00	  590.10	-1846.28	  356.07
    112.9700	  572.00	  592.82	-1852.00	  356.09
    113.0700	  566.00	  595.72	-1860.91	  356.12
    113.1700	  613.00	  598.86	-1817.05	  356.16
    113.2700	  583.00	  602.29	-1850.47	  356.20
    113.3700	  567.00	  606.08	-1870.26	  356.24
    113.4700	  632.00	  610.31	-1809.50	  356.29
    113.5700	  602.00	  615.11	-1844.29	  356.34
    113.6700	  594.00	  620.59	-1857.78	  356.39
    113.7700	  578.00	  626.94	-1880.12	  356.45
    113.8700	  617.00	  634.35	-1848.53	  356.52
    113.9700	  642.00	  643.09	-1832.28	  356.58
    114.0700	  613.00	  653.49	-1871.68	  356.66
    114.1700	  652.00	  665.99	-1845.18	  356.73
    114.2700	  651.00	  681.11	-1861.30	  356.82
    114.3700	  689.00	  699.52	-1841.70	  356.90
    114.4700	  733.00	  722.01	-1820.20	  356.99
    114.5700	  779.00	  749.57	-1801.76	  357.09
    114.6700	  806.00	  783.37	-1808.56	  357.19
    114.7700	  828.00	  824.79	-1827.98	  357.29
    114.8700	  834.00	  875.43	-1872.61	  357.40
    114.9700	  962.00	  937.08	-1806.26	  357.51
    115.0700	  994.00	 1011.73	-1848.92	  357.63
    115.1700	 1160.00	 1101.57	-1772.75	  357.76
    115.2700	 1226.00	 1208.89	-1814.08	  357.88
    115.3700	 1340.00	 1336.04	-1827.22	  358.02
    115.4700	 1543.00	 1485.30	-1773.49	  358.16
    115.5700	 1766.00	 1658.82	-1724.00	  358.30
    115.6700	 1992.00	 1858.47	-1697.66	  358.45
    115.7700	 2181.00	 2085.77	-1735.95	  358.60
    115.8700	 2364.00	 2341.56	-1808.75	  358.76
    115.9700	 2745.00	 2626.02	-1712.20	  358.92
    116.0700	 3095.00	 2938.39	-1674.58	  359.09
    116.1700	 3455.00	 3277.04	-1653.22	  359.27
    116.2700	 3781.00	 3639.23	-1689.41	  359.45
    116.3700	 4041.00	 4020.96	-1811.15	  359.63
    116.4700	 4409.00	 4417.06	-1839.25	  359.82
    116.5700	 4729.00	 4821.15	-1923.34	  360.02
    116.6700	 5263.00	 5225.72	-1793.90	  360.22
    116.7700	 5457.00	 5622.18	-1996.36	  360.43
    116.8700	 5849.00	 6000.86	-1983.04	  360.64
    116.9700	 6378.00	 6351.40	-1804.59	  360.86
    117.0700	 6580.00	 6663.00	-1914.18	  361.08
    117.1700	 6870.00	 6925.06	-1886.25	  361.31
    117.2700	 6939.00	 7127.76	-2019.95	  361.55
    117.3700	 7152.00	 7262.88	-1942.07	  361.79
    117.4700	 7174.00	 7324.74	-1981.93	  362.04
    117.5700	 7131.00	 7310.90	-2011.09	  362.29
    117.6700	 7189.00	 7222.45	-1864.63	  362.55
    117.7700	 6923.00	 7063.79	-1971.97	  362.81
    117.8700	 6729.00	 6842.18	-1944.37	  363.09
    117.9700	 6617.00	 6566.84	-1781.03	  363.36
    118.0700	 6155.00	 6248.13	-1924.31	  363.65
    118.1700	 5756.00	 5896.64	-1971.82	  363.94
    118.2700	 5357.00	 5522.69	-1996.87	  364.23
    118.3700	 4993.00	 5136.07	-1974.25	  364.54
    118.4700	 4715.00	 4745.59	-1861.78	  364.84
    118.5700	 4490.00	 4359.07	-1700.26	  365.16
    118.6700	 4056.00	 3983.01	-1758.19	  365.48
    118.7700	 3810.00	 3622.75	-1643.94	  365.81
    118.8700	 3450.00	 3282.54	-1663.73	  366.14
    118.9700	 3103.00	 2965.42	-1693.61	  366.49
    119.0700	 2798.00	 2673.41	-1706.59	  366.83
    119.1700	 2470.00	 2407.48	-1768.66	  367.19
    119.2700	 2189.00	 2167.79	-1809.98	  367.55
    119.3700	 2046.00	 1953.92	-1739.11	  367.92
    119.4700	 1889.00	 1764.82	-1707.01	  368.29
    119.5700	 1657.00	 1599.05	-1773.24	  368.68
    119.6700	 1523.00	 1454.83	-1763.01	  369.06
    119.7700	 1427.00	 1330.19	-1734.37	  369.46
    119.8700	 1325.00	 1223.13	-1729.31	  369.86
    119.9700	 1202.00	 1131.62	-1760.81	  370.27
    120.0700	 1177.00	 1053.72	-1707.91	  370.69
    120.1700	 1032.00	  987.58	-1786.77	  371.12
    120.2700	 1073.00	  931.52	-1689.70	  371.55
    120.3700	  921.00	  884.04	-1794.23	  371.99
    120.4700	  842.00	  843.84	-1833.03	  372.43
    120.5700	  802.00	  809.79	-1838.98	  372.89
    120.6700	  859.00	  780.92	-1753.10	  373.35
    120.7700	  787.00	  756.42	-1800.60	  373.82
    120.8700	  744.00	  735.62	-1822.80	  374.30
    120.9700	  700.00	  717.97	-1849.16	  374.78
    121.0700	  681.00	  703.03	-1853.22	  375.27
    121.1700	  677.00	  690.43	-1844.61	  375.77
    121.2700	  683.00	  679.86	-1828.05	  376.28
    121.3700	  673.00	  671.09	-1829.27	  376.80
    121.4700	  609.00	  663.91	-1886.09	  377.32
    121.5700	  618.00	  658.16	-1871.35	  377.85
    121.6700	  645.00	  653.72	-1839.90	  378.39
    121.7700	  626.00	  650.46	-1855.65	  378.94
    121.8700	  643.00	  648.29	-1836.48	  379.50
    121.9700	  648.00	  647.13	-1830.32	  380.06
    122.0700	  595.00	  646.91	-1883.09	  380.63
    122.1700	  643.00	  647.54	-1835.73	  381.21
    122.2700	  669.00	  648.97	-1811.16	  381.80
    122.3700	  639.00	  651.13	-1843.32	  382.40
    122.4700	  680.00	  653.95	-1805.14	  383.01
    122.5700	  659.00	  657.35	-1829.54	  383.62
    122.6700	  647.00	  661.26	-1845.45	  384.24
    122.7700	  651.00	  665.60	-1845.78	  384.88
    122.8700	  651.00	  670.27	-1850.45	  385.52
    122.9700	  662.00	  675.17	-1844.36	  386.17
    123.0700	  680.00	  680.22	-1831.40	  386.83
    123.1700	  663.00	  685.29	-1853.47	  387.49
    123.2700	  637.00	  690.27	-1884.46	  388.17
    123.3700	  696.00	  695.06	-1830.25	  388.85
    123.4700	  730.00	  699.53	-1800.72	  389.55
    123.5700	  686.00	  703.59	-1848.78	  390.25
    123.6700	  725.00	  707.15	-1813.33	  390.96
    123.7700	  728.00	  710.13	-1813.31	  391.69
    123.8700	  725.00	  712.49	-1818.68	  392.42
    123.9700	  725.00	  714.23	-1820.41	  393.16
    124.0700	  745.00	  715.34	-1801.53	  393.91
    124.1700	  697.00	  715.87	-1850.06	  394.67
    124.2700	  714.00	  715.87	-1833.06	  395.44
    124.3700	  698.00	  715.41	-1848.60	  396.22
    124.4700	  689.00	  714.52	-1856.71	  397.00
    124.5700	  688.00	  713.34	-1856.53	  397.80
    124.6700	  696.00	  711.90	-1847.09	  398.61
    124.7700	  656.00	  710.27	-1885.46	  399.43
    124.8700	  684.00	  708.50	-1855.68	  400.26
    124.9700	  670.00	  519.76	-1680.94	  401.10
    125.0700	  643.00	  520.61	-1831.19	  401.94
    125.1700	  726.00	  521.46	-1831.19	  402.80
    125.2700	  667.00	  522.33	-1831.19	  403.67
    125.3700	  681.00	  523.21	-1831.19	  404.55
    125.4700	  650.00	  524.10	-1831.19	  405.44
    125.5700	  678.00	  525.00	-1831.19	  406.34
    125.6700	  686.00	  525.91	-1831.19	  407.25
    125.7700	  632.00	  526.83	-1831.19	  408.17
    125.8700	  624.00	  527.76	-1831.19	  409.10
    125.9700	  673.00	  528.70	-1831.19	  410.04
    126.0700	  608.00	  529.65	-1831.19	  410.99
    126.1700	  630.00	  530.62	-1831.19	  411.95
    126.2700	  590.00	  531.59	-1831.19	  412.93
    126.3700	  624.00	  532.58	-1831.19	  413.91
    126.4700	  632.00	  533.57	-1831.19	  414.91
    126.5700	  652.00	  534.58	-1831.19	  415.91
    126.6700	  597.00	  535.60	-1831.19	  416.93
    126.7700	  599.00	  536.63	-1831.19	  417.96
    126.8700	  617.00	  537.67	-1831.19	  419.00
    126.9700	  630.00	  538.72	-1831.19	  420.05
    127.0700	  565.00	  539.78	-1831.19	  421.12
    127.1700	  600.00	  540.85	-1831.19	  422.19
    127.2700	  579.00	  541.94	-1831.19	  423.28
    127.3700	  580.00	  543.04	-1831.19	  424.37
    127.4700	  608.00	  544.15	-1831.19	  425.48
    127.5700	  589.00	  545.27	-1831.19	  426.60
    127.6700	  598.00	  546.40	-1831.19	  427.74
    127.7700	  592.00	  547.54	-1831.19	  428.88
    127.8700	  614.00	  548.70	-1831.19	  430.04
    127.9700	  623.00	  549.87	-1831.19	  431.21
    128.0700	  593.00	  551.05	-1831.19	  432.39
    128.1700	  617.00	  552.24	-1831.19	  433.58
    128.2700	  635.00	  553.45	-1831.19	  434.78
    128.3700	  627.00	  554.66	-1831.19	  436.00
    128.4700	  640.00	  555.89	-1831.19	  437.23
    128.5700	    0.00	  557.14	-1831.19	  438.47
    128.6700	    0.00	  558.39	-1831.19	  439.73
     12.3887	        	        	        	        	       0	(  0  0  2)	  0  1
     12.3887	        	        	        	        	    -457	(  0  0  2)	  0  1
     25.0323	        	        	        	        	       0	(  0  0  4)	  0  1
     25.0323	        	        	        	        	    -457	(  0  0  4)	  0  1
     28.4815	        	        	        	        	       0	(  1  0  0)	  0  1
     28.4815	        	        	        	        	    -457	(  1  0  0)	  0  1
     29.1824	        	        	        	        	       0	(  1  0  1)	  0  1
     29.1824	        	        	        	        	    -457	(  1  0  1)	  0  1
     31.1992	        	        	        	        	       0	(  1  0  2)	  0  1
     31.1992	        	        	        	        	    -457	(  1  0  2)	  0  1
     34.3240	        	        	        	        	       0	(  1  0  3)	  0  1
     34.3240	        	        	        	        	    -457	(  1  0  3)	  0  1
     37.9966	        	        	        	        	       0	(  0  0  6)	  0  1
     37.9966	        	        	        	        	    -457	(  0  0  6)	  0  1
     38.3224	        	        	        	        	       0	(  1  0  4)	  0  1
     38.3224	        	        	        	        	    -457	(  1  0  4)	  0  1
     42.9978	        	        	        	        	       0	(  1  0  5)	  0  1
     42.9978	        	        	        	        	    -457	(  1  0  5)	  0  1
     48.2108	        	        	        	        	       0	(  1  0  6)	  0  1
     48.2108	        	        	        	        	    -457	(  1  0  6)	  0  1
     50.5264	        	        	        	        	       0	(  1  1  0)	  0  1
     50.5264	        	        	        	        	    -457	(  1  1  0)	  0  1
     51.4914	        	        	        	        	       0	(  0  0  8)	  0  1
     51.4914	        	        	        	        	    -457	(  0  0  8)	  0  1
     52.2597	        	        	        	        	       0	(  1  1  2)	  0  1
     52.2597	        	        	        	        	    -457	(  1  1  2)	  0  1
     53.8739	        	        	        	        	       0	(  1  0  7)	  0  1
     53.8739	        	        	        	        	    -457	(  1  0  7)	  0  1
     57.2379	        	        	        	        	       0	(  1  1  4)	  0  1
     57.2379	        	        	        	        	    -457	(  1  1  4)	  0  1
     59.0702	        	        	        	        	       0	(  2  0  0)	  0  1
     59.0702	        	        	        	        	    -457	(  2  0  0)	  0  1
     59.4643	        	        	        	        	       0	(  2  0  1)	  0  1
     59.4643	        	        	        	        	    -457	(  2  0  1)	  0  1
     59.9409	        	        	        	        	       0	(  1  0  8)	  0  1
     59.9409	        	        	        	        	    -457	(  1  0  8)	  0  1
     60.6372	        	        	        	        	       0	(  2  0  2)	  0  1
     60.6372	        	        	        	        	    -457	(  2  0  2)	  0  1
     62.5629	        	        	        	        	       0	(  2  0  3)	  0  1
     62.5629	        	        	        	        	    -457	(  2  0  3)	  0  1
     64.9821	        	        	        	        	       0	(  1  1  6)	  0  1
     64.9821	        	        	        	        	    -457	(  1  1  6)	  0  1
     65.2044	        	        	        	        	       0	(  2  0  4)	  0  1
     65.2044	        	        	        	        	    -457	(  2  0  4)	  0  1
     65.8075	        	        	        	        	       0	(  0  0 10)	  0  1
     65.8075	        	        	        	        	    -457	(  0  0 10)	  0  1
     66.3986	        	        	        	        	       0	(  1  0  9)	  0  1
     66.3986	        	        	        	        	    -457	(  1  0  9)	  0  1
     68.5211	        	        	        	        	       0	(  2  0  5)	  0  1
     68.5211	        	        	        	        	    -457	(  2  0  5)	  0  1
     72.4765	        	        	        	        	       0	(  2  0  6)	  0  1
     72.4765	        	        	        	        	    -457	(  2  0  6)	  0  1
     73.2620	        	        	        	        	       0	(  1  0 10)	  0  1
     73.2620	        	        	        	        	    -457	(  1  0 10)	  0  1
     75.0904	        	        	        	        	       0	(  1  1  8)	  0  1
     75.0904	        	        	        	        	    -457	(  1  1  8)	  0  1
     77.0444	        	        	        	        	       0	(  2  0  7)	  0  1
     77.0444	        	        	        	        	    -457	(  2  0  7)	  0  1
     80.5748	        	        	        	        	       0	(  1  0 11)	  0  1
     80.5748	        	        	        	        	    -457	(  1  0 11)	  0  1
     81.4002	        	        	        	        	       0	(  0  0 12)	  0  1
     81.4002	        	        	        	        	    -457	(  0  0 12)	  0  1
     81.4569	        	        	        	        	       0	(  2  1  0)	  0  1
     81.4569	        	        	        	        	    -457	(  2  1  0)	  0  1
     81.7995	        	        	        	        	       0	(  2  1  1)	  0  1
     81.7995	        	        	        	        	    -457	(  2  1  1)	  0  1
     82.2155	        	        	        	        	       0	(  2  0  8)	  0  1
     82.2155	        	        	        	        	    -457	(  2  0  8)	  0  1
     82.8258	        	        	        	        	       0	(  2  1  2)	  0  1
     82.8258	        	        	        	        	    -457	(  2  1  2)	  0  1
     84.5314	        	        	        	        	       0	(  2  1  3)	  0  1
     84.5314	        	        	        	        	    -457	(  2  1  3)	  0  1
     86.9116	        	        	        	        	       0	(  2  1  4)	  0  1
     86.9116	        	        	        	        	    -457	(  2  1  4)	  0  1
     87.4615	        	        	        	        	       0	(  1  1 10)	  0  1
     87.4615	        	        	        	        	    -457	(  1  1 10)	  0  1
     88.0028	        	        	        	        	       0	(  2  0  9)	  0  1
     88.0028	        	        	        	        	    -457	(  2  0  9)	  0  1
     88.4150	        	        	        	        	       0	(  1  0 12)	  0  1
     88.4150	        	        	        	        	    -457	(  1  0 12)	  0  1
     89.9648	        	        	        	        	       0	(  2  1  5)	  0  1
     89.9648	        	        	        	        	    -457	(  2  1  5)	  0  1
     93.6977	        	        	        	        	       0	(  2  1  6)	  0  1
     93.6977	        	        	        	        	    -457	(  2  1  6)	  0  1
     94.4508	        	        	        	        	       0	(  2  0 10)	  0  1
     94.4508	        	        	        	        	    -457	(  2  0 10)	  0  1
     95.4636	        	        	        	        	       0	(  3  0  0)	  0  1
     95.4636	        	        	        	        	    -457	(  3  0  0)	  0  1
     95.8045	        	        	        	        	       0	(  3  0  1)	  0  1
     95.8045	        	        	        	        	    -457	(  3  0  1)	  0  1
     96.8282	        	        	        	        	       0	(  3  0  2)	  0  1
     96.8282	        	        	        	        	    -457	(  3  0  2)	  0  1
     96.9101	        	        	        	        	       0	(  1  0 13)	  0  1
     96.9101	        	        	        	        	    -457	(  1  0 13)	  0  1
     98.1316	        	        	        	        	       0	(  2  1  7)	  0  1
     98.1316	        	        	        	        	    -457	(  2  1  7)	  0  1
     98.5395	        	        	        	        	       0	(  3  0  3)	  0  1
     98.5395	        	        	        	        	    -457	(  3  0  3)	  0  1
     99.1041	        	        	        	        	       0	(  0  0 14)	  0  1
     99.1041	        	        	        	        	    -457	(  0  0 14)	  0  1
    100.9489	        	        	        	        	       0	(  3  0  4)	  0  1
    100.9489	        	        	        	        	    -457	(  3  0  4)	  0  1
    101.6494	        	        	        	        	       0	(  2  0 11)	  0  1
    101.6494	        	        	        	        	    -457	(  2  0 11)	  0  1
    102.4837	        	        	        	        	       0	(  1  1 12)	  0  1
    102.4837	        	        	        	        	    -457	(  1  1 12)	  0  1
    103.3120	        	        	        	        	       0	(  2  1  8)	  0  1
    103.3120	        	        	        	        	    -457	(  2  1  8)	  0  1
    104.0767	        	        	        	        	       0	(  3  0  5)	  0  1
    104.0767	        	        	        	        	    -457	(  3  0  5)	  0  1
    106.2703	        	        	        	        	       0	(  1  0 14)	  0  1
    106.2703	        	        	        	        	    -457	(  1  0 14)	  0  1
    107.9602	        	        	        	        	       0	(  3  0  6)	  0  1
    107.9602	        	        	        	        	    -457	(  3  0  6)	  0  1
    109.3246	        	        	        	        	       0	(  2  1  9)	  0  1
    109.3246	        	        	        	        	    -457	(  2  1  9)	  0  1
    109.7620	        	        	        	        	       0	(  2  0 12)	  0  1
    109.7620	        	        	        	        	    -457	(  2  0 12)	  0  1
    112.6653	        	        	        	        	       0	(  3  0  7)	  0  1
    112.6653	        	        	        	        	    -457	(  3  0  7)	  0  1
    116.3245	        	        	        	        	       0	(  2  1 10)	  0  1
    116.3245	        	        	        	        	    -457	(  2  1 10)	  0  1
    116.8672	        	        	        	        	       0	(  1  0 15)	  0  1
    116.8672	        	        	        	        	    -457	(  1  0 15)	  0  1
    117.4567	        	        	        	        	       0	(  2  2  0)	  0  1
    117.4567	        	        	        	        	    -457	(  2  2  0)	  0  1
    118.3073	        	        	        	        	       0	(  3  0  8)	  0  1
    118.3073	        	        	        	        	    -457	(  3  0  8)	  0  1
    118.9977	        	        	        	        	       0	(  2  2  2)	  0  1
    118.9977	        	        	        	        	    -457	(  2  2  2)	  0  1
    119.0909	        	        	        	        	       0	(  2  0 13)	  0  1
    119.0909	        	        	        	        	    -457	(  2  0 13)	  0  1
    120.9017	        	        	        	        	       0	(  0  0 16)	  0  1
    120.9017	        	        	        	        	    -457	(  0  0 16)	  0  1
    121.6106	        	        	        	        	       0	(  1  1 14)	  0  1
    121.6106	        	        	        	        	    -457	(  1  1 14)	  0  1
    123.7710	        	        	        	        	       0	(  2  2  4)	  0  1
    123.7710	        	        	        	        	    -457	(  2  2  4)	  0  1
    124.6021	        	        	        	        	       0	(  2  1 11)	  0  1
    124.6021	        	        	        	        	    -457	(  2  1 11)	  0  1
    125.0944	        	        	        	        	       0	(  3  0  9)	  0  1
    125.0944	        	        	        	        	    -457	(  3  0  9)	  0  1
    125.6691	        	        	        	        	       0	(  3  1  0)	  0  1
    125.6691	        	        	        	        	    -457	(  3  1  0)	  0  1
    126.0882	        	        	        	        	       0	(  3  1  1)	  0  1
    126.0882	        	        	        	        	    -457	(  3  1  1)	  0  1
    127.3591	        	        	        	        	       0	(  3  1  2)	  0  1
    127.3591	        	        	        	        	    -457	(  3  1  2)	  0  1
    129.4654	        	        	        	        	       0	(  1  0 16)	  0  1
    129.4654	        	        	        	        	    -457	(  1  0 16)	  0  1
    129.5271	        	        	        	        	       0	(  3  1  3)	  0  1
    129.5271	        	        	        	        	    -457	(  3  1  3)	  0  1
    130.2552	        	        	        	        	       0	(  2  0 14)	  0  1
    130.2552	        	        	        	        	    -457	(  2  0 14)	  0  1
    132.4084	        	        	        	        	       0	(  2  2  6)	  0  1
    132.4084	        	        	        	        	    -457	(  2  2  6)	  0  1
    132.6827	        	        	        	        	       0	(  3  1  4)	  0  1
    132.6827	        	        	        	        	    -457	(  3  1  4)	  0  1
    133.4358	        	        	        	        	       0	(  3  0 10)	  0  1
    133.4358	        	        	        	        	    -457	(  3  0 10)	  0  1
    134.7650	        	        	        	        	       0	(  2  1 12)	  0  1
    134.7650	        	        	        	        	    -457	(  2  1 12)	  0  1
    136.9954	        	        	        	        	       0	(  3  1  5)	  0  1
    136.9954	        	        	        	        	    -457	(  3  1  5)	  0  1
    142.8011	        	        	        	        	       0	(  3  1  6)	  0  1
    142.8011	        	        	        	        	    -457	(  3  1  6)	  0  1
    144.3001	        	        	        	        	       0	(  3  0 11)	  0  1
    144.3001	        	        	        	        	    -457	(  3  0 11)	  0  1
    144.9016	        	        	        	        	       0	(  2  0 15)	  0  1
    144.9016	        	        	        	        	    -457	(  2  0 15)	  0  1
    146.2335	        	        	        	        	       0	(  1  0 17)	  0  1
    146.2335	        	        	        	        	    -457	(  1  0 17)	  0  1
    147.1908	        	        	        	        	       0	(  2  2  8)	  0  1
    147.1908	        	        	        	        	    -457	(  2  2  8)	  0  1
    148.4845	        	        	        	        	       0	(  2  1 13)	  0  1
    148.4845	        	        	        	        	    -457	(  2  1 13)	  0  1
    150.8907	        	        	        	        	       0	(  3  1  7)	  0  1
    150.8907	        	        	        	        	    -457	(  3  1  7)	  0  1
    151.6336	        	        	        	        	       0	(  1  1 16)	  0  1
    151.6336	        	        	        	        	    -457	(  1  1 16)	  0  1
    156.4693	        	        	        	        	       0	(  0  0 18)	  0  1
    156.4693	        	        	        	        	    -457	(  0  0 18)	  0  1
    161.5663	        	        	        	        	       0	(  3  0 12)	  0  1
    161.5663	        	        	        	        	    -457	(  3  0 12)	  0  1
    161.7452	        	        	        	        	       0	(  4  0  0)	  0  1
    161.7452	        	        	        	        	    -457	(  4  0  0)	  0  1
    162.8673	        	        	        	        	       0	(  4  0  1)	  0  1
    162.8673	        	        	        	        	    -457	(  4  0  1)	  0  1
    164.3356	        	        	        	        	       0	(  3  1  8)	  0  1
    164.3356	        	        	        	        	    -457	(  3  1  8)	  0  1
    166.7799	        	        	        	        	       0	(  4  0  2)	  0  1
    166.7799	        	        	        	        	    -457	(  4  0  2)	  0  1
