MSG Master    CELL:    5.87604   5.87604  23.07477   90.0000   90.0000  120.0000   SPGR: P 63/m m c             TEMP:    444.15
  2   1280     2.52000     0.00000    -0.08626     0.00000     0.00000    0
    95    95     0     0     2
       0.00000      10.00000
     125.00000     130.00000
 2Theta	Yobs	Ycal	Yobs-Ycal	Backg	Posr	(hkl)	K
      0.7700	    0.00	  989.69	-2326.50	  848.35
      0.8700	    0.00	  986.32	-2326.50	  844.98
      0.9700	   41.00	  982.98	-2326.50	  841.64
      1.0700	   42.00	  979.66	-2326.50	  838.32
      1.1700	   35.00	  976.36	-2326.50	  835.01
      1.2700	   52.00	  973.08	-2326.50	  831.73
      1.3700	   56.00	  969.82	-2326.50	  828.48
      1.4700	  109.00	  966.58	-2326.50	  825.24
      1.5700	  306.00	  963.36	-2326.50	  822.02
      1.6700	  448.00	  960.17	-2326.50	  818.83
      1.7700	  616.00	  956.99	-2326.50	  815.65
      1.8700	  683.00	  953.84	-2326.50	  812.50
      1.9700	  706.00	  950.70	-2326.50	  809.36
      2.0700	  776.00	  947.59	-2326.50	  806.25
      2.1700	  784.00	  944.50	-2326.50	  803.16
      2.2700	  760.00	  941.42	-2326.50	  800.08
      2.3700	  730.00	  938.37	-2326.50	  797.03
      2.4700	  727.00	  935.34	-2326.50	  794.00
      2.5700	  697.00	  932.33	-2326.50	  790.98
      2.6700	  647.00	  929.33	-2326.50	  787.99
      2.7700	  665.00	  926.36	-2326.50	  785.02
      2.8700	  574.00	  923.41	-2326.50	  782.07
      2.9700	  591.00	  920.47	-2326.50	  779.13
      3.0700	  625.00	  917.56	-2326.50	  776.22
      3.1700	  602.00	  914.66	-2326.50	  773.32
      3.2700	  722.00	  911.79	-2326.50	  770.45
      3.3700	  842.00	  908.93	-2326.50	  767.59
      3.4700	 1136.00	  906.10	-2326.50	  764.76
      3.5700	 1160.00	  903.28	-2326.50	  761.94
      3.6700	 1439.00	  900.48	-2326.50	  759.14
      3.7700	 1432.00	  897.70	-2326.50	  756.36
      3.8700	 1506.00	  894.94	-2326.50	  753.60
      3.9700	 1567.00	  892.20	-2326.50	  750.86
      4.0700	 1610.00	  889.48	-2326.50	  748.14
      4.1700	 1809.00	  886.77	-2326.50	  745.43
      4.2700	 1720.00	  884.09	-2326.50	  742.75
      4.3700	 1675.00	  881.42	-2326.50	  740.08
      4.4700	 1544.00	  878.77	-2326.50	  737.43
      4.5700	 1546.00	  876.14	-2326.50	  734.80
      4.6700	 1521.00	  873.53	-2326.50	  732.19
      4.7700	 1504.00	  870.93	-2326.50	  729.59
      4.8700	 1377.00	  868.36	-2326.50	  727.02
      4.9700	 1446.00	  865.80	-2326.50	  724.46
      5.0700	 1276.00	  863.26	-2326.50	  721.92
      5.1700	 1363.00	  860.74	-2326.50	  719.40
      5.2700	 1249.00	  858.23	-2326.50	  716.89
      5.3700	 1295.00	  855.75	-2326.50	  714.41
      5.4700	 1218.00	  853.28	-2326.50	  711.94
      5.5700	 1169.00	  850.83	-2326.50	  709.48
      5.6700	 1174.00	  848.39	-2326.50	  707.05
      5.7700	 1166.00	  845.97	-2326.50	  704.63
      5.8700	 1123.00	  843.58	-2326.50	  702.23
      5.9700	 1169.00	  841.19	-2326.50	  699.85
      6.0700	 1118.00	  838.83	-2326.50	  697.49
      6.1700	 1102.00	  836.48	-2326.50	  695.14
      6.2700	 1135.00	  834.15	-2326.50	  692.81
      6.3700	 1024.00	  831.83	-2326.50	  690.49
      6.4700	 1012.00	  829.54	-2326.50	  688.19
      6.5700	 1039.00	  827.25	-2326.50	  685.91
      6.6700	 1019.00	  824.99	-2326.50	  683.65
      6.7700	  972.00	  822.74	-2326.50	  681.40
      6.8700	  979.00	  820.51	-2326.50	  679.17
      6.9700	  922.00	  818.30	-2326.50	  676.96
      7.0700	  885.00	  816.10	-2326.50	  674.76
      7.1700	  946.00	  813.92	-2326.50	  672.57
      7.2700	  934.00	  811.75	-2326.50	  670.41
      7.3700	  851.00	  809.60	-2326.50	  668.26
      7.4700	  874.00	  807.47	-2326.50	  666.12
      7.5700	  897.00	  805.35	-2326.50	  664.01
      7.6700	  890.00	  803.25	-2326.50	  661.90
      7.7700	  825.00	  801.16	-2326.50	  659.82
      7.8700	  846.00	  799.09	-2326.50	  657.75
      7.9700	  852.00	  797.03	-2326.50	  655.69
      8.0700	  861.00	  795.00	-2326.50	  653.65
      8.1700	  851.00	  792.97	-2326.50	  651.63
      8.2700	  874.00	  790.96	-2326.50	  649.62
      8.3700	  833.00	  788.97	-2326.50	  647.63
      8.4700	  822.00	  786.99	-2326.50	  645.65
      8.5700	  802.00	  785.03	-2326.50	  643.69
      8.6700	  798.00	  783.08	-2326.50	  641.74
      8.7700	  824.00	  781.15	-2326.50	  639.81
      8.8700	  789.00	  779.23	-2326.50	  637.89
      8.9700	  802.00	  777.33	-2326.50	  635.99
      9.0700	  797.00	  775.44	-2326.50	  634.10
      9.1700	  811.00	  773.57	-2326.50	  632.23
      9.2700	  799.00	  771.71	-2326.50	  630.37
      9.3700	  810.00	  769.87	-2326.50	  628.53
      9.4700	  785.00	  768.04	-2326.50	  626.70
      9.5700	  776.00	  766.23	-2326.50	  624.88
      9.6700	  800.00	  764.43	-2326.50	  623.08
      9.7700	  768.00	  762.64	-2326.50	  621.30
      9.8700	  804.00	  760.87	-2326.50	  619.53
      9.9700	  748.00	  759.11	-2326.50	  617.77
     10.0700	  757.00	  759.44	-2328.94	  616.03
     10.1700	  718.00	  757.93	-2366.43	  614.30
     10.2700	  741.00	  756.49	-2341.99	  612.58
     10.3700	  706.00	  755.11	-2375.61	  610.88
     10.4700	  760.00	  753.83	-2320.33	  609.19
     10.5700	  743.00	  752.69	-2336.19	  607.52
     10.6700	  797.00	  751.72	-2281.22	  605.86
     10.7700	  735.00	  751.03	-2342.53	  604.21
     10.8700	  696.00	  750.69	-2381.19	  602.58
     10.9700	  753.00	  750.80	-2324.30	  600.96
     11.0700	  724.00	  751.42	-2353.92	  599.36
     11.1700	  805.00	  752.57	-2274.07	  597.76
     11.2700	  737.00	  754.27	-2343.77	  596.19
     11.3700	  707.00	  756.56	-2376.06	  594.62
     11.4700	  755.00	  759.52	-2331.02	  593.07
     11.5700	  763.00	  763.30	-2326.80	  591.53
     11.6700	  767.00	  768.09	-2327.59	  590.00
     11.7700	  778.00	  774.18	-2322.68	  588.49
     11.8700	  813.00	  781.85	-2295.35	  586.99
     11.9700	  897.00	  791.21	-2220.71	  585.50
     12.0700	  897.00	  801.80	-2231.30	  584.02
     12.1700	  841.00	  812.16	-2297.66	  582.56
     12.2700	  890.00	  819.21	-2255.71	  581.11
     12.3700	  892.00	  818.37	-2252.87	  579.67
     12.4700	  887.00	  806.40	-2245.90	  578.25
     12.5700	  788.00	  786.61	-2325.11	  576.84
     12.6700	  746.00	  766.32	-2346.82	  575.44
     12.7700	  730.00	  749.78	-2346.28	  574.05
     12.8700	  671.00	  737.76	-2393.26	  572.67
     12.9700	  699.00	  729.45	-2356.95	  571.31
     13.0700	  663.00	  723.72	-2387.22	  569.96
     13.1700	  684.00	  719.59	-2362.09	  568.62
     13.2700	  673.00	  716.40	-2369.90	  567.29
     13.3700	  717.00	  713.77	-2323.27	  565.98
     13.4700	  711.00	  711.47	-2326.97	  564.67
     13.5700	  691.00	  709.41	-2344.91	  563.38
     13.6700	  705.00	  707.52	-2329.02	  562.10
     13.7700	  677.00	  705.75	-2355.25	  560.83
     13.8700	  699.00	  704.08	-2331.58	  559.58
     13.9700	  701.00	  702.50	-2328.00	  558.33
     14.0700	  726.00	  700.98	-2301.48	  557.10
     14.1700	  710.00	  699.51	-2316.01	  555.87
     14.2700	  692.00	  698.09	-2332.59	  554.66
     14.3700	  729.00	  696.71	-2294.21	  553.46
     14.4700	  688.00	  695.37	-2333.87	  552.27
     14.5700	  672.00	  694.05	-2348.55	  551.10
     14.6700	  671.00	  692.77	-2348.27	  549.93
     14.7700	  630.00	  691.51	-2388.01	  548.77
     14.8700	  696.00	  690.27	-2320.77	  547.63
     14.9700	  662.00	  689.05	-2353.55	  546.50
     15.0700	  690.00	  687.86	-2324.36	  545.37
     15.1700	  708.00	  686.68	-2305.18	  544.26
     15.2700	  686.00	  685.51	-2326.01	  543.16
     15.3700	  664.00	  684.37	-2346.87	  542.07
     15.4700	  715.00	  683.24	-2294.74	  540.99
     15.5700	  699.00	  682.13	-2309.63	  539.92
     15.6700	  703.00	  681.03	-2304.53	  538.86
     15.7700	  683.00	  679.94	-2323.44	  537.81
     15.8700	  690.00	  678.87	-2315.37	  536.77
     15.9700	  689.00	  677.81	-2315.31	  535.75
     16.0700	  655.00	  676.76	-2348.26	  534.73
     16.1700	  678.00	  675.73	-2324.23	  533.72
     16.2700	  635.00	  674.70	-2366.20	  532.72
     16.3700	  711.00	  673.69	-2289.19	  531.74
     16.4700	  644.00	  672.70	-2355.20	  530.76
     16.5700	  697.00	  671.71	-2301.21	  529.79
     16.6700	  684.00	  670.73	-2313.23	  528.83
     16.7700	  658.00	  669.77	-2338.27	  527.89
     16.8700	  633.00	  668.82	-2362.32	  526.95
     16.9700	  672.00	  667.87	-2322.37	  526.02
     17.0700	  704.00	  666.94	-2289.44	  525.10
     17.1700	  631.00	  666.02	-2361.52	  524.19
     17.2700	  693.00	  665.11	-2298.61	  523.29
     17.3700	  684.00	  664.21	-2306.71	  522.40
     17.4700	  687.00	  663.32	-2302.82	  521.52
     17.5700	  671.00	  662.44	-2317.94	  520.65
     17.6700	  688.00	  661.57	-2300.07	  519.79
     17.7700	  641.00	  660.71	-2346.21	  518.94
     17.8700	  659.00	  659.86	-2327.36	  518.09
     17.9700	  666.00	  659.02	-2319.52	  517.26
     18.0700	  739.00	  658.19	-2245.69	  516.43
     18.1700	  645.00	  657.36	-2338.86	  515.62
     18.2700	  610.00	  656.55	-2373.05	  514.81
     18.3700	  644.00	  655.75	-2338.25	  514.01
     18.4700	  693.00	  654.96	-2288.46	  513.22
     18.5700	  659.00	  654.17	-2321.67	  512.44
     18.6700	  687.00	  653.40	-2292.90	  511.67
     18.7700	  659.00	  652.63	-2320.13	  510.90
     18.8700	  702.00	  651.88	-2276.38	  510.15
     18.9700	  671.00	  651.13	-2306.63	  509.40
     19.0700	  648.00	  651.69	-2330.19	  508.67
     19.1700	  646.00	  653.18	-2333.68	  507.94
     19.2700	  663.00	  652.53	-2316.03	  507.22
     19.3700	  658.00	  651.89	-2320.39	  506.50
     19.4700	  679.00	  651.27	-2298.77	  505.80
     19.5700	  666.00	  650.66	-2311.16	  505.11
     19.6700	  696.00	  650.06	-2280.56	  504.42
     19.7700	  632.00	  649.47	-2343.97	  503.74
     19.8700	  676.00	  648.89	-2299.39	  503.07
     19.9700	  661.00	  648.32	-2313.82	  502.40
     20.0700	  702.00	  647.77	-2272.27	  501.75
     20.1700	  646.00	  647.23	-2327.73	  501.10
     20.2700	  647.00	  646.76	-2326.26	  500.46
     20.3700	  591.00	  646.25	-2381.75	  499.83
     20.4700	  650.00	  645.74	-2322.24	  499.21
     20.5700	  642.00	  645.25	-2329.75	  498.59
     20.6700	  618.00	  644.77	-2353.27	  497.98
     20.7700	  645.00	  644.31	-2325.81	  497.38
     20.8700	  664.00	  643.85	-2306.35	  496.79
     20.9700	  627.00	  643.42	-2342.92	  496.21
     21.0700	  653.00	  642.99	-2316.49	  495.63
     21.1700	  675.00	  642.58	-2294.08	  495.06
     21.2700	  641.00	  642.19	-2327.69	  494.49
     21.3700	  601.00	  641.80	-2367.30	  493.94
     21.4700	  598.00	  641.44	-2369.94	  493.39
     21.5700	  672.00	  641.09	-2295.59	  492.85
     21.6700	  636.00	  640.76	-2331.26	  492.32
     21.7700	  658.00	  640.44	-2308.94	  491.79
     21.8700	  604.00	  640.14	-2362.64	  491.27
     21.9700	  637.00	  639.87	-2329.37	  490.76
     22.0700	  695.00	  639.61	-2271.11	  490.25
     22.1700	  655.00	  639.37	-2310.87	  489.75
     22.2700	  626.00	  639.15	-2339.65	  489.26
     22.3700	  641.00	  638.95	-2324.45	  488.78
     22.4700	  643.00	  639.00	-2322.50	  488.30
     22.5700	  636.00	  638.85	-2329.35	  487.83
     22.6700	  654.00	  638.74	-2311.24	  487.36
     22.7700	  650.00	  638.66	-2315.16	  486.90
     22.8700	  631.00	  638.60	-2334.10	  486.45
     22.9700	  659.00	  638.59	-2306.09	  486.01
     23.0700	  610.00	  638.61	-2355.11	  485.57
     23.1700	  634.00	  638.68	-2331.18	  485.14
     23.2700	  674.00	  638.79	-2291.29	  484.71
     23.3700	  627.00	  638.96	-2338.46	  484.29
     23.4700	  652.00	  639.20	-2313.70	  483.88
     23.5700	  601.00	  639.51	-2365.01	  483.48
     23.6700	  658.00	  639.92	-2308.42	  483.08
     23.7700	  654.00	  640.44	-2312.94	  482.68
     23.8700	  630.00	  641.11	-2337.61	  482.29
     23.9700	  696.00	  642.00	-2272.50	  481.91
     24.0700	  663.00	  643.20	-2306.70	  481.54
     24.1700	  619.00	  644.86	-2352.36	  481.17
     24.2700	  644.00	  647.24	-2329.74	  480.80
     24.3700	  684.00	  650.69	-2293.19	  480.45
     24.4700	  677.00	  655.56	-2305.06	  480.10
     24.5700	  693.00	  662.32	-2295.82	  479.75
     24.6700	  738.00	  671.01	-2259.51	  479.41
     24.7700	  686.00	  681.24	-2321.74	  479.08
     24.8700	  727.00	  691.84	-2291.34	  478.75
     24.9700	  733.00	  700.56	-2294.06	  478.42
     25.0700	  729.00	  704.07	-2301.57	  478.11
     25.1700	  733.00	  700.12	-2293.62	  477.79
     25.2700	  729.00	  690.70	-2288.20	  477.49
     25.3700	  703.00	  680.47	-2303.97	  477.19
     25.4700	  683.00	  672.26	-2315.76	  476.89
     25.5700	  671.00	  666.90	-2322.40	  476.60
     25.6700	  675.00	  664.11	-2315.61	  476.32
     25.7700	  654.00	  663.28	-2335.78	  476.04
     25.8700	  676.00	  663.84	-2314.34	  475.77
     25.9700	  691.00	  665.36	-2300.86	  475.50
     26.0700	  634.00	  667.64	-2360.14	  475.23
     26.1700	  714.00	  670.57	-2283.07	  474.97
     26.2700	  606.00	  674.15	-2394.65	  474.72
     26.3700	  721.00	  678.42	-2283.92	  474.47
     26.4700	  698.00	  683.48	-2311.98	  474.23
     26.5700	  672.00	  689.43	-2343.93	  473.99
     26.6700	  683.00	  696.46	-2339.96	  473.76
     26.7700	  661.00	  704.78	-2370.28	  473.53
     26.8700	  720.00	  714.69	-2321.19	  473.31
     26.9700	  695.00	  726.60	-2358.10	  473.09
     27.0700	  728.00	  741.04	-2339.54	  472.87
     27.1700	  715.00	  758.77	-2370.27	  472.67
     27.2700	  733.00	  780.88	-2374.38	  472.46
     27.3700	  713.00	  809.06	-2422.56	  472.26
     27.4700	  811.00	  846.34	-2361.84	  472.07
     27.5700	  849.00	  899.06	-2376.56	  471.88
     27.6700	  857.00	  981.32	-2450.82	  471.69
     27.7700	  900.00	 1122.82	-2549.32	  471.51
     27.8700	 1097.00	 1378.81	-2608.31	  471.33
     27.9700	 1416.00	 1837.19	-2747.69	  471.16
     28.0700	 2052.00	 2610.06	-2884.56	  470.99
     28.1700	 3277.00	 3790.12	-2839.62	  470.83
     28.2700	 5325.00	 5356.44	-2357.94	  470.67
     28.3700	 7750.00	 7033.25	-1609.75	  470.51
     28.4700	 9306.00	 8207.81	-1228.31	  470.36
     28.5700	 8856.00	 8150.03	-1620.53	  470.21
     28.6700	 7137.00	 6847.84	-2037.34	  470.07
     28.7700	 5108.00	 5309.69	-2528.19	  469.93
     28.8700	 3926.00	 4370.70	-2771.20	  469.80
     28.9700	 4181.00	 4202.07	-2347.57	  469.67
     29.0700	 4728.00	 4521.89	-2120.39	  469.54
     29.1700	 5297.00	 4836.23	-1865.73	  469.42
     29.2700	 4886.00	 4660.41	-2100.91	  469.30
     29.3700	 3812.00	 3883.74	-2398.24	  469.19
     29.4700	 2788.00	 2894.04	-2432.54	  469.08
     29.5700	 1810.00	 2061.51	-2578.01	  468.97
     29.6700	 1406.00	 1502.72	-2423.22	  468.86
     29.7700	 1104.00	 1180.07	-2402.57	  468.77
     29.8700	  999.00	 1007.87	-2335.37	  468.67
     29.9700	  943.00	  914.00	-2297.50	  468.58
     30.0700	  861.00	  857.01	-2322.51	  468.49
     30.1700	  813.00	  818.10	-2331.60	  468.40
     30.2700	  807.00	  789.65	-2309.15	  468.32
     30.3700	  790.00	  768.53	-2305.03	  468.25
     30.4700	  758.00	  753.50	-2322.00	  468.17
     30.5700	  772.00	  744.54	-2299.04	  468.10
     30.6700	  769.00	  742.67	-2300.17	  468.03
     30.7700	  788.00	  749.57	-2288.07	  467.97
     30.8700	  743.00	  766.55	-2350.05	  467.91
     30.9700	  767.00	  792.53	-2352.03	  467.85
     31.0700	  830.00	  822.09	-2318.59	  467.80
     31.1700	  889.00	  844.42	-2281.92	  467.75
     31.2700	  812.00	  845.29	-2359.79	  467.70
     31.3700	  821.00	  818.16	-2323.66	  467.65
     31.4700	  748.00	  775.29	-2353.79	  467.61
     31.5700	  849.00	  733.95	-2211.45	  467.58
     31.6700	  709.00	  702.40	-2319.90	  467.54
     31.7700	  686.00	  681.47	-2321.97	  467.51
     31.8700	  720.00	  668.67	-2275.17	  467.48
     31.9700	  695.00	  660.95	-2292.45	  467.45
     32.0700	  705.00	  656.03	-2277.53	  467.43
     32.1700	  671.00	  652.60	-2308.10	  467.41
     32.2700	  638.00	  650.05	-2338.55	  467.39
     32.3700	  671.00	  648.11	-2303.61	  467.38
     32.4700	  692.00	  646.65	-2281.15	  467.37
     32.5700	  661.00	  645.62	-2311.12	  467.36
     32.6700	  711.00	  644.98	-2260.48	  467.35
     32.7700	  622.00	  644.74	-2349.24	  467.35
     32.8700	  662.00	  644.95	-2309.45	  467.35
     32.9700	  675.00	  645.59	-2297.09	  467.35
     33.0700	  682.00	  646.79	-2291.29	  467.36
     33.1700	  733.00	  648.66	-2242.16	  467.36
     33.2700	  704.00	  651.47	-2273.97	  467.37
     33.3700	  671.00	  655.64	-2311.14	  467.39
     33.4700	  661.00	  662.05	-2327.55	  467.40
     33.5700	  665.00	  672.41	-2333.91	  467.42
     33.6700	  732.00	  689.84	-2284.34	  467.44
     33.7700	  766.00	  719.34	-2279.84	  467.46
     33.8700	  735.00	  767.52	-2359.02	  467.49
     33.9700	  870.00	  840.41	-2296.91	  467.51
     34.0700	  938.00	  938.68	-2327.18	  467.54
     34.1700	 1116.00	 1051.63	-2262.13	  467.57
     34.2700	 1236.00	 1153.23	-2243.73	  467.61
     34.3700	 1298.00	 1204.12	-2232.62	  467.64
     34.4700	 1243.00	 1172.30	-2255.80	  467.68
     34.5700	 1154.00	 1070.70	-2243.20	  467.72
     34.6700	 1023.00	  948.17	-2251.67	  467.77
     34.7700	  815.00	  841.52	-2353.02	  467.81
     34.8700	  768.00	  763.65	-2322.15	  467.86
     34.9700	  729.00	  713.18	-2310.68	  467.91
     35.0700	  717.00	  682.97	-2292.47	  467.96
     35.1700	  726.00	  665.39	-2265.89	  468.01
     35.2700	  703.00	  654.78	-2278.28	  468.07
     35.3700	  754.00	  647.86	-2220.36	  468.12
     35.4700	  689.00	  642.93	-2280.43	  468.18
     35.5700	  670.00	  639.27	-2295.77	  468.24
     35.6700	  647.00	  636.37	-2315.87	  468.31
     35.7700	  628.00	  634.07	-2332.57	  468.37
     35.8700	  610.00	  632.22	-2348.72	  468.44
     35.9700	  649.00	  630.73	-2308.23	  468.50
     36.0700	  591.00	  629.53	-2365.03	  468.57
     36.1700	  616.00	  628.57	-2339.07	  468.65
     36.2700	  644.00	  627.81	-2310.31	  468.72
     36.3700	  639.00	  627.23	-2314.73	  468.79
     36.4700	  658.00	  626.82	-2295.32	  468.87
     36.5700	  641.00	  626.56	-2312.06	  468.95
     36.6700	  631.00	  626.46	-2321.96	  469.03
     36.7700	  634.00	  626.51	-2319.01	  469.11
     36.8700	  619.00	  626.74	-2334.24	  469.19
     36.9700	  624.00	  627.37	-2329.87	  469.28
     37.0700	  655.00	  628.04	-2299.54	  469.36
     37.1700	  661.00	  629.04	-2294.54	  469.45
     37.2700	  605.00	  631.02	-2352.52	  469.54
     37.3700	  613.00	  633.17	-2346.67	  469.63
     37.4700	  622.00	  636.41	-2340.91	  469.72
     37.5700	  652.00	  641.41	-2315.91	  469.82
     37.6700	  690.00	  649.29	-2285.79	  469.91
     37.7700	  629.00	  661.59	-2359.09	  470.01
     37.8700	  691.00	  680.03	-2315.53	  470.10
     37.9700	  725.00	  705.91	-2307.41	  470.20
     38.0700	  756.00	  736.81	-2307.31	  470.30
     38.1700	  775.00	  773.50	-2325.00	  470.40
     38.2700	  799.00	  806.64	-2334.14	  470.50
     38.3700	  777.00	  825.34	-2374.84	  470.61
     38.4700	  795.00	  819.58	-2351.08	  470.71
     38.5700	  731.00	  790.29	-2385.79	  470.82
     38.6700	  740.00	  750.38	-2336.88	  470.92
     38.7700	  731.00	  712.32	-2307.82	  471.03
     38.8700	  637.00	  682.08	-2371.58	  471.14
     38.9700	  653.00	  660.75	-2334.25	  471.25
     39.0700	  584.00	  646.96	-2389.46	  471.36
     39.1700	  632.00	  638.53	-2333.03	  471.47
     39.2700	  611.00	  633.43	-2348.93	  471.58
     39.3700	  589.00	  630.23	-2367.73	  471.70
     39.4700	  618.00	  626.83	-2335.33	  471.81
     39.5700	  607.00	  625.31	-2344.81	  471.93
     39.6700	  647.00	  624.18	-2303.68	  472.04
     39.7700	  612.00	  623.32	-2337.82	  472.16
     39.8700	  638.00	  622.64	-2311.14	  472.28
     39.9700	  638.00	  622.12	-2310.62	  472.39
     40.0700	  624.00	  621.72	-2324.22	  472.51
     40.1700	  604.00	  621.41	-2343.91	  472.63
     40.2700	  605.00	  621.19	-2342.69	  472.76
     40.3700	  649.00	  621.03	-2298.53	  472.88
     40.4700	  635.00	  620.94	-2312.44	  473.00
     40.5700	  642.00	  620.89	-2305.39	  473.12
     40.6700	  659.00	  620.89	-2288.39	  473.25
     40.7700	  593.00	  620.93	-2354.43	  473.37
     40.8700	  605.00	  621.56	-2343.06	  473.49
     40.9700	  596.00	  621.69	-2352.19	  473.62
     41.0700	  599.00	  621.86	-2349.36	  473.75
     41.1700	  644.00	  622.08	-2304.58	  473.87
     41.2700	  635.00	  622.35	-2313.85	  474.00
     41.3700	  610.00	  622.72	-2339.22	  474.13
     41.4700	  633.00	  623.10	-2316.60	  474.25
     41.5700	  581.00	  623.55	-2369.05	  474.38
     41.6700	  589.00	  624.09	-2361.59	  474.51
     41.7700	  622.00	  624.74	-2329.24	  474.64
     41.8700	  608.00	  625.53	-2344.03	  474.77
     41.9700	  630.00	  626.54	-2323.04	  474.90
     42.0700	  630.00	  627.88	-2324.38	  475.03
     42.1700	  605.00	  629.77	-2351.27	  475.16
     42.2700	  660.00	  632.61	-2299.11	  475.29
     42.3700	  654.00	  636.98	-2309.48	  475.43
     42.4700	  627.00	  643.88	-2343.38	  475.56
     42.5700	  634.00	  654.25	-2346.75	  475.69
     42.6700	  628.00	  668.84	-2367.34	  475.82
     42.7700	  660.00	  687.58	-2354.08	  475.95
     42.8700	  673.00	  708.80	-2362.30	  476.09
     42.9700	  684.00	  728.53	-2371.03	  476.22
     43.0700	  706.00	  740.64	-2361.14	  476.35
     43.1700	  753.00	  739.75	-2313.25	  476.49
     43.2700	  750.00	  726.00	-2302.50	  476.62
     43.3700	  725.00	  705.43	-2306.93	  476.75
     43.4700	  641.00	  684.45	-2369.95	  476.89
     43.5700	  653.00	  666.76	-2340.26	  477.02
     43.6700	  652.00	  653.46	-2327.96	  477.15
     43.7700	  651.00	  644.29	-2319.79	  477.29
     43.8700	  589.00	  638.42	-2375.92	  477.42
     43.9700	  650.00	  634.82	-2311.32	  477.56
     44.0700	  636.00	  632.82	-2323.32	  477.69
     44.1700	  578.00	  631.46	-2379.96	  477.82
     44.2700	  627.00	  630.59	-2330.09	  477.96
     44.3700	  637.00	  630.00	-2319.50	  478.09
     44.4700	  650.00	  629.59	-2306.09	  478.23
     44.5700	  632.00	  629.32	-2323.82	  478.36
     44.6700	  633.00	  629.15	-2322.65	  478.49
     44.7700	  616.00	  629.06	-2339.56	  478.63
     44.8700	  698.00	  629.04	-2257.54	  478.76
     44.9700	  627.00	  629.09	-2328.59	  478.89
     45.0700	  651.00	  629.17	-2304.67	  479.03
     45.1700	  629.00	  629.56	-2327.06	  479.16
     45.2700	  618.00	  629.73	-2338.23	  479.29
     45.3700	  648.00	  629.92	-2308.42	  479.42
     45.4700	  637.00	  630.15	-2319.65	  479.56
     45.5700	  647.00	  630.41	-2309.91	  479.69
     45.6700	  638.00	  630.70	-2319.20	  479.82
     45.7700	  684.00	  631.02	-2273.52	  479.95
     45.8700	  608.00	  631.46	-2349.96	  480.08
     45.9700	  648.00	  631.84	-2310.34	  480.21
     46.0700	  606.00	  632.26	-2352.76	  480.34
     46.1700	  599.00	  632.71	-2360.21	  480.47
     46.2700	  628.00	  633.20	-2331.70	  480.60
     46.3700	  620.00	  633.76	-2340.26	  480.73
     46.4700	  659.00	  634.14	-2301.64	  480.86
     46.5700	  650.00	  634.78	-2311.28	  480.99
     46.6700	  662.00	  635.65	-2300.15	  481.12
     46.7700	  639.00	  636.44	-2323.94	  481.25
     46.8700	  629.00	  637.32	-2334.82	  481.37
     46.9700	  636.00	  638.31	-2328.81	  481.50
     47.0700	  627.00	  639.46	-2338.96	  481.63
     47.1700	  625.00	  640.81	-2342.31	  481.75
     47.2700	  638.00	  642.48	-2330.98	  481.88
     47.3700	  664.00	  644.65	-2307.15	  482.00
     47.4700	  633.00	  647.63	-2341.13	  482.13
     47.5700	  636.00	  651.90	-2342.40	  482.25
     47.6700	  658.00	  658.05	-2326.55	  482.38
     47.7700	  659.00	  666.76	-2334.26	  482.50
     47.8700	  665.00	  678.52	-2340.02	  482.62
     47.9700	  703.00	  693.37	-2316.87	  482.74
     48.0700	  693.00	  710.45	-2343.95	  482.87
     48.1700	  685.00	  727.54	-2369.04	  482.99
     48.2700	  745.00	  740.90	-2322.40	  483.11
     48.3700	  733.00	  746.35	-2339.85	  483.23
     48.4700	  768.00	  742.16	-2300.66	  483.34
     48.5700	  718.00	  730.86	-2339.36	  483.46
     48.6700	  750.00	  717.42	-2293.92	  483.58
     48.7700	  683.00	  704.59	-2348.09	  483.70
     48.8700	  665.00	  694.69	-2356.19	  483.81
     48.9700	  693.00	  688.39	-2321.89	  483.93
     49.0700	  665.00	  685.61	-2347.11	  484.04
     49.1700	  682.00	  685.95	-2330.45	  484.16
     49.2700	  630.00	  688.96	-2385.46	  484.27
     49.3700	  690.00	  694.42	-2330.92	  484.38
     49.4700	  667.00	  702.50	-2362.00	  484.49
     49.5700	  646.00	  714.21	-2394.71	  484.61
     49.6700	  707.00	  732.23	-2351.73	  484.72
     49.7700	  756.00	  762.63	-2333.13	  484.83
     49.8700	  828.00	  817.66	-2316.16	  484.93
     49.9700	  968.00	  918.36	-2276.86	  485.04
     50.0700	 1197.00	 1094.36	-2223.86	  485.15
     50.1700	 1488.00	 1376.44	-2214.94	  485.26
     50.2700	 1850.00	 1779.89	-2256.39	  485.36
     50.3700	 2433.00	 2282.02	-2175.52	  485.47
     50.4700	 2876.00	 2803.11	-2253.61	  485.57
     50.5700	 3254.00	 3205.34	-2277.84	  485.67
     50.6700	 3331.00	 3335.60	-2331.10	  485.77
     50.7700	 3009.00	 3130.56	-2448.06	  485.88
     50.8700	 2485.00	 2682.74	-2524.24	  485.98
     50.9700	 2110.00	 2155.52	-2372.02	  486.07
     51.0700	 1588.00	 1677.02	-2415.52	  486.17
     51.1700	 1216.00	 1310.71	-2421.21	  486.27
     51.2700	 1058.00	 1067.27	-2335.77	  486.37
     51.3700	  911.00	  924.28	-2339.78	  486.46
     51.4700	  895.00	  848.37	-2279.87	  486.56
     51.5700	  816.00	  809.72	-2320.22	  486.65
     51.6700	  774.00	  787.70	-2340.20	  486.74
     51.7700	  812.00	  771.24	-2285.74	  486.84
     51.8700	  736.00	  756.23	-2346.73	  486.93
     51.9700	  759.00	  742.41	-2309.91	  487.02
     52.0700	  734.00	  730.55	-2323.05	  487.10
     52.1700	  790.00	  721.10	-2257.60	  487.19
     52.2700	  703.00	  713.97	-2337.47	  487.28
     52.3700	  755.00	  708.75	-2280.25	  487.36
     52.4700	  734.00	  704.96	-2297.46	  487.45
     52.5700	  715.00	  702.40	-2313.90	  487.53
     52.6700	  797.00	  701.23	-2230.73	  487.62
     52.7700	  704.00	  701.81	-2324.31	  487.70
     52.8700	  731.00	  704.71	-2300.21	  487.78
     52.9700	  750.00	  710.81	-2287.31	  487.86
     53.0700	  742.00	  721.56	-2306.06	  487.93
     53.1700	  724.00	  739.12	-2341.62	  488.01
     53.2700	  777.00	  766.39	-2315.89	  488.09
     53.3700	  802.00	  806.69	-2331.19	  488.16
     53.4700	  852.00	  862.98	-2337.48	  488.24
     53.5700	  960.00	  936.64	-2303.14	  488.31
     53.6700	  979.00	 1025.88	-2373.38	  488.38
     53.7700	 1186.00	 1124.11	-2264.61	  488.45
     53.8700	 1229.00	 1217.42	-2314.92	  488.52
     53.9700	 1341.00	 1285.14	-2270.64	  488.59
     54.0700	 1329.00	 1305.81	-2303.31	  488.66
     54.1700	 1302.00	 1271.48	-2295.98	  488.72
     54.2700	 1277.00	 1194.79	-2244.29	  488.79
     54.3700	 1138.00	 1098.68	-2287.18	  488.85
     54.4700	 1013.00	 1002.54	-2316.04	  488.91
     54.5700	  916.00	  917.96	-2328.46	  488.97
     54.6700	  894.00	  850.01	-2282.51	  489.03
     54.7700	  749.00	  799.33	-2376.83	  489.09
     54.8700	  750.00	  763.91	-2340.41	  489.15
     54.9700	  723.00	  740.51	-2344.01	  489.21
     55.0700	  707.00	  725.78	-2345.28	  489.26
     55.1700	  709.00	  716.93	-2334.43	  489.32
     55.2700	  691.00	  711.92	-2347.42	  489.37
     55.3700	  712.00	  709.48	-2323.98	  489.42
     55.4700	  720.00	  708.86	-2315.36	  489.47
     55.5700	  656.00	  709.67	-2380.17	  489.52
     55.6700	  726.00	  711.78	-2312.28	  489.57
     55.7700	  673.00	  715.17	-2368.67	  489.61
     55.8700	  695.00	  719.98	-2351.48	  489.66
     55.9700	  692.00	  726.51	-2361.01	  489.70
     56.0700	  712.00	  735.34	-2349.84	  489.75
     56.1700	  753.00	  747.60	-2321.10	  489.79
     56.2700	  728.00	  765.43	-2363.93	  489.83
     56.3700	  754.00	  792.68	-2365.18	  489.87
     56.4700	  796.00	  835.73	-2366.23	  489.90
     56.5700	  895.00	  904.10	-2335.60	  489.94
     56.6700	  985.00	 1010.16	-2351.66	  489.98
     56.7700	 1140.00	 1167.12	-2353.62	  490.01
     56.8700	 1401.00	 1385.10	-2310.60	  490.04
     56.9700	 1782.00	 1665.37	-2209.87	  490.07
     57.0700	 2043.00	 1994.04	-2277.54	  490.10
     57.1700	 2448.00	 2336.04	-2214.54	  490.13
     57.2700	 2661.00	 2631.73	-2297.23	  490.16
     57.3700	 2825.00	 2804.28	-2305.78	  490.18
     57.4700	 2704.00	 2794.70	-2417.20	  490.21
     57.5700	 2573.00	 2606.22	-2359.72	  490.23
     57.6700	 2284.00	 2302.65	-2345.15	  490.25
     57.7700	 1837.00	 1961.00	-2450.50	  490.28
     57.8700	 1548.00	 1638.71	-2417.21	  490.29
     57.9700	 1276.00	 1368.06	-2418.56	  490.31
     58.0700	 1067.00	 1161.03	-2420.53	  490.33
     58.1700	  987.00	 1015.44	-2354.94	  490.34
     58.2700	  929.00	  921.32	-2318.82	  490.36
     58.3700	  836.00	  866.91	-2357.41	  490.37
     58.4700	  845.00	  842.50	-2324.00	  490.38
     58.5700	  844.00	  842.31	-2324.81	  490.39
     58.6700	  820.00	  864.03	-2370.53	  490.40
     58.7700	  893.00	  907.18	-2340.68	  490.41
     58.8700	  984.00	  971.16	-2313.66	  490.41
     58.9700	 1083.00	 1052.74	-2296.24	  490.42
     59.0700	 1132.00	 1144.55	-2339.05	  490.42
     59.1700	 1239.00	 1234.59	-2322.09	  490.42
     59.2700	 1292.00	 1309.29	-2343.79	  490.42
     59.3700	 1268.00	 1360.22	-2418.72	  490.42
     59.4700	 1372.00	 1386.26	-2340.76	  490.42
     59.5700	 1299.00	 1387.90	-2415.40	  490.42
     59.6700	 1297.00	 1365.07	-2394.57	  490.41
     59.7700	 1378.00	 1323.08	-2271.58	  490.41
     59.8700	 1311.00	 1275.34	-2290.84	  490.40
     59.9700	 1278.00	 1237.09	-2285.59	  490.39
     60.0700	 1323.00	 1219.31	-2222.81	  490.38
     60.1700	 1292.00	 1228.20	-2262.70	  490.37
     60.2700	 1273.00	 1267.24	-2320.74	  490.35
     60.3700	 1453.00	 1337.32	-2210.82	  490.34
     60.4700	 1475.00	 1433.77	-2285.27	  490.32
     60.5700	 1602.00	 1542.45	-2266.95	  490.30
     60.6700	 1640.00	 1638.68	-2325.18	  490.28
     60.7700	 1664.00	 1690.90	-2353.40	  490.26
     60.8700	 1632.00	 1673.84	-2368.34	  490.24
     60.9700	 1551.00	 1585.77	-2361.27	  490.22
     61.0700	 1389.00	 1449.59	-2387.09	  490.20
     61.1700	 1248.00	 1296.03	-2374.53	  490.17
     61.2700	 1119.00	 1149.98	-2357.48	  490.14
     61.3700	  937.00	 1027.04	-2416.54	  490.11
     61.4700	  877.00	  934.23	-2383.73	  490.08
     61.5700	  884.00	  872.48	-2314.98	  490.05
     61.6700	  858.00	  839.48	-2307.98	  490.02
     61.7700	  848.00	  832.69	-2311.19	  489.98
     61.8700	  875.00	  851.48	-2302.98	  489.95
     61.9700	  960.00	  897.82	-2264.32	  489.91
     62.0700	 1029.00	  975.43	-2272.93	  489.87
     62.1700	 1148.00	 1087.73	-2266.23	  489.83
     62.2700	 1344.00	 1234.62	-2217.12	  489.79
     62.3700	 1459.00	 1409.52	-2277.02	  489.75
     62.4700	 1688.00	 1596.72	-2235.22	  489.71
     62.5700	 1745.00	 1769.83	-2351.33	  489.66
     62.6700	 1883.00	 1893.48	-2336.98	  489.61
     62.7700	 1873.00	 1933.50	-2387.00	  489.57
     62.8700	 1881.00	 1876.49	-2321.99	  489.52
     62.9700	 1644.00	 1740.27	-2422.77	  489.47
     63.0700	 1536.00	 1560.59	-2351.09	  489.41
     63.1700	 1320.00	 1371.78	-2378.28	  489.36
     63.2700	 1192.00	 1198.34	-2332.84	  489.30
     63.3700	  981.00	 1053.99	-2399.49	  489.25
     63.4700	  937.00	  943.51	-2333.01	  489.19
     63.5700	  866.00	  865.13	-2325.63	  489.13
     63.6700	  856.00	  813.39	-2283.90	  489.07
     63.7700	  774.00	  781.65	-2334.15	  489.01
     63.8700	  805.00	  764.06	-2285.56	  488.95
     63.9700	  807.00	  756.44	-2275.94	  488.88
     64.0700	  814.00	  756.59	-2269.09	  488.81
     64.1700	  769.00	  763.60	-2321.10	  488.75
     64.2700	  810.00	  779.69	-2296.19	  488.68
     64.3700	  739.00	  806.93	-2394.43	  488.61
     64.4700	  868.00	  848.90	-2307.40	  488.54
     64.5700	  919.00	  909.56	-2317.06	  488.46
     64.6700	 1005.00	  992.34	-2313.84	  488.39
     64.7700	 1118.00	 1098.75	-2307.25	  488.31
     64.8700	 1316.00	 1226.86	-2237.36	  488.24
     64.9700	 1348.00	 1369.55	-2348.05	  488.16
     65.0700	 1520.00	 1513.50	-2320.00	  488.08
     65.1700	 1609.00	 1639.52	-2357.02	  488.00
     65.2700	 1755.00	 1726.06	-2297.56	  487.92
     65.3700	 1685.00	 1755.40	-2396.90	  487.83
     65.4700	 1694.00	 1720.64	-2353.14	  487.75
     65.5700	 1541.00	 1629.61	-2415.11	  487.66
     65.6700	 1449.00	 1502.98	-2380.48	  487.57
     65.7700	 1290.00	 1363.26	-2399.76	  487.48
     65.8700	 1135.00	 1228.34	-2419.84	  487.39
     65.9700	 1065.00	 1109.10	-2370.60	  487.30
     66.0700	  984.00	 1010.15	-2352.65	  487.21
     66.1700	  820.00	  931.91	-2438.41	  487.11
     66.2700	  861.00	  872.43	-2337.93	  487.02
     66.3700	  785.00	  828.55	-2370.05	  486.92
     66.4700	  771.00	  797.03	-2352.53	  486.82
     66.5700	  746.00	  774.78	-2355.28	  486.72
     66.6700	  682.00	  759.31	-2403.81	  486.62
     66.7700	  680.00	  748.87	-2395.37	  486.52
     66.8700	  691.00	  742.25	-2377.75	  486.42
     66.9700	  662.00	  738.78	-2403.28	  486.31
     67.0700	  719.00	  738.12	-2345.62	  486.21
     67.1700	  702.00	  740.28	-2364.78	  486.10
     67.2700	  733.00	  745.75	-2339.25	  485.99
     67.3700	  769.00	  755.34	-2312.84	  485.88
     67.4700	  744.00	  770.99	-2353.49	  485.77
     67.5700	  779.00	  795.80	-2343.30	  485.66
     67.6700	  811.00	  834.02	-2349.52	  485.54
     67.7700	  892.00	  891.66	-2326.16	  485.43
     67.8700	  936.00	  975.76	-2366.26	  485.31
     67.9700	 1089.00	 1093.46	-2330.96	  485.19
     68.0700	 1271.00	 1250.27	-2305.77	  485.07
     68.1700	 1501.00	 1448.04	-2273.54	  484.95
     68.2700	 1733.00	 1682.47	-2275.97	  484.83
     68.3700	 1958.00	 1941.04	-2309.54	  484.71
     68.4700	 2192.00	 2201.34	-2335.84	  484.59
     68.5700	 2501.00	 2430.44	-2255.94	  484.46
     68.6700	 2579.00	 2587.88	-2335.38	  484.33
     68.7700	 2603.00	 2637.40	-2360.90	  484.21
     68.8700	 2536.00	 2565.90	-2356.40	  484.08
     68.9700	 2327.00	 2391.81	-2391.31	  483.95
     69.0700	 2214.00	 2153.50	-2266.00	  483.82
     69.1700	 1871.00	 1890.68	-2346.18	  483.68
     69.2700	 1666.00	 1634.49	-2294.99	  483.55
     69.3700	 1386.00	 1405.45	-2345.95	  483.42
     69.4700	 1274.00	 1214.37	-2266.87	  483.28
     69.5700	 1132.00	 1064.25	-2258.75	  483.14
     69.6700	 1078.00	  952.41	-2200.91	  483.01
     69.7700	  965.00	  872.83	-2234.33	  482.87
     69.8700	  870.00	  818.27	-2274.77	  482.73
     69.9700	  898.00	  781.79	-2210.29	  482.58
     70.0700	  783.00	  757.66	-2301.16	  482.44
     70.1700	  718.00	  741.61	-2350.11	  482.30
     70.2700	  818.00	  730.75	-2239.25	  482.15
     70.3700	  797.00	  723.24	-2252.74	  482.00
     70.4700	  760.00	  717.98	-2284.48	  481.86
     70.5700	  732.00	  714.35	-2308.85	  481.71
     70.6700	  713.00	  712.02	-2325.52	  481.56
     70.7700	  786.00	  710.84	-2251.34	  481.41
     70.8700	  690.00	  710.79	-2347.29	  481.26
     70.9700	  724.00	  711.96	-2314.46	  481.10
     71.0700	  689.00	  714.61	-2352.11	  480.95
     71.1700	  761.00	  719.01	-2284.51	  480.79
     71.2700	  764.00	  726.40	-2288.90	  480.64
     71.3700	  779.00	  737.90	-2285.40	  480.48
     71.4700	  751.00	  755.48	-2330.98	  480.32
     71.5700	  861.00	  781.91	-2247.41	  480.16
     71.6700	  832.00	  820.78	-2315.28	  480.00
     71.7700	  883.00	  876.22	-2319.72	  479.84
     71.8700	  966.00	  952.52	-2313.02	  479.68
     71.9700	 1038.00	 1053.22	-2341.72	  479.51
     72.0700	 1226.00	 1180.04	-2280.54	  479.35
     72.1700	 1307.00	 1331.74	-2351.24	  479.18
     72.2700	 1555.00	 1502.98	-2274.48	  479.01
     72.3700	 1723.00	 1683.32	-2286.82	  478.85
     72.4700	 1863.00	 1856.60	-2320.10	  478.68
     72.5700	 2021.00	 2001.11	-2306.61	  478.51
     72.6700	 2074.00	 2092.49	-2344.99	  478.34
     72.7700	 2050.00	 2111.54	-2388.04	  478.16
     72.8700	 2020.00	 2053.73	-2360.23	  477.99
     72.9700	 1735.00	 1932.02	-2523.52	  477.82
     73.0700	 1754.00	 1770.26	-2342.76	  477.64
     73.1700	 1578.00	 1590.66	-2339.16	  477.47
     73.2700	 1374.00	 1412.86	-2365.36	  477.29
     73.3700	 1231.00	 1250.00	-2345.50	  477.11
     73.4700	 1089.00	 1109.74	-2347.24	  476.93
     73.5700	  998.00	  995.16	-2323.66	  476.75
     73.6700	  877.00	  905.80	-2355.30	  476.57
     73.7700	  859.00	  838.88	-2306.38	  476.39
     73.8700	  829.00	  790.47	-2287.97	  476.21
     73.9700	  769.00	  756.38	-2313.88	  476.03
     74.0700	  748.00	  732.30	-2310.80	  475.84
     74.1700	  744.00	  716.22	-2298.72	  475.66
     74.2700	  716.00	  705.34	-2315.84	  475.47
     74.3700	  760.00	  698.12	-2264.62	  475.28
     74.4700	  700.00	  693.58	-2320.08	  475.10
     74.5700	  692.00	  691.10	-2325.60	  474.91
     74.6700	  729.00	  690.32	-2287.82	  474.72
     74.7700	  661.00	  690.92	-2356.42	  474.53
     74.8700	  724.00	  692.63	-2295.13	  474.34
     74.9700	  710.00	  695.07	-2311.57	  474.14
     75.0700	  767.00	  697.94	-2257.44	  473.95
     75.1700	  750.00	  700.66	-2277.16	  473.76
     75.2700	  753.00	  702.63	-2276.13	  473.56
     75.3700	  727.00	  703.34	-2302.84	  473.37
     75.4700	  698.00	  702.56	-2331.06	  473.17
     75.5700	  785.00	  700.50	-2242.00	  472.97
     75.6700	  749.00	  697.77	-2275.27	  472.78
     75.7700	  752.00	  695.12	-2269.62	  472.58
     75.8700	  762.00	  693.62	-2258.12	  472.38
     75.9700	  743.00	  694.16	-2277.66	  472.18
     76.0700	  726.00	  697.76	-2298.26	  471.98
     76.1700	  725.00	  705.51	-2307.01	  471.78
     76.2700	  755.00	  718.56	-2290.06	  471.58
     76.3700	  750.00	  738.04	-2314.54	  471.37
     76.4700	  795.00	  764.85	-2296.35	  471.17
     76.5700	  779.00	  799.52	-2347.02	  470.96
     76.6700	  893.00	  841.92	-2275.42	  470.76
     76.7700	  870.00	  891.04	-2347.54	  470.55
     76.8700	  923.00	  944.77	-2348.27	  470.35
     76.9700	  999.00	  999.71	-2327.21	  470.14
     77.0700	 1094.00	 1051.08	-2283.58	  469.93
     77.1700	 1080.00	 1092.87	-2339.37	  469.73
     77.2700	 1052.00	 1118.72	-2393.22	  469.52
     77.3700	 1017.00	 1123.80	-2433.30	  469.31
     77.4700	 1068.00	 1106.99	-2365.49	  469.10
     77.5700	 1080.00	 1071.45	-2317.95	  468.89
     77.6700	 1099.00	 1022.85	-2250.35	  468.67
     77.7700	  984.00	  967.89	-2310.39	  468.46
     77.8700	  904.00	  911.81	-2334.31	  468.25
     77.9700	  895.00	  858.62	-2290.12	  468.04
     78.0700	  843.00	  811.01	-2294.51	  467.82
     78.1700	  780.00	  770.42	-2316.92	  467.61
     78.2700	  721.00	  737.28	-2342.78	  467.39
     78.3700	  653.00	  711.28	-2384.78	  467.18
     78.4700	  745.00	  691.58	-2273.08	  466.96
     78.5700	  694.00	  677.11	-2309.61	  466.75
     78.6700	  708.00	  666.73	-2285.23	  466.53
     78.7700	  644.00	  659.42	-2341.92	  466.31
     78.8700	  642.00	  654.32	-2338.82	  466.09
     78.9700	  678.00	  650.78	-2299.28	  465.88
     79.0700	  613.00	  648.27	-2361.77	  465.66
     79.1700	  644.00	  646.58	-2329.08	  465.44
     79.2700	  675.00	  645.47	-2296.97	  465.22
     79.3700	  634.00	  644.81	-2337.31	  465.00
     79.4700	  604.00	  644.55	-2367.05	  464.78
     79.5700	  619.00	  644.67	-2352.17	  464.55
     79.6700	  706.00	  645.19	-2265.69	  464.33
     79.7700	  659.00	  646.17	-2313.67	  464.11
     79.8700	  601.00	  647.70	-2373.20	  463.89
     79.9700	  698.00	  649.91	-2278.41	  463.67
     80.0700	  655.00	  653.03	-2324.53	  463.44
     80.1700	  697.00	  657.42	-2286.92	  463.22
     80.2700	  640.00	  663.61	-2350.11	  462.99
     80.3700	  698.00	  672.39	-2300.90	  462.77
     80.4700	  734.00	  684.65	-2277.15	  462.55
     80.5700	  686.00	  702.38	-2342.88	  462.32
     80.6700	  757.00	  727.19	-2296.69	  462.10
     80.7700	  760.00	  761.18	-2327.68	  461.87
     80.8700	  864.00	  806.49	-2268.99	  461.64
     80.9700	  933.00	  864.98	-2258.48	  461.42
     81.0700	 1030.00	  937.80	-2234.30	  461.19
     81.1700	 1034.00	 1024.86	-2317.36	  460.96
     81.2700	 1197.00	 1124.35	-2253.85	  460.74
     81.3700	 1363.00	 1232.33	-2195.83	  460.51
     81.4700	 1392.00	 1342.54	-2277.04	  460.28
     81.5700	 1473.00	 1446.65	-2300.15	  460.05
     81.6700	 1542.00	 1535.12	-2319.62	  459.83
     81.7700	 1641.00	 1599.07	-2284.57	  459.60
     81.8700	 1564.00	 1632.48	-2394.98	  459.37
     81.9700	 1626.00	 1633.32	-2333.82	  459.14
     82.0700	 1590.00	 1603.26	-2339.76	  458.91
     82.1700	 1521.00	 1546.76	-2352.26	  458.68
     82.2700	 1494.00	 1470.50	-2303.00	  458.45
     82.3700	 1361.00	 1382.23	-2347.73	  458.23
     82.4700	 1288.00	 1289.37	-2327.87	  458.00
     82.5700	 1185.00	 1197.94	-2339.44	  457.77
     82.6700	 1102.00	 1112.29	-2336.79	  457.54
     82.7700	 1072.00	 1035.23	-2289.73	  457.31
     82.8700	  948.00	  968.16	-2346.66	  457.08
     82.9700	  884.00	  911.17	-2353.67	  456.85
     83.0700	  861.00	  863.32	-2328.82	  456.62
     83.1700	  825.00	  823.23	-2324.73	  456.39
     83.2700	  766.00	  789.51	-2350.01	  456.16
     83.3700	  731.00	  761.12	-2356.62	  455.93
     83.4700	  691.00	  737.43	-2372.93	  455.70
     83.5700	  673.00	  718.01	-2371.51	  455.46
     83.6700	  676.00	  702.65	-2353.15	  455.23
     83.7700	  687.00	  691.20	-2330.70	  455.00
     83.8700	  730.00	  683.50	-2280.00	  454.77
     83.9700	  651.00	  679.39	-2354.89	  454.54
     84.0700	  648.00	  678.58	-2357.08	  454.31
     84.1700	  664.00	  680.66	-2343.16	  454.08
     84.2700	  681.00	  684.93	-2330.43	  453.85
     84.3700	  649.00	  690.97	-2368.47	  453.62
     84.4700	  686.00	  697.78	-2338.27	  453.39
     84.5700	  717.00	  704.34	-2313.84	  453.16
     84.6700	  702.00	  709.51	-2334.01	  452.93
     84.7700	  726.00	  712.47	-2312.97	  452.70
     84.8700	  673.00	  712.39	-2365.89	  452.47
     84.9700	  688.00	  709.04	-2347.54	  452.24
     85.0700	  647.00	  702.77	-2382.27	  452.01
     85.1700	  658.00	  694.30	-2362.80	  451.78
     85.2700	  700.00	  684.55	-2311.05	  451.55
     85.3700	  690.00	  674.38	-2310.88	  451.33
     85.4700	  655.00	  664.55	-2336.05	  451.10
     85.5700	  659.00	  655.63	-2323.13	  450.87
     85.6700	  617.00	  648.06	-2357.56	  450.64
     85.7700	  618.00	  642.12	-2350.62	  450.41
     85.8700	  639.00	  637.98	-2325.48	  450.18
     85.9700	  626.00	  635.72	-2336.22	  449.96
     86.0700	  663.00	  635.36	-2298.86	  449.73
     86.1700	  654.00	  636.89	-2309.39	  449.50
     86.2700	  660.00	  640.29	-2306.79	  449.27
     86.3700	  617.00	  645.50	-2355.00	  449.05
     86.4700	  643.00	  652.42	-2335.92	  448.82
     86.5700	  616.00	  660.91	-2371.41	  448.59
     86.6700	  669.00	  670.71	-2328.21	  448.37
     86.7700	  670.00	  681.52	-2338.02	  448.14
     86.8700	  655.00	  692.90	-2364.40	  447.92
     86.9700	  758.00	  704.33	-2272.83	  447.69
     87.0700	  683.00	  715.21	-2358.71	  447.47
     87.1700	  732.00	  724.96	-2319.46	  447.24
     87.2700	  705.00	  733.21	-2354.71	  447.02
     87.3700	  767.00	  739.90	-2299.40	  446.80
     87.4700	  694.00	  745.33	-2377.83	  446.57
     87.5700	  709.00	  750.06	-2367.56	  446.35
     87.6700	  694.00	  754.65	-2387.15	  446.13
     87.7700	  784.00	  759.49	-2301.99	  445.91
     87.8700	  722.00	  764.72	-2369.22	  445.69
     87.9700	  725.00	  770.13	-2371.63	  445.46
     88.0700	  766.00	  775.21	-2335.71	  445.24
     88.1700	  739.00	  779.15	-2366.65	  445.02
     88.2700	  780.00	  781.02	-2327.52	  444.80
     88.3700	  758.00	  779.92	-2348.42	  444.59
     88.4700	  787.00	  775.33	-2314.83	  444.37
     88.5700	  717.00	  767.31	-2376.81	  444.15
     88.6700	  732.00	  756.42	-2350.92	  443.93
     88.7700	  730.00	  743.52	-2340.02	  443.72
     88.8700	  788.00	  729.15	-2267.65	  443.50
     88.9700	  703.00	  715.09	-2338.59	  443.28
     89.0700	  659.00	  701.72	-2369.22	  443.07
     89.1700	  699.00	  689.69	-2317.19	  442.85
     89.2700	  672.00	  679.48	-2333.98	  442.64
     89.3700	  731.00	  671.40	-2266.90	  442.43
     89.4700	  698.00	  665.57	-2294.07	  442.21
     89.5700	  623.00	  661.96	-2365.46	  442.00
     89.6700	  654.00	  660.35	-2332.85	  441.79
     89.7700	  690.00	  660.41	-2296.91	  441.58
     89.8700	  690.00	  661.69	-2298.19	  441.37
     89.9700	  664.00	  663.66	-2326.17	  441.16
     90.0700	  741.00	  665.74	-2251.24	  440.95
     90.1700	  711.00	  667.33	-2282.83	  440.74
     90.2700	  744.00	  667.90	-2250.40	  440.54
     90.3700	  655.00	  667.08	-2338.58	  440.33
     90.4700	  660.00	  664.74	-2331.24	  440.12
     90.5700	  688.00	  660.99	-2299.49	  439.92
     90.6700	  659.00	  656.15	-2323.65	  439.72
     90.7700	  653.00	  650.60	-2324.10	  439.51
     90.8700	  673.00	  644.74	-2298.24	  439.31
     90.9700	  645.00	  638.89	-2320.39	  439.11
     91.0700	  616.00	  633.34	-2343.84	  438.91
     91.1700	  602.00	  628.30	-2352.80	  438.71
     91.2700	  625.00	  623.90	-2325.40	  438.51
     91.3700	  648.00	  620.21	-2298.71	  438.31
     91.4700	  607.00	  617.25	-2336.75	  438.11
     91.5700	  624.00	  614.99	-2317.49	  437.91
     91.6700	  578.00	  613.38	-2361.88	  437.72
     91.7700	  619.00	  612.38	-2319.88	  437.52
     91.8700	  639.00	  611.93	-2299.43	  437.33
     91.9700	  631.00	  611.98	-2307.48	  437.14
     92.0700	  596.00	  612.55	-2343.05	  436.94
     92.1700	  576.00	  613.64	-2364.14	  436.75
     92.2700	  599.00	  615.34	-2342.84	  436.56
     92.3700	  636.00	  617.75	-2308.25	  436.37
     92.4700	  592.00	  621.03	-2355.53	  436.18
     92.5700	  599.00	  625.36	-2352.86	  436.00
     92.6700	  635.00	  630.97	-2322.47	  435.81
     92.7700	  637.00	  638.08	-2327.58	  435.63
     92.8700	  691.00	  646.94	-2282.44	  435.44
     92.9700	  619.00	  657.74	-2365.24	  435.26
     93.0700	  639.00	  670.64	-2358.14	  435.08
     93.1700	  731.00	  685.71	-2281.21	  434.89
     93.2700	  655.00	  702.91	-2374.41	  434.71
     93.3700	  719.00	  722.08	-2329.58	  434.53
     93.4700	  710.00	  742.90	-2359.40	  434.36
     93.5700	  772.00	  764.90	-2319.40	  434.18
     93.6700	  779.00	  787.47	-2334.97	  434.00
     93.7700	  754.00	  809.84	-2382.34	  433.83
     93.8700	  791.00	  831.14	-2366.64	  433.66
     93.9700	  777.00	  850.59	-2400.09	  433.48
     94.0700	  834.00	  867.64	-2360.14	  433.31
     94.1700	  824.00	  882.18	-2384.68	  433.14
     94.2700	  880.00	  894.59	-2341.09	  432.97
     94.3700	  841.00	  905.63	-2391.13	  432.81
     94.4700	  888.00	  915.87	-2354.38	  432.64
     94.5700	  911.00	  926.79	-2342.29	  432.47
     94.6700	  959.00	  938.65	-2306.15	  432.31
     94.7700	  972.00	  951.82	-2306.32	  432.15
     94.8700	  948.00	  966.47	-2344.97	  431.99
     94.9700	 1047.00	  982.66	-2262.16	  431.83
     95.0700	  985.00	 1000.37	-2341.87	  431.67
     95.1700	 1034.00	 1019.41	-2311.91	  431.51
     95.2700	 1067.00	 1039.35	-2298.85	  431.35
     95.3700	 1101.00	 1059.33	-2284.83	  431.20
     95.4700	 1099.00	 1078.00	-2305.50	  431.04
     95.5700	 1090.00	 1093.61	-2330.11	  430.89
     95.6700	 1103.00	 1104.15	-2327.65	  430.74
     95.7700	 1074.00	 1107.72	-2360.22	  430.59
     95.8700	 1052.00	 1102.85	-2377.35	  430.44
     95.9700	 1077.00	 1089.03	-2338.53	  430.30
     96.0700	 1087.00	 1066.81	-2306.31	  430.15
     96.1700	  993.00	 1037.70	-2371.20	  430.01
     96.2700	  952.00	 1003.85	-2378.35	  429.86
     96.3700	  934.00	  967.70	-2360.20	  429.72
     96.4700	  993.00	  931.67	-2265.17	  429.58
     96.5700	  912.00	  898.08	-2312.58	  429.44
     96.6700	  928.00	  868.95	-2267.45	  429.31
     96.7700	  909.00	  846.07	-2263.57	  429.17
     96.8700	  856.00	  830.90	-2301.40	  429.04
     96.9700	  879.00	  824.62	-2272.12	  428.90
     97.0700	  850.00	  828.13	-2304.63	  428.77
     97.1700	  894.00	  842.07	-2274.57	  428.64
     97.2700	  857.00	  866.85	-2336.35	  428.52
     97.3700	  956.00	  902.61	-2273.11	  428.39
     97.4700	 1006.00	  949.21	-2269.71	  428.26
     97.5700	  998.00	 1006.15	-2334.65	  428.14
     97.6700	 1100.00	 1072.55	-2299.05	  428.02
     97.7700	 1162.00	 1147.02	-2311.52	  427.90
     97.8700	 1235.00	 1227.60	-2319.10	  427.78
     97.9700	 1264.00	 1311.74	-2374.24	  427.66
     98.0700	 1389.00	 1396.22	-2333.72	  427.55
     98.1700	 1370.00	 1477.21	-2433.71	  427.44
     98.2700	 1551.00	 1550.37	-2325.87	  427.32
     98.3700	 1604.00	 1611.05	-2333.55	  427.21
     98.4700	 1603.00	 1654.88	-2378.38	  427.10
     98.5700	 1656.00	 1678.42	-2348.92	  427.00
     98.6700	 1673.00	 1679.95	-2333.45	  426.89
     98.7700	 1551.00	 1659.85	-2435.35	  426.79
     98.8700	 1552.00	 1620.47	-2394.97	  426.69
     98.9700	 1547.00	 1565.49	-2344.99	  426.59
     99.0700	 1453.00	 1499.33	-2372.83	  426.49
     99.1700	 1395.00	 1426.45	-2357.95	  426.39
     99.2700	 1317.00	 1351.09	-2360.59	  426.30
     99.3700	 1290.00	 1277.03	-2313.53	  426.20
     99.4700	 1199.00	 1207.53	-2335.03	  426.11
     99.5700	 1181.00	 1145.32	-2290.82	  426.02
     99.6700	 1105.00	 1092.60	-2314.10	  425.94
     99.7700	 1063.00	 1051.09	-2314.59	  425.85
     99.8700	 1075.00	 1022.17	-2273.67	  425.77
     99.9700	 1015.00	 1006.80	-2318.30	  425.68
    100.0700	 1136.00	 1005.66	-2196.16	  425.60
    100.1700	 1106.00	 1019.07	-2239.57	  425.52
    100.2700	 1056.00	 1047.09	-2317.59	  425.45
    100.3700	 1131.00	 1089.44	-2284.94	  425.37
    100.4700	 1229.00	 1145.54	-2243.04	  425.30
    100.5700	 1193.00	 1214.40	-2347.90	  425.23
    100.6700	 1370.00	 1294.66	-2251.16	  425.16
    100.7700	 1361.00	 1384.49	-2349.99	  425.09
    100.8700	 1473.00	 1481.57	-2335.07	  425.03
    100.9700	 1570.00	 1582.94	-2339.44	  424.96
    101.0700	 1701.00	 1685.47	-2310.97	  424.90
    101.1700	 1811.00	 1785.37	-2300.87	  424.84
    101.2700	 1881.00	 1878.84	-2324.34	  424.79
    101.3700	 2009.00	 1962.39	-2279.89	  424.73
    101.4700	 1989.00	 2033.20	-2370.70	  424.68
    101.5700	 2038.00	 2089.43	-2377.93	  424.63
    101.6700	 2082.00	 2130.09	-2374.59	  424.58
    101.7700	 2159.00	 2154.79	-2322.29	  424.53
    101.8700	 2200.00	 2163.34	-2289.84	  424.48
    101.9700	 2108.00	 2155.63	-2374.13	  424.44
    102.0700	 2143.00	 2131.78	-2315.28	  424.40
    102.1700	 2091.00	 2092.46	-2327.96	  424.36
    102.2700	 2116.00	 2039.29	-2249.79	  424.32
    102.3700	 1914.00	 1974.97	-2387.47	  424.29
    102.4700	 2027.00	 1903.01	-2202.51	  424.26
    102.5700	 1811.00	 1827.31	-2342.81	  424.23
    102.6700	 1857.00	 1751.60	-2221.10	  424.20
    102.7700	 1698.00	 1679.03	-2307.53	  424.17
    102.8700	 1631.00	 1612.01	-2307.51	  424.15
    102.9700	 1603.00	 1552.11	-2275.61	  424.12
    103.0700	 1565.00	 1500.10	-2261.60	  424.10
    103.1700	 1510.00	 1455.98	-2272.48	  424.09
    103.2700	 1476.00	 1419.06	-2269.56	  424.07
    103.3700	 1370.00	 1388.10	-2344.60	  424.06
    103.4700	 1316.00	 1361.33	-2371.83	  424.05
    103.5700	 1319.00	 1336.73	-2344.23	  424.04
    103.6700	 1301.00	 1312.14	-2337.64	  424.03
    103.7700	 1258.00	 1285.65	-2354.15	  424.03
    103.8700	 1250.00	 1255.81	-2332.31	  424.02
    103.9700	 1179.00	 1221.91	-2369.41	  424.02
    104.0700	 1131.00	 1183.95	-2379.45	  424.03
    104.1700	 1147.00	 1142.53	-2322.03	  424.03
    104.2700	 1119.00	 1098.62	-2306.12	  424.04
    104.3700	 1106.00	 1053.35	-2273.85	  424.05
    104.4700	 1002.00	 1007.87	-2332.37	  424.06
    104.5700	  982.00	  963.21	-2307.71	  424.07
    104.6700	  920.00	  920.29	-2326.79	  424.09
    104.7700	  871.00	  879.88	-2335.38	  424.11
    104.8700	  861.00	  842.52	-2308.02	  424.13
    104.9700	  858.00	  808.55	-2277.05	  424.15
    105.0700	  775.00	  778.35	-2329.85	  424.18
    105.1700	  787.00	  751.90	-2291.40	  424.21
    105.2700	  785.00	  729.14	-2270.64	  424.24
    105.3700	  695.00	  709.87	-2341.37	  424.27
    105.4700	  707.00	  693.86	-2313.36	  424.30
    105.5700	  726.00	  680.76	-2281.26	  424.34
    105.6700	  645.00	  670.26	-2351.76	  424.38
    105.7700	  677.00	  661.97	-2311.47	  424.42
    105.8700	  718.00	  655.68	-2264.18	  424.47
    105.9700	  680.00	  651.05	-2297.55	  424.52
    106.0700	  646.00	  647.87	-2328.37	  424.57
    106.1700	  656.00	  645.94	-2316.44	  424.62
    106.2700	  674.00	  645.13	-2297.63	  424.67
    106.3700	  643.00	  645.35	-2328.85	  424.73
    106.4700	  675.00	  646.56	-2298.06	  424.79
    106.5700	  611.00	  648.75	-2364.25	  424.85
    106.6700	  661.00	  651.93	-2317.43	  424.92
    106.7700	  610.00	  656.15	-2372.65	  424.99
    106.8700	  627.00	  661.48	-2360.98	  425.06
    106.9700	  700.00	  667.96	-2294.46	  425.13
    107.0700	  670.00	  675.65	-2332.15	  425.20
    107.1700	  702.00	  684.60	-2309.10	  425.28
    107.2700	  699.00	  694.80	-2322.30	  425.36
    107.3700	  700.00	  706.22	-2332.72	  425.45
    107.4700	  692.00	  718.75	-2353.25	  425.53
    107.5700	  710.00	  732.23	-2348.73	  425.62
    107.6700	  762.00	  746.46	-2310.96	  425.71
    107.7700	  728.00	  761.13	-2359.63	  425.80
    107.8700	  738.00	  775.89	-2364.39	  425.90
    107.9700	  733.00	  790.32	-2383.82	  426.00
    108.0700	  798.00	  803.96	-2332.46	  426.10
    108.1700	  815.00	  816.34	-2327.84	  426.20
    108.2700	  786.00	  826.98	-2367.48	  426.31
    108.3700	  785.00	  835.49	-2376.99	  426.42
    108.4700	  762.00	  841.61	-2406.11	  426.53
    108.5700	  832.00	  845.23	-2339.73	  426.65
    108.6700	  779.00	  846.54	-2394.04	  426.76
    108.7700	  768.00	  845.86	-2404.36	  426.88
    108.8700	  862.00	  843.63	-2308.13	  427.01
    108.9700	  848.00	  840.41	-2318.91	  427.13
    109.0700	  839.00	  836.73	-2324.23	  427.26
    109.1700	  744.00	  833.07	-2415.57	  427.39
    109.2700	  813.00	  829.83	-2343.33	  427.53
    109.3700	  761.00	  827.32	-2392.82	  427.66
    109.4700	  819.00	  825.73	-2333.23	  427.80
    109.5700	  741.00	  825.10	-2410.60	  427.94
    109.6700	  784.00	  825.38	-2367.88	  428.09
    109.7700	  799.00	  826.40	-2353.90	  428.24
    109.8700	  786.00	  827.86	-2368.36	  428.39
    109.9700	  768.00	  829.38	-2387.88	  428.54
    110.0700	  731.00	  830.51	-2426.01	  428.70
    110.1700	  804.00	  830.78	-2353.28	  428.86
    110.2700	  787.00	  829.78	-2369.28	  429.02
    110.3700	  745.00	  827.17	-2408.67	  429.18
    110.4700	  790.00	  822.73	-2359.23	  429.35
    110.5700	  776.00	  816.44	-2366.94	  429.52
    110.6700	  764.00	  808.41	-2370.91	  429.69
    110.7700	  827.00	  798.90	-2298.40	  429.87
    110.8700	  766.00	  788.21	-2348.71	  430.05
    110.9700	  785.00	  776.71	-2318.21	  430.23
    111.0700	  739.00	  764.75	-2352.25	  430.42
    111.1700	  744.00	  752.67	-2335.17	  430.60
    111.2700	  766.00	  740.77	-2301.27	  430.80
    111.3700	  718.00	  729.30	-2337.80	  430.99
    111.4700	  758.00	  718.48	-2286.98	  431.19
    111.5700	  701.00	  708.48	-2333.98	  431.39
    111.6700	  715.00	  699.44	-2310.94	  431.59
    111.7700	  682.00	  691.43	-2335.93	  431.79
    111.8700	  658.00	  684.50	-2353.00	  432.00
    111.9700	  687.00	  678.66	-2318.16	  432.21
    112.0700	  667.00	  673.89	-2333.39	  432.43
    112.1700	  662.00	  670.14	-2334.64	  432.65
    112.2700	  647.00	  667.35	-2346.85	  432.87
    112.3700	  665.00	  665.43	-2326.93	  433.09
    112.4700	  661.00	  664.27	-2329.77	  433.32
    112.5700	  608.00	  663.80	-2382.30	  433.55
    112.6700	  601.00	  663.90	-2389.40	  433.78
    112.7700	  713.00	  664.48	-2277.98	  434.01
    112.8700	  608.00	  665.44	-2383.94	  434.25
    112.9700	  660.00	  666.70	-2333.20	  434.49
    113.0700	  652.00	  668.19	-2342.69	  434.74
    113.1700	  674.00	  669.84	-2322.34	  434.99
    113.2700	  667.00	  671.62	-2331.12	  435.24
    113.3700	  632.00	  673.50	-2368.00	  435.49
    113.4700	  644.00	  675.48	-2357.98	  435.75
    113.5700	  668.00	  677.56	-2336.06	  436.01
    113.6700	  676.00	  679.79	-2330.29	  436.27
    113.7700	  643.00	  682.19	-2365.69	  436.54
    113.8700	  695.00	  684.81	-2316.31	  436.81
    113.9700	  647.00	  687.75	-2367.25	  437.08
    114.0700	  643.00	  691.06	-2374.56	  437.35
    114.1700	  675.00	  694.87	-2346.37	  437.63
    114.2700	  702.00	  699.28	-2323.78	  437.92
    114.3700	  691.00	  704.46	-2339.96	  438.20
    114.4700	  713.00	  710.61	-2324.11	  438.49
    114.5700	  712.00	  718.00	-2332.50	  438.78
    114.6700	  740.00	  726.95	-2313.45	  439.07
    114.7700	  726.00	  737.92	-2338.42	  439.37
    114.8700	  782.00	  751.45	-2295.95	  439.67
    114.9700	  794.00	  768.23	-2300.73	  439.98
    115.0700	  781.00	  789.13	-2334.63	  440.28
    115.1700	  855.00	  815.24	-2286.74	  440.59
    115.2700	  891.00	  847.84	-2283.34	  440.91
    115.3700	  945.00	  888.50	-2270.00	  441.22
    115.4700	  999.00	  939.02	-2266.52	  441.54
    115.5700	 1088.00	 1001.48	-2239.98	  441.87
    115.6700	 1241.00	 1078.22	-2163.72	  442.19
    115.7700	 1274.00	 1171.83	-2224.33	  442.52
    115.8700	 1471.00	 1285.04	-2140.54	  442.86
    115.9700	 1628.00	 1420.68	-2119.18	  443.19
    116.0700	 1886.00	 1581.54	-2022.04	  443.53
    116.1700	 2064.00	 1770.30	-2032.80	  443.87
    116.2700	 2303.00	 1989.33	-2012.83	  444.22
    116.3700	 2517.00	 2240.45	-2049.95	  444.57
    116.4700	 2872.00	 2524.83	-1979.33	  444.92
    116.5700	 3065.00	 2842.67	-2104.17	  445.28
    116.6700	 3317.00	 3193.21	-2202.71	  445.63
    116.7700	 3825.00	 3574.46	-2075.96	  446.00
    116.8700	 4066.00	 3982.95	-2243.45	  446.36
    116.9700	 4575.00	 4413.84	-2165.34	  446.73
    117.0700	 4841.00	 4860.68	-2346.18	  447.10
    117.1700	 5263.00	 5315.82	-2379.32	  447.48
    117.2700	 5643.00	 5770.18	-2453.68	  447.86
    117.3700	 6023.00	 6213.35	-2516.85	  448.24
    117.4700	 6380.00	 6634.02	-2580.52	  448.62
    117.5700	 6876.00	 7020.19	-2470.69	  449.01
    117.6700	 6999.00	 7359.79	-2687.29	  449.40
    117.7700	 7380.00	 7641.13	-2587.63	  449.80
    117.8700	 7569.00	 7853.63	-2611.13	  450.20
    117.9700	 7635.00	 7988.82	-2680.32	  450.60
    118.0700	 7730.00	 8041.19	-2637.69	  451.00
    118.1700	 7723.00	 8008.84	-2612.34	  451.41
    118.2700	 7586.00	 7893.63	-2634.13	  451.82
    118.3700	 7427.00	 7701.00	-2600.50	  452.24
    118.4700	 7144.00	 7439.34	-2621.84	  452.65
    118.5700	 6776.00	 7119.14	-2669.64	  453.08
    118.6700	 6621.00	 6751.98	-2457.48	  453.50
    118.7700	 6083.00	 6349.80	-2593.30	  453.93
    118.8700	 5724.00	 5924.45	-2526.95	  454.36
    118.9700	 5537.00	 5487.06	-2276.56	  454.80
    119.0700	 5226.00	 5047.82	-2148.32	  455.23
    119.1700	 4943.00	 4615.59	-1999.09	  455.68
    119.2700	 4471.00	 4197.84	-2053.34	  456.12
    119.3700	 4234.00	 3800.75	-1893.25	  456.57
    119.4700	 3757.00	 3428.94	-1998.44	  457.02
    119.5700	 3437.00	 3085.67	-1975.17	  457.48
    119.6700	 3025.00	 2772.76	-2074.26	  457.94
    119.7700	 2739.00	 2490.89	-2078.39	  458.40
    119.8700	 2484.00	 2239.83	-2082.33	  458.86
    119.9700	 2280.00	 2018.52	-2065.02	  459.33
    120.0700	 2161.00	 1825.27	-1990.77	  459.80
    120.1700	 1877.00	 1657.96	-2107.46	  460.28
    120.2700	 1745.00	 1514.19	-2095.69	  460.76
    120.3700	 1584.00	 1391.48	-2133.98	  461.24
    120.4700	 1472.00	 1287.32	-2141.82	  461.73
    120.5700	 1376.00	 1199.30	-2149.80	  462.22
    120.6700	 1248.00	 1125.12	-2203.62	  462.71
    120.7700	 1210.00	 1062.72	-2179.22	  463.21
    120.8700	 1104.00	 1010.27	-2232.77	  463.70
    120.9700	 1059.00	  966.14	-2233.64	  464.21
    121.0700	  999.00	  928.98	-2256.48	  464.71
    121.1700	  958.00	  897.63	-2266.13	  465.22
    121.2700	  925.00	  871.13	-2272.63	  465.74
    121.3700	  839.00	  848.71	-2336.21	  466.25
    121.4700	  815.00	  829.73	-2341.23	  466.77
    121.5700	  811.00	  813.70	-2329.20	  467.30
    121.6700	  818.00	  800.21	-2308.71	  467.82
    121.7700	  768.00	  788.93	-2347.43	  468.35
    121.8700	  781.00	  779.62	-2325.12	  468.89
    121.9700	  715.00	  772.08	-2383.58	  469.43
    122.0700	  760.00	  766.14	-2332.64	  469.97
    122.1700	  736.00	  761.68	-2352.18	  470.51
    122.2700	  767.00	  758.58	-2318.08	  471.06
    122.3700	  706.00	  756.76	-2377.26	  471.61
    122.4700	  701.00	  756.14	-2381.64	  472.16
    122.5700	  709.00	  756.67	-2374.17	  472.72
    122.6700	  749.00	  758.27	-2335.77	  473.28
    122.7700	  685.00	  760.90	-2402.40	  473.85
    122.8700	  710.00	  764.50	-2381.00	  474.42
    122.9700	  747.00	  769.01	-2348.51	  474.99
    123.0700	  733.00	  774.37	-2367.87	  475.56
    123.1700	  734.00	  780.50	-2373.00	  476.14
    123.2700	  753.00	  787.35	-2360.85	  476.72
    123.3700	  743.00	  794.81	-2378.31	  477.31
    123.4700	  765.00	  802.79	-2364.29	  477.90
    123.5700	  768.00	  811.19	-2369.69	  478.49
    123.6700	  809.00	  819.90	-2337.40	  479.09
    123.7700	  843.00	  828.78	-2312.28	  479.69
    123.8700	  768.00	  837.73	-2396.23	  480.29
    123.9700	  817.00	  846.59	-2356.09	  480.89
    124.0700	  789.00	  855.24	-2392.74	  481.50
    124.1700	  784.00	  863.54	-2406.04	  482.12
    124.2700	  841.00	  871.39	-2356.89	  482.73
    124.3700	  808.00	  878.69	-2397.19	  483.35
    124.4700	  854.00	  885.36	-2357.86	  483.98
    124.5700	  867.00	  891.34	-2350.84	  484.60
    124.6700	  874.00	  896.68	-2349.18	  485.23
    124.7700	  904.00	  901.37	-2323.87	  485.87
    124.8700	  818.00	  905.45	-2413.95	  486.51
    124.9700	  781.00	  628.49	-2173.99	  487.15
    125.0700	  856.00	  629.13	-2326.50	  487.79
    125.1700	  852.00	  629.78	-2326.50	  488.44
    125.2700	  793.00	  630.43	-2326.50	  489.09
    125.3700	  847.00	  631.09	-2326.50	  489.74
    125.4700	  860.00	  631.74	-2326.50	  490.40
    125.5700	  847.00	  632.41	-2326.50	  491.06
    125.6700	  845.00	  633.07	-2326.50	  491.73
    125.7700	  842.00	  633.74	-2326.50	  492.40
    125.8700	  862.00	  634.41	-2326.50	  493.07
    125.9700	  851.00	  635.09	-2326.50	  493.74
    126.0700	  874.00	  635.76	-2326.50	  494.42
    126.1700	  848.00	  636.45	-2326.50	  495.11
    126.2700	  834.00	  637.13	-2326.50	  495.79
    126.3700	  876.00	  637.82	-2326.50	  496.48
    126.4700	  781.00	  638.51	-2326.50	  497.17
    126.5700	  808.00	  639.21	-2326.50	  497.87
    126.6700	  720.00	  639.91	-2326.50	  498.57
    126.7700	  778.00	  640.61	-2326.50	  499.27
    126.8700	  824.00	  641.32	-2326.50	  499.98
    126.9700	  816.00	  642.03	-2326.50	  500.69
    127.0700	  756.00	  642.74	-2326.50	  501.40
    127.1700	  756.00	  643.46	-2326.50	  502.12
    127.2700	  767.00	  644.18	-2326.50	  502.84
    127.3700	  656.00	  644.90	-2326.50	  503.56
    127.4700	  707.00	  645.63	-2326.50	  504.29
    127.5700	  685.00	  646.36	-2326.50	  505.02
    127.6700	  709.00	  647.09	-2326.50	  505.75
    127.7700	  701.00	  647.83	-2326.50	  506.49
    127.8700	  679.00	  648.57	-2326.50	  507.23
    127.9700	  655.00	  649.31	-2326.50	  507.97
    128.0700	  717.00	  650.06	-2326.50	  508.72
    128.1700	  674.00	  650.81	-2326.50	  509.47
    128.2700	  728.00	  651.56	-2326.50	  510.22
    128.3700	  677.00	  652.32	-2326.50	  510.98
    128.4700	  685.00	  653.08	-2326.50	  511.74
    128.5700	    0.00	  653.85	-2326.50	  512.50
    128.6700	    0.00	  654.61	-2326.50	  513.27
     12.4534	        	        	        	        	       0	(  0  0  2)	  0  1
     12.4534	        	        	        	        	    -581	(  0  0  2)	  0  1
     25.1465	        	        	        	        	       0	(  0  0  4)	  0  1
     25.1465	        	        	        	        	    -581	(  0  0  4)	  0  1
     28.5852	        	        	        	        	       0	(  1  0  0)	  0  1
     28.5852	        	        	        	        	    -581	(  1  0  0)	  0  1
     29.2894	        	        	        	        	       0	(  1  0  1)	  0  1
     29.2894	        	        	        	        	    -581	(  1  0  1)	  0  1
     31.3159	        	        	        	        	       0	(  1  0  2)	  0  1
     31.3159	        	        	        	        	    -581	(  1  0  2)	  0  1
     34.4554	        	        	        	        	       0	(  1  0  3)	  0  1
     34.4554	        	        	        	        	    -581	(  1  0  3)	  0  1
     38.1641	        	        	        	        	       0	(  0  0  6)	  0  1
     38.1641	        	        	        	        	    -581	(  0  0  6)	  0  1
     38.4725	        	        	        	        	       0	(  1  0  4)	  0  1
     38.4725	        	        	        	        	    -581	(  1  0  4)	  0  1
     43.1699	        	        	        	        	       0	(  1  0  5)	  0  1
     43.1699	        	        	        	        	    -581	(  1  0  5)	  0  1
     48.4077	        	        	        	        	       0	(  1  0  6)	  0  1
     48.4077	        	        	        	        	    -581	(  1  0  6)	  0  1
     50.7043	        	        	        	        	       0	(  1  1  0)	  0  1
     50.7043	        	        	        	        	    -581	(  1  1  0)	  0  1
     51.7191	        	        	        	        	       0	(  0  0  8)	  0  1
     51.7191	        	        	        	        	    -581	(  0  0  8)	  0  1
     52.4469	        	        	        	        	       0	(  1  1  2)	  0  1
     52.4469	        	        	        	        	    -581	(  1  1  2)	  0  1
     54.0985	        	        	        	        	       0	(  1  0  7)	  0  1
     54.0985	        	        	        	        	    -581	(  1  0  7)	  0  1
     57.4517	        	        	        	        	       0	(  1  1  4)	  0  1
     57.4517	        	        	        	        	    -581	(  1  1  4)	  0  1
     59.2804	        	        	        	        	       0	(  2  0  0)	  0  1
     59.2804	        	        	        	        	    -581	(  2  0  0)	  0  1
     59.6767	        	        	        	        	       0	(  2  0  1)	  0  1
     59.6767	        	        	        	        	    -581	(  2  0  1)	  0  1
     60.1965	        	        	        	        	       0	(  1  0  8)	  0  1
     60.1965	        	        	        	        	    -581	(  1  0  8)	  0  1
     60.8562	        	        	        	        	       0	(  2  0  2)	  0  1
     60.8562	        	        	        	        	    -581	(  2  0  2)	  0  1
     62.7928	        	        	        	        	       0	(  2  0  3)	  0  1
     62.7928	        	        	        	        	    -581	(  2  0  3)	  0  1
     65.2388	        	        	        	        	       0	(  1  1  6)	  0  1
     65.2388	        	        	        	        	    -581	(  1  1  6)	  0  1
     65.4495	        	        	        	        	       0	(  2  0  4)	  0  1
     65.4495	        	        	        	        	    -581	(  2  0  4)	  0  1
     66.1073	        	        	        	        	       0	(  0  0 10)	  0  1
     66.1073	        	        	        	        	    -581	(  0  0 10)	  0  1
     66.6889	        	        	        	        	       0	(  1  0  9)	  0  1
     66.6889	        	        	        	        	    -581	(  1  0  9)	  0  1
     68.7857	        	        	        	        	       0	(  2  0  5)	  0  1
     68.7857	        	        	        	        	    -581	(  2  0  5)	  0  1
     72.7649	        	        	        	        	       0	(  2  0  6)	  0  1
     72.7649	        	        	        	        	    -581	(  2  0  6)	  0  1
     73.5918	        	        	        	        	       0	(  1  0 10)	  0  1
     73.5918	        	        	        	        	    -581	(  1  0 10)	  0  1
     75.4072	        	        	        	        	       0	(  1  1  8)	  0  1
     75.4072	        	        	        	        	    -581	(  1  1  8)	  0  1
     77.3615	        	        	        	        	       0	(  2  0  7)	  0  1
     77.3615	        	        	        	        	    -581	(  2  0  7)	  0  1
     80.9506	        	        	        	        	       0	(  1  0 11)	  0  1
     80.9506	        	        	        	        	    -581	(  1  0 11)	  0  1
     81.7676	        	        	        	        	       0	(  2  1  0)	  0  1
     81.7676	        	        	        	        	    -581	(  2  1  0)	  0  1
     81.7934	        	        	        	        	       0	(  0  0 12)	  0  1
     81.7934	        	        	        	        	    -581	(  0  0 12)	  0  1
     82.1126	        	        	        	        	       0	(  2  1  1)	  0  1
     82.1126	        	        	        	        	    -581	(  2  1  1)	  0  1
     82.5668	        	        	        	        	       0	(  2  0  8)	  0  1
     82.5668	        	        	        	        	    -581	(  2  0  8)	  0  1
     83.1460	        	        	        	        	       0	(  2  1  2)	  0  1
     83.1460	        	        	        	        	    -581	(  2  1  2)	  0  1
     84.8636	        	        	        	        	       0	(  2  1  3)	  0  1
     84.8636	        	        	        	        	    -581	(  2  1  3)	  0  1
     87.2610	        	        	        	        	       0	(  2  1  4)	  0  1
     87.2610	        	        	        	        	    -581	(  2  1  4)	  0  1
     87.8618	        	        	        	        	       0	(  1  1 10)	  0  1
     87.8618	        	        	        	        	    -581	(  1  1 10)	  0  1
     88.3954	        	        	        	        	       0	(  2  0  9)	  0  1
     88.3954	        	        	        	        	    -581	(  2  0  9)	  0  1
     88.8457	        	        	        	        	       0	(  1  0 12)	  0  1
     88.8457	        	        	        	        	    -581	(  1  0 12)	  0  1
     90.3371	        	        	        	        	       0	(  2  1  5)	  0  1
     90.3371	        	        	        	        	    -581	(  2  1  5)	  0  1
     94.0994	        	        	        	        	       0	(  2  1  6)	  0  1
     94.0994	        	        	        	        	    -581	(  2  1  6)	  0  1
     94.8938	        	        	        	        	       0	(  2  0 10)	  0  1
     94.8938	        	        	        	        	    -581	(  2  0 10)	  0  1
     95.8563	        	        	        	        	       0	(  3  0  0)	  0  1
     95.8563	        	        	        	        	    -581	(  3  0  0)	  0  1
     96.1999	        	        	        	        	       0	(  3  0  1)	  0  1
     96.1999	        	        	        	        	    -581	(  3  0  1)	  0  1
     97.2322	        	        	        	        	       0	(  3  0  2)	  0  1
     97.2322	        	        	        	        	    -581	(  3  0  2)	  0  1
     97.4093	        	        	        	        	       0	(  1  0 13)	  0  1
     97.4093	        	        	        	        	    -581	(  1  0 13)	  0  1
     98.5705	        	        	        	        	       0	(  2  1  7)	  0  1
     98.5705	        	        	        	        	    -581	(  2  1  7)	  0  1
     98.9583	        	        	        	        	       0	(  3  0  3)	  0  1
     98.9583	        	        	        	        	    -581	(  3  0  3)	  0  1
     99.6347	        	        	        	        	       0	(  0  0 14)	  0  1
     99.6347	        	        	        	        	    -581	(  0  0 14)	  0  1
    101.3891	        	        	        	        	       0	(  3  0  4)	  0  1
    101.3891	        	        	        	        	    -581	(  3  0  4)	  0  1
    102.1559	        	        	        	        	       0	(  2  0 11)	  0  1
    102.1559	        	        	        	        	    -581	(  2  0 11)	  0  1
    103.0101	        	        	        	        	       0	(  1  1 12)	  0  1
    103.0101	        	        	        	        	    -581	(  1  1 12)	  0  1
    103.7983	        	        	        	        	       0	(  2  1  8)	  0  1
    103.7983	        	        	        	        	    -581	(  2  1  8)	  0  1
    104.5463	        	        	        	        	       0	(  3  0  5)	  0  1
    104.5463	        	        	        	        	    -581	(  3  0  5)	  0  1
    106.8594	        	        	        	        	       0	(  1  0 14)	  0  1
    106.8594	        	        	        	        	    -581	(  1  0 14)	  0  1
    108.4689	        	        	        	        	       0	(  3  0  6)	  0  1
    108.4689	        	        	        	        	    -581	(  3  0  6)	  0  1
    109.8727	        	        	        	        	       0	(  2  1  9)	  0  1
    109.8727	        	        	        	        	    -581	(  2  1  9)	  0  1
    110.3524	        	        	        	        	       0	(  2  0 12)	  0  1
    110.3524	        	        	        	        	    -581	(  2  0 12)	  0  1
    113.2261	        	        	        	        	       0	(  3  0  7)	  0  1
    113.2261	        	        	        	        	    -581	(  3  0  7)	  0  1
    116.9564	        	        	        	        	       0	(  2  1 10)	  0  1
    116.9564	        	        	        	        	    -581	(  2  1 10)	  0  1
    117.5855	        	        	        	        	       0	(  1  0 15)	  0  1
    117.5855	        	        	        	        	    -581	(  1  0 15)	  0  1
    118.0373	        	        	        	        	       0	(  2  2  0)	  0  1
    118.0373	        	        	        	        	    -581	(  2  2  0)	  0  1
    118.9390	        	        	        	        	       0	(  3  0  8)	  0  1
    118.9390	        	        	        	        	    -581	(  3  0  8)	  0  1
    119.5986	        	        	        	        	       0	(  2  2  2)	  0  1
    119.5986	        	        	        	        	    -581	(  2  2  2)	  0  1
    119.8008	        	        	        	        	       0	(  2  0 13)	  0  1
    119.8008	        	        	        	        	    -581	(  2  0 13)	  0  1
    121.6938	        	        	        	        	       0	(  0  0 16)	  0  1
    121.6938	        	        	        	        	    -581	(  0  0 16)	  0  1
    122.3725	        	        	        	        	       0	(  1  1 14)	  0  1
    122.3725	        	        	        	        	    -581	(  1  1 14)	  0  1
    124.4405	        	        	        	        	       0	(  2  2  4)	  0  1
    124.4405	        	        	        	        	    -581	(  2  2  4)	  0  1
    125.3564	        	        	        	        	       0	(  2  1 11)	  0  1
    125.3564	        	        	        	        	    -581	(  2  1 11)	  0  1
    125.8281	        	        	        	        	       0	(  3  0  9)	  0  1
    125.8281	        	        	        	        	    -581	(  3  0  9)	  0  1
    126.3543	        	        	        	        	       0	(  3  1  0)	  0  1
    126.3543	        	        	        	        	    -581	(  3  1  0)	  0  1
    126.7802	        	        	        	        	       0	(  3  1  1)	  0  1
    126.7802	        	        	        	        	    -581	(  3  1  1)	  0  1
    128.0725	        	        	        	        	       0	(  3  1  2)	  0  1
    128.0725	        	        	        	        	    -581	(  3  1  2)	  0  1
    130.2792	        	        	        	        	       0	(  3  1  3)	  0  1
    130.2792	        	        	        	        	    -581	(  3  1  3)	  0  1
    130.4007	        	        	        	        	       0	(  1  0 16)	  0  1
    130.4007	        	        	        	        	    -581	(  1  0 16)	  0  1
    131.1608	        	        	        	        	       0	(  2  0 14)	  0  1
    131.1608	        	        	        	        	    -581	(  2  0 14)	  0  1
    133.2328	        	        	        	        	       0	(  2  2  6)	  0  1
    133.2328	        	        	        	        	    -581	(  2  2  6)	  0  1
    133.4968	        	        	        	        	       0	(  3  1  4)	  0  1
    133.4968	        	        	        	        	    -581	(  3  1  4)	  0  1
    134.3313	        	        	        	        	       0	(  3  0 10)	  0  1
    134.3313	        	        	        	        	    -581	(  3  0 10)	  0  1
    135.7251	        	        	        	        	       0	(  2  1 12)	  0  1
    135.7251	        	        	        	        	    -581	(  2  1 12)	  0  1
    137.9079	        	        	        	        	       0	(  3  1  5)	  0  1
    137.9079	        	        	        	        	    -581	(  3  1  5)	  0  1
    143.8804	        	        	        	        	       0	(  3  1  6)	  0  1
    143.8804	        	        	        	        	    -581	(  3  1  6)	  0  1
    145.5140	        	        	        	        	       0	(  3  0 11)	  0  1
    145.5140	        	        	        	        	    -581	(  3  0 11)	  0  1
    146.2443	        	        	        	        	       0	(  2  0 15)	  0  1
    146.2443	        	        	        	        	    -581	(  2  0 15)	  0  1
    147.7006	        	        	        	        	       0	(  1  0 17)	  0  1
    147.7006	        	        	        	        	    -581	(  1  0 17)	  0  1
    148.4576	        	        	        	        	       0	(  2  2  8)	  0  1
    148.4576	        	        	        	        	    -581	(  2  2  8)	  0  1
    149.9264	        	        	        	        	       0	(  2  1 13)	  0  1
    149.9264	        	        	        	        	    -581	(  2  1 13)	  0  1
    152.3134	        	        	        	        	       0	(  3  1  7)	  0  1
    152.3134	        	        	        	        	    -581	(  3  1  7)	  0  1
    153.3585	        	        	        	        	       0	(  1  1 16)	  0  1
    153.3585	        	        	        	        	    -581	(  1  1 16)	  0  1
    158.6909	        	        	        	        	       0	(  0  0 18)	  0  1
    158.6909	        	        	        	        	    -581	(  0  0 18)	  0  1
    164.0328	        	        	        	        	       0	(  4  0  0)	  0  1
    164.0328	        	        	        	        	    -581	(  4  0  0)	  0  1
    164.1262	        	        	        	        	       0	(  3  0 12)	  0  1
    164.1262	        	        	        	        	    -581	(  3  0 12)	  0  1
    165.3334	        	        	        	        	       0	(  4  0  1)	  0  1
    165.3334	        	        	        	        	    -581	(  4  0  1)	  0  1
    167.2449	        	        	        	        	       0	(  3  1  8)	  0  1
    167.2449	        	        	        	        	    -581	(  3  1  8)	  0  1
