MSG Master    CELL:    5.91947   5.91947  23.27995   90.0000   90.0000  120.0000   SPGR: P 63/m m c             TEMP:   1074.85
  1   1280     2.52000     0.00000    -0.12077     0.00000     0.00000    0
    99     0     2
       0.00000      10.00000
     125.00000     130.00000
 2Theta	Yobs	Ycal	Yobs-Ycal	Backg	Posr	(hkl)	K
      0.7700	    0.00	  560.76	-1757.75	  442.08
      0.8700	    0.00	  561.27	-1757.75	  442.59
      0.9700	   40.00	  561.77	-1757.75	  443.09
      1.0700	   35.00	  562.26	-1757.75	  443.59
      1.1700	   35.00	  562.75	-1757.75	  444.07
      1.2700	   44.00	  563.22	-1757.75	  444.54
      1.3700	   46.00	  563.68	-1757.75	  445.01
      1.4700	   93.00	  564.14	-1757.75	  445.46
      1.5700	  320.00	  564.59	-1757.75	  445.91
      1.6700	  465.00	  565.03	-1757.75	  446.35
      1.7700	  578.00	  565.46	-1757.75	  446.78
      1.8700	  665.00	  565.88	-1757.75	  447.20
      1.9700	  679.00	  566.29	-1757.75	  447.61
      2.0700	  786.00	  566.69	-1757.75	  448.01
      2.1700	  752.00	  567.09	-1757.75	  448.41
      2.2700	  787.00	  567.48	-1757.75	  448.80
      2.3700	  743.00	  567.86	-1757.75	  449.18
      2.4700	  716.00	  568.23	-1757.75	  449.55
      2.5700	  642.00	  568.59	-1757.75	  449.91
      2.6700	  670.00	  568.94	-1757.75	  450.26
      2.7700	  603.00	  569.29	-1757.75	  450.61
      2.8700	  655.00	  569.63	-1757.75	  450.95
      2.9700	  591.00	  569.96	-1757.75	  451.28
      3.0700	  606.00	  570.28	-1757.75	  451.60
      3.1700	  597.00	  570.60	-1757.75	  451.92
      3.2700	  607.00	  570.90	-1757.75	  452.22
      3.3700	  721.00	  571.20	-1757.75	  452.52
      3.4700	  766.00	  571.50	-1757.75	  452.82
      3.5700	  791.00	  571.78	-1757.75	  453.10
      3.6700	  886.00	  572.06	-1757.75	  453.38
      3.7700	  945.00	  572.33	-1757.75	  453.65
      3.8700	  902.00	  572.59	-1757.75	  453.91
      3.9700	 1014.00	  572.84	-1757.75	  454.16
      4.0700	 1035.00	  573.09	-1757.75	  454.41
      4.1700	 1121.00	  573.33	-1757.75	  454.65
      4.2700	 1107.00	  573.56	-1757.75	  454.88
      4.3700	 1122.00	  573.79	-1757.75	  455.11
      4.4700	 1033.00	  574.01	-1757.75	  455.33
      4.5700	 1063.00	  574.22	-1757.75	  455.54
      4.6700	 1035.00	  574.42	-1757.75	  455.74
      4.7700	 1009.00	  574.62	-1757.75	  455.94
      4.8700	  985.00	  574.81	-1757.75	  456.13
      4.9700	  991.00	  575.00	-1757.75	  456.32
      5.0700	  946.00	  575.17	-1757.75	  456.50
      5.1700	  993.00	  575.35	-1757.75	  456.67
      5.2700	  920.00	  575.51	-1757.75	  456.83
      5.3700	  912.00	  575.67	-1757.75	  456.99
      5.4700	  868.00	  575.82	-1757.75	  457.14
      5.5700	  805.00	  575.96	-1757.75	  457.29
      5.6700	  854.00	  576.10	-1757.75	  457.42
      5.7700	  777.00	  576.24	-1757.75	  457.56
      5.8700	  771.00	  576.36	-1757.75	  457.68
      5.9700	  750.00	  576.48	-1757.75	  457.80
      6.0700	  823.00	  576.59	-1757.75	  457.92
      6.1700	  780.00	  576.70	-1757.75	  458.02
      6.2700	  788.00	  576.80	-1757.75	  458.12
      6.3700	  787.00	  576.90	-1757.75	  458.22
      6.4700	  752.00	  576.99	-1757.75	  458.31
      6.5700	  769.00	  577.07	-1757.75	  458.39
      6.6700	  684.00	  577.15	-1757.75	  458.47
      6.7700	  671.00	  577.22	-1757.75	  458.54
      6.8700	  695.00	  577.29	-1757.75	  458.61
      6.9700	  729.00	  577.35	-1757.75	  458.67
      7.0700	  726.00	  577.40	-1757.75	  458.72
      7.1700	  697.00	  577.45	-1757.75	  458.77
      7.2700	  706.00	  577.49	-1757.75	  458.82
      7.3700	  680.00	  577.53	-1757.75	  458.85
      7.4700	  689.00	  577.57	-1757.75	  458.89
      7.5700	  700.00	  577.59	-1757.75	  458.91
      7.6700	  617.00	  577.61	-1757.75	  458.94
      7.7700	  682.00	  577.63	-1757.75	  458.95
      7.8700	  638.00	  577.64	-1757.75	  458.96
      7.9700	  596.00	  577.65	-1757.75	  458.97
      8.0700	  617.00	  577.65	-1757.75	  458.97
      8.1700	  628.00	  577.64	-1757.75	  458.97
      8.2700	  620.00	  577.64	-1757.75	  458.96
      8.3700	  584.00	  577.62	-1757.75	  458.94
      8.4700	  633.00	  577.60	-1757.75	  458.92
      8.5700	  616.00	  577.58	-1757.75	  458.90
      8.6700	  604.00	  577.55	-1757.75	  458.87
      8.7700	  599.00	  577.51	-1757.75	  458.84
      8.8700	  667.00	  577.48	-1757.75	  458.80
      8.9700	  618.00	  577.43	-1757.75	  458.75
      9.0700	  636.00	  577.39	-1757.75	  458.71
      9.1700	  578.00	  577.33	-1757.75	  458.65
      9.2700	  597.00	  577.28	-1757.75	  458.60
      9.3700	  575.00	  577.21	-1757.75	  458.53
      9.4700	  599.00	  577.15	-1757.75	  458.47
      9.5700	  606.00	  577.08	-1757.75	  458.40
      9.6700	  643.00	  577.00	-1757.75	  458.32
      9.7700	  654.00	  576.92	-1757.75	  458.24
      9.8700	  573.00	  576.84	-1757.75	  458.16
      9.9700	  659.00	  576.75	-1757.75	  458.07
     10.0700	  601.00	  577.58	-1734.33	  457.98
     10.1700	  564.00	  577.58	-1771.33	  457.88
     10.2700	  586.00	  577.61	-1749.36	  457.78
     10.3700	  607.00	  577.66	-1728.41	  457.68
     10.4700	  592.00	  577.79	-1743.54	  457.57
     10.5700	  565.00	  578.03	-1770.78	  457.46
     10.6700	  608.00	  578.50	-1728.25	  457.34
     10.7700	  622.00	  579.30	-1715.05	  457.22
     10.8700	  600.00	  580.50	-1738.25	  457.09
     10.9700	  595.00	  582.11	-1744.86	  456.97
     11.0700	  584.00	  584.10	-1757.85	  456.83
     11.1700	  576.00	  586.45	-1768.20	  456.70
     11.2700	  562.00	  589.21	-1784.96	  456.56
     11.3700	  594.00	  592.46	-1756.21	  456.42
     11.4700	  649.00	  596.34	-1705.09	  456.27
     11.5700	  587.00	  601.07	-1771.82	  456.12
     11.6700	  573.00	  607.00	-1791.75	  455.96
     11.7700	  614.00	  614.78	-1758.53	  455.81
     11.8700	  637.00	  625.29	-1746.04	  455.65
     11.9700	  712.00	  639.01	-1684.76	  455.48
     12.0700	  670.00	  654.18	-1741.93	  455.31
     12.1700	  688.00	  664.71	-1734.46	  455.14
     12.2700	  681.00	  661.17	-1737.92	  454.97
     12.3700	  639.00	  640.61	-1759.36	  454.79
     12.4700	  652.00	  615.17	-1720.93	  454.61
     12.5700	  645.00	  596.07	-1708.82	  454.43
     12.6700	  578.00	  585.21	-1764.96	  454.24
     12.7700	  554.00	  580.00	-1783.75	  454.05
     12.8700	  584.00	  577.52	-1751.27	  453.86
     12.9700	  576.00	  576.14	-1757.89	  453.66
     13.0700	  565.00	  575.19	-1767.94	  453.46
     13.1700	  539.00	  574.45	-1793.20	  453.26
     13.2700	  581.00	  573.85	-1750.60	  453.06
     13.3700	  550.00	  573.34	-1781.09	  452.85
     13.4700	  562.00	  572.89	-1768.64	  452.64
     13.5700	  556.00	  572.49	-1774.24	  452.42
     13.6700	  554.00	  572.12	-1775.87	  452.21
     13.7700	  552.00	  571.77	-1777.52	  451.99
     13.8700	  553.00	  571.44	-1776.19	  451.77
     13.9700	  619.00	  571.13	-1709.88	  451.54
     14.0700	  559.00	  570.83	-1769.58	  451.32
     14.1700	  570.00	  570.53	-1758.28	  451.09
     14.2700	  570.00	  570.25	-1758.00	  450.86
     14.3700	  582.00	  569.96	-1745.71	  450.62
     14.4700	  518.00	  569.68	-1809.43	  450.38
     14.5700	  544.00	  569.41	-1783.16	  450.14
     14.6700	  544.00	  569.13	-1782.88	  449.90
     14.7700	  552.00	  568.86	-1774.61	  449.66
     14.8700	  590.00	  568.59	-1736.34	  449.41
     14.9700	  582.00	  568.31	-1744.06	  449.16
     15.0700	  517.00	  568.04	-1808.79	  448.91
     15.1700	  543.00	  567.77	-1782.52	  448.66
     15.2700	  584.00	  567.50	-1741.25	  448.41
     15.3700	  545.00	  567.22	-1779.97	  448.15
     15.4700	  545.00	  566.95	-1779.70	  447.89
     15.5700	  532.00	  566.68	-1792.43	  447.63
     15.6700	  529.00	  566.40	-1795.15	  447.36
     15.7700	  596.00	  566.12	-1727.87	  447.10
     15.8700	  532.00	  565.87	-1791.62	  446.83
     15.9700	  573.00	  565.59	-1750.34	  446.56
     16.0700	  578.00	  565.31	-1745.06	  446.29
     16.1700	  548.00	  565.03	-1774.78	  446.02
     16.2700	  572.00	  564.75	-1750.50	  445.74
     16.3700	  577.00	  564.47	-1745.22	  445.47
     16.4700	  544.00	  564.19	-1777.94	  445.19
     16.5700	  586.00	  563.90	-1735.65	  444.91
     16.6700	  601.00	  563.61	-1720.36	  444.63
     16.7700	  551.00	  563.33	-1770.08	  444.34
     16.8700	  549.00	  563.04	-1771.79	  444.06
     16.9700	  573.00	  562.75	-1747.50	  443.77
     17.0700	  517.00	  562.45	-1803.20	  443.48
     17.1700	  566.00	  562.16	-1753.91	  443.19
     17.2700	  525.00	  561.87	-1794.62	  442.90
     17.3700	  543.00	  561.57	-1776.32	  442.61
     17.4700	  507.00	  561.27	-1812.02	  442.31
     17.5700	  576.00	  560.98	-1742.73	  442.02
     17.6700	  514.00	  560.68	-1804.43	  441.72
     17.7700	  584.00	  560.38	-1734.13	  441.42
     17.8700	  503.00	  560.08	-1814.83	  441.12
     17.9700	  579.00	  559.88	-1738.63	  440.82
     18.0700	  569.00	  559.57	-1748.32	  440.52
     18.1700	  552.00	  559.27	-1765.02	  440.22
     18.2700	  571.00	  558.97	-1745.72	  439.91
     18.3700	  534.00	  558.66	-1782.41	  439.60
     18.4700	  515.00	  558.36	-1801.11	  439.30
     18.5700	  536.00	  558.05	-1779.80	  438.99
     18.6700	  540.00	  557.75	-1775.50	  438.68
     18.7700	  536.00	  557.44	-1779.19	  438.37
     18.8700	  585.00	  557.21	-1729.96	  438.06
     18.9700	  572.00	  556.91	-1742.66	  437.74
     19.0700	  554.00	  556.60	-1760.35	  437.43
     19.1700	  563.00	  556.29	-1751.04	  437.12
     19.2700	  545.00	  555.98	-1768.73	  436.80
     19.3700	  548.00	  555.67	-1765.42	  436.48
     19.4700	  564.00	  555.36	-1749.11	  436.17
     19.5700	  548.00	  555.05	-1764.80	  435.85
     19.6700	  561.00	  554.74	-1751.49	  435.53
     19.7700	  546.00	  554.42	-1766.17	  435.21
     19.8700	  540.00	  554.11	-1771.86	  434.89
     19.9700	  532.00	  553.80	-1779.55	  434.57
     20.0700	  573.00	  553.49	-1738.24	  434.25
     20.1700	  599.00	  553.17	-1711.92	  433.92
     20.2700	  526.00	  552.86	-1784.61	  433.60
     20.3700	  549.00	  552.55	-1761.30	  433.28
     20.4700	  544.00	  552.24	-1765.99	  432.95
     20.5700	  550.00	  551.92	-1759.67	  432.63
     20.6700	  554.00	  551.61	-1755.36	  432.30
     20.7700	  540.00	  551.30	-1769.05	  431.98
     20.8700	  600.00	  550.99	-1708.74	  431.65
     20.9700	  540.00	  550.68	-1768.43	  431.32
     21.0700	  578.00	  550.37	-1730.12	  430.99
     21.1700	  504.00	  550.06	-1803.81	  430.67
     21.2700	  557.00	  549.75	-1750.50	  430.34
     21.3700	  540.00	  549.44	-1767.19	  430.01
     21.4700	  561.00	  549.14	-1745.89	  429.68
     21.5700	  580.00	  548.83	-1726.58	  429.35
     21.6700	  533.00	  548.53	-1773.28	  429.02
     21.7700	  541.00	  548.22	-1764.97	  428.69
     21.8700	  600.00	  547.92	-1705.67	  428.36
     21.9700	  545.00	  547.63	-1760.38	  428.03
     22.0700	  564.00	  547.33	-1741.08	  427.70
     22.1700	  540.00	  547.04	-1764.79	  427.37
     22.2700	  576.00	  546.75	-1728.50	  427.04
     22.3700	  508.00	  546.46	-1796.21	  426.70
     22.4700	  562.00	  546.18	-1741.93	  426.37
     22.5700	  555.00	  545.90	-1748.65	  426.04
     22.6700	  555.00	  545.63	-1748.38	  425.71
     22.7700	  570.00	  545.37	-1733.12	  425.38
     22.8700	  535.00	  545.12	-1767.87	  425.05
     22.9700	  551.00	  544.87	-1751.62	  424.71
     23.0700	  545.00	  544.64	-1757.39	  424.38
     23.1700	  557.00	  544.43	-1745.18	  424.05
     23.2700	  530.00	  544.24	-1771.99	  423.72
     23.3700	  538.00	  544.07	-1763.82	  423.39
     23.4700	  545.00	  543.94	-1756.69	  423.05
     23.5700	  535.00	  544.01	-1766.76	  422.72
     23.6700	  549.00	  544.00	-1752.75	  422.39
     23.7700	  571.00	  544.11	-1730.86	  422.06
     23.8700	  545.00	  544.43	-1757.18	  421.73
     23.9700	  568.00	  545.19	-1734.94	  421.40
     24.0700	  585.00	  546.76	-1719.51	  421.07
     24.1700	  515.00	  549.74	-1792.49	  420.74
     24.2700	  570.00	  554.89	-1742.64	  420.41
     24.3700	  591.00	  563.05	-1729.80	  420.08
     24.4700	  591.00	  575.01	-1741.76	  419.75
     24.5700	  612.00	  590.76	-1736.51	  419.42
     24.6700	  605.00	  607.62	-1760.37	  419.09
     24.7700	  629.00	  618.83	-1747.58	  418.76
     24.8700	  629.00	  615.65	-1744.40	  418.43
     24.9700	  606.00	  597.38	-1749.13	  418.10
     25.0700	  590.00	  575.41	-1743.16	  417.77
     25.1700	  577.00	  558.74	-1739.49	  417.45
     25.2700	  544.00	  549.00	-1762.75	  417.12
     25.3700	  585.00	  544.20	-1716.95	  416.79
     25.4700	  522.00	  541.92	-1777.67	  416.47
     25.5700	  525.00	  540.69	-1773.44	  416.14
     25.6700	  584.00	  539.90	-1713.65	  415.82
     25.7700	  584.00	  539.32	-1713.07	  415.49
     25.8700	  498.00	  538.88	-1798.63	  415.17
     25.9700	  546.00	  538.55	-1750.30	  414.85
     26.0700	  576.00	  538.31	-1720.06	  414.52
     26.1700	  556.00	  538.15	-1739.90	  414.20
     26.2700	  540.00	  538.06	-1755.81	  413.88
     26.3700	  542.00	  538.05	-1753.80	  413.56
     26.4700	  586.00	  538.13	-1709.88	  413.24
     26.5700	  549.00	  538.30	-1747.05	  412.92
     26.6700	  549.00	  538.59	-1747.34	  412.60
     26.7700	  544.00	  539.02	-1752.77	  412.28
     26.8700	  537.00	  539.62	-1760.37	  411.96
     26.9700	  559.00	  540.45	-1739.20	  411.65
     27.0700	  573.00	  541.58	-1726.33	  411.33
     27.1700	  519.00	  543.14	-1781.89	  411.01
     27.2700	  562.00	  545.38	-1741.13	  410.70
     27.3700	  570.00	  548.79	-1736.54	  410.39
     27.4700	  558.00	  554.36	-1754.11	  410.07
     27.5700	  543.00	  563.80	-1778.55	  409.76
     27.6700	  563.00	  579.88	-1774.63	  409.45
     27.7700	  554.00	  606.19	-1809.94	  409.14
     27.8700	  598.00	  645.90	-1805.65	  408.83
     27.9700	  669.00	  699.29	-1788.04	  408.52
     28.0700	  739.00	  760.46	-1779.21	  408.21
     28.1700	  911.00	  814.47	-1661.22	  407.90
     28.2700	  949.00	  838.42	-1647.17	  407.60
     28.3700	  918.00	  817.89	-1657.64	  407.29
     28.4700	  798.00	  773.22	-1732.97	  406.99
     28.5700	  670.00	  740.33	-1828.08	  406.69
     28.6700	  694.00	  736.30	-1800.05	  406.38
     28.7700	  752.00	  757.17	-1762.92	  406.08
     28.8700	  821.00	  783.86	-1720.61	  405.78
     28.9700	  757.00	  789.11	-1789.86	  405.48
     29.0700	  765.00	  754.78	-1747.53	  405.18
     29.1700	  696.00	  694.64	-1756.39	  404.89
     29.2700	  695.00	  636.39	-1699.14	  404.59
     29.3700	  591.00	  593.85	-1760.60	  404.29
     29.4700	  626.00	  567.81	-1699.56	  404.00
     29.5700	  541.00	  553.59	-1770.34	  403.71
     29.6700	  627.00	  546.04	-1676.79	  403.41
     29.7700	  560.00	  541.79	-1739.54	  403.12
     29.8700	  566.00	  539.17	-1730.92	  402.83
     29.9700	  538.00	  537.53	-1757.28	  402.54
     30.0700	  543.00	  536.72	-1751.47	  402.26
     30.1700	  541.00	  536.89	-1753.64	  401.97
     30.2700	  543.00	  538.58	-1753.33	  401.68
     30.3700	  554.00	  542.83	-1746.58	  401.40
     30.4700	  552.00	  551.21	-1756.96	  401.12
     30.5700	  596.00	  565.33	-1727.08	  400.84
     30.6700	  543.00	  585.63	-1800.38	  400.56
     30.7700	  625.00	  609.63	-1742.38	  400.28
     30.8700	  601.00	  630.68	-1787.43	  400.00
     30.9700	  622.00	  638.47	-1774.22	  399.72
     31.0700	  623.00	  625.82	-1760.57	  399.45
     31.1700	  573.00	  599.17	-1783.92	  399.17
     31.2700	  538.00	  572.00	-1791.75	  398.90
     31.3700	  566.00	  551.64	-1743.39	  398.63
     31.4700	  535.00	  539.05	-1761.80	  398.36
     31.5700	  548.00	  532.22	-1741.97	  398.09
     31.6700	  578.00	  528.67	-1708.42	  397.82
     31.7700	  505.00	  526.73	-1779.48	  397.55
     31.8700	  506.00	  525.53	-1777.28	  397.29
     31.9700	  555.00	  524.71	-1727.46	  397.02
     32.0700	  564.00	  524.16	-1717.91	  396.76
     32.1700	  532.00	  523.80	-1749.55	  396.50
     32.2700	  544.00	  523.61	-1737.36	  396.24
     32.3700	  567.00	  523.59	-1714.34	  395.98
     32.4700	  532.00	  523.74	-1749.49	  395.72
     32.5700	  577.00	  524.07	-1704.82	  395.47
     32.6700	  537.00	  524.63	-1745.38	  395.21
     32.7700	  539.00	  525.46	-1744.21	  394.96
     32.8700	  552.00	  526.63	-1732.38	  394.71
     32.9700	  497.00	  528.29	-1789.04	  394.46
     33.0700	  516.00	  530.67	-1772.42	  394.21
     33.1700	  586.00	  534.28	-1706.03	  393.96
     33.2700	  587.00	  540.30	-1711.05	  393.71
     33.3700	  564.00	  551.16	-1744.91	  393.47
     33.4700	  563.00	  571.51	-1766.26	  393.23
     33.5700	  583.00	  608.57	-1783.32	  392.99
     33.6700	  649.00	  670.40	-1779.15	  392.75
     33.7700	  754.00	  760.40	-1764.15	  392.51
     33.8700	  921.00	  868.69	-1705.44	  392.27
     33.9700	 1011.00	  966.75	-1713.50	  392.03
     34.0700	 1093.00	 1010.80	-1675.55	  391.80
     34.1700	 1089.00	  968.13	-1636.88	  391.57
     34.2700	  919.00	  860.33	-1699.08	  391.34
     34.3700	  764.00	  742.84	-1736.59	  391.11
     34.4700	  649.00	  650.54	-1759.29	  390.88
     34.5700	  608.00	  591.37	-1741.12	  390.65
     34.6700	  561.00	  558.59	-1755.34	  390.43
     34.7700	  571.00	  541.77	-1728.52	  390.20
     34.8700	  489.00	  532.93	-1801.68	  389.98
     34.9700	  528.00	  527.69	-1757.44	  389.76
     35.0700	  512.00	  524.09	-1769.84	  389.54
     35.1700	  497.00	  521.40	-1782.15	  389.33
     35.2700	  536.00	  519.28	-1741.03	  389.11
     35.3700	  486.00	  517.57	-1789.32	  388.90
     35.4700	  491.00	  516.16	-1782.91	  388.68
     35.5700	  516.00	  514.97	-1756.72	  388.47
     35.6700	  543.00	  513.96	-1728.71	  388.26
     35.7700	  488.00	  513.08	-1782.83	  388.06
     35.8700	  496.00	  512.32	-1774.07	  387.85
     35.9700	  558.00	  512.12	-1711.87	  387.64
     36.0700	  524.00	  511.53	-1745.28	  387.44
     36.1700	  518.00	  511.00	-1750.75	  387.24
     36.2700	  483.00	  510.52	-1785.27	  387.04
     36.3700	  513.00	  510.10	-1754.85	  386.84
     36.4700	  514.00	  509.72	-1753.47	  386.65
     36.5700	  510.00	  509.38	-1757.13	  386.45
     36.6700	  519.00	  509.09	-1747.84	  386.26
     36.7700	  487.00	  508.86	-1779.61	  386.07
     36.8700	  487.00	  508.70	-1779.45	  385.88
     36.9700	  483.00	  508.69	-1783.44	  385.69
     37.0700	  533.00	  508.96	-1733.71	  385.50
     37.1700	  561.00	  509.76	-1706.51	  385.32
     37.2700	  500.00	  511.44	-1769.19	  385.13
     37.3700	  543.00	  514.29	-1729.04	  384.95
     37.4700	  553.00	  518.26	-1723.01	  384.77
     37.5700	  567.00	  522.65	-1713.40	  384.59
     37.6700	  567.00	  526.05	-1716.80	  384.42
     37.7700	  539.00	  526.89	-1745.65	  384.24
     37.8700	  516.00	  524.93	-1766.68	  384.07
     37.9700	  520.00	  521.48	-1759.23	  383.90
     38.0700	  480.00	  517.70	-1795.45	  383.73
     38.1700	  493.00	  514.04	-1778.79	  383.56
     38.2700	  572.00	  510.84	-1696.59	  383.39
     38.3700	  528.00	  508.37	-1738.12	  383.23
     38.4700	  517.00	  506.66	-1747.41	  383.06
     38.5700	  505.00	  505.53	-1758.28	  382.90
     38.6700	  500.00	  504.72	-1762.47	  382.74
     38.7700	  512.00	  504.26	-1750.01	  382.59
     38.8700	  477.00	  503.92	-1784.67	  382.43
     38.9700	  477.00	  503.65	-1784.40	  382.27
     39.0700	  504.00	  503.42	-1757.17	  382.12
     39.1700	  470.00	  503.13	-1790.88	  381.97
     39.2700	  499.00	  502.95	-1761.70	  381.82
     39.3700	  527.00	  502.91	-1733.66	  381.67
     39.4700	  473.00	  502.76	-1787.51	  381.53
     39.5700	  499.00	  502.61	-1761.36	  381.38
     39.6700	  462.00	  502.48	-1798.23	  381.24
     39.7700	  484.00	  502.36	-1776.11	  381.10
     39.8700	  520.00	  502.25	-1740.00	  380.96
     39.9700	  481.00	  502.14	-1778.89	  380.82
     40.0700	  509.00	  502.05	-1750.80	  380.68
     40.1700	  511.00	  501.97	-1748.72	  380.55
     40.2700	  499.00	  501.90	-1760.65	  380.42
     40.3700	  478.00	  501.84	-1781.59	  380.29
     40.4700	  511.00	  501.80	-1748.55	  380.16
     40.5700	  518.00	  501.77	-1741.52	  380.03
     40.6700	  530.00	  501.76	-1729.51	  379.90
     40.7700	  489.00	  501.77	-1770.52	  379.78
     40.8700	  483.00	  501.80	-1776.55	  379.66
     40.9700	  523.00	  501.86	-1736.61	  379.54
     41.0700	  520.00	  501.96	-1739.71	  379.42
     41.1700	  487.00	  502.10	-1772.85	  379.30
     41.2700	  459.00	  502.25	-1801.00	  379.19
     41.3700	  524.00	  502.51	-1736.26	  379.07
     41.4700	  497.00	  503.30	-1764.05	  378.96
     41.5700	  474.00	  503.78	-1787.53	  378.85
     41.6700	  501.00	  504.44	-1761.19	  378.74
     41.7700	  486.00	  505.43	-1777.18	  378.63
     41.8700	  492.00	  507.08	-1772.83	  378.53
     41.9700	  484.00	  510.09	-1783.84	  378.43
     42.0700	  533.00	  515.77	-1740.52	  378.32
     42.1700	  528.00	  526.16	-1755.91	  378.22
     42.2700	  511.00	  543.48	-1790.23	  378.12
     42.3700	  501.00	  568.92	-1825.67	  378.03
     42.4700	  552.00	  600.32	-1806.07	  377.93
     42.5700	  570.00	  630.91	-1818.66	  377.84
     42.6700	  554.00	  649.78	-1853.53	  377.75
     42.7700	  594.00	  646.92	-1810.67	  377.66
     42.8700	  606.00	  623.28	-1775.03	  377.57
     42.9700	  557.00	  590.47	-1791.22	  377.48
     43.0700	  603.00	  559.66	-1714.41	  377.40
     43.1700	  467.00	  536.36	-1827.11	  377.32
     43.2700	  546.00	  521.34	-1733.09	  377.23
     43.3700	  529.00	  512.79	-1741.54	  377.15
     43.4700	  511.00	  508.28	-1755.03	  377.08
     43.5700	  485.00	  505.90	-1778.65	  377.00
     43.6700	  524.00	  504.73	-1738.48	  376.92
     43.7700	  482.00	  503.89	-1779.64	  376.85
     43.8700	  493.00	  503.26	-1768.01	  376.78
     43.9700	  502.00	  502.79	-1758.54	  376.71
     44.0700	  510.00	  502.43	-1750.18	  376.64
     44.1700	  459.00	  502.15	-1800.90	  376.58
     44.2700	  493.00	  501.94	-1766.69	  376.51
     44.3700	  519.00	  501.78	-1740.53	  376.45
     44.4700	  478.00	  501.67	-1781.42	  376.39
     44.5700	  503.00	  501.45	-1756.20	  376.33
     44.6700	  535.00	  501.41	-1724.16	  376.27
     44.7700	  511.00	  501.39	-1748.14	  376.21
     44.8700	  522.00	  501.41	-1737.16	  376.16
     44.9700	  490.00	  501.45	-1769.20	  376.10
     45.0700	  491.00	  501.51	-1768.26	  376.05
     45.1700	  491.00	  501.77	-1768.52	  376.00
     45.2700	  464.00	  501.88	-1795.63	  375.95
     45.3700	  523.00	  502.01	-1736.76	  375.91
     45.4700	  473.00	  502.17	-1786.92	  375.86
     45.5700	  508.00	  502.34	-1752.09	  375.82
     45.6700	  482.00	  502.55	-1778.30	  375.78
     45.7700	  515.00	  502.78	-1745.53	  375.74
     45.8700	  501.00	  503.04	-1759.79	  375.70
     45.9700	  517.00	  503.33	-1744.08	  375.66
     46.0700	  490.00	  503.66	-1771.41	  375.62
     46.1700	  502.00	  504.03	-1759.78	  375.59
     46.2700	  488.00	  504.44	-1774.19	  375.56
     46.3700	  489.00	  504.91	-1773.66	  375.53
     46.4700	  529.00	  505.44	-1734.19	  375.50
     46.5700	  512.00	  506.04	-1751.79	  375.47
     46.6700	  541.00	  506.73	-1723.48	  375.44
     46.7700	  562.00	  507.55	-1703.30	  375.42
     46.8700	  500.00	  508.56	-1766.31	  375.40
     46.9700	  519.00	  509.89	-1748.64	  375.38
     47.0700	  532.00	  511.92	-1737.67	  375.36
     47.1700	  484.00	  515.05	-1788.80	  375.34
     47.2700	  552.00	  520.26	-1726.01	  375.32
     47.3700	  533.00	  528.70	-1753.45	  375.31
     47.4700	  542.00	  541.36	-1757.11	  375.29
     47.5700	  541.00	  558.29	-1775.04	  375.28
     47.6700	  542.00	  577.71	-1793.46	  375.27
     47.7700	  632.00	  595.53	-1721.28	  375.26
     47.8700	  581.00	  605.90	-1782.65	  375.25
     47.9700	  595.00	  604.57	-1767.32	  375.25
     48.0700	  594.00	  592.87	-1756.62	  375.24
     48.1700	  586.00	  576.60	-1748.35	  375.24
     48.2700	  528.00	  561.28	-1791.03	  375.24
     48.3700	  525.00	  549.97	-1782.72	  375.24
     48.4700	  529.00	  543.51	-1772.26	  375.24
     48.5700	  486.00	  541.37	-1813.12	  375.24
     48.6700	  535.00	  542.50	-1765.25	  375.25
     48.7700	  541.00	  546.00	-1762.75	  375.25
     48.8700	  530.00	  551.43	-1779.18	  375.26
     48.9700	  573.00	  558.84	-1743.59	  375.27
     49.0700	  547.00	  568.87	-1779.62	  375.28
     49.1700	  546.00	  583.16	-1794.91	  375.29
     49.2700	  666.00	  605.14	-1696.89	  375.30
     49.3700	  673.00	  641.65	-1726.40	  375.32
     49.4700	  679.00	  703.06	-1781.81	  375.33
     49.5700	  786.00	  805.51	-1777.26	  375.35
     49.6700	  888.00	  967.08	-1836.83	  375.37
     49.7700	 1105.00	 1201.45	-1854.20	  375.39
     49.8700	 1417.00	 1507.23	-1847.98	  375.41
     49.9700	 1817.00	 1856.39	-1797.14	  375.43
     50.0700	 2197.00	 2185.07	-1745.82	  375.46
     50.1700	 2548.00	 2397.52	-1607.27	  375.48
     50.2700	 2458.00	 2407.09	-1706.84	  375.51
     50.3700	 2265.00	 2207.27	-1700.02	  375.54
     50.4700	 1840.00	 1882.16	-1799.91	  375.57
     50.5700	 1452.00	 1533.19	-1838.94	  375.60
     50.6700	 1070.00	 1228.16	-1915.91	  375.63
     50.7700	  815.00	  996.82	-1939.57	  375.66
     50.8700	  730.00	  840.98	-1868.73	  375.70
     50.9700	  635.00	  745.75	-1868.50	  375.74
     51.0700	  629.00	  690.34	-1819.09	  375.77
     51.1700	  620.00	  655.98	-1793.73	  375.81
     51.2700	  633.00	  630.46	-1755.21	  375.85
     51.3700	  584.00	  608.81	-1782.56	  375.89
     51.4700	  625.00	  590.24	-1722.99	  375.94
     51.5700	  555.00	  575.11	-1777.86	  375.98
     51.6700	  580.00	  563.60	-1741.35	  376.03
     51.7700	  528.00	  555.41	-1785.16	  376.07
     51.8700	  569.00	  549.89	-1738.64	  376.12
     51.9700	  580.00	  546.34	-1724.09	  376.17
     52.0700	  567.00	  544.43	-1735.18	  376.22
     52.1700	  578.00	  543.38	-1723.13	  376.27
     52.2700	  548.00	  543.31	-1753.06	  376.32
     52.3700	  556.00	  544.36	-1746.11	  376.38
     52.4700	  527.00	  547.02	-1777.77	  376.43
     52.5700	  556.00	  552.45	-1754.20	  376.49
     52.6700	  561.00	  563.01	-1759.76	  376.55
     52.7700	  632.00	  582.82	-1708.57	  376.61
     52.8700	  645.00	  617.98	-1730.73	  376.67
     52.9700	  753.00	  675.59	-1680.34	  376.73
     53.0700	  768.00	  761.09	-1750.84	  376.79
     53.1700	  942.00	  874.08	-1689.83	  376.85
     53.2700	 1067.00	 1003.87	-1694.62	  376.92
     53.3700	 1128.00	 1126.88	-1756.63	  376.98
     53.4700	 1198.00	 1208.80	-1768.55	  377.05
     53.5700	 1109.00	 1218.29	-1867.04	  377.12
     53.6700	 1104.00	 1150.67	-1804.42	  377.19
     53.7700	  931.00	 1033.20	-1859.95	  377.26
     53.8700	  845.00	  902.14	-1814.89	  377.33
     53.9700	  768.00	  784.16	-1773.91	  377.40
     54.0700	  684.00	  692.62	-1766.37	  377.47
     54.1700	  613.00	  629.73	-1774.48	  377.55
     54.2700	  576.00	  590.87	-1772.62	  377.62
     54.3700	  578.00	  568.89	-1748.64	  377.70
     54.4700	  595.00	  557.26	-1720.01	  377.78
     54.5700	  565.00	  551.36	-1744.11	  377.86
     54.6700	  563.00	  548.57	-1743.32	  377.94
     54.7700	  575.00	  547.49	-1730.24	  378.02
     54.8700	  526.00	  547.51	-1779.26	  378.10
     54.9700	  540.00	  548.37	-1766.12	  378.18
     55.0700	  575.00	  550.03	-1732.78	  378.27
     55.1700	  623.00	  552.43	-1687.18	  378.35
     55.2700	  559.00	  555.68	-1754.43	  378.44
     55.3700	  553.00	  559.89	-1764.64	  378.52
     55.4700	  554.00	  565.30	-1769.05	  378.61
     55.5700	  588.00	  572.34	-1742.09	  378.70
     55.6700	  582.00	  581.81	-1757.56	  378.79
     55.7700	  570.00	  595.46	-1783.21	  378.88
     55.8700	  640.00	  616.68	-1734.43	  378.97
     55.9700	  624.00	  651.75	-1785.50	  379.06
     56.0700	  679.00	  710.99	-1789.74	  379.16
     56.1700	  749.00	  809.18	-1817.93	  379.25
     56.2700	  923.00	  963.62	-1798.37	  379.34
     56.3700	 1097.00	 1189.07	-1849.82	  379.44
     56.4700	 1380.00	 1489.47	-1867.22	  379.54
     56.5700	 1834.00	 1848.54	-1772.29	  379.64
     56.6700	 2118.00	 2222.53	-1862.28	  379.73
     56.7700	 2375.00	 2537.58	-1920.33	  379.83
     56.8700	 2597.00	 2703.56	-1864.31	  379.93
     56.9700	 2655.00	 2659.14	-1761.89	  380.03
     57.0700	 2345.00	 2421.47	-1834.22	  380.14
     57.1700	 2054.00	 2072.00	-1775.75	  380.24
     57.2700	 1689.00	 1698.83	-1767.58	  380.34
     57.3700	 1332.00	 1363.67	-1789.42	  380.45
     57.4700	  993.00	 1097.94	-1862.69	  380.55
     57.5700	  870.00	  908.43	-1796.18	  380.66
     57.6700	  756.00	  785.79	-1787.54	  380.76
     57.7700	  753.00	  714.04	-1718.79	  380.87
     57.8700	  735.00	  677.74	-1700.49	  380.98
     57.9700	  701.00	  665.83	-1722.58	  381.09
     58.0700	  697.00	  672.28	-1733.03	  381.20
     58.1700	  748.00	  694.94	-1704.69	  381.31
     58.2700	  795.00	  733.72	-1696.47	  381.42
     58.3700	  808.00	  788.72	-1738.47	  381.53
     58.4700	  987.00	  858.63	-1629.38	  381.64
     58.5700	 1080.00	  939.20	-1616.95	  381.75
     58.6700	 1239.00	 1022.59	-1541.34	  381.87
     58.7700	 1273.00	 1099.60	-1584.35	  381.98
     58.8700	 1432.00	 1163.80	-1489.55	  382.10
     58.9700	 1567.00	 1211.72	-1402.47	  382.21
     59.0700	 1503.00	 1238.74	-1493.49	  382.33
     59.1700	 1516.00	 1240.43	-1482.18	  382.44
     59.2700	 1452.00	 1219.88	-1525.63	  382.56
     59.3700	 1390.00	 1188.56	-1556.31	  382.68
     59.4700	 1164.00	 1158.69	-1752.44	  382.80
     59.5700	 1185.00	 1138.97	-1711.72	  382.92
     59.6700	 1204.00	 1137.26	-1691.01	  383.04
     59.7700	 1186.00	 1162.45	-1734.20	  383.16
     59.8700	 1194.00	 1219.89	-1783.64	  383.28
     59.9700	 1361.00	 1305.41	-1702.16	  383.40
     60.0700	 1437.00	 1402.47	-1723.22	  383.52
     60.1700	 1546.00	 1482.85	-1694.60	  383.64
     60.2700	 1664.00	 1513.54	-1607.29	  383.76
     60.3700	 1602.00	 1473.64	-1629.39	  383.89
     60.4700	 1461.00	 1369.36	-1666.11	  384.01
     60.5700	 1303.00	 1227.56	-1682.31	  384.14
     60.6700	 1119.00	 1077.47	-1716.22	  384.26
     60.7700	  985.00	  940.56	-1713.31	  384.39
     60.8700	  752.00	  829.08	-1834.83	  384.51
     60.9700	  684.00	  747.37	-1821.12	  384.64
     61.0700	  635.00	  694.50	-1817.25	  384.76
     61.1700	  644.00	  667.25	-1781.00	  384.89
     61.2700	  666.00	  662.83	-1754.58	  385.02
     61.3700	  621.00	  680.60	-1817.35	  385.15
     61.4700	  654.00	  722.26	-1826.01	  385.27
     61.5700	  763.00	  790.68	-1785.43	  385.40
     61.6700	  891.00	  887.59	-1754.34	  385.53
     61.7700	 1012.00	 1010.64	-1756.39	  385.66
     61.8700	 1083.00	 1150.97	-1825.72	  385.79
     61.9700	 1209.00	 1291.34	-1840.09	  385.92
     62.0700	 1309.00	 1406.15	-1854.90	  386.05
     62.1700	 1369.00	 1466.12	-1854.87	  386.18
     62.2700	 1329.00	 1451.79	-1880.54	  386.31
     62.3700	 1246.00	 1367.39	-1879.14	  386.44
     62.4700	 1169.00	 1237.62	-1826.37	  386.57
     62.5700	 1027.00	 1091.64	-1822.39	  386.70
     62.6700	  890.00	  952.27	-1820.02	  386.84
     62.7700	  769.00	  833.50	-1822.25	  386.97
     62.8700	  685.00	  741.19	-1813.94	  387.10
     62.9700	  646.00	  675.02	-1786.77	  387.23
     63.0700	  586.00	  630.88	-1802.63	  387.37
     63.1700	  581.00	  603.24	-1779.99	  387.50
     63.2700	  589.00	  586.96	-1755.71	  387.63
     63.3700	  612.00	  578.19	-1723.94	  387.77
     63.4700	  569.00	  574.63	-1763.38	  387.90
     63.5700	  543.00	  575.46	-1790.21	  388.03
     63.6700	  590.00	  581.08	-1748.83	  388.17
     63.7700	  578.00	  592.89	-1772.64	  388.30
     63.8700	  650.00	  612.92	-1720.67	  388.44
     63.9700	  652.00	  643.32	-1749.07	  388.57
     64.0700	  744.00	  685.51	-1699.26	  388.70
     64.1700	  785.00	  739.31	-1712.06	  388.84
     64.2700	  852.00	  801.96	-1707.71	  388.97
     64.3700	  913.00	  867.47	-1712.22	  389.11
     64.4700	 1014.00	  926.59	-1670.34	  389.24
     64.5700	  938.00	  967.83	-1787.58	  389.38
     64.6700	 1054.00	  983.47	-1687.22	  389.51
     64.7700	 1031.00	  970.68	-1697.43	  389.65
     64.8700	  989.00	  933.95	-1702.70	  389.78
     64.9700	  997.00	  881.85	-1642.60	  389.92
     65.0700	  846.00	  824.00	-1735.75	  390.05
     65.1700	  806.00	  768.42	-1720.17	  390.19
     65.2700	  749.00	  719.83	-1728.58	  390.32
     65.3700	  653.00	  679.75	-1784.50	  390.46
     65.4700	  671.00	  647.73	-1734.48	  390.59
     65.5700	  633.00	  622.69	-1747.44	  390.73
     65.6700	  636.00	  603.52	-1725.27	  390.86
     65.7700	  587.00	  589.24	-1759.99	  391.00
     65.8700	  594.00	  578.98	-1742.73	  391.13
     65.9700	  542.00	  572.01	-1787.76	  391.27
     66.0700	  540.00	  567.75	-1785.50	  391.40
     66.1700	  530.00	  565.69	-1793.44	  391.54
     66.2700	  544.00	  565.42	-1779.17	  391.67
     66.3700	  562.00	  566.65	-1762.40	  391.81
     66.4700	  549.00	  569.35	-1778.10	  391.94
     66.5700	  566.00	  573.38	-1765.13	  392.08
     66.6700	  598.00	  579.26	-1739.01	  392.21
     66.7700	  588.00	  587.92	-1757.67	  392.34
     66.8700	  581.00	  601.13	-1777.88	  392.48
     66.9700	  595.00	  621.94	-1784.69	  392.61
     67.0700	  670.00	  655.10	-1742.85	  392.74
     67.1700	  710.00	  707.31	-1755.06	  392.88
     67.2700	  744.00	  786.98	-1800.73	  393.01
     67.3700	  898.00	  903.11	-1762.86	  393.14
     67.4700	 1034.00	 1062.68	-1786.43	  393.28
     67.5700	 1306.00	 1268.08	-1719.83	  393.41
     67.6700	 1558.00	 1513.40	-1713.15	  393.54
     67.7700	 1739.00	 1782.35	-1801.10	  393.67
     67.8700	 2090.00	 2046.01	-1713.76	  393.80
     67.9700	 2260.00	 2264.33	-1762.08	  393.93
     68.0700	 2494.00	 2392.45	-1656.20	  394.07
     68.1700	 2473.00	 2397.61	-1682.36	  394.20
     68.2700	 2317.00	 2278.44	-1719.19	  394.33
     68.3700	 2022.00	 2065.70	-1801.45	  394.46
     68.4700	 1826.00	 1804.24	-1735.99	  394.59
     68.5700	 1536.00	 1534.91	-1756.66	  394.72
     68.6700	 1269.00	 1287.39	-1776.14	  394.84
     68.7700	 1060.00	 1079.03	-1776.78	  394.97
     68.8700	  881.00	  916.46	-1793.21	  395.10
     68.9700	  742.00	  797.84	-1813.59	  395.23
     69.0700	  699.00	  716.24	-1774.99	  395.36
     69.1700	  687.00	  662.78	-1733.53	  395.48
     69.2700	  602.00	  628.95	-1784.70	  395.61
     69.3700	  613.00	  607.90	-1752.65	  395.74
     69.4700	  600.00	  594.74	-1752.49	  395.86
     69.5700	  595.00	  586.28	-1749.03	  395.99
     69.6700	  577.00	  580.65	-1761.40	  396.11
     69.7700	  598.00	  576.78	-1736.53	  396.24
     69.8700	  580.00	  574.12	-1751.87	  396.36
     69.9700	  532.00	  572.40	-1798.15	  396.49
     70.0700	  581.00	  571.47	-1748.22	  396.61
     70.1700	  579.00	  571.28	-1750.03	  396.73
     70.2700	  545.00	  571.85	-1784.60	  396.86
     70.3700	  570.00	  573.30	-1761.05	  396.98
     70.4700	  579.00	  575.90	-1754.65	  397.10
     70.5700	  603.00	  580.16	-1734.91	  397.22
     70.6700	  572.00	  587.01	-1772.76	  397.34
     70.7700	  575.00	  598.04	-1780.79	  397.46
     70.8700	  582.00	  615.75	-1791.50	  397.58
     70.9700	  644.00	  643.80	-1757.55	  397.70
     71.0700	  643.00	  687.03	-1801.78	  397.81
     71.1700	  708.00	  751.10	-1800.85	  397.93
     71.2700	  865.00	  841.66	-1734.41	  398.05
     71.3700	 1019.00	  962.81	-1701.56	  398.16
     71.4700	 1046.00	 1116.11	-1827.86	  398.28
     71.5700	 1265.00	 1295.43	-1788.18	  398.40
     71.6700	 1428.00	 1490.52	-1820.27	  398.51
     71.7700	 1650.00	 1682.98	-1790.73	  398.62
     71.8700	 1829.00	 1847.68	-1776.43	  398.74
     71.9700	 1924.00	 1956.10	-1789.85	  398.85
     72.0700	 1961.00	 1984.82	-1781.57	  398.96
     72.1700	 1867.00	 1926.93	-1817.68	  399.07
     72.2700	 1684.00	 1796.33	-1870.08	  399.18
     72.3700	 1718.00	 1619.16	-1658.91	  399.29
     72.4700	 1497.00	 1424.27	-1685.02	  399.40
     72.5700	 1385.00	 1233.92	-1606.67	  399.51
     72.6700	 1166.00	 1063.71	-1655.46	  399.62
     72.7700	 1026.00	  922.13	-1653.88	  399.72
     72.8700	  985.00	  811.50	-1584.25	  399.83
     72.9700	  859.00	  729.67	-1628.42	  399.93
     73.0700	  781.00	  671.91	-1648.66	  400.04
     73.1700	  762.00	  632.62	-1628.37	  400.14
     73.2700	  688.00	  606.54	-1676.29	  400.25
     73.3700	  616.00	  589.39	-1731.14	  400.35
     73.4700	  566.00	  578.03	-1769.78	  400.45
     73.5700	  589.00	  570.35	-1739.10	  400.55
     73.6700	  597.00	  565.05	-1725.80	  400.65
     73.7700	  586.00	  561.36	-1733.11	  400.75
     73.8700	  602.00	  558.84	-1714.59	  400.85
     73.9700	  594.00	  557.21	-1720.96	  400.95
     74.0700	  617.00	  556.29	-1697.04	  401.04
     74.1700	  597.00	  555.92	-1716.67	  401.14
     74.2700	  604.00	  555.93	-1709.68	  401.23
     74.3700	  665.00	  556.11	-1648.86	  401.33
     74.4700	  617.00	  556.23	-1696.98	  401.42
     74.5700	  591.00	  556.07	-1722.82	  401.51
     74.6700	  614.00	  555.46	-1699.21	  401.60
     74.7700	  644.00	  554.37	-1668.12	  401.70
     74.8700	  652.00	  552.94	-1658.69	  401.78
     74.9700	  655.00	  551.38	-1654.13	  401.87
     75.0700	  574.00	  550.00	-1733.75	  401.96
     75.1700	  564.00	  549.07	-1742.82	  402.05
     75.2700	  559.00	  548.89	-1747.64	  402.13
     75.3700	  576.00	  549.94	-1731.69	  402.22
     75.4700	  569.00	  552.58	-1741.33	  402.30
     75.5700	  567.00	  557.29	-1748.04	  402.39
     75.6700	  550.00	  564.78	-1772.53	  402.47
     75.7700	  579.00	  575.42	-1754.17	  402.55
     75.8700	  603.00	  589.51	-1744.26	  402.63
     75.9700	  621.00	  606.98	-1743.73	  402.71
     76.0700	  607.00	  627.28	-1778.03	  402.79
     76.1700	  617.00	  649.24	-1789.99	  402.87
     76.2700	  686.00	  671.04	-1742.79	  402.94
     76.3700	  701.00	  690.26	-1747.01	  403.02
     76.4700	  741.00	  704.11	-1720.86	  403.09
     76.5700	  692.00	  710.11	-1775.86	  403.16
     76.6700	  691.00	  707.00	-1773.75	  403.24
     76.7700	  693.00	  695.39	-1760.14	  403.31
     76.8700	  658.00	  677.46	-1777.21	  403.38
     76.9700	  644.00	  655.80	-1769.55	  403.45
     77.0700	  621.00	  633.36	-1770.11	  403.51
     77.1700	  568.00	  611.97	-1801.72	  403.58
     77.2700	  569.00	  593.02	-1781.77	  403.65
     77.3700	  595.00	  577.25	-1740.00	  403.71
     77.4700	  545.00	  564.85	-1777.60	  403.78
     77.5700	  529.00	  555.57	-1784.32	  403.84
     77.6700	  518.00	  548.93	-1788.69	  403.90
     77.7700	  481.00	  544.38	-1821.13	  403.96
     77.8700	  513.00	  541.36	-1786.11	  404.02
     77.9700	  521.00	  539.39	-1776.14	  404.08
     78.0700	  523.00	  538.13	-1772.88	  404.13
     78.1700	  474.00	  537.32	-1821.07	  404.19
     78.2700	  484.00	  536.81	-1810.56	  404.24
     78.3700	  549.00	  536.48	-1745.23	  404.30
     78.4700	  533.00	  536.30	-1761.05	  404.35
     78.5700	  534.00	  536.23	-1759.98	  404.40
     78.6700	  566.00	  536.28	-1728.03	  404.45
     78.7700	  528.00	  536.45	-1766.20	  404.50
     78.8700	  536.00	  536.78	-1758.53	  404.55
     78.9700	  504.00	  537.30	-1791.05	  404.59
     79.0700	  549.00	  538.05	-1746.80	  404.64
     79.1700	  531.00	  539.11	-1765.86	  404.68
     79.2700	  536.00	  540.33	-1762.08	  404.73
     79.3700	  513.00	  542.15	-1786.90	  404.77
     79.4700	  490.00	  544.42	-1812.17	  404.81
     79.5700	  531.00	  547.19	-1773.94	  404.85
     79.6700	  541.00	  550.50	-1767.25	  404.89
     79.7700	  580.00	  554.42	-1732.17	  404.92
     79.8700	  541.00	  559.02	-1775.77	  404.96
     79.9700	  540.00	  564.42	-1782.17	  404.99
     80.0700	  595.00	  570.80	-1733.55	  405.02
     80.1700	  596.00	  578.44	-1740.19	  405.06
     80.2700	  569.00	  587.68	-1776.43	  405.09
     80.3700	  599.00	  598.84	-1757.59	  405.12
     80.4700	  590.00	  612.09	-1779.84	  405.14
     80.5700	  590.00	  627.34	-1795.09	  405.17
     80.6700	  599.00	  644.20	-1802.95	  405.20
     80.7700	  650.00	  661.86	-1769.61	  405.22
     80.8700	  602.00	  679.20	-1834.95	  405.24
     80.9700	  689.00	  694.89	-1763.64	  405.26
     81.0700	  702.00	  707.68	-1763.43	  405.28
     81.1700	  712.00	  716.58	-1762.33	  405.30
     81.2700	  767.00	  720.93	-1711.68	  405.32
     81.3700	  789.00	  720.44	-1689.19	  405.34
     81.4700	  744.00	  715.22	-1728.97	  405.35
     81.5700	  756.00	  705.79	-1707.54	  405.37
     81.6700	  732.00	  692.87	-1718.62	  405.38
     81.7700	  726.00	  677.37	-1709.12	  405.39
     81.8700	  719.00	  660.30	-1699.05	  405.40
     81.9700	  700.00	  642.75	-1700.50	  405.41
     82.0700	  703.00	  625.66	-1680.41	  405.41
     82.1700	  625.00	  609.92	-1742.67	  405.42
     82.2700	  628.00	  595.95	-1725.70	  405.42
     82.3700	  633.00	  583.98	-1708.73	  405.43
     82.4700	  617.00	  574.10	-1714.85	  405.43
     82.5700	  567.00	  566.22	-1756.97	  405.43
     82.6700	  573.00	  560.33	-1745.08	  405.43
     82.7700	  569.00	  556.26	-1745.01	  405.42
     82.8700	  540.00	  553.91	-1771.66	  405.42
     82.9700	  558.00	  553.15	-1752.90	  405.42
     83.0700	  538.00	  553.91	-1773.66	  405.41
     83.1700	  535.00	  556.08	-1778.83	  405.40
     83.2700	  528.00	  559.55	-1789.30	  405.39
     83.3700	  526.00	  564.15	-1795.90	  405.38
     83.4700	  498.00	  569.63	-1829.38	  405.37
     83.5700	  542.00	  575.63	-1791.38	  405.35
     83.6700	  557.00	  581.66	-1782.41	  405.34
     83.7700	  550.00	  587.17	-1794.92	  405.32
     83.8700	  577.00	  591.51	-1772.26	  405.31
     83.9700	  553.00	  594.05	-1798.80	  405.29
     84.0700	  583.00	  594.38	-1769.13	  405.27
     84.1700	  564.00	  592.39	-1786.14	  405.24
     84.2700	  568.00	  588.37	-1778.12	  405.22
     84.3700	  523.00	  582.86	-1817.61	  405.19
     84.4700	  543.00	  576.49	-1791.24	  405.17
     84.5700	  546.00	  569.84	-1781.59	  405.14
     84.6700	  524.00	  563.37	-1797.12	  405.11
     84.7700	  501.00	  557.43	-1814.18	  405.08
     84.8700	  535.00	  552.26	-1775.01	  405.05
     84.9700	  547.00	  547.97	-1758.72	  405.02
     85.0700	  580.00	  544.56	-1722.31	  404.98
     85.1700	  531.00	  541.99	-1768.74	  404.94
     85.2700	  581.00	  540.16	-1716.91	  404.91
     85.3700	  544.00	  538.95	-1752.70	  404.87
     85.4700	  528.00	  538.26	-1768.01	  404.83
     85.5700	  493.00	  538.00	-1802.75	  404.78
     85.6700	  490.00	  538.12	-1805.88	  404.74
     85.7700	  531.00	  538.61	-1765.36	  404.70
     85.8700	  512.00	  539.47	-1785.22	  404.65
     85.9700	  533.00	  540.78	-1765.53	  404.60
     86.0700	  543.00	  542.62	-1757.37	  404.55
     86.1700	  507.00	  545.14	-1795.89	  404.50
     86.2700	  559.00	  548.48	-1747.23	  404.45
     86.3700	  533.00	  552.82	-1777.57	  404.40
     86.4700	  558.00	  558.30	-1758.05	  404.34
     86.5700	  552.00	  565.05	-1770.80	  404.28
     86.6700	  573.00	  573.07	-1757.82	  404.23
     86.7700	  589.00	  581.94	-1750.69	  404.17
     86.8700	  613.00	  592.04	-1736.79	  404.11
     86.9700	  628.00	  602.58	-1732.33	  404.04
     87.0700	  654.00	  612.94	-1716.69	  403.98
     87.1700	  650.00	  622.32	-1730.07	  403.91
     87.2700	  680.00	  629.86	-1707.61	  403.85
     87.3700	  669.00	  634.70	-1723.45	  403.78
     87.4700	  641.00	  636.19	-1752.94	  403.71
     87.5700	  653.00	  634.15	-1738.90	  403.64
     87.6700	  652.00	  628.89	-1734.64	  403.57
     87.7700	  644.00	  621.17	-1734.92	  403.49
     87.8700	  697.00	  611.93	-1672.68	  403.42
     87.9700	  601.00	  602.15	-1758.90	  403.34
     88.0700	  588.00	  592.68	-1762.43	  403.26
     88.1700	  595.00	  584.26	-1747.01	  403.18
     88.2700	  608.00	  577.44	-1727.19	  403.10
     88.3700	  593.00	  572.55	-1737.30	  403.02
     88.4700	  568.00	  569.78	-1759.53	  402.93
     88.5700	  561.00	  569.12	-1765.87	  402.85
     88.6700	  532.00	  570.38	-1796.13	  402.76
     88.7700	  584.00	  573.29	-1747.04	  402.67
     88.8700	  646.00	  577.42	-1689.17	  402.58
     88.9700	  613.00	  582.29	-1727.04	  402.49
     89.0700	  621.00	  587.31	-1724.06	  402.40
     89.1700	  627.00	  591.91	-1722.66	  402.30
     89.2700	  628.00	  595.46	-1725.21	  402.21
     89.3700	  596.00	  597.44	-1759.19	  402.11
     89.4700	  609.00	  597.51	-1746.26	  402.01
     89.5700	  667.00	  595.60	-1686.35	  401.91
     89.6700	  557.00	  591.92	-1792.67	  401.81
     89.7700	  560.00	  586.89	-1784.64	  401.71
     89.8700	  564.00	  580.99	-1774.74	  401.60
     89.9700	  507.00	  574.71	-1825.46	  401.50
     90.0700	  564.00	  568.46	-1762.21	  401.39
     90.1700	  485.00	  562.56	-1835.31	  401.28
     90.2700	  509.00	  557.25	-1806.00	  401.17
     90.3700	  544.00	  552.68	-1766.43	  401.06
     90.4700	  525.00	  548.90	-1781.65	  400.95
     90.5700	  509.00	  545.91	-1794.66	  400.84
     90.6700	  486.00	  543.67	-1815.42	  400.72
     90.7700	  491.00	  542.07	-1808.82	  400.60
     90.8700	  545.00	  541.05	-1753.80	  400.48
     90.9700	  512.00	  540.51	-1786.26	  400.37
     91.0700	  512.00	  540.40	-1786.15	  400.24
     91.1700	  507.00	  540.67	-1791.42	  400.12
     91.2700	  531.00	  541.35	-1768.10	  400.00
     91.3700	  525.00	  542.47	-1775.22	  399.87
     91.4700	  546.00	  544.11	-1755.86	  399.75
     91.5700	  581.00	  546.41	-1723.16	  399.62
     91.6700	  495.00	  549.51	-1812.26	  399.49
     91.7700	  561.00	  553.61	-1750.36	  399.36
     91.8700	  542.00	  558.91	-1774.66	  399.23
     91.9700	  537.00	  565.39	-1786.14	  399.09
     92.0700	  543.00	  573.68	-1788.43	  398.96
     92.1700	  559.00	  583.69	-1782.44	  398.82
     92.2700	  554.00	  595.45	-1799.20	  398.68
     92.3700	  593.00	  608.93	-1773.68	  398.55
     92.4700	  601.00	  623.93	-1780.68	  398.41
     92.5700	  652.00	  640.16	-1745.91	  398.26
     92.6700	  665.00	  657.16	-1749.91	  398.12
     92.7700	  697.00	  674.36	-1735.11	  397.98
     92.8700	  674.00	  691.09	-1774.84	  397.83
     92.9700	  722.00	  706.63	-1742.38	  397.69
     93.0700	  705.00	  720.41	-1773.16	  397.54
     93.1700	  793.00	  732.10	-1696.85	  397.39
     93.2700	  762.00	  741.78	-1737.53	  397.24
     93.3700	  805.00	  749.84	-1702.59	  397.09
     93.4700	  780.00	  756.91	-1734.66	  396.93
     93.5700	  861.00	  763.60	-1660.35	  396.78
     93.6700	  804.00	  770.51	-1724.26	  396.62
     93.7700	  847.00	  778.15	-1688.90	  396.47
     93.8700	  875.00	  787.02	-1669.77	  396.31
     93.9700	  812.00	  797.56	-1743.31	  396.15
     94.0700	  808.00	  810.16	-1759.91	  395.99
     94.1700	  903.00	  824.94	-1679.69	  395.83
     94.2700	  885.00	  841.69	-1714.44	  395.67
     94.3700	  888.00	  859.73	-1729.48	  395.50
     94.4700	  930.00	  877.94	-1705.69	  395.34
     94.5700	  907.00	  894.79	-1745.54	  395.17
     94.6700	  910.00	  908.45	-1756.20	  395.00
     94.7700	 1002.00	  917.03	-1672.78	  394.83
     94.8700	  972.00	  918.93	-1704.68	  394.66
     94.9700	  927.00	  913.23	-1743.98	  394.49
     95.0700	  824.00	  900.01	-1833.76	  394.32
     95.1700	  868.00	  880.25	-1770.00	  394.15
     95.2700	  818.00	  855.63	-1795.38	  393.97
     95.3700	  825.00	  828.14	-1760.89	  393.80
     95.4700	  832.00	  799.84	-1725.59	  393.62
     95.5700	  768.00	  772.69	-1762.44	  393.44
     95.6700	  744.00	  748.49	-1762.24	  393.26
     95.7700	  739.00	  728.86	-1747.61	  393.08
     95.8700	  708.00	  715.26	-1765.01	  392.90
     95.9700	  707.00	  708.94	-1759.69	  392.72
     96.0700	  668.00	  710.98	-1800.73	  392.54
     96.1700	  714.00	  722.30	-1766.05	  392.35
     96.2700	  741.00	  743.56	-1760.31	  392.17
     96.3700	  762.00	  775.18	-1770.93	  391.98
     96.4700	  800.00	  817.22	-1774.97	  391.79
     96.5700	  866.00	  869.30	-1761.05	  391.60
     96.6700	  908.00	  930.51	-1780.26	  391.41
     96.7700	  996.00	  999.34	-1761.09	  391.22
     96.8700	 1058.00	 1073.59	-1773.34	  391.03
     96.9700	 1130.00	 1150.35	-1778.10	  390.84
     97.0700	 1242.00	 1226.06	-1741.81	  390.64
     97.1700	 1301.00	 1296.62	-1753.37	  390.45
     97.2700	 1337.00	 1357.56	-1778.31	  390.25
     97.3700	 1346.00	 1404.42	-1816.17	  390.06
     97.4700	 1375.00	 1433.39	-1816.14	  389.86
     97.5700	 1408.00	 1442.08	-1791.83	  389.66
     97.6700	 1403.00	 1430.04	-1784.79	  389.46
     97.7700	 1437.00	 1398.85	-1719.60	  389.26
     97.8700	 1316.00	 1351.68	-1793.43	  389.06
     97.9700	 1261.00	 1292.55	-1789.30	  388.86
     98.0700	 1290.00	 1225.87	-1693.62	  388.66
     98.1700	 1179.00	 1155.81	-1734.56	  388.45
     98.2700	 1076.00	 1086.22	-1767.97	  388.25
     98.3700	  994.00	 1020.47	-1784.22	  388.05
     98.4700	  918.00	  961.35	-1801.10	  387.84
     98.5700	  925.00	  911.16	-1743.91	  387.63
     98.6700	  893.00	  871.65	-1736.40	  387.42
     98.7700	  814.00	  844.13	-1787.88	  387.22
     98.8700	  778.00	  829.58	-1809.33	  387.01
     98.9700	  811.00	  828.65	-1775.40	  386.80
     99.0700	  782.00	  841.76	-1817.51	  386.59
     99.1700	  800.00	  869.14	-1826.89	  386.38
     99.2700	  889.00	  910.80	-1779.55	  386.16
     99.3700	  917.00	  966.54	-1807.29	  385.95
     99.4700	  953.00	 1035.82	-1840.57	  385.74
     99.5700	 1075.00	 1117.72	-1800.47	  385.52
     99.6700	 1222.00	 1210.84	-1746.59	  385.31
     99.7700	 1255.00	 1313.20	-1815.95	  385.09
     99.8700	 1435.00	 1422.08	-1744.83	  384.88
     99.9700	 1537.00	 1534.09	-1754.84	  384.66
    100.0700	 1707.00	 1645.12	-1695.87	  384.44
    100.1700	 1762.00	 1750.69	-1746.44	  384.23
    100.2700	 1868.00	 1846.22	-1735.97	  384.01
    100.3700	 1951.00	 1927.59	-1734.34	  383.79
    100.4700	 2070.00	 1991.52	-1679.27	  383.57
    100.5700	 2038.00	 2035.73	-1755.48	  383.35
    100.6700	 2100.00	 2058.79	-1716.54	  383.13
    100.7700	 2202.00	 2059.90	-1615.65	  382.91
    100.8700	 2128.00	 2038.94	-1668.69	  382.69
    100.9700	 2025.00	 1996.72	-1729.47	  382.46
    101.0700	 2028.00	 1935.37	-1665.12	  382.24
    101.1700	 1867.00	 1858.38	-1749.13	  382.02
    101.2700	 1766.00	 1770.32	-1762.07	  381.80
    101.3700	 1748.00	 1676.35	-1686.10	  381.57
    101.4700	 1604.00	 1581.50	-1735.25	  381.35
    101.5700	 1484.00	 1490.21	-1763.96	  381.12
    101.6700	 1439.00	 1406.02	-1724.77	  380.90
    101.7700	 1337.00	 1331.41	-1752.16	  380.67
    101.8700	 1282.00	 1267.85	-1743.60	  380.45
    101.9700	 1166.00	 1215.75	-1807.50	  380.22
    102.0700	 1188.00	 1174.54	-1744.29	  380.00
    102.1700	 1132.00	 1142.79	-1768.54	  379.77
    102.2700	 1073.00	 1118.43	-1803.18	  379.54
    102.3700	 1148.00	 1098.94	-1708.69	  379.32
    102.4700	 1088.00	 1081.60	-1751.35	  379.09
    102.5700	 1054.00	 1063.84	-1767.59	  378.86
    102.6700	  994.00	 1043.58	-1807.33	  378.64
    102.7700	  976.00	 1019.49	-1801.24	  378.41
    102.8700	  984.00	  991.09	-1764.84	  378.18
    102.9700	  973.00	  958.65	-1743.40	  377.95
    103.0700	  910.00	  922.95	-1770.70	  377.73
    103.1700	  867.00	  885.11	-1775.86	  377.50
    103.2700	  852.00	  846.31	-1752.06	  377.27
    103.3700	  800.00	  807.73	-1765.48	  377.04
    103.4700	  818.00	  770.44	-1710.19	  376.81
    103.5700	  748.00	  735.32	-1745.07	  376.59
    103.6700	  674.00	  703.07	-1786.82	  376.36
    103.7700	  682.00	  674.17	-1749.93	  376.13
    103.8700	  637.00	  648.88	-1769.63	  375.90
    103.9700	  614.00	  627.26	-1771.01	  375.67
    104.0700	  622.00	  609.22	-1744.97	  375.45
    104.1700	  560.00	  594.53	-1792.28	  375.22
    104.2700	  584.00	  582.88	-1756.63	  374.99
    104.3700	  547.00	  573.90	-1784.65	  374.76
    104.4700	  603.00	  567.23	-1721.98	  374.54
    104.5700	  528.00	  562.49	-1792.24	  374.31
    104.6700	  533.00	  559.33	-1784.08	  374.08
    104.7700	  570.00	  557.46	-1745.21	  373.85
    104.8700	  524.00	  556.59	-1790.34	  373.63
    104.9700	  549.00	  556.55	-1765.30	  373.40
    105.0700	  554.00	  557.15	-1760.90	  373.18
    105.1700	  577.00	  558.26	-1739.01	  372.95
    105.2700	  524.00	  559.78	-1793.53	  372.73
    105.3700	  531.00	  561.70	-1788.45	  372.50
    105.4700	  560.00	  564.01	-1761.76	  372.28
    105.5700	  503.00	  566.73	-1821.48	  372.05
    105.6700	  575.00	  569.96	-1752.71	  371.83
    105.7700	  550.00	  573.79	-1781.54	  371.61
    105.8700	  557.00	  578.32	-1779.07	  371.38
    105.9700	  576.00	  583.68	-1765.43	  371.16
    106.0700	  587.00	  589.92	-1760.67	  370.94
    106.1700	  606.00	  597.07	-1748.82	  370.72
    106.2700	  575.00	  605.12	-1787.87	  370.50
    106.3700	  612.00	  613.96	-1759.71	  370.28
    106.4700	  598.00	  623.45	-1783.20	  370.06
    106.5700	  655.00	  633.35	-1736.10	  369.84
    106.6700	  644.00	  643.38	-1757.13	  369.62
    106.7700	  626.00	  653.21	-1784.96	  369.40
    106.8700	  660.00	  662.45	-1760.20	  369.19
    106.9700	  665.00	  670.74	-1763.49	  368.97
    107.0700	  651.00	  677.70	-1784.45	  368.76
    107.1700	  672.00	  683.05	-1768.80	  368.54
    107.2700	  650.00	  686.64	-1794.39	  368.33
    107.3700	  681.00	  688.47	-1765.22	  368.12
    107.4700	  696.00	  688.71	-1750.46	  367.90
    107.5700	  663.00	  687.69	-1782.44	  367.69
    107.6700	  642.00	  685.80	-1801.55	  367.48
    107.7700	  660.00	  683.48	-1781.23	  367.27
    107.8700	  672.00	  681.12	-1766.87	  367.07
    107.9700	  710.00	  679.06	-1726.81	  366.86
    108.0700	  699.00	  677.53	-1736.28	  366.65
    108.1700	  662.00	  676.67	-1772.42	  366.45
    108.2700	  696.00	  676.49	-1738.24	  366.24
    108.3700	  675.00	  676.90	-1759.65	  366.04
    108.4700	  684.00	  677.71	-1751.46	  365.84
    108.5700	  662.00	  678.61	-1774.36	  365.64
    108.6700	  713.00	  679.26	-1724.01	  365.44
    108.7700	  692.00	  679.28	-1745.03	  365.24
    108.8700	  661.00	  678.29	-1775.04	  365.04
    108.9700	  695.00	  676.00	-1738.75	  364.85
    109.0700	  669.00	  672.24	-1760.99	  364.65
    109.1700	  693.00	  666.94	-1731.69	  364.46
    109.2700	  686.00	  660.20	-1731.95	  364.27
    109.3700	  588.00	  652.23	-1821.98	  364.08
    109.4700	  624.00	  643.30	-1777.05	  363.89
    109.5700	  655.00	  633.72	-1736.47	  363.70
    109.6700	  600.00	  623.81	-1781.56	  363.51
    109.7700	  643.00	  613.88	-1728.63	  363.33
    109.8700	  575.00	  604.19	-1786.94	  363.15
    109.9700	  618.00	  594.99	-1734.74	  362.96
    110.0700	  609.00	  586.46	-1735.21	  362.78
    110.1700	  589.00	  578.76	-1747.51	  362.61
    110.2700	  613.00	  571.97	-1716.72	  362.43
    110.3700	  521.00	  566.15	-1802.90	  362.25
    110.4700	  592.00	  561.30	-1727.05	  362.08
    110.5700	  577.00	  557.40	-1738.15	  361.91
    110.6700	  546.00	  554.39	-1766.14	  361.74
    110.7700	  536.00	  552.21	-1773.96	  361.57
    110.8700	  566.00	  550.77	-1742.52	  361.40
    110.9700	  568.00	  549.99	-1739.74	  361.24
    111.0700	  544.00	  549.78	-1763.53	  361.08
    111.1700	  539.00	  550.06	-1768.81	  360.92
    111.2700	  545.00	  550.76	-1763.51	  360.76
    111.3700	  564.00	  551.82	-1745.57	  360.60
    111.4700	  523.00	  553.18	-1787.93	  360.45
    111.5700	  519.00	  554.81	-1793.56	  360.29
    111.6700	  538.00	  556.68	-1776.43	  360.14
    111.7700	  555.00	  558.76	-1761.51	  359.99
    111.8700	  598.00	  561.03	-1720.78	  359.85
    111.9700	  588.00	  563.51	-1733.26	  359.70
    112.0700	  582.00	  566.18	-1741.93	  359.56
    112.1700	  574.00	  569.07	-1752.82	  359.42
    112.2700	  548.00	  572.20	-1781.95	  359.28
    112.3700	  633.00	  575.59	-1700.34	  359.15
    112.4700	  647.00	  579.30	-1690.05	  359.02
    112.5700	  566.00	  583.36	-1775.11	  358.89
    112.6700	  582.00	  587.85	-1763.60	  358.76
    112.7700	  619.00	  592.86	-1731.61	  358.63
    112.8700	  672.00	  598.49	-1684.24	  358.51
    112.9700	  692.00	  604.90	-1670.65	  358.39
    113.0700	  684.00	  612.28	-1686.03	  358.27
    113.1700	  660.00	  620.85	-1718.60	  358.16
    113.2700	  740.00	  630.97	-1648.72	  358.04
    113.3700	  746.00	  643.03	-1654.78	  357.93
    113.4700	  736.00	  657.53	-1679.28	  357.83
    113.5700	  783.00	  675.13	-1649.88	  357.72
    113.6700	  832.00	  696.61	-1622.36	  357.62
    113.7700	  869.00	  722.94	-1611.69	  357.52
    113.8700	  878.00	  755.29	-1635.04	  357.42
    113.9700	  979.00	  795.01	-1573.76	  357.33
    114.0700	 1014.00	  843.69	-1587.44	  357.24
    114.1700	 1091.00	  903.12	-1569.87	  357.15
    114.2700	 1102.00	  975.33	-1631.08	  357.07
    114.3700	 1189.00	 1062.47	-1631.22	  356.99
    114.4700	 1276.00	 1166.83	-1648.58	  356.91
    114.5700	 1441.00	 1290.74	-1607.49	  356.83
    114.6700	 1567.00	 1436.48	-1627.23	  356.76
    114.7700	 1753.00	 1606.24	-1610.99	  356.69
    114.8700	 1946.00	 1801.80	-1613.55	  356.63
    114.9700	 2214.00	 2024.55	-1568.30	  356.56
    115.0700	 2360.00	 2275.25	-1673.00	  356.50
    115.1700	 2599.00	 2553.94	-1712.69	  356.45
    115.2700	 2785.00	 2859.79	-1832.54	  356.40
    115.3700	 3064.00	 3190.85	-1884.60	  356.35
    115.4700	 3452.00	 3544.07	-1849.82	  356.30
    115.5700	 3781.00	 3915.15	-1891.90	  356.26
    115.6700	 4032.00	 4298.66	-2024.41	  356.22
    115.7700	 4520.00	 4687.98	-1925.73	  356.18
    115.8700	 4681.00	 5075.15	-2151.90	  356.15
    115.9700	 5195.00	 5451.22	-2013.97	  356.13
    116.0700	 5617.00	 5806.25	-1947.00	  356.10
    116.1700	 5958.00	 6129.79	-1929.54	  356.08
    116.2700	 6225.00	 6411.08	-1943.83	  356.06
    116.3700	 6783.00	 6639.64	-1614.39	  356.05
    116.4700	 6883.00	 6806.18	-1680.93	  356.04
    116.5700	 6981.00	 6903.45	-1680.20	  356.04
    116.6700	 7031.00	 6927.13	-1653.88	  356.04
    116.7700	 6854.00	 6876.31	-1780.06	  356.04
    116.8700	 6785.00	 6753.66	-1726.41	  356.05
    116.9700	 6548.00	 6565.07	-1774.82	  356.06
    117.0700	 6342.00	 6318.95	-1734.70	  356.07
    117.1700	 6149.00	 6025.18	-1633.93	  356.09
    117.2700	 5698.00	 5694.34	-1754.09	  356.12
    117.3700	 5262.00	 5337.08	-1832.83	  356.14
    117.4700	 5050.00	 4963.53	-1671.28	  356.18
    117.5700	 4583.00	 4583.05	-1757.80	  356.21
    117.6700	 4297.00	 4203.85	-1664.60	  356.25
    117.7700	 3942.00	 3833.00	-1648.75	  356.30
    117.8700	 3529.00	 3476.47	-1705.22	  356.35
    117.9700	 3345.00	 3138.93	-1551.68	  356.40
    118.0700	 2958.00	 2823.92	-1623.67	  356.46
    118.1700	 2491.00	 2533.74	-1800.49	  356.52
    118.2700	 2227.00	 2269.69	-1800.44	  356.59
    118.3700	 1998.00	 2032.23	-1791.98	  356.66
    118.4700	 1788.00	 1821.02	-1790.77	  356.74
    118.5700	 1585.00	 1635.14	-1807.89	  356.82
    118.6700	 1403.00	 1473.07	-1827.82	  356.91
    118.7700	 1250.00	 1333.02	-1840.77	  357.00
    118.8700	 1148.00	 1213.00	-1822.75	  357.10
    118.9700	  980.00	 1110.88	-1888.63	  357.20
    119.0700	  960.00	 1024.56	-1822.31	  357.31
    119.1700	  901.00	  951.96	-1808.71	  357.42
    119.2700	  825.00	  891.16	-1823.91	  357.54
    119.3700	  807.00	  840.42	-1791.17	  357.66
    119.4700	  768.00	  798.15	-1787.90	  357.79
    119.5700	  706.00	  762.99	-1814.74	  357.92
    119.6700	  660.00	  733.75	-1831.50	  358.06
    119.7700	  685.00	  709.40	-1782.15	  358.20
    119.8700	  626.00	  689.11	-1820.86	  358.35
    119.9700	  665.00	  672.18	-1764.93	  358.50
    120.0700	  600.00	  658.03	-1815.78	  358.66
    120.1700	  670.00	  646.19	-1733.94	  358.83
    120.2700	  578.00	  636.26	-1816.01	  359.00
    120.3700	  572.00	  627.96	-1813.71	  359.17
    120.4700	  575.00	  621.04	-1803.79	  359.36
    120.5700	  565.00	  615.30	-1808.05	  359.54
    120.6700	  561.00	  610.59	-1807.34	  359.74
    120.7700	  590.00	  606.78	-1774.53	  359.94
    120.8700	  549.00	  603.80	-1812.55	  360.14
    120.9700	  532.00	  601.57	-1827.32	  360.35
    121.0700	  572.00	  600.02	-1785.77	  360.57
    121.1700	  573.00	  599.12	-1783.87	  360.79
    121.2700	  558.00	  598.82	-1798.57	  361.02
    121.3700	  552.00	  599.08	-1804.83	  361.26
    121.4700	  574.00	  599.87	-1783.62	  361.50
    121.5700	  561.00	  601.12	-1797.87	  361.75
    121.6700	  578.00	  602.81	-1782.56	  362.00
    121.7700	  619.00	  604.87	-1743.62	  362.26
    121.8700	  561.00	  607.22	-1803.97	  362.53
    121.9700	  608.00	  609.83	-1759.58	  362.80
    122.0700	  636.00	  612.60	-1734.35	  363.08
    122.1700	  618.00	  615.44	-1755.19	  363.37
    122.2700	  614.00	  618.26	-1762.01	  363.66
    122.3700	  610.00	  620.97	-1768.72	  363.96
    122.4700	  620.00	  623.46	-1761.21	  364.27
    122.5700	  650.00	  625.65	-1733.40	  364.58
    122.6700	  629.00	  627.46	-1756.21	  364.90
    122.7700	  636.00	  628.80	-1750.55	  365.23
    122.8700	  653.00	  629.62	-1734.37	  365.56
    122.9700	  663.00	  629.90	-1724.65	  365.91
    123.0700	  645.00	  629.62	-1742.37	  366.25
    123.1700	  620.00	  628.80	-1766.55	  366.61
    123.2700	  666.00	  627.47	-1719.22	  366.97
    123.3700	  671.00	  625.68	-1712.43	  367.34
    123.4700	  651.00	  623.49	-1730.24	  367.72
    123.5700	  659.00	  620.95	-1719.70	  368.10
    123.6700	  683.00	  618.13	-1692.88	  368.49
    123.7700	  626.00	  615.10	-1746.85	  368.89
    123.8700	  669.00	  611.93	-1700.68	  369.30
    123.9700	  624.00	  608.67	-1742.42	  369.71
    124.0700	  601.00	  605.38	-1762.13	  370.14
    124.1700	  596.00	  602.13	-1763.88	  370.57
    124.2700	  599.00	  598.94	-1757.69	  371.00
    124.3700	  612.00	  595.87	-1741.62	  371.45
    124.4700	  657.00	  592.94	-1693.69	  371.90
    124.5700	  632.00	  590.18	-1715.93	  372.36
    124.6700	  565.00	  587.62	-1780.37	  372.83
    124.7700	  587.00	  585.26	-1756.01	  373.31
    124.8700	  583.00	  583.13	-1757.88	  373.79
    124.9700	  546.00	  492.97	-1704.72	  374.29
    125.0700	  568.00	  493.47	-1757.75	  374.79
    125.1700	  631.00	  493.98	-1757.75	  375.30
    125.2700	  603.00	  494.49	-1757.75	  375.82
    125.3700	  636.00	  495.02	-1757.75	  376.34
    125.4700	  594.00	  495.56	-1757.75	  376.88
    125.5700	  565.00	  496.10	-1757.75	  377.42
    125.6700	  576.00	  496.65	-1757.75	  377.97
    125.7700	  620.00	  497.21	-1757.75	  378.53
    125.8700	  605.00	  497.78	-1757.75	  379.10
    125.9700	  547.00	  498.36	-1757.75	  379.68
    126.0700	  576.00	  498.95	-1757.75	  380.27
    126.1700	  571.00	  499.54	-1757.75	  380.86
    126.2700	  600.00	  500.15	-1757.75	  381.47
    126.3700	  625.00	  500.76	-1757.75	  382.08
    126.4700	  591.00	  501.38	-1757.75	  382.71
    126.5700	  625.00	  502.02	-1757.75	  383.34
    126.6700	  579.00	  502.66	-1757.75	  383.98
    126.7700	  590.00	  503.31	-1757.75	  384.63
    126.8700	  635.00	  503.97	-1757.75	  385.29
    126.9700	  675.00	  504.64	-1757.75	  385.96
    127.0700	  643.00	  505.32	-1757.75	  386.64
    127.1700	  639.00	  506.01	-1757.75	  387.33
    127.2700	  639.00	  506.70	-1757.75	  388.02
    127.3700	  627.00	  507.41	-1757.75	  388.73
    127.4700	  666.00	  508.13	-1757.75	  389.45
    127.5700	  647.00	  508.86	-1757.75	  390.18
    127.6700	  702.00	  509.59	-1757.75	  390.91
    127.7700	  697.00	  510.34	-1757.75	  391.66
    127.8700	  716.00	  511.10	-1757.75	  392.42
    127.9700	  698.00	  511.86	-1757.75	  393.18
    128.0700	  788.00	  512.64	-1757.75	  393.96
    128.1700	  741.00	  513.43	-1757.75	  394.75
    128.2700	  738.00	  514.23	-1757.75	  395.55
    128.3700	  775.00	  515.03	-1757.75	  396.35
    128.4700	  773.00	  515.85	-1757.75	  397.17
    128.5700	    0.00	  516.68	-1757.75	  398.00
    128.6700	    0.00	  517.52	-1757.75	  398.84
     12.3080	        	        	        	        	       0	(  0  0  2)	  0  1
     24.8861	        	        	        	        	       0	(  0  0  4)	  0  1
     28.3358	        	        	        	        	       0	(  1  0  0)	  0  1
     29.0325	        	        	        	        	       0	(  1  0  1)	  0  1
     31.0374	        	        	        	        	       0	(  1  0  2)	  0  1
     34.1437	        	        	        	        	       0	(  1  0  3)	  0  1
     37.7797	        	        	        	        	       0	(  0  0  6)	  0  1
     38.1182	        	        	        	        	       0	(  1  0  4)	  0  1
     42.7656	        	        	        	        	       0	(  1  0  5)	  0  1
     47.9465	        	        	        	        	       0	(  1  0  6)	  0  1
     50.2710	        	        	        	        	       0	(  1  1  0)	  0  1
     51.1949	        	        	        	        	       0	(  0  0  8)	  0  1
     51.9927	        	        	        	        	       0	(  1  1  2)	  0  1
     53.5737	        	        	        	        	       0	(  1  0  7)	  0  1
     56.9371	        	        	        	        	       0	(  1  1  4)	  0  1
     58.7672	        	        	        	        	       0	(  2  0  0)	  0  1
     59.1585	        	        	        	        	       0	(  2  0  1)	  0  1
     59.6005	        	        	        	        	       0	(  1  0  8)	  0  1
     60.3230	        	        	        	        	       0	(  2  0  2)	  0  1
     62.2348	        	        	        	        	       0	(  2  0  3)	  0  1
     64.6264	        	        	        	        	       0	(  1  1  6)	  0  1
     64.8569	        	        	        	        	       0	(  2  0  4)	  0  1
     65.4161	        	        	        	        	       0	(  0  0 10)	  0  1
     66.0128	        	        	        	        	       0	(  1  0  9)	  0  1
     68.1488	        	        	        	        	       0	(  2  0  5)	  0  1
     72.0734	        	        	        	        	       0	(  2  0  6)	  0  1
     72.8244	        	        	        	        	       0	(  1  0 10)	  0  1
     74.6570	        	        	        	        	       0	(  1  1  8)	  0  1
     76.6042	        	        	        	        	       0	(  2  0  7)	  0  1
     80.0769	        	        	        	        	       0	(  1  0 11)	  0  1
     80.8861	        	        	        	        	       0	(  0  0 12)	  0  1
     81.0060	        	        	        	        	       0	(  2  1  0)	  0  1
     81.3456	        	        	        	        	       0	(  2  1  1)	  0  1
     81.7305	        	        	        	        	       0	(  2  0  8)	  0  1
     82.3627	        	        	        	        	       0	(  2  1  2)	  0  1
     84.0526	        	        	        	        	       0	(  2  1  3)	  0  1
     86.4104	        	        	        	        	       0	(  2  1  4)	  0  1
     86.9190	        	        	        	        	       0	(  1  1 10)	  0  1
     87.4640	        	        	        	        	       0	(  2  0  9)	  0  1
     87.8452	        	        	        	        	       0	(  1  0 12)	  0  1
     89.4337	        	        	        	        	       0	(  2  1  5)	  0  1
     93.1281	        	        	        	        	       0	(  2  1  6)	  0  1
     93.8460	        	        	        	        	       0	(  2  0 10)	  0  1
     94.8930	        	        	        	        	       0	(  3  0  0)	  0  1
     95.2301	        	        	        	        	       0	(  3  0  1)	  0  1
     96.2424	        	        	        	        	       0	(  3  0  2)	  0  1
     96.2510	        	        	        	        	       0	(  1  0 13)	  0  1
     97.5129	        	        	        	        	       0	(  2  1  7)	  0  1
     97.9343	        	        	        	        	       0	(  3  0  3)	  0  1
     98.4105	        	        	        	        	       0	(  0  0 14)	  0  1
    100.3153	        	        	        	        	       0	(  3  0  4)	  0  1
    100.9614	        	        	        	        	       0	(  2  0 11)	  0  1
    101.7760	        	        	        	        	       0	(  1  1 12)	  0  1
    102.6307	        	        	        	        	       0	(  2  1  8)	  0  1
    103.4041	        	        	        	        	       0	(  3  0  5)	  0  1
    105.4941	        	        	        	        	       0	(  1  0 14)	  0  1
    107.2357	        	        	        	        	       0	(  3  0  6)	  0  1
    108.5618	        	        	        	        	       0	(  2  1  9)	  0  1
    108.9643	        	        	        	        	       0	(  2  0 12)	  0  1
    111.8715	        	        	        	        	       0	(  3  0  7)	  0  1
    115.4511	        	        	        	        	       0	(  2  1 10)	  0  1
    115.9244	        	        	        	        	       0	(  1  0 15)	  0  1
    116.6139	        	        	        	        	       0	(  2  2  0)	  0  1
    117.4191	        	        	        	        	       0	(  3  0  8)	  0  1
    118.1276	        	        	        	        	       0	(  2  2  2)	  0  1
    118.1373	        	        	        	        	       0	(  2  0 13)	  0  1
    119.8715	        	        	        	        	       0	(  0  0 16)	  0  1
    120.5973	        	        	        	        	       0	(  1  1 14)	  0  1
    122.8084	        	        	        	        	       0	(  2  2  4)	  0  1
    123.5680	        	        	        	        	       0	(  2  1 11)	  0  1
    124.0712	        	        	        	        	       0	(  3  0  9)	  0  1
    124.6770	        	        	        	        	       0	(  3  1  0)	  0  1
    125.0868	        	        	        	        	       0	(  3  1  1)	  0  1
    126.3289	        	        	        	        	       0	(  3  1  2)	  0  1
    128.2469	        	        	        	        	       0	(  1  0 16)	  0  1
    128.4449	        	        	        	        	       0	(  3  1  3)	  0  1
    129.0501	        	        	        	        	       0	(  2  0 14)	  0  1
    131.2387	        	        	        	        	       0	(  2  2  6)	  0  1
    131.5174	        	        	        	        	       0	(  3  1  4)	  0  1
    132.2005	        	        	        	        	       0	(  3  0 10)	  0  1
    133.4647	        	        	        	        	       0	(  2  1 12)	  0  1
    135.6993	        	        	        	        	       0	(  3  1  5)	  0  1
    141.2868	        	        	        	        	       0	(  3  1  6)	  0  1
    142.6598	        	        	        	        	       0	(  3  0 11)	  0  1
    143.1570	        	        	        	        	       0	(  2  0 15)	  0  1
    144.3727	        	        	        	        	       0	(  1  0 17)	  0  1
    145.4506	        	        	        	        	       0	(  2  2  8)	  0  1
    146.5899	        	        	        	        	       0	(  2  1 13)	  0  1
    148.9462	        	        	        	        	       0	(  3  1  7)	  0  1
    149.4606	        	        	        	        	       0	(  1  1 16)	  0  1
    153.8135	        	        	        	        	       0	(  0  0 18)	  0  1
    158.4830	        	        	        	        	       0	(  3  0 12)	  0  1
    158.8100	        	        	        	        	       0	(  4  0  0)	  0  1
    159.7644	        	        	        	        	       0	(  4  0  1)	  0  1
    160.9028	        	        	        	        	       0	(  3  1  8)	  0  1
    162.9337	        	        	        	        	       0	(  4  0  2)	  0  1
    169.3527	        	        	        	        	       0	(  2  0 16)	  0  1
    170.2383	        	        	        	        	       0	(  4  0  3)	  0  1
    173.6524	        	        	        	        	       0	(  2  1 14)	  0  1
