MSG Master    CELL:    5.91672   5.91672  23.25915   90.0000   90.0000  120.0000   SPGR: P 63/m m c             TEMP:   1021.85
  1   1280     2.52000     0.00000    -0.12129     0.00000     0.00000    0
    99     0     2
       0.00000      10.00000
     125.00000     130.00000
 2Theta	Yobs	Ycal	Yobs-Ycal	Backg	Posr	(hkl)	K
      0.7700	    0.00	  550.30	-1778.25	  433.94
      0.8700	    0.00	  550.98	-1778.25	  434.62
      0.9700	   41.00	  551.65	-1778.25	  435.28
      1.0700	   30.00	  552.30	-1778.25	  435.94
      1.1700	   38.00	  552.95	-1778.25	  436.58
      1.2700	   41.00	  553.58	-1778.25	  437.22
      1.3700	   35.00	  554.21	-1778.25	  437.84
      1.4700	   97.00	  554.82	-1778.25	  438.46
      1.5700	  294.00	  555.43	-1778.25	  439.06
      1.6700	  426.00	  556.02	-1778.25	  439.66
      1.7700	  544.00	  556.60	-1778.25	  440.24
      1.8700	  638.00	  557.18	-1778.25	  440.81
      1.9700	  730.00	  557.74	-1778.25	  441.38
      2.0700	  746.00	  558.29	-1778.25	  441.93
      2.1700	  764.00	  558.84	-1778.25	  442.47
      2.2700	  777.00	  559.37	-1778.25	  443.01
      2.3700	  759.00	  559.90	-1778.25	  443.53
      2.4700	  726.00	  560.41	-1778.25	  444.05
      2.5700	  697.00	  560.91	-1778.25	  444.55
      2.6700	  701.00	  561.41	-1778.25	  445.05
      2.7700	  649.00	  561.90	-1778.25	  445.53
      2.8700	  653.00	  562.37	-1778.25	  446.01
      2.9700	  607.00	  562.84	-1778.25	  446.48
      3.0700	  630.00	  563.30	-1778.25	  446.93
      3.1700	  578.00	  563.75	-1778.25	  447.38
      3.2700	  605.00	  564.19	-1778.25	  447.82
      3.3700	  680.00	  564.62	-1778.25	  448.25
      3.4700	  759.00	  565.04	-1778.25	  448.68
      3.5700	  826.00	  565.45	-1778.25	  449.09
      3.6700	  841.00	  565.86	-1778.25	  449.49
      3.7700	  874.00	  566.25	-1778.25	  449.89
      3.8700	  903.00	  566.64	-1778.25	  450.27
      3.9700	 1022.00	  567.01	-1778.25	  450.65
      4.0700	 1101.00	  567.38	-1778.25	  451.02
      4.1700	 1095.00	  567.74	-1778.25	  451.38
      4.2700	 1144.00	  568.10	-1778.25	  451.73
      4.3700	 1081.00	  568.44	-1778.25	  452.08
      4.4700	 1065.00	  568.78	-1778.25	  452.41
      4.5700	 1023.00	  569.10	-1778.25	  452.74
      4.6700	  973.00	  569.42	-1778.25	  453.06
      4.7700	  995.00	  569.73	-1778.25	  453.37
      4.8700	  977.00	  570.04	-1778.25	  453.67
      4.9700	  906.00	  570.33	-1778.25	  453.97
      5.0700	  924.00	  570.62	-1778.25	  454.25
      5.1700	  908.00	  570.90	-1778.25	  454.53
      5.2700	  907.00	  571.17	-1778.25	  454.80
      5.3700	  876.00	  571.43	-1778.25	  455.07
      5.4700	  890.00	  571.69	-1778.25	  455.32
      5.5700	  857.00	  571.93	-1778.25	  455.57
      5.6700	  829.00	  572.18	-1778.25	  455.81
      5.7700	  812.00	  572.41	-1778.25	  456.05
      5.8700	  791.00	  572.63	-1778.25	  456.27
      5.9700	  805.00	  572.85	-1778.25	  456.49
      6.0700	  835.00	  573.06	-1778.25	  456.70
      6.1700	  797.00	  573.27	-1778.25	  456.90
      6.2700	  797.00	  573.46	-1778.25	  457.10
      6.3700	  821.00	  573.65	-1778.25	  457.29
      6.4700	  802.00	  573.83	-1778.25	  457.47
      6.5700	  814.00	  574.01	-1778.25	  457.65
      6.6700	  735.00	  574.18	-1778.25	  457.81
      6.7700	  784.00	  574.34	-1778.25	  457.98
      6.8700	  698.00	  574.49	-1778.25	  458.13
      6.9700	  702.00	  574.64	-1778.25	  458.28
      7.0700	  673.00	  574.78	-1778.25	  458.42
      7.1700	  686.00	  574.92	-1778.25	  458.55
      7.2700	  675.00	  575.04	-1778.25	  458.68
      7.3700	  702.00	  575.16	-1778.25	  458.80
      7.4700	  717.00	  575.28	-1778.25	  458.91
      7.5700	  659.00	  575.39	-1778.25	  459.02
      7.6700	  619.00	  575.49	-1778.25	  459.12
      7.7700	  694.00	  575.58	-1778.25	  459.22
      7.8700	  646.00	  575.67	-1778.25	  459.31
      7.9700	  605.00	  575.75	-1778.25	  459.39
      8.0700	  645.00	  575.83	-1778.25	  459.47
      8.1700	  663.00	  575.90	-1778.25	  459.54
      8.2700	  648.00	  575.97	-1778.25	  459.60
      8.3700	  601.00	  576.02	-1778.25	  459.66
      8.4700	  594.00	  576.08	-1778.25	  459.71
      8.5700	  627.00	  576.12	-1778.25	  459.76
      8.6700	  608.00	  576.16	-1778.25	  459.80
      8.7700	  650.00	  576.20	-1778.25	  459.84
      8.8700	  618.00	  576.23	-1778.25	  459.86
      8.9700	  586.00	  576.25	-1778.25	  459.89
      9.0700	  607.00	  576.27	-1778.25	  459.91
      9.1700	  578.00	  576.28	-1778.25	  459.92
      9.2700	  592.00	  576.29	-1778.25	  459.92
      9.3700	  589.00	  576.29	-1778.25	  459.93
      9.4700	  598.00	  576.29	-1778.25	  459.92
      9.5700	  595.00	  576.28	-1778.25	  459.91
      9.6700	  597.00	  576.26	-1778.25	  459.90
      9.7700	  562.00	  576.24	-1778.25	  459.88
      9.8700	  597.00	  576.22	-1778.25	  459.85
      9.9700	  596.00	  576.19	-1778.25	  459.82
     10.0700	  610.00	  576.93	-1745.18	  459.79
     10.1700	  607.00	  576.97	-1748.22	  459.75
     10.2700	  626.00	  577.02	-1729.27	  459.70
     10.3700	  600.00	  577.09	-1755.34	  459.65
     10.4700	  607.00	  577.21	-1748.46	  459.59
     10.5700	  551.00	  577.42	-1804.67	  459.53
     10.6700	  533.00	  577.81	-1823.06	  459.47
     10.7700	  635.00	  578.47	-1721.72	  459.40
     10.8700	  560.00	  579.49	-1797.74	  459.32
     10.9700	  624.00	  580.87	-1735.12	  459.25
     11.0700	  588.00	  582.57	-1772.82	  459.16
     11.1700	  568.00	  584.58	-1794.83	  459.07
     11.2700	  564.00	  586.94	-1801.19	  458.98
     11.3700	  565.00	  589.70	-1802.95	  458.88
     11.4700	  580.00	  592.99	-1791.24	  458.78
     11.5700	  625.00	  596.97	-1750.22	  458.67
     11.6700	  589.00	  601.96	-1791.21	  458.56
     11.7700	  663.00	  608.48	-1723.73	  458.45
     11.8700	  635.00	  617.34	-1760.59	  458.33
     11.9700	  662.00	  629.23	-1745.48	  458.21
     12.0700	  695.00	  643.05	-1726.30	  458.08
     12.1700	  677.00	  653.72	-1754.97	  457.95
     12.2700	  678.00	  652.45	-1752.70	  457.81
     12.3700	  638.00	  635.08	-1775.33	  457.67
     12.4700	  645.00	  611.90	-1745.15	  457.53
     12.5700	  577.00	  594.13	-1795.38	  457.38
     12.6700	  630.00	  584.14	-1732.39	  457.23
     12.7700	  572.00	  579.50	-1785.75	  457.08
     12.8700	  550.00	  577.39	-1805.64	  456.92
     12.9700	  519.00	  576.25	-1835.50	  456.76
     13.0700	  525.00	  575.47	-1828.72	  456.59
     13.1700	  536.00	  574.86	-1817.11	  456.42
     13.2700	  553.00	  574.37	-1799.62	  456.25
     13.3700	  581.00	  573.95	-1771.20	  456.07
     13.4700	  553.00	  573.57	-1798.82	  455.89
     13.5700	  583.00	  573.24	-1768.49	  455.71
     13.6700	  511.00	  572.93	-1840.18	  455.52
     13.7700	  585.00	  572.63	-1765.88	  455.33
     13.8700	  554.00	  572.36	-1796.61	  455.13
     13.9700	  544.00	  572.09	-1806.34	  454.94
     14.0700	  526.00	  571.83	-1824.08	  454.74
     14.1700	  550.00	  571.57	-1799.82	  454.53
     14.2700	  563.00	  571.32	-1786.57	  454.32
     14.3700	  551.00	  571.07	-1798.32	  454.11
     14.4700	  559.00	  570.82	-1790.07	  453.90
     14.5700	  576.00	  570.58	-1772.83	  453.69
     14.6700	  586.00	  570.33	-1762.58	  453.47
     14.7700	  582.00	  570.09	-1766.34	  453.24
     14.8700	  596.00	  569.84	-1752.09	  453.02
     14.9700	  510.00	  569.60	-1837.85	  452.79
     15.0700	  561.00	  569.35	-1786.60	  452.56
     15.1700	  542.00	  569.10	-1805.35	  452.33
     15.2700	  564.00	  568.85	-1783.10	  452.09
     15.3700	  567.00	  568.60	-1779.85	  451.85
     15.4700	  600.00	  568.34	-1746.59	  451.61
     15.5700	  563.00	  568.09	-1783.34	  451.37
     15.6700	  570.00	  567.83	-1776.08	  451.12
     15.7700	  593.00	  567.58	-1752.83	  450.87
     15.8700	  561.00	  567.32	-1784.57	  450.62
     15.9700	  525.00	  567.05	-1820.30	  450.36
     16.0700	  601.00	  566.79	-1744.04	  450.11
     16.1700	  540.00	  566.55	-1804.80	  449.85
     16.2700	  590.00	  566.28	-1754.53	  449.59
     16.3700	  556.00	  566.02	-1788.27	  449.32
     16.4700	  578.00	  565.74	-1765.99	  449.05
     16.5700	  591.00	  565.47	-1752.72	  448.79
     16.6700	  544.00	  565.20	-1799.45	  448.52
     16.7700	  584.00	  564.92	-1759.17	  448.24
     16.8700	  592.00	  564.64	-1750.89	  447.97
     16.9700	  541.00	  564.36	-1801.61	  447.69
     17.0700	  597.00	  564.08	-1745.33	  447.41
     17.1700	  527.00	  563.80	-1815.05	  447.13
     17.2700	  546.00	  563.51	-1795.76	  446.85
     17.3700	  563.00	  563.23	-1778.48	  446.56
     17.4700	  576.00	  562.94	-1765.19	  446.27
     17.5700	  571.00	  562.65	-1769.90	  445.98
     17.6700	  523.00	  562.35	-1817.60	  445.69
     17.7700	  578.00	  562.06	-1762.31	  445.40
     17.8700	  578.00	  561.76	-1762.01	  445.11
     17.9700	  526.00	  561.57	-1813.82	  444.81
     18.0700	  572.00	  561.27	-1767.52	  444.51
     18.1700	  567.00	  560.97	-1772.22	  444.21
     18.2700	  571.00	  560.67	-1767.92	  443.91
     18.3700	  531.00	  560.37	-1807.62	  443.61
     18.4700	  580.00	  560.07	-1758.32	  443.30
     18.5700	  517.00	  559.77	-1821.02	  443.00
     18.6700	  568.00	  559.46	-1769.71	  442.69
     18.7700	  571.00	  559.15	-1766.40	  442.38
     18.8700	  508.00	  558.94	-1829.19	  442.07
     18.9700	  507.00	  558.63	-1829.88	  441.76
     19.0700	  545.00	  558.32	-1791.57	  441.44
     19.1700	  554.00	  558.01	-1782.26	  441.13
     19.2700	  539.00	  557.70	-1796.95	  440.81
     19.3700	  597.00	  557.39	-1738.64	  440.49
     19.4700	  535.00	  557.08	-1800.33	  440.18
     19.5700	  540.00	  556.77	-1795.02	  439.86
     19.6700	  533.00	  556.45	-1801.70	  439.53
     19.7700	  566.00	  556.14	-1768.39	  439.21
     19.8700	  559.00	  555.82	-1775.07	  438.89
     19.9700	  550.00	  555.51	-1783.76	  438.56
     20.0700	  559.00	  555.19	-1774.44	  438.24
     20.1700	  576.00	  554.87	-1757.12	  437.91
     20.2700	  554.00	  554.56	-1778.81	  437.58
     20.3700	  567.00	  554.24	-1765.49	  437.25
     20.4700	  498.00	  553.92	-1834.17	  436.92
     20.5700	  550.00	  553.60	-1781.85	  436.59
     20.6700	  570.00	  553.25	-1761.50	  436.26
     20.7700	  541.00	  552.94	-1790.19	  435.93
     20.8700	  542.00	  552.65	-1788.91	  435.60
     20.9700	  525.00	  552.34	-1805.59	  435.26
     21.0700	  578.00	  552.02	-1752.27	  434.93
     21.1700	  544.00	  551.70	-1785.95	  434.59
     21.2700	  558.00	  551.39	-1771.64	  434.25
     21.3700	  576.00	  551.07	-1753.32	  433.92
     21.4700	  562.00	  550.75	-1767.00	  433.58
     21.5700	  549.00	  550.44	-1779.69	  433.24
     21.6700	  537.00	  550.13	-1791.38	  432.90
     21.7700	  523.00	  549.81	-1805.06	  432.56
     21.8700	  578.00	  549.50	-1749.75	  432.22
     21.9700	  514.00	  549.19	-1813.44	  431.88
     22.0700	  566.00	  548.89	-1761.14	  431.54
     22.1700	  533.00	  548.58	-1793.83	  431.20
     22.2700	  601.00	  548.28	-1725.53	  430.86
     22.3700	  503.00	  547.98	-1823.23	  430.51
     22.4700	  597.00	  547.68	-1728.93	  430.17
     22.5700	  528.00	  547.39	-1797.64	  429.83
     22.6700	  524.00	  547.11	-1801.36	  429.48
     22.7700	  529.00	  546.83	-1796.08	  429.14
     22.8700	  563.00	  546.56	-1761.81	  428.80
     22.9700	  522.00	  546.30	-1802.55	  428.45
     23.0700	  567.00	  546.05	-1757.30	  428.11
     23.1700	  588.00	  545.82	-1736.07	  427.76
     23.2700	  569.00	  545.60	-1754.85	  427.42
     23.3700	  534.00	  545.41	-1789.66	  427.07
     23.4700	  514.00	  545.25	-1809.50	  426.72
     23.5700	  511.00	  545.14	-1812.39	  426.38
     23.6700	  559.00	  545.09	-1764.34	  426.03
     23.7700	  550.00	  545.26	-1773.51	  425.69
     23.8700	  559.00	  545.50	-1764.75	  425.34
     23.9700	  583.00	  546.10	-1741.35	  424.99
     24.0700	  552.00	  547.44	-1773.69	  424.65
     24.1700	  539.00	  550.11	-1789.36	  424.30
     24.2700	  577.00	  554.91	-1756.16	  423.96
     24.3700	  580.00	  562.74	-1760.99	  423.61
     24.4700	  598.00	  574.58	-1754.83	  423.26
     24.5700	  620.00	  590.91	-1749.16	  422.92
     24.6700	  610.00	  609.77	-1778.02	  422.57
     24.7700	  612.00	  624.58	-1790.83	  422.23
     24.8700	  620.00	  625.24	-1783.49	  421.88
     24.9700	  617.00	  607.70	-1768.95	  421.54
     25.0700	  589.00	  583.05	-1772.30	  421.19
     25.1700	  602.00	  563.23	-1739.48	  420.85
     25.2700	  577.00	  551.45	-1752.70	  420.50
     25.3700	  575.00	  545.71	-1748.96	  420.16
     25.4700	  545.00	  543.10	-1776.35	  419.81
     25.5700	  552.00	  541.75	-1768.00	  419.47
     25.6700	  548.00	  540.91	-1771.16	  419.13
     25.7700	  541.00	  540.29	-1777.54	  418.78
     25.8700	  589.00	  539.82	-1729.07	  418.44
     25.9700	  548.00	  539.46	-1769.71	  418.10
     26.0700	  578.00	  539.19	-1739.44	  417.76
     26.1700	  584.00	  539.00	-1733.25	  417.41
     26.2700	  539.00	  538.89	-1778.14	  417.07
     26.3700	  613.00	  538.85	-1704.10	  416.73
     26.4700	  562.00	  538.89	-1755.14	  416.39
     26.5700	  574.00	  539.03	-1743.28	  416.05
     26.6700	  572.00	  539.28	-1745.53	  415.71
     26.7700	  521.00	  539.66	-1796.91	  415.38
     26.8700	  550.00	  540.20	-1768.45	  415.04
     26.9700	  597.00	  540.96	-1722.21	  414.70
     27.0700	  540.00	  542.00	-1780.25	  414.36
     27.1700	  541.00	  543.45	-1780.70	  414.03
     27.2700	  594.00	  545.52	-1729.77	  413.69
     27.3700	  557.00	  548.66	-1769.91	  413.36
     27.4700	  522.00	  553.73	-1809.98	  413.02
     27.5700	  545.00	  562.31	-1795.56	  412.69
     27.6700	  534.00	  576.95	-1821.20	  412.36
     27.7700	  557.00	  601.08	-1822.33	  412.03
     27.8700	  582.00	  637.95	-1834.20	  411.70
     27.9700	  655.00	  688.39	-1811.64	  411.37
     28.0700	  802.00	  747.65	-1723.90	  411.04
     28.1700	  850.00	  802.49	-1730.74	  410.71
     28.2700	 1027.00	  831.36	-1582.61	  410.38
     28.3700	  915.00	  817.72	-1680.97	  410.05
     28.4700	  796.00	  777.07	-1759.32	  409.73
     28.5700	  700.00	  745.21	-1823.46	  409.40
     28.6700	  671.00	  741.92	-1849.17	  409.08
     28.7700	  728.00	  765.31	-1815.56	  408.75
     28.8700	  808.00	  797.11	-1767.36	  408.43
     28.9700	  819.00	  808.90	-1768.15	  408.11
     29.0700	  787.00	  778.24	-1769.49	  407.79
     29.1700	  699.00	  715.42	-1794.67	  407.47
     29.2700	  625.00	  651.11	-1804.36	  407.15
     29.3700	  606.00	  602.82	-1775.07	  406.83
     29.4700	  606.00	  572.81	-1745.06	  406.51
     29.5700	  631.00	  556.35	-1703.60	  406.20
     29.6700	  593.00	  547.70	-1732.95	  405.88
     29.7700	  594.00	  542.89	-1727.14	  405.57
     29.8700	  590.00	  539.96	-1728.21	  405.26
     29.9700	  569.00	  538.10	-1747.35	  404.95
     30.0700	  562.00	  537.09	-1753.34	  404.64
     30.1700	  533.00	  537.05	-1782.30	  404.33
     30.2700	  527.00	  538.47	-1789.72	  404.02
     30.3700	  548.00	  542.34	-1772.59	  403.71
     30.4700	  508.00	  550.29	-1820.54	  403.40
     30.5700	  543.00	  564.14	-1799.39	  403.10
     30.6700	  613.00	  584.77	-1750.02	  402.80
     30.7700	  617.00	  610.22	-1771.47	  402.49
     30.8700	  631.00	  634.09	-1781.34	  402.19
     30.9700	  606.00	  645.66	-1817.91	  401.89
     31.0700	  608.00	  635.68	-1805.93	  401.59
     31.1700	  612.00	  608.40	-1774.65	  401.30
     31.2700	  584.00	  578.52	-1772.77	  401.00
     31.3700	  542.00	  555.37	-1791.62	  400.70
     31.4700	  550.00	  540.79	-1769.04	  400.41
     31.5700	  536.00	  532.82	-1775.07	  400.12
     31.6700	  556.00	  528.71	-1750.96	  399.83
     31.7700	  530.00	  526.48	-1774.73	  399.54
     31.8700	  525.00	  525.10	-1778.35	  399.25
     31.9700	  552.00	  524.16	-1750.41	  398.96
     32.0700	  566.00	  523.48	-1735.73	  398.67
     32.1700	  548.00	  523.01	-1753.26	  398.39
     32.2700	  568.00	  522.70	-1732.95	  398.11
     32.3700	  511.00	  522.55	-1789.80	  397.82
     32.4700	  558.00	  522.56	-1742.81	  397.54
     32.5700	  531.00	  522.74	-1769.99	  397.26
     32.6700	  554.00	  523.11	-1747.36	  396.99
     32.7700	  551.00	  523.72	-1750.97	  396.71
     32.8700	  553.00	  524.62	-1749.87	  396.43
     32.9700	  563.00	  525.93	-1741.18	  396.16
     33.0700	  564.00	  527.81	-1742.06	  395.89
     33.1700	  528.00	  530.67	-1780.92	  395.62
     33.2700	  542.00	  535.39	-1771.64	  395.35
     33.3700	  553.00	  543.91	-1769.16	  395.08
     33.4700	  567.00	  560.07	-1771.32	  394.81
     33.5700	  575.00	  590.25	-1793.50	  394.55
     33.6700	  630.00	  642.44	-1790.69	  394.29
     33.7700	  709.00	  721.77	-1791.02	  394.02
     33.8700	  855.00	  822.38	-1745.63	  393.76
     33.9700	  981.00	  920.84	-1718.09	  393.51
     34.0700	 1078.00	  977.01	-1677.26	  393.25
     34.1700	 1070.00	  953.54	-1661.79	  392.99
     34.2700	  910.00	  859.12	-1727.37	  392.74
     34.3700	  788.00	  745.61	-1735.86	  392.49
     34.4700	  684.00	  652.37	-1746.62	  392.24
     34.5700	  601.00	  591.14	-1768.39	  391.99
     34.6700	  542.00	  556.90	-1793.15	  391.74
     34.7700	  515.00	  539.48	-1802.73	  391.49
     34.8700	  514.00	  530.54	-1794.79	  391.25
     34.9700	  512.00	  525.38	-1791.63	  391.00
     35.0700	  529.00	  521.92	-1771.17	  390.76
     35.1700	  481.00	  519.35	-1816.60	  390.52
     35.2700	  530.00	  517.34	-1765.59	  390.28
     35.3700	  488.00	  515.71	-1805.96	  390.05
     35.4700	  554.00	  514.36	-1738.61	  389.81
     35.5700	  506.00	  513.22	-1785.47	  389.58
     35.6700	  518.00	  512.25	-1772.50	  389.35
     35.7700	  480.00	  511.40	-1809.65	  389.12
     35.8700	  521.00	  510.66	-1767.91	  388.89
     35.9700	  515.00	  510.00	-1773.25	  388.66
     36.0700	  497.00	  509.90	-1791.15	  388.44
     36.1700	  499.00	  509.38	-1788.63	  388.21
     36.2700	  475.00	  508.91	-1812.16	  387.99
     36.3700	  488.00	  508.48	-1798.73	  387.77
     36.4700	  486.00	  508.09	-1800.34	  387.55
     36.5700	  482.00	  507.74	-1803.99	  387.34
     36.6700	  507.00	  507.44	-1778.69	  387.12
     36.7700	  533.00	  507.17	-1752.42	  386.91
     36.8700	  499.00	  506.97	-1786.22	  386.70
     36.9700	  510.00	  506.87	-1775.12	  386.49
     37.0700	  492.00	  506.96	-1793.21	  386.28
     37.1700	  497.00	  507.43	-1788.68	  386.07
     37.2700	  530.00	  508.60	-1756.85	  385.87
     37.3700	  507.00	  510.82	-1782.07	  385.67
     37.4700	  500.00	  514.28	-1792.53	  385.47
     37.5700	  504.00	  518.66	-1792.91	  385.27
     37.6700	  518.00	  522.98	-1783.23	  385.07
     37.7700	  526.00	  525.76	-1778.01	  384.87
     37.8700	  515.00	  526.07	-1789.32	  384.68
     37.9700	  523.00	  524.41	-1779.66	  384.49
     38.0700	  503.00	  521.53	-1796.78	  384.30
     38.1700	  517.00	  517.64	-1778.89	  384.11
     38.2700	  496.00	  513.31	-1795.56	  383.92
     38.3700	  490.00	  509.45	-1797.70	  383.74
     38.4700	  496.00	  506.55	-1788.80	  383.55
     38.5700	  496.00	  504.63	-1786.88	  383.37
     38.6700	  513.00	  503.46	-1768.71	  383.19
     38.7700	  492.00	  502.66	-1788.91	  383.01
     38.8700	  572.00	  502.20	-1708.45	  382.84
     38.9700	  485.00	  501.86	-1795.11	  382.66
     39.0700	  490.00	  501.59	-1789.84	  382.49
     39.1700	  488.00	  501.34	-1791.59	  382.32
     39.2700	  496.00	  501.04	-1783.29	  382.15
     39.3700	  509.00	  500.84	-1770.09	  381.98
     39.4700	  524.00	  500.66	-1754.91	  381.82
     39.5700	  559.00	  500.61	-1719.86	  381.65
     39.6700	  478.00	  500.45	-1800.70	  381.49
     39.7700	  485.00	  500.31	-1793.56	  381.33
     39.8700	  496.00	  500.18	-1782.43	  381.18
     39.9700	  457.00	  500.05	-1821.30	  381.02
     40.0700	  511.00	  499.94	-1767.19	  380.86
     40.1700	  512.00	  499.84	-1766.09	  380.71
     40.2700	  527.00	  499.75	-1751.00	  380.56
     40.3700	  494.00	  499.67	-1783.92	  380.41
     40.4700	  459.00	  499.61	-1818.86	  380.26
     40.5700	  487.00	  499.56	-1790.81	  380.12
     40.6700	  501.00	  499.53	-1776.78	  379.98
     40.7700	  518.00	  499.52	-1759.77	  379.83
     40.8700	  509.00	  499.53	-1768.78	  379.69
     40.9700	  505.00	  499.57	-1772.82	  379.56
     41.0700	  494.00	  499.64	-1783.89	  379.42
     41.1700	  476.00	  499.75	-1802.00	  379.29
     41.2700	  487.00	  499.88	-1791.13	  379.15
     41.3700	  477.00	  500.10	-1801.35	  379.02
     41.4700	  518.00	  500.41	-1760.66	  378.89
     41.5700	  484.00	  501.26	-1795.51	  378.77
     41.6700	  541.00	  501.85	-1739.10	  378.64
     41.7700	  489.00	  502.72	-1791.97	  378.52
     41.8700	  501.00	  504.12	-1781.37	  378.40
     41.9700	  498.00	  506.66	-1786.91	  378.28
     42.0700	  483.00	  511.52	-1806.77	  378.16
     42.1700	  519.00	  520.76	-1780.01	  378.04
     42.2700	  546.00	  536.99	-1769.24	  377.93
     42.3700	  513.00	  562.28	-1827.53	  377.82
     42.4700	  558.00	  595.69	-1815.94	  377.70
     42.5700	  622.00	  631.39	-1787.64	  377.60
     42.6700	  556.00	  658.01	-1880.26	  377.49
     42.7700	  616.00	  663.02	-1825.27	  377.38
     42.8700	  563.00	  642.57	-1857.82	  377.28
     42.9700	  541.00	  607.33	-1844.58	  377.18
     43.0700	  569.00	  571.29	-1780.54	  377.08
     43.1700	  525.00	  542.67	-1795.92	  376.98
     43.2700	  510.00	  523.65	-1791.90	  376.89
     43.3700	  527.00	  512.66	-1763.91	  376.79
     43.4700	  514.00	  506.88	-1771.13	  376.70
     43.5700	  510.00	  503.91	-1772.16	  376.61
     43.6700	  508.00	  502.28	-1772.53	  376.52
     43.7700	  470.00	  501.44	-1809.69	  376.43
     43.8700	  481.00	  500.72	-1797.97	  376.35
     43.9700	  518.00	  500.19	-1760.44	  376.26
     44.0700	  479.00	  499.81	-1799.06	  376.18
     44.1700	  482.00	  499.49	-1795.74	  376.10
     44.2700	  533.00	  499.25	-1744.50	  376.02
     44.3700	  524.00	  499.05	-1753.30	  375.95
     44.4700	  460.00	  498.91	-1817.16	  375.87
     44.5700	  523.00	  498.81	-1754.06	  375.80
     44.6700	  500.00	  498.61	-1776.86	  375.73
     44.7700	  485.00	  498.58	-1791.83	  375.66
     44.8700	  479.00	  498.57	-1797.82	  375.59
     44.9700	  551.00	  498.58	-1725.83	  375.53
     45.0700	  486.00	  498.62	-1790.87	  375.46
     45.1700	  548.00	  498.69	-1728.94	  375.40
     45.2700	  509.00	  498.96	-1768.21	  375.34
     45.3700	  547.00	  499.07	-1730.32	  375.28
     45.4700	  516.00	  499.20	-1761.45	  375.23
     45.5700	  512.00	  499.36	-1765.60	  375.17
     45.6700	  488.00	  499.54	-1789.79	  375.12
     45.7700	  481.00	  499.74	-1796.99	  375.07
     45.8700	  503.00	  499.98	-1775.23	  375.02
     45.9700	  497.00	  500.24	-1781.49	  374.97
     46.0700	  509.00	  500.54	-1769.79	  374.92
     46.1700	  571.00	  500.88	-1708.13	  374.88
     46.2700	  476.00	  501.25	-1803.50	  374.84
     46.3700	  464.00	  501.68	-1815.93	  374.80
     46.4700	  498.00	  502.16	-1782.41	  374.76
     46.5700	  515.00	  502.70	-1765.95	  374.72
     46.6700	  518.00	  503.33	-1763.58	  374.68
     46.7700	  496.00	  504.05	-1786.30	  374.65
     46.8700	  478.00	  504.92	-1805.17	  374.62
     46.9700	  508.00	  506.02	-1776.27	  374.59
     47.0700	  471.00	  507.55	-1814.80	  374.56
     47.1700	  512.00	  509.94	-1776.19	  374.53
     47.2700	  521.00	  513.91	-1771.16	  374.50
     47.3700	  501.00	  520.45	-1797.70	  374.48
     47.4700	  526.00	  530.71	-1782.96	  374.46
     47.5700	  544.00	  545.25	-1779.50	  374.44
     47.6700	  553.00	  563.16	-1788.41	  374.42
     47.7700	  593.00	  581.28	-1766.53	  374.40
     47.8700	  603.00	  594.49	-1769.74	  374.39
     47.9700	  564.00	  597.64	-1811.89	  374.37
     48.0700	  561.00	  589.78	-1807.03	  374.36
     48.1700	  544.00	  575.41	-1809.66	  374.35
     48.2700	  551.00	  560.35	-1787.60	  374.34
     48.3700	  560.00	  548.44	-1766.69	  374.33
     48.4700	  520.00	  541.16	-1799.41	  374.33
     48.5700	  525.00	  538.33	-1791.58	  374.32
     48.6700	  514.00	  539.00	-1803.25	  374.32
     48.7700	  531.00	  542.23	-1789.48	  374.32
     48.8700	  508.00	  547.44	-1817.69	  374.32
     48.9700	  526.00	  554.58	-1806.83	  374.32
     49.0700	  528.00	  564.18	-1814.43	  374.33
     49.1700	  538.00	  577.59	-1817.84	  374.33
     49.2700	  605.00	  597.81	-1771.06	  374.34
     49.3700	  699.00	  630.61	-1709.86	  374.35
     49.4700	  690.00	  686.09	-1774.34	  374.36
     49.5700	  737.00	  779.70	-1820.95	  374.37
     49.6700	  866.00	  929.25	-1841.50	  374.38
     49.7700	 1076.00	 1151.05	-1853.30	  374.40
     49.8700	 1365.00	 1448.54	-1861.79	  374.41
     49.9700	 1718.00	 1800.68	-1860.93	  374.43
     50.0700	 2180.00	 2151.37	-1749.62	  374.45
     50.1700	 2517.00	 2408.35	-1669.60	  374.47
     50.2700	 2565.00	 2473.89	-1687.14	  374.49
     50.3700	 2398.00	 2315.82	-1696.07	  374.52
     50.4700	 1974.00	 2002.80	-1807.05	  374.54
     50.5700	 1529.00	 1641.69	-1890.94	  374.57
     50.6700	 1104.00	 1312.14	-1986.39	  374.60
     50.7700	  897.00	 1053.56	-1934.81	  374.63
     50.8700	  698.00	  874.07	-1954.32	  374.66
     50.9700	  659.00	  761.87	-1881.12	  374.69
     51.0700	  644.00	  696.63	-1830.88	  374.73
     51.1700	  626.00	  658.23	-1810.48	  374.76
     51.2700	  616.00	  631.94	-1794.19	  374.80
     51.3700	  586.00	  610.33	-1802.58	  374.84
     51.4700	  571.00	  591.49	-1798.74	  374.88
     51.5700	  587.00	  575.70	-1766.95	  374.92
     51.6700	  518.00	  563.34	-1823.59	  374.96
     51.7700	  565.00	  554.33	-1767.58	  375.01
     51.8700	  501.00	  548.13	-1825.38	  375.05
     51.9700	  563.00	  543.99	-1759.24	  375.10
     52.0700	  543.00	  541.25	-1776.50	  375.15
     52.1700	  544.00	  539.53	-1773.78	  375.20
     52.2700	  533.00	  538.94	-1784.19	  375.25
     52.3700	  538.00	  539.07	-1779.32	  375.30
     52.4700	  590.00	  540.47	-1728.72	  375.35
     52.5700	  579.00	  543.89	-1743.14	  375.41
     52.6700	  613.00	  551.00	-1716.25	  375.47
     52.7700	  628.00	  565.02	-1715.27	  375.52
     52.8700	  590.00	  591.23	-1779.48	  375.58
     52.9700	  702.00	  636.71	-1712.96	  375.64
     53.0700	  754.00	  708.51	-1732.76	  375.70
     53.1700	  912.00	  809.78	-1676.03	  375.77
     53.2700	  988.00	  934.97	-1725.22	  375.83
     53.3700	 1088.00	 1065.93	-1756.18	  375.90
     53.4700	 1155.00	 1171.53	-1794.78	  375.96
     53.5700	 1134.00	 1215.76	-1860.01	  376.03
     53.6700	 1096.00	 1179.44	-1861.69	  376.10
     53.7700	 1062.00	 1077.89	-1794.14	  376.17
     53.8700	  894.00	  947.35	-1831.60	  376.24
     53.9700	  752.00	  820.54	-1846.79	  376.32
     54.0700	  675.00	  716.86	-1820.11	  376.39
     54.1700	  688.00	  642.83	-1733.08	  376.47
     54.2700	  620.00	  595.78	-1754.03	  376.54
     54.3700	  631.00	  568.70	-1715.95	  376.62
     54.4700	  569.00	  554.33	-1763.58	  376.70
     54.5700	  581.00	  547.08	-1744.33	  376.78
     54.6700	  569.00	  543.65	-1752.90	  376.86
     54.7700	  552.00	  542.23	-1768.48	  376.94
     54.8700	  537.00	  542.01	-1783.26	  377.03
     54.9700	  543.00	  542.64	-1777.89	  377.11
     55.0700	  566.00	  544.02	-1756.27	  377.20
     55.1700	  544.00	  546.12	-1780.37	  377.29
     55.2700	  548.00	  549.03	-1779.28	  377.37
     55.3700	  565.00	  552.78	-1766.03	  377.46
     55.4700	  557.00	  557.59	-1778.84	  377.55
     55.5700	  532.00	  563.78	-1810.03	  377.64
     55.6700	  544.00	  571.96	-1806.21	  377.74
     55.7700	  602.00	  583.44	-1759.69	  377.83
     55.8700	  607.00	  600.85	-1772.10	  377.92
     55.9700	  622.00	  629.25	-1785.50	  378.02
     56.0700	  633.00	  677.43	-1822.68	  378.12
     56.1700	  686.00	  758.79	-1851.04	  378.21
     56.2700	  827.00	  890.51	-1841.76	  378.31
     56.3700	 1028.00	 1089.50	-1839.75	  378.41
     56.4700	 1259.00	 1364.97	-1884.22	  378.51
     56.5700	 1593.00	 1708.81	-1894.06	  378.61
     56.6700	 2042.00	 2086.78	-1823.03	  378.72
     56.7700	 2331.00	 2434.15	-1881.40	  378.82
     56.8700	 2595.00	 2661.88	-1845.13	  378.93
     56.9700	 2531.00	 2691.36	-1938.61	  379.03
     57.0700	 2487.00	 2510.53	-1801.78	  379.14
     57.1700	 2173.00	 2185.97	-1791.22	  379.24
     57.2700	 1816.00	 1810.06	-1772.31	  379.35
     57.3700	 1446.00	 1455.79	-1788.04	  379.46
     57.4700	 1114.00	 1164.88	-1829.13	  379.57
     57.5700	  872.00	  951.37	-1857.62	  379.68
     57.6700	  772.00	  809.86	-1816.11	  379.79
     57.7700	  709.00	  725.08	-1794.33	  379.91
     57.8700	  707.00	  680.57	-1751.82	  380.02
     57.9700	  672.00	  663.56	-1769.81	  380.13
     58.0700	  674.00	  666.61	-1770.86	  380.25
     58.1700	  706.00	  686.73	-1758.98	  380.37
     58.2700	  727.00	  723.62	-1774.87	  380.48
     58.3700	  836.00	  777.74	-1719.99	  380.60
     58.4700	  920.00	  848.49	-1706.74	  380.72
     58.5700	 1064.00	  932.53	-1646.78	  380.84
     58.6700	 1233.00	 1022.65	-1567.90	  380.96
     58.7700	 1400.00	 1108.95	-1487.20	  381.08
     58.8700	 1527.00	 1183.07	-1434.32	  381.20
     58.9700	 1655.00	 1240.31	-1363.56	  381.32
     59.0700	 1615.00	 1275.81	-1439.06	  381.44
     59.1700	 1596.00	 1283.74	-1465.99	  381.57
     59.2700	 1465.00	 1264.47	-1577.72	  381.69
     59.3700	 1400.00	 1228.93	-1607.18	  381.82
     59.4700	 1365.00	 1191.68	-1604.93	  381.94
     59.5700	 1263.00	 1163.35	-1678.60	  382.07
     59.6700	 1185.00	 1151.08	-1744.33	  382.20
     59.7700	 1175.00	 1162.44	-1765.69	  382.32
     59.8700	 1206.00	 1204.23	-1776.48	  382.45
     59.9700	 1261.00	 1276.20	-1793.45	  382.58
     60.0700	 1393.00	 1366.53	-1751.78	  382.71
     60.1700	 1586.00	 1451.09	-1643.34	  382.84
     60.2700	 1598.00	 1497.51	-1677.76	  382.97
     60.3700	 1558.00	 1479.11	-1699.36	  383.10
     60.4700	 1588.00	 1392.86	-1583.11	  383.23
     60.5700	 1334.00	 1260.54	-1704.79	  383.37
     60.6700	 1128.00	 1111.77	-1762.02	  383.50
     60.7700	  902.00	  970.55	-1846.80	  383.63
     60.8700	  819.00	  851.75	-1811.00	  383.77
     60.9700	  666.00	  761.85	-1874.10	  383.90
     61.0700	  693.00	  701.19	-1786.44	  384.04
     61.1700	  631.00	  666.91	-1814.16	  384.17
     61.2700	  657.00	  655.90	-1777.15	  384.31
     61.3700	  598.00	  666.83	-1847.08	  384.45
     61.4700	  675.00	  700.95	-1804.20	  384.58
     61.5700	  720.00	  761.23	-1819.48	  384.72
     61.6700	  832.00	  850.39	-1796.64	  384.86
     61.7700	  882.00	  967.97	-1864.22	  385.00
     61.8700	 1045.00	 1107.48	-1840.73	  385.14
     61.9700	 1179.00	 1254.30	-1853.55	  385.27
     62.0700	 1245.00	 1384.83	-1918.08	  385.41
     62.1700	 1356.00	 1469.14	-1891.39	  385.55
     62.2700	 1374.00	 1481.73	-1885.98	  385.70
     62.3700	 1263.00	 1417.77	-1933.02	  385.84
     62.4700	 1242.00	 1297.04	-1833.29	  385.98
     62.5700	 1053.00	 1149.75	-1875.00	  386.12
     62.6700	 1000.00	 1002.28	-1780.53	  386.26
     62.7700	  825.00	  872.18	-1825.43	  386.40
     62.8700	  706.00	  768.22	-1840.47	  386.54
     62.9700	  637.00	  691.88	-1833.13	  386.69
     63.0700	  603.00	  639.88	-1815.13	  386.83
     63.1700	  587.00	  606.72	-1797.97	  386.97
     63.2700	  571.00	  586.75	-1794.00	  387.12
     63.3700	  580.00	  575.46	-1773.71	  387.26
     63.4700	  630.00	  569.90	-1718.15	  387.41
     63.5700	  594.00	  568.66	-1752.91	  387.55
     63.6700	  552.00	  571.64	-1797.89	  387.69
     63.7700	  579.00	  579.81	-1779.06	  387.84
     63.8700	  617.00	  594.96	-1756.21	  387.98
     63.9700	  642.00	  619.22	-1755.47	  388.13
     64.0700	  701.00	  654.44	-1731.69	  388.28
     64.1700	  779.00	  701.23	-1700.48	  388.42
     64.2700	  827.00	  758.05	-1709.30	  388.57
     64.3700	  909.00	  820.40	-1689.65	  388.71
     64.4700	  932.00	  880.51	-1726.76	  388.86
     64.5700	 1003.00	  927.97	-1703.22	  389.00
     64.6700	  972.00	  952.37	-1758.62	  389.15
     64.7700	 1016.00	  949.52	-1711.77	  389.30
     64.8700	 1013.00	  921.17	-1686.42	  389.44
     64.9700	  921.00	  874.76	-1732.01	  389.59
     65.0700	  876.00	  819.81	-1722.06	  389.74
     65.1700	  837.00	  765.04	-1706.29	  389.88
     65.2700	  737.00	  716.31	-1757.56	  390.03
     65.3700	  656.00	  676.06	-1798.31	  390.18
     65.4700	  680.00	  644.22	-1742.47	  390.32
     65.5700	  624.00	  619.50	-1773.75	  390.47
     65.6700	  587.00	  600.51	-1791.76	  390.62
     65.7700	  594.00	  586.17	-1770.42	  390.76
     65.8700	  588.00	  575.62	-1765.87	  390.91
     65.9700	  571.00	  568.19	-1775.44	  391.06
     66.0700	  625.00	  563.38	-1716.63	  391.20
     66.1700	  536.00	  560.75	-1803.00	  391.35
     66.2700	  546.00	  559.93	-1792.18	  391.50
     66.3700	  571.00	  560.64	-1767.89	  391.64
     66.4700	  531.00	  562.65	-1809.90	  391.79
     66.5700	  546.00	  565.97	-1798.22	  391.94
     66.6700	  538.00	  570.94	-1811.19	  392.08
     66.7700	  546.00	  577.99	-1810.24	  392.23
     66.8700	  569.00	  588.58	-1797.83	  392.37
     66.9700	  568.00	  605.08	-1815.33	  392.52
     67.0700	  620.00	  631.45	-1789.70	  392.67
     67.1700	  646.00	  673.57	-1805.82	  392.81
     67.2700	  642.00	  739.28	-1875.53	  392.96
     67.3700	  761.00	  837.68	-1854.93	  393.10
     67.4700	 1003.00	  977.38	-1752.63	  393.25
     67.5700	 1112.00	 1163.31	-1829.56	  393.39
     67.6700	 1429.00	 1393.87	-1743.12	  393.54
     67.7700	 1633.00	 1657.17	-1802.42	  393.68
     67.8700	 1976.00	 1929.65	-1731.90	  393.82
     67.9700	 2249.00	 2175.13	-1704.38	  393.97
     68.0700	 2429.00	 2348.94	-1698.19	  394.11
     68.1700	 2377.00	 2410.04	-1811.29	  394.25
     68.2700	 2409.00	 2341.60	-1710.85	  394.40
     68.3700	 2215.00	 2162.36	-1725.61	  394.54
     68.4700	 1953.00	 1914.27	-1739.52	  394.68
     68.5700	 1640.00	 1641.91	-1780.16	  394.82
     68.6700	 1316.00	 1380.36	-1842.61	  394.97
     68.7700	 1131.00	 1152.77	-1800.02	  395.11
     68.8700	  915.00	  970.25	-1833.50	  395.25
     68.9700	  831.00	  833.93	-1781.18	  395.39
     69.0700	  697.00	  738.37	-1819.62	  395.53
     69.1700	  674.00	  674.92	-1779.17	  395.67
     69.2700	  652.00	  634.54	-1760.79	  395.81
     69.3700	  595.00	  609.48	-1792.73	  395.95
     69.4700	  607.00	  593.98	-1765.23	  396.09
     69.5700	  597.00	  584.21	-1765.46	  396.23
     69.6700	  596.00	  577.81	-1760.06	  396.36
     69.7700	  616.00	  573.47	-1735.72	  396.50
     69.8700	  608.00	  570.47	-1740.72	  396.64
     69.9700	  579.00	  568.45	-1767.70	  396.77
     70.0700	  593.00	  567.22	-1752.47	  396.91
     70.1700	  522.00	  566.71	-1822.96	  397.05
     70.2700	  511.00	  566.92	-1834.17	  397.18
     70.3700	  545.00	  567.88	-1801.13	  397.31
     70.4700	  591.00	  569.77	-1757.02	  397.45
     70.5700	  585.00	  572.97	-1766.22	  397.58
     70.6700	  591.00	  578.14	-1765.39	  397.72
     70.7700	  608.00	  586.48	-1756.73	  397.85
     70.8700	  586.00	  599.99	-1792.24	  397.98
     70.9700	  615.00	  621.71	-1784.96	  398.11
     71.0700	  627.00	  655.93	-1807.18	  398.24
     71.1700	  683.00	  708.04	-1803.29	  398.37
     71.2700	  777.00	  784.00	-1785.25	  398.50
     71.3700	  882.00	  889.05	-1785.30	  398.63
     71.4700	 1012.00	 1026.88	-1793.13	  398.76
     71.5700	 1125.00	 1194.15	-1847.40	  398.89
     71.6700	 1284.00	 1384.00	-1878.25	  399.01
     71.7700	 1536.00	 1581.48	-1823.73	  399.14
     71.8700	 1734.00	 1764.34	-1808.59	  399.26
     71.9700	 1846.00	 1904.81	-1837.06	  399.39
     72.0700	 1968.00	 1975.39	-1785.64	  399.51
     72.1700	 1908.00	 1959.74	-1829.99	  399.64
     72.2700	 1859.00	 1861.96	-1781.21	  399.76
     72.3700	 1781.00	 1704.07	-1701.32	  399.88
     72.4700	 1600.00	 1514.26	-1692.51	  400.00
     72.5700	 1448.00	 1319.38	-1649.63	  400.12
     72.6700	 1342.00	 1138.28	-1574.53	  400.24
     72.7700	 1162.00	  982.82	-1599.07	  400.36
     72.8700	  987.00	  858.03	-1649.28	  400.48
     72.9700	  909.00	  763.47	-1632.72	  400.60
     73.0700	  898.00	  695.29	-1575.54	  400.72
     73.1700	  790.00	  648.06	-1636.31	  400.83
     73.2700	  697.00	  616.24	-1697.49	  400.95
     73.3700	  733.00	  595.10	-1640.35	  401.06
     73.4700	  678.00	  581.05	-1681.30	  401.17
     73.5700	  631.00	  571.59	-1718.84	  401.29
     73.6700	  598.00	  565.14	-1745.39	  401.40
     73.7700	  617.00	  560.73	-1721.98	  401.51
     73.8700	  559.00	  557.80	-1777.05	  401.62
     73.9700	  589.00	  556.00	-1745.25	  401.73
     74.0700	  588.00	  555.13	-1745.38	  401.84
     74.1700	  586.00	  554.98	-1747.23	  401.95
     74.2700	  593.00	  555.37	-1740.62	  402.05
     74.3700	  576.00	  556.06	-1758.31	  402.16
     74.4700	  619.00	  556.78	-1716.03	  402.26
     74.5700	  619.00	  557.22	-1716.47	  402.37
     74.6700	  655.00	  557.11	-1680.36	  402.47
     74.7700	  650.00	  556.29	-1684.54	  402.57
     74.8700	  624.00	  554.81	-1709.06	  402.67
     74.9700	  610.00	  552.90	-1721.15	  402.77
     75.0700	  587.00	  550.88	-1742.13	  402.87
     75.1700	  614.00	  549.12	-1713.37	  402.97
     75.2700	  599.00	  547.94	-1727.19	  403.07
     75.3700	  555.00	  547.65	-1770.90	  403.16
     75.4700	  570.00	  548.84	-1757.09	  403.26
     75.5700	  595.00	  551.87	-1735.12	  403.35
     75.6700	  587.00	  557.17	-1748.42	  403.45
     75.7700	  585.00	  565.43	-1758.68	  403.54
     75.8700	  533.00	  576.96	-1822.21	  403.63
     75.9700	  564.00	  591.91	-1806.16	  403.72
     76.0700	  539.00	  610.03	-1849.28	  403.81
     76.1700	  654.00	  630.52	-1754.77	  403.90
     76.2700	  659.00	  651.94	-1771.19	  403.98
     76.3700	  701.00	  672.26	-1749.51	  404.07
     76.4700	  677.00	  688.91	-1790.16	  404.15
     76.5700	  679.00	  699.23	-1798.48	  404.24
     76.6700	  713.00	  701.19	-1766.44	  404.32
     76.7700	  681.00	  694.38	-1791.63	  404.40
     76.8700	  639.00	  680.14	-1819.39	  404.48
     76.9700	  648.00	  660.95	-1791.20	  404.56
     77.0700	  623.00	  639.31	-1794.56	  404.64
     77.1700	  631.00	  617.88	-1765.13	  404.72
     77.2700	  569.00	  598.18	-1807.43	  404.79
     77.3700	  565.00	  581.28	-1794.53	  404.87
     77.4700	  562.00	  567.62	-1783.87	  404.94
     77.5700	  492.00	  557.17	-1843.42	  405.01
     77.6700	  545.00	  549.57	-1782.82	  405.08
     77.7700	  533.00	  544.28	-1789.53	  405.15
     77.8700	  514.00	  540.73	-1804.98	  405.22
     77.9700	  527.00	  538.43	-1789.68	  405.29
     78.0700	  449.00	  536.96	-1866.21	  405.35
     78.1700	  536.00	  536.03	-1778.28	  405.42
     78.2700	  529.00	  535.44	-1784.69	  405.48
     78.3700	  485.00	  535.08	-1828.33	  405.54
     78.4700	  528.00	  534.87	-1785.12	  405.61
     78.5700	  503.00	  534.77	-1810.02	  405.67
     78.6700	  535.00	  534.77	-1778.02	  405.72
     78.7700	  561.00	  534.87	-1752.12	  405.78
     78.8700	  511.00	  535.09	-1802.34	  405.84
     78.9700	  543.00	  535.45	-1770.70	  405.89
     79.0700	  524.00	  535.99	-1790.24	  405.95
     79.1700	  509.00	  536.76	-1806.01	  406.00
     79.2700	  498.00	  537.82	-1818.07	  406.05
     79.3700	  538.00	  539.06	-1779.31	  406.10
     79.4700	  521.00	  540.89	-1798.14	  406.15
     79.5700	  532.00	  543.22	-1789.47	  406.19
     79.6700	  526.00	  546.14	-1798.39	  406.24
     79.7700	  535.00	  549.73	-1792.98	  406.28
     79.8700	  552.00	  554.12	-1780.37	  406.33
     79.9700	  515.00	  559.48	-1822.73	  406.37
     80.0700	  531.00	  565.98	-1813.23	  406.41
     80.1700	  556.00	  573.89	-1796.14	  406.45
     80.2700	  561.00	  583.48	-1800.73	  406.49
     80.3700	  574.00	  595.03	-1799.28	  406.52
     80.4700	  563.00	  608.71	-1823.96	  406.56
     80.5700	  602.00	  624.44	-1800.69	  406.59
     80.6700	  558.00	  641.84	-1862.09	  406.62
     80.7700	  653.00	  660.12	-1785.37	  406.65
     80.8700	  636.00	  678.13	-1820.38	  406.68
     80.9700	  664.00	  694.45	-1808.70	  406.71
     81.0700	  667.00	  707.67	-1818.92	  406.74
     81.1700	  705.00	  716.68	-1789.93	  406.76
     81.2700	  768.00	  720.78	-1731.03	  406.78
     81.3700	  723.00	  719.74	-1774.99	  406.81
     81.4700	  769.00	  713.75	-1723.00	  406.83
     81.5700	  744.00	  703.45	-1737.70	  406.85
     81.6700	  728.00	  689.78	-1740.03	  406.86
     81.7700	  756.00	  673.75	-1696.00	  406.88
     81.8700	  723.00	  656.39	-1711.64	  406.89
     81.9700	  683.00	  638.69	-1733.94	  406.91
     82.0700	  629.00	  621.59	-1770.84	  406.92
     82.1700	  702.00	  605.78	-1682.03	  406.93
     82.2700	  623.00	  591.84	-1747.09	  406.94
     82.3700	  636.00	  579.97	-1722.22	  406.95
     82.4700	  626.00	  570.22	-1722.47	  406.95
     82.5700	  613.00	  562.53	-1727.78	  406.96
     82.6700	  599.00	  556.75	-1736.00	  406.96
     82.7700	  569.00	  552.78	-1762.03	  406.96
     82.8700	  544.00	  550.45	-1784.70	  406.96
     82.9700	  577.00	  549.63	-1750.88	  406.96
     83.0700	  512.00	  550.24	-1816.49	  406.96
     83.1700	  514.00	  552.20	-1816.45	  406.95
     83.2700	  519.00	  555.42	-1814.67	  406.95
     83.3700	  522.00	  559.78	-1816.03	  406.94
     83.4700	  519.00	  565.08	-1824.33	  406.93
     83.5700	  508.00	  571.04	-1841.29	  406.92
     83.6700	  534.00	  577.26	-1821.51	  406.91
     83.7700	  591.00	  583.20	-1770.45	  406.89
     83.8700	  608.00	  588.28	-1758.53	  406.88
     83.9700	  551.00	  591.84	-1819.09	  406.86
     84.0700	  590.00	  593.35	-1781.60	  406.84
     84.1700	  597.00	  592.53	-1773.78	  406.82
     84.2700	  547.00	  589.48	-1820.73	  406.80
     84.3700	  553.00	  584.65	-1809.90	  406.78
     84.4700	  540.00	  578.64	-1816.89	  406.75
     84.5700	  542.00	  572.06	-1808.31	  406.73
     84.6700	  544.00	  565.44	-1799.69	  406.70
     84.7700	  489.00	  559.21	-1848.46	  406.67
     84.8700	  558.00	  553.65	-1773.90	  406.64
     84.9700	  522.00	  548.93	-1805.18	  406.61
     85.0700	  512.00	  545.12	-1811.37	  406.57
     85.1700	  556.00	  542.19	-1764.44	  406.54
     85.2700	  533.00	  540.07	-1785.32	  406.50
     85.3700	  507.00	  538.65	-1809.90	  406.46
     85.4700	  516.00	  537.82	-1800.07	  406.42
     85.5700	  540.00	  537.49	-1775.74	  406.38
     85.6700	  530.00	  537.58	-1785.83	  406.33
     85.7700	  558.00	  538.03	-1758.28	  406.29
     85.8700	  504.00	  538.83	-1813.08	  406.24
     85.9700	  535.00	  539.97	-1783.22	  406.19
     86.0700	  480.00	  541.51	-1839.76	  406.14
     86.1700	  540.00	  543.50	-1781.75	  406.09
     86.2700	  497.00	  546.03	-1827.28	  406.04
     86.3700	  496.00	  549.20	-1831.45	  405.98
     86.4700	  528.00	  553.15	-1803.40	  405.93
     86.5700	  572.00	  557.97	-1764.22	  405.87
     86.6700	  578.00	  563.76	-1764.01	  405.81
     86.7700	  580.00	  570.52	-1768.77	  405.75
     86.8700	  531.00	  578.14	-1825.39	  405.68
     86.9700	  574.00	  586.06	-1790.31	  405.62
     87.0700	  600.00	  594.50	-1772.75	  405.55
     87.1700	  617.00	  602.59	-1763.84	  405.49
     87.2700	  645.00	  609.67	-1742.92	  405.42
     87.3700	  614.00	  615.03	-1779.28	  405.35
     87.4700	  685.00	  618.01	-1711.26	  405.27
     87.5700	  650.00	  618.17	-1746.42	  405.20
     87.6700	  660.00	  615.49	-1733.74	  405.12
     87.7700	  660.00	  610.38	-1728.63	  405.05
     87.8700	  634.00	  603.54	-1747.79	  404.97
     87.9700	  620.00	  595.79	-1754.04	  404.89
     88.0700	  580.00	  587.94	-1786.19	  404.80
     88.1700	  591.00	  580.73	-1767.98	  404.72
     88.2700	  603.00	  574.74	-1749.99	  404.63
     88.3700	  604.00	  570.41	-1744.66	  404.55
     88.4700	  567.00	  568.02	-1779.27	  404.46
     88.5700	  583.00	  567.66	-1762.91	  404.37
     88.6700	  562.00	  569.28	-1785.53	  404.27
     88.7700	  583.00	  572.66	-1767.91	  404.18
     88.8700	  587.00	  577.47	-1768.72	  404.09
     88.9700	  553.00	  583.24	-1808.49	  403.99
     89.0700	  626.00	  589.42	-1741.67	  403.89
     89.1700	  622.00	  595.39	-1751.64	  403.79
     89.2700	  627.00	  600.47	-1751.72	  403.69
     89.3700	  596.00	  604.03	-1786.28	  403.58
     89.4700	  605.00	  605.53	-1778.78	  403.48
     89.5700	  581.00	  604.74	-1801.99	  403.37
     89.6700	  616.00	  601.70	-1763.95	  403.26
     89.7700	  581.00	  596.78	-1794.03	  403.15
     89.8700	  569.00	  590.52	-1799.77	  403.04
     89.9700	  537.00	  583.48	-1824.73	  402.93
     90.0700	  569.00	  576.19	-1785.44	  402.82
     90.1700	  554.00	  569.09	-1793.34	  402.70
     90.2700	  535.00	  562.52	-1805.77	  402.58
     90.3700	  546.00	  556.71	-1788.96	  402.46
     90.4700	  492.00	  551.79	-1838.04	  402.34
     90.5700	  551.00	  547.78	-1775.03	  402.22
     90.6700	  546.00	  544.65	-1776.90	  402.09
     90.7700	  524.00	  542.33	-1796.58	  401.97
     90.8700	  504.00	  540.70	-1814.95	  401.84
     90.9700	  549.00	  539.67	-1768.92	  401.71
     91.0700	  479.00	  539.13	-1838.38	  401.58
     91.1700	  550.00	  539.03	-1767.28	  401.45
     91.2700	  509.00	  539.33	-1808.58	  401.32
     91.3700	  499.00	  540.03	-1819.28	  401.18
     91.4700	  581.00	  541.18	-1738.43	  401.04
     91.5700	  538.00	  542.88	-1783.13	  400.91
     91.6700	  507.00	  545.24	-1816.49	  400.77
     91.7700	  518.00	  548.43	-1808.68	  400.62
     91.8700	  555.00	  552.62	-1775.87	  400.48
     91.9700	  555.00	  558.02	-1781.27	  400.34
     92.0700	  532.00	  564.58	-1810.83	  400.19
     92.1700	  547.00	  572.88	-1804.13	  400.04
     92.2700	  551.00	  582.80	-1810.05	  399.89
     92.3700	  550.00	  594.32	-1822.57	  399.74
     92.4700	  595.00	  607.34	-1790.59	  399.59
     92.5700	  658.00	  621.61	-1741.86	  399.44
     92.6700	  664.00	  636.78	-1751.03	  399.28
     92.7700	  680.00	  652.37	-1750.62	  399.13
     92.8700	  722.00	  667.79	-1724.04	  398.97
     92.9700	  731.00	  682.38	-1729.63	  398.81
     93.0700	  769.00	  695.53	-1704.78	  398.65
     93.1700	  761.00	  706.84	-1724.09	  398.49
     93.2700	  811.00	  716.22	-1683.47	  398.32
     93.3700	  758.00	  723.96	-1744.21	  398.16
     93.4700	  753.00	  730.69	-1755.94	  397.99
     93.5700	  799.00	  737.16	-1716.41	  397.82
     93.6700	  863.00	  744.11	-1659.36	  397.65
     93.7700	  786.00	  752.21	-1744.46	  397.48
     93.8700	  830.00	  762.00	-1710.25	  397.31
     93.9700	  846.00	  773.94	-1706.19	  397.13
     94.0700	  877.00	  788.33	-1689.58	  396.96
     94.1700	  884.00	  805.31	-1699.56	  396.78
     94.2700	  890.00	  824.70	-1712.95	  396.60
     94.3700	  889.00	  845.90	-1735.15	  396.42
     94.4700	  870.00	  867.89	-1776.14	  396.24
     94.5700	  875.00	  889.17	-1792.42	  396.06
     94.6700	  905.00	  907.94	-1781.19	  395.87
     94.7700	  938.00	  922.17	-1762.42	  395.69
     94.8700	  908.00	  929.93	-1800.18	  395.50
     94.9700	  875.00	  929.81	-1833.06	  395.31
     95.0700	  887.00	  921.28	-1812.53	  395.12
     95.1700	  928.00	  904.88	-1755.13	  394.93
     95.2700	  902.00	  882.02	-1758.27	  394.74
     95.3700	  810.00	  854.68	-1822.93	  394.55
     95.4700	  793.00	  825.01	-1810.26	  394.35
     95.5700	  771.00	  795.15	-1802.40	  394.16
     95.6700	  800.00	  767.08	-1745.33	  393.96
     95.7700	  712.00	  742.58	-1808.83	  393.76
     95.8700	  710.00	  723.25	-1791.50	  393.56
     95.9700	  635.00	  710.48	-1853.73	  393.36
     96.0700	  671.00	  705.48	-1812.73	  393.16
     96.1700	  652.00	  709.29	-1835.54	  392.95
     96.2700	  713.00	  722.70	-1787.95	  392.75
     96.3700	  734.00	  746.35	-1790.60	  392.54
     96.4700	  751.00	  780.54	-1807.79	  392.33
     96.5700	  762.00	  825.23	-1841.48	  392.13
     96.6700	  840.00	  879.91	-1818.16	  391.92
     96.7700	  907.00	  943.47	-1814.72	  391.70
     96.8700	 1006.00	 1014.23	-1786.48	  391.49
     96.9700	 1046.00	 1089.74	-1821.99	  391.28
     97.0700	 1152.00	 1166.91	-1793.16	  391.06
     97.1700	 1213.00	 1241.97	-1807.22	  390.85
     97.2700	 1284.00	 1310.63	-1804.88	  390.63
     97.3700	 1406.00	 1368.35	-1740.60	  390.41
     97.4700	 1456.00	 1410.76	-1733.01	  390.19
     97.5700	 1410.00	 1434.35	-1802.60	  389.97
     97.6700	 1412.00	 1437.19	-1803.44	  389.75
     97.7700	 1441.00	 1419.42	-1756.67	  389.53
     97.8700	 1317.00	 1383.11	-1844.36	  389.31
     97.9700	 1269.00	 1331.78	-1841.03	  389.08
     98.0700	 1262.00	 1269.65	-1785.90	  388.86
     98.1700	 1231.00	 1201.13	-1748.38	  388.63
     98.2700	 1124.00	 1130.46	-1784.71	  388.40
     98.3700	 1122.00	 1061.39	-1717.64	  388.17
     98.4700	  938.00	  997.16	-1837.41	  387.94
     98.5700	  929.00	  940.43	-1789.68	  387.71
     98.6700	  878.00	  893.32	-1793.57	  387.48
     98.7700	  880.00	  857.43	-1755.68	  387.25
     98.8700	  830.00	  833.94	-1782.19	  387.01
     98.9700	  827.00	  823.71	-1774.96	  386.78
     99.0700	  769.00	  827.26	-1836.51	  386.54
     99.1700	  817.00	  844.95	-1806.20	  386.31
     99.2700	  880.00	  876.90	-1775.15	  386.07
     99.3700	  841.00	  923.05	-1860.30	  385.83
     99.4700	  951.00	  983.08	-1810.33	  385.59
     99.5700	  988.00	 1056.34	-1846.59	  385.35
     99.6700	 1118.00	 1141.77	-1802.02	  385.11
     99.7700	 1216.00	 1237.81	-1800.06	  384.87
     99.8700	 1322.00	 1342.30	-1798.55	  384.63
     99.9700	 1442.00	 1452.38	-1788.63	  384.38
    100.0700	 1611.00	 1564.48	-1731.73	  384.14
    100.1700	 1781.00	 1674.43	-1671.68	  383.90
    100.2700	 1812.00	 1777.74	-1743.99	  383.65
    100.3700	 1874.00	 1870.05	-1774.30	  383.40
    100.4700	 1991.00	 1947.54	-1734.79	  383.16
    100.5700	 2124.00	 2007.37	-1661.62	  382.91
    100.6700	 2122.00	 2047.63	-1703.88	  382.66
    100.7700	 2095.00	 2067.16	-1750.41	  382.41
    100.8700	 2194.00	 2065.30	-1649.55	  382.16
    100.9700	 2064.00	 2041.97	-1756.22	  381.91
    101.0700	 2075.00	 1997.99	-1701.24	  381.66
    101.1700	 1884.00	 1935.44	-1829.69	  381.41
    101.2700	 1874.00	 1857.75	-1762.00	  381.15
    101.3700	 1788.00	 1769.42	-1759.67	  380.90
    101.4700	 1684.00	 1675.53	-1769.78	  380.65
    101.5700	 1548.00	 1580.99	-1811.24	  380.39
    101.6700	 1490.00	 1490.18	-1778.43	  380.14
    101.7700	 1373.00	 1406.55	-1811.80	  379.88
    101.8700	 1352.00	 1332.51	-1758.76	  379.63
    101.9700	 1357.00	 1269.44	-1690.69	  379.37
    102.0700	 1225.00	 1217.70	-1770.95	  379.12
    102.1700	 1086.00	 1176.66	-1868.91	  378.86
    102.2700	 1104.00	 1144.84	-1819.09	  378.60
    102.3700	 1164.00	 1120.12	-1734.37	  378.34
    102.4700	 1159.00	 1099.93	-1719.18	  378.09
    102.5700	 1040.00	 1081.57	-1819.82	  377.83
    102.6700	 1079.00	 1062.53	-1761.78	  377.57
    102.7700	 1026.00	 1040.82	-1793.07	  377.31
    102.8700	 1000.00	 1015.21	-1793.46	  377.05
    102.9700	 1007.00	  985.34	-1756.59	  376.79
    103.0700	  982.00	  951.57	-1747.82	  376.53
    103.1700	  869.00	  914.75	-1824.00	  376.27
    103.2700	  857.00	  876.00	-1797.25	  376.01
    103.3700	  822.00	  836.55	-1792.80	  375.75
    103.4700	  770.00	  797.57	-1805.82	  375.49
    103.5700	  725.00	  760.11	-1813.36	  375.22
    103.6700	  723.00	  725.05	-1780.30	  374.96
    103.7700	  689.00	  693.05	-1782.30	  374.70
    103.8700	  668.00	  664.57	-1774.82	  374.44
    103.9700	  650.00	  639.83	-1768.08	  374.18
    104.0700	  580.00	  618.87	-1817.12	  373.92
    104.1700	  610.00	  601.54	-1769.79	  373.65
    104.2700	  564.00	  587.62	-1801.87	  373.39
    104.3700	  574.00	  576.77	-1781.02	  373.13
    104.4700	  580.00	  568.60	-1766.85	  372.87
    104.5700	  540.00	  562.75	-1801.00	  372.61
    104.6700	  542.00	  558.83	-1795.08	  372.34
    104.7700	  583.00	  556.49	-1751.74	  372.08
    104.8700	  543.00	  555.42	-1790.67	  371.82
    104.9700	  558.00	  555.37	-1775.62	  371.56
    105.0700	  546.00	  556.09	-1788.34	  371.30
    105.1700	  571.00	  557.41	-1764.66	  371.03
    105.2700	  497.00	  559.20	-1840.45	  370.77
    105.3700	  578.00	  561.33	-1761.58	  370.51
    105.4700	  577.00	  563.77	-1765.02	  370.25
    105.5700	  530.00	  566.48	-1814.73	  369.99
    105.6700	  533.00	  569.48	-1814.73	  369.73
    105.7700	  544.00	  572.86	-1807.11	  369.47
    105.8700	  556.00	  576.70	-1798.95	  369.21
    105.9700	  546.00	  581.13	-1813.38	  368.95
    106.0700	  561.00	  586.27	-1803.52	  368.69
    106.1700	  615.00	  592.21	-1755.46	  368.43
    106.2700	  561.00	  598.99	-1816.24	  368.18
    106.3700	  593.00	  606.61	-1791.86	  367.92
    106.4700	  577.00	  614.98	-1816.23	  367.66
    106.5700	  583.00	  623.95	-1819.20	  367.41
    106.6700	  594.00	  633.31	-1817.56	  367.15
    106.7700	  593.00	  642.75	-1828.00	  366.89
    106.8700	  639.00	  651.95	-1791.20	  366.64
    106.9700	  604.00	  660.51	-1834.76	  366.38
    107.0700	  635.00	  668.07	-1811.32	  366.13
    107.1700	  610.00	  674.26	-1842.51	  365.88
    107.2700	  674.00	  678.81	-1783.06	  365.63
    107.3700	  689.00	  681.58	-1770.83	  365.37
    107.4700	  676.00	  682.61	-1784.86	  365.12
    107.5700	  696.00	  682.11	-1764.36	  364.87
    107.6700	  667.00	  680.40	-1791.65	  364.62
    107.7700	  646.00	  677.92	-1810.17	  364.37
    107.8700	  686.00	  675.10	-1767.35	  364.13
    107.9700	  633.00	  672.35	-1817.60	  363.88
    108.0700	  687.00	  669.99	-1761.24	  363.63
    108.1700	  677.00	  668.28	-1769.53	  363.39
    108.2700	  639.00	  667.33	-1806.58	  363.14
    108.3700	  708.00	  667.17	-1737.42	  362.90
    108.4700	  663.00	  667.70	-1782.95	  362.66
    108.5700	  714.00	  668.71	-1732.96	  362.42
    108.6700	  619.00	  669.90	-1829.15	  362.18
    108.7700	  675.00	  670.91	-1774.16	  361.94
    108.8700	  682.00	  671.35	-1767.60	  361.70
    108.9700	  663.00	  670.83	-1786.08	  361.46
    109.0700	  658.00	  669.02	-1789.27	  361.23
    109.1700	  677.00	  665.74	-1766.99	  360.99
    109.2700	  679.00	  660.90	-1760.15	  360.76
    109.3700	  690.00	  654.56	-1742.81	  360.53
    109.4700	  649.00	  646.93	-1776.18	  360.30
    109.5700	  654.00	  638.25	-1762.50	  360.07
    109.6700	  593.00	  628.85	-1814.10	  359.84
    109.7700	  661.00	  619.04	-1736.29	  359.61
    109.8700	  624.00	  609.14	-1763.39	  359.39
    109.9700	  609.00	  599.44	-1768.69	  359.17
    110.0700	  545.00	  590.18	-1823.43	  358.94
    110.1700	  595.00	  581.57	-1764.82	  358.72
    110.2700	  611.00	  573.76	-1741.01	  358.50
    110.3700	  544.00	  566.86	-1801.11	  358.29
    110.4700	  570.00	  560.93	-1769.18	  358.07
    110.5700	  580.00	  555.97	-1754.22	  357.86
    110.6700	  521.00	  551.97	-1809.22	  357.64
    110.7700	  536.00	  548.87	-1791.12	  357.43
    110.8700	  512.00	  546.61	-1812.86	  357.22
    110.9700	  567.00	  545.10	-1756.35	  357.02
    111.0700	  568.00	  544.26	-1754.51	  356.81
    111.1700	  553.00	  544.01	-1769.26	  356.61
    111.2700	  531.00	  544.26	-1791.51	  356.41
    111.3700	  553.00	  544.93	-1770.18	  356.21
    111.4700	  584.00	  545.98	-1740.23	  356.01
    111.5700	  537.00	  547.34	-1788.59	  355.81
    111.6700	  565.00	  548.99	-1762.24	  355.62
    111.7700	  525.00	  550.87	-1804.12	  355.43
    111.8700	  576.00	  552.99	-1755.24	  355.24
    111.9700	  536.00	  555.33	-1797.58	  355.05
    112.0700	  514.00	  557.87	-1822.12	  354.86
    112.1700	  564.00	  560.64	-1774.89	  354.68
    112.2700	  582.00	  563.64	-1759.89	  354.50
    112.3700	  560.00	  566.90	-1785.15	  354.32
    112.4700	  589.00	  570.45	-1759.70	  354.14
    112.5700	  582.00	  574.32	-1770.57	  353.97
    112.6700	  626.00	  578.58	-1730.83	  353.80
    112.7700	  584.00	  583.30	-1777.55	  353.63
    112.8700	  634.00	  588.57	-1732.82	  353.46
    112.9700	  656.00	  594.50	-1716.75	  353.30
    113.0700	  656.00	  601.27	-1723.52	  353.13
    113.1700	  687.00	  609.07	-1700.32	  352.98
    113.2700	  737.00	  618.16	-1659.41	  352.82
    113.3700	  725.00	  628.91	-1682.16	  352.66
    113.4700	  787.00	  641.73	-1632.98	  352.51
    113.5700	  795.00	  657.17	-1640.42	  352.36
    113.6700	  896.00	  675.93	-1558.18	  352.22
    113.7700	  867.00	  698.85	-1610.10	  352.07
    113.8700	  910.00	  726.94	-1595.19	  351.93
    113.9700	 1010.00	  761.42	-1529.67	  351.80
    114.0700	 1052.00	  803.75	-1530.00	  351.66
    114.1700	 1124.00	  855.56	-1509.81	  351.53
    114.2700	 1130.00	  918.72	-1566.97	  351.40
    114.3700	 1218.00	  995.33	-1555.58	  351.27
    114.4700	 1248.00	 1087.58	-1617.83	  351.15
    114.5700	 1355.00	 1197.86	-1621.11	  351.03
    114.6700	 1555.00	 1328.52	-1551.77	  350.92
    114.7700	 1624.00	 1481.83	-1636.08	  350.80
    114.8700	 1817.00	 1659.97	-1621.22	  350.69
    114.9700	 2035.00	 1864.65	-1607.90	  350.59
    115.0700	 2198.00	 2097.26	-1677.51	  350.48
    115.1700	 2449.00	 2358.41	-1687.66	  350.38
    115.2700	 2618.00	 2647.93	-1808.18	  350.29
    115.3700	 2815.00	 2964.82	-1928.07	  350.19
    115.4700	 3212.00	 3306.85	-1873.10	  350.10
    115.5700	 3543.00	 3670.80	-1906.05	  350.02
    115.6700	 3876.00	 4052.10	-1954.35	  349.93
    115.7700	 4264.00	 4444.89	-1959.14	  349.85
    115.8700	 4516.00	 4842.27	-2104.52	  349.78
    115.9700	 4873.00	 5235.94	-2141.19	  349.71
    116.0700	 5349.00	 5616.73	-2045.98	  349.64
    116.1700	 5710.00	 5974.40	-2042.65	  349.57
    116.2700	 5980.00	 6298.12	-2096.37	  349.51
    116.3700	 6616.00	 6577.03	-1739.28	  349.46
    116.4700	 6822.00	 6800.57	-1756.82	  349.40
    116.5700	 6904.00	 6959.57	-1833.82	  349.35
    116.6700	 7113.00	 7047.05	-1712.30	  349.31
    116.7700	 7048.00	 7059.05	-1789.30	  349.27
    116.8700	 7104.00	 6995.19	-1669.44	  349.23
    116.9700	 7010.00	 6858.75	-1627.00	  349.20
    117.0700	 6807.00	 6656.10	-1627.35	  349.17
    117.1700	 6531.00	 6396.05	-1643.30	  349.15
    117.2700	 6208.00	 6088.92	-1659.17	  349.13
    117.3700	 5697.00	 5745.50	-1826.75	  349.11
    117.4700	 5303.00	 5376.69	-1851.94	  349.10
    117.5700	 5058.00	 4992.60	-1712.85	  349.09
    117.6700	 4593.00	 4602.69	-1787.94	  349.09
    117.7700	 4329.00	 4215.30	-1664.55	  349.09
    117.8700	 4070.00	 3837.44	-1545.69	  349.10
    117.9700	 3686.00	 3475.11	-1567.36	  349.11
    118.0700	 3330.00	 3132.83	-1581.08	  349.13
    118.1700	 2887.00	 2814.06	-1705.31	  349.15
    118.2700	 2478.00	 2521.11	-1821.36	  349.17
    118.3700	 2191.00	 2255.11	-1842.36	  349.20
    118.4700	 2000.00	 2016.45	-1794.70	  349.24
    118.5700	 1704.00	 1804.58	-1878.83	  349.28
    118.6700	 1607.00	 1618.47	-1789.72	  349.32
    118.7700	 1297.00	 1456.57	-1937.82	  349.37
    118.8700	 1233.00	 1316.94	-1862.19	  349.42
    118.9700	 1071.00	 1197.53	-1904.78	  349.48
    119.0700	 1007.00	 1096.11	-1867.36	  349.55
    119.1700	  921.00	 1010.53	-1867.78	  349.62
    119.2700	  863.00	  938.71	-1853.96	  349.69
    119.3700	  840.00	  878.67	-1816.92	  349.77
    119.4700	  784.00	  828.65	-1822.90	  349.86
    119.5700	  702.00	  787.05	-1863.30	  349.95
    119.6700	  720.00	  752.49	-1810.74	  350.05
    119.7700	  657.00	  723.79	-1845.04	  350.15
    119.8700	  631.00	  699.92	-1847.17	  350.26
    119.9700	  571.00	  680.06	-1887.31	  350.37
    120.0700	  611.00	  663.49	-1830.74	  350.49
    120.1700	  599.00	  649.66	-1828.91	  350.62
    120.2700	  575.00	  638.09	-1841.34	  350.75
    120.3700	  575.00	  628.42	-1831.67	  350.88
    120.4700	  536.00	  620.34	-1862.59	  351.02
    120.5700	  554.00	  613.61	-1837.86	  351.17
    120.6700	  572.00	  608.06	-1814.31	  351.33
    120.7700	  557.00	  603.52	-1824.77	  351.49
    120.8700	  583.00	  599.90	-1795.15	  351.65
    120.9700	  588.00	  597.09	-1787.34	  351.82
    121.0700	  596.00	  595.03	-1777.28	  352.00
    121.1700	  581.00	  593.67	-1790.92	  352.19
    121.2700	  544.00	  592.97	-1827.22	  352.38
    121.3700	  545.00	  592.87	-1826.12	  352.58
    121.4700	  552.00	  593.35	-1819.60	  352.78
    121.5700	  575.00	  594.36	-1797.61	  352.99
    121.6700	  581.00	  595.85	-1793.10	  353.21
    121.7700	  546.00	  597.79	-1830.04	  353.43
    121.8700	  592.00	  600.10	-1786.35	  353.66
    121.9700	  587.00	  602.70	-1793.95	  353.89
    122.0700	  671.00	  605.56	-1712.81	  354.14
    122.1700	  616.00	  608.56	-1770.81	  354.39
    122.2700	  648.00	  611.63	-1741.88	  354.64
    122.3700	  594.00	  614.65	-1798.90	  354.91
    122.4700	  603.00	  617.53	-1792.78	  355.18
    122.5700	  618.00	  620.15	-1780.40	  355.46
    122.6700	  617.00	  622.42	-1783.67	  355.74
    122.7700	  637.00	  624.26	-1765.51	  356.03
    122.8700	  661.00	  625.58	-1742.83	  356.33
    122.9700	  615.00	  626.33	-1789.58	  356.64
    123.0700	  647.00	  626.48	-1757.73	  356.95
    123.1700	  631.00	  626.03	-1773.28	  357.27
    123.2700	  628.00	  624.98	-1775.23	  357.60
    123.3700	  679.00	  623.40	-1722.65	  357.94
    123.4700	  665.00	  621.32	-1734.57	  358.28
    123.5700	  655.00	  618.81	-1742.06	  358.63
    123.6700	  622.00	  615.95	-1772.20	  358.99
    123.7700	  601.00	  612.80	-1790.05	  359.36
    123.8700	  649.00	  609.45	-1738.70	  359.73
    123.9700	  621.00	  605.95	-1763.20	  360.11
    124.0700	  596.00	  602.39	-1784.64	  360.50
    124.1700	  641.00	  598.81	-1736.06	  360.90
    124.2700	  615.00	  595.28	-1758.53	  361.31
    124.3700	  642.00	  591.84	-1728.09	  361.72
    124.4700	  625.00	  588.53	-1741.78	  362.15
    124.5700	  606.00	  585.38	-1757.63	  362.58
    124.6700	  563.00	  582.41	-1797.66	  363.02
    124.7700	  617.00	  579.65	-1740.90	  363.46
    124.8700	  572.00	  577.10	-1783.35	  363.92
    124.9700	  567.00	  480.75	-1692.00	  364.38
    125.0700	  564.00	  481.22	-1778.25	  364.86
    125.1700	  574.00	  481.70	-1778.25	  365.34
    125.2700	  546.00	  482.19	-1778.25	  365.83
    125.3700	  572.00	  482.69	-1778.25	  366.33
    125.4700	  590.00	  483.20	-1778.25	  366.83
    125.5700	  568.00	  483.71	-1778.25	  367.35
    125.6700	  571.00	  484.24	-1778.25	  367.88
    125.7700	  602.00	  484.77	-1778.25	  368.41
    125.8700	  603.00	  485.32	-1778.25	  368.96
    125.9700	  586.00	  485.87	-1778.25	  369.51
    126.0700	  571.00	  486.43	-1778.25	  370.07
    126.1700	  561.00	  487.00	-1778.25	  370.64
    126.2700	  588.00	  487.59	-1778.25	  371.22
    126.3700	  564.00	  488.18	-1778.25	  371.81
    126.4700	  581.00	  488.77	-1778.25	  372.41
    126.5700	  578.00	  489.38	-1778.25	  373.02
    126.6700	  566.00	  490.00	-1778.25	  373.64
    126.7700	  590.00	  490.63	-1778.25	  374.27
    126.8700	  587.00	  491.27	-1778.25	  374.91
    126.9700	  605.00	  491.92	-1778.25	  375.55
    127.0700	  589.00	  492.58	-1778.25	  376.21
    127.1700	  609.00	  493.24	-1778.25	  376.88
    127.2700	  636.00	  493.92	-1778.25	  377.56
    127.3700	  629.00	  494.61	-1778.25	  378.25
    127.4700	  650.00	  495.31	-1778.25	  378.94
    127.5700	  651.00	  496.02	-1778.25	  379.65
    127.6700	  655.00	  496.73	-1778.25	  380.37
    127.7700	  670.00	  497.46	-1778.25	  381.10
    127.8700	  721.00	  498.20	-1778.25	  381.84
    127.9700	  665.00	  498.95	-1778.25	  382.59
    128.0700	  724.00	  499.71	-1778.25	  383.35
    128.1700	  724.00	  500.48	-1778.25	  384.12
    128.2700	  790.00	  501.27	-1778.25	  384.90
    128.3700	  805.00	  502.06	-1778.25	  385.70
    128.4700	  775.00	  502.86	-1778.25	  386.50
    128.5700	    0.00	  503.68	-1778.25	  387.32
    128.6700	    0.00	  504.50	-1778.25	  388.14
     12.3185	        	        	        	        	       0	(  0  0  2)	  0  1
     24.9080	        	        	        	        	       0	(  0  0  4)	  0  1
     28.3488	        	        	        	        	       0	(  1  0  0)	  0  1
     29.0464	        	        	        	        	       0	(  1  0  1)	  0  1
     31.0538	        	        	        	        	       0	(  1  0  2)	  0  1
     34.1640	        	        	        	        	       0	(  1  0  3)	  0  1
     37.8139	        	        	        	        	       0	(  0  0  6)	  0  1
     38.1434	        	        	        	        	       0	(  1  0  4)	  0  1
     42.7962	        	        	        	        	       0	(  1  0  5)	  0  1
     47.9833	        	        	        	        	       0	(  1  0  6)	  0  1
     50.2954	        	        	        	        	       0	(  1  1  0)	  0  1
     51.2430	        	        	        	        	       0	(  0  0  8)	  0  1
     52.0196	        	        	        	        	       0	(  1  1  2)	  0  1
     53.6172	        	        	        	        	       0	(  1  0  7)	  0  1
     56.9708	        	        	        	        	       0	(  1  1  4)	  0  1
     58.7966	        	        	        	        	       0	(  2  0  0)	  0  1
     59.1885	        	        	        	        	       0	(  2  0  1)	  0  1
     59.6513	        	        	        	        	       0	(  1  0  8)	  0  1
     60.3547	        	        	        	        	       0	(  2  0  2)	  0  1
     62.2693	        	        	        	        	       0	(  2  0  3)	  0  1
     64.6707	        	        	        	        	       0	(  1  1  6)	  0  1
     64.8952	        	        	        	        	       0	(  2  0  4)	  0  1
     65.4807	        	        	        	        	       0	(  0  0 10)	  0  1
     66.0718	        	        	        	        	       0	(  1  0  9)	  0  1
     68.1919	        	        	        	        	       0	(  2  0  5)	  0  1
     72.1223	        	        	        	        	       0	(  2  0  6)	  0  1
     72.8926	        	        	        	        	       0	(  1  0 10)	  0  1
     74.7157	        	        	        	        	       0	(  1  1  8)	  0  1
     76.6599	        	        	        	        	       0	(  2  0  7)	  0  1
     80.1557	        	        	        	        	       0	(  1  0 11)	  0  1
     80.9721	        	        	        	        	       0	(  0  0 12)	  0  1
     81.0510	        	        	        	        	       0	(  2  1  0)	  0  1
     81.3911	        	        	        	        	       0	(  2  1  1)	  0  1
     81.7943	        	        	        	        	       0	(  2  0  8)	  0  1
     82.4099	        	        	        	        	       0	(  2  1  2)	  0  1
     84.1026	        	        	        	        	       0	(  2  1  3)	  0  1
     86.4644	        	        	        	        	       0	(  2  1  4)	  0  1
     86.9971	        	        	        	        	       0	(  1  1 10)	  0  1
     87.5373	        	        	        	        	       0	(  2  0  9)	  0  1
     87.9365	        	        	        	        	       0	(  1  0 12)	  0  1
     89.4930	        	        	        	        	       0	(  2  1  5)	  0  1
     93.1939	        	        	        	        	       0	(  2  1  6)	  0  1
     93.9307	        	        	        	        	       0	(  2  0 10)	  0  1
     94.9504	        	        	        	        	       0	(  3  0  0)	  0  1
     95.2881	        	        	        	        	       0	(  3  0  1)	  0  1
     96.3024	        	        	        	        	       0	(  3  0  2)	  0  1
     96.3578	        	        	        	        	       0	(  1  0 13)	  0  1
     97.5870	        	        	        	        	       0	(  2  1  7)	  0  1
     97.9975	        	        	        	        	       0	(  3  0  3)	  0  1
     98.5275	        	        	        	        	       0	(  0  0 14)	  0  1
    100.3831	        	        	        	        	       0	(  3  0  4)	  0  1
    101.0602	        	        	        	        	       0	(  2  0 11)	  0  1
    101.8825	        	        	        	        	       0	(  1  1 12)	  0  1
    102.7152	        	        	        	        	       0	(  2  1  8)	  0  1
    103.4783	        	        	        	        	       0	(  3  0  5)	  0  1
    105.6210	        	        	        	        	       0	(  1  0 14)	  0  1
    107.3181	        	        	        	        	       0	(  3  0  6)	  0  1
    108.6594	        	        	        	        	       0	(  2  1  9)	  0  1
    109.0813	        	        	        	        	       0	(  2  0 12)	  0  1
    111.9647	        	        	        	        	       0	(  3  0  7)	  0  1
    115.5662	        	        	        	        	       0	(  2  1 10)	  0  1
    116.0796	        	        	        	        	       0	(  1  0 15)	  0  1
    116.6997	        	        	        	        	       0	(  2  2  0)	  0  1
    117.5266	        	        	        	        	       0	(  3  0  8)	  0  1
    118.2173	        	        	        	        	       0	(  2  2  2)	  0  1
    118.2799	        	        	        	        	       0	(  2  0 13)	  0  1
    120.0465	        	        	        	        	       0	(  0  0 16)	  0  1
    120.7545	        	        	        	        	       0	(  1  1 14)	  0  1
    122.9110	        	        	        	        	       0	(  2  2  4)	  0  1
    123.7078	        	        	        	        	       0	(  2  1 11)	  0  1
    124.1987	        	        	        	        	       0	(  3  0  9)	  0  1
    124.7781	        	        	        	        	       0	(  3  1  0)	  0  1
    125.1892	        	        	        	        	       0	(  3  1  1)	  0  1
    126.4352	        	        	        	        	       0	(  3  1  2)	  0  1
    128.4485	        	        	        	        	       0	(  1  0 16)	  0  1
    128.5580	        	        	        	        	       0	(  3  1  3)	  0  1
    129.2329	        	        	        	        	       0	(  2  0 14)	  0  1
    131.3694	        	        	        	        	       0	(  2  2  6)	  0  1
    131.6413	        	        	        	        	       0	(  3  1  4)	  0  1
    132.3585	        	        	        	        	       0	(  3  0 10)	  0  1
    133.6444	        	        	        	        	       0	(  2  1 12)	  0  1
    135.8399	        	        	        	        	       0	(  3  1  5)	  0  1
    141.4546	        	        	        	        	       0	(  3  1  6)	  0  1
    142.8739	        	        	        	        	       0	(  3  0 11)	  0  1
    143.4234	        	        	        	        	       0	(  2  0 15)	  0  1
    144.6796	        	        	        	        	       0	(  1  0 17)	  0  1
    145.6539	        	        	        	        	       0	(  2  2  8)	  0  1
    146.8548	        	        	        	        	       0	(  2  1 13)	  0  1
    149.1652	        	        	        	        	       0	(  3  1  7)	  0  1
    149.7997	        	        	        	        	       0	(  1  1 16)	  0  1
    154.2538	        	        	        	        	       0	(  0  0 18)	  0  1
    158.8783	        	        	        	        	       0	(  3  0 12)	  0  1
    159.0970	        	        	        	        	       0	(  4  0  0)	  0  1
    160.0664	        	        	        	        	       0	(  4  0  1)	  0  1
    161.2792	        	        	        	        	       0	(  3  1  8)	  0  1
    163.2974	        	        	        	        	       0	(  4  0  2)	  0  1
    170.3728	        	        	        	        	       0	(  2  0 16)	  0  1
    170.9058	        	        	        	        	       0	(  4  0  3)	  0  1
    175.3758	        	        	        	        	       0	(  2  1 14)	  0  1
