MSG Master    CELL:    5.91687   5.91687  23.26666   90.0000   90.0000  120.0000   SPGR: P 63/m m c             TEMP:   1027.85
  1   1280     2.52000     0.00000    -0.12796     0.00000     0.00000    0
    99     0     2
       0.00000      10.00000
     125.00000     130.00000
 2Theta	Yobs	Ycal	Yobs-Ycal	Backg	Posr	(hkl)	K
      0.7700	    0.00	  526.41	-1720.21	  410.61
      0.8700	    0.00	  527.37	-1720.21	  411.56
      0.9700	   40.00	  528.31	-1720.21	  412.50
      1.0700	   49.00	  529.23	-1720.21	  413.43
      1.1700	   42.00	  530.15	-1720.21	  414.34
      1.2700	   45.00	  531.05	-1720.21	  415.24
      1.3700	   47.00	  531.94	-1720.21	  416.13
      1.4700	   98.00	  532.82	-1720.21	  417.01
      1.5700	  301.00	  533.68	-1720.21	  417.87
      1.6700	  506.00	  534.53	-1720.21	  418.72
      1.7700	  583.00	  535.37	-1720.21	  419.56
      1.8700	  647.00	  536.20	-1720.21	  420.39
      1.9700	  745.00	  537.01	-1720.21	  421.21
      2.0700	  822.00	  537.82	-1720.21	  422.01
      2.1700	  806.00	  538.61	-1720.21	  422.80
      2.2700	  800.00	  539.39	-1720.21	  423.58
      2.3700	  747.00	  540.16	-1720.21	  424.35
      2.4700	  744.00	  540.91	-1720.21	  425.10
      2.5700	  676.00	  541.66	-1720.21	  425.85
      2.6700	  667.00	  542.39	-1720.21	  426.58
      2.7700	  642.00	  543.11	-1720.21	  427.30
      2.8700	  652.00	  543.82	-1720.21	  428.01
      2.9700	  653.00	  544.52	-1720.21	  428.71
      3.0700	  600.00	  545.20	-1720.21	  429.40
      3.1700	  587.00	  545.88	-1720.21	  430.07
      3.2700	  650.00	  546.55	-1720.21	  430.74
      3.3700	  704.00	  547.20	-1720.21	  431.39
      3.4700	  804.00	  547.84	-1720.21	  432.03
      3.5700	  875.00	  548.47	-1720.21	  432.67
      3.6700	  879.00	  549.10	-1720.21	  433.29
      3.7700	  943.00	  549.71	-1720.21	  433.90
      3.8700	  989.00	  550.31	-1720.21	  434.50
      3.9700	 1089.00	  550.90	-1720.21	  435.09
      4.0700	 1129.00	  551.47	-1720.21	  435.67
      4.1700	 1120.00	  552.04	-1720.21	  436.24
      4.2700	 1165.00	  552.60	-1720.21	  436.79
      4.3700	 1160.00	  553.15	-1720.21	  437.34
      4.4700	 1109.00	  553.69	-1720.21	  437.88
      4.5700	 1086.00	  554.21	-1720.21	  438.41
      4.6700	  964.00	  554.73	-1720.21	  438.92
      4.7700	 1064.00	  555.24	-1720.21	  439.43
      4.8700	 1048.00	  555.74	-1720.21	  439.93
      4.9700	  950.00	  556.23	-1720.21	  440.42
      5.0700	 1008.00	  556.70	-1720.21	  440.90
      5.1700	  969.00	  557.17	-1720.21	  441.37
      5.2700	  929.00	  557.63	-1720.21	  441.82
      5.3700	  891.00	  558.08	-1720.21	  442.27
      5.4700	  848.00	  558.52	-1720.21	  442.71
      5.5700	  870.00	  558.95	-1720.21	  443.15
      5.6700	  869.00	  559.37	-1720.21	  443.57
      5.7700	  901.00	  559.79	-1720.21	  443.98
      5.8700	  818.00	  560.19	-1720.21	  444.38
      5.9700	  882.00	  560.58	-1720.21	  444.78
      6.0700	  777.00	  560.97	-1720.21	  445.16
      6.1700	  819.00	  561.34	-1720.21	  445.54
      6.2700	  809.00	  561.71	-1720.21	  445.90
      6.3700	  755.00	  562.07	-1720.21	  446.26
      6.4700	  733.00	  562.42	-1720.21	  446.61
      6.5700	  792.00	  562.76	-1720.21	  446.95
      6.6700	  740.00	  563.09	-1720.21	  447.29
      6.7700	  737.00	  563.42	-1720.21	  447.61
      6.8700	  688.00	  563.73	-1720.21	  447.93
      6.9700	  701.00	  564.04	-1720.21	  448.23
      7.0700	  724.00	  564.34	-1720.21	  448.53
      7.1700	  758.00	  564.63	-1720.21	  448.82
      7.2700	  681.00	  564.91	-1720.21	  449.11
      7.3700	  679.00	  565.19	-1720.21	  449.38
      7.4700	  661.00	  565.45	-1720.21	  449.65
      7.5700	  678.00	  565.71	-1720.21	  449.90
      7.6700	  678.00	  565.96	-1720.21	  450.15
      7.7700	  654.00	  566.20	-1720.21	  450.40
      7.8700	  653.00	  566.44	-1720.21	  450.63
      7.9700	  619.00	  566.67	-1720.21	  450.86
      8.0700	  622.00	  566.89	-1720.21	  451.08
      8.1700	  622.00	  567.10	-1720.21	  451.29
      8.2700	  655.00	  567.30	-1720.21	  451.49
      8.3700	  640.00	  567.50	-1720.21	  451.69
      8.4700	  587.00	  567.69	-1720.21	  451.88
      8.5700	  639.00	  567.87	-1720.21	  452.06
      8.6700	  683.00	  568.04	-1720.21	  452.24
      8.7700	  632.00	  568.21	-1720.21	  452.40
      8.8700	  621.00	  568.37	-1720.21	  452.56
      8.9700	  599.00	  568.53	-1720.21	  452.72
      9.0700	  610.00	  568.67	-1720.21	  452.86
      9.1700	  666.00	  568.81	-1720.21	  453.00
      9.2700	  619.00	  568.94	-1720.21	  453.14
      9.3700	  611.00	  569.07	-1720.21	  453.26
      9.4700	  652.00	  569.19	-1720.21	  453.38
      9.5700	  597.00	  569.30	-1720.21	  453.49
      9.6700	  603.00	  569.41	-1720.21	  453.60
      9.7700	  642.00	  569.50	-1720.21	  453.70
      9.8700	  541.00	  569.60	-1720.21	  453.79
      9.9700	  600.00	  569.68	-1720.21	  453.88
     10.0700	  603.00	  571.06	-1688.27	  453.96
     10.1700	  656.00	  571.28	-1635.49	  454.03
     10.2700	  531.00	  571.53	-1760.74	  454.10
     10.3700	  571.00	  571.83	-1721.03	  454.16
     10.4700	  604.00	  572.20	-1688.41	  454.21
     10.5700	  613.00	  572.72	-1679.93	  454.26
     10.6700	  599.00	  573.48	-1694.69	  454.30
     10.7700	  602.00	  574.56	-1692.77	  454.34
     10.8700	  597.00	  576.05	-1699.26	  454.37
     10.9700	  597.00	  577.94	-1701.15	  454.39
     11.0700	  597.00	  580.23	-1703.43	  454.41
     11.1700	  570.00	  582.91	-1733.12	  454.42
     11.2700	  548.00	  586.04	-1758.25	  454.43
     11.3700	  614.00	  589.70	-1695.90	  454.43
     11.4700	  539.00	  594.02	-1775.23	  454.43
     11.5700	  566.00	  599.25	-1753.45	  454.42
     11.6700	  627.00	  605.74	-1698.95	  454.40
     11.7700	  629.00	  614.04	-1705.25	  454.38
     11.8700	  637.00	  624.67	-1707.88	  454.36
     11.9700	  653.00	  637.50	-1704.71	  454.33
     12.0700	  621.00	  650.49	-1749.70	  454.29
     12.1700	  685.00	  658.64	-1693.85	  454.25
     12.2700	  654.00	  654.90	-1721.11	  454.20
     12.3700	  634.00	  637.41	-1723.62	  454.15
     12.4700	  586.00	  615.39	-1749.59	  454.09
     12.5700	  626.00	  597.67	-1691.87	  454.03
     12.6700	  591.00	  586.37	-1715.58	  453.96
     12.7700	  610.00	  580.12	-1690.33	  453.89
     12.8700	  558.00	  576.84	-1739.04	  453.81
     12.9700	  561.00	  574.99	-1734.20	  453.73
     13.0700	  611.00	  573.81	-1683.02	  453.64
     13.1700	  565.00	  572.95	-1728.16	  453.55
     13.2700	  612.00	  572.29	-1680.50	  453.46
     13.3700	  567.00	  571.76	-1724.96	  453.36
     13.4700	  524.00	  571.31	-1767.52	  453.25
     13.5700	  558.00	  570.92	-1733.13	  453.14
     13.6700	  572.00	  570.59	-1718.79	  453.03
     13.7700	  569.00	  570.28	-1721.49	  452.91
     13.8700	  562.00	  570.01	-1728.22	  452.79
     13.9700	  552.00	  569.75	-1737.96	  452.66
     14.0700	  603.00	  569.51	-1686.72	  452.53
     14.1700	  561.00	  569.28	-1728.49	  452.40
     14.2700	  587.00	  569.06	-1702.27	  452.26
     14.3700	  577.00	  568.85	-1712.06	  452.11
     14.4700	  536.00	  568.64	-1752.85	  451.97
     14.5700	  540.00	  568.43	-1748.64	  451.82
     14.6700	  592.00	  568.23	-1696.44	  451.66
     14.7700	  559.00	  568.03	-1729.23	  451.50
     14.8700	  562.00	  567.85	-1726.06	  451.34
     14.9700	  581.00	  567.65	-1706.86	  451.17
     15.0700	  521.00	  567.45	-1766.66	  451.00
     15.1700	  553.00	  567.25	-1734.46	  450.83
     15.2700	  588.00	  567.05	-1699.26	  450.65
     15.3700	  509.00	  566.84	-1778.05	  450.47
     15.4700	  541.00	  566.64	-1745.85	  450.28
     15.5700	  549.00	  566.43	-1737.64	  450.09
     15.6700	  567.00	  566.22	-1719.43	  449.90
     15.7700	  569.00	  566.01	-1717.22	  449.70
     15.8700	  565.00	  565.80	-1721.01	  449.51
     15.9700	  536.00	  565.58	-1749.79	  449.30
     16.0700	  540.00	  565.37	-1745.57	  449.10
     16.1700	  549.00	  565.15	-1736.36	  448.89
     16.2700	  560.00	  564.92	-1725.13	  448.68
     16.3700	  569.00	  564.70	-1715.91	  448.46
     16.4700	  528.00	  564.47	-1756.68	  448.24
     16.5700	  550.00	  564.24	-1734.45	  448.02
     16.6700	  539.00	  564.01	-1745.22	  447.80
     16.7700	  560.00	  563.78	-1723.99	  447.57
     16.8700	  604.00	  563.54	-1679.75	  447.34
     16.9700	  564.00	  563.30	-1719.51	  447.11
     17.0700	  570.00	  563.06	-1713.27	  446.87
     17.1700	  548.00	  562.82	-1735.03	  446.63
     17.2700	  560.00	  562.57	-1722.78	  446.39
     17.3700	  597.00	  562.33	-1685.53	  446.15
     17.4700	  572.00	  562.07	-1710.28	  445.90
     17.5700	  537.00	  561.82	-1745.03	  445.65
     17.6700	  542.00	  561.57	-1739.78	  445.40
     17.7700	  558.00	  561.31	-1723.52	  445.14
     17.8700	  526.00	  561.05	-1755.26	  444.88
     17.9700	  553.00	  560.90	-1728.10	  444.63
     18.0700	  542.00	  560.63	-1738.84	  444.36
     18.1700	  600.00	  560.37	-1680.58	  444.10
     18.2700	  514.00	  560.10	-1766.31	  443.83
     18.3700	  573.00	  559.84	-1707.04	  443.56
     18.4700	  541.00	  559.57	-1738.77	  443.29
     18.5700	  562.00	  559.29	-1717.50	  443.02
     18.6700	  583.00	  559.10	-1696.31	  442.74
     18.7700	  595.00	  558.83	-1684.04	  442.46
     18.8700	  545.00	  558.55	-1733.76	  442.18
     18.9700	  541.00	  558.28	-1737.48	  441.90
     19.0700	  569.00	  558.00	-1709.21	  441.61
     19.1700	  569.00	  557.72	-1708.92	  441.33
     19.2700	  559.00	  557.43	-1718.64	  441.04
     19.3700	  559.00	  557.15	-1718.36	  440.75
     19.4700	  559.00	  556.87	-1718.07	  440.46
     19.5700	  546.00	  556.58	-1730.79	  440.16
     19.6700	  521.00	  556.29	-1755.50	  439.87
     19.7700	  576.00	  556.00	-1700.21	  439.57
     19.8700	  539.00	  555.71	-1736.92	  439.27
     19.9700	  544.00	  555.42	-1731.63	  438.97
     20.0700	  547.00	  555.13	-1728.34	  438.66
     20.1700	  546.00	  554.83	-1729.04	  438.36
     20.2700	  535.00	  554.54	-1739.75	  438.05
     20.3700	  564.00	  554.28	-1710.49	  437.74
     20.4700	  599.00	  553.98	-1675.19	  437.43
     20.5700	  544.00	  553.69	-1729.90	  437.12
     20.6700	  577.00	  553.39	-1696.60	  436.81
     20.7700	  528.00	  553.10	-1745.30	  436.50
     20.8700	  526.00	  552.80	-1747.01	  436.18
     20.9700	  541.00	  552.50	-1731.71	  435.87
     21.0700	  532.00	  552.20	-1740.41	  435.55
     21.1700	  540.00	  551.91	-1732.11	  435.23
     21.2700	  523.00	  551.61	-1748.82	  434.91
     21.3700	  560.00	  551.31	-1711.52	  434.59
     21.4700	  527.00	  551.02	-1744.22	  434.26
     21.5700	  520.00	  550.72	-1750.93	  433.94
     21.6700	  607.00	  550.43	-1663.63	  433.61
     21.7700	  573.00	  550.13	-1697.34	  433.29
     21.8700	  587.00	  549.84	-1683.05	  432.96
     21.9700	  540.00	  549.51	-1729.72	  432.63
     22.0700	  574.00	  549.23	-1695.43	  432.30
     22.1700	  566.00	  548.94	-1703.15	  431.97
     22.2700	  535.00	  548.66	-1733.87	  431.64
     22.3700	  580.00	  548.39	-1688.60	  431.31
     22.4700	  569.00	  548.12	-1699.33	  430.97
     22.5700	  538.00	  547.86	-1730.07	  430.64
     22.6700	  526.00	  547.60	-1741.81	  430.30
     22.7700	  553.00	  547.36	-1714.56	  429.97
     22.8700	  576.00	  547.12	-1691.33	  429.63
     22.9700	  530.00	  546.90	-1737.11	  429.29
     23.0700	  524.00	  546.85	-1743.06	  428.96
     23.1700	  530.00	  546.67	-1736.88	  428.62
     23.2700	  562.00	  546.52	-1704.73	  428.28
     23.3700	  548.00	  546.41	-1718.61	  427.94
     23.4700	  528.00	  546.34	-1738.55	  427.60
     23.5700	  539.00	  546.34	-1727.55	  427.26
     23.6700	  556.00	  546.44	-1710.64	  426.92
     23.7700	  543.00	  546.69	-1723.90	  426.57
     23.8700	  576.00	  547.21	-1691.42	  426.23
     23.9700	  565.00	  548.22	-1703.43	  425.89
     24.0700	  550.00	  550.09	-1720.30	  425.54
     24.1700	  515.00	  553.36	-1758.57	  425.20
     24.2700	  544.00	  558.72	-1734.93	  424.86
     24.3700	  549.00	  566.84	-1738.05	  424.51
     24.4700	  578.00	  578.15	-1720.36	  424.17
     24.5700	  566.00	  592.17	-1746.38	  423.82
     24.6700	  585.00	  606.48	-1741.69	  423.48
     24.7700	  626.00	  615.92	-1710.13	  423.13
     24.8700	  620.00	  613.91	-1714.12	  422.78
     24.9700	  626.00	  599.37	-1693.58	  422.44
     25.0700	  598.00	  580.55	-1702.75	  422.09
     25.1700	  589.00	  564.90	-1696.11	  421.75
     25.2700	  645.00	  554.54	-1629.75	  421.40
     25.3700	  536.00	  548.59	-1732.80	  421.05
     25.4700	  549.00	  545.38	-1716.59	  420.71
     25.5700	  567.00	  543.58	-1696.79	  420.36
     25.6700	  564.00	  542.45	-1698.65	  420.01
     25.7700	  556.00	  541.64	-1705.85	  419.67
     25.8700	  561.00	  541.04	-1700.25	  419.32
     25.9700	  595.00	  540.59	-1665.79	  418.97
     26.0700	  555.00	  540.25	-1705.45	  418.63
     26.1700	  550.00	  540.00	-1710.21	  418.28
     26.2700	  585.00	  539.84	-1675.05	  417.94
     26.3700	  543.00	  539.78	-1716.98	  417.59
     26.4700	  531.00	  539.80	-1729.01	  417.24
     26.5700	  523.00	  539.93	-1737.14	  416.90
     26.6700	  523.00	  540.19	-1737.39	  416.55
     26.7700	  590.00	  540.58	-1670.79	  416.21
     26.8700	  530.00	  541.16	-1731.37	  415.86
     26.9700	  563.00	  541.97	-1699.18	  415.52
     27.0700	  532.00	  543.09	-1731.30	  415.18
     27.1700	  573.00	  544.64	-1691.85	  414.83
     27.2700	  541.00	  546.89	-1726.10	  414.49
     27.3700	  525.00	  550.32	-1745.53	  414.15
     27.4700	  580.00	  555.90	-1696.11	  413.80
     27.5700	  545.00	  565.40	-1740.61	  413.46
     27.6700	  575.00	  581.61	-1726.82	  413.12
     27.7700	  598.00	  608.27	-1730.47	  412.78
     27.8700	  603.00	  648.74	-1765.95	  412.44
     27.9700	  659.00	  703.60	-1764.81	  412.10
     28.0700	  704.00	  767.14	-1783.35	  411.76
     28.1700	  886.00	  824.28	-1658.49	  411.42
     28.2700	  982.00	  851.26	-1589.47	  411.08
     28.3700	  929.00	  831.44	-1622.65	  410.74
     28.4700	  818.00	  783.52	-1685.73	  410.40
     28.5700	  731.00	  744.77	-1733.98	  410.07
     28.6700	  679.00	  734.07	-1775.28	  409.73
     28.7700	  728.00	  748.77	-1740.98	  409.40
     28.8700	  793.00	  771.44	-1698.65	  409.06
     28.9700	  795.00	  776.82	-1702.03	  408.73
     29.0700	  784.00	  746.89	-1683.09	  408.39
     29.1700	  649.00	  691.98	-1763.19	  408.06
     29.2700	  641.00	  637.17	-1716.38	  407.73
     29.3700	  604.00	  595.99	-1712.20	  407.40
     29.4700	  606.00	  569.98	-1684.19	  407.07
     29.5700	  602.00	  555.30	-1673.51	  406.74
     29.6700	  552.00	  547.34	-1715.54	  406.41
     29.7700	  578.00	  542.82	-1685.02	  406.08
     29.8700	  549.00	  540.04	-1711.25	  405.76
     29.9700	  543.00	  538.30	-1715.51	  405.43
     30.0700	  562.00	  537.42	-1695.63	  405.11
     30.1700	  595.00	  537.55	-1662.76	  404.78
     30.2700	  568.00	  539.10	-1691.31	  404.46
     30.3700	  568.00	  542.99	-1695.20	  404.14
     30.4700	  565.00	  550.54	-1705.75	  403.82
     30.5700	  516.00	  563.05	-1767.26	  403.50
     30.6700	  603.00	  580.78	-1697.99	  403.18
     30.7700	  617.00	  601.61	-1704.81	  402.86
     30.8700	  619.00	  620.07	-1721.28	  402.54
     30.9700	  611.00	  627.71	-1736.92	  402.22
     31.0700	  546.00	  618.01	-1792.22	  401.91
     31.1700	  560.00	  595.45	-1755.66	  401.60
     31.2700	  542.00	  571.33	-1749.54	  401.28
     31.3700	  553.00	  552.44	-1719.65	  400.97
     31.4700	  557.00	  540.13	-1703.34	  400.66
     31.5700	  553.00	  533.04	-1700.25	  400.35
     31.6700	  545.00	  529.19	-1704.40	  400.04
     31.7700	  539.00	  527.04	-1708.25	  399.74
     31.8700	  499.00	  525.73	-1746.94	  399.43
     31.9700	  514.00	  524.86	-1731.06	  399.12
     32.0700	  544.00	  524.26	-1700.47	  398.82
     32.1700	  568.00	  523.89	-1676.10	  398.52
     32.2700	  528.00	  523.71	-1715.92	  398.22
     32.3700	  566.00	  523.70	-1677.91	  397.92
     32.4700	  490.00	  523.89	-1754.10	  397.62
     32.5700	  508.00	  524.29	-1736.50	  397.32
     32.6700	  537.00	  524.93	-1708.14	  397.03
     32.7700	  550.00	  525.87	-1696.08	  396.73
     32.8700	  511.00	  527.21	-1736.41	  396.44
     32.9700	  554.00	  529.08	-1695.28	  396.15
     33.0700	  572.00	  531.75	-1679.96	  395.85
     33.1700	  564.00	  535.79	-1692.00	  395.57
     33.2700	  505.00	  542.37	-1757.58	  395.28
     33.3700	  538.00	  553.82	-1736.03	  394.99
     33.4700	  562.00	  574.32	-1732.53	  394.71
     33.5700	  593.00	  609.97	-1737.18	  394.42
     33.6700	  589.00	  667.24	-1798.44	  394.14
     33.7700	  731.00	  748.34	-1737.55	  393.86
     33.8700	  876.00	  844.84	-1689.05	  393.58
     33.9700	 1037.00	  933.40	-1616.61	  393.30
     34.0700	 1089.00	  977.59	-1608.80	  393.02
     34.1700	  992.00	  947.50	-1675.71	  392.75
     34.2700	  897.00	  856.37	-1679.58	  392.47
     34.3700	  775.00	  750.54	-1695.75	  392.20
     34.4700	  638.00	  662.65	-1744.86	  391.93
     34.5700	  609.00	  602.44	-1713.65	  391.66
     34.6700	  566.00	  566.42	-1720.63	  391.39
     34.7700	  550.00	  546.57	-1716.78	  391.13
     34.8700	  540.00	  535.67	-1715.88	  390.86
     34.9700	  560.00	  529.16	-1689.37	  390.60
     35.0700	  563.00	  524.81	-1682.02	  390.34
     35.1700	  483.00	  521.61	-1758.82	  390.08
     35.2700	  528.00	  519.10	-1711.31	  389.82
     35.3700	  493.00	  517.08	-1744.29	  389.56
     35.4700	  529.00	  515.41	-1706.62	  389.31
     35.5700	  549.00	  514.00	-1685.21	  389.05
     35.6700	  546.00	  512.81	-1687.02	  388.80
     35.7700	  505.00	  511.77	-1726.98	  388.55
     35.8700	  542.00	  510.87	-1689.08	  388.30
     35.9700	  518.00	  510.53	-1712.74	  388.05
     36.0700	  539.00	  509.83	-1691.03	  387.81
     36.1700	  469.00	  509.20	-1760.41	  387.56
     36.2700	  504.00	  508.64	-1724.85	  387.32
     36.3700	  524.00	  508.13	-1704.34	  387.08
     36.4700	  485.00	  507.69	-1742.89	  386.84
     36.5700	  535.00	  507.29	-1692.50	  386.60
     36.6700	  534.00	  506.96	-1693.17	  386.37
     36.7700	  481.00	  506.70	-1745.91	  386.13
     36.8700	  481.00	  506.53	-1745.74	  385.90
     36.9700	  519.00	  506.55	-1707.76	  385.67
     37.0700	  543.00	  506.88	-1684.09	  385.44
     37.1700	  495.00	  507.74	-1732.95	  385.21
     37.2700	  546.00	  509.41	-1683.62	  384.99
     37.3700	  551.00	  512.07	-1681.28	  384.76
     37.4700	  522.00	  515.59	-1713.80	  384.54
     37.5700	  498.00	  519.30	-1741.51	  384.32
     37.6700	  494.00	  521.96	-1748.17	  384.10
     37.7700	  558.00	  522.16	-1684.37	  383.89
     37.8700	  510.00	  519.52	-1729.73	  383.67
     37.9700	  493.00	  515.37	-1742.57	  383.46
     38.0700	  484.00	  511.20	-1747.41	  383.25
     38.1700	  493.00	  507.78	-1734.99	  383.04
     38.2700	  506.00	  505.29	-1719.50	  382.83
     38.3700	  467.00	  503.62	-1756.83	  382.62
     38.4700	  473.00	  502.70	-1749.90	  382.42
     38.5700	  453.00	  501.97	-1769.18	  382.21
     38.6700	  523.00	  501.45	-1698.66	  382.01
     38.7700	  537.00	  500.95	-1684.16	  381.81
     38.8700	  559.00	  500.61	-1661.82	  381.62
     38.9700	  517.00	  500.32	-1703.53	  381.42
     39.0700	  480.00	  500.06	-1740.27	  381.23
     39.1700	  469.00	  499.82	-1751.03	  381.03
     39.2700	  499.00	  499.59	-1720.80	  380.84
     39.3700	  520.00	  499.38	-1699.59	  380.66
     39.4700	  553.00	  499.19	-1666.40	  380.47
     39.5700	  557.00	  498.93	-1662.14	  380.29
     39.6700	  508.00	  498.76	-1710.97	  380.10
     39.7700	  525.00	  498.60	-1693.81	  379.92
     39.8700	  545.00	  498.45	-1673.66	  379.74
     39.9700	  479.00	  498.31	-1739.52	  379.56
     40.0700	  455.00	  498.19	-1763.40	  379.39
     40.1700	  486.00	  498.08	-1732.28	  379.22
     40.2700	  512.00	  497.98	-1706.18	  379.04
     40.3700	  495.00	  497.89	-1723.10	  378.87
     40.4700	  472.00	  497.82	-1746.03	  378.71
     40.5700	  501.00	  497.77	-1716.98	  378.54
     40.6700	  476.00	  497.73	-1741.94	  378.37
     40.7700	  453.00	  497.73	-1764.93	  378.21
     40.8700	  471.00	  497.74	-1746.95	  378.05
     40.9700	  488.00	  498.27	-1730.47	  377.89
     41.0700	  504.00	  498.36	-1714.57	  377.73
     41.1700	  493.00	  498.51	-1725.71	  377.58
     41.2700	  540.00	  498.71	-1678.92	  377.43
     41.3700	  479.00	  498.99	-1740.20	  377.27
     41.4700	  521.00	  499.37	-1698.58	  377.13
     41.5700	  474.00	  499.89	-1746.10	  376.98
     41.6700	  481.00	  500.63	-1739.84	  376.83
     41.7700	  501.00	  501.74	-1720.95	  376.69
     41.8700	  525.00	  503.51	-1698.72	  376.55
     41.9700	  443.00	  506.64	-1783.85	  376.41
     42.0700	  516.00	  512.21	-1716.42	  376.27
     42.1700	  517.00	  521.74	-1724.95	  376.13
     42.2700	  541.00	  536.86	-1716.07	  376.00
     42.3700	  550.00	  558.35	-1728.56	  375.86
     42.4700	  549.00	  584.61	-1755.82	  375.73
     42.5700	  593.00	  610.71	-1737.92	  375.60
     42.6700	  603.00	  628.35	-1745.56	  375.48
     42.7700	  578.00	  628.96	-1771.17	  375.35
     42.8700	  588.00	  611.70	-1743.91	  375.23
     42.9700	  551.00	  584.82	-1754.03	  375.11
     43.0700	  541.00	  557.83	-1737.04	  374.99
     43.1700	  527.00	  535.96	-1729.16	  374.87
     43.2700	  543.00	  520.64	-1697.85	  374.75
     43.3700	  524.00	  511.07	-1707.28	  374.64
     43.4700	  529.00	  505.73	-1696.93	  374.53
     43.5700	  475.00	  502.60	-1747.81	  374.41
     43.6700	  476.00	  500.77	-1744.97	  374.31
     43.7700	  500.00	  499.59	-1719.80	  374.20
     43.8700	  516.00	  498.76	-1702.97	  374.09
     43.9700	  500.00	  498.13	-1718.34	  373.99
     44.0700	  482.00	  497.65	-1735.86	  373.89
     44.1700	  509.00	  497.26	-1708.47	  373.79
     44.2700	  492.00	  496.96	-1725.17	  373.69
     44.3700	  514.00	  496.72	-1702.93	  373.60
     44.4700	  499.00	  496.54	-1717.75	  373.50
     44.5700	  479.00	  496.40	-1737.61	  373.41
     44.6700	  467.00	  496.29	-1749.50	  373.32
     44.7700	  529.00	  496.42	-1687.62	  373.23
     44.8700	  492.00	  496.38	-1724.59	  373.15
     44.9700	  501.00	  496.37	-1715.58	  373.06
     45.0700	  505.00	  496.39	-1711.60	  372.98
     45.1700	  489.00	  496.44	-1727.65	  372.90
     45.2700	  499.00	  496.51	-1717.72	  372.82
     45.3700	  524.00	  496.46	-1692.67	  372.74
     45.4700	  517.00	  496.59	-1699.79	  372.67
     45.5700	  483.00	  496.74	-1733.95	  372.59
     45.6700	  504.00	  496.92	-1713.12	  372.52
     45.7700	  512.00	  497.13	-1705.33	  372.45
     45.8700	  481.00	  497.37	-1736.58	  372.39
     45.9700	  474.00	  497.65	-1743.85	  372.32
     46.0700	  501.00	  497.96	-1717.17	  372.25
     46.1700	  491.00	  498.37	-1727.58	  372.19
     46.2700	  479.00	  498.78	-1739.99	  372.13
     46.3700	  515.00	  499.26	-1704.46	  372.07
     46.4700	  484.00	  499.86	-1736.07	  372.01
     46.5700	  512.00	  500.49	-1708.70	  371.96
     46.6700	  512.00	  501.26	-1709.47	  371.90
     46.7700	  491.00	  502.15	-1731.36	  371.85
     46.8700	  519.00	  503.26	-1704.47	  371.80
     46.9700	  476.00	  504.77	-1748.97	  371.75
     47.0700	  552.00	  506.94	-1675.15	  371.71
     47.1700	  515.00	  510.33	-1715.53	  371.66
     47.2700	  522.00	  515.70	-1713.91	  371.62
     47.3700	  515.00	  524.01	-1729.22	  371.58
     47.4700	  575.00	  536.01	-1681.22	  371.54
     47.5700	  529.00	  551.74	-1742.95	  371.50
     47.6700	  537.00	  569.83	-1753.04	  371.46
     47.7700	  577.00	  586.98	-1730.19	  371.43
     47.8700	  587.00	  598.24	-1731.45	  371.40
     47.9700	  625.00	  599.25	-1694.46	  371.37
     48.0700	  565.00	  590.08	-1745.29	  371.34
     48.1700	  533.00	  575.46	-1762.67	  371.31
     48.2700	  530.00	  560.56	-1750.77	  371.28
     48.3700	  562.00	  548.60	-1706.80	  371.26
     48.4700	  511.00	  540.80	-1750.01	  371.24
     48.5700	  551.00	  537.11	-1706.32	  371.21
     48.6700	  558.00	  536.84	-1699.04	  371.20
     48.7700	  553.00	  539.18	-1706.39	  371.18
     48.8700	  564.00	  544.01	-1700.22	  371.16
     48.9700	  527.00	  550.48	-1743.69	  371.15
     49.0700	  524.00	  559.43	-1755.64	  371.14
     49.1700	  557.00	  572.17	-1735.38	  371.12
     49.2700	  613.00	  591.60	-1698.81	  371.12
     49.3700	  580.00	  623.37	-1763.58	  371.11
     49.4700	  587.00	  677.28	-1810.49	  371.10
     49.5700	  770.00	  767.79	-1718.00	  371.10
     49.6700	  857.00	  912.23	-1775.44	  371.09
     49.7700	 1021.00	 1125.04	-1824.25	  371.09
     49.8700	 1358.00	 1408.03	-1770.24	  371.09
     49.9700	 1821.00	 1739.35	-1638.56	  371.10
     50.0700	 2135.00	 2063.65	-1648.86	  371.10
     50.1700	 2345.00	 2292.81	-1668.02	  371.11
     50.2700	 2383.00	 2337.69	-1674.90	  371.11
     50.3700	 2187.00	 2175.86	-1709.07	  371.12
     50.4700	 1885.00	 1877.30	-1712.51	  371.13
     50.5700	 1524.00	 1541.47	-1737.68	  371.14
     50.6700	 1172.00	 1239.58	-1787.78	  371.16
     50.7700	  836.00	 1005.59	-1889.80	  371.17
     50.8700	  777.00	  844.94	-1788.14	  371.19
     50.9700	  686.00	  745.31	-1779.51	  371.20
     51.0700	  638.00	  687.34	-1769.55	  371.22
     51.1700	  603.00	  652.46	-1769.67	  371.24
     51.2700	  560.00	  627.73	-1787.93	  371.27
     51.3700	  629.00	  607.08	-1698.29	  371.29
     51.4700	  584.00	  589.41	-1725.62	  371.32
     51.5700	  550.00	  574.39	-1744.60	  371.34
     51.6700	  572.00	  562.53	-1710.74	  371.37
     51.7700	  550.00	  553.78	-1723.99	  371.40
     51.8700	  582.00	  547.75	-1685.96	  371.43
     51.9700	  539.00	  543.92	-1725.13	  371.46
     52.0700	  563.00	  541.79	-1699.00	  371.50
     52.1700	  543.00	  541.02	-1718.23	  371.53
     52.2700	  528.00	  541.48	-1733.69	  371.57
     52.3700	  561.00	  543.30	-1702.51	  371.61
     52.4700	  590.00	  547.03	-1677.24	  371.65
     52.5700	  582.00	  553.84	-1692.05	  371.69
     52.6700	  591.00	  565.97	-1695.17	  371.73
     52.7700	  595.00	  587.03	-1712.23	  371.78
     52.8700	  676.00	  622.02	-1666.23	  371.82
     52.9700	  731.00	  676.50	-1665.71	  371.87
     53.0700	  852.00	  754.62	-1622.83	  371.92
     53.1700	  915.00	  856.15	-1661.36	  371.97
     53.2700	 1045.00	  973.40	-1648.61	  372.02
     53.3700	 1127.00	 1088.47	-1681.68	  372.07
     53.4700	 1116.00	 1173.33	-1777.54	  372.12
     53.5700	 1161.00	 1198.47	-1757.68	  372.18
     53.6700	 1133.00	 1152.99	-1740.20	  372.23
     53.7700	 1039.00	 1055.23	-1736.44	  372.29
     53.8700	  883.00	  936.77	-1773.98	  372.35
     53.9700	  799.00	  823.26	-1744.47	  372.41
     54.0700	  656.00	  729.12	-1793.32	  372.47
     54.1700	  651.00	  659.31	-1728.52	  372.53
     54.2700	  563.00	  612.26	-1769.47	  372.60
     54.3700	  612.00	  583.06	-1691.27	  372.66
     54.4700	  611.00	  566.06	-1675.26	  372.73
     54.5700	  528.00	  556.64	-1748.85	  372.80
     54.6700	  583.00	  551.65	-1688.86	  372.86
     54.7700	  600.00	  549.23	-1669.44	  372.93
     54.8700	  562.00	  548.42	-1706.62	  373.01
     54.9700	  542.00	  548.75	-1726.96	  373.08
     55.0700	  643.00	  550.05	-1627.26	  373.15
     55.1700	  602.00	  552.29	-1670.49	  373.23
     55.2700	  575.00	  555.49	-1700.70	  373.30
     55.3700	  570.00	  559.78	-1709.99	  373.38
     55.4700	  531.00	  565.39	-1754.60	  373.46
     55.5700	  563.00	  572.72	-1729.93	  373.54
     55.6700	  544.00	  582.68	-1758.89	  373.62
     55.7700	  617.00	  596.90	-1700.10	  373.70
     55.8700	  608.00	  618.55	-1730.76	  373.78
     55.9700	  623.00	  653.31	-1750.52	  373.86
     56.0700	  719.00	  710.26	-1711.47	  373.95
     56.1700	  765.00	  802.13	-1757.34	  374.04
     56.2700	  869.00	  943.78	-1794.99	  374.12
     56.3700	 1070.00	 1148.17	-1798.38	  374.21
     56.4700	 1350.00	 1419.80	-1790.00	  374.30
     56.5700	 1668.00	 1747.19	-1799.40	  374.39
     56.6700	 2032.00	 2096.07	-1784.28	  374.48
     56.7700	 2362.00	 2405.40	-1763.61	  374.57
     56.8700	 2516.00	 2594.46	-1798.67	  374.66
     56.9700	 2547.00	 2597.38	-1770.58	  374.76
     57.0700	 2429.00	 2412.68	-1703.89	  374.85
     57.1700	 2142.00	 2105.69	-1683.89	  374.95
     57.2700	 1741.00	 1758.51	-1737.72	  375.05
     57.3700	 1460.00	 1432.99	-1693.20	  375.14
     57.4700	 1140.00	 1163.77	-1743.98	  375.24
     57.5700	  928.00	  962.64	-1754.85	  375.34
     57.6700	  810.00	  825.52	-1735.73	  375.44
     57.7700	  707.00	  740.11	-1753.32	  375.55
     57.8700	  692.00	  692.60	-1720.81	  375.65
     57.9700	  683.00	  671.84	-1709.05	  375.75
     58.0700	  689.00	  670.91	-1702.12	  375.86
     58.1700	  706.00	  686.65	-1700.86	  375.96
     58.2700	  754.00	  718.28	-1684.49	  376.07
     58.3700	  804.00	  765.71	-1681.92	  376.17
     58.4700	  870.00	  827.93	-1678.14	  376.28
     58.5700	  968.00	  901.54	-1653.75	  376.39
     58.6700	 1056.00	  979.86	-1644.07	  376.50
     58.7700	 1131.00	 1054.22	-1643.43	  376.61
     58.8700	 1220.00	 1117.82	-1618.03	  376.72
     58.9700	 1320.00	 1167.07	-1567.28	  376.83
     59.0700	 1388.00	 1198.01	-1530.22	  376.94
     59.1700	 1356.00	 1206.01	-1570.22	  377.06
     59.2700	 1425.00	 1192.22	-1487.43	  377.17
     59.3700	 1326.00	 1166.44	-1560.65	  377.29
     59.4700	 1265.00	 1140.89	-1596.10	  377.40
     59.5700	 1210.00	 1124.46	-1634.67	  377.52
     59.6700	 1109.00	 1124.01	-1735.22	  377.63
     59.7700	 1190.00	 1147.06	-1677.27	  377.75
     59.8700	 1295.00	 1199.26	-1624.47	  377.87
     59.9700	 1278.00	 1278.59	-1720.80	  377.99
     60.0700	 1427.00	 1371.90	-1665.11	  378.11
     60.1700	 1548.00	 1454.82	-1627.02	  378.23
     60.2700	 1621.00	 1496.18	-1595.39	  378.35
     60.3700	 1519.00	 1472.21	-1673.42	  378.47
     60.4700	 1430.00	 1382.92	-1673.12	  378.59
     60.5700	 1213.00	 1251.10	-1758.30	  378.71
     60.6700	 1099.00	 1105.36	-1726.57	  378.84
     60.7700	  981.00	  968.20	-1707.40	  378.96
     60.8700	  780.00	  853.15	-1793.36	  379.08
     60.9700	  748.00	  766.15	-1738.36	  379.21
     61.0700	  723.00	  707.59	-1704.80	  379.33
     61.1700	  652.00	  674.99	-1743.20	  379.46
     61.2700	  686.00	  665.67	-1699.88	  379.59
     61.3700	  658.00	  678.49	-1740.69	  379.71
     61.4700	  656.00	  714.37	-1778.58	  379.84
     61.5700	  738.00	  775.52	-1757.73	  379.97
     61.6700	  824.00	  863.54	-1759.75	  380.10
     61.7700	  918.00	  976.93	-1779.14	  380.23
     61.8700	 1026.00	 1108.70	-1802.91	  380.36
     61.9700	 1204.00	 1244.60	-1760.81	  380.48
     62.0700	 1294.00	 1362.26	-1788.47	  380.61
     62.1700	 1323.00	 1434.12	-1831.33	  380.75
     62.2700	 1412.00	 1438.09	-1746.30	  380.88
     62.3700	 1253.00	 1372.25	-1839.46	  381.01
     62.4700	 1272.00	 1256.45	-1704.66	  381.14
     62.5700	 1025.00	 1118.45	-1813.66	  381.27
     62.6700	  906.00	  981.54	-1795.75	  381.40
     62.7700	  847.00	  860.94	-1734.15	  381.54
     62.8700	  691.00	  764.09	-1793.30	  381.67
     62.9700	  674.00	  692.27	-1738.48	  381.80
     63.0700	  618.00	  642.70	-1744.91	  381.94
     63.1700	  573.00	  610.61	-1757.81	  382.07
     63.2700	  556.00	  591.09	-1755.30	  382.20
     63.3700	  596.00	  580.17	-1704.37	  382.34
     63.4700	  557.00	  575.24	-1738.45	  382.47
     63.5700	  574.00	  575.09	-1721.30	  382.61
     63.6700	  584.00	  579.74	-1715.95	  382.74
     63.7700	  616.00	  590.15	-1694.36	  382.88
     63.8700	  639.00	  607.87	-1689.08	  383.02
     63.9700	  673.00	  634.68	-1681.89	  383.15
     64.0700	  665.00	  671.91	-1727.12	  383.29
     64.1700	  782.00	  719.66	-1657.87	  383.42
     64.2700	  839.00	  776.13	-1657.34	  383.56
     64.3700	  917.00	  836.89	-1640.10	  383.70
     64.4700	  957.00	  894.54	-1657.75	  383.83
     64.5700	 1018.00	  939.49	-1641.70	  383.97
     64.6700	 1007.00	  962.46	-1675.67	  384.11
     64.7700	 1046.00	  960.14	-1634.35	  384.24
     64.8700	  994.00	  934.30	-1660.51	  384.38
     64.9700	  943.00	  891.60	-1668.80	  384.52
     65.0700	  903.00	  840.56	-1657.77	  384.66
     65.1700	  797.00	  788.97	-1712.18	  384.79
     65.2700	  745.00	  741.95	-1717.15	  384.93
     65.3700	  663.00	  701.64	-1758.85	  385.07
     65.4700	  641.00	  668.13	-1747.34	  385.21
     65.5700	  647.00	  640.74	-1713.94	  385.34
     65.6700	  631.00	  618.79	-1708.00	  385.48
     65.7700	  568.00	  601.70	-1753.91	  385.62
     65.8700	  551.00	  588.96	-1758.17	  385.76
     65.9700	  590.00	  579.70	-1709.91	  385.89
     66.0700	  527.00	  573.52	-1766.73	  386.03
     66.1700	  537.00	  569.93	-1753.14	  386.17
     66.2700	  576.00	  568.54	-1712.75	  386.31
     66.3700	  586.00	  569.04	-1703.25	  386.44
     66.4700	  561.00	  571.27	-1730.47	  386.58
     66.5700	  548.00	  575.24	-1747.45	  386.72
     66.6700	  558.00	  581.32	-1743.53	  386.85
     66.7700	  556.00	  590.36	-1754.57	  386.99
     66.8700	  570.00	  603.98	-1754.19	  387.13
     66.9700	  571.00	  624.95	-1774.16	  387.26
     67.0700	  598.00	  657.63	-1779.84	  387.40
     67.1700	  702.00	  707.80	-1726.00	  387.54
     67.2700	  764.00	  783.08	-1739.29	  387.67
     67.3700	  939.00	  891.19	-1672.40	  387.81
     67.4700	 1040.00	 1038.88	-1719.08	  387.94
     67.5700	 1251.00	 1229.03	-1698.24	  388.08
     67.6700	 1490.00	 1457.86	-1688.07	  388.21
     67.7700	 1692.00	 1712.51	-1740.71	  388.35
     67.8700	 1986.00	 1969.48	-1703.69	  388.48
     67.9700	 2168.00	 2194.18	-1746.38	  388.62
     68.0700	 2326.00	 2344.64	-1738.85	  388.75
     68.1700	 2460.00	 2384.71	-1644.91	  388.88
     68.2700	 2260.00	 2303.41	-1763.62	  389.02
     68.3700	 2113.00	 2122.43	-1729.64	  389.15
     68.4700	 1979.00	 1882.22	-1623.43	  389.28
     68.5700	 1589.00	 1623.01	-1754.22	  389.42
     68.6700	 1374.00	 1375.71	-1721.92	  389.55
     68.7700	 1133.00	 1159.83	-1747.04	  389.68
     68.8700	  975.00	  985.02	-1730.23	  389.81
     68.9700	  843.00	  852.33	-1729.53	  389.94
     69.0700	  744.00	  757.18	-1733.39	  390.07
     69.1700	  626.00	  692.23	-1786.44	  390.20
     69.2700	  663.00	  649.56	-1706.77	  390.33
     69.3700	  639.00	  622.15	-1703.36	  390.46
     69.4700	  564.00	  604.66	-1760.87	  390.59
     69.5700	  594.00	  593.32	-1719.53	  390.72
     69.6700	  510.00	  585.78	-1795.99	  390.85
     69.7700	  548.00	  580.63	-1752.84	  390.98
     69.8700	  602.00	  577.08	-1695.29	  391.10
     69.9700	  556.00	  574.74	-1738.95	  391.23
     70.0700	  549.00	  573.35	-1744.56	  391.35
     70.1700	  558.00	  572.89	-1735.09	  391.48
     70.2700	  606.00	  573.27	-1687.48	  391.61
     70.3700	  588.00	  574.67	-1706.88	  391.73
     70.4700	  590.00	  577.30	-1707.50	  391.85
     70.5700	  545.00	  581.65	-1756.86	  391.98
     70.6700	  612.00	  588.59	-1696.80	  392.10
     70.7700	  566.00	  599.55	-1753.75	  392.22
     70.8700	  616.00	  616.73	-1720.94	  392.34
     70.9700	  641.00	  643.30	-1722.51	  392.46
     71.0700	  643.00	  683.42	-1760.63	  392.58
     71.1700	  730.00	  741.94	-1732.15	  392.70
     71.2700	  850.00	  823.77	-1693.98	  392.82
     71.3700	  904.00	  932.69	-1748.90	  392.94
     71.4700	 1057.00	 1070.72	-1733.93	  393.06
     71.5700	 1209.00	 1233.33	-1744.54	  393.18
     71.6700	 1420.00	 1413.00	-1713.21	  393.29
     71.7700	 1528.00	 1595.29	-1787.50	  393.41
     71.8700	 1691.00	 1759.28	-1788.49	  393.52
     71.9700	 1881.00	 1879.39	-1718.60	  393.64
     72.0700	 1923.00	 1931.42	-1728.62	  393.75
     72.1700	 1894.00	 1903.10	-1729.31	  393.87
     72.2700	 1807.00	 1801.28	-1714.49	  393.98
     72.3700	 1663.00	 1647.75	-1704.96	  394.09
     72.4700	 1503.00	 1468.58	-1685.79	  394.20
     72.5700	 1337.00	 1286.36	-1669.57	  394.31
     72.6700	 1137.00	 1117.43	-1700.64	  394.42
     72.7700	 1011.00	  971.76	-1680.97	  394.53
     72.8700	  856.00	  853.70	-1717.91	  394.63
     72.9700	  815.00	  763.09	-1668.30	  394.74
     73.0700	  757.00	  696.34	-1659.55	  394.85
     73.1700	  751.00	  649.76	-1618.97	  394.95
     73.2700	  662.00	  617.98	-1676.19	  395.06
     73.3700	  666.00	  596.68	-1650.89	  395.16
     73.4700	  633.00	  582.43	-1669.64	  395.26
     73.5700	  614.00	  572.81	-1679.02	  395.36
     73.6700	  614.00	  566.17	-1672.38	  395.46
     73.7700	  615.00	  561.54	-1666.75	  395.56
     73.8700	  580.00	  558.30	-1698.51	  395.66
     73.9700	  623.00	  556.12	-1653.32	  395.76
     74.0700	  583.00	  554.75	-1691.96	  395.86
     74.1700	  574.00	  554.04	-1700.24	  395.95
     74.2700	  593.00	  553.79	-1681.00	  396.05
     74.3700	  584.00	  553.81	-1690.02	  396.14
     74.4700	  609.00	  553.88	-1665.09	  396.24
     74.5700	  627.00	  553.75	-1646.96	  396.33
     74.6700	  602.00	  553.21	-1671.42	  396.42
     74.7700	  654.00	  552.17	-1618.38	  396.51
     74.8700	  628.00	  550.71	-1642.92	  396.60
     74.9700	  670.00	  549.05	-1599.26	  396.69
     75.0700	  611.00	  547.47	-1656.68	  396.78
     75.1700	  641.00	  546.30	-1625.50	  396.86
     75.2700	  594.00	  545.84	-1672.05	  396.95
     75.3700	  588.00	  546.42	-1678.63	  397.03
     75.4700	  561.00	  548.55	-1707.76	  397.12
     75.5700	  531.00	  552.62	-1741.83	  397.20
     75.6700	  548.00	  559.11	-1731.32	  397.28
     75.7700	  526.00	  568.44	-1762.64	  397.36
     75.8700	  634.00	  580.78	-1666.99	  397.44
     75.9700	  651.00	  596.33	-1665.54	  397.52
     76.0700	  639.00	  614.61	-1695.82	  397.59
     76.1700	  630.00	  634.75	-1724.96	  397.67
     76.2700	  685.00	  655.30	-1690.51	  397.74
     76.3700	  671.00	  674.26	-1723.47	  397.82
     76.4700	  643.00	  689.14	-1766.35	  397.89
     76.5700	  666.00	  697.55	-1751.75	  397.96
     76.6700	  742.00	  697.75	-1675.96	  398.03
     76.7700	  706.00	  689.67	-1703.88	  398.10
     76.8700	  700.00	  674.86	-1695.07	  398.17
     76.9700	  649.00	  655.78	-1726.99	  398.23
     77.0700	  604.00	  634.88	-1751.09	  398.30
     77.1700	  615.00	  614.20	-1719.41	  398.36
     77.2700	  545.00	  595.22	-1770.43	  398.42
     77.3700	  579.00	  578.63	-1719.84	  398.49
     77.4700	  568.00	  565.21	-1717.42	  398.55
     77.5700	  521.00	  554.76	-1753.97	  398.61
     77.6700	  553.00	  546.96	-1714.17	  398.66
     77.7700	  537.00	  541.36	-1724.57	  398.72
     77.8700	  483.00	  537.48	-1774.69	  398.78
     77.9700	  506.00	  534.85	-1749.05	  398.83
     78.0700	  523.00	  533.09	-1730.30	  398.88
     78.1700	  520.00	  531.92	-1732.13	  398.93
     78.2700	  485.00	  531.15	-1766.35	  398.98
     78.3700	  522.00	  530.64	-1728.84	  399.03
     78.4700	  544.00	  530.31	-1706.52	  399.08
     78.5700	  514.00	  530.13	-1736.34	  399.13
     78.6700	  494.00	  530.08	-1756.29	  399.17
     78.7700	  558.00	  530.16	-1692.37	  399.22
     78.8700	  507.00	  530.38	-1743.59	  399.26
     78.9700	  532.00	  530.78	-1718.99	  399.30
     79.0700	  502.00	  531.38	-1749.59	  399.34
     79.1700	  530.00	  532.22	-1722.43	  399.38
     79.2700	  514.00	  533.36	-1739.56	  399.42
     79.3700	  556.00	  534.82	-1699.03	  399.45
     79.4700	  507.00	  536.65	-1749.86	  399.49
     79.5700	  547.00	  538.90	-1712.11	  399.52
     79.6700	  574.00	  541.61	-1687.82	  399.55
     79.7700	  547.00	  544.66	-1717.87	  399.58
     79.8700	  526.00	  548.51	-1742.72	  399.61
     79.9700	  520.00	  553.09	-1753.30	  399.64
     80.0700	  539.00	  558.55	-1739.76	  399.66
     80.1700	  534.00	  565.14	-1751.35	  399.69
     80.2700	  538.00	  573.18	-1755.39	  399.71
     80.3700	  575.00	  583.03	-1728.24	  399.73
     80.4700	  553.00	  594.94	-1762.15	  399.75
     80.5700	  571.00	  609.02	-1758.23	  399.77
     80.6700	  592.00	  625.09	-1753.30	  399.79
     80.7700	  609.00	  642.63	-1753.84	  399.81
     80.8700	  641.00	  660.81	-1740.02	  399.82
     80.9700	  668.00	  678.50	-1730.70	  399.83
     81.0700	  707.00	  694.47	-1707.68	  399.85
     81.1700	  737.00	  707.63	-1690.84	  399.86
     81.2700	  766.00	  717.08	-1671.29	  399.87
     81.3700	  762.00	  722.16	-1680.37	  399.87
     81.4700	  740.00	  722.58	-1702.79	  399.88
     81.5700	  766.00	  718.41	-1672.61	  399.88
     81.6700	  716.00	  710.00	-1714.21	  399.89
     81.7700	  712.00	  697.94	-1706.15	  399.89
     81.8700	  676.00	  683.03	-1727.24	  399.89
     81.9700	  696.00	  666.32	-1690.53	  399.89
     82.0700	  713.00	  648.98	-1656.18	  399.88
     82.1700	  619.00	  631.98	-1733.19	  399.88
     82.2700	  670.00	  616.04	-1666.25	  399.87
     82.3700	  648.00	  601.57	-1673.78	  399.86
     82.4700	  622.00	  588.81	-1687.01	  399.86
     82.5700	  621.00	  577.85	-1677.06	  399.84
     82.6700	  597.00	  568.76	-1691.97	  399.83
     82.7700	  580.00	  561.54	-1701.75	  399.82
     82.8700	  525.00	  556.16	-1751.37	  399.80
     82.9700	  576.00	  552.48	-1696.69	  399.79
     83.0700	  537.00	  550.54	-1733.75	  399.77
     83.1700	  523.00	  550.16	-1747.37	  399.75
     83.2700	  564.00	  551.19	-1707.40	  399.73
     83.3700	  502.00	  553.51	-1771.72	  399.70
     83.4700	  549.00	  556.85	-1728.06	  399.68
     83.5700	  561.00	  560.92	-1720.13	  399.65
     83.6700	  568.00	  565.33	-1717.54	  399.63
     83.7700	  550.00	  569.61	-1739.82	  399.60
     83.8700	  612.00	  573.25	-1681.46	  399.57
     83.9700	  558.00	  575.69	-1737.90	  399.53
     84.0700	  578.00	  576.51	-1718.72	  399.50
     84.1700	  550.00	  575.52	-1745.73	  399.46
     84.2700	  532.00	  572.80	-1761.01	  399.43
     84.3700	  599.00	  568.73	-1689.94	  399.39
     84.4700	  516.00	  563.79	-1767.99	  399.35
     84.5700	  499.00	  558.44	-1779.65	  399.31
     84.6700	  544.00	  553.11	-1729.31	  399.26
     84.7700	  551.00	  548.10	-1717.30	  399.22
     84.8700	  503.00	  543.63	-1760.84	  399.17
     84.9700	  529.00	  539.82	-1731.03	  399.12
     85.0700	  499.00	  536.72	-1757.93	  399.07
     85.1700	  538.00	  534.31	-1716.52	  399.02
     85.2700	  548.00	  532.51	-1704.72	  398.97
     85.3700	  518.00	  531.26	-1733.47	  398.91
     85.4700	  515.00	  530.45	-1735.66	  398.86
     85.5700	  522.00	  530.03	-1728.24	  398.80
     85.6700	  539.00	  529.95	-1711.16	  398.74
     85.7700	  492.00	  530.20	-1758.41	  398.68
     85.8700	  518.00	  530.81	-1733.02	  398.61
     85.9700	  496.00	  531.84	-1756.05	  398.55
     86.0700	  519.00	  533.41	-1734.61	  398.48
     86.1700	  498.00	  535.64	-1757.85	  398.42
     86.2700	  543.00	  538.71	-1715.92	  398.35
     86.3700	  508.00	  542.80	-1755.01	  398.28
     86.4700	  563.00	  548.07	-1705.28	  398.20
     86.5700	  575.00	  554.65	-1699.86	  398.13
     86.6700	  602.00	  562.57	-1680.78	  398.05
     86.7700	  532.00	  571.77	-1759.98	  397.98
     86.8700	  584.00	  582.04	-1718.25	  397.90
     86.9700	  614.00	  593.00	-1699.21	  397.82
     87.0700	  639.00	  604.10	-1685.31	  397.74
     87.1700	  654.00	  614.63	-1680.84	  397.65
     87.2700	  586.00	  623.74	-1757.95	  397.57
     87.3700	  656.00	  630.53	-1694.73	  397.48
     87.4700	  652.00	  634.19	-1702.40	  397.39
     87.5700	  645.00	  633.94	-1709.15	  397.30
     87.6700	  618.00	  630.54	-1732.75	  397.21
     87.7700	  596.00	  624.19	-1748.40	  397.12
     87.8700	  606.00	  615.76	-1729.97	  397.02
     87.9700	  582.00	  606.20	-1744.41	  396.92
     88.0700	  599.00	  596.42	-1717.63	  396.83
     88.1700	  594.00	  587.22	-1713.43	  396.73
     88.2700	  604.00	  579.23	-1695.44	  396.62
     88.3700	  594.00	  572.90	-1699.11	  396.52
     88.4700	  586.00	  568.52	-1702.73	  396.42
     88.5700	  552.00	  566.19	-1734.40	  396.31
     88.6700	  551.00	  565.84	-1735.05	  396.20
     88.7700	  637.00	  567.27	-1650.48	  396.09
     88.8700	  570.00	  570.15	-1720.36	  395.98
     88.9700	  594.00	  574.04	-1700.25	  395.87
     89.0700	  613.00	  578.44	-1685.65	  395.75
     89.1700	  597.00	  582.77	-1705.97	  395.64
     89.2700	  618.00	  586.43	-1688.64	  395.52
     89.3700	  601.00	  588.87	-1708.08	  395.40
     89.4700	  611.00	  589.64	-1698.85	  395.28
     89.5700	  597.00	  588.54	-1711.75	  395.16
     89.6700	  575.00	  585.65	-1730.86	  395.04
     89.7700	  612.00	  581.29	-1689.50	  394.91
     89.8700	  551.00	  575.90	-1745.11	  394.78
     89.9700	  528.00	  569.94	-1762.15	  394.66
     90.0700	  537.00	  563.83	-1747.04	  394.53
     90.1700	  515.00	  557.92	-1763.13	  394.39
     90.2700	  518.00	  552.47	-1754.68	  394.26
     90.3700	  501.00	  547.67	-1766.88	  394.13
     90.4700	  520.00	  543.60	-1743.81	  393.99
     90.5700	  512.00	  540.29	-1748.50	  393.85
     90.6700	  549.00	  537.73	-1708.94	  393.71
     90.7700	  547.00	  535.85	-1709.06	  393.57
     90.8700	  473.00	  534.58	-1781.79	  393.43
     90.9700	  526.00	  533.84	-1728.05	  393.29
     91.0700	  523.00	  533.57	-1730.78	  393.14
     91.1700	  533.00	  533.73	-1720.94	  393.00
     91.2700	  522.00	  534.32	-1732.53	  392.85
     91.3700	  476.00	  535.36	-1779.57	  392.70
     91.4700	  496.00	  536.93	-1761.13	  392.55
     91.5700	  558.00	  539.12	-1701.33	  392.39
     91.6700	  565.00	  542.09	-1697.29	  392.24
     91.7700	  562.00	  546.00	-1704.21	  392.08
     91.8700	  519.00	  551.07	-1752.28	  391.93
     91.9700	  573.00	  557.48	-1704.69	  391.77
     92.0700	  560.00	  565.43	-1725.63	  391.61
     92.1700	  542.00	  575.06	-1753.27	  391.45
     92.2700	  577.00	  586.48	-1729.69	  391.28
     92.3700	  563.00	  599.68	-1756.89	  391.12
     92.4700	  583.00	  614.58	-1751.78	  390.95
     92.5700	  628.00	  630.94	-1723.14	  390.79
     92.6700	  672.00	  648.41	-1696.61	  390.62
     92.7700	  668.00	  666.23	-1718.44	  390.45
     92.8700	  655.00	  684.31	-1749.51	  390.28
     92.9700	  705.00	  701.67	-1716.87	  390.10
     93.0700	  734.00	  717.64	-1703.84	  389.93
     93.1700	  761.00	  731.72	-1690.93	  389.75
     93.2700	  739.00	  743.76	-1724.97	  389.58
     93.3700	  772.00	  753.93	-1702.14	  389.40
     93.4700	  738.00	  762.69	-1744.89	  389.22
     93.5700	  803.00	  770.55	-1687.76	  389.04
     93.6700	  815.00	  778.01	-1683.21	  388.86
     93.7700	  790.00	  785.47	-1715.68	  388.67
     93.8700	  864.00	  793.32	-1649.53	  388.49
     93.9700	  841.00	  801.96	-1681.17	  388.30
     94.0700	  820.00	  811.85	-1712.06	  388.11
     94.1700	  868.00	  823.32	-1675.53	  387.92
     94.2700	  890.00	  836.48	-1666.69	  387.73
     94.3700	  881.00	  851.03	-1690.24	  387.54
     94.4700	  831.00	  866.23	-1755.44	  387.35
     94.5700	  937.00	  880.89	-1664.10	  387.16
     94.6700	  931.00	  893.49	-1682.69	  386.96
     94.7700	  942.00	  902.28	-1680.49	  386.76
     94.8700	  905.00	  905.62	-1720.83	  386.57
     94.9700	  915.00	  902.32	-1707.53	  386.37
     95.0700	  891.00	  892.01	-1721.22	  386.17
     95.1700	  869.00	  875.24	-1726.45	  385.97
     95.2700	  852.00	  853.34	-1721.55	  385.76
     95.3700	  838.00	  828.10	-1710.31	  385.56
     95.4700	  801.00	  801.48	-1720.69	  385.36
     95.5700	  832.00	  775.39	-1663.60	  385.15
     95.6700	  720.00	  751.65	-1751.86	  384.94
     95.7700	  696.00	  731.88	-1756.09	  384.73
     95.8700	  720.00	  717.57	-1717.78	  384.53
     95.9700	  738.00	  710.01	-1692.22	  384.31
     96.0700	  738.00	  710.32	-1692.53	  384.10
     96.1700	  695.00	  719.44	-1744.65	  383.89
     96.2700	  699.00	  738.09	-1759.30	  383.68
     96.3700	  785.00	  766.77	-1701.98	  383.46
     96.4700	  812.00	  805.67	-1713.88	  383.25
     96.5700	  877.00	  854.60	-1697.81	  383.03
     96.6700	  906.00	  912.89	-1727.10	  382.81
     96.7700	  938.00	  979.37	-1761.58	  382.59
     96.8700	 1064.00	 1052.24	-1708.45	  382.37
     96.9700	 1065.00	 1129.05	-1784.26	  382.15
     97.0700	 1217.00	 1206.67	-1709.88	  381.93
     97.1700	 1225.00	 1281.36	-1776.57	  381.71
     97.2700	 1396.00	 1348.90	-1673.10	  381.49
     97.3700	 1346.00	 1404.79	-1778.99	  381.26
     97.4700	 1403.00	 1444.79	-1762.00	  381.04
     97.5700	 1478.00	 1465.65	-1707.86	  380.81
     97.6700	 1445.00	 1465.78	-1740.99	  380.58
     97.7700	 1390.00	 1445.66	-1775.86	  380.35
     97.8700	 1397.00	 1407.60	-1730.81	  380.12
     97.9700	 1372.00	 1355.22	-1703.43	  379.90
     98.0700	 1333.00	 1292.73	-1679.94	  379.66
     98.1700	 1221.00	 1224.39	-1723.60	  379.43
     98.2700	 1148.00	 1154.19	-1726.40	  379.20
     98.3700	 1048.00	 1085.70	-1757.91	  378.97
     98.4700	 1035.00	 1022.01	-1707.22	  378.73
     98.5700	  952.00	  965.68	-1733.89	  378.50
     98.6700	  870.00	  918.79	-1769.00	  378.26
     98.7700	  889.00	  882.94	-1714.15	  378.03
     98.8700	  837.00	  859.36	-1742.56	  377.79
     98.9700	  865.00	  848.87	-1704.08	  377.55
     99.0700	  817.00	  852.13	-1755.34	  377.32
     99.1700	  866.00	  869.44	-1723.65	  377.08
     99.2700	  872.00	  900.88	-1749.09	  376.84
     99.3700	  897.00	  946.31	-1769.51	  376.60
     99.4700	 1003.00	 1005.27	-1722.48	  376.36
     99.5700	 1152.00	 1077.01	-1645.22	  376.12
     99.6700	 1160.00	 1160.33	-1720.54	  375.88
     99.7700	 1285.00	 1253.51	-1688.72	  375.63
     99.8700	 1364.00	 1354.26	-1710.46	  375.39
     99.9700	 1415.00	 1459.62	-1764.82	  375.15
    100.0700	 1590.00	 1566.02	-1696.23	  374.91
    100.1700	 1670.00	 1669.39	-1719.60	  374.66
    100.2700	 1742.00	 1765.46	-1743.66	  374.42
    100.3700	 1862.00	 1850.13	-1708.34	  374.17
    100.4700	 1921.00	 1920.02	-1719.23	  373.93
    100.5700	 1992.00	 1972.64	-1700.85	  373.68
    100.6700	 1969.00	 2006.38	-1757.59	  373.43
    100.7700	 2052.00	 2020.30	-1688.51	  373.19
    100.8700	 1981.00	 2013.94	-1753.15	  372.94
    100.9700	 1894.00	 1987.49	-1813.70	  372.69
    101.0700	 1957.00	 1942.10	-1705.30	  372.45
    101.1700	 1891.00	 1880.17	-1709.38	  372.20
    101.2700	 1841.00	 1805.39	-1684.60	  371.95
    101.3700	 1713.00	 1722.30	-1729.51	  371.70
    101.4700	 1690.00	 1635.71	-1665.92	  371.46
    101.5700	 1581.00	 1550.08	-1689.29	  371.21
    101.6700	 1423.00	 1469.18	-1766.39	  370.96
    101.7700	 1436.00	 1395.84	-1680.04	  370.71
    101.8700	 1417.00	 1331.92	-1635.13	  370.46
    101.9700	 1321.00	 1278.29	-1677.50	  370.21
    102.0700	 1278.00	 1234.90	-1677.11	  369.96
    102.1700	 1213.00	 1200.82	-1708.03	  369.71
    102.2700	 1200.00	 1174.44	-1694.65	  369.46
    102.3700	 1101.00	 1153.58	-1772.79	  369.21
    102.4700	 1184.00	 1135.69	-1671.90	  368.96
    102.5700	 1094.00	 1118.19	-1744.40	  368.72
    102.6700	 1073.00	 1098.77	-1745.98	  368.47
    102.7700	 1068.00	 1075.70	-1727.90	  368.22
    102.8700	 1068.00	 1048.09	-1700.29	  367.97
    102.9700	 1016.00	 1015.87	-1720.08	  367.72
    103.0700	  959.00	  979.64	-1740.85	  367.47
    103.1700	  916.00	  940.43	-1744.64	  367.22
    103.2700	  898.00	  899.44	-1721.65	  366.97
    103.3700	  845.00	  857.91	-1733.12	  366.73
    103.4700	  822.00	  817.01	-1715.21	  366.48
    103.5700	  835.00	  777.73	-1662.94	  366.23
    103.6700	  789.00	  740.90	-1672.11	  365.98
    103.7700	  691.00	  707.15	-1736.36	  365.74
    103.8700	  679.00	  676.89	-1718.09	  365.49
    103.9700	  668.00	  650.33	-1702.53	  365.24
    104.0700	  644.00	  627.50	-1703.71	  365.00
    104.1700	  628.00	  608.28	-1700.48	  364.75
    104.2700	  578.00	  592.42	-1734.63	  364.51
    104.3700	  604.00	  579.60	-1695.81	  364.26
    104.4700	  581.00	  569.48	-1708.69	  364.02
    104.5700	  597.00	  561.67	-1684.88	  363.77
    104.6700	  594.00	  555.81	-1682.02	  363.53
    104.7700	  563.00	  551.57	-1708.78	  363.29
    104.8700	  558.00	  548.67	-1710.88	  363.05
    104.9700	  577.00	  546.86	-1690.07	  362.80
    105.0700	  510.00	  545.94	-1756.14	  362.56
    105.1700	  560.00	  545.77	-1705.98	  362.32
    105.2700	  541.00	  546.25	-1725.46	  362.08
    105.3700	  515.00	  547.30	-1752.51	  361.85
    105.4700	  572.00	  548.91	-1697.12	  361.61
    105.5700	  501.00	  551.07	-1770.27	  361.37
    105.6700	  536.00	  553.83	-1738.04	  361.13
    105.7700	  501.00	  557.26	-1776.46	  360.90
    105.8700	  569.00	  561.42	-1712.63	  360.67
    105.9700	  554.00	  566.40	-1732.61	  360.43
    106.0700	  527.00	  572.24	-1765.45	  360.20
    106.1700	  614.00	  578.99	-1685.20	  359.97
    106.2700	  607.00	  586.63	-1699.84	  359.74
    106.3700	  598.00	  595.09	-1717.30	  359.51
    106.4700	  561.00	  604.25	-1763.46	  359.28
    106.5700	  615.00	  613.93	-1719.14	  359.05
    106.6700	  611.00	  623.91	-1733.12	  358.83
    106.7700	  662.00	  633.90	-1692.11	  358.60
    106.8700	  628.00	  643.59	-1735.80	  358.38
    106.9700	  642.00	  652.62	-1730.83	  358.15
    107.0700	  660.00	  660.66	-1720.87	  357.93
    107.1700	  640.00	  667.40	-1747.61	  357.71
    107.2700	  701.00	  672.62	-1691.83	  357.49
    107.3700	  640.00	  676.23	-1756.44	  357.28
    107.4700	  666.00	  678.30	-1732.51	  357.06
    107.5700	  696.00	  679.06	-1703.27	  356.85
    107.6700	  659.00	  678.84	-1740.05	  356.63
    107.7700	  683.00	  678.03	-1715.23	  356.42
    107.8700	  695.00	  677.02	-1702.22	  356.21
    107.9700	  654.00	  676.15	-1742.36	  356.00
    108.0700	  632.00	  675.70	-1763.91	  355.79
    108.1700	  683.00	  675.83	-1713.04	  355.59
    108.2700	  696.00	  676.61	-1700.82	  355.38
    108.3700	  651.00	  677.99	-1747.20	  355.18
    108.4700	  729.00	  679.81	-1671.02	  354.98
    108.5700	  685.00	  681.84	-1717.05	  354.78
    108.6700	  681.00	  683.73	-1722.94	  354.59
    108.7700	  646.00	  685.09	-1759.29	  354.39
    108.8700	  730.00	  685.51	-1675.72	  354.20
    108.9700	  676.00	  684.62	-1728.83	  354.01
    109.0700	  678.00	  682.14	-1724.35	  353.82
    109.1700	  699.00	  677.92	-1699.13	  353.63
    109.2700	  677.00	  671.97	-1715.17	  353.44
    109.3700	  670.00	  664.42	-1714.63	  353.26
    109.4700	  608.00	  655.56	-1767.77	  353.08
    109.5700	  657.00	  645.69	-1708.90	  352.90
    109.6700	  650.00	  635.16	-1705.37	  352.72
    109.7700	  615.00	  624.33	-1729.54	  352.55
    109.8700	  580.00	  613.49	-1753.70	  352.37
    109.9700	  591.00	  602.95	-1732.16	  352.20
    110.0700	  611.00	  592.93	-1702.14	  352.03
    110.1700	  566.00	  583.63	-1737.84	  351.87
    110.2700	  577.00	  575.21	-1718.41	  351.70
    110.3700	  562.00	  567.74	-1725.95	  351.54
    110.4700	  581.00	  561.29	-1700.49	  351.38
    110.5700	  591.00	  555.86	-1685.07	  351.23
    110.6700	  560.00	  551.44	-1711.65	  351.07
    110.7700	  587.00	  547.97	-1681.18	  350.92
    110.8700	  564.00	  545.39	-1701.60	  350.77
    110.9700	  553.00	  543.61	-1710.82	  350.63
    111.0700	  538.00	  542.54	-1724.75	  350.48
    111.1700	  564.00	  542.11	-1698.32	  350.34
    111.2700	  548.00	  542.21	-1714.42	  350.20
    111.3700	  570.00	  542.78	-1692.99	  350.07
    111.4700	  542.00	  543.74	-1721.95	  349.94
    111.5700	  535.00	  545.03	-1730.24	  349.81
    111.6700	  511.00	  546.60	-1755.81	  349.68
    111.7700	  543.00	  548.42	-1725.63	  349.56
    111.8700	  519.00	  550.45	-1751.66	  349.44
    111.9700	  559.00	  552.68	-1713.88	  349.32
    112.0700	  582.00	  555.09	-1693.30	  349.20
    112.1700	  577.00	  557.70	-1700.91	  349.09
    112.2700	  559.00	  560.53	-1721.73	  348.98
    112.3700	  574.00	  563.58	-1709.79	  348.88
    112.4700	  535.00	  566.90	-1752.11	  348.78
    112.5700	  557.00	  570.54	-1733.75	  348.68
    112.6700	  571.00	  574.54	-1723.75	  348.58
    112.7700	  609.00	  579.00	-1690.21	  348.49
    112.8700	  605.00	  584.00	-1699.21	  348.40
    112.9700	  566.00	  589.66	-1743.87	  348.32
    113.0700	  626.00	  596.15	-1690.35	  348.24
    113.1700	  599.00	  603.66	-1724.87	  348.16
    113.2700	  623.00	  612.46	-1709.67	  348.09
    113.3700	  651.00	  622.89	-1692.10	  348.02
    113.4700	  681.00	  635.38	-1674.59	  347.95
    113.5700	  666.00	  650.46	-1704.67	  347.89
    113.6700	  717.00	  668.82	-1672.03	  347.83
    113.7700	  710.00	  691.28	-1701.49	  347.77
    113.8700	  755.00	  718.86	-1684.07	  347.72
    113.9700	  823.00	  752.75	-1649.96	  347.67
    114.0700	  874.00	  794.37	-1640.57	  347.63
    114.1700	  863.00	  845.34	-1702.55	  347.59
    114.2700	  948.00	  907.51	-1679.72	  347.55
    114.3700	  960.00	  982.95	-1743.15	  347.52
    114.4700	 1106.00	 1073.81	-1688.02	  347.50
    114.5700	 1247.00	 1182.40	-1655.61	  347.47
    114.6700	 1415.00	 1311.03	-1616.24	  347.45
    114.7700	 1563.00	 1461.99	-1619.19	  347.44
    114.8700	 1739.00	 1637.29	-1618.50	  347.43
    114.9700	 1981.00	 1838.67	-1577.88	  347.42
    115.0700	 2172.00	 2067.32	-1615.53	  347.42
    115.1700	 2377.00	 2323.87	-1667.08	  347.43
    115.2700	 2686.00	 2608.17	-1642.37	  347.43
    115.3700	 2972.00	 2919.04	-1667.25	  347.45
    115.4700	 3236.00	 3254.31	-1738.52	  347.46
    115.5700	 3689.00	 3610.60	-1641.80	  347.48
    115.6700	 4015.00	 3983.41	-1688.62	  347.51
    115.7700	 4153.00	 4367.07	-1934.28	  347.54
    115.8700	 4633.00	 4754.55	-1841.76	  347.58
    115.9700	 5033.00	 5137.75	-1824.96	  347.62
    116.0700	 5475.00	 5507.45	-1752.66	  347.67
    116.1700	 5759.00	 5853.73	-1814.94	  347.72
    116.2700	 6113.00	 6166.07	-1773.28	  347.77
    116.3700	 6310.00	 6433.75	-1843.96	  347.83
    116.4700	 6537.00	 6646.65	-1829.85	  347.90
    116.5700	 6723.00	 6795.95	-1793.16	  347.97
    116.6700	 6844.00	 6875.18	-1751.39	  348.05
    116.7700	 6861.00	 6880.83	-1740.04	  348.13
    116.8700	 6640.00	 6812.90	-1893.11	  348.22
    116.9700	 6639.00	 6674.87	-1756.08	  348.31
    117.0700	 6373.00	 6473.30	-1820.51	  348.41
    117.1700	 6158.00	 6216.90	-1779.11	  348.52
    117.2700	 5873.00	 5915.70	-1762.91	  348.63
    117.3700	 5534.00	 5580.31	-1766.52	  348.74
    117.4700	 5205.00	 5221.15	-1736.36	  348.86
    117.5700	 4783.00	 4848.16	-1785.37	  348.99
    117.6700	 4595.00	 4470.27	-1595.48	  349.12
    117.7700	 4189.00	 4095.35	-1626.56	  349.26
    117.8700	 3897.00	 3730.22	-1553.43	  349.41
    117.9700	 3622.00	 3380.46	-1478.67	  349.56
    118.0700	 3078.00	 3050.47	-1692.68	  349.71
    118.1700	 2880.00	 2743.37	-1583.58	  349.88
    118.2700	 2369.00	 2461.20	-1812.41	  350.04
    118.3700	 2213.00	 2205.10	-1712.31	  350.22
    118.4700	 1957.00	 1975.31	-1738.52	  350.40
    118.5700	 1826.00	 1771.36	-1665.57	  350.59
    118.6700	 1617.00	 1592.14	-1695.34	  350.78
    118.7700	 1445.00	 1436.09	-1711.30	  350.98
    118.8700	 1263.00	 1301.42	-1758.63	  351.19
    118.9700	 1179.00	 1186.10	-1727.31	  351.40
    119.0700	 1021.00	 1088.03	-1787.24	  351.62
    119.1700	 1026.00	 1005.11	-1699.32	  351.85
    119.2700	  883.00	  935.33	-1772.54	  352.08
    119.3700	  835.00	  876.83	-1762.04	  352.33
    119.4700	  833.00	  827.91	-1715.12	  352.57
    119.5700	  705.00	  787.07	-1802.28	  352.83
    119.6700	  706.00	  752.98	-1767.19	  353.09
    119.7700	  715.00	  724.51	-1729.72	  353.36
    119.8700	  704.00	  700.72	-1716.93	  353.63
    119.9700	  700.00	  680.81	-1701.02	  353.91
    120.0700	  623.00	  664.12	-1761.33	  354.20
    120.1700	  598.00	  650.12	-1772.33	  354.50
    120.2700	  598.00	  638.37	-1760.58	  354.81
    120.3700	  568.00	  628.53	-1780.73	  355.12
    120.4700	  598.00	  620.31	-1742.51	  355.44
    120.5700	  586.00	  613.49	-1747.69	  355.76
    120.6700	  642.00	  607.89	-1686.10	  356.10
    120.7700	  596.00	  603.37	-1727.58	  356.44
    120.8700	  557.00	  599.82	-1763.03	  356.79
    120.9700	  565.00	  597.15	-1752.36	  357.15
    121.0700	  542.00	  595.29	-1773.49	  357.52
    121.1700	  581.00	  594.16	-1733.37	  357.89
    121.2700	  560.00	  593.72	-1753.93	  358.27
    121.3700	  595.00	  593.91	-1719.12	  358.66
    121.4700	  610.00	  594.69	-1704.90	  359.06
    121.5700	  617.00	  596.00	-1699.21	  359.46
    121.6700	  601.00	  597.79	-1717.00	  359.88
    121.7700	  571.00	  600.01	-1749.22	  360.30
    121.8700	  640.00	  602.58	-1682.79	  360.73
    121.9700	  571.00	  605.44	-1754.64	  361.17
    122.0700	  582.00	  608.50	-1746.71	  361.62
    122.1700	  590.00	  611.69	-1741.90	  362.08
    122.2700	  615.00	  614.91	-1720.12	  362.54
    122.3700	  630.00	  618.08	-1708.28	  363.02
    122.4700	  621.00	  621.07	-1720.28	  363.50
    122.5700	  661.00	  623.82	-1683.02	  363.99
    122.6700	  637.00	  626.19	-1709.40	  364.49
    122.7700	  649.00	  628.15	-1699.35	  365.00
    122.8700	  630.00	  629.60	-1719.81	  365.52
    122.9700	  623.00	  630.51	-1727.72	  366.05
    123.0700	  628.00	  630.85	-1723.06	  366.58
    123.1700	  623.00	  630.62	-1727.83	  367.13
    123.2700	  669.00	  629.84	-1681.05	  367.69
    123.3700	  635.00	  628.55	-1713.76	  368.25
    123.4700	  611.00	  626.82	-1736.02	  368.83
    123.5700	  628.00	  624.69	-1716.89	  369.41
    123.6700	  650.00	  622.23	-1692.44	  370.00
    123.7700	  640.00	  619.51	-1699.72	  370.61
    123.8700	  634.00	  616.62	-1702.82	  371.22
    123.9700	  628.00	  613.60	-1705.81	  371.84
    124.0700	  606.00	  610.53	-1724.74	  372.48
    124.1700	  590.00	  607.45	-1737.66	  373.12
    124.2700	  624.00	  604.43	-1700.64	  373.77
    124.3700	  612.00	  601.49	-1709.70	  374.44
    124.4700	  641.00	  598.69	-1677.89	  375.11
    124.5700	  590.00	  596.04	-1726.25	  375.79
    124.6700	  591.00	  593.58	-1722.78	  376.49
    124.7700	  619.00	  591.32	-1692.53	  377.19
    124.8700	  604.00	  589.28	-1705.49	  377.91
    124.9700	  586.00	  494.44	-1628.65	  378.64
    125.0700	  525.00	  495.18	-1720.21	  379.37
    125.1700	  573.00	  495.93	-1720.21	  380.12
    125.2700	  608.00	  496.68	-1720.21	  380.88
    125.3700	  574.00	  497.45	-1720.21	  381.65
    125.4700	  570.00	  498.23	-1720.21	  382.43
    125.5700	  574.00	  499.03	-1720.21	  383.22
    125.6700	  607.00	  499.83	-1720.21	  384.02
    125.7700	  615.00	  500.64	-1720.21	  384.83
    125.8700	  623.00	  501.47	-1720.21	  385.66
    125.9700	  594.00	  502.30	-1720.21	  386.49
    126.0700	  589.00	  503.15	-1720.21	  387.34
    126.1700	  558.00	  504.01	-1720.21	  388.20
    126.2700	  567.00	  504.88	-1720.21	  389.07
    126.3700	  588.00	  505.76	-1720.21	  389.95
    126.4700	  602.00	  506.66	-1720.21	  390.85
    126.5700	  578.00	  507.56	-1720.21	  391.75
    126.6700	  600.00	  508.48	-1720.21	  392.67
    126.7700	  592.00	  509.41	-1720.21	  393.60
    126.8700	  611.00	  510.35	-1720.21	  394.55
    126.9700	  603.00	  511.31	-1720.21	  395.50
    127.0700	  661.00	  512.27	-1720.21	  396.47
    127.1700	  617.00	  513.25	-1720.21	  397.44
    127.2700	  654.00	  514.24	-1720.21	  398.44
    127.3700	  635.00	  515.25	-1720.21	  399.44
    127.4700	  647.00	  516.26	-1720.21	  400.46
    127.5700	  728.00	  517.29	-1720.21	  401.49
    127.6700	  692.00	  518.33	-1720.21	  402.53
    127.7700	  689.00	  519.39	-1720.21	  403.58
    127.8700	  769.00	  520.46	-1720.21	  404.65
    127.9700	  719.00	  521.54	-1720.21	  405.73
    128.0700	  769.00	  522.63	-1720.21	  406.82
    128.1700	  759.00	  523.74	-1720.21	  407.93
    128.2700	  753.00	  524.86	-1720.21	  409.05
    128.3700	  770.00	  525.99	-1720.21	  410.18
    128.4700	  777.00	  527.14	-1720.21	  411.33
    128.5700	    0.00	  528.30	-1720.21	  412.49
    128.6700	    0.00	  529.47	-1720.21	  413.67
     12.3078	        	        	        	        	       0	(  0  0  2)	  0  1
     24.8932	        	        	        	        	       0	(  0  0  4)	  0  1
     28.3414	        	        	        	        	       0	(  1  0  0)	  0  1
     29.0386	        	        	        	        	       0	(  1  0  1)	  0  1
     31.0448	        	        	        	        	       0	(  1  0  2)	  0  1
     34.1533	        	        	        	        	       0	(  1  0  3)	  0  1
     37.7946	        	        	        	        	       0	(  0  0  6)	  0  1
     38.1306	        	        	        	        	       0	(  1  0  4)	  0  1
     42.7812	        	        	        	        	       0	(  1  0  5)	  0  1
     47.9658	        	        	        	        	       0	(  1  0  6)	  0  1
     50.2875	        	        	        	        	       0	(  1  1  0)	  0  1
     51.2186	        	        	        	        	       0	(  0  0  8)	  0  1
     52.0106	        	        	        	        	       0	(  1  1  2)	  0  1
     53.5970	        	        	        	        	       0	(  1  0  7)	  0  1
     56.9588	        	        	        	        	       0	(  1  1  4)	  0  1
     58.7884	        	        	        	        	       0	(  2  0  0)	  0  1
     59.1800	        	        	        	        	       0	(  2  0  1)	  0  1
     59.6283	        	        	        	        	       0	(  1  0  8)	  0  1
     60.3455	        	        	        	        	       0	(  2  0  2)	  0  1
     62.2589	        	        	        	        	       0	(  2  0  3)	  0  1
     64.6544	        	        	        	        	       0	(  1  1  6)	  0  1
     64.8833	        	        	        	        	       0	(  2  0  4)	  0  1
     65.4503	        	        	        	        	       0	(  0  0 10)	  0  1
     66.0457	        	        	        	        	       0	(  1  0  9)	  0  1
     68.1780	        	        	        	        	       0	(  2  0  5)	  0  1
     72.1061	        	        	        	        	       0	(  2  0  6)	  0  1
     72.8631	        	        	        	        	       0	(  1  0 10)	  0  1
     74.6937	        	        	        	        	       0	(  1  1  8)	  0  1
     76.6410	        	        	        	        	       0	(  2  0  7)	  0  1
     80.1223	        	        	        	        	       0	(  1  0 11)	  0  1
     80.9339	        	        	        	        	       0	(  0  0 12)	  0  1
     81.0420	        	        	        	        	       0	(  2  1  0)	  0  1
     81.3819	        	        	        	        	       0	(  2  1  1)	  0  1
     81.7723	        	        	        	        	       0	(  2  0  8)	  0  1
     82.4000	        	        	        	        	       0	(  2  1  2)	  0  1
     84.0917	        	        	        	        	       0	(  2  1  3)	  0  1
     86.4520	        	        	        	        	       0	(  2  1  4)	  0  1
     86.9679	        	        	        	        	       0	(  1  1 10)	  0  1
     87.5118	        	        	        	        	       0	(  2  0  9)	  0  1
     87.8984	        	        	        	        	       0	(  1  0 12)	  0  1
     89.4786	        	        	        	        	       0	(  2  1  5)	  0  1
     93.1772	        	        	        	        	       0	(  2  1  6)	  0  1
     93.9011	        	        	        	        	       0	(  2  0 10)	  0  1
     94.9408	        	        	        	        	       0	(  3  0  0)	  0  1
     95.2783	        	        	        	        	       0	(  3  0  1)	  0  1
     96.2919	        	        	        	        	       0	(  3  0  2)	  0  1
     96.3141	        	        	        	        	       0	(  1  0 13)	  0  1
     97.5674	        	        	        	        	       0	(  2  1  7)	  0  1
     97.9859	        	        	        	        	       0	(  3  0  3)	  0  1
     98.4780	        	        	        	        	       0	(  0  0 14)	  0  1
    100.3700	        	        	        	        	       0	(  3  0  4)	  0  1
    101.0255	        	        	        	        	       0	(  2  0 11)	  0  1
    101.8430	        	        	        	        	       0	(  1  1 12)	  0  1
    102.6920	        	        	        	        	       0	(  2  1  8)	  0  1
    103.4630	        	        	        	        	       0	(  3  0  5)	  0  1
    105.5700	        	        	        	        	       0	(  1  0 14)	  0  1
    107.3002	        	        	        	        	       0	(  3  0  6)	  0  1
    108.6319	        	        	        	        	       0	(  2  1  9)	  0  1
    109.0404	        	        	        	        	       0	(  2  0 12)	  0  1
    111.9434	        	        	        	        	       0	(  3  0  7)	  0  1
    115.5331	        	        	        	        	       0	(  2  1 10)	  0  1
    116.0184	        	        	        	        	       0	(  1  0 15)	  0  1
    116.6886	        	        	        	        	       0	(  2  2  0)	  0  1
    117.5010	        	        	        	        	       0	(  3  0  8)	  0  1
    118.2052	        	        	        	        	       0	(  2  2  2)	  0  1
    118.2302	        	        	        	        	       0	(  2  0 13)	  0  1
    119.9759	        	        	        	        	       0	(  0  0 16)	  0  1
    120.6974	        	        	        	        	       0	(  1  1 14)	  0  1
    122.8956	        	        	        	        	       0	(  2  2  4)	  0  1
    123.6670	        	        	        	        	       0	(  2  1 11)	  0  1
    124.1673	        	        	        	        	       0	(  3  0  9)	  0  1
    124.7663	        	        	        	        	       0	(  3  1  0)	  0  1
    125.1771	        	        	        	        	       0	(  3  1  1)	  0  1
    126.4222	        	        	        	        	       0	(  3  1  2)	  0  1
    128.3708	        	        	        	        	       0	(  1  0 16)	  0  1
    128.5435	        	        	        	        	       0	(  3  1  3)	  0  1
    129.1698	        	        	        	        	       0	(  2  0 14)	  0  1
    131.3471	        	        	        	        	       0	(  2  2  6)	  0  1
    131.6243	        	        	        	        	       0	(  3  1  4)	  0  1
    132.3186	        	        	        	        	       0	(  3  0 10)	  0  1
    133.5916	        	        	        	        	       0	(  2  1 12)	  0  1
    135.8194	        	        	        	        	       0	(  3  1  5)	  0  1
    141.4286	        	        	        	        	       0	(  3  1  6)	  0  1
    142.8190	        	        	        	        	       0	(  3  0 11)	  0  1
    143.3329	        	        	        	        	       0	(  2  0 15)	  0  1
    144.5643	        	        	        	        	       0	(  1  0 17)	  0  1
    145.6158	        	        	        	        	       0	(  2  2  8)	  0  1
    146.7770	        	        	        	        	       0	(  2  1 13)	  0  1
    149.1295	        	        	        	        	       0	(  3  1  7)	  0  1
    149.6810	        	        	        	        	       0	(  1  1 16)	  0  1
    154.0858	        	        	        	        	       0	(  0  0 18)	  0  1
    158.7770	        	        	        	        	       0	(  3  0 12)	  0  1
    159.0756	        	        	        	        	       0	(  4  0  0)	  0  1
    160.0437	        	        	        	        	       0	(  4  0  1)	  0  1
    161.2160	        	        	        	        	       0	(  3  1  8)	  0  1
    163.2694	        	        	        	        	       0	(  4  0  2)	  0  1
    170.0295	        	        	        	        	       0	(  2  0 16)	  0  1
    170.8533	        	        	        	        	       0	(  4  0  3)	  0  1
    174.8329	        	        	        	        	       0	(  2  1 14)	  0  1
