MSG Master    CELL:    5.91922   5.91922  23.27431   90.0000   90.0000  120.0000   SPGR: P 63/m m c             TEMP:   1074.95
  1   1280     2.52000     0.00000    -0.12620     0.00000     0.00000    0
    99     0     2
       0.00000      10.00000
     125.00000     130.00000
 2Theta	Yobs	Ycal	Yobs-Ycal	Backg	Posr	(hkl)	K
      0.7700	    0.00	  532.68	-1766.75	  414.15
      0.8700	    0.00	  533.54	-1766.75	  415.01
      0.9700	   36.00	  534.39	-1766.75	  415.86
      1.0700	   39.00	  535.23	-1766.75	  416.69
      1.1700	   34.00	  536.06	-1766.75	  417.52
      1.2700	   41.00	  536.87	-1766.75	  418.33
      1.3700	   45.00	  537.67	-1766.75	  419.14
      1.4700	   76.00	  538.47	-1766.75	  419.93
      1.5700	  287.00	  539.25	-1766.75	  420.71
      1.6700	  435.00	  540.02	-1766.75	  421.48
      1.7700	  602.00	  540.77	-1766.75	  422.24
      1.8700	  648.00	  541.52	-1766.75	  422.99
      1.9700	  740.00	  542.26	-1766.75	  423.72
      2.0700	  719.00	  542.99	-1766.75	  424.45
      2.1700	  788.00	  543.70	-1766.75	  425.17
      2.2700	  762.00	  544.41	-1766.75	  425.87
      2.3700	  726.00	  545.10	-1766.75	  426.56
      2.4700	  736.00	  545.78	-1766.75	  427.25
      2.5700	  707.00	  546.46	-1766.75	  427.92
      2.6700	  645.00	  547.12	-1766.75	  428.58
      2.7700	  642.00	  547.77	-1766.75	  429.23
      2.8700	  652.00	  548.41	-1766.75	  429.88
      2.9700	  600.00	  549.04	-1766.75	  430.51
      3.0700	  607.00	  549.67	-1766.75	  431.13
      3.1700	  599.00	  550.28	-1766.75	  431.74
      3.2700	  622.00	  550.88	-1766.75	  432.34
      3.3700	  705.00	  551.47	-1766.75	  432.94
      3.4700	  730.00	  552.05	-1766.75	  433.52
      3.5700	  818.00	  552.63	-1766.75	  434.09
      3.6700	  894.00	  553.19	-1766.75	  434.65
      3.7700	  955.00	  553.74	-1766.75	  435.20
      3.8700	  989.00	  554.28	-1766.75	  435.75
      3.9700	 1074.00	  554.82	-1766.75	  436.28
      4.0700	 1024.00	  555.34	-1766.75	  436.81
      4.1700	 1031.00	  555.86	-1766.75	  437.32
      4.2700	 1081.00	  556.36	-1766.75	  437.83
      4.3700	 1120.00	  556.86	-1766.75	  438.32
      4.4700	  967.00	  557.35	-1766.75	  438.81
      4.5700	  993.00	  557.83	-1766.75	  439.29
      4.6700	  992.00	  558.29	-1766.75	  439.76
      4.7700	 1008.00	  558.75	-1766.75	  440.22
      4.8700	 1010.00	  559.21	-1766.75	  440.67
      4.9700	  942.00	  559.65	-1766.75	  441.11
      5.0700	  940.00	  560.08	-1766.75	  441.55
      5.1700	  933.00	  560.51	-1766.75	  441.97
      5.2700	  914.00	  560.92	-1766.75	  442.39
      5.3700	  842.00	  561.33	-1766.75	  442.80
      5.4700	  867.00	  561.73	-1766.75	  443.20
      5.5700	  834.00	  562.12	-1766.75	  443.59
      5.6700	  867.00	  562.51	-1766.75	  443.97
      5.7700	  784.00	  562.88	-1766.75	  444.34
      5.8700	  840.00	  563.25	-1766.75	  444.71
      5.9700	  786.00	  563.61	-1766.75	  445.07
      6.0700	  859.00	  563.96	-1766.75	  445.42
      6.1700	  744.00	  564.30	-1766.75	  445.76
      6.2700	  771.00	  564.63	-1766.75	  446.10
      6.3700	  779.00	  564.96	-1766.75	  446.42
      6.4700	  791.00	  565.28	-1766.75	  446.74
      6.5700	  775.00	  565.59	-1766.75	  447.05
      6.6700	  728.00	  565.89	-1766.75	  447.35
      6.7700	  732.00	  566.18	-1766.75	  447.65
      6.8700	  666.00	  566.47	-1766.75	  447.93
      6.9700	  699.00	  566.75	-1766.75	  448.21
      7.0700	  737.00	  567.02	-1766.75	  448.49
      7.1700	  673.00	  567.29	-1766.75	  448.75
      7.2700	  644.00	  567.54	-1766.75	  449.01
      7.3700	  684.00	  567.79	-1766.75	  449.26
      7.4700	  674.00	  568.04	-1766.75	  449.50
      7.5700	  675.00	  568.27	-1766.75	  449.74
      7.6700	  670.00	  568.50	-1766.75	  449.97
      7.7700	  689.00	  568.72	-1766.75	  450.19
      7.8700	  647.00	  568.94	-1766.75	  450.40
      7.9700	  660.00	  569.15	-1766.75	  450.61
      8.0700	  633.00	  569.35	-1766.75	  450.81
      8.1700	  659.00	  569.54	-1766.75	  451.00
      8.2700	  639.00	  569.73	-1766.75	  451.19
      8.3700	  603.00	  569.91	-1766.75	  451.37
      8.4700	  621.00	  570.08	-1766.75	  451.55
      8.5700	  586.00	  570.25	-1766.75	  451.71
      8.6700	  643.00	  570.41	-1766.75	  451.87
      8.7700	  621.00	  570.56	-1766.75	  452.03
      8.8700	  652.00	  570.71	-1766.75	  452.17
      8.9700	  635.00	  570.85	-1766.75	  452.32
      9.0700	  601.00	  570.99	-1766.75	  452.45
      9.1700	  582.00	  571.11	-1766.75	  452.58
      9.2700	  619.00	  571.24	-1766.75	  452.70
      9.3700	  594.00	  571.35	-1766.75	  452.82
      9.4700	  593.00	  571.46	-1766.75	  452.93
      9.5700	  620.00	  571.57	-1766.75	  453.03
      9.6700	  579.00	  571.67	-1766.75	  453.13
      9.7700	  603.00	  571.76	-1766.75	  453.22
      9.8700	  628.00	  571.84	-1766.75	  453.31
      9.9700	  557.00	  571.92	-1766.75	  453.39
     10.0700	  579.00	  572.72	-1760.47	  453.46
     10.1700	  608.00	  572.87	-1731.62	  453.53
     10.2700	  563.00	  573.03	-1776.78	  453.60
     10.3700	  583.00	  573.21	-1756.96	  453.65
     10.4700	  599.00	  573.44	-1741.19	  453.70
     10.5700	  608.00	  573.77	-1732.52	  453.75
     10.6700	  591.00	  574.31	-1750.06	  453.79
     10.7700	  565.00	  575.16	-1776.91	  453.83
     10.8700	  557.00	  576.41	-1786.16	  453.86
     10.9700	  574.00	  578.03	-1770.78	  453.88
     11.0700	  579.00	  579.99	-1767.74	  453.90
     11.1700	  579.00	  582.28	-1770.03	  453.92
     11.2700	  578.00	  584.93	-1773.68	  453.93
     11.3700	  556.00	  588.04	-1798.79	  453.93
     11.4700	  621.00	  591.71	-1737.46	  453.93
     11.5700	  584.00	  596.16	-1778.91	  453.92
     11.6700	  608.00	  601.74	-1760.49	  453.91
     11.7700	  675.00	  609.05	-1700.80	  453.90
     11.8700	  626.00	  619.09	-1759.84	  453.88
     11.9700	  660.00	  632.68	-1739.43	  453.85
     12.0700	  673.00	  648.39	-1742.14	  453.82
     12.1700	  662.00	  659.73	-1764.48	  453.79
     12.2700	  668.00	  656.28	-1755.03	  453.75
     12.3700	  668.00	  635.00	-1733.75	  453.70
     12.4700	  668.00	  609.32	-1708.07	  453.65
     12.5700	  572.00	  591.03	-1785.78	  453.60
     12.6700	  563.00	  581.51	-1785.26	  453.54
     12.7700	  571.00	  577.44	-1773.19	  453.48
     12.8700	  553.00	  575.69	-1789.44	  453.41
     12.9700	  561.00	  574.75	-1780.50	  453.34
     13.0700	  530.00	  574.11	-1810.86	  453.27
     13.1700	  565.00	  573.64	-1775.39	  453.19
     13.2700	  617.00	  573.26	-1723.01	  453.10
     13.3700	  562.00	  572.94	-1777.69	  453.02
     13.4700	  550.00	  572.67	-1789.42	  452.92
     13.5700	  539.00	  572.43	-1800.19	  452.83
     13.6700	  572.00	  572.22	-1766.97	  452.73
     13.7700	  562.00	  572.02	-1776.77	  452.62
     13.8700	  558.00	  571.83	-1780.58	  452.52
     13.9700	  551.00	  571.66	-1787.41	  452.41
     14.0700	  534.00	  571.48	-1804.23	  452.29
     14.1700	  554.00	  571.32	-1784.07	  452.17
     14.2700	  531.00	  571.15	-1806.90	  452.05
     14.3700	  518.00	  570.99	-1819.74	  451.92
     14.4700	  576.00	  570.83	-1761.58	  451.79
     14.5700	  584.00	  570.66	-1753.42	  451.66
     14.6700	  563.00	  570.50	-1774.25	  451.52
     14.7700	  571.00	  570.34	-1766.09	  451.38
     14.8700	  543.00	  570.18	-1793.93	  451.23
     14.9700	  537.00	  570.01	-1799.76	  451.09
     15.0700	  601.00	  569.84	-1735.59	  450.93
     15.1700	  574.00	  569.67	-1762.42	  450.78
     15.2700	  569.00	  569.50	-1767.25	  450.62
     15.3700	  555.00	  569.33	-1781.08	  450.46
     15.4700	  545.00	  569.15	-1790.91	  450.30
     15.5700	  526.00	  568.98	-1809.73	  450.13
     15.6700	  585.00	  568.80	-1750.55	  449.96
     15.7700	  609.00	  568.62	-1726.37	  449.78
     15.8700	  549.00	  568.43	-1786.18	  449.61
     15.9700	  567.00	  568.24	-1767.99	  449.43
     16.0700	  546.00	  568.05	-1788.80	  449.24
     16.1700	  563.00	  567.86	-1771.61	  449.06
     16.2700	  595.00	  567.67	-1739.42	  448.87
     16.3700	  551.00	  567.50	-1783.25	  448.68
     16.4700	  550.00	  567.30	-1784.05	  448.48
     16.5700	  572.00	  567.10	-1761.85	  448.28
     16.6700	  571.00	  566.89	-1762.64	  448.08
     16.7700	  563.00	  566.69	-1770.44	  447.88
     16.8700	  562.00	  566.48	-1771.23	  447.68
     16.9700	  581.00	  566.27	-1752.02	  447.47
     17.0700	  554.00	  566.06	-1778.81	  447.26
     17.1700	  549.00	  565.84	-1783.59	  447.04
     17.2700	  554.00	  565.62	-1778.37	  446.83
     17.3700	  617.00	  565.40	-1715.15	  446.61
     17.4700	  558.00	  565.18	-1773.93	  446.39
     17.5700	  611.00	  564.96	-1720.71	  446.17
     17.6700	  559.00	  564.73	-1772.48	  445.94
     17.7700	  564.00	  564.50	-1767.25	  445.71
     17.8700	  568.00	  564.27	-1763.02	  445.48
     17.9700	  564.00	  564.04	-1766.79	  445.25
     18.0700	  587.00	  563.91	-1743.66	  445.02
     18.1700	  570.00	  563.68	-1760.43	  444.78
     18.2700	  569.00	  563.44	-1761.19	  444.54
     18.3700	  576.00	  563.20	-1753.95	  444.30
     18.4700	  559.00	  562.96	-1770.71	  444.06
     18.5700	  589.00	  562.72	-1740.47	  443.81
     18.6700	  587.00	  562.47	-1742.22	  443.56
     18.7700	  560.00	  562.23	-1768.98	  443.32
     18.8700	  553.00	  561.98	-1775.73	  443.06
     18.9700	  551.00	  561.81	-1777.56	  442.81
     19.0700	  585.00	  561.56	-1743.31	  442.56
     19.1700	  555.00	  561.31	-1773.06	  442.30
     19.2700	  526.00	  561.06	-1801.81	  442.04
     19.3700	  508.00	  560.80	-1819.55	  441.78
     19.4700	  560.00	  560.55	-1767.30	  441.52
     19.5700	  601.00	  560.29	-1726.04	  441.26
     19.6700	  584.00	  560.04	-1742.79	  440.99
     19.7700	  554.00	  559.78	-1772.53	  440.72
     19.8700	  591.00	  559.52	-1735.27	  440.46
     19.9700	  537.00	  559.25	-1789.00	  440.19
     20.0700	  549.00	  558.99	-1776.74	  439.91
     20.1700	  550.00	  558.73	-1775.48	  439.64
     20.2700	  589.00	  558.46	-1736.21	  439.37
     20.3700	  528.00	  558.17	-1796.92	  439.09
     20.4700	  586.00	  557.90	-1738.65	  438.81
     20.5700	  540.00	  557.64	-1784.39	  438.53
     20.6700	  567.00	  557.37	-1757.12	  438.25
     20.7700	  574.00	  557.10	-1749.85	  437.97
     20.8700	  533.00	  556.84	-1790.59	  437.69
     20.9700	  546.00	  556.60	-1777.35	  437.41
     21.0700	  560.00	  556.33	-1763.08	  437.12
     21.1700	  540.00	  556.06	-1782.81	  436.84
     21.2700	  545.00	  555.80	-1777.55	  436.55
     21.3700	  525.00	  555.53	-1797.28	  436.26
     21.4700	  545.00	  555.26	-1777.01	  435.97
     21.5700	  513.00	  554.99	-1808.74	  435.68
     21.6700	  539.00	  554.72	-1782.47	  435.39
     21.7700	  495.00	  554.46	-1826.21	  435.09
     21.8700	  542.00	  554.19	-1778.94	  434.80
     21.9700	  556.00	  553.93	-1764.68	  434.50
     22.0700	  577.00	  553.67	-1743.42	  434.21
     22.1700	  535.00	  553.40	-1785.15	  433.91
     22.2700	  570.00	  553.15	-1749.90	  433.61
     22.3700	  535.00	  552.89	-1784.64	  433.32
     22.4700	  559.00	  552.64	-1760.39	  433.02
     22.5700	  580.00	  552.39	-1739.14	  432.72
     22.6700	  550.00	  552.15	-1768.90	  432.42
     22.7700	  539.00	  551.91	-1779.66	  432.12
     22.8700	  553.00	  551.68	-1765.43	  431.81
     22.9700	  548.00	  551.46	-1770.21	  431.51
     23.0700	  550.00	  551.25	-1768.00	  431.21
     23.1700	  524.00	  551.06	-1793.81	  430.90
     23.2700	  535.00	  550.88	-1782.63	  430.60
     23.3700	  519.00	  550.73	-1798.48	  430.29
     23.4700	  541.00	  550.61	-1776.36	  429.99
     23.5700	  554.00	  550.54	-1763.29	  429.68
     23.6700	  617.00	  550.53	-1700.28	  429.37
     23.7700	  582.00	  550.62	-1735.37	  429.07
     23.8700	  565.00	  551.04	-1752.79	  428.76
     23.9700	  546.00	  551.78	-1772.53	  428.45
     24.0700	  550.00	  553.39	-1770.14	  428.14
     24.1700	  603.00	  556.57	-1720.32	  427.83
     24.2700	  550.00	  562.21	-1778.96	  427.52
     24.3700	  584.00	  571.32	-1754.07	  427.21
     24.4700	  598.00	  585.06	-1753.81	  426.90
     24.5700	  658.00	  603.88	-1712.63	  426.59
     24.6700	  653.00	  624.91	-1738.66	  426.28
     24.7700	  632.00	  639.51	-1774.26	  425.97
     24.8700	  589.00	  636.06	-1813.81	  425.66
     24.9700	  678.00	  613.32	-1702.07	  425.35
     25.0700	  624.00	  586.19	-1728.94	  425.04
     25.1700	  604.00	  566.39	-1729.14	  424.73
     25.2700	  618.00	  555.63	-1704.38	  424.42
     25.3700	  555.00	  550.80	-1762.55	  424.11
     25.4700	  561.00	  548.69	-1754.44	  423.80
     25.5700	  591.00	  547.58	-1723.33	  423.48
     25.6700	  509.00	  546.86	-1804.61	  423.17
     25.7700	  562.00	  546.34	-1751.09	  422.86
     25.8700	  547.00	  545.94	-1765.69	  422.55
     25.9700	  580.00	  545.65	-1732.40	  422.24
     26.0700	  559.00	  545.44	-1753.19	  421.93
     26.1700	  567.00	  545.30	-1745.05	  421.62
     26.2700	  553.00	  545.24	-1758.99	  421.30
     26.3700	  580.00	  545.26	-1732.01	  420.99
     26.4700	  536.00	  545.37	-1776.12	  420.68
     26.5700	  542.00	  545.57	-1770.32	  420.37
     26.6700	  541.00	  545.88	-1771.63	  420.06
     26.7700	  588.00	  546.34	-1725.09	  419.75
     26.8700	  523.00	  546.98	-1790.73	  419.44
     26.9700	  544.00	  547.85	-1770.60	  419.13
     27.0700	  573.00	  549.03	-1742.78	  418.82
     27.1700	  559.00	  550.67	-1758.42	  418.51
     27.2700	  545.00	  553.02	-1774.77	  418.20
     27.3700	  570.00	  556.63	-1753.38	  417.90
     27.4700	  538.00	  562.54	-1791.29	  417.59
     27.5700	  549.00	  572.63	-1790.38	  417.28
     27.6700	  611.00	  589.88	-1745.63	  416.97
     27.7700	  591.00	  618.15	-1793.90	  416.67
     27.8700	  570.00	  660.79	-1857.54	  416.36
     27.9700	  696.00	  717.98	-1788.73	  416.05
     28.0700	  796.00	  783.06	-1753.81	  415.75
     28.1700	  951.00	  839.49	-1655.24	  415.44
     28.2700	  947.00	  862.37	-1682.12	  415.14
     28.3700	  918.00	  837.02	-1685.77	  414.84
     28.4700	  839.00	  786.63	-1714.38	  414.53
     28.5700	  716.00	  749.36	-1800.11	  414.23
     28.6700	  698.00	  742.68	-1811.43	  413.93
     28.7700	  766.00	  762.07	-1762.82	  413.63
     28.8700	  755.00	  787.57	-1799.32	  413.32
     28.9700	  767.00	  791.21	-1790.96	  413.02
     29.0700	  785.00	  755.32	-1737.07	  412.72
     29.1700	  709.00	  694.91	-1752.66	  412.42
     29.2700	  629.00	  637.65	-1775.40	  412.13
     29.3700	  604.00	  596.60	-1759.35	  411.83
     29.4700	  633.00	  571.98	-1705.73	  411.53
     29.5700	  579.00	  558.78	-1746.53	  411.24
     29.6700	  624.00	  551.82	-1694.57	  410.94
     29.7700	  575.00	  547.86	-1739.61	  410.65
     29.8700	  566.00	  545.36	-1746.11	  410.35
     29.9700	  579.00	  543.76	-1731.51	  410.06
     30.0700	  563.00	  542.90	-1746.65	  409.77
     30.1700	  524.00	  542.94	-1785.69	  409.47
     30.2700	  587.00	  544.40	-1724.15	  409.18
     30.3700	  543.00	  548.27	-1772.02	  408.89
     30.4700	  576.00	  556.11	-1746.86	  408.61
     30.5700	  565.00	  569.58	-1771.33	  408.32
     30.6700	  562.00	  589.21	-1793.96	  408.03
     30.7700	  594.00	  612.60	-1785.35	  407.74
     30.8700	  653.00	  633.04	-1746.79	  407.46
     30.9700	  625.00	  640.24	-1781.99	  407.17
     31.0700	  602.00	  627.19	-1791.94	  406.89
     31.1700	  550.00	  600.79	-1817.54	  406.61
     31.2700	  539.00	  574.48	-1802.23	  406.33
     31.3700	  539.00	  555.20	-1782.95	  406.05
     31.4700	  541.00	  543.63	-1769.38	  405.77
     31.5700	  531.00	  537.53	-1773.28	  405.49
     31.6700	  561.00	  534.43	-1740.18	  405.21
     31.7700	  605.00	  532.71	-1694.46	  404.94
     31.8700	  549.00	  531.62	-1749.37	  404.66
     31.9700	  566.00	  530.86	-1731.61	  404.39
     32.0700	  520.00	  530.32	-1777.07	  404.11
     32.1700	  547.00	  529.94	-1749.69	  403.84
     32.2700	  581.00	  529.72	-1715.47	  403.57
     32.3700	  572.00	  529.63	-1724.38	  403.30
     32.4700	  525.00	  529.70	-1771.45	  403.03
     32.5700	  539.00	  529.92	-1757.67	  402.77
     32.6700	  543.00	  530.34	-1754.09	  402.50
     32.7700	  582.00	  530.98	-1715.73	  402.23
     32.8700	  548.00	  531.92	-1750.67	  401.97
     32.9700	  532.00	  533.28	-1768.03	  401.71
     33.0700	  543.00	  535.24	-1758.99	  401.45
     33.1700	  541.00	  538.26	-1764.01	  401.19
     33.2700	  552.00	  543.36	-1758.11	  400.93
     33.3700	  530.00	  552.79	-1789.54	  400.67
     33.4700	  528.00	  571.05	-1809.80	  400.41
     33.5700	  569.00	  605.32	-1803.07	  400.16
     33.6700	  619.00	  664.10	-1811.85	  399.90
     33.7700	  779.00	  751.50	-1739.25	  399.65
     33.8700	  879.00	  858.25	-1746.00	  399.40
     33.9700	 1063.00	  955.48	-1659.23	  399.15
     34.0700	 1069.00	  998.51	-1696.26	  398.90
     34.1700	 1060.00	  954.49	-1661.24	  398.65
     34.2700	  888.00	  846.42	-1725.17	  398.41
     34.3700	  758.00	  730.75	-1739.50	  398.16
     34.4700	  656.00	  642.01	-1752.76	  397.92
     34.5700	  581.00	  587.03	-1772.78	  397.68
     34.6700	  529.00	  557.81	-1795.56	  397.44
     34.7700	  542.00	  543.41	-1768.16	  397.20
     34.8700	  540.00	  535.99	-1762.74	  396.96
     34.9700	  552.00	  531.56	-1746.31	  396.72
     35.0700	  568.00	  528.50	-1727.25	  396.49
     35.1700	  554.00	  526.18	-1738.93	  396.25
     35.2700	  520.00	  524.34	-1771.09	  396.02
     35.3700	  502.00	  522.86	-1787.61	  395.79
     35.4700	  509.00	  521.62	-1779.37	  395.56
     35.5700	  539.00	  520.56	-1748.31	  395.33
     35.6700	  525.00	  519.66	-1761.41	  395.11
     35.7700	  493.00	  518.87	-1792.62	  394.88
     35.8700	  534.00	  518.18	-1750.93	  394.66
     35.9700	  531.00	  517.56	-1753.31	  394.44
     36.0700	  512.00	  517.49	-1772.24	  394.22
     36.1700	  519.00	  516.99	-1764.74	  394.00
     36.2700	  496.00	  516.55	-1787.30	  393.78
     36.3700	  484.00	  516.14	-1798.89	  393.56
     36.4700	  514.00	  515.78	-1768.53	  393.35
     36.5700	  486.00	  515.45	-1796.20	  393.14
     36.6700	  474.00	  515.16	-1807.91	  392.92
     36.7700	  519.00	  514.92	-1762.67	  392.71
     36.8700	  543.00	  514.76	-1738.51	  392.51
     36.9700	  563.00	  514.72	-1718.47	  392.30
     37.0700	  481.00	  514.97	-1800.72	  392.09
     37.1700	  510.00	  515.80	-1772.55	  391.89
     37.2700	  502.00	  517.65	-1782.40	  391.69
     37.3700	  561.00	  520.98	-1726.73	  391.49
     37.4700	  540.00	  525.81	-1752.56	  391.29
     37.5700	  545.00	  531.27	-1753.02	  391.09
     37.6700	  516.00	  535.51	-1786.26	  390.90
     37.7700	  525.00	  536.48	-1778.23	  390.70
     37.8700	  526.00	  533.77	-1774.52	  390.51
     37.9700	  539.00	  529.17	-1756.92	  390.32
     38.0700	  482.00	  524.39	-1809.14	  390.13
     38.1700	  510.00	  520.13	-1776.88	  389.94
     38.2700	  542.00	  516.67	-1741.42	  389.75
     38.3700	  458.00	  514.14	-1822.89	  389.57
     38.4700	  510.00	  512.43	-1769.18	  389.39
     38.5700	  483.00	  511.34	-1795.09	  389.20
     38.6700	  506.00	  510.56	-1771.31	  389.02
     38.7700	  509.00	  510.11	-1767.86	  388.85
     38.8700	  497.00	  509.78	-1779.53	  388.67
     38.9700	  484.00	  509.51	-1792.26	  388.50
     39.0700	  508.00	  509.19	-1767.94	  388.32
     39.1700	  491.00	  508.98	-1784.73	  388.15
     39.2700	  486.00	  508.78	-1789.53	  387.98
     39.3700	  522.00	  508.59	-1753.34	  387.81
     39.4700	  501.00	  508.42	-1774.17	  387.65
     39.5700	  516.00	  508.26	-1759.01	  387.48
     39.6700	  494.00	  508.10	-1780.85	  387.32
     39.7700	  552.00	  508.08	-1722.83	  387.16
     39.8700	  539.00	  507.94	-1735.69	  387.00
     39.9700	  465.00	  507.82	-1809.57	  386.84
     40.0700	  499.00	  507.70	-1775.45	  386.68
     40.1700	  520.00	  507.60	-1754.35	  386.53
     40.2700	  518.00	  507.50	-1756.25	  386.37
     40.3700	  524.00	  507.42	-1750.17	  386.22
     40.4700	  517.00	  507.35	-1757.10	  386.07
     40.5700	  525.00	  507.29	-1749.04	  385.92
     40.6700	  501.00	  507.25	-1773.00	  385.78
     40.7700	  510.00	  507.23	-1763.98	  385.63
     40.8700	  515.00	  507.22	-1758.97	  385.49
     40.9700	  515.00	  507.25	-1759.00	  385.35
     41.0700	  506.00	  507.27	-1768.02	  385.21
     41.1700	  518.00	  507.36	-1756.11	  385.07
     41.2700	  580.00	  507.50	-1694.25	  384.94
     41.3700	  503.00	  507.70	-1771.45	  384.80
     41.4700	  510.00	  507.98	-1764.73	  384.67
     41.5700	  488.00	  508.37	-1787.12	  384.54
     41.6700	  510.00	  509.34	-1766.09	  384.41
     41.7700	  523.00	  510.18	-1753.93	  384.28
     41.8700	  497.00	  511.60	-1781.35	  384.15
     41.9700	  507.00	  514.29	-1774.04	  384.03
     42.0700	  490.00	  519.61	-1796.36	  383.91
     42.1700	  519.00	  529.80	-1777.55	  383.79
     42.2700	  541.00	  547.54	-1773.29	  383.67
     42.3700	  579.00	  574.49	-1762.24	  383.55
     42.4700	  573.00	  608.62	-1802.37	  383.43
     42.5700	  619.00	  642.46	-1790.21	  383.32
     42.6700	  566.00	  663.61	-1864.36	  383.21
     42.7700	  565.00	  660.86	-1862.61	  383.10
     42.8700	  599.00	  635.02	-1802.77	  382.99
     42.9700	  527.00	  598.92	-1838.67	  382.88
     43.0700	  536.00	  565.36	-1796.11	  382.78
     43.1700	  527.00	  540.52	-1780.27	  382.67
     43.2700	  545.00	  525.05	-1746.80	  382.57
     43.3700	  475.00	  516.61	-1808.36	  382.47
     43.4700	  517.00	  512.36	-1762.11	  382.37
     43.5700	  550.00	  510.19	-1726.94	  382.28
     43.6700	  507.00	  508.96	-1768.71	  382.18
     43.7700	  477.00	  508.33	-1798.08	  382.09
     43.8700	  500.00	  507.75	-1774.50	  382.00
     43.9700	  530.00	  507.31	-1744.06	  381.91
     44.0700	  521.00	  506.97	-1752.72	  381.82
     44.1700	  495.00	  506.71	-1778.46	  381.73
     44.2700	  482.00	  506.53	-1791.28	  381.65
     44.3700	  496.00	  506.25	-1777.00	  381.56
     44.4700	  519.00	  506.13	-1753.88	  381.48
     44.5700	  502.00	  506.05	-1770.80	  381.40
     44.6700	  498.00	  506.00	-1774.75	  381.32
     44.7700	  500.00	  505.98	-1772.73	  381.25
     44.8700	  522.00	  505.98	-1750.73	  381.17
     44.9700	  496.00	  506.00	-1776.75	  381.10
     45.0700	  535.00	  506.04	-1737.79	  381.03
     45.1700	  512.00	  506.11	-1760.86	  380.96
     45.2700	  510.00	  506.19	-1762.94	  380.89
     45.3700	  519.00	  506.48	-1754.23	  380.83
     45.4700	  529.00	  506.61	-1744.36	  380.76
     45.5700	  493.00	  506.77	-1780.52	  380.70
     45.6700	  528.00	  506.94	-1745.69	  380.64
     45.7700	  550.00	  507.15	-1723.90	  380.58
     45.8700	  516.00	  507.38	-1758.13	  380.52
     45.9700	  490.00	  507.64	-1784.39	  380.46
     46.0700	  491.00	  507.94	-1783.69	  380.41
     46.1700	  499.00	  508.27	-1776.02	  380.36
     46.2700	  521.00	  508.65	-1754.40	  380.31
     46.3700	  518.00	  509.08	-1757.83	  380.26
     46.4700	  531.00	  509.56	-1745.31	  380.21
     46.5700	  494.00	  510.12	-1782.87	  380.16
     46.6700	  483.00	  510.75	-1794.50	  380.12
     46.7700	  536.00	  511.50	-1742.25	  380.08
     46.8700	  511.00	  512.42	-1768.17	  380.03
     46.9700	  514.00	  513.62	-1766.37	  379.99
     47.0700	  512.00	  515.38	-1770.13	  379.96
     47.1700	  542.00	  518.26	-1743.01	  379.92
     47.2700	  554.00	  523.25	-1736.00	  379.89
     47.3700	  545.00	  531.64	-1753.39	  379.85
     47.4700	  523.00	  544.77	-1788.52	  379.82
     47.5700	  588.00	  562.80	-1741.55	  379.79
     47.6700	  564.00	  583.96	-1786.71	  379.76
     47.7700	  617.00	  603.69	-1753.44	  379.74
     47.8700	  620.00	  615.45	-1762.20	  379.71
     47.9700	  625.00	  614.25	-1756.00	  379.69
     48.0700	  593.00	  601.33	-1775.08	  379.67
     48.1700	  574.00	  583.20	-1775.95	  379.64
     48.2700	  524.00	  566.14	-1808.89	  379.63
     48.3700	  529.00	  553.68	-1791.43	  379.61
     48.4700	  503.00	  546.75	-1810.50	  379.59
     48.5700	  573.00	  544.53	-1738.28	  379.58
     48.6700	  489.00	  545.75	-1823.50	  379.57
     48.7700	  543.00	  549.38	-1773.13	  379.56
     48.8700	  543.00	  554.92	-1778.67	  379.55
     48.9700	  569.00	  562.41	-1760.16	  379.54
     49.0700	  579.00	  572.54	-1760.29	  379.53
     49.1700	  594.00	  586.98	-1759.73	  379.53
     49.2700	  634.00	  609.25	-1742.00	  379.52
     49.3700	  695.00	  646.07	-1717.82	  379.52
     49.4700	  721.00	  708.83	-1754.58	  379.52
     49.5700	  750.00	  813.87	-1830.62	  379.52
     49.6700	  955.00	  980.17	-1791.92	  379.53
     49.7700	 1124.00	 1221.08	-1863.83	  379.53
     49.8700	 1518.00	 1535.13	-1783.88	  379.54
     49.9700	 1814.00	 1892.61	-1845.36	  379.54
     50.0700	 2306.00	 2226.79	-1687.54	  379.55
     50.1700	 2570.00	 2438.86	-1635.61	  379.56
     50.2700	 2484.00	 2441.27	-1724.02	  379.58
     50.3700	 2325.00	 2230.64	-1672.39	  379.59
     50.4700	 1833.00	 1895.13	-1828.88	  379.60
     50.5700	 1383.00	 1538.24	-1921.99	  379.62
     50.6700	 1093.00	 1228.17	-1901.92	  379.64
     50.7700	  827.00	  994.48	-1934.23	  379.66
     50.8700	  685.00	  838.14	-1919.89	  379.68
     50.9700	  639.00	  743.46	-1871.21	  379.70
     51.0700	  609.00	  688.99	-1846.74	  379.72
     51.1700	  593.00	  655.58	-1829.33	  379.75
     51.2700	  581.00	  630.74	-1816.49	  379.77
     51.3700	  576.00	  609.41	-1800.16	  379.80
     51.4700	  602.00	  590.92	-1755.67	  379.83
     51.5700	  552.00	  575.81	-1790.56	  379.86
     51.6700	  573.00	  564.39	-1758.14	  379.89
     51.7700	  525.00	  556.33	-1798.08	  379.93
     51.8700	  512.00	  550.90	-1805.65	  379.96
     51.9700	  579.00	  547.34	-1735.09	  380.00
     52.0700	  532.00	  545.04	-1779.79	  380.03
     52.1700	  574.00	  543.69	-1736.44	  380.07
     52.2700	  585.00	  543.20	-1724.95	  380.11
     52.3700	  571.00	  543.87	-1739.62	  380.15
     52.4700	  553.00	  545.69	-1759.44	  380.20
     52.5700	  566.00	  549.83	-1750.58	  380.24
     52.6700	  566.00	  558.45	-1759.20	  380.28
     52.7700	  599.00	  575.54	-1743.29	  380.33
     52.8700	  631.00	  607.46	-1743.21	  380.38
     52.9700	  639.00	  662.20	-1789.95	  380.43
     53.0700	  832.00	  746.66	-1681.41	  380.48
     53.1700	  981.00	  861.79	-1647.54	  380.53
     53.2700	 1092.00	  997.35	-1672.10	  380.58
     53.3700	 1124.00	 1128.61	-1771.36	  380.64
     53.4700	 1238.00	 1218.86	-1747.61	  380.69
     53.5700	 1129.00	 1233.59	-1871.34	  380.75
     53.6700	 1086.00	 1165.76	-1846.51	  380.81
     53.7700	  952.00	 1043.20	-1857.95	  380.87
     53.8700	  863.00	  905.18	-1808.93	  380.93
     53.9700	  734.00	  781.39	-1814.14	  380.99
     54.0700	  644.00	  686.67	-1809.42	  381.05
     54.1700	  640.00	  623.16	-1749.91	  381.12
     54.2700	  582.00	  585.14	-1769.89	  381.18
     54.3700	  577.00	  564.50	-1754.25	  381.25
     54.4700	  611.00	  554.07	-1709.82	  381.31
     54.5700	  554.00	  549.06	-1761.81	  381.38
     54.6700	  539.00	  546.82	-1774.57	  381.45
     54.7700	  571.00	  546.06	-1741.81	  381.52
     54.8700	  614.00	  546.25	-1699.00	  381.60
     54.9700	  523.00	  547.18	-1790.93	  381.67
     55.0700	  543.00	  548.80	-1772.55	  381.74
     55.1700	  624.00	  551.12	-1693.87	  381.82
     55.2700	  567.00	  554.20	-1753.95	  381.90
     55.3700	  562.00	  558.16	-1762.91	  381.97
     55.4700	  578.00	  563.23	-1751.98	  382.05
     55.5700	  570.00	  569.75	-1766.50	  382.13
     55.6700	  619.00	  578.49	-1726.24	  382.21
     55.7700	  596.00	  591.06	-1761.81	  382.30
     55.8700	  582.00	  610.70	-1795.45	  382.38
     55.9700	  621.00	  643.59	-1789.34	  382.46
     56.0700	  647.00	  700.22	-1819.97	  382.55
     56.1700	  768.00	  796.09	-1794.83	  382.63
     56.2700	  876.00	  949.86	-1840.61	  382.72
     56.3700	 1122.00	 1178.18	-1822.93	  382.81
     56.4700	 1424.00	 1486.46	-1829.21	  382.90
     56.5700	 1818.00	 1858.37	-1807.12	  382.99
     56.6700	 2172.00	 2247.86	-1842.61	  383.08
     56.7700	 2453.00	 2576.79	-1890.54	  383.17
     56.8700	 2685.00	 2750.13	-1831.88	  383.26
     56.9700	 2668.00	 2703.35	-1802.10	  383.36
     57.0700	 2391.00	 2454.60	-1830.35	  383.45
     57.1700	 2132.00	 2089.77	-1724.52	  383.55
     57.2700	 1642.00	 1701.77	-1826.52	  383.65
     57.3700	 1302.00	 1355.81	-1820.56	  383.74
     57.4700	 1024.00	 1084.61	-1827.36	  383.84
     57.5700	  895.00	  894.15	-1765.90	  383.94
     57.6700	  760.00	  773.29	-1780.04	  384.04
     57.7700	  733.00	  704.34	-1738.09	  384.14
     57.8700	  702.00	  670.81	-1735.56	  384.25
     57.9700	  621.00	  661.28	-1807.03	  384.35
     58.0700	  671.00	  669.83	-1765.58	  384.45
     58.1700	  687.00	  694.56	-1774.31	  384.56
     58.2700	  713.00	  735.61	-1789.36	  384.66
     58.3700	  818.00	  793.23	-1741.98	  384.77
     58.4700	  909.00	  866.08	-1723.83	  384.88
     58.5700	 1055.00	  949.64	-1661.39	  384.98
     58.6700	 1275.00	 1035.72	-1527.47	  385.09
     58.7700	 1379.00	 1114.68	-1502.43	  385.20
     58.8700	 1472.00	 1179.97	-1474.72	  385.31
     58.9700	 1553.00	 1228.10	-1441.85	  385.42
     59.0700	 1607.00	 1254.37	-1414.12	  385.54
     59.1700	 1576.00	 1254.49	-1445.24	  385.65
     59.2700	 1458.00	 1232.01	-1540.76	  385.76
     59.3700	 1365.00	 1198.89	-1600.64	  385.88
     59.4700	 1239.00	 1167.43	-1695.18	  385.99
     59.5700	 1207.00	 1145.99	-1705.74	  386.11
     59.6700	 1109.00	 1141.90	-1799.65	  386.22
     59.7700	 1175.00	 1163.94	-1755.69	  386.34
     59.8700	 1207.00	 1217.97	-1777.72	  386.46
     59.9700	 1356.00	 1300.44	-1711.19	  386.57
     60.0700	 1518.00	 1395.11	-1643.86	  386.69
     60.1700	 1513.00	 1473.70	-1727.45	  386.81
     60.2700	 1629.00	 1502.93	-1640.68	  386.93
     60.3700	 1466.00	 1461.83	-1762.58	  387.05
     60.4700	 1384.00	 1356.71	-1739.46	  387.17
     60.5700	 1306.00	 1214.62	-1675.37	  387.30
     60.6700	 1054.00	 1064.82	-1777.57	  387.42
     60.7700	  957.00	  928.80	-1738.55	  387.54
     60.8700	  790.00	  818.71	-1795.46	  387.66
     60.9700	  710.00	  738.65	-1795.40	  387.79
     61.0700	  680.00	  687.38	-1774.13	  387.91
     61.1700	  647.00	  661.47	-1781.22	  388.04
     61.2700	  634.00	  658.12	-1790.87	  388.16
     61.3700	  591.00	  676.90	-1852.65	  388.29
     61.4700	  684.00	  719.97	-1802.72	  388.42
     61.5700	  772.00	  790.79	-1785.54	  388.54
     61.6700	  864.00	  891.55	-1794.30	  388.67
     61.7700	  918.00	 1020.12	-1868.87	  388.80
     61.8700	 1073.00	 1167.17	-1860.92	  388.93
     61.9700	 1257.00	 1314.40	-1824.15	  389.06
     62.0700	 1405.00	 1434.68	-1796.43	  389.19
     62.1700	 1394.00	 1497.08	-1869.83	  389.32
     62.2700	 1291.00	 1481.29	-1957.04	  389.45
     62.3700	 1318.00	 1392.06	-1840.81	  389.58
     62.4700	 1241.00	 1255.62	-1781.37	  389.71
     62.5700	 1012.00	 1102.72	-1857.47	  389.84
     62.6700	  928.00	  957.48	-1796.23	  389.97
     62.7700	  731.00	  834.50	-1870.25	  390.10
     62.8700	  687.00	  739.77	-1819.52	  390.24
     62.9700	  604.00	  672.59	-1835.34	  390.37
     63.0700	  558.00	  628.29	-1837.04	  390.50
     63.1700	  585.00	  600.88	-1782.63	  390.64
     63.2700	  592.00	  584.87	-1759.62	  390.77
     63.3700	  555.00	  576.22	-1787.97	  390.91
     63.4700	  589.00	  572.57	-1750.32	  391.04
     63.5700	  567.00	  573.06	-1772.81	  391.17
     63.6700	  600.00	  578.12	-1744.87	  391.31
     63.7700	  588.00	  589.22	-1767.97	  391.45
     63.8700	  630.00	  608.54	-1745.29	  391.58
     63.9700	  652.00	  638.41	-1753.16	  391.72
     64.0700	  742.00	  680.45	-1705.20	  391.85
     64.1700	  776.00	  734.58	-1725.33	  391.99
     64.2700	  817.00	  797.93	-1747.68	  392.13
     64.3700	  903.00	  864.18	-1727.93	  392.26
     64.4700	  935.00	  923.63	-1755.38	  392.40
     64.5700	 1053.00	  964.39	-1678.14	  392.54
     64.6700	 1011.00	  978.45	-1734.20	  392.67
     64.7700	 1042.00	  963.27	-1688.02	  392.81
     64.8700	 1011.00	  924.12	-1679.87	  392.95
     64.9700	  943.00	  870.27	-1694.02	  393.09
     65.0700	  816.00	  811.80	-1762.55	  393.22
     65.1700	  785.00	  756.75	-1738.50	  393.36
     65.2700	  697.00	  709.60	-1779.35	  393.50
     65.3700	  694.00	  671.50	-1744.25	  393.64
     65.4700	  673.00	  641.52	-1735.27	  393.77
     65.5700	  619.00	  618.15	-1765.90	  393.91
     65.6700	  589.00	  600.14	-1777.89	  394.05
     65.7700	  587.00	  586.52	-1766.27	  394.19
     65.8700	  574.00	  576.57	-1769.32	  394.33
     65.9700	  550.00	  569.70	-1786.45	  394.47
     66.0700	  600.00	  565.43	-1732.18	  394.60
     66.1700	  534.00	  563.31	-1796.06	  394.74
     66.2700	  576.00	  562.94	-1753.69	  394.88
     66.3700	  540.00	  564.00	-1790.75	  395.02
     66.4700	  585.00	  566.33	-1748.08	  395.16
     66.5700	  556.00	  569.95	-1780.70	  395.29
     66.6700	  535.00	  575.22	-1806.97	  395.43
     66.7700	  547.00	  583.07	-1802.82	  395.57
     66.8700	  545.00	  594.96	-1816.71	  395.71
     66.9700	  616.00	  613.90	-1764.65	  395.85
     67.0700	  599.00	  644.55	-1812.30	  395.98
     67.1700	  675.00	  693.68	-1785.43	  396.12
     67.2700	  687.00	  769.96	-1849.71	  396.26
     67.3700	  841.00	  882.76	-1808.51	  396.40
     67.4700	 1086.00	 1040.24	-1720.99	  396.53
     67.5700	 1262.00	 1245.43	-1750.18	  396.67
     67.6700	 1501.00	 1493.09	-1758.84	  396.81
     67.7700	 1736.00	 1766.24	-1796.99	  396.95
     67.8700	 2022.00	 2035.42	-1780.17	  397.08
     67.9700	 2197.00	 2259.40	-1829.15	  397.22
     68.0700	 2519.00	 2392.13	-1639.88	  397.35
     68.1700	 2399.00	 2399.57	-1767.32	  397.49
     68.2700	 2326.00	 2279.58	-1720.33	  397.63
     68.3700	 2051.00	 2063.55	-1779.30	  397.76
     68.4700	 1945.00	 1797.42	-1619.17	  397.90
     68.5700	 1479.00	 1523.42	-1811.17	  398.03
     68.6700	 1297.00	 1272.43	-1742.18	  398.17
     68.7700	 1038.00	 1062.71	-1791.46	  398.30
     68.8700	  873.00	  900.54	-1794.29	  398.44
     68.9700	  770.00	  783.63	-1780.38	  398.57
     69.0700	  749.00	  704.41	-1722.16	  398.70
     69.1700	  647.00	  653.29	-1773.04	  398.84
     69.2700	  611.00	  621.52	-1777.27	  398.97
     69.3700	  638.00	  602.08	-1730.83	  399.10
     69.4700	  557.00	  590.09	-1799.84	  399.23
     69.5700	  600.00	  582.47	-1749.22	  399.37
     69.6700	  543.00	  577.42	-1801.17	  399.50
     69.7700	  550.00	  573.96	-1790.71	  399.63
     69.8700	  564.00	  571.58	-1774.33	  399.76
     69.9700	  593.00	  570.03	-1743.78	  399.89
     70.0700	  596.00	  569.19	-1739.94	  400.02
     70.1700	  587.00	  569.02	-1748.77	  400.15
     70.2700	  552.00	  569.53	-1784.28	  400.28
     70.3700	  597.00	  570.84	-1740.59	  400.41
     70.4700	  571.00	  573.15	-1768.90	  400.53
     70.5700	  568.00	  576.93	-1775.68	  400.66
     70.6700	  617.00	  583.04	-1732.79	  400.79
     70.7700	  603.00	  593.00	-1756.75	  400.92
     70.8700	  589.00	  609.25	-1787.00	  401.04
     70.9700	  606.00	  635.47	-1796.22	  401.17
     71.0700	  683.00	  676.63	-1760.38	  401.29
     71.1700	  749.00	  738.74	-1756.49	  401.42
     71.2700	  796.00	  828.00	-1798.75	  401.54
     71.3700	  952.00	  949.22	-1763.97	  401.67
     71.4700	 1075.00	 1103.76	-1795.51	  401.79
     71.5700	 1228.00	 1288.23	-1826.98	  401.91
     71.6700	 1457.00	 1489.67	-1799.42	  402.03
     71.7700	 1631.00	 1689.77	-1825.52	  402.15
     71.8700	 1829.00	 1862.36	-1800.11	  402.27
     71.9700	 1944.00	 1977.59	-1800.34	  402.39
     72.0700	 1909.00	 2010.60	-1868.35	  402.51
     72.1700	 1930.00	 1953.12	-1789.87	  402.63
     72.2700	 1913.00	 1819.81	-1673.56	  402.75
     72.3700	 1748.00	 1637.68	-1656.43	  402.87
     72.4700	 1482.00	 1436.14	-1720.89	  402.99
     72.5700	 1363.00	 1239.42	-1643.17	  403.10
     72.6700	 1102.00	 1064.17	-1728.92	  403.22
     72.7700	 1105.00	  919.33	-1581.08	  403.33
     72.8700	  998.00	  807.12	-1575.87	  403.45
     72.9700	  864.00	  724.99	-1627.74	  403.56
     73.0700	  828.00	  667.70	-1606.45	  403.67
     73.1700	  753.00	  629.23	-1642.98	  403.78
     73.2700	  708.00	  604.01	-1662.76	  403.90
     73.3700	  646.00	  587.59	-1708.34	  404.01
     73.4700	  635.00	  576.83	-1708.58	  404.12
     73.5700	  616.00	  569.64	-1720.40	  404.22
     73.6700	  607.00	  564.77	-1724.52	  404.33
     73.7700	  629.00	  561.47	-1699.22	  404.44
     73.8700	  561.00	  559.34	-1765.09	  404.55
     73.9700	  587.00	  558.15	-1737.90	  404.65
     74.0700	  543.00	  557.70	-1781.45	  404.76
     74.1700	  578.00	  557.84	-1746.59	  404.86
     74.2700	  596.00	  558.37	-1729.12	  404.97
     74.3700	  633.00	  559.06	-1692.81	  405.07
     74.4700	  612.00	  559.63	-1714.38	  405.17
     74.5700	  618.00	  559.79	-1708.54	  405.27
     74.6700	  587.00	  559.33	-1739.08	  405.37
     74.7700	  607.00	  558.19	-1717.94	  405.47
     74.8700	  663.00	  556.53	-1660.28	  405.57
     74.9700	  596.00	  554.61	-1725.36	  405.67
     75.0700	  605.00	  552.71	-1714.46	  405.76
     75.1700	  568.00	  551.25	-1750.00	  405.86
     75.2700	  583.00	  550.46	-1734.21	  405.95
     75.3700	  566.00	  550.83	-1751.58	  406.05
     75.4700	  548.00	  552.72	-1771.47	  406.14
     75.5700	  524.00	  556.52	-1799.27	  406.23
     75.6700	  569.00	  562.93	-1760.68	  406.32
     75.7700	  592.00	  572.33	-1747.08	  406.41
     75.8700	  603.00	  585.02	-1748.77	  406.50
     75.9700	  609.00	  601.02	-1758.77	  406.59
     76.0700	  671.00	  619.83	-1715.58	  406.67
     76.1700	  680.00	  640.37	-1727.12	  406.76
     76.2700	  654.00	  660.94	-1773.69	  406.85
     76.3700	  700.00	  679.25	-1746.00	  406.93
     76.4700	  673.00	  692.66	-1786.41	  407.01
     76.5700	  744.00	  698.78	-1721.53	  407.09
     76.6700	  685.00	  696.34	-1778.09	  407.18
     76.7700	  683.00	  685.83	-1769.58	  407.26
     76.8700	  627.00	  669.06	-1808.81	  407.33
     76.9700	  638.00	  649.00	-1777.75	  407.41
     77.0700	  617.00	  627.95	-1777.70	  407.49
     77.1700	  600.00	  607.90	-1774.65	  407.56
     77.2700	  593.00	  590.19	-1763.94	  407.64
     77.3700	  584.00	  575.53	-1758.28	  407.71
     77.4700	  570.00	  564.09	-1760.84	  407.78
     77.5700	  556.00	  555.64	-1766.39	  407.86
     77.6700	  556.00	  549.69	-1760.44	  407.93
     77.7700	  506.00	  545.67	-1806.42	  407.99
     77.8700	  547.00	  543.05	-1762.80	  408.06
     77.9700	  504.00	  541.39	-1804.14	  408.13
     78.0700	  568.00	  540.35	-1739.10	  408.19
     78.1700	  508.00	  539.71	-1798.46	  408.26
     78.2700	  537.00	  539.32	-1769.07	  408.32
     78.3700	  532.00	  539.09	-1773.84	  408.38
     78.4700	  529.00	  538.98	-1776.73	  408.44
     78.5700	  538.00	  538.96	-1767.71	  408.50
     78.6700	  529.00	  539.03	-1776.78	  408.56
     78.7700	  510.00	  539.20	-1795.95	  408.62
     78.8700	  533.00	  539.50	-1773.25	  408.68
     78.9700	  488.00	  539.96	-1818.71	  408.73
     79.0700	  506.00	  540.62	-1801.37	  408.78
     79.1700	  553.00	  541.35	-1755.10	  408.84
     79.2700	  530.00	  542.58	-1779.33	  408.89
     79.3700	  576.00	  544.18	-1734.93	  408.94
     79.4700	  513.00	  546.21	-1799.96	  408.99
     79.5700	  536.00	  548.73	-1779.48	  409.03
     79.6700	  514.00	  551.82	-1804.57	  409.08
     79.7700	  530.00	  555.54	-1792.29	  409.13
     79.8700	  533.00	  560.03	-1793.78	  409.17
     79.9700	  530.00	  565.43	-1802.18	  409.21
     80.0700	  528.00	  571.97	-1810.72	  409.25
     80.1700	  551.00	  579.96	-1795.71	  409.29
     80.2700	  537.00	  589.74	-1819.49	  409.33
     80.3700	  571.00	  601.67	-1797.42	  409.37
     80.4700	  566.00	  615.92	-1816.67	  409.40
     80.5700	  586.00	  632.44	-1813.19	  409.44
     80.6700	  625.00	  650.80	-1792.55	  409.47
     80.7700	  630.00	  670.22	-1806.97	  409.50
     80.8700	  672.00	  689.51	-1784.26	  409.53
     80.9700	  738.00	  707.26	-1736.01	  409.56
     81.0700	  763.00	  722.06	-1725.81	  409.59
     81.1700	  695.00	  732.72	-1804.47	  409.62
     81.2700	  762.00	  738.36	-1743.11	  409.64
     81.3700	  778.00	  738.52	-1727.27	  409.67
     81.4700	  815.00	  733.24	-1684.99	  409.69
     81.5700	  767.00	  723.08	-1722.83	  409.71
     81.6700	  764.00	  708.94	-1711.69	  409.73
     81.7700	  721.00	  691.80	-1737.55	  409.75
     81.8700	  735.00	  672.93	-1704.68	  409.77
     81.9700	  726.00	  653.49	-1694.24	  409.78
     82.0700	  680.00	  634.62	-1721.37	  409.80
     82.1700	  671.00	  617.21	-1712.96	  409.81
     82.2700	  600.00	  601.80	-1768.55	  409.82
     82.3700	  595.00	  588.69	-1760.44	  409.83
     82.4700	  575.00	  577.92	-1769.67	  409.84
     82.5700	  579.00	  569.46	-1757.21	  409.85
     82.6700	  565.00	  563.15	-1764.90	  409.85
     82.7700	  552.00	  558.80	-1773.55	  409.86
     82.8700	  593.00	  556.23	-1729.98	  409.86
     82.9700	  567.00	  555.27	-1755.02	  409.86
     83.0700	  598.00	  555.79	-1724.54	  409.86
     83.1700	  518.00	  557.67	-1806.42	  409.86
     83.2700	  566.00	  560.79	-1761.54	  409.86
     83.3700	  553.00	  564.98	-1778.73	  409.85
     83.4700	  522.00	  569.98	-1814.73	  409.85
     83.5700	  610.00	  575.47	-1732.22	  409.84
     83.6700	  539.00	  581.01	-1808.76	  409.83
     83.7700	  534.00	  586.07	-1818.82	  409.82
     83.8700	  606.00	  590.04	-1750.79	  409.81
     83.9700	  566.00	  592.38	-1793.13	  409.79
     84.0700	  548.00	  592.67	-1811.42	  409.78
     84.1700	  592.00	  590.84	-1765.59	  409.76
     84.2700	  554.00	  587.13	-1799.88	  409.75
     84.3700	  587.00	  582.07	-1761.82	  409.73
     84.4700	  562.00	  576.20	-1780.95	  409.71
     84.5700	  561.00	  570.08	-1775.83	  409.68
     84.6700	  525.00	  564.14	-1805.89	  409.66
     84.7700	  539.00	  558.71	-1786.46	  409.64
     84.8700	  511.00	  553.99	-1809.74	  409.61
     84.9700	  520.00	  550.09	-1796.84	  409.58
     85.0700	  494.00	  547.02	-1819.77	  409.55
     85.1700	  516.00	  544.73	-1795.48	  409.52
     85.2700	  547.00	  543.12	-1762.87	  409.49
     85.3700	  503.00	  542.09	-1805.84	  409.45
     85.4700	  513.00	  541.55	-1795.30	  409.42
     85.5700	  542.00	  541.41	-1766.16	  409.38
     85.6700	  487.00	  541.61	-1821.36	  409.34
     85.7700	  514.00	  542.13	-1794.88	  409.30
     85.8700	  521.00	  542.97	-1788.72	  409.26
     85.9700	  517.00	  544.16	-1793.91	  409.22
     86.0700	  517.00	  545.78	-1795.53	  409.17
     86.1700	  508.00	  547.92	-1806.67	  409.12
     86.2700	  503.00	  550.71	-1814.46	  409.08
     86.3700	  583.00	  554.30	-1738.05	  409.03
     86.4700	  539.00	  558.83	-1786.58	  408.98
     86.5700	  571.00	  564.13	-1759.88	  408.92
     86.6700	  556.00	  570.87	-1781.62	  408.87
     86.7700	  556.00	  578.68	-1789.43	  408.81
     86.8700	  586.00	  587.37	-1768.12	  408.76
     86.9700	  621.00	  596.55	-1742.30	  408.70
     87.0700	  619.00	  605.69	-1753.44	  408.64
     87.1700	  621.00	  614.07	-1759.82	  408.57
     87.2700	  634.00	  620.93	-1753.68	  408.51
     87.3700	  603.00	  625.48	-1789.23	  408.45
     87.4700	  699.00	  627.11	-1694.86	  408.38
     87.5700	  670.00	  625.61	-1722.36	  408.31
     87.6700	  623.00	  621.23	-1764.98	  408.24
     87.7700	  615.00	  614.58	-1766.33	  408.17
     87.8700	  609.00	  606.53	-1764.28	  408.10
     87.9700	  608.00	  597.94	-1756.69	  408.02
     88.0700	  653.00	  589.64	-1703.39	  407.95
     88.1700	  617.00	  582.32	-1732.07	  407.87
     88.2700	  571.00	  576.50	-1772.25	  407.79
     88.3700	  616.00	  572.54	-1723.29	  407.71
     88.4700	  596.00	  570.60	-1741.35	  407.63
     88.5700	  541.00	  570.70	-1796.45	  407.54
     88.6700	  562.00	  572.67	-1777.42	  407.46
     88.7700	  566.00	  576.23	-1776.98	  407.37
     88.8700	  611.00	  580.97	-1736.72	  407.28
     88.9700	  612.00	  586.39	-1741.14	  407.19
     89.0700	  620.00	  591.92	-1738.67	  407.10
     89.1700	  630.00	  596.95	-1733.70	  407.01
     89.2700	  619.00	  600.85	-1748.60	  406.91
     89.3700	  620.00	  603.07	-1749.82	  406.82
     89.4700	  635.00	  603.26	-1735.01	  406.72
     89.5700	  603.00	  601.35	-1765.10	  406.62
     89.6700	  563.00	  597.56	-1801.31	  406.52
     89.7700	  575.00	  592.31	-1784.06	  406.42
     89.8700	  581.00	  586.13	-1771.88	  406.31
     89.9700	  565.00	  579.53	-1781.28	  406.21
     90.0700	  549.00	  572.95	-1790.70	  406.10
     90.1700	  548.00	  566.75	-1785.50	  405.99
     90.2700	  525.00	  561.16	-1802.91	  405.88
     90.3700	  496.00	  556.36	-1827.11	  405.77
     90.4700	  565.00	  552.40	-1754.15	  405.66
     90.5700	  542.00	  549.27	-1774.02	  405.54
     90.6700	  531.00	  546.92	-1782.67	  405.43
     90.7700	  541.00	  545.24	-1770.99	  405.31
     90.8700	  533.00	  544.14	-1777.89	  405.19
     90.9700	  552.00	  543.53	-1758.28	  405.07
     91.0700	  525.00	  543.34	-1785.09	  404.95
     91.1700	  503.00	  543.52	-1807.27	  404.82
     91.2700	  553.00	  544.08	-1757.83	  404.70
     91.3700	  506.00	  545.05	-1805.80	  404.57
     91.4700	  519.00	  546.50	-1794.25	  404.44
     91.5700	  468.00	  548.55	-1847.30	  404.31
     91.6700	  557.00	  551.34	-1761.09	  404.18
     91.7700	  547.00	  554.86	-1774.61	  404.05
     91.8700	  535.00	  559.73	-1791.48	  403.92
     91.9700	  578.00	  565.93	-1754.68	  403.78
     92.0700	  556.00	  573.65	-1784.40	  403.64
     92.1700	  547.00	  583.01	-1802.76	  403.50
     92.2700	  551.00	  594.07	-1809.82	  403.36
     92.3700	  612.00	  606.80	-1761.55	  403.22
     92.4700	  593.00	  621.03	-1794.78	  403.08
     92.5700	  671.00	  636.47	-1732.22	  402.93
     92.6700	  651.00	  652.70	-1768.45	  402.79
     92.7700	  678.00	  669.18	-1757.93	  402.64
     92.8700	  730.00	  685.29	-1722.04	  402.49
     92.9700	  747.00	  700.35	-1720.10	  402.34
     93.0700	  816.00	  713.81	-1664.56	  402.19
     93.1700	  766.00	  725.39	-1726.14	  402.04
     93.2700	  804.00	  735.16	-1697.91	  401.88
     93.3700	  807.00	  743.51	-1703.26	  401.73
     93.4700	  791.00	  751.04	-1726.79	  401.57
     93.5700	  817.00	  758.39	-1708.14	  401.41
     93.6700	  855.00	  766.16	-1677.91	  401.25
     93.7700	  820.00	  774.86	-1721.61	  401.09
     93.8700	  872.00	  784.95	-1679.70	  400.93
     93.9700	  893.00	  796.85	-1670.60	  400.76
     94.0700	  813.00	  810.87	-1764.62	  400.60
     94.1700	  886.00	  827.08	-1707.83	  400.43
     94.2700	  865.00	  845.23	-1746.98	  400.26
     94.3700	  883.00	  864.60	-1748.35	  400.09
     94.4700	  895.00	  884.02	-1755.77	  399.92
     94.5700	  854.00	  901.90	-1814.65	  399.75
     94.6700	  872.00	  916.38	-1811.13	  399.57
     94.7700	  947.00	  925.51	-1745.26	  399.40
     94.8700	  867.00	  927.65	-1827.40	  399.22
     94.9700	  925.00	  921.89	-1763.64	  399.04
     95.0700	  955.00	  908.27	-1720.02	  398.86
     95.1700	  871.00	  887.84	-1783.59	  398.68
     95.2700	  806.00	  862.32	-1823.07	  398.50
     95.3700	  808.00	  833.75	-1792.50	  398.32
     95.4700	  742.00	  804.22	-1828.97	  398.14
     95.5700	  815.00	  775.75	-1727.50	  397.95
     95.6700	  736.00	  750.15	-1780.91	  397.76
     95.7700	  736.00	  729.09	-1759.84	  397.58
     95.8700	  689.00	  714.03	-1791.78	  397.39
     95.9700	  685.00	  706.24	-1787.99	  397.20
     96.0700	  662.00	  706.86	-1811.61	  397.00
     96.1700	  697.00	  716.81	-1786.56	  396.81
     96.2700	  710.00	  736.81	-1793.56	  396.62
     96.3700	  755.00	  767.35	-1779.10	  396.42
     96.4700	  806.00	  808.54	-1769.29	  396.23
     96.5700	  843.00	  860.10	-1783.85	  396.03
     96.6700	  928.00	  921.15	-1759.90	  395.83
     96.7700	  970.00	  990.18	-1786.93	  395.63
     96.8700	 1024.00	 1065.02	-1807.77	  395.43
     96.9700	 1203.00	 1142.71	-1706.46	  395.23
     97.0700	 1188.00	 1219.66	-1798.41	  395.02
     97.1700	 1288.00	 1291.66	-1770.41	  394.82
     97.2700	 1362.00	 1354.14	-1758.89	  394.61
     97.3700	 1366.00	 1402.57	-1803.32	  394.40
     97.4700	 1419.00	 1433.00	-1780.75	  394.20
     97.5700	 1445.00	 1442.90	-1764.65	  393.99
     97.6700	 1405.00	 1431.68	-1793.43	  393.78
     97.7700	 1358.00	 1400.80	-1809.55	  393.57
     97.8700	 1359.00	 1353.45	-1761.20	  393.36
     97.9700	 1324.00	 1293.71	-1736.46	  393.14
     98.0700	 1201.00	 1226.01	-1791.76	  392.93
     98.1700	 1219.00	 1154.72	-1702.47	  392.71
     98.2700	 1045.00	 1083.85	-1805.60	  392.50
     98.3700	 1064.00	 1016.85	-1719.60	  392.28
     98.4700	  955.00	  956.63	-1768.38	  392.06
     98.5700	  904.00	  905.50	-1768.25	  391.84
     98.6700	  850.00	  865.25	-1782.00	  391.62
     98.7700	  811.00	  837.21	-1792.96	  391.40
     98.8700	  819.00	  822.29	-1770.04	  391.18
     98.9700	  756.00	  821.17	-1831.92	  390.96
     99.0700	  743.00	  834.22	-1857.97	  390.73
     99.1700	  811.00	  861.68	-1817.43	  390.51
     99.2700	  887.00	  903.60	-1783.35	  390.28
     99.3700	  972.00	  959.77	-1754.52	  390.06
     99.4700	 1044.00	 1029.73	-1752.48	  389.83
     99.5700	 1140.00	 1112.58	-1739.33	  389.60
     99.6700	 1215.00	 1206.98	-1758.73	  389.37
     99.7700	 1245.00	 1310.98	-1832.73	  389.15
     99.8700	 1390.00	 1421.93	-1798.68	  388.91
     99.9700	 1493.00	 1536.43	-1810.18	  388.68
    100.0700	 1673.00	 1650.38	-1744.13	  388.45
    100.1700	 1755.00	 1759.21	-1770.96	  388.22
    100.2700	 1920.00	 1858.25	-1705.00	  387.99
    100.3700	 1964.00	 1943.25	-1746.00	  387.75
    100.4700	 1977.00	 2010.80	-1800.55	  387.52
    100.5700	 2201.00	 2058.49	-1624.24	  387.28
    100.6700	 2179.00	 2084.74	-1672.49	  387.05
    100.7700	 2035.00	 2088.67	-1820.42	  386.81
    100.8700	 2064.00	 2070.05	-1772.80	  386.57
    100.9700	 2055.00	 2029.50	-1741.25	  386.33
    101.0700	 2101.00	 1968.95	-1634.70	  386.10
    101.1700	 1978.00	 1891.72	-1680.47	  385.86
    101.2700	 1828.00	 1802.38	-1741.13	  385.62
    101.3700	 1744.00	 1706.13	-1728.88	  385.38
    101.4700	 1624.00	 1608.23	-1750.98	  385.14
    101.5700	 1449.00	 1513.39	-1831.14	  384.89
    101.6700	 1441.00	 1425.47	-1751.22	  384.65
    101.7700	 1336.00	 1347.27	-1778.02	  384.41
    101.8700	 1308.00	 1280.48	-1739.23	  384.17
    101.9700	 1209.00	 1225.68	-1783.43	  383.92
    102.0700	 1154.00	 1182.42	-1795.17	  383.68
    102.1700	 1080.00	 1149.33	-1836.08	  383.44
    102.2700	 1073.00	 1124.26	-1818.01	  383.19
    102.3700	 1057.00	 1104.61	-1814.36	  382.95
    102.4700	 1120.00	 1087.53	-1734.28	  382.70
    102.5700	 1051.00	 1070.30	-1786.05	  382.45
    102.6700	 1086.00	 1050.67	-1731.42	  382.21
    102.7700	 1015.00	 1027.16	-1778.91	  381.96
    102.8700	 1005.00	  999.15	-1760.90	  381.72
    102.9700	  969.00	  966.83	-1764.58	  381.47
    103.0700	  933.00	  930.96	-1764.71	  381.22
    103.1700	  865.00	  892.65	-1794.40	  380.97
    103.2700	  804.00	  853.17	-1815.92	  380.73
    103.3700	  880.00	  813.75	-1700.50	  380.48
    103.4700	  825.00	  775.52	-1717.27	  380.23
    103.5700	  678.00	  739.45	-1828.20	  379.98
    103.6700	  720.00	  706.30	-1753.05	  379.73
    103.7700	  621.00	  676.60	-1822.35	  379.48
    103.8700	  661.00	  650.63	-1756.38	  379.24
    103.9700	  623.00	  628.49	-1772.24	  378.99
    104.0700	  617.00	  610.06	-1759.81	  378.74
    104.1700	  619.00	  595.14	-1742.89	  378.49
    104.2700	  550.00	  583.38	-1800.13	  378.24
    104.3700	  546.00	  574.42	-1795.17	  377.99
    104.4700	  587.00	  567.85	-1747.60	  377.74
    104.5700	  597.00	  563.29	-1733.04	  377.49
    104.6700	  549.00	  560.39	-1778.14	  377.25
    104.7700	  553.00	  558.81	-1772.56	  377.00
    104.8700	  525.00	  558.27	-1800.02	  376.75
    104.9700	  574.00	  558.57	-1751.32	  376.50
    105.0700	  549.00	  559.51	-1777.26	  376.25
    105.1700	  537.00	  560.95	-1790.70	  376.00
    105.2700	  544.00	  562.76	-1785.51	  375.76
    105.3700	  516.00	  564.93	-1815.68	  375.51
    105.4700	  532.00	  567.42	-1802.17	  375.26
    105.5700	  529.00	  570.27	-1808.02	  375.01
    105.6700	  581.00	  573.55	-1759.30	  374.77
    105.7700	  540.00	  577.36	-1804.11	  374.52
    105.8700	  545.00	  581.82	-1803.57	  374.27
    105.9700	  562.00	  587.06	-1791.81	  374.03
    106.0700	  576.00	  593.17	-1783.92	  373.78
    106.1700	  586.00	  600.20	-1780.95	  373.54
    106.2700	  631.00	  608.12	-1743.87	  373.29
    106.3700	  593.00	  616.87	-1790.62	  373.05
    106.4700	  608.00	  626.30	-1785.05	  372.80
    106.5700	  607.00	  636.17	-1795.92	  372.56
    106.6700	  625.00	  646.21	-1787.96	  372.32
    106.7700	  651.00	  656.05	-1771.80	  372.08
    106.8700	  612.00	  665.30	-1820.05	  371.83
    106.9700	  645.00	  673.58	-1795.33	  371.59
    107.0700	  653.00	  680.48	-1794.23	  371.35
    107.1700	  660.00	  685.72	-1792.47	  371.11
    107.2700	  682.00	  689.10	-1773.85	  370.87
    107.3700	  719.00	  690.63	-1738.38	  370.63
    107.4700	  696.00	  690.48	-1761.23	  370.40
    107.5700	  648.00	  688.96	-1807.71	  370.16
    107.6700	  692.00	  686.51	-1761.26	  369.92
    107.7700	  687.00	  683.57	-1763.32	  369.69
    107.8700	  703.00	  680.58	-1744.33	  369.45
    107.9700	  691.00	  677.90	-1753.65	  369.22
    108.0700	  705.00	  675.80	-1737.55	  368.99
    108.1700	  644.00	  674.43	-1797.18	  368.76
    108.2700	  680.00	  673.86	-1760.61	  368.53
    108.3700	  647.00	  673.98	-1793.73	  368.30
    108.4700	  699.00	  674.62	-1742.37	  368.07
    108.5700	  687.00	  675.50	-1755.25	  367.84
    108.6700	  643.00	  676.25	-1800.00	  367.61
    108.7700	  693.00	  676.48	-1750.23	  367.39
    108.8700	  673.00	  675.82	-1769.57	  367.16
    108.9700	  641.00	  673.93	-1799.68	  366.94
    109.0700	  687.00	  670.59	-1750.34	  366.72
    109.1700	  621.00	  665.72	-1811.47	  366.49
    109.2700	  666.00	  659.37	-1760.12	  366.27
    109.3700	  670.00	  651.72	-1748.47	  366.06
    109.4700	  644.00	  643.02	-1765.77	  365.84
    109.5700	  623.00	  633.60	-1777.35	  365.62
    109.6700	  650.00	  623.76	-1740.51	  365.41
    109.7700	  661.00	  613.82	-1719.57	  365.19
    109.8700	  631.00	  604.08	-1739.83	  364.98
    109.9700	  591.00	  594.79	-1770.54	  364.77
    110.0700	  559.00	  586.15	-1793.90	  364.56
    110.1700	  602.00	  578.32	-1743.07	  364.36
    110.2700	  611.00	  571.41	-1727.16	  364.15
    110.3700	  533.00	  565.47	-1799.22	  363.94
    110.4700	  561.00	  560.51	-1766.26	  363.74
    110.5700	  595.00	  556.51	-1728.26	  363.54
    110.6700	  572.00	  553.42	-1748.17	  363.34
    110.7700	  554.00	  551.16	-1763.92	  363.14
    110.8700	  549.00	  549.66	-1767.41	  362.95
    110.9700	  508.00	  548.81	-1807.56	  362.75
    111.0700	  553.00	  548.54	-1762.29	  362.56
    111.1700	  510.00	  548.75	-1805.50	  362.37
    111.2700	  531.00	  549.39	-1785.14	  362.18
    111.3700	  555.00	  550.39	-1762.14	  361.99
    111.4700	  542.00	  551.69	-1776.44	  361.81
    111.5700	  555.00	  553.26	-1765.01	  361.63
    111.6700	  577.00	  555.07	-1744.82	  361.44
    111.7700	  552.00	  557.10	-1771.85	  361.27
    111.8700	  564.00	  559.34	-1762.09	  361.09
    111.9700	  567.00	  561.78	-1761.53	  360.91
    112.0700	  586.00	  564.43	-1745.18	  360.74
    112.1700	  506.00	  567.30	-1828.05	  360.57
    112.2700	  550.00	  570.42	-1787.17	  360.40
    112.3700	  549.00	  573.80	-1791.55	  360.23
    112.4700	  604.00	  577.50	-1740.25	  360.07
    112.5700	  650.00	  581.55	-1698.30	  359.91
    112.6700	  605.00	  586.03	-1747.78	  359.75
    112.7700	  644.00	  591.01	-1713.76	  359.59
    112.8700	  651.00	  596.61	-1712.36	  359.44
    112.9700	  677.00	  602.97	-1692.72	  359.29
    113.0700	  672.00	  610.29	-1705.04	  359.14
    113.1700	  692.00	  618.81	-1693.56	  358.99
    113.2700	  715.00	  628.85	-1680.60	  358.85
    113.3700	  732.00	  640.80	-1675.55	  358.70
    113.4700	  834.00	  655.18	-1587.93	  358.56
    113.5700	  825.00	  672.63	-1614.38	  358.43
    113.6700	  845.00	  693.95	-1615.70	  358.29
    113.7700	  961.00	  720.10	-1525.85	  358.16
    113.8700	  953.00	  752.24	-1565.99	  358.03
    113.9700	  997.00	  791.75	-1561.50	  357.91
    114.0700	 1028.00	  840.21	-1578.96	  357.79
    114.1700	 1077.00	  899.43	-1589.18	  357.67
    114.2700	 1110.00	  971.44	-1628.19	  357.55
    114.3700	 1257.00	 1058.41	-1568.16	  357.44
    114.4700	 1319.00	 1162.63	-1610.38	  357.32
    114.5700	 1485.00	 1286.49	-1568.24	  357.22
    114.6700	 1697.00	 1432.31	-1502.06	  357.11
    114.7700	 1843.00	 1602.25	-1526.00	  357.01
    114.8700	 1848.00	 1798.17	-1716.92	  356.91
    114.9700	 2171.00	 2021.44	-1617.19	  356.82
    115.0700	 2261.00	 2272.91	-1778.66	  356.72
    115.1700	 2624.00	 2552.68	-1695.43	  356.64
    115.2700	 2923.00	 2859.84	-1703.59	  356.55
    115.3700	 3013.00	 3192.50	-1946.25	  356.47
    115.4700	 3461.00	 3547.55	-1853.30	  356.39
    115.5700	 3698.00	 3920.78	-1989.53	  356.32
    115.6700	 4103.00	 4306.76	-1970.51	  356.24
    115.7700	 4384.00	 4698.69	-2081.44	  356.18
    115.8700	 4802.00	 5088.64	-2053.39	  356.11
    115.9700	 5292.00	 5467.54	-1942.29	  356.05
    116.0700	 5461.00	 5825.51	-2131.26	  355.99
    116.1700	 6126.00	 6151.99	-1792.74	  355.94
    116.2700	 6375.00	 6436.05	-1827.80	  355.89
    116.3700	 6579.00	 6667.19	-1854.94	  355.85
    116.4700	 6759.00	 6835.99	-1843.74	  355.80
    116.5700	 6950.00	 6935.16	-1751.91	  355.77
    116.6700	 6976.00	 6960.22	-1750.97	  355.73
    116.7700	 7067.00	 6910.18	-1609.93	  355.70
    116.8700	 6853.00	 6787.66	-1701.41	  355.68
    116.9700	 6739.00	 6598.58	-1626.33	  355.65
    117.0700	 6752.00	 6351.28	-1366.03	  355.64
    117.1700	 6094.00	 6055.70	-1728.45	  355.62
    117.2700	 5780.00	 5722.57	-1709.32	  355.61
    117.3700	 5155.00	 5362.61	-1974.36	  355.61
    117.4700	 4830.00	 4986.13	-1922.88	  355.61
    117.5700	 4672.00	 4602.50	-1697.25	  355.61
    117.6700	 4290.00	 4220.04	-1696.79	  355.62
    117.7700	 3935.00	 3846.03	-1677.78	  355.63
    117.8700	 3660.00	 3486.48	-1593.23	  355.65
    117.9700	 3283.00	 3146.20	-1629.95	  355.67
    118.0700	 2975.00	 2828.67	-1620.42	  355.70
    118.1700	 2611.00	 2536.23	-1691.98	  355.73
    118.2700	 2285.00	 2270.28	-1752.03	  355.76
    118.3700	 1994.00	 2031.24	-1803.99	  355.80
    118.4700	 1751.00	 1818.77	-1834.52	  355.85
    118.5700	 1530.00	 1631.85	-1868.60	  355.90
    118.6700	 1378.00	 1468.96	-1857.71	  355.95
    118.7700	 1199.00	 1328.30	-1896.05	  356.01
    118.8700	 1127.00	 1207.82	-1847.57	  356.07
    118.9700	 1041.00	 1105.39	-1831.14	  356.14
    119.0700	  955.00	 1018.84	-1830.59	  356.22
    119.1700	  860.00	  946.08	-1852.83	  356.30
    119.2700	  795.00	  885.19	-1856.94	  356.38
    119.3700	  784.00	  834.38	-1817.13	  356.47
    119.4700	  743.00	  792.09	-1815.84	  356.57
    119.5700	  627.00	  756.92	-1896.67	  356.67
    119.6700	  645.00	  727.67	-1849.42	  356.77
    119.7700	  665.00	  703.34	-1805.09	  356.88
    119.8700	  642.00	  683.08	-1807.83	  357.00
    119.9700	  635.00	  666.17	-1797.92	  357.12
    120.0700	  571.00	  652.06	-1847.81	  357.25
    120.1700	  635.00	  640.26	-1772.01	  357.38
    120.2700	  603.00	  630.40	-1794.15	  357.52
    120.3700	  565.00	  622.18	-1823.93	  357.67
    120.4700	  556.00	  615.35	-1826.10	  357.82
    120.5700	  531.00	  609.73	-1845.48	  357.97
    120.6700	  550.00	  605.17	-1821.92	  358.14
    120.7700	  553.00	  601.54	-1815.29	  358.31
    120.8700	  586.00	  598.76	-1779.51	  358.48
    120.9700	  560.00	  596.76	-1803.51	  358.66
    121.0700	  570.00	  595.47	-1792.22	  358.85
    121.1700	  568.00	  594.85	-1793.60	  359.04
    121.2700	  577.00	  594.85	-1784.60	  359.24
    121.3700	  616.00	  595.44	-1746.19	  359.44
    121.4700	  601.00	  596.55	-1762.30	  359.65
    121.5700	  578.00	  598.16	-1786.91	  359.87
    121.6700	  562.00	  600.17	-1804.92	  360.10
    121.7700	  590.00	  602.57	-1779.32	  360.33
    121.8700	  586.00	  605.28	-1786.03	  360.56
    121.9700	  602.00	  608.20	-1772.95	  360.81
    122.0700	  642.00	  611.26	-1736.01	  361.06
    122.1700	  631.00	  614.35	-1750.10	  361.32
    122.2700	  631.00	  617.40	-1753.15	  361.58
    122.3700	  649.00	  620.29	-1738.04	  361.85
    122.4700	  585.00	  622.92	-1804.67	  362.13
    122.5700	  654.00	  625.18	-1737.93	  362.41
    122.6700	  652.00	  627.00	-1741.75	  362.70
    122.7700	  632.00	  628.30	-1763.05	  363.00
    122.8700	  646.00	  629.03	-1749.78	  363.31
    122.9700	  629.00	  629.15	-1766.90	  363.62
    123.0700	  640.00	  628.67	-1755.42	  363.94
    123.1700	  601.00	  627.61	-1793.36	  364.27
    123.2700	  649.00	  626.01	-1743.76	  364.60
    123.3700	  665.00	  623.93	-1725.68	  364.94
    123.4700	  647.00	  621.43	-1741.18	  365.29
    123.5700	  671.00	  618.60	-1714.35	  365.65
    123.6700	  611.00	  615.49	-1771.24	  366.02
    123.7700	  638.00	  612.20	-1740.95	  366.39
    123.8700	  668.00	  608.78	-1707.53	  366.77
    123.9700	  623.00	  605.30	-1749.05	  367.16
    124.0700	  614.00	  601.82	-1754.57	  367.55
    124.1700	  611.00	  598.39	-1754.14	  367.96
    124.2700	  656.00	  595.06	-1705.81	  368.37
    124.3700	  556.00	  591.86	-1802.61	  368.79
    124.4700	  625.00	  588.81	-1730.56	  369.21
    124.5700	  571.00	  585.95	-1781.70	  369.65
    124.6700	  569.00	  583.29	-1781.04	  370.09
    124.7700	  615.00	  580.83	-1732.58	  370.55
    124.8700	  577.00	  578.59	-1768.34	  371.01
    124.9700	  571.00	  490.01	-1685.76	  371.48
    125.0700	  573.00	  490.49	-1766.75	  371.95
    125.1700	  529.00	  490.98	-1766.75	  372.44
    125.2700	  598.00	  491.47	-1766.75	  372.93
    125.3700	  571.00	  491.97	-1766.75	  373.44
    125.4700	  566.00	  492.48	-1766.75	  373.95
    125.5700	  568.00	  493.01	-1766.75	  374.47
    125.6700	  607.00	  493.53	-1766.75	  375.00
    125.7700	  569.00	  494.07	-1766.75	  375.54
    125.8700	  578.00	  494.62	-1766.75	  376.08
    125.9700	  561.00	  495.18	-1766.75	  376.64
    126.0700	  597.00	  495.74	-1766.75	  377.21
    126.1700	  578.00	  496.32	-1766.75	  377.78
    126.2700	  564.00	  496.90	-1766.75	  378.36
    126.3700	  585.00	  497.49	-1766.75	  378.96
    126.4700	  602.00	  498.10	-1766.75	  379.56
    126.5700	  629.00	  498.71	-1766.75	  380.17
    126.6700	  589.00	  499.33	-1766.75	  380.79
    126.7700	  639.00	  499.96	-1766.75	  381.43
    126.8700	  576.00	  500.60	-1766.75	  382.07
    126.9700	  594.00	  501.25	-1766.75	  382.72
    127.0700	  581.00	  501.91	-1766.75	  383.38
    127.1700	  672.00	  502.58	-1766.75	  384.05
    127.2700	  604.00	  503.26	-1766.75	  384.73
    127.3700	  629.00	  503.95	-1766.75	  385.42
    127.4700	  624.00	  504.65	-1766.75	  386.12
    127.5700	  648.00	  505.36	-1766.75	  386.83
    127.6700	  755.00	  506.08	-1766.75	  387.55
    127.7700	  717.00	  506.81	-1766.75	  388.28
    127.8700	  710.00	  507.55	-1766.75	  389.02
    127.9700	  741.00	  508.31	-1766.75	  389.77
    128.0700	  768.00	  509.07	-1766.75	  390.53
    128.1700	  735.00	  509.84	-1766.75	  391.30
    128.2700	  746.00	  510.62	-1766.75	  392.09
    128.3700	  819.00	  511.42	-1766.75	  392.88
    128.4700	  799.00	  512.22	-1766.75	  393.69
    128.5700	    0.00	  513.04	-1766.75	  394.50
    128.6700	    0.00	  513.86	-1766.75	  395.33
     12.3057	        	        	        	        	       0	(  0  0  2)	  0  1
     24.8870	        	        	        	        	       0	(  0  0  4)	  0  1
     28.3316	        	        	        	        	       0	(  1  0  0)	  0  1
     29.0286	        	        	        	        	       0	(  1  0  1)	  0  1
     31.0343	        	        	        	        	       0	(  1  0  2)	  0  1
     34.1419	        	        	        	        	       0	(  1  0  3)	  0  1
     37.7841	        	        	        	        	       0	(  0  0  6)	  0  1
     38.1181	        	        	        	        	       0	(  1  0  4)	  0  1
     42.7671	        	        	        	        	       0	(  1  0  5)	  0  1
     47.9500	        	        	        	        	       0	(  1  0  6)	  0  1
     50.2678	        	        	        	        	       0	(  1  1  0)	  0  1
     51.2032	        	        	        	        	       0	(  0  0  8)	  0  1
     51.9904	        	        	        	        	       0	(  1  1  2)	  0  1
     53.5792	        	        	        	        	       0	(  1  0  7)	  0  1
     56.9369	        	        	        	        	       0	(  1  1  4)	  0  1
     58.7645	        	        	        	        	       0	(  2  0  0)	  0  1
     59.1560	        	        	        	        	       0	(  2  0  1)	  0  1
     59.6081	        	        	        	        	       0	(  1  0  8)	  0  1
     60.3210	        	        	        	        	       0	(  2  0  2)	  0  1
     62.2337	        	        	        	        	       0	(  2  0  3)	  0  1
     64.6295	        	        	        	        	       0	(  1  1  6)	  0  1
     64.8571	        	        	        	        	       0	(  2  0  4)	  0  1
     65.4290	        	        	        	        	       0	(  0  0 10)	  0  1
     66.0228	        	        	        	        	       0	(  1  0  9)	  0  1
     68.1504	        	        	        	        	       0	(  2  0  5)	  0  1
     72.0768	        	        	        	        	       0	(  2  0  6)	  0  1
     72.8371	        	        	        	        	       0	(  1  0 10)	  0  1
     74.6645	        	        	        	        	       0	(  1  1  8)	  0  1
     76.6096	        	        	        	        	       0	(  2  0  7)	  0  1
     80.0927	        	        	        	        	       0	(  1  0 11)	  0  1
     80.9051	        	        	        	        	       0	(  0  0 12)	  0  1
     81.0048	        	        	        	        	       0	(  2  1  0)	  0  1
     81.3445	        	        	        	        	       0	(  2  1  1)	  0  1
     81.7383	        	        	        	        	       0	(  2  0  8)	  0  1
     82.3621	        	        	        	        	       0	(  2  1  2)	  0  1
     84.0528	        	        	        	        	       0	(  2  1  3)	  0  1
     86.4118	        	        	        	        	       0	(  2  1  4)	  0  1
     86.9321	        	        	        	        	       0	(  1  1 10)	  0  1
     87.4745	        	        	        	        	       0	(  2  0  9)	  0  1
     87.8644	        	        	        	        	       0	(  1  0 12)	  0  1
     89.4366	        	        	        	        	       0	(  2  1  5)	  0  1
     93.1328	        	        	        	        	       0	(  2  1  6)	  0  1
     93.8597	        	        	        	        	       0	(  2  0 10)	  0  1
     94.8929	        	        	        	        	       0	(  3  0  0)	  0  1
     95.2301	        	        	        	        	       0	(  3  0  1)	  0  1
     96.2430	        	        	        	        	       0	(  3  0  2)	  0  1
     96.2746	        	        	        	        	       0	(  1  0 13)	  0  1
     97.5199	        	        	        	        	       0	(  2  1  7)	  0  1
     97.9358	        	        	        	        	       0	(  3  0  3)	  0  1
     98.4382	        	        	        	        	       0	(  0  0 14)	  0  1
    100.3179	        	        	        	        	       0	(  3  0  4)	  0  1
    100.9790	        	        	        	        	       0	(  2  0 11)	  0  1
    101.7970	        	        	        	        	       0	(  1  1 12)	  0  1
    102.6405	        	        	        	        	       0	(  2  1  8)	  0  1
    103.4084	        	        	        	        	       0	(  3  0  5)	  0  1
    105.5234	        	        	        	        	       0	(  1  0 14)	  0  1
    107.2421	        	        	        	        	       0	(  3  0  6)	  0  1
    108.5750	        	        	        	        	       0	(  2  1  9)	  0  1
    108.9868	        	        	        	        	       0	(  2  0 12)	  0  1
    111.8807	        	        	        	        	       0	(  3  0  7)	  0  1
    115.4688	        	        	        	        	       0	(  2  1 10)	  0  1
    115.9615	        	        	        	        	       0	(  1  0 15)	  0  1
    116.6164	        	        	        	        	       0	(  2  2  0)	  0  1
    117.4317	        	        	        	        	       0	(  3  0  8)	  0  1
    118.1310	        	        	        	        	       0	(  2  2  2)	  0  1
    118.1667	        	        	        	        	       0	(  2  0 13)	  0  1
    119.9156	        	        	        	        	       0	(  0  0 16)	  0  1
    120.6320	        	        	        	        	       0	(  1  1 14)	  0  1
    122.8146	        	        	        	        	       0	(  2  2  4)	  0  1
    123.5918	        	        	        	        	       0	(  2  1 11)	  0  1
    124.0885	        	        	        	        	       0	(  3  0  9)	  0  1
    124.6809	        	        	        	        	       0	(  3  1  0)	  0  1
    125.0910	        	        	        	        	       0	(  3  1  1)	  0  1
    126.3339	        	        	        	        	       0	(  3  1  2)	  0  1
    128.2969	        	        	        	        	       0	(  1  0 16)	  0  1
    128.4512	        	        	        	        	       0	(  3  1  3)	  0  1
    129.0900	        	        	        	        	       0	(  2  0 14)	  0  1
    131.2507	        	        	        	        	       0	(  2  2  6)	  0  1
    131.5258	        	        	        	        	       0	(  3  1  4)	  0  1
    132.2249	        	        	        	        	       0	(  3  0 10)	  0  1
    133.4983	        	        	        	        	       0	(  2  1 12)	  0  1
    135.7108	        	        	        	        	       0	(  3  1  5)	  0  1
    141.3033	        	        	        	        	       0	(  3  1  6)	  0  1
    142.6966	        	        	        	        	       0	(  3  0 11)	  0  1
    143.2185	        	        	        	        	       0	(  2  0 15)	  0  1
    144.4516	        	        	        	        	       0	(  1  0 17)	  0  1
    145.4766	        	        	        	        	       0	(  2  2  8)	  0  1
    146.6435	        	        	        	        	       0	(  2  1 13)	  0  1
    148.9716	        	        	        	        	       0	(  3  1  7)	  0  1
    149.5433	        	        	        	        	       0	(  1  1 16)	  0  1
    153.9317	        	        	        	        	       0	(  0  0 18)	  0  1
    158.5582	        	        	        	        	       0	(  3  0 12)	  0  1
    158.8307	        	        	        	        	       0	(  4  0  0)	  0  1
    159.7869	        	        	        	        	       0	(  4  0  1)	  0  1
    160.9539	        	        	        	        	       0	(  3  1  8)	  0  1
    162.9629	        	        	        	        	       0	(  4  0  2)	  0  1
    169.5975	        	        	        	        	       0	(  2  0 16)	  0  1
    170.2984	        	        	        	        	       0	(  4  0  3)	  0  1
    173.9970	        	        	        	        	       0	(  2  1 14)	  0  1
