MSG Master    CELL:    5.91932   5.91932  23.26993   90.0000   90.0000  120.0000   SPGR: P 63/m m c             TEMP:   1074.85
  1   1280     2.52000     0.00000    -0.12540     0.00000     0.00000    0
    99     0     2
       0.00000      10.00000
     125.00000     130.00000
 2Theta	Yobs	Ycal	Yobs-Ycal	Backg	Posr	(hkl)	K
      0.7700	    0.00	  579.46	-1793.25	  459.75
      0.8700	    0.00	  579.83	-1793.25	  460.12
      0.9700	   32.00	  580.20	-1793.25	  460.49
      1.0700	   56.00	  580.55	-1793.25	  460.84
      1.1700	   49.00	  580.90	-1793.25	  461.19
      1.2700	   35.00	  581.24	-1793.25	  461.53
      1.3700	   38.00	  581.57	-1793.25	  461.86
      1.4700	   95.00	  581.89	-1793.25	  462.18
      1.5700	  303.00	  582.21	-1793.25	  462.50
      1.6700	  480.00	  582.52	-1793.25	  462.81
      1.7700	  560.00	  582.82	-1793.25	  463.11
      1.8700	  710.00	  583.11	-1793.25	  463.40
      1.9700	  742.00	  583.39	-1793.25	  463.68
      2.0700	  775.00	  583.67	-1793.25	  463.96
      2.1700	  805.00	  583.94	-1793.25	  464.23
      2.2700	  729.00	  584.20	-1793.25	  464.49
      2.3700	  728.00	  584.45	-1793.25	  464.74
      2.4700	  683.00	  584.70	-1793.25	  464.99
      2.5700	  688.00	  584.93	-1793.25	  465.22
      2.6700	  646.00	  585.17	-1793.25	  465.45
      2.7700	  671.00	  585.39	-1793.25	  465.68
      2.8700	  654.00	  585.61	-1793.25	  465.89
      2.9700	  630.00	  585.82	-1793.25	  466.10
      3.0700	  636.00	  586.02	-1793.25	  466.31
      3.1700	  598.00	  586.21	-1793.25	  466.50
      3.2700	  587.00	  586.40	-1793.25	  466.69
      3.3700	  689.00	  586.58	-1793.25	  466.87
      3.4700	  760.00	  586.76	-1793.25	  467.05
      3.5700	  769.00	  586.92	-1793.25	  467.21
      3.6700	  821.00	  587.08	-1793.25	  467.37
      3.7700	  971.00	  587.24	-1793.25	  467.53
      3.8700	  942.00	  587.39	-1793.25	  467.67
      3.9700	  970.00	  587.53	-1793.25	  467.82
      4.0700	 1011.00	  587.66	-1793.25	  467.95
      4.1700	 1083.00	  587.79	-1793.25	  468.08
      4.2700	 1109.00	  587.91	-1793.25	  468.20
      4.3700	 1034.00	  588.02	-1793.25	  468.31
      4.4700	 1061.00	  588.13	-1793.25	  468.42
      4.5700	 1064.00	  588.23	-1793.25	  468.52
      4.6700	 1036.00	  588.33	-1793.25	  468.62
      4.7700	 1056.00	  588.42	-1793.25	  468.71
      4.8700	 1013.00	  588.50	-1793.25	  468.79
      4.9700	  925.00	  588.58	-1793.25	  468.87
      5.0700	  972.00	  588.65	-1793.25	  468.94
      5.1700	  924.00	  588.72	-1793.25	  469.01
      5.2700	  913.00	  588.78	-1793.25	  469.07
      5.3700	  917.00	  588.83	-1793.25	  469.12
      5.4700	  850.00	  588.88	-1793.25	  469.17
      5.5700	  897.00	  588.92	-1793.25	  469.21
      5.6700	  865.00	  588.96	-1793.25	  469.24
      5.7700	  781.00	  588.99	-1793.25	  469.28
      5.8700	  791.00	  589.01	-1793.25	  469.30
      5.9700	  826.00	  589.03	-1793.25	  469.32
      6.0700	  773.00	  589.04	-1793.25	  469.33
      6.1700	  726.00	  589.05	-1793.25	  469.34
      6.2700	  754.00	  589.06	-1793.25	  469.34
      6.3700	  775.00	  589.05	-1793.25	  469.34
      6.4700	  722.00	  589.04	-1793.25	  469.33
      6.5700	  745.00	  589.03	-1793.25	  469.32
      6.6700	  713.00	  589.01	-1793.25	  469.30
      6.7700	  689.00	  588.99	-1793.25	  469.28
      6.8700	  727.00	  588.96	-1793.25	  469.25
      6.9700	  721.00	  588.93	-1793.25	  469.22
      7.0700	  651.00	  588.89	-1793.25	  469.18
      7.1700	  648.00	  588.84	-1793.25	  469.13
      7.2700	  681.00	  588.80	-1793.25	  469.09
      7.3700	  687.00	  588.74	-1793.25	  469.03
      7.4700	  666.00	  588.68	-1793.25	  468.97
      7.5700	  686.00	  588.62	-1793.25	  468.91
      7.6700	  629.00	  588.55	-1793.25	  468.84
      7.7700	  633.00	  588.48	-1793.25	  468.77
      7.8700	  697.00	  588.40	-1793.25	  468.69
      7.9700	  668.00	  588.32	-1793.25	  468.61
      8.0700	  657.00	  588.23	-1793.25	  468.52
      8.1700	  663.00	  588.14	-1793.25	  468.43
      8.2700	  603.00	  588.05	-1793.25	  468.34
      8.3700	  675.00	  587.95	-1793.25	  468.24
      8.4700	  656.00	  587.84	-1793.25	  468.13
      8.5700	  622.00	  587.73	-1793.25	  468.02
      8.6700	  661.00	  587.62	-1793.25	  467.91
      8.7700	  622.00	  587.50	-1793.25	  467.79
      8.8700	  623.00	  587.38	-1793.25	  467.67
      8.9700	  587.00	  587.26	-1793.25	  467.55
      9.0700	  641.00	  587.13	-1793.25	  467.42
      9.1700	  581.00	  586.99	-1793.25	  467.28
      9.2700	  593.00	  586.85	-1793.25	  467.14
      9.3700	  609.00	  586.71	-1793.25	  467.00
      9.4700	  594.00	  586.57	-1793.25	  466.86
      9.5700	  607.00	  586.42	-1793.25	  466.71
      9.6700	  599.00	  586.26	-1793.25	  466.55
      9.7700	  651.00	  586.11	-1793.25	  466.40
      9.8700	  590.00	  585.95	-1793.25	  466.23
      9.9700	  598.00	  585.78	-1793.25	  466.07
     10.0700	  588.00	  586.34	-1791.59	  465.90
     10.1700	  637.00	  586.24	-1742.49	  465.73
     10.2700	  626.00	  586.16	-1753.41	  465.55
     10.3700	  617.00	  586.11	-1762.36	  465.37
     10.4700	  575.00	  586.10	-1804.35	  465.19
     10.5700	  617.00	  586.19	-1762.44	  465.00
     10.6700	  583.00	  586.48	-1796.73	  464.81
     10.7700	  586.00	  587.08	-1794.33	  464.62
     10.8700	  596.00	  588.06	-1785.31	  464.42
     10.9700	  615.00	  589.40	-1767.65	  464.22
     11.0700	  588.00	  591.08	-1796.33	  464.02
     11.1700	  586.00	  593.09	-1800.34	  463.81
     11.2700	  550.00	  595.45	-1838.70	  463.60
     11.3700	  585.00	  598.25	-1806.50	  463.39
     11.4700	  560.00	  601.61	-1834.86	  463.18
     11.5700	  647.00	  605.71	-1751.96	  462.96
     11.6700	  639.00	  610.90	-1765.15	  462.73
     11.7700	  657.00	  617.77	-1754.02	  462.51
     11.8700	  618.00	  627.24	-1802.49	  462.28
     11.9700	  685.00	  640.10	-1748.35	  462.05
     12.0700	  710.00	  655.01	-1738.26	  461.82
     12.1700	  674.00	  665.91	-1785.16	  461.58
     12.2700	  658.00	  662.89	-1798.14	  461.34
     12.3700	  637.00	  642.60	-1798.85	  461.10
     12.4700	  621.00	  617.58	-1789.83	  460.85
     12.5700	  597.00	  599.39	-1795.64	  460.60
     12.6700	  569.00	  589.67	-1813.92	  460.35
     12.7700	  603.00	  585.33	-1775.58	  460.10
     12.8700	  580.00	  583.34	-1796.59	  459.84
     12.9700	  592.00	  582.20	-1783.45	  459.59
     13.0700	  574.00	  581.37	-1800.62	  459.33
     13.1700	  554.00	  580.71	-1819.96	  459.06
     13.2700	  600.00	  580.14	-1773.39	  458.80
     13.3700	  571.00	  579.64	-1801.89	  458.53
     13.4700	  577.00	  579.19	-1795.44	  458.26
     13.5700	  570.00	  578.78	-1802.03	  457.98
     13.6700	  577.00	  578.39	-1794.64	  457.71
     13.7700	  546.00	  578.01	-1825.26	  457.43
     13.8700	  555.00	  577.65	-1815.90	  457.15
     13.9700	  551.00	  577.31	-1819.56	  456.87
     14.0700	  571.00	  576.96	-1799.21	  456.59
     14.1700	  529.00	  576.63	-1840.88	  456.30
     14.2700	  587.00	  576.30	-1782.55	  456.01
     14.3700	  551.00	  575.97	-1818.22	  455.72
     14.4700	  588.00	  575.65	-1780.90	  455.43
     14.5700	  536.00	  575.33	-1832.58	  455.14
     14.6700	  560.00	  575.00	-1808.25	  454.84
     14.7700	  617.00	  574.68	-1750.93	  454.54
     14.8700	  564.00	  574.36	-1803.61	  454.24
     14.9700	  535.00	  574.04	-1832.29	  453.94
     15.0700	  547.00	  573.72	-1819.97	  453.63
     15.1700	  582.00	  573.40	-1784.65	  453.33
     15.2700	  577.00	  573.08	-1789.33	  453.02
     15.3700	  548.00	  572.76	-1818.01	  452.71
     15.4700	  556.00	  572.44	-1809.69	  452.40
     15.5700	  573.00	  572.12	-1792.37	  452.09
     15.6700	  558.00	  571.80	-1807.05	  451.78
     15.7700	  550.00	  571.47	-1814.72	  451.46
     15.8700	  551.00	  571.15	-1813.40	  451.14
     15.9700	  576.00	  570.82	-1788.07	  450.82
     16.0700	  551.00	  570.50	-1812.75	  450.50
     16.1700	  585.00	  570.17	-1778.42	  450.18
     16.2700	  567.00	  569.84	-1796.09	  449.86
     16.3700	  582.00	  569.53	-1780.78	  449.53
     16.4700	  575.00	  569.20	-1787.45	  449.21
     16.5700	  569.00	  568.87	-1793.12	  448.88
     16.6700	  521.00	  568.54	-1840.79	  448.55
     16.7700	  595.00	  568.21	-1766.46	  448.22
     16.8700	  581.00	  567.87	-1780.12	  447.89
     16.9700	  552.00	  567.54	-1808.79	  447.56
     17.0700	  572.00	  567.20	-1788.45	  447.22
     17.1700	  570.00	  566.86	-1790.11	  446.89
     17.2700	  520.00	  566.53	-1839.78	  446.55
     17.3700	  569.00	  566.19	-1790.44	  446.21
     17.4700	  588.00	  565.85	-1771.10	  445.88
     17.5700	  544.00	  565.51	-1814.76	  445.54
     17.6700	  581.00	  565.16	-1777.41	  445.20
     17.7700	  540.00	  564.82	-1818.07	  444.85
     17.8700	  591.00	  564.48	-1766.73	  444.51
     17.9700	  558.00	  564.23	-1799.48	  444.17
     18.0700	  551.00	  563.89	-1806.14	  443.82
     18.1700	  589.00	  563.55	-1767.80	  443.48
     18.2700	  563.00	  563.20	-1793.45	  443.13
     18.3700	  571.00	  562.86	-1785.11	  442.79
     18.4700	  580.00	  562.51	-1775.76	  442.44
     18.5700	  551.00	  562.17	-1804.42	  442.09
     18.6700	  616.00	  561.82	-1739.07	  441.74
     18.7700	  588.00	  561.47	-1766.72	  441.39
     18.8700	  591.00	  561.12	-1763.37	  441.04
     18.9700	  547.00	  560.86	-1807.11	  440.69
     19.0700	  506.00	  560.51	-1847.76	  440.34
     19.1700	  546.00	  560.16	-1807.41	  439.98
     19.2700	  533.00	  559.82	-1820.07	  439.63
     19.3700	  544.00	  559.47	-1808.72	  439.28
     19.4700	  621.00	  559.12	-1731.37	  438.92
     19.5700	  535.00	  558.77	-1817.02	  438.57
     19.6700	  566.00	  558.42	-1785.67	  438.21
     19.7700	  536.00	  558.08	-1815.33	  437.85
     19.8700	  556.00	  557.73	-1794.98	  437.50
     19.9700	  521.00	  557.38	-1829.63	  437.14
     20.0700	  552.00	  557.03	-1798.28	  436.78
     20.1700	  546.00	  556.68	-1803.93	  436.43
     20.2700	  548.00	  556.33	-1801.58	  436.07
     20.3700	  566.00	  555.99	-1783.24	  435.71
     20.4700	  539.00	  555.61	-1809.86	  435.35
     20.5700	  538.00	  555.26	-1810.51	  434.99
     20.6700	  547.00	  554.92	-1801.17	  434.63
     20.7700	  563.00	  554.57	-1784.82	  434.27
     20.8700	  547.00	  554.22	-1800.47	  433.91
     20.9700	  518.00	  553.92	-1829.17	  433.55
     21.0700	  538.00	  553.57	-1808.82	  433.19
     21.1700	  576.00	  553.23	-1770.48	  432.83
     21.2700	  557.00	  552.89	-1789.14	  432.47
     21.3700	  542.00	  552.55	-1803.80	  432.11
     21.4700	  527.00	  552.21	-1818.46	  431.75
     21.5700	  539.00	  551.87	-1806.12	  431.39
     21.6700	  558.00	  551.53	-1786.78	  431.03
     21.7700	  544.00	  551.20	-1800.45	  430.67
     21.8700	  553.00	  550.87	-1791.12	  430.31
     21.9700	  584.00	  550.53	-1759.78	  429.95
     22.0700	  555.00	  550.21	-1788.46	  429.59
     22.1700	  527.00	  549.88	-1816.13	  429.23
     22.2700	  543.00	  549.56	-1799.81	  428.87
     22.3700	  578.00	  549.24	-1764.49	  428.51
     22.4700	  549.00	  548.92	-1793.17	  428.14
     22.5700	  536.00	  548.61	-1805.86	  427.78
     22.6700	  559.00	  548.31	-1782.56	  427.42
     22.7700	  553.00	  548.01	-1788.26	  427.07
     22.8700	  573.00	  547.73	-1767.98	  426.71
     22.9700	  551.00	  547.45	-1789.70	  426.35
     23.0700	  511.00	  547.18	-1829.43	  425.99
     23.1700	  573.00	  546.93	-1767.18	  425.63
     23.2700	  533.00	  546.69	-1806.94	  425.27
     23.3700	  563.00	  546.48	-1776.73	  424.91
     23.4700	  543.00	  546.31	-1796.56	  424.55
     23.5700	  575.00	  546.17	-1764.42	  424.20
     23.6700	  572.00	  546.10	-1767.35	  423.84
     23.7700	  521.00	  546.13	-1818.38	  423.48
     23.8700	  518.00	  546.48	-1821.73	  423.13
     23.9700	  566.00	  547.10	-1774.35	  422.77
     24.0700	  539.00	  548.54	-1802.79	  422.42
     24.1700	  579.00	  551.43	-1765.68	  422.06
     24.2700	  564.00	  556.62	-1785.87	  421.71
     24.3700	  575.00	  565.04	-1783.29	  421.35
     24.4700	  580.00	  577.76	-1791.01	  421.00
     24.5700	  569.00	  595.24	-1819.49	  420.65
     24.6700	  596.00	  614.91	-1812.16	  420.29
     24.7700	  610.00	  629.01	-1812.26	  419.94
     24.8700	  628.00	  626.68	-1791.93	  419.59
     24.9700	  605.00	  605.97	-1794.22	  419.24
     25.0700	  590.00	  580.36	-1783.61	  418.89
     25.1700	  578.00	  561.22	-1776.47	  418.54
     25.2700	  598.00	  550.56	-1745.81	  418.19
     25.3700	  544.00	  545.67	-1794.92	  417.84
     25.4700	  572.00	  543.48	-1764.73	  417.50
     25.5700	  559.00	  542.33	-1776.58	  417.15
     25.6700	  542.00	  541.57	-1792.82	  416.80
     25.7700	  545.00	  541.00	-1789.25	  416.46
     25.8700	  566.00	  540.57	-1767.82	  416.11
     25.9700	  549.00	  540.23	-1784.48	  415.77
     26.0700	  576.00	  539.98	-1757.23	  415.43
     26.1700	  569.00	  539.80	-1764.05	  415.08
     26.2700	  509.00	  539.70	-1823.95	  414.74
     26.3700	  553.00	  539.67	-1779.92	  414.40
     26.4700	  536.00	  539.72	-1796.97	  414.06
     26.5700	  505.00	  539.86	-1828.11	  413.72
     26.6700	  549.00	  540.12	-1784.37	  413.39
     26.7700	  575.00	  540.50	-1758.75	  413.05
     26.8700	  571.00	  541.06	-1763.31	  412.71
     26.9700	  563.00	  541.83	-1772.08	  412.38
     27.0700	  510.00	  542.90	-1826.15	  412.04
     27.1700	  538.00	  544.39	-1799.64	  411.71
     27.2700	  542.00	  546.55	-1797.80	  411.38
     27.3700	  584.00	  549.86	-1759.11	  411.05
     27.4700	  572.00	  555.29	-1776.54	  410.72
     27.5700	  571.00	  564.52	-1786.77	  410.39
     27.6700	  553.00	  580.26	-1820.51	  410.06
     27.7700	  572.00	  605.96	-1827.21	  409.73
     27.8700	  618.00	  644.62	-1819.87	  409.40
     27.9700	  685.00	  696.34	-1804.59	  409.08
     28.0700	  765.00	  755.19	-1783.44	  408.75
     28.1700	  848.00	  806.44	-1751.69	  408.43
     28.2700	  949.00	  828.01	-1672.26	  408.11
     28.3700	  881.00	  807.03	-1719.28	  407.79
     28.4700	  806.00	  764.54	-1751.79	  407.47
     28.5700	  747.00	  735.00	-1781.25	  407.15
     28.6700	  729.00	  734.16	-1798.41	  406.83
     28.7700	  727.00	  757.39	-1823.64	  406.52
     28.8700	  797.00	  785.17	-1781.42	  406.20
     28.9700	  833.00	  789.92	-1750.17	  405.89
     29.0700	  763.00	  754.06	-1784.31	  405.57
     29.1700	  678.00	  692.86	-1808.11	  405.26
     29.2700	  634.00	  634.51	-1793.76	  404.95
     29.3700	  610.00	  592.48	-1775.73	  404.64
     29.4700	  634.00	  567.15	-1726.40	  404.33
     29.5700	  608.00	  553.51	-1738.76	  404.03
     29.6700	  604.00	  546.34	-1735.59	  403.72
     29.7700	  593.00	  542.29	-1742.54	  403.42
     29.8700	  570.00	  539.78	-1763.03	  403.11
     29.9700	  537.00	  538.20	-1794.45	  402.81
     30.0700	  608.00	  537.43	-1722.68	  402.51
     30.1700	  574.00	  537.63	-1756.88	  402.21
     30.2700	  564.00	  539.37	-1768.62	  401.92
     30.3700	  555.00	  543.75	-1782.00	  401.62
     30.4700	  550.00	  552.47	-1795.72	  401.32
     30.5700	  520.00	  567.34	-1840.59	  401.03
     30.6700	  573.00	  588.93	-1809.18	  400.74
     30.7700	  573.00	  614.62	-1834.87	  400.45
     30.8700	  613.00	  637.14	-1817.39	  400.16
     30.9700	  617.00	  645.31	-1821.56	  399.87
     31.0700	  627.00	  631.36	-1797.61	  399.58
     31.1700	  584.00	  602.64	-1811.89	  399.30
     31.2700	  572.00	  573.72	-1794.97	  399.01
     31.3700	  519.00	  552.41	-1826.66	  398.73
     31.4700	  546.00	  539.53	-1786.78	  398.45
     31.5700	  525.00	  532.69	-1800.94	  398.17
     31.6700	  586.00	  529.21	-1736.46	  397.89
     31.7700	  531.00	  527.30	-1789.55	  397.61
     31.8700	  526.00	  526.10	-1793.35	  397.34
     31.9700	  522.00	  525.27	-1796.52	  397.06
     32.0700	  553.00	  524.68	-1764.93	  396.79
     32.1700	  545.00	  524.28	-1772.53	  396.52
     32.2700	  535.00	  524.04	-1782.29	  396.25
     32.3700	  507.00	  523.96	-1810.21	  395.98
     32.4700	  503.00	  524.03	-1814.28	  395.72
     32.5700	  546.00	  524.28	-1771.53	  395.45
     32.6700	  519.00	  524.73	-1798.98	  395.19
     32.7700	  535.00	  525.42	-1783.67	  394.93
     32.8700	  544.00	  526.43	-1775.68	  394.67
     32.9700	  502.00	  527.87	-1819.12	  394.41
     33.0700	  569.00	  529.96	-1754.21	  394.15
     33.1700	  529.00	  533.15	-1797.40	  393.89
     33.2700	  509.00	  538.50	-1822.75	  393.64
     33.3700	  563.00	  548.37	-1778.62	  393.39
     33.4700	  533.00	  567.29	-1827.54	  393.14
     33.5700	  627.00	  602.60	-1768.85	  392.89
     33.6700	  675.00	  663.04	-1781.29	  392.64
     33.7700	  741.00	  752.81	-1805.06	  392.39
     33.8700	  878.00	  862.66	-1777.91	  392.15
     33.9700	 1029.00	  963.36	-1727.61	  391.90
     34.0700	 1155.00	 1009.35	-1647.60	  391.66
     34.1700	 1028.00	  966.17	-1731.42	  391.42
     34.2700	  924.00	  855.94	-1725.19	  391.19
     34.3700	  709.00	  736.41	-1820.66	  390.95
     34.4700	  635.00	  643.85	-1802.10	  390.71
     34.5700	  576.00	  585.90	-1803.15	  390.48
     34.6700	  574.00	  554.79	-1774.04	  390.25
     34.7700	  525.00	  539.34	-1807.59	  390.02
     34.8700	  576.00	  531.36	-1748.61	  389.79
     34.9700	  513.00	  526.63	-1806.88	  389.56
     35.0700	  516.00	  523.38	-1800.63	  389.34
     35.1700	  507.00	  520.93	-1807.18	  389.12
     35.2700	  535.00	  518.99	-1777.24	  388.90
     35.3700	  532.00	  517.44	-1778.69	  388.68
     35.4700	  511.00	  516.14	-1798.39	  388.46
     35.5700	  530.00	  515.04	-1778.29	  388.24
     35.6700	  526.00	  514.11	-1781.36	  388.03
     35.7700	  463.00	  513.29	-1843.54	  387.81
     35.8700	  554.00	  512.58	-1751.83	  387.60
     35.9700	  496.00	  512.44	-1809.69	  387.39
     36.0700	  558.00	  511.88	-1747.13	  387.18
     36.1700	  502.00	  511.38	-1802.63	  386.98
     36.2700	  529.00	  510.93	-1775.18	  386.77
     36.3700	  506.00	  510.52	-1797.77	  386.57
     36.4700	  552.00	  510.15	-1751.40	  386.37
     36.5700	  523.00	  509.82	-1780.07	  386.17
     36.6700	  507.00	  509.54	-1795.79	  385.97
     36.7700	  543.00	  509.29	-1759.54	  385.78
     36.8700	  494.00	  509.12	-1808.37	  385.58
     36.9700	  491.00	  509.05	-1811.30	  385.39
     37.0700	  529.00	  509.22	-1773.47	  385.20
     37.1700	  490.00	  509.86	-1813.11	  385.01
     37.2700	  517.00	  511.33	-1787.58	  384.82
     37.3700	  514.00	  514.03	-1793.28	  384.64
     37.4700	  566.00	  518.07	-1745.32	  384.45
     37.5700	  487.00	  522.86	-1829.11	  384.27
     37.6700	  511.00	  527.04	-1809.29	  384.09
     37.7700	  558.00	  528.91	-1764.16	  383.91
     37.8700	  534.00	  527.85	-1787.10	  383.74
     37.9700	  506.00	  524.94	-1812.19	  383.56
     38.0700	  500.00	  521.24	-1814.49	  383.39
     38.1700	  506.00	  517.17	-1804.42	  383.22
     38.2700	  526.00	  513.25	-1780.50	  383.05
     38.3700	  508.00	  510.08	-1795.33	  382.88
     38.4700	  535.00	  507.84	-1766.09	  382.72
     38.5700	  481.00	  506.41	-1818.66	  382.55
     38.6700	  544.00	  505.45	-1754.70	  382.39
     38.7700	  526.00	  504.92	-1772.17	  382.23
     38.8700	  508.00	  504.56	-1789.81	  382.07
     38.9700	  496.00	  504.28	-1801.53	  381.91
     39.0700	  477.00	  504.05	-1820.30	  381.76
     39.1700	  509.00	  503.76	-1788.01	  381.60
     39.2700	  468.00	  503.58	-1828.83	  381.45
     39.3700	  490.00	  503.40	-1806.65	  381.30
     39.4700	  497.00	  503.25	-1799.50	  381.15
     39.5700	  522.00	  503.10	-1774.35	  381.01
     39.6700	  491.00	  503.09	-1805.34	  380.86
     39.7700	  464.00	  502.96	-1832.21	  380.72
     39.8700	  508.00	  502.85	-1788.10	  380.58
     39.9700	  530.00	  502.75	-1766.00	  380.44
     40.0700	  494.00	  502.65	-1801.90	  380.30
     40.1700	  512.00	  502.57	-1783.82	  380.17
     40.2700	  512.00	  502.50	-1783.75	  380.03
     40.3700	  502.00	  502.44	-1793.69	  379.90
     40.4700	  508.00	  502.40	-1787.65	  379.77
     40.5700	  468.00	  502.37	-1827.62	  379.64
     40.6700	  488.00	  502.36	-1807.61	  379.51
     40.7700	  452.00	  502.37	-1843.62	  379.39
     40.8700	  504.00	  502.40	-1791.65	  379.27
     40.9700	  492.00	  502.46	-1803.71	  379.14
     41.0700	  513.00	  502.55	-1782.80	  379.03
     41.1700	  519.00	  502.65	-1776.90	  378.91
     41.2700	  483.00	  502.84	-1813.09	  378.79
     41.3700	  495.00	  503.10	-1801.35	  378.68
     41.4700	  536.00	  503.44	-1760.69	  378.56
     41.5700	  507.00	  503.90	-1790.15	  378.45
     41.6700	  517.00	  504.96	-1781.21	  378.34
     41.7700	  492.00	  505.92	-1807.17	  378.24
     41.8700	  503.00	  507.51	-1797.76	  378.13
     41.9700	  470.00	  510.45	-1833.70	  378.03
     42.0700	  519.00	  516.20	-1790.45	  377.93
     42.1700	  532.00	  527.13	-1788.38	  377.83
     42.2700	  526.00	  546.13	-1813.38	  377.73
     42.3700	  546.00	  575.06	-1822.31	  377.63
     42.4700	  566.00	  611.90	-1839.15	  377.54
     42.5700	  614.00	  648.90	-1828.15	  377.44
     42.6700	  619.00	  672.81	-1847.06	  377.35
     42.7700	  598.00	  671.33	-1866.58	  377.26
     42.8700	  613.00	  644.23	-1824.48	  377.17
     42.9700	  576.00	  605.30	-1822.55	  377.09
     43.0700	  548.00	  568.52	-1813.77	  377.00
     43.1700	  515.00	  540.95	-1819.20	  376.92
     43.2700	  509.00	  523.55	-1807.80	  376.84
     43.3700	  525.00	  513.95	-1782.20	  376.76
     43.4700	  510.00	  509.07	-1792.32	  376.68
     43.5700	  531.00	  506.59	-1768.84	  376.61
     43.6700	  471.00	  505.20	-1827.45	  376.53
     43.7700	  488.00	  504.49	-1809.74	  376.46
     43.8700	  493.00	  503.86	-1804.11	  376.39
     43.9700	  480.00	  503.38	-1816.63	  376.32
     44.0700	  518.00	  503.01	-1778.26	  376.26
     44.1700	  486.00	  502.77	-1810.02	  376.19
     44.2700	  514.00	  502.55	-1781.80	  376.13
     44.3700	  508.00	  502.39	-1787.64	  376.07
     44.4700	  545.00	  502.28	-1750.53	  376.01
     44.5700	  449.00	  502.07	-1846.32	  375.95
     44.6700	  504.00	  502.03	-1791.28	  375.89
     44.7700	  481.00	  502.01	-1814.26	  375.84
     44.8700	  518.00	  502.03	-1777.28	  375.78
     44.9700	  493.00	  502.06	-1802.31	  375.73
     45.0700	  567.00	  502.12	-1728.37	  375.68
     45.1700	  502.00	  502.20	-1793.45	  375.63
     45.2700	  506.00	  502.49	-1789.74	  375.59
     45.3700	  493.00	  502.62	-1802.87	  375.54
     45.4700	  518.00	  502.77	-1778.02	  375.50
     45.5700	  462.00	  502.94	-1834.19	  375.46
     45.6700	  496.00	  503.14	-1800.39	  375.42
     45.7700	  511.00	  503.37	-1785.62	  375.38
     45.8700	  542.00	  503.62	-1754.87	  375.34
     45.9700	  532.00	  503.90	-1765.15	  375.31
     46.0700	  494.00	  504.22	-1803.47	  375.27
     46.1700	  543.00	  504.57	-1754.82	  375.24
     46.2700	  499.00	  504.97	-1799.22	  375.21
     46.3700	  514.00	  505.41	-1784.66	  375.18
     46.4700	  460.00	  505.91	-1839.16	  375.15
     46.5700	  495.00	  506.48	-1804.73	  375.13
     46.6700	  507.00	  507.13	-1793.38	  375.11
     46.7700	  558.00	  507.88	-1743.13	  375.08
     46.8700	  495.00	  508.78	-1807.03	  375.06
     46.9700	  494.00	  509.94	-1809.19	  375.04
     47.0700	  496.00	  511.58	-1808.83	  375.03
     47.1700	  525.00	  514.20	-1782.45	  375.01
     47.2700	  558.00	  518.62	-1753.87	  375.00
     47.3700	  514.00	  526.01	-1805.26	  374.99
     47.4700	  576.00	  537.40	-1754.65	  374.97
     47.5700	  579.00	  553.13	-1767.38	  374.97
     47.6700	  565.00	  571.74	-1799.99	  374.96
     47.7700	  654.00	  589.41	-1728.66	  374.95
     47.8700	  594.00	  600.52	-1799.77	  374.95
     47.9700	  578.00	  600.52	-1815.77	  374.94
     48.0700	  578.00	  590.09	-1805.34	  374.94
     48.1700	  546.00	  574.76	-1822.01	  374.94
     48.2700	  562.00	  560.10	-1791.35	  374.94
     48.3700	  559.00	  549.35	-1783.60	  374.95
     48.4700	  471.00	  543.46	-1865.71	  374.95
     48.5700	  549.00	  541.86	-1786.11	  374.96
     48.6700	  514.00	  543.49	-1822.74	  374.96
     48.7700	  538.00	  547.44	-1802.69	  374.97
     48.8700	  560.00	  553.29	-1786.54	  374.98
     48.9700	  514.00	  561.15	-1840.40	  375.00
     49.0700	  549.00	  571.72	-1815.97	  375.01
     49.1700	  593.00	  586.78	-1787.03	  375.02
     49.2700	  587.00	  609.94	-1816.19	  375.04
     49.3700	  660.00	  648.12	-1781.37	  375.06
     49.4700	  768.00	  712.91	-1738.16	  375.08
     49.5700	  800.00	  820.88	-1814.13	  375.10
     49.6700	  922.00	  991.11	-1862.36	  375.12
     49.7700	 1180.00	 1236.84	-1850.09	  375.15
     49.8700	 1494.00	 1556.34	-1855.59	  375.17
     49.9700	 1909.00	 1919.36	-1803.61	  375.20
     50.0700	 2359.00	 2258.34	-1692.59	  375.22
     50.1700	 2618.00	 2473.29	-1648.54	  375.25
     50.2700	 2491.00	 2475.65	-1777.90	  375.29
     50.3700	 2301.00	 2262.03	-1754.28	  375.32
     50.4700	 1902.00	 1921.61	-1812.86	  375.35
     50.5700	 1392.00	 1559.06	-1960.31	  375.39
     50.6700	 1069.00	 1243.43	-1967.68	  375.42
     50.7700	  845.00	 1004.76	-1953.01	  375.46
     50.8700	  751.00	  844.41	-1886.66	  375.50
     50.9700	  696.00	  746.87	-1844.12	  375.54
     51.0700	  659.00	  690.72	-1824.97	  375.58
     51.1700	  647.00	  656.59	-1802.84	  375.62
     51.2700	  597.00	  631.55	-1827.80	  375.67
     51.3700	  552.00	  610.07	-1851.32	  375.71
     51.4700	  568.00	  591.32	-1816.57	  375.76
     51.5700	  559.00	  575.84	-1810.09	  375.81
     51.6700	  589.00	  563.99	-1768.24	  375.86
     51.7700	  569.00	  555.54	-1779.79	  375.91
     51.8700	  517.00	  549.81	-1826.06	  375.96
     51.9700	  555.00	  546.04	-1784.29	  376.02
     52.0700	  567.00	  543.63	-1769.88	  376.07
     52.1700	  544.00	  542.22	-1791.47	  376.13
     52.2700	  574.00	  541.69	-1760.94	  376.18
     52.3700	  568.00	  542.36	-1767.61	  376.24
     52.4700	  555.00	  544.14	-1782.39	  376.30
     52.5700	  572.00	  548.20	-1769.45	  376.36
     52.6700	  559.00	  556.59	-1790.84	  376.43
     52.7700	  595.00	  573.16	-1771.41	  376.49
     52.8700	  640.00	  604.06	-1757.31	  376.55
     52.9700	  710.00	  657.11	-1740.36	  376.62
     53.0700	  789.00	  739.30	-1743.55	  376.69
     53.1700	  941.00	  852.07	-1704.32	  376.75
     53.2700	 1042.00	  986.19	-1737.44	  376.82
     53.3700	 1134.00	 1118.28	-1777.53	  376.89
     53.4700	 1131.00	 1212.58	-1874.83	  376.97
     53.5700	 1136.00	 1233.83	-1891.08	  377.04
     53.6700	 1141.00	 1172.18	-1824.43	  377.11
     53.7700	  999.00	 1053.16	-1847.41	  377.19
     53.8700	  907.00	  915.80	-1802.05	  377.26
     53.9700	  794.00	  790.59	-1789.84	  377.34
     54.0700	  657.00	  693.41	-1829.66	  377.42
     54.1700	  631.00	  627.34	-1789.59	  377.50
     54.2700	  607.00	  587.28	-1773.53	  377.58
     54.3700	  552.00	  565.24	-1806.49	  377.66
     54.4700	  552.00	  553.95	-1795.20	  377.75
     54.5700	  576.00	  548.51	-1765.76	  377.83
     54.6700	  559.00	  546.05	-1780.30	  377.91
     54.7700	  615.00	  545.19	-1723.44	  378.00
     54.8700	  570.00	  545.34	-1768.59	  378.09
     54.9700	  546.00	  546.27	-1793.52	  378.18
     55.0700	  516.00	  547.91	-1825.16	  378.26
     55.1700	  523.00	  550.26	-1820.51	  378.35
     55.2700	  587.00	  553.40	-1759.65	  378.45
     55.3700	  567.00	  557.46	-1783.71	  378.54
     55.4700	  584.00	  562.62	-1771.87	  378.63
     55.5700	  550.00	  569.27	-1812.52	  378.72
     55.6700	  536.00	  578.18	-1835.43	  378.82
     55.7700	  562.00	  590.97	-1822.22	  378.92
     55.8700	  612.00	  610.88	-1792.13	  379.01
     55.9700	  554.00	  644.09	-1883.34	  379.11
     56.0700	  644.00	  700.99	-1850.24	  379.21
     56.1700	  728.00	  796.89	-1862.14	  379.31
     56.2700	  910.00	  950.30	-1833.55	  379.41
     56.3700	 1093.00	 1177.61	-1877.86	  379.51
     56.4700	 1346.00	 1484.34	-1931.59	  379.61
     56.5700	 1757.00	 1854.66	-1890.91	  379.72
     56.6700	 2149.00	 2243.41	-1887.66	  379.82
     56.7700	 2503.00	 2573.72	-1863.97	  379.93
     56.8700	 2611.00	 2750.99	-1933.24	  380.03
     56.9700	 2686.00	 2709.70	-1816.95	  380.14
     57.0700	 2399.00	 2465.79	-1860.04	  380.25
     57.1700	 2082.00	 2103.85	-1815.10	  380.36
     57.2700	 1672.00	 1716.57	-1837.82	  380.46
     57.3700	 1238.00	 1369.61	-1924.86	  380.57
     57.4700	 1127.00	 1096.25	-1762.50	  380.69
     57.5700	  850.00	  903.22	-1846.47	  380.80
     57.6700	  764.00	  780.06	-1809.31	  380.91
     57.7700	  712.00	  709.42	-1790.67	  381.02
     57.8700	  701.00	  674.95	-1767.20	  381.14
     57.9700	  689.00	  665.16	-1769.41	  381.25
     58.0700	  677.00	  674.05	-1790.30	  381.37
     58.1700	  683.00	  699.66	-1809.91	  381.48
     58.2700	  842.00	  742.14	-1693.39	  381.60
     58.3700	  856.00	  801.78	-1739.03	  381.72
     58.4700	  936.00	  877.25	-1734.50	  381.84
     58.5700	 1033.00	  963.97	-1724.22	  381.96
     58.6700	 1247.00	 1053.47	-1599.72	  382.07
     58.7700	 1369.00	 1135.83	-1560.08	  382.20
     58.8700	 1585.00	 1204.00	-1412.25	  382.32
     58.9700	 1562.00	 1253.94	-1485.19	  382.44
     59.0700	 1619.00	 1280.37	-1454.62	  382.56
     59.1700	 1562.00	 1278.64	-1509.89	  382.68
     59.2700	 1406.00	 1252.72	-1639.97	  382.81
     59.3700	 1384.00	 1215.69	-1624.94	  382.93
     59.4700	 1234.00	 1181.13	-1740.38	  383.06
     59.5700	 1209.00	 1158.06	-1742.31	  383.18
     59.6700	 1118.00	 1153.57	-1828.82	  383.31
     59.7700	 1133.00	 1175.73	-1835.98	  383.43
     59.8700	 1225.00	 1229.93	-1798.18	  383.56
     59.9700	 1355.00	 1312.40	-1750.65	  383.69
     60.0700	 1527.00	 1406.94	-1673.19	  383.82
     60.1700	 1591.00	 1485.24	-1687.49	  383.95
     60.2700	 1651.00	 1514.05	-1656.30	  384.08
     60.3700	 1566.00	 1472.33	-1699.58	  384.21
     60.4700	 1434.00	 1366.41	-1725.66	  384.34
     60.5700	 1279.00	 1223.28	-1737.53	  384.47
     60.6700	 1122.00	 1072.34	-1743.59	  384.60
     60.7700	  903.00	  935.14	-1825.39	  384.73
     60.8700	  774.00	  823.85	-1843.10	  384.86
     60.9700	  712.00	  742.71	-1823.96	  385.00
     61.0700	  679.00	  690.53	-1804.78	  385.13
     61.1700	  598.00	  663.96	-1859.21	  385.26
     61.2700	  640.00	  660.18	-1813.43	  385.40
     61.3700	  709.00	  678.72	-1762.97	  385.53
     61.4700	  664.00	  721.63	-1850.88	  385.67
     61.5700	  751.00	  792.23	-1834.48	  385.80
     61.6700	  850.00	  892.64	-1835.89	  385.94
     61.7700	  966.00	 1020.68	-1847.93	  386.07
     61.8700	 1032.00	 1167.12	-1928.37	  386.21
     61.9700	 1187.00	 1313.90	-1920.15	  386.35
     62.0700	 1369.00	 1434.03	-1858.28	  386.48
     62.1700	 1379.00	 1496.85	-1911.10	  386.62
     62.2700	 1438.00	 1481.90	-1837.15	  386.76
     62.3700	 1329.00	 1393.65	-1857.90	  386.90
     62.4700	 1173.00	 1258.01	-1878.26	  387.04
     62.5700	 1065.00	 1105.64	-1833.89	  387.17
     62.6700	  903.00	  960.50	-1850.75	  387.31
     62.7700	  781.00	  837.30	-1849.55	  387.45
     62.8700	  674.00	  742.08	-1861.33	  387.59
     62.9700	  612.00	  674.28	-1855.53	  387.73
     63.0700	  588.00	  629.38	-1834.63	  387.87
     63.1700	  598.00	  601.45	-1796.70	  388.01
     63.2700	  559.00	  585.03	-1819.28	  388.15
     63.3700	  564.00	  576.07	-1805.32	  388.29
     63.4700	  548.00	  572.15	-1817.40	  388.44
     63.5700	  549.00	  572.36	-1816.61	  388.58
     63.6700	  563.00	  577.04	-1807.29	  388.72
     63.7700	  570.00	  587.57	-1810.82	  388.86
     63.8700	  590.00	  606.01	-1809.26	  389.00
     63.9700	  622.00	  634.62	-1805.87	  389.14
     64.0700	  743.00	  675.00	-1725.25	  389.28
     64.1700	  786.00	  727.14	-1734.39	  389.43
     64.2700	  865.00	  788.40	-1716.65	  389.57
     64.3700	  931.00	  852.85	-1715.10	  389.71
     64.4700	  960.00	  911.23	-1744.48	  389.85
     64.5700	  978.00	  951.96	-1767.21	  390.00
     64.6700	 1019.00	  967.06	-1741.31	  390.14
     64.7700	 1035.00	  953.57	-1711.82	  390.28
     64.8700	  956.00	  916.26	-1753.51	  390.42
     64.9700	  871.00	  864.06	-1786.31	  390.57
     65.0700	  903.00	  806.86	-1697.11	  390.71
     65.1700	  791.00	  752.69	-1754.94	  390.85
     65.2700	  763.00	  706.17	-1736.42	  391.00
     65.3700	  699.00	  668.62	-1762.87	  391.14
     65.4700	  647.00	  639.18	-1785.43	  391.28
     65.5700	  626.00	  616.36	-1783.61	  391.42
     65.6700	  590.00	  598.83	-1802.08	  391.57
     65.7700	  585.00	  585.60	-1793.85	  391.71
     65.8700	  556.00	  575.92	-1813.17	  391.85
     65.9700	  586.00	  569.23	-1776.48	  392.00
     66.0700	  523.00	  565.06	-1835.31	  392.14
     66.1700	  555.00	  562.99	-1801.24	  392.28
     66.2700	  572.00	  562.66	-1783.91	  392.42
     66.3700	  585.00	  563.77	-1772.02	  392.57
     66.4700	  596.00	  566.15	-1763.40	  392.71
     66.5700	  572.00	  569.85	-1791.10	  392.85
     66.6700	  568.00	  575.22	-1800.47	  392.99
     66.7700	  548.00	  583.22	-1828.47	  393.13
     66.8700	  591.00	  595.28	-1797.53	  393.28
     66.9700	  578.00	  614.43	-1829.68	  393.42
     67.0700	  677.00	  645.28	-1761.53	  393.56
     67.1700	  672.00	  694.58	-1815.83	  393.70
     67.2700	  773.00	  770.92	-1791.17	  393.84
     67.3700	  890.00	  883.67	-1786.92	  393.98
     67.4700	 1026.00	 1040.73	-1807.98	  394.12
     67.5700	 1258.00	 1245.21	-1780.46	  394.26
     67.6700	 1508.00	 1492.01	-1777.26	  394.41
     67.7700	 1734.00	 1764.65	-1823.90	  394.55
     67.8700	 2078.00	 2034.01	-1749.26	  394.69
     67.9700	 2275.00	 2259.29	-1777.54	  394.82
     68.0700	 2507.00	 2394.55	-1680.80	  394.96
     68.1700	 2369.00	 2405.27	-1829.52	  395.10
     68.2700	 2298.00	 2288.42	-1783.67	  395.24
     68.3700	 2026.00	 2074.63	-1841.88	  395.38
     68.4700	 1868.00	 1809.60	-1734.85	  395.52
     68.5700	 1532.00	 1535.60	-1796.85	  395.66
     68.6700	 1257.00	 1283.79	-1820.04	  395.79
     68.7700	 1089.00	 1072.40	-1776.65	  395.93
     68.8700	  833.00	  908.34	-1868.59	  396.07
     68.9700	  757.00	  789.59	-1825.84	  396.21
     69.0700	  745.00	  708.65	-1756.90	  396.34
     69.1700	  666.00	  656.21	-1783.46	  396.48
     69.2700	  628.00	  623.46	-1788.71	  396.61
     69.3700	  625.00	  603.35	-1771.60	  396.75
     69.4700	  610.00	  590.92	-1774.17	  396.88
     69.5700	  617.00	  583.00	-1759.25	  397.02
     69.6700	  596.00	  577.75	-1775.00	  397.15
     69.7700	  596.00	  574.15	-1771.40	  397.28
     69.8700	  539.00	  571.67	-1825.92	  397.42
     69.9700	  619.00	  570.04	-1744.29	  397.55
     70.0700	  520.00	  569.14	-1842.39	  397.68
     70.1700	  608.00	  568.92	-1754.17	  397.81
     70.2700	  582.00	  569.42	-1780.67	  397.94
     70.3700	  554.00	  570.68	-1809.93	  398.08
     70.4700	  550.00	  572.97	-1816.22	  398.21
     70.5700	  570.00	  576.73	-1799.98	  398.34
     70.6700	  574.00	  582.81	-1802.06	  398.46
     70.7700	  602.00	  592.68	-1783.93	  398.59
     70.8700	  592.00	  608.76	-1810.01	  398.72
     70.9700	  599.00	  634.61	-1828.86	  398.85
     71.0700	  621.00	  675.12	-1847.37	  398.98
     71.1700	  686.00	  736.18	-1843.43	  399.10
     71.2700	  819.00	  823.87	-1798.12	  399.23
     71.3700	  913.00	  942.96	-1823.21	  399.35
     71.4700	 1060.00	 1095.72	-1828.97	  399.48
     71.5700	 1253.00	 1276.60	-1816.85	  399.60
     71.6700	 1424.00	 1475.50	-1844.75	  399.73
     71.7700	 1627.00	 1673.96	-1840.21	  399.85
     71.8700	 1781.00	 1846.44	-1858.69	  399.97
     71.9700	 1963.00	 1963.51	-1793.76	  400.09
     72.0700	 2002.00	 2000.16	-1791.41	  400.21
     72.1700	 1916.00	 1947.71	-1824.96	  400.33
     72.2700	 1773.00	 1818.95	-1839.20	  400.45
     72.3700	 1674.00	 1640.28	-1759.53	  400.57
     72.4700	 1527.00	 1441.57	-1707.82	  400.69
     72.5700	 1454.00	 1246.55	-1585.80	  400.81
     72.6700	 1236.00	 1071.99	-1629.24	  400.93
     72.7700	 1025.00	  926.99	-1695.24	  401.04
     72.8700	  973.00	  814.01	-1634.26	  401.16
     72.9700	  810.00	  730.79	-1714.04	  401.27
     73.0700	  807.00	  672.32	-1658.56	  401.39
     73.1700	  785.00	  632.72	-1640.97	  401.50
     73.2700	  711.00	  606.52	-1688.77	  401.61
     73.3700	  673.00	  589.32	-1709.57	  401.73
     73.4700	  672.00	  577.96	-1699.21	  401.84
     73.5700	  581.00	  570.32	-1782.57	  401.95
     73.6700	  557.00	  565.12	-1801.37	  402.06
     73.7700	  570.00	  561.61	-1784.86	  402.16
     73.8700	  630.00	  559.35	-1722.60	  402.27
     73.9700	  554.00	  558.08	-1797.33	  402.38
     74.0700	  581.00	  557.62	-1769.87	  402.49
     74.1700	  597.00	  557.78	-1754.03	  402.59
     74.2700	  620.00	  558.38	-1731.63	  402.70
     74.3700	  593.00	  559.15	-1759.40	  402.80
     74.4700	  614.00	  559.81	-1739.06	  402.90
     74.5700	  660.00	  560.06	-1693.31	  403.01
     74.6700	  636.00	  559.68	-1716.93	  403.11
     74.7700	  625.00	  558.57	-1726.82	  403.21
     74.8700	  643.00	  556.90	-1707.15	  403.31
     74.9700	  623.00	  554.92	-1725.17	  403.41
     75.0700	  568.00	  552.98	-1778.23	  403.50
     75.1700	  584.00	  551.40	-1760.65	  403.60
     75.2700	  570.00	  550.54	-1773.79	  403.70
     75.3700	  589.00	  550.88	-1755.13	  403.79
     75.4700	  570.00	  552.80	-1776.05	  403.89
     75.5700	  531.00	  556.69	-1818.94	  403.98
     75.6700	  561.00	  563.28	-1795.53	  404.07
     75.7700	  591.00	  572.97	-1775.22	  404.16
     75.8700	  600.00	  586.10	-1779.35	  404.25
     75.9700	  561.00	  602.68	-1834.93	  404.34
     76.0700	  591.00	  622.22	-1824.47	  404.43
     76.1700	  659.00	  643.64	-1777.89	  404.52
     76.2700	  657.00	  665.20	-1801.45	  404.60
     76.3700	  694.00	  684.55	-1783.80	  404.69
     76.4700	  772.00	  698.94	-1720.19	  404.77
     76.5700	  740.00	  705.84	-1759.09	  404.86
     76.6700	  690.00	  703.83	-1807.08	  404.94
     76.7700	  698.00	  693.30	-1788.55	  405.02
     76.8700	  648.00	  676.27	-1821.52	  405.10
     76.9700	  638.00	  655.26	-1810.51	  405.18
     77.0700	  659.00	  633.26	-1767.51	  405.26
     77.1700	  590.00	  612.18	-1815.43	  405.34
     77.2700	  595.00	  593.45	-1791.70	  405.41
     77.3700	  496.00	  577.88	-1875.13	  405.49
     77.4700	  550.00	  565.66	-1808.91	  405.56
     77.5700	  529.00	  556.57	-1820.82	  405.63
     77.6700	  560.00	  550.14	-1783.39	  405.71
     77.7700	  542.00	  545.77	-1797.02	  405.78
     77.8700	  511.00	  542.92	-1825.17	  405.85
     77.9700	  527.00	  541.09	-1807.34	  405.92
     78.0700	  511.00	  539.95	-1822.20	  405.98
     78.1700	  536.00	  539.24	-1796.49	  406.05
     78.2700	  506.00	  538.81	-1826.06	  406.11
     78.3700	  537.00	  538.55	-1794.80	  406.18
     78.4700	  524.00	  538.42	-1807.67	  406.24
     78.5700	  555.00	  538.39	-1776.64	  406.30
     78.6700	  537.00	  538.46	-1794.71	  406.36
     78.7700	  492.00	  538.64	-1839.89	  406.42
     78.8700	  544.00	  538.96	-1788.21	  406.48
     78.9700	  536.00	  539.44	-1796.69	  406.54
     79.0700	  575.00	  540.13	-1758.38	  406.59
     79.1700	  481.00	  541.11	-1853.36	  406.65
     79.2700	  500.00	  542.25	-1835.50	  406.70
     79.3700	  527.00	  543.98	-1810.23	  406.76
     79.4700	  524.00	  546.20	-1815.45	  406.81
     79.5700	  527.00	  548.97	-1815.22	  406.86
     79.6700	  483.00	  552.39	-1862.64	  406.91
     79.7700	  500.00	  556.56	-1849.81	  406.95
     79.8700	  569.00	  561.60	-1785.85	  407.00
     79.9700	  492.00	  567.68	-1868.93	  407.04
     80.0700	  578.00	  575.01	-1790.26	  407.09
     80.1700	  569.00	  583.87	-1808.12	  407.13
     80.2700	  545.00	  594.59	-1842.84	  407.17
     80.3700	  581.00	  607.44	-1819.69	  407.21
     80.4700	  602.00	  622.54	-1813.79	  407.25
     80.5700	  620.00	  639.71	-1812.96	  407.29
     80.6700	  639.00	  658.42	-1812.67	  407.32
     80.7700	  641.00	  677.70	-1829.95	  407.36
     80.8700	  705.00	  696.23	-1784.48	  407.39
     80.9700	  678.00	  712.48	-1827.73	  407.43
     81.0700	  720.00	  725.07	-1798.32	  407.46
     81.1700	  751.00	  732.98	-1775.23	  407.49
     81.2700	  741.00	  735.59	-1787.84	  407.52
     81.3700	  791.00	  732.77	-1735.02	  407.54
     81.4700	  763.00	  724.86	-1755.11	  407.57
     81.5700	  788.00	  712.68	-1717.93	  407.59
     81.6700	  776.00	  697.24	-1714.49	  407.62
     81.7700	  758.00	  679.65	-1714.90	  407.64
     81.8700	  760.00	  660.99	-1694.24	  407.66
     81.9700	  697.00	  642.30	-1738.55	  407.68
     82.0700	  673.00	  624.60	-1744.85	  407.70
     82.1700	  612.00	  608.54	-1789.79	  407.71
     82.2700	  627.00	  594.53	-1760.78	  407.73
     82.3700	  588.00	  582.75	-1788.00	  407.74
     82.4700	  596.00	  573.18	-1770.43	  407.76
     82.5700	  617.00	  565.70	-1741.95	  407.77
     82.6700	  579.00	  560.20	-1774.45	  407.78
     82.7700	  529.00	  556.49	-1820.74	  407.79
     82.8700	  547.00	  554.40	-1800.65	  407.79
     82.9700	  582.00	  553.81	-1765.06	  407.80
     83.0700	  560.00	  554.61	-1787.86	  407.80
     83.1700	  548.00	  556.70	-1801.95	  407.81
     83.2700	  502.00	  559.98	-1851.23	  407.81
     83.3700	  547.00	  564.28	-1810.53	  407.81
     83.4700	  524.00	  569.39	-1838.64	  407.81
     83.5700	  528.00	  574.96	-1840.21	  407.81
     83.6700	  637.00	  580.56	-1736.81	  407.80
     83.7700	  562.00	  585.67	-1816.92	  407.80
     83.8700	  546.00	  589.70	-1836.95	  407.79
     83.9700	  571.00	  592.07	-1814.32	  407.78
     84.0700	  594.00	  592.38	-1791.63	  407.77
     84.1700	  536.00	  590.56	-1847.81	  407.76
     84.2700	  580.00	  586.86	-1800.11	  407.75
     84.3700	  548.00	  581.78	-1827.03	  407.74
     84.4700	  541.00	  575.91	-1828.16	  407.72
     84.5700	  556.00	  569.76	-1807.01	  407.71
     84.6700	  555.00	  563.80	-1802.05	  407.69
     84.7700	  525.00	  558.34	-1826.59	  407.67
     84.8700	  551.00	  553.60	-1795.85	  407.65
     84.9700	  527.00	  549.68	-1815.93	  407.63
     85.0700	  526.00	  546.59	-1813.84	  407.60
     85.1700	  547.00	  544.28	-1790.53	  407.58
     85.2700	  545.00	  542.67	-1790.92	  407.55
     85.3700	  514.00	  541.65	-1820.90	  407.52
     85.4700	  509.00	  541.13	-1825.38	  407.49
     85.5700	  521.00	  541.02	-1813.27	  407.46
     85.6700	  550.00	  541.26	-1784.51	  407.43
     85.7700	  524.00	  541.82	-1811.07	  407.40
     85.8700	  493.00	  542.72	-1842.97	  407.36
     85.9700	  538.00	  543.97	-1799.22	  407.33
     86.0700	  535.00	  545.64	-1803.89	  407.29
     86.1700	  548.00	  547.83	-1793.08	  407.25
     86.2700	  517.00	  550.65	-1826.90	  407.21
     86.3700	  543.00	  554.23	-1804.48	  407.17
     86.4700	  529.00	  558.73	-1822.98	  407.12
     86.5700	  592.00	  564.25	-1765.50	  407.08
     86.6700	  559.00	  570.86	-1805.11	  407.03
     86.7700	  587.00	  578.21	-1784.46	  406.98
     86.8700	  583.00	  586.71	-1796.96	  406.93
     86.9700	  585.00	  595.69	-1803.94	  406.88
     87.0700	  630.00	  604.65	-1767.90	  406.83
     87.1700	  634.00	  612.90	-1772.15	  406.77
     87.2700	  641.00	  619.69	-1771.94	  406.72
     87.3700	  632.00	  624.26	-1785.51	  406.66
     87.4700	  648.00	  626.00	-1771.25	  406.60
     87.5700	  632.00	  624.66	-1785.91	  406.54
     87.6700	  642.00	  620.45	-1771.70	  406.48
     87.7700	  627.00	  613.97	-1780.22	  406.42
     87.8700	  641.00	  606.04	-1758.29	  406.36
     87.9700	  609.00	  597.54	-1781.79	  406.29
     88.0700	  592.00	  589.27	-1790.52	  406.22
     88.1700	  569.00	  581.91	-1806.16	  406.16
     88.2700	  603.00	  575.99	-1766.24	  406.09
     88.3700	  578.00	  571.87	-1787.12	  406.01
     88.4700	  600.00	  569.71	-1762.96	  405.94
     88.5700	  581.00	  569.52	-1781.77	  405.87
     88.6700	  574.00	  571.16	-1790.41	  405.79
     88.7700	  567.00	  574.36	-1800.61	  405.71
     88.8700	  621.00	  578.72	-1750.97	  405.64
     88.9700	  598.00	  583.77	-1779.02	  405.56
     89.0700	  569.00	  588.96	-1813.21	  405.47
     89.1700	  575.00	  593.71	-1811.96	  405.39
     89.2700	  589.00	  597.41	-1801.66	  405.31
     89.3700	  602.00	  599.55	-1790.80	  405.22
     89.4700	  650.00	  599.78	-1743.03	  405.13
     89.5700	  578.00	  598.03	-1813.28	  405.05
     89.6700	  586.00	  594.48	-1801.73	  404.96
     89.7700	  593.00	  589.56	-1789.81	  404.86
     89.8700	  588.00	  583.74	-1788.99	  404.77
     89.9700	  512.00	  577.51	-1858.76	  404.68
     90.0700	  611.00	  571.30	-1753.55	  404.58
     90.1700	  492.00	  565.43	-1866.68	  404.48
     90.2700	  572.00	  560.14	-1781.39	  404.38
     90.3700	  540.00	  555.59	-1808.84	  404.28
     90.4700	  550.00	  551.83	-1795.08	  404.18
     90.5700	  549.00	  548.87	-1793.12	  404.08
     90.6700	  532.00	  546.63	-1807.88	  403.98
     90.7700	  521.00	  545.05	-1817.30	  403.87
     90.8700	  544.00	  544.02	-1793.27	  403.76
     90.9700	  516.00	  543.47	-1820.72	  403.65
     91.0700	  516.00	  543.32	-1820.57	  403.54
     91.1700	  509.00	  543.54	-1827.79	  403.43
     91.2700	  537.00	  544.13	-1800.38	  403.32
     91.3700	  521.00	  545.13	-1817.38	  403.20
     91.4700	  527.00	  546.61	-1812.86	  403.09
     91.5700	  518.00	  548.68	-1823.93	  402.97
     91.6700	  482.00	  551.50	-1862.75	  402.85
     91.7700	  542.00	  555.25	-1806.50	  402.73
     91.8700	  546.00	  559.90	-1807.15	  402.61
     91.9700	  536.00	  566.09	-1823.34	  402.49
     92.0700	  589.00	  573.77	-1778.02	  402.37
     92.1700	  576.00	  583.07	-1800.32	  402.24
     92.2700	  607.00	  594.03	-1780.28	  402.11
     92.3700	  569.00	  606.60	-1830.85	  401.99
     92.4700	  600.00	  620.60	-1813.85	  401.86
     92.5700	  603.00	  635.76	-1826.01	  401.73
     92.6700	  692.00	  651.62	-1752.87	  401.59
     92.7700	  680.00	  667.66	-1780.91	  401.46
     92.8700	  729.00	  683.23	-1747.48	  401.33
     92.9700	  740.00	  697.69	-1750.94	  401.19
     93.0700	  742.00	  710.50	-1761.75	  401.05
     93.1700	  790.00	  721.39	-1724.64	  400.91
     93.2700	  770.00	  730.47	-1753.72	  400.77
     93.3700	  819.00	  738.19	-1712.44	  400.63
     93.4700	  862.00	  745.23	-1676.48	  400.49
     93.5700	  829.00	  752.30	-1716.55	  400.35
     93.6700	  848.00	  760.05	-1705.30	  400.20
     93.7700	  794.00	  769.05	-1768.30	  400.05
     93.8700	  893.00	  779.76	-1680.01	  399.91
     93.9700	  859.00	  792.58	-1726.83	  399.76
     94.0700	  805.00	  807.75	-1796.00	  399.61
     94.1700	  865.00	  825.28	-1753.53	  399.46
     94.2700	  835.00	  844.84	-1803.09	  399.30
     94.3700	  811.00	  865.63	-1847.88	  399.15
     94.4700	  897.00	  886.42	-1782.67	  398.99
     94.5700	  925.00	  905.57	-1773.82	  398.84
     94.6700	  935.00	  921.15	-1779.40	  398.68
     94.7700	  953.00	  931.19	-1771.44	  398.52
     94.8700	  887.00	  934.02	-1840.27	  398.36
     94.9700	  927.00	  928.72	-1794.97	  398.20
     95.0700	  934.00	  915.36	-1774.61	  398.04
     95.1700	  849.00	  894.99	-1839.24	  397.87
     95.2700	  848.00	  869.37	-1814.62	  397.71
     95.3700	  773.00	  840.58	-1860.83	  397.54
     95.4700	  789.00	  810.73	-1814.98	  397.38
     95.5700	  777.00	  781.88	-1798.13	  397.21
     95.6700	  705.00	  755.88	-1844.13	  397.04
     95.7700	  697.00	  734.41	-1830.66	  396.87
     95.8700	  699.00	  718.94	-1813.19	  396.69
     95.9700	  687.00	  710.79	-1817.04	  396.52
     96.0700	  703.00	  711.08	-1801.33	  396.35
     96.1700	  734.00	  720.76	-1780.01	  396.17
     96.2700	  755.00	  740.55	-1778.80	  396.00
     96.3700	  730.00	  770.95	-1834.20	  395.82
     96.4700	  814.00	  812.09	-1791.34	  395.64
     96.5700	  861.00	  863.67	-1795.92	  395.46
     96.6700	  914.00	  924.85	-1804.10	  395.28
     96.7700	  979.00	  994.14	-1808.39	  395.10
     96.8700	 1043.00	 1069.39	-1819.64	  394.92
     96.9700	 1117.00	 1147.67	-1823.92	  394.73
     97.0700	 1232.00	 1225.38	-1786.63	  394.55
     97.1700	 1263.00	 1298.32	-1828.57	  394.36
     97.2700	 1394.00	 1361.91	-1761.16	  394.17
     97.3700	 1387.00	 1411.57	-1817.82	  393.99
     97.4700	 1496.00	 1443.29	-1740.54	  393.80
     97.5700	 1408.00	 1454.40	-1839.65	  393.61
     97.6700	 1442.00	 1444.22	-1795.47	  393.42
     97.7700	 1433.00	 1414.13	-1774.38	  393.23
     97.8700	 1371.00	 1367.23	-1789.48	  393.03
     97.9700	 1337.00	 1307.60	-1763.85	  392.84
     98.0700	 1200.00	 1239.76	-1833.01	  392.65
     98.1700	 1136.00	 1168.12	-1825.37	  392.45
     98.2700	 1074.00	 1096.68	-1815.93	  392.25
     98.3700	 1011.00	 1028.97	-1811.22	  392.06
     98.4700	  975.00	  967.93	-1786.18	  391.86
     98.5700	  918.00	  915.93	-1791.18	  391.66
     98.6700	  831.00	  874.76	-1837.01	  391.46
     98.7700	  798.00	  845.77	-1841.02	  391.26
     98.8700	  835.00	  829.88	-1788.13	  391.06
     98.9700	  801.00	  827.74	-1819.99	  390.86
     99.0700	  858.00	  839.74	-1774.99	  390.65
     99.1700	  822.00	  866.08	-1837.33	  390.45
     99.2700	  870.00	  906.77	-1830.02	  390.24
     99.3700	  974.00	  961.57	-1780.82	  390.04
     99.4700	 1032.00	 1029.96	-1791.21	  389.83
     99.5700	 1097.00	 1111.05	-1807.30	  389.62
     99.6700	 1180.00	 1203.50	-1816.75	  389.42
     99.7700	 1259.00	 1305.36	-1839.61	  389.21
     99.8700	 1382.00	 1414.01	-1825.26	  389.00
     99.9700	 1581.00	 1526.12	-1738.37	  388.79
    100.0700	 1634.00	 1637.72	-1796.97	  388.58
    100.1700	 1794.00	 1744.37	-1743.62	  388.37
    100.2700	 1842.00	 1841.52	-1792.77	  388.16
    100.3700	 1942.00	 1925.05	-1776.30	  387.94
    100.4700	 2086.00	 1991.70	-1698.95	  387.73
    100.5700	 2171.00	 2039.19	-1661.44	  387.52
    100.6700	 2061.00	 2066.07	-1798.32	  387.30
    100.7700	 2132.00	 2071.49	-1732.74	  387.09
    100.8700	 2072.00	 2055.14	-1776.39	  386.87
    100.9700	 2090.00	 2017.52	-1720.77	  386.66
    101.0700	 2076.00	 1960.28	-1677.53	  386.44
    101.1700	 1926.00	 1886.42	-1753.67	  386.22
    101.2700	 1811.00	 1800.23	-1782.48	  386.00
    101.3700	 1825.00	 1706.72	-1674.97	  385.79
    101.4700	 1604.00	 1610.99	-1800.24	  385.57
    101.5700	 1574.00	 1517.68	-1736.93	  385.35
    101.6700	 1404.00	 1430.62	-1819.87	  385.13
    101.7700	 1284.00	 1352.68	-1861.93	  384.91
    101.8700	 1243.00	 1285.62	-1835.87	  384.69
    101.9700	 1236.00	 1230.14	-1787.39	  384.47
    102.0700	 1155.00	 1185.89	-1824.14	  384.25
    102.1700	 1164.00	 1151.63	-1780.88	  384.03
    102.2700	 1168.00	 1125.40	-1750.65	  383.80
    102.3700	 1169.00	 1104.69	-1728.94	  383.58
    102.4700	 1121.00	 1086.76	-1759.01	  383.36
    102.5700	 1025.00	 1068.94	-1837.19	  383.14
    102.6700	 1089.00	 1048.99	-1753.24	  382.91
    102.7700	 1024.00	 1025.42	-1794.67	  382.69
    102.8700	  961.00	  997.56	-1829.81	  382.47
    102.9700	  980.00	  965.54	-1778.79	  382.24
    103.0700	  837.00	  930.07	-1886.32	  382.02
    103.1700	  821.00	  892.23	-1864.48	  381.79
    103.2700	  854.00	  853.22	-1792.47	  381.57
    103.3700	  763.00	  814.26	-1844.51	  381.34
    103.4700	  786.00	  776.47	-1783.72	  381.12
    103.5700	  775.00	  740.79	-1759.04	  380.90
    103.6700	  676.00	  707.98	-1825.23	  380.67
    103.7700	  719.00	  678.55	-1752.80	  380.44
    103.8700	  636.00	  652.80	-1810.05	  380.22
    103.9700	  634.00	  630.83	-1790.08	  379.99
    104.0700	  593.00	  612.55	-1812.80	  379.77
    104.1700	  621.00	  597.74	-1769.99	  379.54
    104.2700	  559.00	  586.09	-1820.34	  379.32
    104.3700	  559.00	  577.22	-1811.47	  379.09
    104.4700	  576.00	  570.76	-1788.01	  378.87
    104.5700	  551.00	  566.31	-1808.56	  378.64
    104.6700	  572.00	  563.53	-1784.78	  378.42
    104.7700	  539.00	  562.09	-1816.34	  378.19
    104.8700	  546.00	  561.70	-1808.95	  377.97
    104.9700	  560.00	  562.15	-1795.40	  377.74
    105.0700	  542.00	  563.26	-1814.51	  377.52
    105.1700	  565.00	  564.86	-1793.11	  377.29
    105.2700	  540.00	  566.83	-1820.08	  377.07
    105.3700	  515.00	  569.14	-1847.39	  376.85
    105.4700	  557.00	  571.74	-1807.99	  376.62
    105.5700	  512.00	  574.64	-1855.89	  376.40
    105.6700	  555.00	  577.92	-1816.17	  376.18
    105.7700	  599.00	  581.66	-1775.91	  375.95
    105.8700	  591.00	  585.99	-1788.24	  375.73
    105.9700	  530.00	  591.01	-1854.26	  375.51
    106.0700	  575.00	  596.83	-1815.08	  375.29
    106.1700	  578.00	  603.50	-1818.75	  375.06
    106.2700	  613.00	  611.03	-1791.28	  374.84
    106.3700	  577.00	  619.34	-1835.59	  374.62
    106.4700	  599.00	  628.31	-1822.56	  374.40
    106.5700	  576.00	  637.72	-1854.97	  374.18
    106.6700	  625.00	  647.30	-1815.55	  373.96
    106.7700	  624.00	  656.72	-1825.97	  373.74
    106.8700	  632.00	  665.61	-1826.86	  373.53
    106.9700	  663.00	  673.58	-1803.83	  373.31
    107.0700	  691.00	  680.27	-1782.52	  373.09
    107.1700	  653.00	  685.37	-1825.62	  372.88
    107.2700	  716.00	  688.71	-1765.96	  372.66
    107.3700	  740.00	  690.27	-1743.52	  372.45
    107.4700	  662.00	  690.24	-1821.49	  372.23
    107.5700	  674.00	  688.91	-1808.16	  372.02
    107.6700	  642.00	  686.69	-1837.94	  371.80
    107.7700	  694.00	  684.03	-1783.28	  371.59
    107.8700	  704.00	  681.35	-1770.60	  371.38
    107.9700	  651.00	  679.02	-1821.27	  371.17
    108.0700	  668.00	  677.28	-1802.53	  370.96
    108.1700	  677.00	  676.31	-1792.56	  370.75
    108.2700	  688.00	  676.14	-1781.39	  370.54
    108.3700	  701.00	  676.70	-1768.95	  370.34
    108.4700	  716.00	  677.80	-1755.05	  370.13
    108.5700	  661.00	  679.16	-1811.41	  369.93
    108.6700	  705.00	  680.41	-1768.66	  369.72
    108.7700	  662.00	  681.18	-1812.43	  369.52
    108.8700	  680.00	  681.03	-1794.28	  369.32
    108.9700	  715.00	  679.66	-1757.91	  369.12
    109.0700	  651.00	  676.81	-1819.06	  368.92
    109.1700	  647.00	  672.36	-1818.61	  368.72
    109.2700	  619.00	  666.36	-1840.61	  368.52
    109.3700	  637.00	  658.98	-1815.23	  368.32
    109.4700	  641.00	  650.45	-1802.70	  368.13
    109.5700	  706.00	  641.11	-1728.36	  367.93
    109.6700	  615.00	  631.27	-1809.52	  367.74
    109.7700	  577.00	  621.27	-1837.52	  367.55
    109.8700	  618.00	  611.39	-1786.64	  367.36
    109.9700	  680.00	  601.92	-1715.17	  367.17
    110.0700	  628.00	  593.06	-1758.31	  366.98
    110.1700	  599.00	  584.99	-1779.24	  366.80
    110.2700	  561.00	  577.83	-1810.08	  366.61
    110.3700	  589.00	  571.64	-1775.89	  366.43
    110.4700	  579.00	  566.44	-1780.69	  366.25
    110.5700	  567.00	  562.22	-1788.47	  366.07
    110.6700	  543.00	  558.92	-1809.17	  365.89
    110.7700	  578.00	  556.49	-1771.74	  365.71
    110.8700	  555.00	  554.83	-1793.08	  365.54
    110.9700	  542.00	  553.86	-1805.11	  365.36
    111.0700	  573.00	  553.49	-1773.74	  365.19
    111.1700	  504.00	  553.63	-1842.88	  365.02
    111.2700	  540.00	  554.22	-1807.47	  364.85
    111.3700	  588.00	  555.18	-1760.43	  364.69
    111.4700	  562.00	  556.47	-1787.72	  364.52
    111.5700	  529.00	  558.03	-1822.28	  364.36
    111.6700	  550.00	  559.85	-1803.10	  364.20
    111.7700	  527.00	  561.90	-1828.15	  364.04
    111.8700	  610.00	  564.16	-1747.41	  363.88
    111.9700	  583.00	  566.64	-1776.89	  363.72
    112.0700	  613.00	  569.33	-1749.58	  363.57
    112.1700	  543.00	  572.24	-1822.49	  363.42
    112.2700	  565.00	  575.41	-1803.66	  363.27
    112.3700	  591.00	  578.85	-1781.10	  363.12
    112.4700	  570.00	  582.60	-1805.85	  362.97
    112.5700	  592.00	  586.72	-1787.97	  362.83
    112.6700	  625.00	  591.27	-1759.52	  362.69
    112.7700	  639.00	  596.33	-1750.58	  362.55
    112.8700	  674.00	  602.02	-1721.27	  362.41
    112.9700	  717.00	  608.48	-1684.73	  362.28
    113.0700	  704.00	  615.89	-1705.14	  362.15
    113.1700	  704.00	  624.53	-1713.78	  362.02
    113.2700	  730.00	  634.69	-1697.94	  361.89
    113.3700	  808.00	  646.79	-1632.04	  361.76
    113.4700	  759.00	  661.34	-1695.59	  361.64
    113.5700	  845.00	  678.99	-1627.24	  361.52
    113.6700	  923.00	  700.52	-1570.77	  361.40
    113.7700	  906.00	  726.90	-1614.15	  361.29
    113.8700	  896.00	  759.31	-1656.56	  361.18
    113.9700	  995.00	  799.10	-1597.35	  361.07
    114.0700	  996.00	  847.86	-1645.11	  360.96
    114.1700	 1099.00	  907.38	-1601.63	  360.85
    114.2700	 1176.00	  979.66	-1596.91	  360.75
    114.3700	 1260.00	 1066.88	-1600.13	  360.65
    114.4700	 1317.00	 1171.32	-1647.57	  360.56
    114.5700	 1425.00	 1295.30	-1663.55	  360.46
    114.6700	 1570.00	 1441.08	-1664.33	  360.37
    114.7700	 1782.00	 1610.80	-1622.05	  360.28
    114.8700	 1942.00	 1806.31	-1657.56	  360.20
    114.9700	 2114.00	 2028.96	-1708.21	  360.12
    115.0700	 2406.00	 2279.52	-1666.77	  360.04
    115.1700	 2632.00	 2557.96	-1719.21	  359.96
    115.2700	 2844.00	 2863.41	-1812.66	  359.89
    115.3700	 3151.00	 3194.02	-1836.27	  359.82
    115.4700	 3460.00	 3546.69	-1879.94	  359.75
    115.5700	 3604.00	 3917.16	-2106.41	  359.69
    115.6700	 4177.00	 4299.91	-1916.16	  359.63
    115.7700	 4362.00	 4688.31	-2119.56	  359.57
    115.8700	 4729.00	 5074.54	-2138.79	  359.52
    115.9700	 5185.00	 5449.62	-2057.87	  359.47
    116.0700	 5487.00	 5803.69	-2109.94	  359.42
    116.1700	 5953.00	 6126.18	-1966.43	  359.38
    116.2700	 6310.00	 6406.41	-1889.66	  359.34
    116.3700	 6629.00	 6634.01	-1798.26	  359.30
    116.4700	 6869.00	 6799.65	-1723.90	  359.27
    116.5700	 6918.00	 6896.14	-1771.39	  359.24
    116.6700	 7173.00	 6919.11	-1539.36	  359.21
    116.7700	 6876.00	 6867.69	-1784.94	  359.19
    116.8700	 6864.00	 6744.53	-1673.78	  359.17
    116.9700	 6532.00	 6555.52	-1816.77	  359.15
    117.0700	 6406.00	 6309.00	-1696.25	  359.14
    117.1700	 6072.00	 6014.93	-1736.18	  359.14
    117.2700	 5578.00	 5683.90	-1899.15	  359.13
    117.3700	 5213.00	 5326.45	-1906.70	  359.13
    117.4700	 4977.00	 4952.77	-1769.02	  359.14
    117.5700	 4539.00	 4572.17	-1826.42	  359.15
    117.6700	 4305.00	 4192.99	-1681.24	  359.16
    117.7700	 4051.00	 3822.30	-1564.55	  359.18
    117.8700	 3667.00	 3465.97	-1592.22	  359.20
    117.9700	 3325.00	 3128.75	-1597.00	  359.22
    118.0700	 2912.00	 2814.12	-1695.37	  359.25
    118.1700	 2644.00	 2524.47	-1673.72	  359.28
    118.2700	 2267.00	 2261.09	-1787.34	  359.32
    118.3700	 2022.00	 2024.33	-1795.58	  359.36
    118.4700	 1715.00	 1813.88	-1892.13	  359.41
    118.5700	 1476.00	 1628.74	-1945.99	  359.46
    118.6700	 1363.00	 1467.45	-1897.70	  359.51
    118.7700	 1209.00	 1328.19	-1912.44	  359.57
    118.8700	 1034.00	 1208.89	-1968.14	  359.64
    118.9700	 1029.00	 1107.47	-1871.72	  359.71
    119.0700	  941.00	 1021.78	-1874.03	  359.78
    119.1700	  887.00	  949.78	-1856.03	  359.86
    119.2700	  813.00	  889.53	-1869.78	  359.94
    119.3700	  750.00	  839.27	-1882.52	  360.03
    119.4700	  717.00	  797.44	-1873.69	  360.12
    119.5700	  734.00	  762.67	-1821.92	  360.22
    119.6700	  667.00	  733.77	-1860.02	  360.32
    119.7700	  681.00	  709.74	-1821.99	  360.43
    119.8700	  626.00	  689.72	-1856.97	  360.54
    119.9700	  608.00	  673.03	-1858.28	  360.66
    120.0700	  617.00	  659.08	-1835.33	  360.78
    120.1700	  602.00	  647.42	-1838.67	  360.91
    120.2700	  583.00	  637.67	-1847.92	  361.04
    120.3700	  588.00	  629.52	-1834.77	  361.18
    120.4700	  569.00	  622.73	-1846.98	  361.32
    120.5700	  587.00	  617.11	-1823.36	  361.47
    120.6700	  579.00	  612.51	-1826.76	  361.62
    120.7700	  587.00	  608.82	-1815.07	  361.78
    120.8700	  569.00	  605.95	-1830.20	  361.95
    120.9700	  595.00	  603.81	-1802.06	  362.12
    121.0700	  591.00	  602.36	-1804.61	  362.29
    121.1700	  583.00	  601.55	-1811.80	  362.47
    121.2700	  591.00	  601.34	-1803.59	  362.66
    121.3700	  574.00	  601.69	-1820.94	  362.85
    121.4700	  542.00	  602.56	-1853.81	  363.05
    121.5700	  592.00	  603.91	-1805.16	  363.26
    121.6700	  599.00	  605.69	-1799.94	  363.47
    121.7700	  601.00	  607.83	-1800.08	  363.68
    121.8700	  588.00	  610.27	-1815.52	  363.90
    121.9700	  588.00	  612.96	-1818.21	  364.13
    122.0700	  585.00	  615.80	-1824.05	  364.37
    122.1700	  662.00	  618.70	-1749.95	  364.61
    122.2700	  582.00	  621.57	-1832.82	  364.85
    122.3700	  642.00	  624.32	-1775.57	  365.10
    122.4700	  661.00	  626.82	-1759.07	  365.36
    122.5700	  603.00	  629.00	-1819.25	  365.63
    122.6700	  610.00	  630.77	-1814.02	  365.90
    122.7700	  630.00	  632.05	-1795.30	  366.18
    122.8700	  665.00	  632.79	-1761.04	  366.46
    122.9700	  611.00	  632.95	-1815.20	  366.75
    123.0700	  648.00	  632.52	-1777.77	  367.05
    123.1700	  701.00	  631.54	-1723.79	  367.36
    123.2700	  631.00	  630.02	-1792.27	  367.67
    123.3700	  617.00	  628.02	-1804.27	  367.98
    123.4700	  618.00	  625.60	-1800.85	  368.31
    123.5700	  624.00	  622.83	-1792.08	  368.64
    123.6700	  649.00	  619.77	-1764.02	  368.98
    123.7700	  646.00	  616.50	-1763.75	  369.32
    123.8700	  603.00	  613.09	-1803.34	  369.68
    123.9700	  613.00	  609.59	-1789.84	  370.03
    124.0700	  651.00	  606.07	-1748.32	  370.40
    124.1700	  642.00	  602.58	-1753.83	  370.77
    124.2700	  633.00	  599.17	-1759.42	  371.16
    124.3700	  640.00	  595.88	-1749.13	  371.54
    124.4700	  627.00	  592.74	-1758.99	  371.94
    124.5700	  607.00	  589.77	-1776.02	  372.34
    124.6700	  630.00	  587.00	-1750.25	  372.75
    124.7700	  610.00	  584.45	-1767.70	  373.17
    124.8700	  604.00	  582.12	-1771.37	  373.60
    124.9700	  585.00	  493.74	-1701.99	  374.03
    125.0700	  599.00	  494.18	-1793.25	  374.47
    125.1700	  638.00	  494.63	-1793.25	  374.92
    125.2700	  578.00	  495.09	-1793.25	  375.37
    125.3700	  603.00	  495.55	-1793.25	  375.84
    125.4700	  561.00	  496.02	-1793.25	  376.31
    125.5700	  601.00	  496.50	-1793.25	  376.79
    125.6700	  534.00	  496.99	-1793.25	  377.28
    125.7700	  552.00	  497.49	-1793.25	  377.77
    125.8700	  522.00	  497.99	-1793.25	  378.28
    125.9700	  617.00	  498.50	-1793.25	  378.79
    126.0700	  562.00	  499.02	-1793.25	  379.31
    126.1700	  596.00	  499.55	-1793.25	  379.84
    126.2700	  518.00	  500.09	-1793.25	  380.38
    126.3700	  578.00	  500.64	-1793.25	  380.92
    126.4700	  559.00	  501.19	-1793.25	  381.48
    126.5700	  586.00	  501.75	-1793.25	  382.04
    126.6700	  593.00	  502.32	-1793.25	  382.61
    126.7700	  619.00	  502.90	-1793.25	  383.19
    126.8700	  679.00	  503.49	-1793.25	  383.78
    126.9700	  652.00	  504.09	-1793.25	  384.38
    127.0700	  579.00	  504.70	-1793.25	  384.99
    127.1700	  639.00	  505.31	-1793.25	  385.60
    127.2700	  601.00	  505.94	-1793.25	  386.23
    127.3700	  621.00	  506.57	-1793.25	  386.86
    127.4700	  626.00	  507.22	-1793.25	  387.50
    127.5700	  685.00	  507.87	-1793.25	  388.16
    127.6700	  673.00	  508.53	-1793.25	  388.82
    127.7700	  697.00	  509.20	-1793.25	  389.49
    127.8700	  795.00	  509.88	-1793.25	  390.17
    127.9700	  705.00	  510.57	-1793.25	  390.86
    128.0700	  720.00	  511.27	-1793.25	  391.56
    128.1700	  749.00	  511.98	-1793.25	  392.27
    128.2700	  787.00	  512.70	-1793.25	  392.98
    128.3700	  833.00	  513.42	-1793.25	  393.71
    128.4700	  777.00	  514.16	-1793.25	  394.45
    128.5700	    0.00	  514.91	-1793.25	  395.20
    128.6700	    0.00	  515.67	-1793.25	  395.95
     12.3087	        	        	        	        	       0	(  0  0  2)	  0  1
     24.8923	        	        	        	        	       0	(  0  0  4)	  0  1
     28.3320	        	        	        	        	       0	(  1  0  0)	  0  1
     29.0293	        	        	        	        	       0	(  1  0  1)	  0  1
     31.0357	        	        	        	        	       0	(  1  0  2)	  0  1
     34.1443	        	        	        	        	       0	(  1  0  3)	  0  1
     37.7919	        	        	        	        	       0	(  0  0  6)	  0  1
     38.1216	        	        	        	        	       0	(  1  0  4)	  0  1
     42.7720	        	        	        	        	       0	(  1  0  5)	  0  1
     47.9563	        	        	        	        	       0	(  1  0  6)	  0  1
     50.2678	        	        	        	        	       0	(  1  1  0)	  0  1
     51.2138	        	        	        	        	       0	(  0  0  8)	  0  1
     51.9910	        	        	        	        	       0	(  1  1  2)	  0  1
     53.5869	        	        	        	        	       0	(  1  0  7)	  0  1
     56.9392	        	        	        	        	       0	(  1  1  4)	  0  1
     58.7643	        	        	        	        	       0	(  2  0  0)	  0  1
     59.1559	        	        	        	        	       0	(  2  0  1)	  0  1
     59.6175	        	        	        	        	       0	(  1  0  8)	  0  1
     60.3214	        	        	        	        	       0	(  2  0  2)	  0  1
     62.2348	        	        	        	        	       0	(  2  0  3)	  0  1
     64.6344	        	        	        	        	       0	(  1  1  6)	  0  1
     64.8590	        	        	        	        	       0	(  2  0  4)	  0  1
     65.4429	        	        	        	        	       0	(  0  0 10)	  0  1
     66.0340	        	        	        	        	       0	(  1  0  9)	  0  1
     68.1535	        	        	        	        	       0	(  2  0  5)	  0  1
     72.0812	        	        	        	        	       0	(  2  0  6)	  0  1
     72.8502	        	        	        	        	       0	(  1  0 10)	  0  1
     74.6725	        	        	        	        	       0	(  1  1  8)	  0  1
     76.6155	        	        	        	        	       0	(  2  0  7)	  0  1
     80.1079	        	        	        	        	       0	(  1  0 11)	  0  1
     80.9233	        	        	        	        	       0	(  0  0 12)	  0  1
     81.0041	        	        	        	        	       0	(  2  1  0)	  0  1
     81.3439	        	        	        	        	       0	(  2  1  1)	  0  1
     81.7460	        	        	        	        	       0	(  2  0  8)	  0  1
     82.3618	        	        	        	        	       0	(  2  1  2)	  0  1
     84.0532	        	        	        	        	       0	(  2  1  3)	  0  1
     86.4130	        	        	        	        	       0	(  2  1  4)	  0  1
     86.9442	        	        	        	        	       0	(  1  1 10)	  0  1
     87.4841	        	        	        	        	       0	(  2  0  9)	  0  1
     87.8822	        	        	        	        	       0	(  1  0 12)	  0  1
     89.4389	        	        	        	        	       0	(  2  1  5)	  0  1
     93.1364	        	        	        	        	       0	(  2  1  6)	  0  1
     93.8717	        	        	        	        	       0	(  2  0 10)	  0  1
     94.8918	        	        	        	        	       0	(  3  0  0)	  0  1
     95.2291	        	        	        	        	       0	(  3  0  1)	  0  1
     96.2424	        	        	        	        	       0	(  3  0  2)	  0  1
     96.2955	        	        	        	        	       0	(  1  0 13)	  0  1
     97.5251	        	        	        	        	       0	(  2  1  7)	  0  1
     97.9357	        	        	        	        	       0	(  3  0  3)	  0  1
     98.4626	        	        	        	        	       0	(  0  0 14)	  0  1
    100.3187	        	        	        	        	       0	(  3  0  4)	  0  1
    100.9936	        	        	        	        	       0	(  2  0 11)	  0  1
    101.8147	        	        	        	        	       0	(  1  1 12)	  0  1
    102.6476	        	        	        	        	       0	(  2  1  8)	  0  1
    103.4104	        	        	        	        	       0	(  3  0  5)	  0  1
    105.5482	        	        	        	        	       0	(  1  0 14)	  0  1
    107.2454	        	        	        	        	       0	(  3  0  6)	  0  1
    108.5844	        	        	        	        	       0	(  2  1  9)	  0  1
    109.0049	        	        	        	        	       0	(  2  0 12)	  0  1
    111.8857	        	        	        	        	       0	(  3  0  7)	  0  1
    115.4812	        	        	        	        	       0	(  2  1 10)	  0  1
    115.9919	        	        	        	        	       0	(  1  0 15)	  0  1
    116.6143	        	        	        	        	       0	(  2  2  0)	  0  1
    117.4390	        	        	        	        	       0	(  3  0  8)	  0  1
    118.1295	        	        	        	        	       0	(  2  2  2)	  0  1
    118.1894	        	        	        	        	       0	(  2  0 13)	  0  1
    119.9517	        	        	        	        	       0	(  0  0 16)	  0  1
    120.6593	        	        	        	        	       0	(  1  1 14)	  0  1
    122.8147	        	        	        	        	       0	(  2  2  4)	  0  1
    123.6082	        	        	        	        	       0	(  2  1 11)	  0  1
    124.0987	        	        	        	        	       0	(  3  0  9)	  0  1
    124.6783	        	        	        	        	       0	(  3  1  0)	  0  1
    125.0885	        	        	        	        	       0	(  3  1  1)	  0  1
    126.3318	        	        	        	        	       0	(  3  1  2)	  0  1
    128.3364	        	        	        	        	       0	(  1  0 16)	  0  1
    128.4499	        	        	        	        	       0	(  3  1  3)	  0  1
    129.1199	        	        	        	        	       0	(  2  0 14)	  0  1
    131.2538	        	        	        	        	       0	(  2  2  6)	  0  1
    131.5255	        	        	        	        	       0	(  3  1  4)	  0  1
    132.2392	        	        	        	        	       0	(  3  0 10)	  0  1
    133.5208	        	        	        	        	       0	(  2  1 12)	  0  1
    135.7120	        	        	        	        	       0	(  3  1  5)	  0  1
    141.3066	        	        	        	        	       0	(  3  1  6)	  0  1
    142.7181	        	        	        	        	       0	(  3  0 11)	  0  1
    143.2629	        	        	        	        	       0	(  2  0 15)	  0  1
    144.5116	        	        	        	        	       0	(  1  0 17)	  0  1
    145.4864	        	        	        	        	       0	(  2  2  8)	  0  1
    146.6784	        	        	        	        	       0	(  2  1 13)	  0  1
    148.9784	        	        	        	        	       0	(  3  1  7)	  0  1
    149.6034	        	        	        	        	       0	(  1  1 16)	  0  1
    154.0210	        	        	        	        	       0	(  0  0 18)	  0  1
    158.6011	        	        	        	        	       0	(  3  0 12)	  0  1
    158.8221	        	        	        	        	       0	(  4  0  0)	  0  1
    159.7782	        	        	        	        	       0	(  4  0  1)	  0  1
    160.9698	        	        	        	        	       0	(  3  1  8)	  0  1
    162.9537	        	        	        	        	       0	(  4  0  2)	  0  1
    169.7661	        	        	        	        	       0	(  2  0 16)	  0  1
    170.2853	        	        	        	        	       0	(  4  0  3)	  0  1
    174.2158	        	        	        	        	       0	(  2  1 14)	  0  1
