MSG Master    CELL:    5.89023   5.89023  23.15001   90.0000   90.0000  120.0000   SPGR: P 63/m m c             TEMP:    649.55
  2   1280     2.52000     0.00000    -0.09527     0.00000     0.00000    0
    96    96     0     0     2
       0.00000      10.00000
     125.00000     130.00000
 2Theta	Yobs	Ycal	Yobs-Ycal	Backg	Posr	(hkl)	K
      0.7700	    0.00	  785.63	-1870.34	  661.78
      0.8700	    0.00	  784.23	-1870.34	  660.39
      0.9700	   33.00	  782.84	-1870.34	  659.00
      1.0700	   53.00	  781.46	-1870.34	  657.62
      1.1700	   47.00	  780.08	-1870.34	  656.24
      1.2700	   48.00	  778.70	-1870.34	  654.86
      1.3700	   56.00	  777.33	-1870.34	  653.49
      1.4700	  107.00	  775.97	-1870.34	  652.13
      1.5700	  265.00	  774.61	-1870.34	  650.77
      1.6700	  476.00	  773.25	-1870.34	  649.41
      1.7700	  545.00	  771.90	-1870.34	  648.06
      1.8700	  660.00	  770.56	-1870.34	  646.72
      1.9700	  722.00	  769.22	-1870.34	  645.38
      2.0700	  771.00	  767.88	-1870.34	  644.04
      2.1700	  762.00	  766.55	-1870.34	  642.71
      2.2700	  761.00	  765.23	-1870.34	  641.39
      2.3700	  766.00	  763.91	-1870.34	  640.07
      2.4700	  695.00	  762.59	-1870.34	  638.75
      2.5700	  754.00	  761.28	-1870.34	  637.44
      2.6700	  645.00	  759.97	-1870.34	  636.13
      2.7700	  742.00	  758.67	-1870.34	  634.83
      2.8700	  605.00	  757.38	-1870.34	  633.54
      2.9700	  586.00	  756.09	-1870.34	  632.24
      3.0700	  564.00	  754.80	-1870.34	  630.96
      3.1700	  647.00	  753.52	-1870.34	  629.68
      3.2700	  717.00	  752.24	-1870.34	  628.40
      3.3700	  908.00	  750.97	-1870.34	  627.13
      3.4700	 1031.00	  749.70	-1870.34	  625.86
      3.5700	 1172.00	  748.44	-1870.34	  624.60
      3.6700	 1338.00	  747.18	-1870.34	  623.34
      3.7700	 1424.00	  745.93	-1870.34	  622.09
      3.8700	 1503.00	  744.68	-1870.34	  620.84
      3.9700	 1459.00	  743.44	-1870.34	  619.60
      4.0700	 1557.00	  742.20	-1870.34	  618.36
      4.1700	 1555.00	  740.97	-1870.34	  617.13
      4.2700	 1625.00	  739.74	-1870.34	  615.90
      4.3700	 1562.00	  738.51	-1870.34	  614.67
      4.4700	 1504.00	  737.30	-1870.34	  613.45
      4.5700	 1455.00	  736.08	-1870.34	  612.24
      4.6700	 1428.00	  734.87	-1870.34	  611.03
      4.7700	 1334.00	  733.67	-1870.34	  609.83
      4.8700	 1357.00	  732.47	-1870.34	  608.63
      4.9700	 1307.00	  731.27	-1870.34	  607.43
      5.0700	 1260.00	  730.08	-1870.34	  606.24
      5.1700	 1186.00	  728.89	-1870.34	  605.05
      5.2700	 1212.00	  727.71	-1870.34	  603.87
      5.3700	 1164.00	  726.54	-1870.34	  602.70
      5.4700	 1129.00	  725.37	-1870.34	  601.52
      5.5700	 1070.00	  724.20	-1870.34	  600.36
      5.6700	 1082.00	  723.04	-1870.34	  599.19
      5.7700	 1082.00	  721.88	-1870.34	  598.04
      5.8700	 1051.00	  720.72	-1870.34	  596.88
      5.9700	  990.00	  719.58	-1870.34	  595.74
      6.0700	 1000.00	  718.43	-1870.34	  594.59
      6.1700	  973.00	  717.29	-1870.34	  593.45
      6.2700	  933.00	  716.16	-1870.34	  592.32
      6.3700	  975.00	  715.03	-1870.34	  591.19
      6.4700	  954.00	  713.90	-1870.34	  590.06
      6.5700	  919.00	  712.78	-1870.34	  588.94
      6.6700	  938.00	  711.67	-1870.34	  587.83
      6.7700	  872.00	  710.56	-1870.34	  586.72
      6.8700	  864.00	  709.45	-1870.34	  585.61
      6.9700	  871.00	  708.35	-1870.34	  584.51
      7.0700	  846.00	  707.25	-1870.34	  583.41
      7.1700	  823.00	  706.16	-1870.34	  582.32
      7.2700	  844.00	  705.07	-1870.34	  581.23
      7.3700	  816.00	  703.99	-1870.34	  580.15
      7.4700	  774.00	  702.91	-1870.34	  579.07
      7.5700	  833.00	  701.83	-1870.34	  577.99
      7.6700	  823.00	  700.76	-1870.34	  576.92
      7.7700	  743.00	  699.70	-1870.34	  575.86
      7.8700	  790.00	  698.64	-1870.34	  574.80
      7.9700	  719.00	  697.58	-1870.34	  573.74
      8.0700	  772.00	  696.53	-1870.34	  572.69
      8.1700	  743.00	  695.48	-1870.34	  571.64
      8.2700	  755.00	  694.44	-1870.34	  570.60
      8.3700	  765.00	  693.40	-1870.34	  569.56
      8.4700	  687.00	  692.37	-1870.34	  568.52
      8.5700	  707.00	  691.34	-1870.34	  567.50
      8.6700	  711.00	  690.31	-1870.34	  566.47
      8.7700	  715.00	  689.29	-1870.34	  565.45
      8.8700	  700.00	  688.27	-1870.34	  564.43
      8.9700	  650.00	  687.26	-1870.34	  563.42
      9.0700	  714.00	  686.26	-1870.34	  562.42
      9.1700	  734.00	  685.25	-1870.34	  561.41
      9.2700	  706.00	  684.26	-1870.34	  560.41
      9.3700	  737.00	  683.26	-1870.34	  559.42
      9.4700	  720.00	  682.27	-1870.34	  558.43
      9.5700	  693.00	  681.29	-1870.34	  557.45
      9.6700	  706.00	  680.31	-1870.34	  556.47
      9.7700	  709.00	  679.33	-1870.34	  555.49
      9.8700	  665.00	  678.36	-1870.34	  554.52
      9.9700	  669.00	  677.39	-1870.34	  553.55
     10.0700	  700.00	  678.55	-1848.89	  552.59
     10.1700	  692.00	  677.83	-1856.17	  551.63
     10.2700	  641.00	  677.16	-1906.50	  550.67
     10.3700	  756.00	  676.57	-1790.90	  549.72
     10.4700	  651.00	  676.07	-1895.41	  548.78
     10.5700	  676.00	  675.73	-1870.06	  547.84
     10.6700	  647.00	  675.60	-1898.94	  546.90
     10.7700	  714.00	  675.79	-1832.12	  545.97
     10.8700	  661.00	  676.39	-1885.73	  545.04
     10.9700	  692.00	  677.49	-1855.82	  544.12
     11.0700	  696.00	  679.11	-1853.44	  543.20
     11.1700	  668.00	  681.27	-1883.61	  542.28
     11.2700	  667.00	  684.00	-1887.33	  541.37
     11.3700	  703.00	  687.35	-1854.68	  540.46
     11.4700	  712.00	  691.44	-1849.77	  539.56
     11.5700	  710.00	  696.45	-1856.79	  538.66
     11.6700	  774.00	  702.65	-1798.98	  537.77
     11.7700	  719.00	  710.37	-1861.71	  536.88
     11.8700	  723.00	  719.93	-1867.27	  535.99
     11.9700	  784.00	  731.28	-1817.62	  535.11
     12.0700	  843.00	  743.54	-1770.88	  534.23
     12.1700	  835.00	  754.35	-1789.69	  533.36
     12.2700	  803.00	  759.33	-1826.67	  532.49
     12.3700	  797.00	  753.31	-1826.64	  531.63
     12.4700	  721.00	  735.76	-1885.09	  530.77
     12.5700	  701.00	  713.81	-1883.15	  529.91
     12.6700	  700.00	  694.51	-1864.84	  529.06
     12.7700	  640.00	  680.22	-1910.55	  528.21
     12.8700	  631.00	  670.54	-1909.88	  527.36
     12.9700	  627.00	  664.24	-1907.58	  526.53
     13.0700	  631.00	  660.02	-1899.36	  525.69
     13.1700	  627.00	  657.02	-1900.35	  524.86
     13.2700	  647.00	  654.69	-1878.03	  524.03
     13.3700	  652.00	  652.78	-1871.11	  523.21
     13.4700	  623.00	  651.12	-1898.45	  522.39
     13.5700	  683.00	  649.64	-1836.97	  521.57
     13.6700	  635.00	  648.29	-1883.63	  520.76
     13.7700	  614.00	  647.05	-1903.39	  519.95
     13.8700	  714.00	  645.89	-1802.23	  519.15
     13.9700	  658.00	  644.79	-1857.13	  518.35
     14.0700	  646.00	  643.74	-1868.08	  517.56
     14.1700	  609.00	  642.73	-1904.07	  516.77
     14.2700	  601.00	  641.76	-1911.10	  515.98
     14.3700	  612.00	  640.82	-1899.15	  515.20
     14.4700	  633.00	  639.90	-1877.24	  514.42
     14.5700	  635.00	  639.00	-1874.34	  513.64
     14.6700	  608.00	  638.12	-1900.46	  512.87
     14.7700	  617.00	  637.26	-1890.60	  512.11
     14.8700	  627.00	  636.41	-1879.75	  511.34
     14.9700	  599.00	  635.58	-1906.92	  510.58
     15.0700	  607.00	  634.76	-1898.09	  509.83
     15.1700	  678.00	  633.94	-1826.28	  509.08
     15.2700	  624.00	  633.14	-1879.48	  508.33
     15.3700	  645.00	  632.35	-1857.69	  507.59
     15.4700	  616.00	  631.56	-1885.90	  506.85
     15.5700	  632.00	  630.79	-1869.12	  506.11
     15.6700	  601.00	  630.02	-1899.36	  505.38
     15.7700	  625.00	  629.26	-1874.59	  504.66
     15.8700	  591.00	  628.50	-1907.84	  503.93
     15.9700	  604.00	  627.75	-1894.09	  503.21
     16.0700	  658.00	  627.01	-1839.35	  502.50
     16.1700	  608.00	  626.27	-1888.61	  501.78
     16.2700	  591.00	  625.54	-1904.88	  501.08
     16.3700	  628.00	  624.82	-1867.15	  500.37
     16.4700	  617.00	  624.10	-1877.43	  499.67
     16.5700	  617.00	  623.38	-1876.72	  498.97
     16.6700	  624.00	  622.67	-1869.01	  498.28
     16.7700	  655.00	  621.97	-1837.31	  497.59
     16.8700	  605.00	  621.27	-1886.61	  496.91
     16.9700	  574.00	  620.58	-1916.91	  496.23
     17.0700	  609.00	  619.89	-1881.22	  495.55
     17.1700	  610.00	  619.20	-1879.54	  494.87
     17.2700	  642.00	  618.52	-1846.86	  494.20
     17.3700	  635.00	  617.84	-1853.18	  493.54
     17.4700	  608.00	  617.17	-1879.51	  492.87
     17.5700	  615.00	  616.51	-1871.84	  492.21
     17.6700	  616.00	  615.84	-1870.18	  491.56
     17.7700	  588.00	  615.18	-1897.52	  490.91
     17.8700	  596.00	  614.53	-1888.87	  490.26
     17.9700	  606.00	  613.88	-1878.22	  489.62
     18.0700	  586.00	  613.23	-1897.57	  488.98
     18.1700	  604.00	  612.59	-1878.93	  488.34
     18.2700	  619.00	  611.96	-1863.29	  487.70
     18.3700	  605.00	  611.32	-1876.66	  487.08
     18.4700	  596.00	  611.86	-1886.19	  486.45
     18.5700	  604.00	  611.25	-1877.59	  485.83
     18.6700	  628.00	  611.35	-1853.69	  485.21
     18.7700	  632.00	  610.77	-1849.11	  484.59
     18.8700	  614.00	  610.20	-1866.54	  483.98
     18.9700	  562.00	  609.63	-1917.97	  483.37
     19.0700	  612.00	  609.07	-1867.41	  482.77
     19.1700	  672.00	  608.51	-1806.85	  482.17
     19.2700	  615.00	  607.96	-1863.30	  481.57
     19.3700	  572.00	  607.42	-1905.75	  480.98
     19.4700	  629.00	  606.87	-1848.21	  480.39
     19.5700	  641.00	  606.34	-1835.68	  479.80
     19.6700	  609.00	  605.81	-1867.15	  479.22
     19.7700	  618.00	  605.29	-1857.62	  478.64
     19.8700	  628.00	  604.77	-1847.10	  478.06
     19.9700	  591.00	  604.31	-1883.65	  477.49
     20.0700	  600.00	  603.81	-1874.14	  476.92
     20.1700	  636.00	  603.31	-1837.64	  476.36
     20.2700	  556.00	  602.81	-1917.15	  475.79
     20.3700	  602.00	  602.33	-1870.66	  475.24
     20.4700	  633.00	  601.85	-1839.19	  474.68
     20.5700	  571.00	  601.38	-1900.71	  474.13
     20.6700	  548.00	  600.91	-1923.25	  473.58
     20.7700	  600.00	  600.45	-1870.79	  473.04
     20.8700	  607.00	  600.00	-1863.34	  472.49
     20.9700	  563.00	  599.56	-1906.89	  471.96
     21.0700	  641.00	  599.12	-1828.46	  471.42
     21.1700	  616.00	  598.69	-1853.03	  470.89
     21.2700	  545.00	  598.28	-1923.61	  470.36
     21.3700	  586.00	  597.86	-1882.20	  469.84
     21.4700	  641.00	  597.46	-1826.80	  469.32
     21.5700	  578.00	  597.07	-1889.41	  468.80
     21.6700	  594.00	  596.69	-1873.03	  468.29
     21.7700	  562.00	  596.32	-1904.66	  467.77
     21.8700	  599.00	  595.96	-1867.29	  467.27
     21.9700	  572.00	  595.61	-1893.95	  466.76
     22.0700	  573.00	  595.27	-1892.61	  466.26
     22.1700	  594.00	  594.95	-1871.29	  465.76
     22.2700	  581.00	  594.82	-1884.16	  465.27
     22.3700	  592.00	  594.53	-1872.87	  464.78
     22.4700	  615.00	  594.26	-1849.60	  464.29
     22.5700	  613.00	  594.00	-1851.34	  463.80
     22.6700	  542.00	  593.77	-1922.11	  463.32
     22.7700	  608.00	  593.56	-1855.89	  462.84
     22.8700	  591.00	  593.37	-1872.70	  462.37
     22.9700	  540.00	  593.21	-1923.54	  461.90
     23.0700	  608.00	  593.08	-1855.41	  461.43
     23.1700	  581.00	  592.98	-1882.32	  460.96
     23.2700	  569.00	  592.93	-1894.27	  460.50
     23.3700	  639.00	  592.93	-1824.27	  460.04
     23.4700	  623.00	  592.99	-1840.32	  459.58
     23.5700	  583.00	  593.12	-1880.46	  459.13
     23.6700	  594.00	  593.35	-1869.69	  458.68
     23.7700	  633.00	  593.71	-1831.04	  458.23
     23.8700	  628.00	  594.25	-1836.58	  457.79
     23.9700	  574.00	  595.06	-1891.40	  457.35
     24.0700	  600.00	  596.26	-1866.59	  456.91
     24.1700	  636.00	  598.19	-1832.52	  456.48
     24.2700	  593.00	  601.16	-1878.50	  456.05
     24.3700	  639.00	  605.62	-1836.95	  455.62
     24.4700	  708.00	  611.97	-1774.31	  455.19
     24.5700	  668.00	  620.41	-1822.74	  454.77
     24.6700	  668.00	  630.62	-1832.96	  454.35
     24.7700	  705.00	  641.47	-1806.81	  453.94
     24.8700	  644.00	  650.60	-1876.94	  453.52
     24.9700	  663.00	  654.38	-1861.72	  453.11
     25.0700	  697.00	  649.95	-1823.29	  452.71
     25.1700	  714.00	  639.12	-1795.46	  452.30
     25.2700	  641.00	  627.05	-1856.39	  451.90
     25.3700	  573.00	  617.22	-1914.56	  451.50
     25.4700	  638.00	  610.45	-1842.79	  451.11
     25.5700	  650.00	  606.41	-1826.75	  450.72
     25.6700	  624.00	  604.39	-1850.72	  450.33
     25.7700	  636.00	  603.70	-1838.03	  449.94
     25.8700	  657.00	  603.86	-1817.20	  449.56
     25.9700	  587.00	  604.62	-1887.96	  449.18
     26.0700	  635.00	  605.85	-1841.19	  448.80
     26.1700	  607.00	  607.51	-1870.85	  448.42
     26.2700	  659.00	  609.62	-1820.95	  448.05
     26.3700	  643.00	  612.20	-1839.53	  447.68
     26.4700	  638.00	  615.32	-1847.66	  447.32
     26.5700	  643.00	  619.07	-1846.41	  446.95
     26.6700	  662.00	  623.58	-1831.92	  446.59
     26.7700	  741.00	  629.01	-1758.34	  446.24
     26.8700	  670.00	  635.57	-1835.91	  445.88
     26.9700	  679.00	  643.58	-1834.92	  445.53
     27.0700	  613.00	  653.44	-1910.78	  445.18
     27.1700	  655.00	  665.77	-1881.10	  444.83
     27.2700	  629.00	  681.48	-1922.82	  444.49
     27.3700	  689.00	  702.21	-1883.54	  444.15
     27.4700	  720.00	  731.15	-1881.49	  443.81
     27.5700	  721.00	  774.97	-1924.31	  443.47
     27.6700	  797.00	  846.90	-1920.24	  443.14
     27.7700	  831.00	  970.77	-2010.11	  442.81
     27.8700	  972.00	 1183.90	-2082.24	  442.48
     27.9700	 1147.00	 1533.03	-2256.36	  442.16
     28.0700	 1730.00	 2055.23	-2195.56	  441.84
     28.1700	 2605.00	 2741.89	-2007.23	  441.52
     28.2700	 3757.00	 3490.69	-1604.03	  441.20
     28.3700	 4687.00	 4071.60	-1254.94	  440.89
     28.4700	 4822.00	 4178.74	-1227.07	  440.58
     28.5700	 4046.00	 3721.52	-1545.85	  440.27
     28.6700	 2878.00	 3061.39	-2053.72	  439.96
     28.7700	 2216.00	 2594.20	-2248.53	  439.66
     28.8700	 2182.00	 2447.62	-2135.96	  439.36
     28.9700	 2550.00	 2539.97	-1860.31	  439.06
     29.0700	 2887.00	 2672.89	-1656.23	  438.76
     29.1700	 2766.00	 2620.41	-1724.74	  438.47
     29.2700	 2402.00	 2287.71	-1756.04	  438.18
     29.3700	 1842.00	 1818.73	-1847.06	  437.89
     29.4700	 1305.00	 1396.69	-1962.02	  437.61
     29.5700	 1063.00	 1095.05	-1902.39	  437.32
     29.6700	  896.00	  909.07	-1883.40	  437.04
     29.7700	  788.00	  804.02	-1886.36	  436.77
     29.8700	  776.00	  745.21	-1839.54	  436.49
     29.9700	  749.00	  709.79	-1831.13	  436.22
     30.0700	  697.00	  686.15	-1859.49	  435.95
     30.1700	  682.00	  669.22	-1857.56	  435.68
     30.2700	  719.00	  656.94	-1808.28	  435.41
     30.3700	  679.00	  648.61	-1839.95	  435.15
     30.4700	  678.00	  644.40	-1836.74	  434.89
     30.5700	  646.00	  645.21	-1869.55	  434.63
     30.6700	  651.00	  652.44	-1871.78	  434.38
     30.7700	  727.00	  667.15	-1810.49	  434.12
     30.8700	  681.00	  688.65	-1877.99	  433.87
     30.9700	  728.00	  713.02	-1855.36	  433.62
     31.0700	  746.00	  732.28	-1856.62	  433.38
     31.1700	  729.00	  735.51	-1876.85	  433.13
     31.2700	  706.00	  716.73	-1881.07	  432.89
     31.3700	  700.00	  684.24	-1854.57	  432.65
     31.4700	  627.00	  651.66	-1895.00	  432.42
     31.5700	  650.00	  626.16	-1846.50	  432.18
     31.6700	  668.00	  608.88	-1811.22	  431.95
     31.7700	  631.00	  598.17	-1837.51	  431.72
     31.8700	  633.00	  591.72	-1829.06	  431.49
     31.9700	  614.00	  587.68	-1844.02	  431.27
     32.0700	  582.00	  584.95	-1873.28	  431.04
     32.1700	  587.00	  582.96	-1866.29	  430.82
     32.2700	  623.00	  581.47	-1828.81	  430.60
     32.3700	  531.00	  580.37	-1919.71	  430.39
     32.4700	  573.00	  579.61	-1876.95	  430.17
     32.5700	  584.00	  579.17	-1865.51	  429.96
     32.6700	  614.00	  579.05	-1835.38	  429.75
     32.7700	  583.00	  579.26	-1866.60	  429.55
     32.8700	  578.00	  579.89	-1872.23	  429.34
     32.9700	  556.00	  580.95	-1895.29	  429.14
     33.0700	  588.00	  582.60	-1864.93	  428.94
     33.1700	  597.00	  585.03	-1858.36	  428.74
     33.2700	  597.00	  588.65	-1861.98	  428.54
     33.3700	  558.00	  594.22	-1906.56	  428.35
     33.4700	  536.00	  603.25	-1937.58	  428.16
     33.5700	  653.00	  618.41	-1835.75	  427.97
     33.6700	  656.00	  643.97	-1858.31	  427.78
     33.7700	  649.00	  685.41	-1906.75	  427.59
     33.8700	  798.00	  747.56	-1819.90	  427.41
     33.9700	  838.00	  830.55	-1862.89	  427.23
     34.0700	 1003.00	  924.87	-1792.21	  427.05
     34.1700	 1120.00	 1008.34	-1758.67	  426.87
     34.2700	 1132.00	 1048.02	-1786.35	  426.69
     34.3700	 1149.00	 1018.34	-1739.67	  426.52
     34.4700	  976.00	  931.88	-1826.22	  426.35
     34.5700	  792.00	  829.50	-1907.84	  426.18
     34.6700	  704.00	  740.98	-1907.31	  426.01
     34.7700	  693.00	  676.43	-1853.77	  425.84
     34.8700	  649.00	  634.51	-1855.85	  425.68
     34.9700	  625.00	  609.26	-1854.59	  425.52
     35.0700	  670.00	  594.40	-1794.74	  425.36
     35.1700	  625.00	  585.32	-1830.66	  425.20
     35.2700	  580.00	  579.30	-1869.64	  425.05
     35.3700	  568.00	  574.96	-1877.29	  424.89
     35.4700	  594.00	  571.63	-1847.97	  424.74
     35.5700	  542.00	  568.99	-1897.32	  424.59
     35.6700	  598.00	  566.84	-1839.18	  424.44
     35.7700	  556.00	  565.08	-1879.41	  424.30
     35.8700	  615.00	  563.61	-1818.94	  424.15
     35.9700	  585.00	  562.38	-1847.72	  424.01
     36.0700	  596.00	  561.35	-1835.68	  423.87
     36.1700	  526.00	  560.48	-1904.82	  423.73
     36.2700	  571.00	  559.75	-1859.09	  423.59
     36.3700	  573.00	  559.16	-1856.49	  423.46
     36.4700	  589.00	  558.68	-1840.02	  423.32
     36.5700	  552.00	  558.81	-1877.15	  423.19
     36.6700	  584.00	  558.57	-1844.91	  423.06
     36.7700	  546.00	  558.46	-1882.80	  422.94
     36.8700	  613.00	  558.49	-1815.82	  422.81
     36.9700	  524.00	  558.70	-1905.03	  422.68
     37.0700	  531.00	  559.34	-1898.68	  422.56
     37.1700	  551.00	  560.12	-1879.45	  422.44
     37.2700	  578.00	  561.46	-1853.79	  422.32
     37.3700	  589.00	  563.64	-1844.97	  422.20
     37.4700	  608.00	  567.13	-1829.47	  422.09
     37.5700	  568.00	  572.60	-1874.94	  421.97
     37.6700	  577.00	  580.87	-1874.20	  421.86
     37.7700	  631.00	  592.67	-1832.01	  421.75
     37.8700	  616.00	  608.25	-1862.58	  421.64
     37.9700	  607.00	  626.71	-1890.05	  421.54
     38.0700	  613.00	  645.66	-1902.99	  421.43
     38.1700	  642.00	  661.05	-1889.38	  421.33
     38.2700	  651.00	  667.22	-1886.56	  421.22
     38.3700	  587.00	  659.78	-1943.11	  421.12
     38.4700	  609.00	  640.96	-1902.29	  421.02
     38.5700	  624.00	  617.20	-1863.54	  420.93
     38.6700	  562.00	  596.79	-1905.13	  420.83
     38.7700	  586.00	  581.14	-1865.48	  420.74
     38.8700	  592.00	  570.29	-1848.63	  420.64
     38.9700	  566.00	  563.35	-1867.69	  420.55
     39.0700	  587.00	  559.07	-1842.41	  420.46
     39.1700	  502.00	  556.42	-1924.75	  420.37
     39.2700	  524.00	  554.67	-1901.01	  420.29
     39.3700	  584.00	  553.44	-1839.78	  420.20
     39.4700	  530.00	  552.51	-1892.84	  420.12
     39.5700	  574.00	  551.77	-1848.10	  420.04
     39.6700	  543.00	  551.17	-1878.51	  419.95
     39.7700	  575.00	  550.68	-1846.01	  419.88
     39.8700	  570.00	  549.61	-1849.95	  419.80
     39.9700	  548.00	  549.28	-1871.62	  419.72
     40.0700	  494.00	  549.01	-1925.35	  419.65
     40.1700	  533.00	  548.78	-1886.12	  419.57
     40.2700	  555.00	  548.60	-1863.94	  419.50
     40.3700	  561.00	  548.45	-1857.79	  419.43
     40.4700	  545.00	  548.34	-1873.68	  419.36
     40.5700	  522.00	  548.80	-1897.14	  419.29
     40.6700	  532.00	  548.76	-1887.10	  419.23
     40.7700	  569.00	  548.75	-1850.09	  419.16
     40.8700	  509.00	  548.77	-1910.11	  419.10
     40.9700	  567.00	  548.83	-1852.17	  419.04
     41.0700	  583.00	  548.93	-1836.27	  418.98
     41.1700	  509.00	  549.07	-1910.41	  418.92
     41.2700	  523.00	  549.27	-1896.60	  418.86
     41.3700	  487.00	  549.52	-1932.86	  418.80
     41.4700	  571.00	  549.90	-1849.24	  418.75
     41.5700	  550.00	  550.32	-1870.65	  418.69
     41.6700	  551.00	  550.85	-1870.19	  418.64
     41.7700	  542.00	  551.55	-1879.89	  418.59
     41.8700	  560.00	  552.49	-1862.83	  418.54
     41.9700	  560.00	  553.82	-1864.16	  418.49
     42.0700	  520.00	  555.82	-1906.16	  418.44
     42.1700	  540.00	  558.98	-1889.32	  418.39
     42.2700	  521.00	  564.04	-1913.37	  418.35
     42.3700	  506.00	  571.98	-1936.32	  418.30
     42.4700	  565.00	  583.81	-1889.15	  418.26
     42.5700	  598.00	  600.04	-1872.38	  418.22
     42.6700	  535.00	  620.18	-1955.51	  418.18
     42.7700	  616.00	  641.62	-1895.95	  418.14
     42.8700	  617.00	  659.29	-1912.62	  418.10
     42.9700	  676.00	  666.81	-1861.15	  418.06
     43.0700	  607.00	  660.06	-1923.40	  418.03
     43.1700	  643.00	  642.21	-1869.54	  417.99
     43.2700	  621.00	  620.31	-1869.65	  417.96
     43.3700	  535.00	  599.93	-1935.26	  417.92
     43.4700	  595.00	  583.60	-1858.94	  417.89
     43.5700	  588.00	  572.04	-1854.38	  417.86
     43.6700	  597.00	  564.23	-1837.57	  417.83
     43.7700	  556.00	  559.32	-1873.66	  417.80
     43.8700	  535.00	  556.30	-1891.64	  417.78
     43.9700	  565.00	  554.41	-1859.75	  417.75
     44.0700	  553.00	  553.17	-1870.50	  417.73
     44.1700	  584.00	  552.30	-1838.63	  417.70
     44.2700	  566.00	  551.66	-1855.99	  417.68
     44.3700	  555.00	  551.18	-1866.51	  417.66
     44.4700	  598.00	  550.82	-1823.15	  417.64
     44.5700	  607.00	  550.54	-1813.88	  417.61
     44.6700	  563.00	  550.57	-1857.90	  417.60
     44.7700	  560.00	  550.43	-1860.77	  417.58
     44.8700	  527.00	  550.35	-1893.69	  417.56
     44.9700	  594.00	  550.31	-1826.65	  417.54
     45.0700	  540.00	  550.32	-1880.65	  417.53
     45.1700	  560.00	  550.35	-1860.69	  417.52
     45.2700	  560.00	  550.44	-1860.78	  417.50
     45.3700	  613.00	  550.55	-1807.89	  417.49
     45.4700	  567.00	  550.68	-1854.02	  417.48
     45.5700	  549.00	  550.85	-1872.19	  417.47
     45.6700	  550.00	  551.14	-1871.47	  417.46
     45.7700	  571.00	  551.37	-1850.70	  417.45
     45.8700	  585.00	  551.63	-1836.97	  417.44
     45.9700	  551.00	  551.93	-1871.26	  417.43
     46.0700	  579.00	  552.26	-1843.60	  417.43
     46.1700	  550.00	  552.64	-1872.98	  417.42
     46.2700	  539.00	  553.16	-1884.49	  417.42
     46.3700	  611.00	  553.63	-1812.97	  417.41
     46.4700	  565.00	  554.00	-1859.33	  417.41
     46.5700	  514.00	  554.61	-1910.94	  417.41
     46.6700	  588.00	  555.30	-1837.64	  417.41
     46.7700	  568.00	  556.10	-1858.43	  417.41
     46.8700	  533.00	  557.02	-1894.35	  417.41
     46.9700	  529.00	  558.11	-1899.44	  417.41
     47.0700	  548.00	  559.45	-1881.79	  417.41
     47.1700	  595.00	  561.18	-1836.52	  417.41
     47.2700	  598.00	  563.55	-1835.88	  417.42
     47.3700	  560.00	  566.93	-1877.27	  417.42
     47.4700	  555.00	  571.89	-1887.23	  417.43
     47.5700	  552.00	  579.09	-1897.42	  417.43
     47.6700	  554.00	  589.14	-1905.48	  417.44
     47.7700	  578.00	  602.34	-1894.68	  417.45
     47.8700	  584.00	  618.26	-1904.60	  417.45
     47.9700	  608.00	  635.30	-1897.64	  417.46
     48.0700	  634.00	  650.31	-1886.65	  417.47
     48.1700	  679.00	  659.03	-1850.37	  417.48
     48.2700	  630.00	  658.41	-1898.75	  417.49
     48.3700	  635.00	  649.83	-1885.17	  417.50
     48.4700	  627.00	  636.59	-1879.93	  417.51
     48.5700	  662.00	  623.28	-1831.62	  417.53
     48.6700	  600.00	  612.39	-1882.73	  417.54
     48.7700	  579.00	  604.96	-1896.30	  417.55
     48.8700	  574.00	  601.10	-1897.44	  417.57
     48.9700	  588.00	  600.46	-1882.80	  417.58
     49.0700	  604.00	  602.57	-1868.90	  417.60
     49.1700	  611.00	  607.06	-1866.40	  417.61
     49.2700	  564.00	  613.95	-1920.29	  417.63
     49.3700	  630.00	  623.79	-1864.12	  417.65
     49.4700	  626.00	  638.22	-1882.55	  417.66
     49.5700	  607.00	  660.92	-1924.26	  417.68
     49.6700	  652.00	  699.25	-1917.59	  417.70
     49.7700	  775.00	  766.02	-1861.36	  417.72
     49.8700	  853.00	  880.09	-1897.42	  417.74
     49.9700	 1101.00	 1063.51	-1832.84	  417.76
     50.0700	 1346.00	 1333.08	-1857.41	  417.78
     50.1700	 1733.00	 1687.18	-1824.51	  417.80
     50.2700	 2188.00	 2091.21	-1773.55	  417.82
     50.3700	 2575.00	 2467.42	-1762.75	  417.84
     50.4700	 2796.00	 2702.46	-1776.79	  417.87
     50.5700	 2661.00	 2698.30	-1907.63	  417.89
     50.6700	 2404.00	 2454.97	-1921.31	  417.91
     50.7700	 2037.00	 2075.05	-1908.39	  417.94
     50.8700	 1600.00	 1675.00	-1945.33	  417.96
     50.9700	 1204.00	 1331.14	-1997.47	  417.99
     51.0700	 1020.00	 1075.40	-1925.74	  418.01
     51.1700	  851.00	  907.02	-1926.36	  418.04
     51.2700	  793.00	  807.05	-1884.38	  418.06
     51.3700	  766.00	  751.37	-1855.70	  418.09
     51.4700	  673.00	  719.10	-1916.44	  418.12
     51.5700	  699.00	  696.64	-1867.98	  418.14
     51.6700	  656.00	  677.64	-1891.97	  418.17
     51.7700	  658.00	  660.62	-1872.96	  418.20
     51.8700	  681.00	  645.89	-1835.23	  418.23
     51.9700	  596.00	  633.86	-1908.20	  418.25
     52.0700	  638.00	  624.64	-1856.98	  418.28
     52.1700	  643.00	  618.04	-1845.37	  418.31
     52.2700	  619.00	  613.70	-1865.04	  418.34
     52.3700	  610.00	  611.29	-1871.63	  418.37
     52.4700	  585.00	  610.60	-1895.94	  418.40
     52.5700	  678.00	  611.62	-1803.96	  418.43
     52.6700	  631.00	  614.65	-1853.98	  418.46
     52.7700	  618.00	  620.38	-1872.72	  418.49
     52.8700	  638.00	  630.14	-1862.48	  418.52
     52.9700	  651.00	  646.03	-1865.37	  418.55
     53.0700	  664.00	  671.00	-1877.34	  418.59
     53.1700	  710.00	  708.60	-1868.93	  418.62
     53.2700	  758.00	  762.21	-1874.55	  418.65
     53.3700	  877.00	  833.86	-1827.20	  418.68
     53.4700	  903.00	  922.55	-1889.89	  418.71
     53.5700	 1032.00	 1022.41	-1860.75	  418.75
     53.6700	 1216.00	 1120.41	-1774.75	  418.78
     53.7700	 1301.00	 1195.88	-1765.22	  418.81
     53.8700	 1296.00	 1225.63	-1799.97	  418.85
     53.9700	 1223.00	 1198.20	-1845.54	  418.88
     54.0700	 1147.00	 1123.99	-1847.32	  418.91
     54.1700	 1040.00	 1026.47	-1856.81	  418.95
     54.2700	  968.00	  926.97	-1829.31	  418.98
     54.3700	  769.00	  838.62	-1939.95	  419.01
     54.4700	  769.00	  767.37	-1868.70	  419.05
     54.5700	  716.00	  714.27	-1868.60	  419.08
     54.6700	  674.00	  677.28	-1873.62	  419.12
     54.7700	  644.00	  653.01	-1879.35	  419.15
     54.8700	  680.00	  637.86	-1828.20	  419.18
     54.9700	  636.00	  628.83	-1863.17	  419.22
     55.0700	  666.00	  623.77	-1828.11	  419.25
     55.1700	  625.00	  621.31	-1866.65	  419.29
     55.2700	  716.00	  620.67	-1775.01	  419.32
     55.3700	  665.00	  621.45	-1826.79	  419.36
     55.4700	  622.00	  623.50	-1871.84	  419.39
     55.5700	  629.00	  626.81	-1868.14	  419.43
     55.6700	  576.00	  631.48	-1925.82	  419.46
     55.7700	  682.00	  637.79	-1826.13	  419.50
     55.8700	  599.00	  646.24	-1917.58	  419.53
     55.9700	  634.00	  657.80	-1894.14	  419.57
     56.0700	  666.00	  674.28	-1878.62	  419.60
     56.1700	  706.00	  698.98	-1863.32	  419.64
     56.2700	  780.00	  737.41	-1827.75	  419.67
     56.3700	  779.00	  797.94	-1889.28	  419.71
     56.4700	  854.00	  891.80	-1908.13	  419.74
     56.5700	 1004.00	 1031.60	-1897.94	  419.78
     56.6700	 1177.00	 1228.05	-1921.39	  419.81
     56.7700	 1444.00	 1485.07	-1911.41	  419.85
     56.8700	 1745.00	 1793.70	-1919.04	  419.88
     56.9700	 2189.00	 2126.57	-1807.91	  419.92
     57.0700	 2489.00	 2432.83	-1814.17	  419.95
     57.1700	 2589.00	 2641.02	-1922.36	  419.99
     57.2700	 2695.00	 2684.50	-1859.83	  420.02
     57.3700	 2424.00	 2546.79	-1993.13	  420.06
     57.4700	 2276.00	 2276.69	-1871.02	  420.09
     57.5700	 1952.00	 1949.64	-1867.97	  420.12
     57.6700	 1530.00	 1627.66	-1968.00	  420.16
     57.7700	 1208.00	 1348.44	-2010.78	  420.19
     57.8700	 1089.00	 1128.50	-1909.84	  420.23
     57.9700	  872.00	  969.30	-1967.64	  420.26
     58.0700	  802.00	  863.20	-1931.53	  420.29
     58.1700	  743.00	  799.09	-1926.42	  420.33
     58.2700	  732.00	  766.73	-1905.07	  420.36
     58.3700	  727.00	  759.05	-1902.39	  420.39
     58.4700	  826.00	  772.40	-1816.73	  420.43
     58.5700	  793.00	  805.49	-1882.83	  420.46
     58.6700	  860.00	  857.68	-1868.02	  420.49
     58.7700	  899.00	  927.10	-1898.44	  420.52
     58.8700	 1037.00	 1008.90	-1842.24	  420.56
     58.9700	 1065.00	 1094.22	-1899.55	  420.59
     59.0700	 1187.00	 1171.28	-1854.61	  420.62
     59.1700	 1203.00	 1230.60	-1897.94	  420.65
     59.2700	 1252.00	 1268.95	-1887.29	  420.68
     59.3700	 1337.00	 1285.91	-1819.25	  420.71
     59.4700	 1297.00	 1280.02	-1853.35	  420.75
     59.5700	 1268.00	 1252.94	-1855.27	  420.78
     59.6700	 1277.00	 1214.45	-1807.79	  420.81
     59.7700	 1189.00	 1178.48	-1859.82	  420.84
     59.8700	 1130.00	 1156.43	-1896.76	  420.87
     59.9700	 1196.00	 1155.49	-1829.83	  420.90
     60.0700	 1198.00	 1180.89	-1853.22	  420.93
     60.1700	 1272.00	 1236.06	-1834.40	  420.95
     60.2700	 1292.00	 1319.29	-1897.62	  420.98
     60.3700	 1457.00	 1419.84	-1833.18	  421.01
     60.4700	 1594.00	 1516.59	-1792.92	  421.04
     60.5700	 1599.00	 1579.93	-1851.27	  421.07
     60.6700	 1588.00	 1582.07	-1864.40	  421.10
     60.7700	 1494.00	 1514.09	-1890.43	  421.12
     60.8700	 1409.00	 1392.67	-1854.01	  421.15
     60.9700	 1219.00	 1246.61	-1897.95	  421.18
     61.0700	 1108.00	 1101.56	-1863.90	  421.20
     61.1700	  943.00	  974.50	-1901.83	  421.23
     61.2700	  851.00	  874.17	-1893.50	  421.25
     61.3700	  882.00	  803.06	-1791.39	  421.28
     61.4700	  762.00	  759.77	-1868.11	  421.31
     61.5700	  787.00	  741.72	-1825.05	  421.33
     61.6700	  788.00	  747.09	-1829.43	  421.35
     61.7700	  776.00	  775.96	-1870.30	  421.38
     61.8700	  849.00	  829.96	-1851.29	  421.40
     61.9700	  943.00	  910.88	-1838.22	  421.42
     62.0700	 1044.00	 1018.56	-1844.90	  421.45
     62.1700	 1200.00	 1148.52	-1818.86	  421.47
     62.2700	 1342.00	 1290.00	-1818.34	  421.49
     62.3700	 1419.00	 1424.38	-1875.72	  421.51
     62.4700	 1623.00	 1525.74	-1773.08	  421.53
     62.5700	 1491.00	 1567.09	-1946.43	  421.55
     62.6700	 1494.00	 1534.84	-1911.17	  421.57
     62.7700	 1419.00	 1438.89	-1890.22	  421.59
     62.8700	 1253.00	 1305.14	-1922.48	  421.61
     62.9700	 1135.00	 1160.41	-1895.74	  421.63
     63.0700	 1011.00	 1024.42	-1883.76	  421.65
     63.1700	  932.00	  908.79	-1847.13	  421.67
     63.2700	  732.00	  818.26	-1956.60	  421.69
     63.3700	  804.00	  752.39	-1818.73	  421.70
     63.4700	  714.00	  707.69	-1864.03	  421.72
     63.5700	  690.00	  679.45	-1859.79	  421.74
     63.6700	  608.00	  663.19	-1925.52	  421.75
     63.7700	  654.00	  655.64	-1871.98	  421.77
     63.8700	  704.00	  654.90	-1821.24	  421.78
     63.9700	  718.00	  660.52	-1812.86	  421.80
     64.0700	  699.00	  673.29	-1844.63	  421.81
     64.1700	  704.00	  694.98	-1861.32	  421.82
     64.2700	  765.00	  727.97	-1833.31	  421.83
     64.3700	  783.00	  774.69	-1862.03	  421.85
     64.4700	  842.00	  836.88	-1865.22	  421.86
     64.5700	  909.00	  914.16	-1875.49	  421.87
     64.6700	 1046.00	 1004.97	-1829.31	  421.88
     64.7700	 1138.00	 1102.60	-1834.93	  421.89
     64.8700	 1212.00	 1196.51	-1854.84	  421.90
     64.9700	 1253.00	 1272.90	-1890.24	  421.91
     65.0700	 1327.00	 1318.50	-1861.84	  421.92
     65.1700	 1277.00	 1324.53	-1917.87	  421.92
     65.2700	 1322.00	 1290.56	-1838.90	  421.93
     65.3700	 1177.00	 1224.46	-1917.80	  421.94
     65.4700	 1166.00	 1139.55	-1843.89	  421.94
     65.5700	 1002.00	 1049.52	-1917.86	  421.95
     65.6700	  895.00	  964.46	-1939.79	  421.95
     65.7700	  802.00	  889.42	-1957.76	  421.96
     65.8700	  814.00	  826.54	-1882.87	  421.96
     65.9700	  726.00	  775.75	-1920.09	  421.97
     66.0700	  701.00	  736.09	-1905.43	  421.97
     66.1700	  705.00	  706.11	-1871.45	  421.97
     66.2700	  665.00	  684.09	-1889.42	  421.97
     66.3700	  660.00	  668.35	-1878.68	  421.97
     66.4700	  672.00	  657.50	-1855.83	  421.97
     66.5700	  621.00	  650.48	-1899.82	  421.97
     66.6700	  623.00	  646.66	-1894.00	  421.97
     66.7700	  592.00	  645.47	-1923.81	  421.97
     66.8700	  648.00	  646.79	-1869.13	  421.97
     66.9700	  652.00	  650.92	-1869.26	  421.96
     67.0700	  670.00	  657.97	-1858.31	  421.96
     67.1700	  660.00	  669.26	-1879.60	  421.96
     67.2700	  656.00	  686.76	-1901.10	  421.95
     67.3700	  693.00	  713.60	-1890.94	  421.95
     67.4700	  741.00	  754.32	-1883.66	  421.94
     67.5700	  846.00	  814.80	-1839.13	  421.93
     67.6700	  905.00	  901.85	-1867.19	  421.92
     67.7700	 1058.00	 1022.21	-1834.55	  421.92
     67.8700	 1277.00	 1180.75	-1774.08	  421.91
     67.9700	 1385.00	 1378.42	-1863.76	  421.90
     68.0700	 1618.00	 1610.05	-1862.39	  421.89
     68.1700	 1912.00	 1862.45	-1820.79	  421.88
     68.2700	 2102.00	 2112.64	-1880.98	  421.86
     68.3700	 2369.00	 2327.50	-1828.83	  421.85
     68.4700	 2442.00	 2467.41	-1895.75	  421.84
     68.5700	 2416.00	 2499.32	-1953.66	  421.83
     68.6700	 2459.00	 2414.70	-1826.03	  421.81
     68.7700	 2297.00	 2235.19	-1808.52	  421.80
     68.8700	 1953.00	 1999.15	-1916.49	  421.78
     68.9700	 1676.00	 1744.28	-1938.61	  421.76
     69.0700	 1496.00	 1499.09	-1873.43	  421.75
     69.1700	 1243.00	 1281.91	-1909.25	  421.73
     69.2700	 1136.00	 1101.94	-1836.27	  421.71
     69.3700	  975.00	  961.27	-1856.61	  421.69
     69.4700	  873.00	  856.86	-1854.20	  421.67
     69.5700	  807.00	  782.72	-1846.06	  421.65
     69.6700	  724.00	  731.90	-1878.23	  421.63
     69.7700	  786.00	  697.85	-1782.19	  421.60
     69.8700	  727.00	  675.27	-1818.61	  421.58
     69.9700	  659.00	  660.19	-1871.53	  421.56
     70.0700	  683.00	  649.96	-1837.30	  421.53
     70.1700	  651.00	  642.88	-1862.22	  421.51
     70.2700	  648.00	  637.95	-1860.28	  421.48
     70.3700	  619.00	  634.60	-1885.93	  421.45
     70.4700	  653.00	  632.53	-1849.86	  421.43
     70.5700	  607.00	  631.61	-1894.95	  421.40
     70.6700	  609.00	  631.85	-1893.18	  421.37
     70.7700	  636.00	  633.36	-1867.70	  421.34
     70.8700	  638.00	  636.27	-1868.61	  421.31
     70.9700	  665.00	  641.50	-1846.84	  421.28
     71.0700	  617.00	  649.81	-1903.15	  421.24
     71.1700	  702.00	  662.63	-1830.97	  421.21
     71.2700	  701.00	  682.11	-1851.44	  421.18
     71.3700	  773.00	  711.15	-1808.49	  421.14
     71.4700	  761.00	  753.38	-1862.71	  421.11
     71.5700	  814.00	  812.86	-1869.19	  421.07
     71.6700	  950.00	  893.54	-1813.88	  421.03
     71.7700	 1033.00	  998.35	-1835.69	  421.00
     71.8700	 1189.00	 1128.08	-1809.42	  420.96
     71.9700	 1307.00	 1280.30	-1843.63	  420.92
     72.0700	 1414.00	 1449.18	-1905.51	  420.88
     72.1700	 1604.00	 1621.38	-1887.71	  420.84
     72.2700	 1716.00	 1780.30	-1934.63	  420.80
     72.3700	 1930.00	 1903.68	-1844.02	  420.75
     72.4700	 1959.00	 1968.73	-1880.06	  420.71
     72.5700	 1888.00	 1960.96	-1943.30	  420.67
     72.6700	 1904.00	 1882.14	-1848.47	  420.62
     72.7700	 1740.00	 1749.23	-1879.57	  420.58
     72.8700	 1601.00	 1585.54	-1854.87	  420.53
     72.9700	 1473.00	 1412.51	-1809.85	  420.48
     73.0700	 1171.00	 1246.31	-1945.65	  420.43
     73.1700	 1061.00	 1097.51	-1906.85	  420.38
     73.2700	  987.00	  971.79	-1855.13	  420.33
     73.3700	  841.00	  870.79	-1900.12	  420.28
     73.4700	  814.00	  793.18	-1849.51	  420.23
     73.5700	  754.00	  735.80	-1852.14	  420.18
     73.6700	  693.00	  694.71	-1872.04	  420.13
     73.7700	  687.00	  665.97	-1849.30	  420.07
     73.8700	  668.00	  646.16	-1848.49	  420.02
     73.9700	  663.00	  632.59	-1839.93	  419.96
     74.0700	  637.00	  622.81	-1856.15	  419.91
     74.1700	  644.00	  616.59	-1842.93	  419.85
     74.2700	  643.00	  612.57	-1839.90	  419.79
     74.3700	  608.00	  610.23	-1872.56	  419.73
     74.4700	  613.00	  609.23	-1866.57	  419.67
     74.5700	  680.00	  609.31	-1799.64	  419.61
     74.6700	  670.00	  610.19	-1810.52	  419.55
     74.7700	  628.00	  611.57	-1853.90	  419.49
     74.8700	  630.00	  613.06	-1853.40	  419.42
     74.9700	  661.00	  614.24	-1823.58	  419.36
     75.0700	  707.00	  614.65	-1777.99	  419.29
     75.1700	  692.00	  614.01	-1792.34	  419.23
     75.2700	  663.00	  612.31	-1819.65	  419.16
     75.3700	  676.00	  609.83	-1804.17	  419.09
     75.4700	  685.00	  607.24	-1792.58	  419.03
     75.5700	  661.00	  605.10	-1814.44	  418.96
     75.6700	  639.00	  604.05	-1835.38	  418.89
     75.7700	  647.00	  604.75	-1828.08	  418.82
     75.8700	  661.00	  607.90	-1817.24	  418.74
     75.9700	  604.00	  614.24	-1880.58	  418.67
     76.0700	  604.00	  624.43	-1890.77	  418.60
     76.1700	  645.00	  639.28	-1864.61	  418.52
     76.2700	  616.00	  659.16	-1913.50	  418.45
     76.3700	  665.00	  684.19	-1889.53	  418.37
     76.4700	  696.00	  713.97	-1888.31	  418.30
     76.5700	  753.00	  747.44	-1864.78	  418.22
     76.6700	  787.00	  782.75	-1866.09	  418.14
     76.7700	  823.00	  817.18	-1864.51	  418.06
     76.8700	  850.00	  847.12	-1867.46	  417.98
     76.9700	  856.00	  868.41	-1882.75	  417.90
     77.0700	  914.00	  877.32	-1833.66	  417.82
     77.1700	  855.00	  872.00	-1887.34	  417.74
     77.2700	  816.00	  853.45	-1907.78	  417.65
     77.3700	  771.00	  824.94	-1924.28	  417.57
     77.4700	  760.00	  790.63	-1900.97	  417.48
     77.5700	  732.00	  754.33	-1892.67	  417.40
     77.6700	  707.00	  719.03	-1882.37	  417.31
     77.7700	  678.00	  686.78	-1879.12	  417.22
     77.8700	  644.00	  658.60	-1884.93	  417.13
     77.9700	  586.00	  635.41	-1919.74	  417.04
     78.0700	  602.00	  616.97	-1885.31	  416.95
     78.1700	  622.00	  602.84	-1851.18	  416.86
     78.2700	  619.00	  592.36	-1843.69	  416.77
     78.3700	  557.00	  584.79	-1898.12	  416.68
     78.4700	  588.00	  579.43	-1861.77	  416.58
     78.5700	  588.00	  575.65	-1857.98	  416.49
     78.6700	  538.00	  573.06	-1905.40	  416.39
     78.7700	  576.00	  571.28	-1865.62	  416.30
     78.8700	  584.00	  570.07	-1856.40	  416.20
     78.9700	  541.00	  569.27	-1898.60	  416.10
     79.0700	  599.00	  568.79	-1840.13	  416.00
     79.1700	  536.00	  568.60	-1902.93	  415.90
     79.2700	  606.00	  568.66	-1833.00	  415.80
     79.3700	  556.00	  569.01	-1883.34	  415.70
     79.4700	  558.00	  569.65	-1881.99	  415.60
     79.5700	  602.00	  570.65	-1838.98	  415.50
     79.6700	  600.00	  572.07	-1842.40	  415.39
     79.7700	  569.00	  574.01	-1875.35	  415.29
     79.8700	  552.00	  576.64	-1894.98	  415.18
     79.9700	  561.00	  580.19	-1889.53	  415.07
     80.0700	  588.00	  584.98	-1867.32	  414.97
     80.1700	  578.00	  591.49	-1883.83	  414.86
     80.2700	  613.00	  600.34	-1857.68	  414.75
     80.3700	  625.00	  612.31	-1857.65	  414.64
     80.4700	  608.00	  628.32	-1890.66	  414.53
     80.5700	  670.00	  649.15	-1849.48	  414.42
     80.6700	  694.00	  676.19	-1852.52	  414.31
     80.7700	  747.00	  710.02	-1833.36	  414.19
     80.8700	  786.00	  751.03	-1835.36	  414.08
     80.9700	  839.00	  798.93	-1830.26	  413.97
     81.0700	  885.00	  852.53	-1837.87	  413.85
     81.1700	  999.00	  909.59	-1780.93	  413.73
     81.2700	 1002.00	  966.73	-1835.06	  413.62
     81.3700	 1053.00	 1019.63	-1836.96	  413.50
     81.4700	 1049.00	 1063.66	-1884.99	  413.38
     81.5700	 1055.00	 1094.93	-1910.26	  413.26
     81.6700	 1125.00	 1111.20	-1856.53	  413.14
     81.7700	 1141.00	 1112.00	-1841.34	  413.02
     81.8700	 1100.00	 1098.35	-1868.68	  412.90
     81.9700	 1055.00	 1072.38	-1887.72	  412.78
     82.0700	 1020.00	 1037.09	-1887.43	  412.65
     82.1700	 1033.00	  995.69	-1833.03	  412.53
     82.2700	  897.00	  951.13	-1924.47	  412.40
     82.3700	  840.00	  905.92	-1936.26	  412.28
     82.4700	  851.00	  862.16	-1881.50	  412.15
     82.5700	  804.00	  821.43	-1887.77	  412.02
     82.6700	  753.00	  784.61	-1901.95	  411.90
     82.7700	  712.00	  751.90	-1910.24	  411.77
     82.8700	  730.00	  723.01	-1863.35	  411.64
     82.9700	  683.00	  697.51	-1884.84	  411.51
     83.0700	  643.00	  675.08	-1902.42	  411.38
     83.1700	  625.00	  655.60	-1900.93	  411.25
     83.2700	  597.00	  639.04	-1912.38	  411.11
     83.3700	  555.00	  625.42	-1940.75	  410.98
     83.4700	  648.00	  614.71	-1837.05	  410.85
     83.5700	  589.00	  606.87	-1888.21	  410.71
     83.6700	  587.00	  601.79	-1885.12	  410.58
     83.7700	  569.00	  599.27	-1900.61	  410.44
     83.8700	  583.00	  599.04	-1886.38	  410.30
     83.9700	  570.00	  600.74	-1901.07	  410.16
     84.0700	  638.00	  603.87	-1836.21	  410.03
     84.1700	  649.00	  607.87	-1829.21	  409.89
     84.2700	  604.00	  611.99	-1878.32	  409.75
     84.3700	  622.00	  615.66	-1864.00	  409.61
     84.4700	  604.00	  618.00	-1884.33	  409.46
     84.5700	  641.00	  618.57	-1847.91	  409.32
     84.6700	  588.00	  617.00	-1899.34	  409.18
     84.7700	  585.00	  613.37	-1898.71	  409.04
     84.8700	  582.00	  608.10	-1896.43	  408.89
     84.9700	  577.00	  601.77	-1895.10	  408.75
     85.0700	  588.00	  594.97	-1877.31	  408.60
     85.1700	  564.00	  588.24	-1894.58	  408.46
     85.2700	  578.00	  581.99	-1874.32	  408.31
     85.3700	  559.00	  576.53	-1887.86	  408.16
     85.4700	  573.00	  572.08	-1869.42	  408.01
     85.5700	  558.00	  568.77	-1881.11	  407.86
     85.6700	  559.00	  566.67	-1878.00	  407.72
     85.7700	  570.00	  565.78	-1866.12	  407.56
     85.8700	  566.00	  566.12	-1870.45	  407.41
     85.9700	  565.00	  567.64	-1872.98	  407.26
     86.0700	  604.00	  570.33	-1836.66	  407.11
     86.1700	  587.00	  574.13	-1857.46	  406.96
     86.2700	  521.00	  578.98	-1928.31	  406.80
     86.3700	  605.00	  584.80	-1850.13	  406.65
     86.4700	  608.00	  591.47	-1853.80	  406.50
     86.5700	  611.00	  598.81	-1858.15	  406.34
     86.6700	  588.00	  606.67	-1889.01	  406.18
     86.7700	  586.00	  614.79	-1899.13	  406.03
     86.8700	  651.00	  622.94	-1842.27	  405.87
     86.9700	  603.00	  630.93	-1898.26	  405.71
     87.0700	  613.00	  638.74	-1896.07	  405.55
     87.1700	  644.00	  646.51	-1872.85	  405.40
     87.2700	  653.00	  654.50	-1871.83	  405.24
     87.3700	  610.00	  662.90	-1923.24	  405.08
     87.4700	  653.00	  671.78	-1889.12	  404.92
     87.5700	  649.00	  680.97	-1902.30	  404.75
     87.6700	  685.00	  690.01	-1875.35	  404.59
     87.7700	  634.00	  698.21	-1934.55	  404.43
     87.8700	  676.00	  704.64	-1898.98	  404.27
     87.9700	  689.00	  708.32	-1889.65	  404.10
     88.0700	  763.00	  708.43	-1815.77	  403.94
     88.1700	  724.00	  704.63	-1850.97	  403.78
     88.2700	  709.00	  697.14	-1858.48	  403.61
     88.3700	  713.00	  686.69	-1844.02	  403.45
     88.4700	  650.00	  674.24	-1894.57	  403.28
     88.5700	  681.00	  660.80	-1850.14	  403.11
     88.6700	  653.00	  647.32	-1864.66	  402.95
     88.7700	  686.00	  634.59	-1818.92	  402.78
     88.8700	  631.00	  622.81	-1862.14	  402.61
     88.9700	  625.00	  613.29	-1858.63	  402.44
     89.0700	  582.00	  605.88	-1894.21	  402.27
     89.1700	  636.00	  600.65	-1834.99	  402.10
     89.2700	  647.00	  597.54	-1820.88	  401.93
     89.3700	  636.00	  596.32	-1830.66	  401.76
     89.4700	  642.00	  596.67	-1825.00	  401.59
     89.5700	  601.00	  598.13	-1867.47	  401.42
     89.6700	  560.00	  600.22	-1910.56	  401.25
     89.7700	  580.00	  602.39	-1892.72	  401.08
     89.8700	  622.00	  604.07	-1852.40	  400.91
     89.9700	  595.00	  604.77	-1880.10	  400.73
     90.0700	  627.00	  604.15	-1847.49	  400.56
     90.1700	  622.00	  602.10	-1850.44	  400.39
     90.2700	  683.00	  598.73	-1786.07	  400.21
     90.3700	  587.00	  594.34	-1877.68	  400.04
     90.4700	  622.00	  589.30	-1837.63	  399.86
     90.5700	  604.00	  583.95	-1850.29	  399.69
     90.6700	  636.00	  578.62	-1812.96	  399.51
     90.7700	  618.00	  573.57	-1825.91	  399.34
     90.8700	  555.00	  568.99	-1884.32	  399.16
     90.9700	  565.00	  564.99	-1870.32	  398.98
     91.0700	  548.00	  561.64	-1883.98	  398.81
     91.1700	  588.00	  558.97	-1841.30	  398.63
     91.2700	  560.00	  556.95	-1867.28	  398.45
     91.3700	  528.00	  555.54	-1897.87	  398.27
     91.4700	  525.00	  554.69	-1900.03	  398.09
     91.5700	  562.00	  554.37	-1862.70	  397.92
     91.6700	  550.00	  554.53	-1874.87	  397.74
     91.7700	  576.00	  555.20	-1849.53	  397.56
     91.8700	  579.00	  556.38	-1847.72	  397.38
     91.9700	  545.00	  558.17	-1883.51	  397.20
     92.0700	  559.00	  560.67	-1872.00	  397.02
     92.1700	  580.00	  564.02	-1854.36	  396.84
     92.2700	  552.00	  568.42	-1886.76	  396.66
     92.3700	  573.00	  574.08	-1871.42	  396.48
     92.4700	  589.00	  581.21	-1862.55	  396.30
     92.5700	  544.00	  590.04	-1916.38	  396.12
     92.6700	  587.00	  600.76	-1884.10	  395.93
     92.7700	  611.00	  613.50	-1872.84	  395.75
     92.8700	  583.00	  628.32	-1915.66	  395.57
     92.9700	  597.00	  645.18	-1918.52	  395.39
     93.0700	  685.00	  663.91	-1849.25	  395.21
     93.1700	  696.00	  684.20	-1858.54	  395.02
     93.2700	  685.00	  705.59	-1890.93	  394.84
     93.3700	  685.00	  727.47	-1912.80	  394.66
     93.4700	  719.00	  749.06	-1900.40	  394.48
     93.5700	  679.00	  769.55	-1960.89	  394.29
     93.6700	  739.00	  788.18	-1919.51	  394.11
     93.7700	  774.00	  804.43	-1900.77	  393.93
     93.8700	  777.00	  818.24	-1911.57	  393.75
     93.9700	  772.00	  829.93	-1928.26	  393.56
     94.0700	  836.00	  840.14	-1874.47	  393.38
     94.1700	  791.00	  849.55	-1928.89	  393.20
     94.2700	  842.00	  858.74	-1887.08	  393.01
     94.3700	  813.00	  867.80	-1925.14	  392.83
     94.4700	  841.00	  877.59	-1906.93	  392.65
     94.5700	  928.00	  887.99	-1830.33	  392.46
     94.6700	  917.00	  899.22	-1852.56	  392.28
     94.7700	  875.00	  911.47	-1906.81	  392.10
     94.8700	  942.00	  924.82	-1853.15	  391.91
     94.9700	  915.00	  939.01	-1894.35	  391.73
     95.0700	  960.00	  953.40	-1863.74	  391.55
     95.1700	  983.00	  966.90	-1854.24	  391.36
     95.2700	  983.00	  978.00	-1865.34	  391.18
     95.3700	  975.00	  985.01	-1880.34	  391.00
     95.4700	 1016.00	  986.28	-1840.62	  390.81
     95.5700	  944.00	  980.66	-1907.00	  390.63
     95.6700	  996.00	  967.79	-1842.13	  390.45
     95.7700	  975.00	  948.24	-1843.58	  390.26
     95.8700	  934.00	  923.41	-1859.74	  390.08
     95.9700	  929.00	  895.16	-1836.49	  389.90
     96.0700	  872.00	  865.55	-1863.89	  389.72
     96.1700	  826.00	  836.66	-1880.99	  389.53
     96.2700	  820.00	  810.40	-1860.74	  389.35
     96.3700	  822.00	  788.54	-1836.88	  389.17
     96.4700	  777.00	  772.63	-1865.97	  388.99
     96.5700	  764.00	  763.99	-1870.32	  388.80
     96.6700	  764.00	  763.70	-1870.03	  388.62
     96.7700	  861.00	  772.64	-1781.98	  388.44
     96.8700	  862.00	  791.46	-1799.80	  388.26
     96.9700	  817.00	  820.54	-1873.88	  388.08
     97.0700	  909.00	  860.01	-1821.35	  387.90
     97.1700	  920.00	  909.63	-1859.97	  387.72
     97.2700	 1010.00	  968.79	-1829.13	  387.54
     97.3700	 1054.00	 1036.42	-1852.76	  387.36
     97.4700	 1039.00	 1110.89	-1942.23	  387.18
     97.5700	 1210.00	 1190.04	-1850.38	  387.00
     97.6700	 1209.00	 1271.04	-1932.37	  386.82
     97.7700	 1312.00	 1350.43	-1908.77	  386.64
     97.8700	 1417.00	 1424.24	-1877.58	  386.46
     97.9700	 1419.00	 1488.03	-1939.37	  386.29
     98.0700	 1503.00	 1537.40	-1904.74	  386.11
     98.1700	 1481.00	 1568.54	-1957.88	  385.93
     98.2700	 1579.00	 1579.03	-1870.36	  385.75
     98.3700	 1507.00	 1568.38	-1931.71	  385.58
     98.4700	 1479.00	 1538.12	-1929.46	  385.40
     98.5700	 1514.00	 1491.36	-1847.70	  385.23
     98.6700	 1392.00	 1432.12	-1910.46	  385.05
     98.7700	 1404.00	 1364.72	-1831.05	  384.88
     98.8700	 1276.00	 1293.28	-1887.61	  384.70
     98.9700	 1237.00	 1221.61	-1854.95	  384.53
     99.0700	 1165.00	 1153.01	-1858.34	  384.35
     99.1700	 1105.00	 1090.30	-1855.64	  384.18
     99.2700	  998.00	 1035.83	-1908.17	  384.01
     99.3700	 1018.00	  991.47	-1843.81	  383.84
     99.4700	  947.00	  958.73	-1882.06	  383.67
     99.5700	  999.00	  938.72	-1810.05	  383.49
     99.6700	  943.00	  932.24	-1859.58	  383.32
     99.7700	  954.00	  939.79	-1856.13	  383.15
     99.8700	 1020.00	  961.56	-1811.89	  382.99
     99.9700	  999.00	  997.45	-1868.78	  382.82
    100.0700	 1064.00	 1047.06	-1853.39	  382.65
    100.1700	 1099.00	 1109.67	-1881.00	  382.48
    100.2700	 1147.00	 1184.17	-1907.51	  382.32
    100.3700	 1277.00	 1269.03	-1862.36	  382.15
    100.4700	 1411.00	 1362.19	-1821.53	  381.98
    100.5700	 1482.00	 1461.11	-1849.45	  381.82
    100.6700	 1533.00	 1562.68	-1900.01	  381.66
    100.7700	 1668.00	 1663.23	-1865.57	  381.49
    100.8700	 1800.00	 1759.05	-1829.38	  381.33
    100.9700	 1801.00	 1846.22	-1915.55	  381.17
    101.0700	 1922.00	 1921.42	-1869.75	  381.01
    101.1700	 1955.00	 1982.11	-1897.44	  380.85
    101.2700	 1981.00	 2026.64	-1915.98	  380.69
    101.3700	 2042.00	 2054.13	-1882.46	  380.53
    101.4700	 2118.00	 2064.06	-1816.40	  380.37
    101.5700	 2051.00	 2056.28	-1875.62	  380.22
    101.6700	 2054.00	 2030.98	-1847.32	  380.06
    101.7700	 2103.00	 1989.13	-1756.47	  379.90
    101.8700	 1930.00	 1932.74	-1873.08	  379.75
    101.9700	 1940.00	 1864.91	-1795.24	  379.60
    102.0700	 1836.00	 1789.50	-1823.84	  379.44
    102.1700	 1699.00	 1710.65	-1881.98	  379.29
    102.2700	 1643.00	 1632.24	-1859.57	  379.14
    102.3700	 1628.00	 1557.50	-1799.84	  378.99
    102.4700	 1553.00	 1488.91	-1806.25	  378.84
    102.5700	 1517.00	 1428.01	-1781.35	  378.70
    102.6700	 1355.00	 1375.58	-1890.91	  378.55
    102.7700	 1409.00	 1331.59	-1792.93	  378.40
    102.8700	 1255.00	 1295.32	-1910.66	  378.26
    102.9700	 1254.00	 1265.49	-1881.83	  378.11
    103.0700	 1214.00	 1240.28	-1896.61	  377.97
    103.1700	 1110.00	 1217.59	-1977.93	  377.83
    103.2700	 1182.00	 1195.26	-1883.60	  377.69
    103.3700	 1227.00	 1171.31	-1814.64	  377.55
    103.4700	 1111.00	 1144.25	-1903.59	  377.41
    103.5700	 1132.00	 1113.33	-1851.67	  377.27
    103.6700	 1043.00	 1078.48	-1905.82	  377.14
    103.7700	 1022.00	 1040.26	-1888.59	  377.00
    103.8700	 1006.00	  999.56	-1863.89	  376.87
    103.9700	  912.00	  957.48	-1915.81	  376.74
    104.0700	  949.00	  915.10	-1836.44	  376.61
    104.1700	  913.00	  873.44	-1830.78	  376.48
    104.2700	  879.00	  833.37	-1824.70	  376.35
    104.3700	  799.00	  795.59	-1866.93	  376.22
    104.4700	  756.00	  760.68	-1875.01	  376.09
    104.5700	  693.00	  729.00	-1906.34	  375.97
    104.6700	  738.00	  700.79	-1833.12	  375.85
    104.7700	  713.00	  676.08	-1833.42	  375.72
    104.8700	  693.00	  654.84	-1832.17	  375.60
    104.9700	  679.00	  636.87	-1828.21	  375.48
    105.0700	  640.00	  621.94	-1852.28	  375.37
    105.1700	  632.00	  609.74	-1848.08	  375.25
    105.2700	  658.00	  599.97	-1812.30	  375.13
    105.3700	  568.00	  592.25	-1894.59	  375.02
    105.4700	  579.00	  586.39	-1877.72	  374.91
    105.5700	  616.00	  582.08	-1836.41	  374.80
    105.6700	  627.00	  579.10	-1822.44	  374.69
    105.7700	  609.00	  577.28	-1838.62	  374.58
    105.8700	  612.00	  576.49	-1834.83	  374.47
    105.9700	  558.00	  576.62	-1888.95	  374.37
    106.0700	  612.00	  577.68	-1836.02	  374.27
    106.1700	  570.00	  579.65	-1879.99	  374.16
    106.2700	  593.00	  582.54	-1859.88	  374.06
    106.3700	  589.00	  586.39	-1867.73	  373.97
    106.4700	  599.00	  591.27	-1862.60	  373.87
    106.5700	  591.00	  597.23	-1876.57	  373.77
    106.6700	  625.00	  604.35	-1849.68	  373.68
    106.7700	  653.00	  612.64	-1829.98	  373.59
    106.8700	  566.00	  622.13	-1926.46	  373.50
    106.9700	  630.00	  632.76	-1873.10	  373.41
    107.0700	  621.00	  644.46	-1893.79	  373.32
    107.1700	  668.00	  657.06	-1859.39	  373.24
    107.2700	  662.00	  670.36	-1878.69	  373.16
    107.3700	  680.00	  684.07	-1874.41	  373.07
    107.4700	  717.00	  697.87	-1851.21	  373.00
    107.5700	  689.00	  711.36	-1892.70	  372.92
    107.6700	  753.00	  724.11	-1841.44	  372.84
    107.7700	  713.00	  735.67	-1893.01	  372.77
    107.8700	  725.00	  745.62	-1890.95	  372.70
    107.9700	  709.00	  753.58	-1914.92	  372.63
    108.0700	  771.00	  759.31	-1858.64	  372.56
    108.1700	  752.00	  762.81	-1881.14	  372.49
    108.2700	  738.00	  764.20	-1896.54	  372.43
    108.3700	  706.00	  763.83	-1928.17	  372.37
    108.4700	  712.00	  762.13	-1920.47	  372.31
    108.5700	  713.00	  759.60	-1916.93	  372.25
    108.6700	  705.00	  756.71	-1922.05	  372.19
    108.7700	  733.00	  753.89	-1891.23	  372.14
    108.8700	  756.00	  751.48	-1865.82	  372.09
    108.9700	  694.00	  749.69	-1926.03	  372.04
    109.0700	  722.00	  748.65	-1896.98	  371.99
    109.1700	  745.00	  748.33	-1873.66	  371.94
    109.2700	  711.00	  748.61	-1907.95	  371.90
    109.3700	  754.00	  749.28	-1865.62	  371.86
    109.4700	  723.00	  750.00	-1897.33	  371.82
    109.5700	  726.00	  750.36	-1894.70	  371.79
    109.6700	  738.00	  749.95	-1882.29	  371.75
    109.7700	  723.00	  748.37	-1895.71	  371.72
    109.8700	  749.00	  745.29	-1866.63	  371.69
    109.9700	  686.00	  740.53	-1924.86	  371.66
    110.0700	  724.00	  734.04	-1880.37	  371.64
    110.1700	  695.00	  725.94	-1901.27	  371.62
    110.2700	  718.00	  716.45	-1868.78	  371.60
    110.3700	  666.00	  705.90	-1910.24	  371.58
    110.4700	  691.00	  694.62	-1873.96	  371.56
    110.5700	  669.00	  682.96	-1884.30	  371.55
    110.6700	  706.00	  671.23	-1835.57	  371.54
    110.7700	  661.00	  659.72	-1869.05	  371.53
    110.8700	  582.00	  648.66	-1937.00	  371.53
    110.9700	  670.00	  638.27	-1838.61	  371.52
    111.0700	  629.00	  628.72	-1870.05	  371.52
    111.1700	  633.00	  620.10	-1857.44	  371.53
    111.2700	  656.00	  612.52	-1826.85	  371.53
    111.3700	  619.00	  605.99	-1857.33	  371.54
    111.4700	  589.00	  600.54	-1881.88	  371.55
    111.5700	  628.00	  596.13	-1838.47	  371.56
    111.6700	  565.00	  592.72	-1898.05	  371.58
    111.7700	  581.00	  590.23	-1879.56	  371.60
    111.8700	  596.00	  588.58	-1862.92	  371.62
    111.9700	  608.00	  587.69	-1850.03	  371.64
    112.0700	  617.00	  587.46	-1840.79	  371.67
    112.1700	  597.00	  587.78	-1861.12	  371.70
    112.2700	  595.00	  588.58	-1863.92	  371.73
    112.3700	  562.00	  589.76	-1898.10	  371.76
    112.4700	  607.00	  591.24	-1854.58	  371.80
    112.5700	  554.00	  592.96	-1909.30	  371.84
    112.6700	  578.00	  594.86	-1887.20	  371.89
    112.7700	  567.00	  596.89	-1900.23	  371.93
    112.8700	  575.00	  599.04	-1894.38	  371.98
    112.9700	  592.00	  601.30	-1879.63	  372.04
    113.0700	  606.00	  603.67	-1868.01	  372.09
    113.1700	  565.00	  606.20	-1911.54	  372.15
    113.2700	  614.00	  608.91	-1865.25	  372.21
    113.3700	  571.00	  611.87	-1911.21	  372.28
    113.4700	  574.00	  615.14	-1911.48	  372.35
    113.5700	  586.00	  618.80	-1903.14	  372.42
    113.6700	  644.00	  622.95	-1849.28	  372.49
    113.7700	  624.00	  627.71	-1874.05	  372.57
    113.8700	  601.00	  633.22	-1902.56	  372.65
    113.9700	  613.00	  639.70	-1897.04	  372.74
    114.0700	  638.00	  647.38	-1879.71	  372.82
    114.1700	  677.00	  656.56	-1849.90	  372.91
    114.2700	  638.00	  667.66	-1900.00	  373.01
    114.3700	  702.00	  681.17	-1849.50	  373.11
    114.4700	  680.00	  697.71	-1888.05	  373.21
    114.5700	  733.00	  718.07	-1855.41	  373.31
    114.6700	  740.00	  743.21	-1873.54	  373.42
    114.7700	  776.00	  774.28	-1868.62	  373.53
    114.8700	  778.00	  812.66	-1905.00	  373.64
    114.9700	  898.00	  859.95	-1832.29	  373.76
    115.0700	  948.00	  917.99	-1840.32	  373.88
    115.1700	 1041.00	  988.83	-1818.17	  374.01
    115.2700	 1150.00	 1074.77	-1795.10	  374.14
    115.3700	 1149.00	 1178.20	-1899.54	  374.27
    115.4700	 1287.00	 1301.64	-1884.98	  374.41
    115.5700	 1520.00	 1447.57	-1797.91	  374.55
    115.6700	 1856.00	 1618.38	-1632.72	  374.69
    115.7700	 2046.00	 1816.24	-1640.57	  374.84
    115.8700	 2172.00	 2042.84	-1741.17	  374.99
    115.9700	 2462.00	 2299.34	-1707.67	  375.14
    116.0700	 2777.00	 2586.09	-1679.43	  375.30
    116.1700	 3112.00	 2902.66	-1660.99	  375.46
    116.2700	 3385.00	 3247.54	-1732.87	  375.63
    116.3700	 3741.00	 3617.97	-1747.31	  375.80
    116.4700	 4042.00	 4010.00	-1838.34	  375.97
    116.5700	 4441.00	 4418.26	-1847.60	  376.15
    116.6700	 4780.00	 4836.31	-1926.64	  376.33
    116.7700	 5165.00	 5256.35	-1961.69	  376.51
    116.8700	 5727.00	 5669.33	-1812.66	  376.70
    116.9700	 5883.00	 6065.23	-2052.56	  376.90
    117.0700	 6244.00	 6433.22	-2059.55	  377.09
    117.1700	 6583.00	 6762.13	-2049.46	  377.29
    117.2700	 7052.00	 7040.88	-1859.22	  377.50
    117.3700	 7077.00	 7259.07	-2052.41	  377.71
    117.4700	 7291.00	 7407.97	-1987.30	  377.92
    117.5700	 7277.00	 7481.35	-2074.68	  378.14
    117.6700	 7270.00	 7476.26	-2076.60	  378.36
    117.7700	 7305.00	 7393.34	-1958.67	  378.59
    117.8700	 7000.00	 7236.74	-2107.08	  378.82
    117.9700	 6871.00	 7013.64	-2012.97	  379.06
    118.0700	 6510.00	 6733.40	-2093.74	  379.30
    118.1700	 6331.00	 6406.60	-1945.94	  379.54
    118.2700	 5877.00	 6044.28	-2037.62	  379.79
    118.3700	 5438.00	 5657.42	-2089.75	  380.04
    118.4700	 5177.00	 5256.37	-1949.71	  380.30
    118.5700	 4869.00	 4850.64	-1851.98	  380.56
    118.6700	 4513.00	 4448.55	-1805.89	  380.82
    118.7700	 4231.00	 4057.16	-1696.50	  381.09
    118.8700	 3915.00	 3682.40	-1637.73	  381.37
    118.9700	 3466.00	 3328.83	-1733.17	  381.65
    119.0700	 3175.00	 2999.82	-1695.16	  381.93
    119.1700	 2831.00	 2697.46	-1736.80	  382.22
    119.2700	 2631.00	 2422.81	-1662.14	  382.51
    119.3700	 2433.00	 2176.08	-1613.42	  382.81
    119.4700	 2057.00	 1956.72	-1770.06	  383.12
    119.5700	 1924.00	 1763.57	-1709.90	  383.42
    119.6700	 1699.00	 1594.96	-1766.30	  383.74
    119.7700	 1615.00	 1448.94	-1704.28	  384.05
    119.8700	 1428.00	 1323.39	-1765.73	  384.37
    119.9700	 1325.00	 1216.11	-1761.45	  384.70
    120.0700	 1218.00	 1124.92	-1777.25	  385.03
    120.1700	 1136.00	 1047.68	-1782.02	  385.37
    120.2700	 1042.00	  982.46	-1810.79	  385.71
    120.3700	  998.00	  927.46	-1799.80	  386.06
    120.4700	  949.00	  881.12	-1802.46	  386.41
    120.5700	  916.00	  842.07	-1796.41	  386.77
    120.6700	  799.00	  809.14	-1880.47	  387.13
    120.7700	  814.00	  781.32	-1837.65	  387.49
    120.8700	  785.00	  757.79	-1843.13	  387.87
    120.9700	  782.00	  737.89	-1826.23	  388.24
    121.0700	  737.00	  721.06	-1854.39	  388.63
    121.1700	  694.00	  706.84	-1883.18	  389.01
    121.2700	  657.00	  694.88	-1908.21	  389.41
    121.3700	  712.00	  684.88	-1843.21	  389.81
    121.4700	  652.00	  676.61	-1894.94	  390.21
    121.5700	  678.00	  669.88	-1862.21	  390.62
    121.6700	  672.00	  664.53	-1862.86	  391.03
    121.7700	  644.00	  660.44	-1886.77	  391.45
    121.8700	  652.00	  657.50	-1875.84	  391.88
    121.9700	  609.00	  655.63	-1916.97	  392.31
    122.0700	  638.00	  654.75	-1887.09	  392.74
    122.1700	  620.00	  654.79	-1905.13	  393.19
    122.2700	  631.00	  655.69	-1895.03	  393.63
    122.3700	  587.00	  657.39	-1940.73	  394.09
    122.4700	  632.00	  659.83	-1898.17	  394.54
    122.5700	  669.00	  662.95	-1864.28	  395.01
    122.6700	  637.00	  666.67	-1900.01	  395.48
    122.7700	  663.00	  670.93	-1878.27	  395.95
    122.8700	  642.00	  675.65	-1903.99	  396.44
    122.9700	  664.00	  680.74	-1887.08	  396.92
    123.0700	  709.00	  686.12	-1847.45	  397.42
    123.1700	  663.00	  691.67	-1899.01	  397.91
    123.2700	  636.00	  697.30	-1931.63	  398.42
    123.3700	  695.00	  702.89	-1878.23	  398.93
    123.4700	  699.00	  708.33	-1879.67	  399.45
    123.5700	  721.00	  713.51	-1862.85	  399.97
    123.6700	  690.00	  718.33	-1898.66	  400.50
    123.7700	  667.00	  722.68	-1926.01	  401.03
    123.8700	  678.00	  726.49	-1918.83	  401.57
    123.9700	  758.00	  729.72	-1842.06	  402.12
    124.0700	  732.00	  732.34	-1870.68	  402.67
    124.1700	  727.00	  734.35	-1877.69	  403.23
    124.2700	  735.00	  735.78	-1871.12	  403.80
    124.3700	  706.00	  736.65	-1900.98	  404.37
    124.4700	  727.00	  737.06	-1880.40	  404.95
    124.5700	  696.00	  737.06	-1911.40	  405.54
    124.6700	  719.00	  736.71	-1888.04	  406.13
    124.7700	  768.00	  736.06	-1838.40	  406.72
    124.8700	  743.00	  735.18	-1862.52	  407.33
    124.9700	  706.00	  531.78	-1696.12	  407.94
    125.0700	  697.00	  532.40	-1870.34	  408.55
    125.1700	  725.00	  533.02	-1870.34	  409.18
    125.2700	  731.00	  533.65	-1870.34	  409.81
    125.3700	  702.00	  534.29	-1870.34	  410.45
    125.4700	  693.00	  534.93	-1870.34	  411.09
    125.5700	  730.00	  535.58	-1870.34	  411.74
    125.6700	  737.00	  536.24	-1870.34	  412.39
    125.7700	  717.00	  536.90	-1870.34	  413.06
    125.8700	  656.00	  537.57	-1870.34	  413.73
    125.9700	  683.00	  538.25	-1870.34	  414.41
    126.0700	  666.00	  538.93	-1870.34	  415.09
    126.1700	  660.00	  539.62	-1870.34	  415.78
    126.2700	  660.00	  540.32	-1870.34	  416.48
    126.3700	  667.00	  541.02	-1870.34	  417.18
    126.4700	  683.00	  541.74	-1870.34	  417.89
    126.5700	  702.00	  542.45	-1870.34	  418.61
    126.6700	  638.00	  543.18	-1870.34	  419.34
    126.7700	  595.00	  543.91	-1870.34	  420.07
    126.8700	  606.00	  544.65	-1870.34	  420.81
    126.9700	  615.00	  545.40	-1870.34	  421.56
    127.0700	  658.00	  546.16	-1870.34	  422.31
    127.1700	  627.00	  546.92	-1870.34	  423.08
    127.2700	  561.00	  547.69	-1870.34	  423.85
    127.3700	  606.00	  548.46	-1870.34	  424.62
    127.4700	  573.00	  549.25	-1870.34	  425.41
    127.5700	  610.00	  550.04	-1870.34	  426.20
    127.6700	  599.00	  550.84	-1870.34	  427.00
    127.7700	  631.00	  551.64	-1870.34	  427.80
    127.8700	  643.00	  552.46	-1870.34	  428.62
    127.9700	  671.00	  553.28	-1870.34	  429.44
    128.0700	  644.00	  554.11	-1870.34	  430.27
    128.1700	  629.00	  554.94	-1870.34	  431.10
    128.2700	  653.00	  555.79	-1870.34	  431.95
    128.3700	  669.00	  556.64	-1870.34	  432.80
    128.4700	  662.00	  557.50	-1870.34	  433.66
    128.5700	    0.00	  558.37	-1870.34	  434.52
    128.6700	    0.00	  559.24	-1870.34	  435.40
     12.4034	        	        	        	        	       0	(  0  0  2)	  0  1
     12.4034	        	        	        	        	    -467	(  0  0  2)	  0  1
     25.0539	        	        	        	        	       0	(  0  0  4)	  0  1
     25.0539	        	        	        	        	    -467	(  0  0  4)	  0  1
     28.5056	        	        	        	        	       0	(  1  0  0)	  0  1
     28.5056	        	        	        	        	    -467	(  1  0  0)	  0  1
     29.2069	        	        	        	        	       0	(  1  0  1)	  0  1
     29.2069	        	        	        	        	    -467	(  1  0  1)	  0  1
     31.2248	        	        	        	        	       0	(  1  0  2)	  0  1
     31.2248	        	        	        	        	    -467	(  1  0  2)	  0  1
     34.3514	        	        	        	        	       0	(  1  0  3)	  0  1
     34.3514	        	        	        	        	    -467	(  1  0  3)	  0  1
     38.0257	        	        	        	        	       0	(  0  0  6)	  0  1
     38.0257	        	        	        	        	    -467	(  0  0  6)	  0  1
     38.3521	        	        	        	        	       0	(  1  0  4)	  0  1
     38.3521	        	        	        	        	    -467	(  1  0  4)	  0  1
     43.0303	        	        	        	        	       0	(  1  0  5)	  0  1
     43.0303	        	        	        	        	    -467	(  1  0  5)	  0  1
     48.2466	        	        	        	        	       0	(  1  0  6)	  0  1
     48.2466	        	        	        	        	    -467	(  1  0  6)	  0  1
     50.5643	        	        	        	        	       0	(  1  1  0)	  0  1
     50.5643	        	        	        	        	    -467	(  1  1  0)	  0  1
     51.5289	        	        	        	        	       0	(  0  0  8)	  0  1
     51.5289	        	        	        	        	    -467	(  0  0  8)	  0  1
     52.2988	        	        	        	        	       0	(  1  1  2)	  0  1
     52.2988	        	        	        	        	    -467	(  1  1  2)	  0  1
     53.9134	        	        	        	        	       0	(  1  0  7)	  0  1
     53.9134	        	        	        	        	    -467	(  1  0  7)	  0  1
     57.2802	        	        	        	        	       0	(  1  1  4)	  0  1
     57.2802	        	        	        	        	    -467	(  1  1  4)	  0  1
     59.1141	        	        	        	        	       0	(  2  0  0)	  0  1
     59.1141	        	        	        	        	    -467	(  2  0  0)	  0  1
     59.5085	        	        	        	        	       0	(  2  0  1)	  0  1
     59.5085	        	        	        	        	    -467	(  2  0  1)	  0  1
     59.9846	        	        	        	        	       0	(  1  0  8)	  0  1
     59.9846	        	        	        	        	    -467	(  1  0  8)	  0  1
     60.6822	        	        	        	        	       0	(  2  0  2)	  0  1
     60.6822	        	        	        	        	    -467	(  2  0  2)	  0  1
     62.6093	        	        	        	        	       0	(  2  0  3)	  0  1
     62.6093	        	        	        	        	    -467	(  2  0  3)	  0  1
     65.0300	        	        	        	        	       0	(  1  1  6)	  0  1
     65.0300	        	        	        	        	    -467	(  1  1  6)	  0  1
     65.2527	        	        	        	        	       0	(  2  0  4)	  0  1
     65.2527	        	        	        	        	    -467	(  2  0  4)	  0  1
     65.8552	        	        	        	        	       0	(  0  0 10)	  0  1
     65.8552	        	        	        	        	    -467	(  0  0 10)	  0  1
     66.4470	        	        	        	        	       0	(  1  0  9)	  0  1
     66.4470	        	        	        	        	    -467	(  1  0  9)	  0  1
     68.5720	        	        	        	        	       0	(  2  0  5)	  0  1
     68.5720	        	        	        	        	    -467	(  2  0  5)	  0  1
     72.5305	        	        	        	        	       0	(  2  0  6)	  0  1
     72.5305	        	        	        	        	    -467	(  2  0  6)	  0  1
     73.3159	        	        	        	        	       0	(  1  0 10)	  0  1
     73.3159	        	        	        	        	    -467	(  1  0 10)	  0  1
     75.1464	        	        	        	        	       0	(  1  1  8)	  0  1
     75.1464	        	        	        	        	    -467	(  1  1  8)	  0  1
     77.1023	        	        	        	        	       0	(  2  0  7)	  0  1
     77.1023	        	        	        	        	    -467	(  2  0  7)	  0  1
     80.6350	        	        	        	        	       0	(  1  0 11)	  0  1
     80.6350	        	        	        	        	    -467	(  1  0 11)	  0  1
     81.4610	        	        	        	        	       0	(  0  0 12)	  0  1
     81.4610	        	        	        	        	    -467	(  0  0 12)	  0  1
     81.5195	        	        	        	        	       0	(  2  1  0)	  0  1
     81.5195	        	        	        	        	    -467	(  2  1  0)	  0  1
     81.8624	        	        	        	        	       0	(  2  1  1)	  0  1
     81.8624	        	        	        	        	    -467	(  2  1  1)	  0  1
     82.2780	        	        	        	        	       0	(  2  0  8)	  0  1
     82.2780	        	        	        	        	    -467	(  2  0  8)	  0  1
     82.8897	        	        	        	        	       0	(  2  1  2)	  0  1
     82.8897	        	        	        	        	    -467	(  2  1  2)	  0  1
     84.5969	        	        	        	        	       0	(  2  1  3)	  0  1
     84.5969	        	        	        	        	    -467	(  2  1  3)	  0  1
     86.9795	        	        	        	        	       0	(  2  1  4)	  0  1
     86.9795	        	        	        	        	    -467	(  2  1  4)	  0  1
     87.5290	        	        	        	        	       0	(  1  1 10)	  0  1
     87.5290	        	        	        	        	    -467	(  1  1 10)	  0  1
     88.0711	        	        	        	        	       0	(  2  0  9)	  0  1
     88.0711	        	        	        	        	    -467	(  2  0  9)	  0  1
     88.4829	        	        	        	        	       0	(  1  0 12)	  0  1
     88.4829	        	        	        	        	    -467	(  1  0 12)	  0  1
     90.0359	        	        	        	        	       0	(  2  1  5)	  0  1
     90.0359	        	        	        	        	    -467	(  2  1  5)	  0  1
     93.7729	        	        	        	        	       0	(  2  1  6)	  0  1
     93.7729	        	        	        	        	    -467	(  2  1  6)	  0  1
     94.5262	        	        	        	        	       0	(  2  0 10)	  0  1
     94.5262	        	        	        	        	    -467	(  2  0 10)	  0  1
     95.5414	        	        	        	        	       0	(  3  0  0)	  0  1
     95.5414	        	        	        	        	    -467	(  3  0  0)	  0  1
     95.8827	        	        	        	        	       0	(  3  0  1)	  0  1
     95.8827	        	        	        	        	    -467	(  3  0  1)	  0  1
     96.9076	        	        	        	        	       0	(  3  0  2)	  0  1
     96.9076	        	        	        	        	    -467	(  3  0  2)	  0  1
     96.9876	        	        	        	        	       0	(  1  0 13)	  0  1
     96.9876	        	        	        	        	    -467	(  1  0 13)	  0  1
     98.2121	        	        	        	        	       0	(  2  1  7)	  0  1
     98.2121	        	        	        	        	    -467	(  2  1  7)	  0  1
     98.6211	        	        	        	        	       0	(  3  0  3)	  0  1
     98.6211	        	        	        	        	    -467	(  3  0  3)	  0  1
     99.1841	        	        	        	        	       0	(  0  0 14)	  0  1
     99.1841	        	        	        	        	    -467	(  0  0 14)	  0  1
    101.0336	        	        	        	        	       0	(  3  0  4)	  0  1
    101.0336	        	        	        	        	    -467	(  3  0  4)	  0  1
    101.7337	        	        	        	        	       0	(  2  0 11)	  0  1
    101.7337	        	        	        	        	    -467	(  2  0 11)	  0  1
    102.5689	        	        	        	        	       0	(  1  1 12)	  0  1
    102.5689	        	        	        	        	    -467	(  1  1 12)	  0  1
    103.3994	        	        	        	        	       0	(  2  1  8)	  0  1
    103.3994	        	        	        	        	    -467	(  2  1  8)	  0  1
    104.1657	        	        	        	        	       0	(  3  0  5)	  0  1
    104.1657	        	        	        	        	    -467	(  3  0  5)	  0  1
    106.3604	        	        	        	        	       0	(  1  0 14)	  0  1
    106.3604	        	        	        	        	    -467	(  1  0 14)	  0  1
    108.0550	        	        	        	        	       0	(  3  0  6)	  0  1
    108.0550	        	        	        	        	    -467	(  3  0  6)	  0  1
    109.4210	        	        	        	        	       0	(  2  1  9)	  0  1
    109.4210	        	        	        	        	    -467	(  2  1  9)	  0  1
    109.8584	        	        	        	        	       0	(  2  0 12)	  0  1
    109.8584	        	        	        	        	    -467	(  2  0 12)	  0  1
    112.7680	        	        	        	        	       0	(  3  0  7)	  0  1
    112.7680	        	        	        	        	    -467	(  3  0  7)	  0  1
    116.4334	        	        	        	        	       0	(  2  1 10)	  0  1
    116.4334	        	        	        	        	    -467	(  2  1 10)	  0  1
    116.9755	        	        	        	        	       0	(  1  0 15)	  0  1
    116.9755	        	        	        	        	    -467	(  1  0 15)	  0  1
    117.5693	        	        	        	        	       0	(  2  2  0)	  0  1
    117.5693	        	        	        	        	    -467	(  2  2  0)	  0  1
    118.4207	        	        	        	        	       0	(  3  0  8)	  0  1
    118.4207	        	        	        	        	    -467	(  3  0  8)	  0  1
    119.1135	        	        	        	        	       0	(  2  2  2)	  0  1
    119.1135	        	        	        	        	    -467	(  2  2  2)	  0  1
    119.2045	        	        	        	        	       0	(  2  0 13)	  0  1
    119.2045	        	        	        	        	    -467	(  2  0 13)	  0  1
    121.0181	        	        	        	        	       0	(  0  0 16)	  0  1
    121.0181	        	        	        	        	    -467	(  0  0 16)	  0  1
    121.7294	        	        	        	        	       0	(  1  1 14)	  0  1
    121.7294	        	        	        	        	    -467	(  1  1 14)	  0  1
    123.8976	        	        	        	        	       0	(  2  2  4)	  0  1
    123.8976	        	        	        	        	    -467	(  2  2  4)	  0  1
    124.7292	        	        	        	        	       0	(  2  1 11)	  0  1
    124.7292	        	        	        	        	    -467	(  2  1 11)	  0  1
    125.2234	        	        	        	        	       0	(  3  0  9)	  0  1
    125.2234	        	        	        	        	    -467	(  3  0  9)	  0  1
    125.8009	        	        	        	        	       0	(  3  1  0)	  0  1
    125.8009	        	        	        	        	    -467	(  3  1  0)	  0  1
    126.2211	        	        	        	        	       0	(  3  1  1)	  0  1
    126.2211	        	        	        	        	    -467	(  3  1  1)	  0  1
    127.4955	        	        	        	        	       0	(  3  1  2)	  0  1
    127.4955	        	        	        	        	    -467	(  3  1  2)	  0  1
    129.6039	        	        	        	        	       0	(  1  0 16)	  0  1
    129.6039	        	        	        	        	    -467	(  1  0 16)	  0  1
    129.6698	        	        	        	        	       0	(  3  1  3)	  0  1
    129.6698	        	        	        	        	    -467	(  3  1  3)	  0  1
    130.3971	        	        	        	        	       0	(  2  0 14)	  0  1
    130.3971	        	        	        	        	    -467	(  2  0 14)	  0  1
    132.5599	        	        	        	        	       0	(  2  2  6)	  0  1
    132.5599	        	        	        	        	    -467	(  2  2  6)	  0  1
    132.8355	        	        	        	        	       0	(  3  1  4)	  0  1
    132.8355	        	        	        	        	    -467	(  3  1  4)	  0  1
    133.5898	        	        	        	        	       0	(  3  0 10)	  0  1
    133.5898	        	        	        	        	    -467	(  3  0 10)	  0  1
    134.9231	        	        	        	        	       0	(  2  1 12)	  0  1
    134.9231	        	        	        	        	    -467	(  2  1 12)	  0  1
    137.1644	        	        	        	        	       0	(  3  1  5)	  0  1
    137.1644	        	        	        	        	    -467	(  3  1  5)	  0  1
    142.9975	        	        	        	        	       0	(  3  1  6)	  0  1
    142.9975	        	        	        	        	    -467	(  3  1  6)	  0  1
    144.5033	        	        	        	        	       0	(  3  0 11)	  0  1
    144.5033	        	        	        	        	    -467	(  3  0 11)	  0  1
    145.1062	        	        	        	        	       0	(  2  0 15)	  0  1
    145.1062	        	        	        	        	    -467	(  2  0 15)	  0  1
    146.4450	        	        	        	        	       0	(  1  0 17)	  0  1
    146.4450	        	        	        	        	    -467	(  1  0 17)	  0  1
    147.4139	        	        	        	        	       0	(  2  2  8)	  0  1
    147.4139	        	        	        	        	    -467	(  2  2  8)	  0  1
    148.7144	        	        	        	        	       0	(  2  1 13)	  0  1
    148.7144	        	        	        	        	    -467	(  2  1 13)	  0  1
    151.1433	        	        	        	        	       0	(  3  1  7)	  0  1
    151.1433	        	        	        	        	    -467	(  3  1  7)	  0  1
    151.8875	        	        	        	        	       0	(  1  1 16)	  0  1
    151.8875	        	        	        	        	    -467	(  1  1 16)	  0  1
    156.7746	        	        	        	        	       0	(  0  0 18)	  0  1
    156.7746	        	        	        	        	    -467	(  0  0 18)	  0  1
    161.9653	        	        	        	        	       0	(  3  0 12)	  0  1
    161.9653	        	        	        	        	    -467	(  3  0 12)	  0  1
    162.1540	        	        	        	        	       0	(  4  0  0)	  0  1
    162.1540	        	        	        	        	    -467	(  4  0  0)	  0  1
    163.3036	        	        	        	        	       0	(  4  0  1)	  0  1
    163.3036	        	        	        	        	    -467	(  4  0  1)	  0  1
    164.8111	        	        	        	        	       0	(  3  1  8)	  0  1
    164.8111	        	        	        	        	    -467	(  3  1  8)	  0  1
    167.3505	        	        	        	        	       0	(  4  0  2)	  0  1
    167.3505	        	        	        	        	    -467	(  4  0  2)	  0  1
