MSG Master    CELL:    5.91909   5.91909  23.27271   90.0000   90.0000  120.0000   SPGR: P 63/m m c             TEMP:   1074.85
  1   1280     2.52000     0.00000    -0.12904     0.00000     0.00000    0
    99     0     2
       0.00000      10.00000
     125.00000     130.00000
 2Theta	Yobs	Ycal	Yobs-Ycal	Backg	Posr	(hkl)	K
      0.7700	    0.00	  548.47	-1740.50	  429.89
      0.8700	    0.00	  549.16	-1740.50	  430.57
      0.9700	   35.00	  549.84	-1740.50	  431.25
      1.0700	   52.00	  550.50	-1740.50	  431.92
      1.1700	   32.00	  551.16	-1740.50	  432.57
      1.2700	   43.00	  551.80	-1740.50	  433.22
      1.3700	   40.00	  552.44	-1740.50	  433.85
      1.4700	   88.00	  553.06	-1740.50	  434.48
      1.5700	  280.00	  553.68	-1740.50	  435.09
      1.6700	  451.00	  554.28	-1740.50	  435.70
      1.7700	  574.00	  554.88	-1740.50	  436.29
      1.8700	  633.00	  555.46	-1740.50	  436.88
      1.9700	  751.00	  556.04	-1740.50	  437.45
      2.0700	  759.00	  556.60	-1740.50	  438.02
      2.1700	  841.00	  557.16	-1740.50	  438.57
      2.2700	  784.00	  557.70	-1740.50	  439.12
      2.3700	  763.00	  558.24	-1740.50	  439.66
      2.4700	  684.00	  558.77	-1740.50	  440.18
      2.5700	  678.00	  559.28	-1740.50	  440.70
      2.6700	  684.00	  559.79	-1740.50	  441.21
      2.7700	  628.00	  560.29	-1740.50	  441.71
      2.8700	  667.00	  560.78	-1740.50	  442.19
      2.9700	  664.00	  561.26	-1740.50	  442.67
      3.0700	  625.00	  561.73	-1740.50	  443.15
      3.1700	  608.00	  562.19	-1740.50	  443.61
      3.2700	  614.00	  562.64	-1740.50	  444.06
      3.3700	  626.00	  563.09	-1740.50	  444.50
      3.4700	  811.00	  563.52	-1740.50	  444.94
      3.5700	  780.00	  563.95	-1740.50	  445.36
      3.6700	  885.00	  564.36	-1740.50	  445.78
      3.7700	  877.00	  564.77	-1740.50	  446.19
      3.8700	  943.00	  565.17	-1740.50	  446.59
      3.9700	 1032.00	  565.56	-1740.50	  446.98
      4.0700	 1065.00	  565.95	-1740.50	  447.36
      4.1700	 1055.00	  566.32	-1740.50	  447.74
      4.2700	 1061.00	  566.69	-1740.50	  448.10
      4.3700	 1093.00	  567.05	-1740.50	  448.46
      4.4700	 1056.00	  567.40	-1740.50	  448.81
      4.5700	 1014.00	  567.74	-1740.50	  449.15
      4.6700	 1054.00	  568.07	-1740.50	  449.49
      4.7700	 1002.00	  568.39	-1740.50	  449.81
      4.8700	  954.00	  568.71	-1740.50	  450.13
      4.9700	 1005.00	  569.02	-1740.50	  450.44
      5.0700	  938.00	  569.32	-1740.50	  450.74
      5.1700	  986.00	  569.62	-1740.50	  451.03
      5.2700	  899.00	  569.90	-1740.50	  451.32
      5.3700	  916.00	  570.18	-1740.50	  451.60
      5.4700	  887.00	  570.45	-1740.50	  451.87
      5.5700	  854.00	  570.71	-1740.50	  452.13
      5.6700	  867.00	  570.97	-1740.50	  452.39
      5.7700	  824.00	  571.22	-1740.50	  452.63
      5.8700	  843.00	  571.46	-1740.50	  452.87
      5.9700	  821.00	  571.69	-1740.50	  453.11
      6.0700	  785.00	  571.92	-1740.50	  453.33
      6.1700	  777.00	  572.14	-1740.50	  453.55
      6.2700	  735.00	  572.35	-1740.50	  453.77
      6.3700	  808.00	  572.55	-1740.50	  453.97
      6.4700	  770.00	  572.75	-1740.50	  454.17
      6.5700	  729.00	  572.94	-1740.50	  454.36
      6.6700	  726.00	  573.13	-1740.50	  454.54
      6.7700	  714.00	  573.30	-1740.50	  454.72
      6.8700	  680.00	  573.47	-1740.50	  454.89
      6.9700	  670.00	  573.64	-1740.50	  455.05
      7.0700	  690.00	  573.79	-1740.50	  455.21
      7.1700	  691.00	  573.95	-1740.50	  455.36
      7.2700	  644.00	  574.09	-1740.50	  455.50
      7.3700	  656.00	  574.23	-1740.50	  455.64
      7.4700	  633.00	  574.36	-1740.50	  455.77
      7.5700	  661.00	  574.48	-1740.50	  455.90
      7.6700	  659.00	  574.60	-1740.50	  456.02
      7.7700	  725.00	  574.71	-1740.50	  456.13
      7.8700	  610.00	  574.82	-1740.50	  456.23
      7.9700	  661.00	  574.92	-1740.50	  456.33
      8.0700	  641.00	  575.01	-1740.50	  456.43
      8.1700	  623.00	  575.10	-1740.50	  456.51
      8.2700	  668.00	  575.18	-1740.50	  456.59
      8.3700	  647.00	  575.25	-1740.50	  456.67
      8.4700	  632.00	  575.32	-1740.50	  456.74
      8.5700	  622.00	  575.39	-1740.50	  456.80
      8.6700	  627.00	  575.44	-1740.50	  456.86
      8.7700	  607.00	  575.50	-1740.50	  456.91
      8.8700	  589.00	  575.54	-1740.50	  456.96
      8.9700	  594.00	  575.58	-1740.50	  457.00
      9.0700	  643.00	  575.62	-1740.50	  457.03
      9.1700	  603.00	  575.65	-1740.50	  457.06
      9.2700	  589.00	  575.67	-1740.50	  457.09
      9.3700	  605.00	  575.69	-1740.50	  457.11
      9.4700	  625.00	  575.70	-1740.50	  457.12
      9.5700	  589.00	  575.71	-1740.50	  457.13
      9.6700	  638.00	  575.71	-1740.50	  457.13
      9.7700	  619.00	  575.71	-1740.50	  457.13
      9.8700	  587.00	  575.70	-1740.50	  457.12
      9.9700	  589.00	  575.69	-1740.50	  457.11
     10.0700	  604.00	  576.49	-1712.99	  457.09
     10.1700	  607.00	  576.55	-1710.05	  457.07
     10.2700	  578.00	  576.63	-1739.13	  457.04
     10.3700	  634.00	  576.74	-1683.24	  457.01
     10.4700	  543.00	  576.91	-1774.41	  456.97
     10.5700	  600.00	  577.19	-1717.69	  456.93
     10.6700	  567.00	  577.70	-1751.20	  456.88
     10.7700	  628.00	  578.55	-1691.05	  456.83
     10.8700	  580.00	  579.80	-1740.30	  456.77
     10.9700	  610.00	  581.46	-1711.96	  456.71
     11.0700	  593.00	  583.48	-1730.98	  456.64
     11.1700	  585.00	  585.87	-1741.37	  456.57
     11.2700	  564.00	  588.64	-1765.14	  456.50
     11.3700	  555.00	  591.90	-1777.40	  456.42
     11.4700	  574.00	  595.78	-1762.28	  456.34
     11.5700	  610.00	  600.50	-1731.00	  456.25
     11.6700	  625.00	  606.43	-1721.93	  456.16
     11.7700	  627.00	  614.23	-1727.73	  456.06
     11.8700	  643.00	  624.91	-1722.41	  455.96
     11.9700	  682.00	  639.18	-1697.68	  455.85
     12.0700	  676.00	  655.31	-1719.81	  455.75
     12.1700	  697.00	  666.53	-1710.03	  455.63
     12.2700	  685.00	  662.33	-1717.83	  455.52
     12.3700	  677.00	  640.02	-1703.52	  455.39
     12.4700	  614.00	  613.43	-1739.93	  455.27
     12.5700	  588.00	  594.33	-1746.83	  455.14
     12.6700	  581.00	  584.14	-1743.64	  455.01
     12.7700	  564.00	  579.61	-1756.11	  454.87
     12.8700	  607.00	  577.56	-1711.06	  454.73
     12.9700	  555.00	  576.43	-1761.93	  454.59
     13.0700	  592.00	  575.64	-1724.14	  454.44
     13.1700	  603.00	  575.04	-1712.54	  454.29
     13.2700	  560.00	  574.55	-1755.05	  454.13
     13.3700	  537.00	  574.13	-1777.63	  453.98
     13.4700	  549.00	  573.76	-1765.26	  453.81
     13.5700	  533.00	  573.44	-1780.94	  453.65
     13.6700	  566.00	  573.14	-1747.64	  453.48
     13.7700	  554.00	  572.86	-1759.36	  453.31
     13.8700	  593.00	  572.59	-1720.09	  453.13
     13.9700	  557.00	  572.34	-1755.84	  452.96
     14.0700	  578.00	  572.09	-1734.59	  452.77
     14.1700	  579.00	  571.85	-1733.35	  452.59
     14.2700	  546.00	  571.61	-1766.11	  452.40
     14.3700	  579.00	  571.38	-1732.88	  452.21
     14.4700	  560.00	  571.15	-1751.65	  452.02
     14.5700	  548.00	  570.92	-1763.42	  451.82
     14.6700	  569.00	  570.69	-1742.19	  451.62
     14.7700	  557.00	  570.46	-1753.96	  451.41
     14.8700	  575.00	  570.23	-1735.73	  451.21
     14.9700	  580.00	  570.01	-1730.51	  451.00
     15.0700	  525.00	  569.78	-1785.28	  450.79
     15.1700	  540.00	  569.54	-1770.04	  450.57
     15.2700	  542.00	  569.31	-1767.81	  450.36
     15.3700	  543.00	  569.08	-1766.58	  450.14
     15.4700	  589.00	  568.84	-1720.34	  449.91
     15.5700	  595.00	  568.61	-1714.11	  449.69
     15.6700	  559.00	  568.37	-1749.87	  449.46
     15.7700	  603.00	  568.13	-1705.63	  449.23
     15.8700	  563.00	  567.89	-1745.39	  449.00
     15.9700	  598.00	  567.64	-1710.14	  448.76
     16.0700	  542.00	  567.40	-1765.90	  448.52
     16.1700	  570.00	  567.15	-1737.65	  448.28
     16.2700	  553.00	  566.93	-1754.43	  448.04
     16.3700	  581.00	  566.68	-1726.18	  447.79
     16.4700	  525.00	  566.43	-1781.93	  447.55
     16.5700	  536.00	  566.17	-1770.67	  447.30
     16.6700	  566.00	  565.92	-1740.42	  447.04
     16.7700	  588.00	  565.66	-1718.16	  446.79
     16.8700	  561.00	  565.40	-1744.90	  446.53
     16.9700	  541.00	  565.14	-1764.64	  446.28
     17.0700	  538.00	  564.87	-1767.37	  446.01
     17.1700	  547.00	  564.61	-1758.11	  445.75
     17.2700	  542.00	  564.34	-1762.84	  445.49
     17.3700	  587.00	  564.07	-1717.57	  445.22
     17.4700	  566.00	  563.80	-1738.30	  444.95
     17.5700	  581.00	  563.53	-1723.03	  444.68
     17.6700	  569.00	  563.26	-1734.76	  444.41
     17.7700	  574.00	  562.98	-1729.48	  444.14
     17.8700	  574.00	  562.70	-1729.20	  443.86
     17.9700	  509.00	  562.43	-1793.93	  443.58
     18.0700	  551.00	  562.25	-1751.75	  443.30
     18.1700	  557.00	  561.97	-1745.47	  443.02
     18.2700	  557.00	  561.69	-1745.19	  442.74
     18.3700	  531.00	  561.40	-1770.90	  442.45
     18.4700	  553.00	  561.12	-1748.62	  442.17
     18.5700	  543.00	  560.83	-1758.33	  441.88
     18.6700	  566.00	  560.55	-1735.05	  441.59
     18.7700	  551.00	  560.26	-1749.76	  441.30
     18.8700	  521.00	  559.97	-1779.47	  441.01
     18.9700	  576.00	  559.77	-1724.27	  440.72
     19.0700	  589.00	  559.48	-1710.98	  440.42
     19.1700	  554.00	  559.19	-1745.69	  440.12
     19.2700	  601.00	  558.90	-1698.40	  439.83
     19.3700	  554.00	  558.60	-1745.10	  439.53
     19.4700	  539.00	  558.31	-1759.81	  439.23
     19.5700	  550.00	  558.01	-1748.51	  438.93
     19.6700	  551.00	  557.72	-1747.22	  438.62
     19.7700	  544.00	  557.42	-1753.92	  438.32
     19.8700	  585.00	  557.13	-1712.63	  438.01
     19.9700	  552.00	  556.83	-1745.33	  437.71
     20.0700	  573.00	  556.53	-1724.03	  437.40
     20.1700	  553.00	  556.23	-1743.73	  437.09
     20.2700	  571.00	  555.93	-1725.43	  436.78
     20.3700	  574.00	  555.63	-1722.13	  436.47
     20.4700	  543.00	  555.33	-1752.83	  436.16
     20.5700	  590.00	  555.00	-1705.50	  435.85
     20.6700	  520.00	  554.70	-1775.20	  435.53
     20.7700	  555.00	  554.40	-1739.90	  435.22
     20.8700	  570.00	  554.10	-1724.60	  434.90
     20.9700	  539.00	  553.83	-1755.33	  434.59
     21.0700	  537.00	  553.53	-1757.03	  434.27
     21.1700	  538.00	  553.23	-1755.73	  433.95
     21.2700	  555.00	  552.93	-1738.43	  433.63
     21.3700	  504.00	  552.64	-1789.14	  433.32
     21.4700	  528.00	  552.34	-1764.84	  433.00
     21.5700	  523.00	  552.04	-1769.54	  432.68
     21.6700	  542.00	  551.75	-1750.25	  432.35
     21.7700	  545.00	  551.45	-1746.95	  432.03
     21.8700	  553.00	  551.16	-1738.66	  431.71
     21.9700	  547.00	  550.87	-1744.37	  431.39
     22.0700	  528.00	  550.58	-1763.08	  431.06
     22.1700	  556.00	  550.29	-1734.79	  430.74
     22.2700	  513.00	  550.01	-1777.51	  430.41
     22.3700	  564.00	  549.72	-1726.22	  430.09
     22.4700	  554.00	  549.45	-1735.95	  429.76
     22.5700	  527.00	  549.18	-1762.68	  429.44
     22.6700	  564.00	  548.91	-1725.41	  429.11
     22.7700	  540.00	  548.65	-1749.15	  428.79
     22.8700	  494.00	  548.40	-1794.90	  428.46
     22.9700	  571.00	  548.16	-1717.66	  428.13
     23.0700	  537.00	  547.93	-1751.43	  427.80
     23.1700	  579.00	  547.72	-1709.22	  427.48
     23.2700	  535.00	  547.52	-1753.02	  427.15
     23.3700	  545.00	  547.36	-1742.86	  426.82
     23.4700	  553.00	  547.23	-1734.73	  426.49
     23.5700	  545.00	  547.14	-1742.64	  426.16
     23.6700	  574.00	  547.12	-1713.62	  425.83
     23.7700	  559.00	  547.35	-1728.85	  425.50
     23.8700	  547.00	  547.66	-1741.16	  425.18
     23.9700	  543.00	  548.42	-1745.92	  424.85
     24.0700	  547.00	  550.07	-1743.57	  424.52
     24.1700	  536.00	  553.29	-1757.79	  424.19
     24.2700	  564.00	  558.94	-1735.44	  423.86
     24.3700	  557.00	  568.01	-1751.51	  423.53
     24.4700	  563.00	  581.56	-1759.06	  423.20
     24.5700	  563.00	  599.86	-1777.36	  422.87
     24.6700	  613.00	  619.95	-1747.45	  422.54
     24.7700	  653.00	  633.58	-1721.08	  422.21
     24.8700	  616.00	  629.88	-1754.38	  421.88
     24.9700	  636.00	  607.97	-1712.47	  421.56
     25.0700	  626.00	  581.98	-1696.48	  421.23
     25.1700	  592.00	  562.83	-1711.33	  420.90
     25.2700	  557.00	  552.19	-1735.69	  420.57
     25.3700	  540.00	  547.27	-1747.77	  420.24
     25.4700	  566.00	  545.04	-1719.54	  419.91
     25.5700	  543.00	  543.85	-1741.35	  419.59
     25.6700	  584.00	  543.08	-1699.58	  419.26
     25.7700	  571.00	  542.51	-1712.01	  418.93
     25.8700	  549.00	  542.08	-1733.58	  418.61
     25.9700	  563.00	  541.75	-1719.25	  418.28
     26.0700	  540.00	  541.50	-1742.00	  417.96
     26.1700	  532.00	  541.34	-1749.84	  417.63
     26.2700	  565.00	  541.24	-1716.74	  417.30
     26.3700	  519.00	  541.23	-1762.73	  416.98
     26.4700	  545.00	  541.30	-1736.80	  416.66
     26.5700	  549.00	  541.46	-1732.96	  416.33
     26.6700	  545.00	  541.74	-1737.24	  416.01
     26.7700	  543.00	  542.15	-1739.65	  415.69
     26.8700	  594.00	  542.73	-1689.23	  415.36
     26.9700	  589.00	  543.54	-1695.04	  415.04
     27.0700	  576.00	  544.65	-1709.15	  414.72
     27.1700	  516.00	  546.18	-1770.68	  414.40
     27.2700	  563.00	  548.41	-1725.91	  414.08
     27.3700	  555.00	  551.82	-1737.32	  413.76
     27.4700	  548.00	  557.40	-1749.90	  413.44
     27.5700	  553.00	  566.92	-1754.42	  413.13
     27.6700	  557.00	  583.16	-1766.66	  412.81
     27.7700	  552.00	  609.71	-1798.21	  412.49
     27.8700	  628.00	  649.65	-1762.15	  412.18
     27.9700	  679.00	  703.04	-1764.54	  411.86
     28.0700	  798.00	  763.64	-1706.14	  411.55
     28.1700	  909.00	  816.06	-1647.56	  411.23
     28.2700	  879.00	  837.44	-1698.94	  410.92
     28.3700	  876.00	  815.14	-1679.64	  410.61
     28.4700	  810.00	  771.78	-1702.28	  410.30
     28.5700	  704.00	  742.84	-1779.34	  409.98
     28.6700	  729.00	  743.95	-1755.45	  409.68
     28.7700	  739.00	  769.72	-1771.22	  409.37
     28.8700	  830.00	  799.29	-1709.79	  409.06
     28.9700	  825.00	  803.63	-1719.13	  408.75
     29.0700	  761.00	  765.03	-1744.53	  408.44
     29.1700	  671.00	  700.50	-1770.00	  408.14
     29.2700	  663.00	  639.57	-1717.07	  407.83
     29.3700	  569.00	  595.97	-1767.47	  407.53
     29.4700	  617.00	  569.83	-1693.33	  407.23
     29.5700	  597.00	  555.80	-1699.30	  406.93
     29.6700	  608.00	  548.41	-1680.91	  406.63
     29.7700	  565.00	  544.22	-1719.72	  406.33
     29.8700	  554.00	  541.58	-1728.08	  406.03
     29.9700	  555.00	  539.88	-1725.38	  405.73
     30.0700	  563.00	  538.96	-1716.46	  405.43
     30.1700	  591.00	  538.97	-1688.47	  405.14
     30.2700	  584.00	  540.40	-1696.90	  404.84
     30.3700	  543.00	  544.26	-1741.76	  404.55
     30.4700	  570.00	  552.04	-1722.54	  404.26
     30.5700	  566.00	  565.33	-1739.83	  403.96
     30.6700	  571.00	  584.55	-1754.05	  403.67
     30.7700	  640.00	  607.26	-1707.76	  403.39
     30.8700	  606.00	  626.89	-1761.39	  403.10
     30.9700	  613.00	  633.47	-1760.97	  402.81
     31.0700	  580.00	  620.44	-1780.94	  402.52
     31.1700	  601.00	  594.75	-1734.25	  402.24
     31.2700	  547.00	  569.22	-1762.72	  401.96
     31.3700	  575.00	  550.52	-1716.02	  401.67
     31.4700	  558.00	  539.23	-1721.73	  401.39
     31.5700	  546.00	  533.24	-1727.74	  401.11
     31.6700	  562.00	  530.16	-1708.66	  400.84
     31.7700	  544.00	  528.44	-1724.94	  400.56
     31.8700	  572.00	  527.36	-1695.86	  400.28
     31.9700	  548.00	  526.60	-1719.10	  400.01
     32.0700	  557.00	  526.05	-1709.55	  399.73
     32.1700	  538.00	  525.68	-1728.18	  399.46
     32.2700	  537.00	  525.46	-1728.96	  399.19
     32.3700	  533.00	  525.38	-1732.88	  398.92
     32.4700	  508.00	  525.45	-1757.95	  398.65
     32.5700	  554.00	  525.69	-1712.19	  398.39
     32.6700	  555.00	  526.11	-1711.61	  398.12
     32.7700	  562.00	  526.77	-1705.27	  397.86
     32.8700	  539.00	  527.73	-1729.23	  397.59
     32.9700	  577.00	  529.11	-1692.61	  397.33
     33.0700	  524.00	  531.11	-1747.61	  397.07
     33.1700	  552.00	  534.18	-1722.68	  396.81
     33.2700	  544.00	  539.37	-1735.87	  396.55
     33.3700	  538.00	  548.93	-1751.43	  396.30
     33.4700	  577.00	  567.24	-1730.74	  396.04
     33.5700	  609.00	  601.25	-1732.75	  395.79
     33.6700	  631.00	  658.96	-1768.46	  395.54
     33.7700	  764.00	  744.00	-1720.50	  395.29
     33.8700	  860.00	  847.02	-1727.52	  395.04
     33.9700	  961.00	  940.09	-1719.59	  394.79
     34.0700	 1054.00	  980.45	-1666.95	  394.55
     34.1700	 1015.00	  937.16	-1662.66	  394.30
     34.2700	  866.00	  832.91	-1707.41	  394.06
     34.3700	  764.00	  721.56	-1698.06	  393.82
     34.4700	  639.00	  635.90	-1737.40	  393.58
     34.5700	  561.00	  582.41	-1761.91	  393.34
     34.6700	  561.00	  553.67	-1733.17	  393.10
     34.7700	  526.00	  539.33	-1753.83	  392.87
     34.8700	  516.00	  531.87	-1756.37	  392.63
     34.9700	  539.00	  527.42	-1728.92	  392.40
     35.0700	  539.00	  524.33	-1725.83	  392.17
     35.1700	  518.00	  522.00	-1744.50	  391.94
     35.2700	  540.00	  520.17	-1720.67	  391.71
     35.3700	  531.00	  518.67	-1728.17	  391.48
     35.4700	  534.00	  517.42	-1723.92	  391.26
     35.5700	  481.00	  516.37	-1775.87	  391.04
     35.6700	  525.00	  515.46	-1730.96	  390.81
     35.7700	  508.00	  514.67	-1747.17	  390.59
     35.8700	  533.00	  513.98	-1721.48	  390.38
     35.9700	  552.00	  513.36	-1701.86	  390.16
     36.0700	  510.00	  513.28	-1743.78	  389.94
     36.1700	  512.00	  512.79	-1741.29	  389.73
     36.2700	  500.00	  512.34	-1752.84	  389.52
     36.3700	  508.00	  511.94	-1744.44	  389.31
     36.4700	  481.00	  511.58	-1771.08	  389.10
     36.5700	  503.00	  511.25	-1748.75	  388.89
     36.6700	  524.00	  510.97	-1727.47	  388.69
     36.7700	  500.00	  510.73	-1751.23	  388.48
     36.8700	  502.00	  510.56	-1749.06	  388.28
     36.9700	  493.00	  510.52	-1758.02	  388.08
     37.0700	  549.00	  510.76	-1702.26	  387.88
     37.1700	  490.00	  511.53	-1762.03	  387.68
     37.2700	  568.00	  513.24	-1685.74	  387.49
     37.3700	  578.00	  516.26	-1678.76	  387.29
     37.4700	  562.00	  520.57	-1699.07	  387.10
     37.5700	  537.00	  525.35	-1728.85	  386.91
     37.6700	  486.00	  528.92	-1783.42	  386.72
     37.7700	  478.00	  529.45	-1791.95	  386.54
     37.8700	  498.00	  526.63	-1769.13	  386.35
     37.9700	  518.00	  522.18	-1744.68	  386.17
     38.0700	  497.00	  517.75	-1761.25	  385.98
     38.1700	  469.00	  514.00	-1785.50	  385.80
     38.2700	  486.00	  511.15	-1765.65	  385.62
     38.3700	  511.00	  509.17	-1738.67	  385.45
     38.4700	  481.00	  507.86	-1767.36	  385.27
     38.5700	  499.00	  507.01	-1748.51	  385.10
     38.6700	  515.00	  506.37	-1731.87	  384.93
     38.7700	  507.00	  505.99	-1739.49	  384.76
     38.8700	  529.00	  505.69	-1717.19	  384.59
     38.9700	  485.00	  505.45	-1760.95	  384.42
     39.0700	  455.00	  505.23	-1790.73	  384.26
     39.1700	  506.00	  504.94	-1739.44	  384.09
     39.2700	  519.00	  504.76	-1726.26	  383.93
     39.3700	  505.00	  504.59	-1740.09	  383.77
     39.4700	  516.00	  504.43	-1728.93	  383.61
     39.5700	  514.00	  504.28	-1730.78	  383.46
     39.6700	  524.00	  504.26	-1720.76	  383.30
     39.7700	  516.00	  504.13	-1728.63	  383.15
     39.8700	  509.00	  504.01	-1735.51	  383.00
     39.9700	  514.00	  503.90	-1730.40	  382.85
     40.0700	  506.00	  503.80	-1738.30	  382.70
     40.1700	  499.00	  503.71	-1745.21	  382.56
     40.2700	  473.00	  503.62	-1771.12	  382.41
     40.3700	  486.00	  503.55	-1758.05	  382.27
     40.4700	  510.00	  503.50	-1734.00	  382.13
     40.5700	  515.00	  503.45	-1728.95	  381.99
     40.6700	  513.00	  503.43	-1730.93	  381.85
     40.7700	  498.00	  503.42	-1745.92	  381.72
     40.8700	  512.00	  503.44	-1731.94	  381.58
     40.9700	  490.00	  503.48	-1753.98	  381.45
     41.0700	  509.00	  503.55	-1735.05	  381.32
     41.1700	  511.00	  503.67	-1733.17	  381.19
     41.2700	  498.00	  503.80	-1746.30	  381.07
     41.3700	  516.00	  504.03	-1728.53	  380.94
     41.4700	  494.00	  504.34	-1750.84	  380.82
     41.5700	  506.00	  504.77	-1739.27	  380.70
     41.6700	  518.00	  505.80	-1728.30	  380.58
     41.7700	  504.00	  506.71	-1743.21	  380.46
     41.8700	  497.00	  508.25	-1751.75	  380.34
     41.9700	  507.00	  511.11	-1744.61	  380.23
     42.0700	  564.00	  516.68	-1693.18	  380.12
     42.1700	  506.00	  527.19	-1761.69	  380.01
     42.2700	  541.00	  545.21	-1744.71	  379.90
     42.3700	  524.00	  572.27	-1788.77	  379.79
     42.4700	  561.00	  606.22	-1785.72	  379.69
     42.5700	  589.00	  639.64	-1791.14	  379.58
     42.6700	  619.00	  660.33	-1781.83	  379.48
     42.7700	  579.00	  657.44	-1818.94	  379.38
     42.8700	  579.00	  631.65	-1793.15	  379.28
     42.9700	  550.00	  595.90	-1786.40	  379.18
     43.0700	  567.00	  562.61	-1736.11	  379.09
     43.1700	  518.00	  537.82	-1760.32	  379.00
     43.2700	  531.00	  522.23	-1731.73	  378.90
     43.3700	  510.00	  513.61	-1744.11	  378.81
     43.4700	  519.00	  509.20	-1730.70	  378.73
     43.5700	  516.00	  506.93	-1731.43	  378.64
     43.6700	  514.00	  505.64	-1732.14	  378.56
     43.7700	  516.00	  504.98	-1729.48	  378.47
     43.8700	  511.00	  504.37	-1733.87	  378.39
     43.9700	  480.00	  503.92	-1764.42	  378.31
     44.0700	  509.00	  503.60	-1735.10	  378.23
     44.1700	  507.00	  503.33	-1736.83	  378.16
     44.2700	  504.00	  503.12	-1739.62	  378.08
     44.3700	  463.00	  502.96	-1780.46	  378.01
     44.4700	  512.00	  502.84	-1731.34	  377.94
     44.5700	  498.00	  502.64	-1745.14	  377.87
     44.6700	  477.00	  502.59	-1766.09	  377.80
     44.7700	  514.00	  502.57	-1729.07	  377.74
     44.8700	  522.00	  502.57	-1721.07	  377.68
     44.9700	  523.00	  502.60	-1720.10	  377.61
     45.0700	  507.00	  502.65	-1736.15	  377.55
     45.1700	  513.00	  502.72	-1730.22	  377.49
     45.2700	  530.00	  502.99	-1713.49	  377.44
     45.3700	  509.00	  503.11	-1734.61	  377.38
     45.4700	  486.00	  503.25	-1757.75	  377.33
     45.5700	  493.00	  503.41	-1750.91	  377.28
     45.6700	  542.00	  503.59	-1702.09	  377.23
     45.7700	  488.00	  503.80	-1756.30	  377.18
     45.8700	  486.00	  504.04	-1758.54	  377.13
     45.9700	  464.00	  504.31	-1780.81	  377.08
     46.0700	  526.00	  504.61	-1719.11	  377.04
     46.1700	  490.00	  504.95	-1755.45	  377.00
     46.2700	  525.00	  505.34	-1720.84	  376.96
     46.3700	  515.00	  505.77	-1731.27	  376.92
     46.4700	  495.00	  506.26	-1751.76	  376.88
     46.5700	  525.00	  506.81	-1722.31	  376.85
     46.6700	  502.00	  507.45	-1745.95	  376.81
     46.7700	  509.00	  508.21	-1739.71	  376.78
     46.8700	  507.00	  509.12	-1742.62	  376.75
     46.9700	  527.00	  510.32	-1723.82	  376.72
     47.0700	  514.00	  512.06	-1738.56	  376.70
     47.1700	  487.00	  514.87	-1768.37	  376.67
     47.2700	  571.00	  519.67	-1689.17	  376.65
     47.3700	  469.00	  527.66	-1799.17	  376.62
     47.4700	  499.00	  539.88	-1781.38	  376.60
     47.5700	  559.00	  556.54	-1738.04	  376.58
     47.6700	  638.00	  575.97	-1678.47	  376.57
     47.7700	  590.00	  594.01	-1744.51	  376.55
     47.8700	  617.00	  604.75	-1728.25	  376.54
     47.9700	  598.00	  603.72	-1746.22	  376.52
     48.0700	  595.00	  592.07	-1737.57	  376.51
     48.1700	  557.00	  575.69	-1759.19	  376.50
     48.2700	  592.00	  560.28	-1708.78	  376.49
     48.3700	  509.00	  549.08	-1780.58	  376.49
     48.4700	  532.00	  542.83	-1751.33	  376.48
     48.5700	  539.00	  540.93	-1742.43	  376.48
     48.6700	  548.00	  542.26	-1734.76	  376.48
     48.7700	  531.00	  545.91	-1755.41	  376.48
     48.8700	  527.00	  551.41	-1764.91	  376.48
     48.9700	  543.00	  558.85	-1756.35	  376.48
     49.0700	  545.00	  568.91	-1764.41	  376.49
     49.1700	  604.00	  583.26	-1719.76	  376.49
     49.2700	  574.00	  605.40	-1771.90	  376.50
     49.3700	  616.00	  642.01	-1766.51	  376.51
     49.4700	  690.00	  704.36	-1754.86	  376.52
     49.5700	  823.00	  808.92	-1726.42	  376.53
     49.6700	  872.00	  973.34	-1841.84	  376.54
     49.7700	 1098.00	 1211.50	-1854.00	  376.56
     49.8700	 1496.00	 1521.23	-1765.73	  376.57
     49.9700	 1842.00	 1872.83	-1771.33	  376.59
     50.0700	 2284.00	 2200.17	-1656.67	  376.61
     50.1700	 2492.00	 2405.81	-1654.31	  376.63
     50.2700	 2418.00	 2404.59	-1727.09	  376.65
     50.3700	 2231.00	 2194.93	-1704.43	  376.68
     50.4700	 1888.00	 1864.36	-1716.86	  376.70
     50.5700	 1449.00	 1514.23	-1805.73	  376.73
     50.6700	 1060.00	 1210.98	-1891.48	  376.76
     50.7700	  793.00	  983.02	-1930.52	  376.79
     50.8700	  708.00	  831.01	-1863.51	  376.82
     50.9700	  632.00	  739.29	-1847.79	  376.85
     51.0700	  670.00	  686.66	-1757.16	  376.88
     51.1700	  622.00	  654.22	-1772.72	  376.92
     51.2700	  624.00	  629.71	-1746.21	  376.95
     51.3700	  590.00	  608.29	-1758.79	  376.99
     51.4700	  589.00	  589.52	-1741.02	  377.03
     51.5700	  571.00	  574.07	-1743.57	  377.07
     51.6700	  578.00	  562.32	-1724.82	  377.11
     51.7700	  547.00	  554.01	-1747.51	  377.15
     51.8700	  556.00	  548.45	-1732.95	  377.20
     51.9700	  566.00	  544.88	-1719.38	  377.24
     52.0700	  563.00	  542.70	-1720.20	  377.29
     52.1700	  535.00	  541.56	-1747.06	  377.34
     52.2700	  525.00	  541.54	-1757.04	  377.39
     52.3700	  553.00	  542.32	-1729.82	  377.44
     52.4700	  533.00	  544.52	-1752.02	  377.49
     52.5700	  582.00	  549.21	-1707.71	  377.55
     52.6700	  642.00	  558.61	-1657.11	  377.60
     52.7700	  612.00	  576.85	-1705.35	  377.66
     52.8700	  582.00	  610.32	-1768.82	  377.71
     52.9700	  686.00	  666.91	-1721.41	  377.77
     53.0700	  872.00	  753.23	-1621.73	  377.83
     53.1700	  940.00	  869.94	-1670.44	  377.89
     53.2700	 1058.00	 1006.57	-1689.07	  377.95
     53.3700	 1086.00	 1138.41	-1792.91	  378.02
     53.4700	 1201.00	 1228.85	-1768.35	  378.08
     53.5700	 1224.00	 1243.40	-1759.90	  378.15
     53.6700	 1130.00	 1175.12	-1785.62	  378.22
     53.7700	 1012.00	 1051.93	-1780.43	  378.28
     53.8700	  854.00	  913.08	-1799.58	  378.35
     53.9700	  785.00	  788.07	-1743.57	  378.42
     54.0700	  633.00	  691.79	-1799.29	  378.50
     54.1700	  627.00	  626.60	-1740.10	  378.57
     54.2700	  602.00	  587.13	-1725.63	  378.64
     54.3700	  572.00	  565.36	-1733.86	  378.72
     54.4700	  567.00	  554.13	-1727.63	  378.79
     54.5700	  556.00	  548.64	-1733.14	  378.87
     54.6700	  597.00	  546.10	-1689.60	  378.95
     54.7700	  578.00	  545.15	-1707.65	  379.03
     54.8700	  578.00	  545.22	-1707.72	  379.11
     54.9700	  553.00	  546.07	-1733.57	  379.19
     55.0700	  579.00	  547.63	-1709.13	  379.27
     55.1700	  605.00	  549.92	-1685.42	  379.36
     55.2700	  552.00	  552.99	-1741.49	  379.44
     55.3700	  592.00	  557.00	-1705.50	  379.53
     55.4700	  576.00	  562.09	-1726.59	  379.62
     55.5700	  513.00	  568.68	-1796.18	  379.70
     55.6700	  580.00	  577.56	-1738.06	  379.79
     55.7700	  610.00	  590.34	-1720.84	  379.88
     55.8700	  593.00	  610.32	-1757.82	  379.97
     55.9700	  622.00	  643.65	-1762.15	  380.07
     56.0700	  655.00	  700.74	-1786.24	  380.16
     56.1700	  734.00	  796.67	-1803.17	  380.25
     56.2700	  864.00	  949.58	-1826.08	  380.35
     56.3700	 1062.00	 1175.22	-1853.72	  380.44
     56.4700	 1422.00	 1478.32	-1796.82	  380.54
     56.5700	 1746.00	 1842.57	-1837.07	  380.64
     56.6700	 2152.00	 2222.62	-1811.12	  380.74
     56.7700	 2466.00	 2542.44	-1816.94	  380.84
     56.8700	 2696.00	 2709.45	-1753.95	  380.94
     56.9700	 2580.00	 2661.54	-1822.04	  381.04
     57.0700	 2411.00	 2417.23	-1746.73	  381.14
     57.1700	 2063.00	 2060.63	-1738.13	  381.24
     57.2700	 1619.00	 1681.76	-1803.26	  381.35
     57.3700	 1325.00	 1343.77	-1759.27	  381.45
     57.4700	 1029.00	 1078.27	-1789.77	  381.56
     57.5700	  881.00	  891.13	-1750.63	  381.66
     57.6700	  772.00	  771.84	-1740.34	  381.77
     57.7700	  764.00	  703.35	-1679.85	  381.88
     57.8700	  675.00	  669.73	-1735.23	  381.99
     57.9700	  659.00	  659.86	-1741.36	  382.10
     58.0700	  706.00	  667.89	-1702.39	  382.21
     58.1700	  734.00	  691.94	-1698.44	  382.32
     58.2700	  801.00	  732.12	-1671.62	  382.43
     58.3700	  836.00	  788.68	-1693.18	  382.54
     58.4700	  907.00	  860.34	-1693.84	  382.66
     58.5700	 1023.00	  942.76	-1660.26	  382.77
     58.6700	 1164.00	 1027.96	-1604.46	  382.89
     58.7700	 1325.00	 1106.62	-1522.12	  383.00
     58.8700	 1475.00	 1172.30	-1437.80	  383.12
     58.9700	 1491.00	 1221.34	-1470.84	  383.24
     59.0700	 1603.00	 1248.78	-1386.28	  383.35
     59.1700	 1485.00	 1250.17	-1505.67	  383.47
     59.2700	 1466.00	 1229.10	-1503.60	  383.59
     59.3700	 1318.00	 1197.53	-1620.03	  383.71
     59.4700	 1252.00	 1167.66	-1656.16	  383.83
     59.5700	 1135.00	 1147.71	-1753.21	  383.95
     59.6700	 1165.00	 1144.85	-1720.35	  384.07
     59.7700	 1158.00	 1167.72	-1750.22	  384.20
     59.8700	 1249.00	 1222.05	-1713.55	  384.32
     59.9700	 1352.00	 1304.23	-1692.73	  384.44
     60.0700	 1467.00	 1398.02	-1671.52	  384.57
     60.1700	 1556.00	 1475.23	-1659.73	  384.69
     60.2700	 1596.00	 1502.90	-1647.40	  384.82
     60.3700	 1601.00	 1460.52	-1600.02	  384.94
     60.4700	 1350.00	 1354.78	-1745.28	  385.07
     60.5700	 1264.00	 1212.71	-1689.21	  385.20
     60.6700	 1067.00	 1063.31	-1736.81	  385.32
     60.7700	  931.00	  927.84	-1737.34	  385.45
     60.8700	  789.00	  818.26	-1769.76	  385.58
     60.9700	  758.00	  738.59	-1721.09	  385.71
     61.0700	  650.00	  687.64	-1778.14	  385.84
     61.1700	  649.00	  662.05	-1753.55	  385.97
     61.2700	  616.00	  659.12	-1783.62	  386.10
     61.3700	  706.00	  678.48	-1712.98	  386.23
     61.4700	  676.00	  722.29	-1786.79	  386.36
     61.5700	  711.00	  793.91	-1823.41	  386.49
     61.6700	  818.00	  895.44	-1817.94	  386.62
     61.7700	  952.00	 1024.56	-1813.06	  386.76
     61.8700	 1125.00	 1171.87	-1787.37	  386.89
     61.9700	 1285.00	 1319.02	-1774.52	  387.02
     62.0700	 1394.00	 1438.78	-1785.28	  387.15
     62.1700	 1400.00	 1500.38	-1840.88	  387.29
     62.2700	 1393.00	 1483.70	-1831.20	  387.42
     62.3700	 1254.00	 1393.79	-1880.29	  387.56
     62.4700	 1153.00	 1256.99	-1844.49	  387.69
     62.5700	 1043.00	 1104.00	-1801.50	  387.83
     62.6700	  849.00	  958.69	-1850.19	  387.96
     62.7700	  765.00	  835.63	-1811.13	  388.10
     62.8700	  690.00	  740.71	-1791.21	  388.24
     62.9700	  629.00	  673.25	-1784.75	  388.37
     63.0700	  613.00	  628.66	-1756.16	  388.51
     63.1700	  567.00	  600.98	-1774.48	  388.65
     63.2700	  546.00	  584.76	-1779.26	  388.78
     63.3700	  545.00	  575.98	-1771.48	  388.92
     63.4700	  549.00	  572.26	-1763.76	  389.06
     63.5700	  575.00	  572.72	-1738.22	  389.20
     63.6700	  591.00	  577.75	-1727.25	  389.33
     63.7700	  585.00	  588.76	-1744.26	  389.47
     63.8700	  625.00	  607.84	-1723.34	  389.61
     63.9700	  671.00	  637.24	-1706.74	  389.75
     64.0700	  689.00	  678.54	-1730.04	  389.89
     64.1700	  771.00	  731.67	-1701.17	  390.03
     64.2700	  832.00	  793.91	-1702.41	  390.16
     64.3700	  912.00	  859.26	-1687.76	  390.30
     64.4700	 1007.00	  917.90	-1651.40	  390.44
     64.5700	 1023.00	  959.69	-1677.19	  390.58
     64.6700	 1024.00	  975.34	-1691.84	  390.72
     64.7700	 1003.00	  962.55	-1700.05	  390.86
     64.8700	  984.00	  926.04	-1682.54	  391.00
     64.9700	  911.00	  874.64	-1704.14	  391.14
     65.0700	  850.00	  818.13	-1708.63	  391.28
     65.1700	  814.00	  764.42	-1690.92	  391.42
     65.2700	  726.00	  717.97	-1732.47	  391.56
     65.3700	  692.00	  679.89	-1728.39	  391.70
     65.4700	  612.00	  649.31	-1777.81	  391.84
     65.5700	  654.00	  624.90	-1711.40	  391.98
     65.6700	  563.00	  605.63	-1783.13	  392.12
     65.7700	  573.00	  590.74	-1758.24	  392.26
     65.8700	  568.00	  579.63	-1752.13	  392.40
     65.9700	  498.00	  571.82	-1814.32	  392.54
     66.0700	  535.00	  566.84	-1772.34	  392.68
     66.1700	  560.00	  564.24	-1744.74	  392.82
     66.2700	  556.00	  563.58	-1748.08	  392.96
     66.3700	  543.00	  564.51	-1762.01	  393.10
     66.4700	  532.00	  566.83	-1775.33	  393.23
     66.5700	  512.00	  570.55	-1799.05	  393.37
     66.6700	  544.00	  576.13	-1772.63	  393.51
     66.7700	  553.00	  584.21	-1771.71	  393.65
     66.8700	  595.00	  596.61	-1742.11	  393.79
     66.9700	  580.00	  616.31	-1776.81	  393.93
     67.0700	  602.00	  648.02	-1786.52	  394.07
     67.1700	  639.00	  698.59	-1800.09	  394.21
     67.2700	  769.00	  776.69	-1748.19	  394.34
     67.3700	  901.00	  891.74	-1731.24	  394.48
     67.4700	 1049.00	 1051.52	-1743.02	  394.62
     67.5700	 1315.00	 1259.01	-1684.51	  394.76
     67.6700	 1590.00	 1508.35	-1658.85	  394.89
     67.7700	 1783.00	 1783.04	-1740.54	  395.03
     67.8700	 2067.00	 2053.28	-1726.78	  395.17
     67.9700	 2310.00	 2277.80	-1708.30	  395.30
     68.0700	 2375.00	 2410.37	-1775.87	  395.44
     68.1700	 2422.00	 2417.05	-1735.55	  395.58
     68.2700	 2255.00	 2295.92	-1781.42	  395.71
     68.3700	 2097.00	 2078.59	-1722.09	  395.85
     68.4700	 1866.00	 1811.08	-1685.58	  395.98
     68.5700	 1522.00	 1535.70	-1754.20	  396.12
     68.6700	 1320.00	 1283.34	-1703.84	  396.25
     68.7700	 1063.00	 1071.86	-1749.36	  396.38
     68.8700	  914.00	  907.94	-1734.44	  396.52
     68.9700	  815.00	  789.40	-1714.90	  396.65
     69.0700	  720.00	  708.63	-1729.13	  396.78
     69.1700	  657.00	  656.31	-1739.81	  396.92
     69.2700	  634.00	  623.59	-1730.09	  397.05
     69.3700	  569.00	  603.47	-1774.97	  397.18
     69.4700	  611.00	  590.99	-1720.49	  397.31
     69.5700	  587.00	  583.03	-1736.53	  397.44
     69.6700	  587.00	  577.73	-1731.23	  397.57
     69.7700	  610.00	  574.08	-1704.58	  397.70
     69.8700	  622.00	  571.56	-1690.06	  397.83
     69.9700	  565.00	  569.91	-1745.41	  397.96
     70.0700	  540.00	  568.99	-1769.49	  398.09
     70.1700	  566.00	  568.76	-1743.26	  398.22
     70.2700	  586.00	  569.25	-1723.75	  398.35
     70.3700	  573.00	  570.53	-1738.03	  398.47
     70.4700	  582.00	  572.85	-1731.35	  398.60
     70.5700	  538.00	  576.68	-1779.18	  398.73
     70.6700	  548.00	  582.89	-1775.39	  398.85
     70.7700	  564.00	  592.98	-1769.48	  398.98
     70.8700	  599.00	  609.38	-1750.88	  399.10
     70.9700	  585.00	  635.71	-1791.21	  399.22
     71.0700	  675.00	  676.81	-1742.31	  399.35
     71.1700	  725.00	  738.56	-1754.06	  399.47
     71.2700	  757.00	  826.88	-1810.38	  399.59
     71.3700	  931.00	  946.33	-1755.83	  399.71
     71.4700	 1092.00	 1098.07	-1746.57	  399.83
     71.5700	 1213.00	 1278.77	-1806.27	  399.96
     71.6700	 1475.00	 1475.73	-1741.23	  400.07
     71.7700	 1559.00	 1671.16	-1852.66	  400.19
     71.8700	 1857.00	 1839.55	-1723.05	  400.31
     71.9700	 1943.00	 1951.84	-1749.34	  400.43
     72.0700	 2109.00	 1983.85	-1615.35	  400.55
     72.1700	 1905.00	 1927.92	-1763.42	  400.66
     72.2700	 1790.00	 1797.57	-1748.07	  400.78
     72.3700	 1578.00	 1619.25	-1781.75	  400.89
     72.4700	 1466.00	 1422.36	-1696.86	  401.01
     72.5700	 1320.00	 1229.98	-1650.48	  401.12
     72.6700	 1123.00	 1058.29	-1675.79	  401.23
     72.7700	 1049.00	  916.03	-1607.53	  401.35
     72.8700	  954.00	  805.48	-1591.98	  401.46
     72.9700	  795.00	  724.26	-1669.76	  401.57
     73.0700	  816.00	  667.35	-1591.85	  401.68
     73.1700	  706.00	  628.95	-1663.45	  401.79
     73.2700	  704.00	  603.65	-1640.15	  401.89
     73.3700	  621.00	  587.13	-1706.63	  402.00
     73.4700	  600.00	  576.28	-1716.78	  402.11
     73.5700	  571.00	  569.04	-1738.54	  402.21
     73.6700	  608.00	  564.17	-1696.67	  402.32
     73.7700	  612.00	  560.95	-1689.45	  402.42
     73.8700	  611.00	  558.97	-1688.47	  402.52
     73.9700	  558.00	  557.99	-1740.49	  402.63
     74.0700	  623.00	  557.83	-1675.33	  402.73
     74.1700	  587.00	  558.31	-1711.81	  402.83
     74.2700	  624.00	  559.21	-1675.71	  402.93
     74.3700	  641.00	  560.26	-1659.76	  403.03
     74.4700	  637.00	  561.13	-1664.63	  403.13
     74.5700	  629.00	  561.49	-1672.99	  403.22
     74.6700	  643.00	  561.07	-1658.57	  403.32
     74.7700	  612.00	  559.82	-1688.32	  403.41
     74.8700	  643.00	  557.90	-1655.40	  403.51
     74.9700	  590.00	  555.65	-1706.15	  403.60
     75.0700	  599.00	  553.43	-1694.93	  403.69
     75.1700	  584.00	  551.54	-1708.04	  403.79
     75.2700	  544.00	  550.55	-1747.05	  403.88
     75.3700	  550.00	  550.76	-1741.26	  403.97
     75.4700	  535.00	  552.63	-1758.13	  404.05
     75.5700	  601.00	  556.54	-1696.04	  404.14
     75.6700	  549.00	  563.22	-1754.72	  404.23
     75.7700	  582.00	  573.04	-1731.54	  404.31
     75.8700	  595.00	  586.31	-1731.81	  404.40
     75.9700	  623.00	  603.00	-1720.50	  404.48
     76.0700	  578.00	  622.60	-1785.10	  404.56
     76.1700	  655.00	  643.99	-1729.49	  404.65
     76.2700	  680.00	  665.39	-1725.89	  404.73
     76.3700	  654.00	  684.43	-1770.93	  404.81
     76.4700	  699.00	  698.38	-1739.88	  404.88
     76.5700	  689.00	  704.75	-1756.25	  404.96
     76.6700	  721.00	  702.21	-1721.71	  405.04
     76.7700	  696.00	  691.27	-1735.77	  405.11
     76.8700	  625.00	  674.00	-1789.50	  405.19
     76.9700	  647.00	  652.93	-1746.43	  405.26
     77.0700	  625.00	  631.01	-1746.51	  405.33
     77.1700	  586.00	  610.08	-1764.58	  405.40
     77.2700	  573.00	  591.56	-1759.06	  405.47
     77.3700	  524.00	  576.18	-1792.68	  405.54
     77.4700	  564.00	  564.15	-1740.65	  405.61
     77.5700	  530.00	  555.21	-1765.71	  405.67
     77.6700	  520.00	  548.88	-1769.38	  405.74
     77.7700	  527.00	  544.58	-1758.08	  405.80
     77.8700	  516.00	  541.75	-1766.25	  405.86
     77.9700	  544.00	  539.95	-1736.45	  405.92
     78.0700	  540.00	  538.80	-1739.30	  405.98
     78.1700	  541.00	  538.09	-1737.59	  406.04
     78.2700	  552.00	  537.64	-1726.14	  406.10
     78.3700	  552.00	  537.36	-1725.86	  406.16
     78.4700	  528.00	  537.21	-1749.71	  406.21
     78.5700	  513.00	  537.16	-1764.66	  406.27
     78.6700	  536.00	  537.20	-1741.70	  406.32
     78.7700	  567.00	  537.34	-1710.84	  406.37
     78.8700	  499.00	  537.61	-1779.11	  406.42
     78.9700	  497.00	  538.02	-1781.52	  406.47
     79.0700	  539.00	  538.62	-1740.12	  406.52
     79.1700	  558.00	  539.47	-1721.97	  406.57
     79.2700	  537.00	  540.42	-1743.92	  406.61
     79.3700	  524.00	  541.91	-1758.41	  406.66
     79.4700	  510.00	  543.82	-1774.32	  406.70
     79.5700	  528.00	  546.21	-1758.71	  406.74
     79.6700	  537.00	  549.17	-1752.67	  406.78
     79.7700	  523.00	  552.80	-1770.30	  406.82
     79.8700	  508.00	  557.24	-1789.74	  406.86
     79.9700	  552.00	  562.67	-1751.17	  406.90
     80.0700	  515.00	  569.32	-1794.82	  406.93
     80.1700	  566.00	  577.49	-1751.99	  406.97
     80.2700	  503.00	  587.49	-1824.99	  407.00
     80.3700	  586.00	  599.64	-1754.14	  407.03
     80.4700	  571.00	  614.05	-1783.55	  407.06
     80.5700	  633.00	  630.63	-1738.13	  407.09
     80.6700	  625.00	  648.91	-1764.41	  407.12
     80.7700	  671.00	  668.07	-1737.57	  407.14
     80.8700	  636.00	  686.95	-1791.45	  407.17
     80.9700	  706.00	  704.17	-1738.67	  407.19
     81.0700	  711.00	  718.45	-1747.95	  407.21
     81.1700	  738.00	  728.73	-1731.23	  407.23
     81.2700	  749.00	  734.32	-1725.82	  407.25
     81.3700	  781.00	  734.85	-1694.35	  407.27
     81.4700	  778.00	  730.39	-1692.89	  407.29
     81.5700	  761.00	  721.38	-1700.88	  407.30
     81.6700	  741.00	  708.50	-1708.00	  407.31
     81.7700	  706.00	  692.61	-1727.11	  407.33
     81.8700	  794.00	  674.71	-1621.21	  407.34
     81.9700	  696.00	  655.97	-1700.47	  407.35
     82.0700	  722.00	  637.44	-1655.94	  407.36
     82.1700	  692.00	  620.14	-1668.64	  407.36
     82.2700	  649.00	  604.60	-1696.10	  407.37
     82.3700	  624.00	  591.14	-1707.64	  407.37
     82.4700	  611.00	  579.88	-1709.38	  407.37
     82.5700	  553.00	  570.79	-1758.29	  407.37
     82.6700	  550.00	  563.82	-1754.32	  407.37
     82.7700	  579.00	  558.80	-1720.30	  407.37
     82.8700	  549.00	  555.57	-1747.07	  407.37
     82.9700	  525.00	  553.97	-1769.47	  407.36
     83.0700	  541.00	  553.87	-1753.37	  407.36
     83.1700	  560.00	  555.14	-1735.64	  407.35
     83.2700	  529.00	  557.64	-1769.14	  407.34
     83.3700	  537.00	  561.19	-1764.69	  407.33
     83.4700	  557.00	  565.55	-1749.05	  407.32
     83.5700	  564.00	  570.40	-1746.90	  407.30
     83.6700	  598.00	  575.34	-1717.84	  407.29
     83.7700	  535.00	  579.86	-1785.36	  407.27
     83.8700	  545.00	  583.41	-1778.91	  407.25
     83.9700	  575.00	  585.48	-1750.98	  407.23
     84.0700	  562.00	  585.70	-1764.20	  407.21
     84.1700	  531.00	  583.98	-1793.48	  407.19
     84.2700	  608.00	  580.58	-1713.08	  407.17
     84.3700	  550.00	  575.93	-1766.43	  407.14
     84.4700	  570.00	  570.56	-1741.06	  407.11
     84.5700	  527.00	  564.96	-1778.46	  407.09
     84.6700	  510.00	  559.52	-1790.02	  407.06
     84.7700	  563.00	  554.54	-1732.04	  407.02
     84.8700	  574.00	  550.21	-1716.71	  406.99
     84.9700	  547.00	  546.62	-1740.12	  406.96
     85.0700	  516.00	  543.76	-1768.26	  406.92
     85.1700	  551.00	  541.61	-1731.11	  406.88
     85.2700	  558.00	  540.06	-1722.56	  406.85
     85.3700	  510.00	  539.02	-1769.52	  406.80
     85.4700	  538.00	  538.39	-1740.89	  406.76
     85.5700	  562.00	  538.11	-1716.61	  406.72
     85.6700	  549.00	  538.14	-1729.64	  406.67
     85.7700	  542.00	  538.45	-1736.95	  406.63
     85.8700	  511.00	  539.07	-1768.57	  406.58
     85.9700	  507.00	  540.06	-1773.56	  406.53
     86.0700	  544.00	  541.53	-1738.03	  406.48
     86.1700	  547.00	  543.62	-1737.12	  406.43
     86.2700	  555.00	  546.49	-1731.99	  406.37
     86.3700	  545.00	  550.33	-1745.83	  406.32
     86.4700	  605.00	  555.31	-1690.81	  406.26
     86.5700	  560.00	  561.57	-1742.07	  406.20
     86.6700	  546.00	  569.15	-1763.65	  406.14
     86.7700	  605.00	  577.66	-1713.16	  406.08
     86.8700	  605.00	  587.49	-1722.99	  406.01
     86.9700	  635.00	  597.88	-1703.38	  405.95
     87.0700	  637.00	  608.23	-1711.73	  405.88
     87.1700	  612.00	  617.77	-1746.27	  405.82
     87.2700	  660.00	  625.63	-1706.13	  405.75
     87.3700	  640.00	  630.93	-1731.43	  405.68
     87.4700	  671.00	  633.02	-1702.52	  405.60
     87.5700	  646.00	  631.64	-1726.14	  405.53
     87.6700	  680.00	  627.04	-1687.54	  405.45
     87.7700	  616.00	  619.91	-1744.41	  405.38
     87.8700	  635.00	  611.16	-1716.66	  405.30
     87.9700	  631.00	  601.75	-1711.25	  405.22
     88.0700	  616.00	  592.57	-1717.07	  405.14
     88.1700	  646.00	  584.37	-1678.87	  405.05
     88.2700	  529.00	  577.71	-1789.21	  404.97
     88.3700	  602.00	  572.98	-1711.48	  404.88
     88.4700	  577.00	  570.36	-1733.86	  404.79
     88.5700	  595.00	  569.87	-1715.37	  404.70
     88.6700	  586.00	  571.35	-1725.85	  404.61
     88.7700	  584.00	  574.50	-1731.00	  404.52
     88.8700	  623.00	  578.90	-1696.40	  404.43
     88.9700	  582.00	  584.04	-1742.54	  404.33
     89.0700	  612.00	  589.35	-1717.85	  404.23
     89.1700	  557.00	  594.21	-1777.71	  404.14
     89.2700	  604.00	  597.99	-1734.49	  404.04
     89.3700	  594.00	  600.13	-1746.63	  403.93
     89.4700	  588.00	  600.28	-1752.78	  403.83
     89.5700	  592.00	  598.37	-1746.87	  403.73
     89.6700	  588.00	  594.60	-1747.10	  403.62
     89.7700	  602.00	  589.40	-1727.90	  403.51
     89.8700	  543.00	  583.29	-1780.79	  403.40
     89.9700	  559.00	  576.76	-1758.26	  403.29
     90.0700	  553.00	  570.25	-1757.75	  403.18
     90.1700	  535.00	  564.11	-1769.61	  403.07
     90.2700	  520.00	  558.59	-1779.09	  402.95
     90.3700	  547.00	  553.83	-1747.33	  402.84
     90.4700	  572.00	  549.90	-1718.40	  402.72
     90.5700	  517.00	  546.79	-1770.29	  402.60
     90.6700	  535.00	  544.45	-1749.95	  402.48
     90.7700	  553.00	  542.78	-1730.28	  402.36
     90.8700	  544.00	  541.70	-1738.20	  402.23
     90.9700	  541.00	  541.10	-1740.60	  402.11
     91.0700	  494.00	  540.92	-1787.42	  401.98
     91.1700	  538.00	  541.13	-1743.63	  401.85
     91.2700	  525.00	  541.72	-1757.22	  401.72
     91.3700	  522.00	  542.73	-1761.23	  401.59
     91.4700	  487.00	  544.24	-1797.74	  401.46
     91.5700	  504.00	  546.37	-1782.87	  401.32
     91.6700	  487.00	  549.27	-1802.77	  401.19
     91.7700	  489.00	  553.14	-1804.64	  401.05
     91.8700	  511.00	  558.18	-1787.68	  400.91
     91.9700	  572.00	  564.36	-1732.86	  400.77
     92.0700	  535.00	  572.33	-1777.83	  400.63
     92.1700	  542.00	  581.98	-1780.48	  400.49
     92.2700	  550.00	  593.37	-1783.87	  400.35
     92.3700	  621.00	  606.46	-1725.96	  400.20
     92.4700	  595.00	  621.08	-1766.58	  400.05
     92.5700	  662.00	  636.94	-1715.44	  399.91
     92.6700	  627.00	  653.61	-1767.11	  399.76
     92.7700	  631.00	  670.53	-1780.03	  399.61
     92.8700	  688.00	  687.03	-1739.53	  399.45
     92.9700	  758.00	  702.44	-1684.94	  399.30
     93.0700	  734.00	  716.17	-1722.67	  399.14
     93.1700	  769.00	  727.92	-1699.42	  398.99
     93.2700	  807.00	  737.75	-1671.25	  398.83
     93.3700	  777.00	  746.04	-1709.54	  398.67
     93.4700	  776.00	  753.40	-1717.90	  398.51
     93.5700	  794.00	  760.46	-1706.96	  398.35
     93.6700	  859.00	  767.81	-1649.31	  398.18
     93.7700	  870.00	  775.96	-1646.46	  398.02
     93.8700	  881.00	  785.37	-1644.87	  397.85
     93.9700	  810.00	  796.45	-1726.95	  397.69
     94.0700	  853.00	  809.54	-1697.04	  397.52
     94.1700	  846.00	  824.75	-1719.25	  397.35
     94.2700	  863.00	  841.86	-1719.36	  397.18
     94.3700	  888.00	  860.18	-1712.68	  397.01
     94.4700	  884.00	  878.61	-1735.11	  396.83
     94.5700	  944.00	  895.61	-1692.11	  396.66
     94.6700	  878.00	  909.34	-1771.84	  396.48
     94.7700	  912.00	  917.93	-1746.43	  396.30
     94.8700	  925.00	  919.76	-1735.26	  396.13
     94.9700	  910.00	  913.92	-1744.42	  395.95
     95.0700	  935.00	  900.48	-1705.98	  395.77
     95.1700	  906.00	  880.43	-1714.93	  395.58
     95.2700	  866.00	  855.45	-1729.95	  395.40
     95.3700	  803.00	  827.55	-1765.05	  395.22
     95.4700	  782.00	  798.77	-1757.27	  395.03
     95.5700	  743.00	  771.09	-1768.59	  394.84
     95.6700	  737.00	  746.31	-1749.81	  394.65
     95.7700	  690.00	  726.08	-1776.58	  394.46
     95.8700	  658.00	  711.85	-1794.35	  394.27
     95.9700	  674.00	  704.90	-1771.40	  394.08
     96.0700	  695.00	  706.37	-1751.87	  393.89
     96.1700	  725.00	  717.19	-1732.69	  393.70
     96.2700	  726.00	  738.11	-1752.61	  393.50
     96.3700	  746.00	  769.59	-1764.09	  393.31
     96.4700	  841.00	  811.79	-1711.29	  393.11
     96.5700	  885.00	  864.39	-1719.89	  392.91
     96.6700	  927.00	  926.54	-1740.04	  392.71
     96.7700	  953.00	  996.73	-1784.23	  392.51
     96.8700	 1055.00	 1072.77	-1758.27	  392.31
     96.9700	 1174.00	 1151.70	-1718.20	  392.11
     97.0700	 1217.00	 1229.91	-1753.41	  391.90
     97.1700	 1305.00	 1303.16	-1738.66	  391.70
     97.2700	 1338.00	 1366.81	-1769.31	  391.49
     97.3700	 1365.00	 1416.29	-1791.79	  391.29
     97.4700	 1415.00	 1447.57	-1773.07	  391.08
     97.5700	 1374.00	 1458.08	-1824.58	  390.87
     97.6700	 1421.00	 1447.17	-1766.67	  390.66
     97.7700	 1363.00	 1416.32	-1793.82	  390.45
     97.8700	 1394.00	 1368.69	-1715.19	  390.24
     97.9700	 1279.00	 1308.40	-1769.90	  390.03
     98.0700	 1303.00	 1239.97	-1677.47	  389.82
     98.1700	 1182.00	 1167.77	-1726.27	  389.60
     98.2700	 1142.00	 1095.82	-1694.32	  389.39
     98.3700	 1015.00	 1027.60	-1753.10	  389.17
     98.4700	 1011.00	  966.04	-1695.54	  388.95
     98.5700	  934.00	  913.46	-1719.96	  388.74
     98.6700	  837.00	  871.66	-1775.16	  388.52
     98.7700	  847.00	  841.97	-1735.47	  388.30
     98.8700	  793.00	  825.31	-1772.81	  388.08
     98.9700	  758.00	  822.31	-1804.81	  387.86
     99.0700	  776.00	  833.36	-1797.86	  387.64
     99.1700	  858.00	  858.65	-1741.15	  387.42
     99.2700	  912.00	  898.20	-1726.70	  387.19
     99.3700	  914.00	  951.76	-1778.26	  386.97
     99.4700	  989.00	 1018.83	-1770.33	  386.74
     99.5700	 1083.00	 1098.52	-1756.02	  386.52
     99.6700	 1161.00	 1189.50	-1769.00	  386.29
     99.7700	 1325.00	 1289.83	-1705.33	  386.07
     99.8700	 1386.00	 1396.93	-1751.43	  385.84
     99.9700	 1511.00	 1507.48	-1736.98	  385.61
    100.0700	 1598.00	 1617.52	-1760.02	  385.38
    100.1700	 1778.00	 1722.65	-1685.15	  385.15
    100.2700	 1858.00	 1818.33	-1700.83	  384.92
    100.3700	 1903.00	 1900.50	-1738.00	  384.69
    100.4700	 1943.00	 1965.87	-1763.37	  384.46
    100.5700	 2075.00	 2012.17	-1677.67	  384.23
    100.6700	 2068.00	 2037.92	-1710.42	  384.00
    100.7700	 2078.00	 2042.25	-1704.75	  383.77
    100.8700	 2070.00	 2024.94	-1695.44	  383.54
    100.9700	 2054.00	 1986.58	-1673.08	  383.30
    101.0700	 1876.00	 1928.99	-1793.49	  383.07
    101.1700	 1897.00	 1855.35	-1698.85	  382.83
    101.2700	 1769.00	 1770.07	-1741.57	  382.60
    101.3700	 1689.00	 1678.17	-1729.67	  382.36
    101.4700	 1575.00	 1584.74	-1750.24	  382.13
    101.5700	 1520.00	 1494.32	-1714.82	  381.89
    101.6700	 1438.00	 1410.64	-1713.14	  381.66
    101.7700	 1369.00	 1336.40	-1707.90	  381.42
    101.8700	 1310.00	 1273.20	-1703.70	  381.18
    101.9700	 1240.00	 1221.59	-1722.09	  380.94
    102.0700	 1170.00	 1181.05	-1751.55	  380.71
    102.1700	 1206.00	 1150.23	-1684.73	  380.47
    102.2700	 1093.00	 1127.03	-1774.53	  380.23
    102.3700	 1123.00	 1108.83	-1726.33	  379.99
    102.4700	 1071.00	 1092.83	-1762.33	  379.75
    102.5700	 1045.00	 1076.33	-1771.83	  379.52
    102.6700	 1041.00	 1057.10	-1756.60	  379.28
    102.7700	 1027.00	 1033.69	-1747.19	  379.04
    102.8700	 1017.00	 1005.52	-1729.02	  378.80
    102.9700	  976.00	  972.83	-1737.33	  378.56
    103.0700	  899.00	  936.44	-1777.94	  378.32
    103.1700	  827.00	  897.51	-1811.01	  378.08
    103.2700	  844.00	  857.33	-1753.83	  377.84
    103.3700	  858.00	  817.18	-1699.68	  377.60
    103.4700	  807.00	  778.23	-1711.73	  377.36
    103.5700	  745.00	  741.47	-1736.97	  377.12
    103.6700	  723.00	  707.65	-1725.15	  376.88
    103.7700	  684.00	  677.33	-1733.83	  376.64
    103.8700	  621.00	  650.80	-1770.30	  376.40
    103.9700	  545.00	  628.14	-1823.64	  376.16
    104.0700	  602.00	  609.27	-1747.77	  375.92
    104.1700	  631.00	  593.93	-1703.43	  375.68
    104.2700	  544.00	  581.81	-1778.31	  375.44
    104.3700	  592.00	  572.52	-1721.02	  375.20
    104.4700	  590.00	  565.66	-1716.16	  374.97
    104.5700	  530.00	  560.84	-1771.34	  374.73
    104.6700	  567.00	  557.68	-1731.18	  374.49
    104.7700	  552.00	  555.87	-1744.37	  374.25
    104.8700	  558.00	  555.11	-1737.61	  374.01
    104.9700	  540.00	  555.20	-1755.70	  373.77
    105.0700	  542.00	  555.94	-1754.44	  373.54
    105.1700	  532.00	  557.20	-1765.70	  373.30
    105.2700	  534.00	  558.86	-1765.36	  373.06
    105.3700	  554.00	  560.90	-1747.40	  372.83
    105.4700	  534.00	  563.29	-1769.79	  372.59
    105.5700	  564.00	  566.05	-1742.55	  372.36
    105.6700	  583.00	  569.25	-1726.75	  372.12
    105.7700	  548.00	  572.99	-1765.49	  371.89
    105.8700	  576.00	  577.39	-1741.89	  371.65
    105.9700	  555.00	  582.55	-1768.05	  371.42
    106.0700	  572.00	  588.55	-1757.05	  371.19
    106.1700	  579.00	  595.45	-1756.95	  370.96
    106.2700	  638.00	  603.23	-1705.73	  370.72
    106.3700	  620.00	  611.81	-1732.31	  370.49
    106.4700	  588.00	  621.04	-1773.54	  370.26
    106.5700	  636.00	  630.71	-1735.21	  370.03
    106.6700	  614.00	  640.54	-1767.04	  369.80
    106.7700	  651.00	  650.21	-1739.71	  369.58
    106.8700	  625.00	  659.33	-1774.83	  369.35
    106.9700	  652.00	  667.54	-1756.04	  369.12
    107.0700	  637.00	  674.45	-1777.95	  368.90
    107.1700	  673.00	  679.80	-1747.30	  368.67
    107.2700	  672.00	  683.41	-1751.91	  368.45
    107.3700	  648.00	  685.29	-1777.79	  368.23
    107.4700	  653.00	  685.60	-1773.10	  368.00
    107.5700	  685.00	  684.66	-1740.16	  367.78
    107.6700	  692.00	  682.89	-1731.39	  367.56
    107.7700	  670.00	  680.72	-1751.22	  367.34
    107.8700	  712.00	  678.57	-1707.07	  367.12
    107.9700	  715.00	  676.77	-1702.27	  366.91
    108.0700	  595.00	  675.60	-1821.10	  366.69
    108.1700	  629.00	  675.17	-1786.67	  366.48
    108.2700	  668.00	  675.52	-1748.02	  366.26
    108.3700	  686.00	  676.55	-1731.05	  366.05
    108.4700	  656.00	  678.04	-1762.54	  365.84
    108.5700	  651.00	  679.71	-1769.21	  365.63
    108.6700	  709.00	  681.16	-1712.66	  365.42
    108.7700	  691.00	  681.98	-1731.48	  365.21
    108.8700	  746.00	  681.77	-1676.27	  365.01
    108.9700	  718.00	  680.20	-1702.70	  364.80
    109.0700	  689.00	  677.03	-1728.53	  364.60
    109.1700	  669.00	  672.18	-1743.68	  364.40
    109.2700	  676.00	  665.70	-1730.20	  364.19
    109.3700	  660.00	  657.79	-1738.29	  364.00
    109.4700	  672.00	  648.74	-1717.24	  363.80
    109.5700	  602.00	  638.87	-1777.37	  363.60
    109.6700	  657.00	  628.54	-1712.04	  363.41
    109.7700	  636.00	  618.07	-1722.57	  363.21
    109.8700	  561.00	  607.77	-1787.27	  363.02
    109.9700	  599.00	  597.93	-1739.43	  362.83
    110.0700	  578.00	  588.76	-1751.26	  362.65
    110.1700	  585.00	  580.43	-1735.93	  362.46
    110.2700	  562.00	  573.05	-1751.55	  362.27
    110.3700	  553.00	  566.68	-1754.18	  362.09
    110.4700	  555.00	  561.36	-1746.86	  361.91
    110.5700	  555.00	  557.04	-1742.54	  361.73
    110.6700	  574.00	  553.69	-1720.19	  361.56
    110.7700	  547.00	  551.22	-1744.72	  361.38
    110.8700	  538.00	  549.54	-1752.04	  361.21
    110.9700	  570.00	  548.57	-1719.07	  361.04
    111.0700	  540.00	  548.21	-1748.71	  360.87
    111.1700	  560.00	  548.37	-1728.87	  360.70
    111.2700	  540.00	  548.98	-1749.48	  360.53
    111.3700	  547.00	  549.96	-1743.46	  360.37
    111.4700	  514.00	  551.26	-1777.76	  360.21
    111.5700	  531.00	  552.83	-1762.33	  360.05
    111.6700	  551.00	  554.65	-1744.15	  359.90
    111.7700	  552.00	  556.68	-1745.18	  359.74
    111.8700	  540.00	  558.91	-1759.41	  359.59
    111.9700	  561.00	  561.34	-1740.84	  359.44
    112.0700	  534.00	  563.97	-1770.47	  359.29
    112.1700	  591.00	  566.82	-1716.32	  359.15
    112.2700	  583.00	  569.89	-1727.39	  359.01
    112.3700	  552.00	  573.23	-1761.73	  358.87
    112.4700	  644.00	  576.86	-1673.36	  358.73
    112.5700	  600.00	  580.85	-1721.35	  358.60
    112.6700	  583.00	  585.26	-1742.76	  358.46
    112.7700	  596.00	  590.17	-1734.67	  358.33
    112.8700	  644.00	  595.70	-1692.20	  358.21
    112.9700	  659.00	  601.98	-1683.48	  358.08
    113.0700	  665.00	  609.21	-1684.71	  357.96
    113.1700	  683.00	  617.62	-1675.12	  357.84
    113.2700	  754.00	  627.53	-1614.03	  357.73
    113.3700	  722.00	  639.35	-1657.85	  357.62
    113.4700	  795.00	  653.58	-1599.08	  357.51
    113.5700	  760.00	  670.84	-1651.34	  357.40
    113.6700	  780.00	  691.94	-1652.44	  357.29
    113.7700	  873.00	  717.81	-1585.31	  357.19
    113.8700	  872.00	  749.63	-1618.13	  357.10
    113.9700	  874.00	  788.73	-1655.23	  357.00
    114.0700	  957.00	  836.71	-1620.21	  356.91
    114.1700	 1070.00	  895.36	-1565.86	  356.82
    114.2700	 1181.00	  966.67	-1526.17	  356.73
    114.3700	 1169.00	 1052.83	-1624.33	  356.65
    114.4700	 1219.00	 1156.11	-1677.61	  356.57
    114.5700	 1435.00	 1278.90	-1584.40	  356.50
    114.6700	 1564.00	 1423.50	-1600.00	  356.43
    114.7700	 1728.00	 1592.02	-1604.52	  356.36
    114.8700	 1868.00	 1786.40	-1658.90	  356.29
    114.9700	 2107.00	 2007.98	-1641.48	  356.23
    115.0700	 2344.00	 2257.67	-1654.17	  356.17
    115.1700	 2508.00	 2535.50	-1768.00	  356.12
    115.2700	 2888.00	 2840.58	-1693.08	  356.07
    115.3700	 3102.00	 3171.13	-1809.63	  356.02
    115.4700	 3526.00	 3524.04	-1738.54	  355.98
    115.5700	 3778.00	 3895.22	-1857.72	  355.94
    115.6700	 4092.00	 4279.14	-1927.64	  355.90
    115.7700	 4484.00	 4669.07	-1925.57	  355.87
    115.8700	 4806.00	 5057.24	-1991.74	  355.84
    115.9700	 5246.00	 5434.59	-1929.09	  355.81
    116.0700	 5547.00	 5791.34	-1984.84	  355.79
    116.1700	 5877.00	 6116.87	-1980.37	  355.78
    116.2700	 6309.00	 6400.33	-1831.83	  355.76
    116.3700	 6557.00	 6631.32	-1814.82	  355.76
    116.4700	 6834.00	 6800.40	-1706.90	  355.75
    116.5700	 6816.00	 6900.28	-1824.78	  355.75
    116.6700	 6962.00	 6926.46	-1704.96	  355.76
    116.7700	 6879.00	 6877.92	-1739.42	  355.76
    116.8700	 6768.00	 6757.21	-1729.71	  355.78
    116.9700	 6676.00	 6570.19	-1634.69	  355.79
    117.0700	 6394.00	 6325.10	-1671.60	  355.82
    117.1700	 5976.00	 6031.88	-1796.38	  355.84
    117.2700	 5708.00	 5701.23	-1733.73	  355.87
    117.3700	 5291.00	 5343.73	-1793.23	  355.91
    117.4700	 5006.00	 4969.66	-1704.16	  355.95
    117.5700	 4494.00	 4588.29	-1834.79	  355.99
    117.6700	 4378.00	 4208.03	-1570.53	  356.04
    117.7700	 4030.00	 3836.15	-1546.65	  356.09
    117.8700	 3656.00	 3478.50	-1563.00	  356.15
    117.9700	 3309.00	 3139.94	-1571.44	  356.22
    118.0700	 2945.00	 2823.89	-1619.39	  356.29
    118.1700	 2605.00	 2532.79	-1668.29	  356.36
    118.2700	 2331.00	 2268.03	-1677.53	  356.44
    118.3700	 2015.00	 2029.96	-1755.46	  356.52
    118.4700	 1770.00	 1818.30	-1788.80	  356.61
    118.5700	 1567.00	 1631.99	-1805.49	  356.70
    118.6700	 1395.00	 1469.61	-1815.11	  356.80
    118.7700	 1280.00	 1329.36	-1789.86	  356.90
    118.8700	 1095.00	 1209.16	-1854.66	  357.01
    118.9700	 1017.00	 1106.92	-1830.42	  357.13
    119.0700	  944.00	 1020.48	-1816.98	  357.25
    119.1700	  876.00	  947.78	-1812.28	  357.37
    119.2700	  829.00	  886.90	-1798.40	  357.50
    119.3700	  755.00	  836.07	-1821.57	  357.64
    119.4700	  771.00	  793.72	-1763.22	  357.78
    119.5700	  697.00	  758.47	-1801.97	  357.93
    119.6700	  682.00	  729.13	-1787.63	  358.08
    119.7700	  646.00	  704.71	-1799.21	  358.24
    119.8700	  638.00	  684.34	-1786.84	  358.41
    119.9700	  617.00	  667.35	-1790.85	  358.58
    120.0700	  597.00	  653.15	-1796.65	  358.76
    120.1700	  578.00	  641.28	-1803.78	  358.94
    120.2700	  586.00	  631.37	-1785.87	  359.13
    120.3700	  602.00	  623.12	-1761.62	  359.32
    120.4700	  525.00	  616.28	-1831.78	  359.52
    120.5700	  564.00	  610.68	-1787.18	  359.73
    120.6700	  580.00	  606.16	-1766.66	  359.94
    120.7700	  595.00	  602.60	-1748.10	  360.16
    120.8700	  571.00	  599.91	-1769.41	  360.39
    120.9700	  601.00	  598.01	-1737.51	  360.62
    121.0700	  545.00	  596.86	-1792.36	  360.86
    121.1700	  589.00	  596.39	-1747.89	  361.10
    121.2700	  563.00	  596.55	-1774.05	  361.35
    121.3700	  596.00	  597.31	-1741.81	  361.61
    121.4700	  615.00	  598.62	-1724.12	  361.88
    121.5700	  588.00	  600.41	-1752.91	  362.15
    121.6700	  588.00	  602.64	-1755.14	  362.43
    121.7700	  593.00	  605.25	-1752.75	  362.71
    121.8700	  629.00	  608.14	-1719.64	  363.00
    121.9700	  651.00	  611.26	-1700.76	  363.30
    122.0700	  630.00	  614.51	-1725.01	  363.61
    122.1700	  667.00	  617.81	-1691.31	  363.92
    122.2700	  635.00	  621.03	-1726.53	  364.24
    122.3700	  613.00	  624.09	-1751.59	  364.57
    122.4700	  660.00	  626.87	-1707.37	  364.90
    122.5700	  659.00	  629.28	-1710.78	  365.25
    122.6700	  657.00	  631.23	-1714.73	  365.59
    122.7700	  657.00	  632.65	-1716.15	  365.95
    122.8700	  645.00	  633.47	-1728.97	  366.32
    122.9700	  640.00	  633.67	-1734.17	  366.69
    123.0700	  638.00	  633.25	-1735.75	  367.07
    123.1700	  621.00	  632.23	-1751.73	  367.45
    123.2700	  624.00	  630.66	-1747.16	  367.85
    123.3700	  611.00	  628.58	-1758.08	  368.25
    123.4700	  628.00	  626.08	-1738.58	  368.66
    123.5700	  656.00	  623.23	-1707.73	  369.08
    123.6700	  617.00	  620.10	-1743.60	  369.50
    123.7700	  620.00	  616.77	-1737.27	  369.94
    123.8700	  677.00	  613.30	-1676.80	  370.38
    123.9700	  601.00	  609.78	-1749.28	  370.83
    124.0700	  665.00	  606.25	-1681.75	  371.29
    124.1700	  647.00	  602.78	-1696.28	  371.75
    124.2700	  571.00	  599.41	-1768.91	  372.23
    124.3700	  566.00	  596.18	-1770.68	  372.71
    124.4700	  591.00	  593.11	-1742.61	  373.20
    124.5700	  605.00	  590.24	-1725.74	  373.71
    124.6700	  618.00	  587.58	-1710.08	  374.21
    124.7700	  563.00	  585.14	-1762.64	  374.73
    124.8700	  639.00	  582.93	-1684.43	  375.26
    124.9700	  586.00	  494.38	-1648.88	  375.79
    125.0700	  555.00	  494.92	-1740.50	  376.34
    125.1700	  587.00	  495.47	-1740.50	  376.89
    125.2700	  581.00	  496.03	-1740.50	  377.45
    125.3700	  613.00	  496.61	-1740.50	  378.02
    125.4700	  578.00	  497.19	-1740.50	  378.60
    125.5700	  554.00	  497.77	-1740.50	  379.19
    125.6700	  565.00	  498.37	-1740.50	  379.79
    125.7700	  560.00	  498.98	-1740.50	  380.40
    125.8700	  561.00	  499.60	-1740.50	  381.01
    125.9700	  568.00	  500.22	-1740.50	  381.64
    126.0700	  578.00	  500.86	-1740.50	  382.27
    126.1700	  598.00	  501.50	-1740.50	  382.92
    126.2700	  597.00	  502.16	-1740.50	  383.57
    126.3700	  558.00	  502.82	-1740.50	  384.24
    126.4700	  616.00	  503.50	-1740.50	  384.91
    126.5700	  599.00	  504.18	-1740.50	  385.60
    126.6700	  602.00	  504.88	-1740.50	  386.29
    126.7700	  623.00	  505.58	-1740.50	  387.00
    126.8700	  638.00	  506.29	-1740.50	  387.71
    126.9700	  662.00	  507.02	-1740.50	  388.43
    127.0700	  626.00	  507.75	-1740.50	  389.17
    127.1700	  641.00	  508.50	-1740.50	  389.91
    127.2700	  691.00	  509.25	-1740.50	  390.67
    127.3700	  649.00	  510.02	-1740.50	  391.43
    127.4700	  694.00	  510.79	-1740.50	  392.21
    127.5700	  682.00	  511.58	-1740.50	  393.00
    127.6700	  639.00	  512.38	-1740.50	  393.79
    127.7700	  670.00	  513.18	-1740.50	  394.60
    127.8700	  737.00	  514.00	-1740.50	  395.42
    127.9700	  783.00	  514.83	-1740.50	  396.25
    128.0700	  760.00	  515.67	-1740.50	  397.09
    128.1700	  794.00	  516.52	-1740.50	  397.94
    128.2700	  769.00	  517.39	-1740.50	  398.80
    128.3700	  786.00	  518.26	-1740.50	  399.67
    128.4700	  783.00	  519.14	-1740.50	  400.56
    128.5700	    0.00	  520.04	-1740.50	  401.45
    128.6700	    0.00	  520.95	-1740.50	  402.36
     12.3035	        	        	        	        	       0	(  0  0  2)	  0  1
     24.8854	        	        	        	        	       0	(  0  0  4)	  0  1
     28.3294	        	        	        	        	       0	(  1  0  0)	  0  1
     29.0264	        	        	        	        	       0	(  1  0  1)	  0  1
     31.0323	        	        	        	        	       0	(  1  0  2)	  0  1
     34.1401	        	        	        	        	       0	(  1  0  3)	  0  1
     37.7832	        	        	        	        	       0	(  0  0  6)	  0  1
     38.1166	        	        	        	        	       0	(  1  0  4)	  0  1
     42.7659	        	        	        	        	       0	(  1  0  5)	  0  1
     47.9492	        	        	        	        	       0	(  1  0  6)	  0  1
     50.2661	        	        	        	        	       0	(  1  1  0)	  0  1
     51.2031	        	        	        	        	       0	(  0  0  8)	  0  1
     51.9888	        	        	        	        	       0	(  1  1  2)	  0  1
     53.5787	        	        	        	        	       0	(  1  0  7)	  0  1
     56.9357	        	        	        	        	       0	(  1  1  4)	  0  1
     58.7629	        	        	        	        	       0	(  2  0  0)	  0  1
     59.1544	        	        	        	        	       0	(  2  0  1)	  0  1
     59.6081	        	        	        	        	       0	(  1  0  8)	  0  1
     60.3196	        	        	        	        	       0	(  2  0  2)	  0  1
     62.2325	        	        	        	        	       0	(  2  0  3)	  0  1
     64.6290	        	        	        	        	       0	(  1  1  6)	  0  1
     64.8560	        	        	        	        	       0	(  2  0  4)	  0  1
     65.4299	        	        	        	        	       0	(  0  0 10)	  0  1
     66.0233	        	        	        	        	       0	(  1  0  9)	  0  1
     68.1496	        	        	        	        	       0	(  2  0  5)	  0  1
     72.0764	        	        	        	        	       0	(  2  0  6)	  0  1
     72.8381	        	        	        	        	       0	(  1  0 10)	  0  1
     74.6647	        	        	        	        	       0	(  1  1  8)	  0  1
     76.6096	        	        	        	        	       0	(  2  0  7)	  0  1
     80.0942	        	        	        	        	       0	(  1  0 11)	  0  1
     80.9072	        	        	        	        	       0	(  0  0 12)	  0  1
     81.0039	        	        	        	        	       0	(  2  1  0)	  0  1
     81.3437	        	        	        	        	       0	(  2  1  1)	  0  1
     81.7388	        	        	        	        	       0	(  2  0  8)	  0  1
     82.3613	        	        	        	        	       0	(  2  1  2)	  0  1
     84.0522	        	        	        	        	       0	(  2  1  3)	  0  1
     86.4114	        	        	        	        	       0	(  2  1  4)	  0  1
     86.9334	        	        	        	        	       0	(  1  1 10)	  0  1
     87.4755	        	        	        	        	       0	(  2  0  9)	  0  1
     87.8667	        	        	        	        	       0	(  1  0 12)	  0  1
     89.4365	        	        	        	        	       0	(  2  1  5)	  0  1
     93.1331	        	        	        	        	       0	(  2  1  6)	  0  1
     93.8614	        	        	        	        	       0	(  2  0 10)	  0  1
     94.8925	        	        	        	        	       0	(  3  0  0)	  0  1
     95.2298	        	        	        	        	       0	(  3  0  1)	  0  1
     96.2428	        	        	        	        	       0	(  3  0  2)	  0  1
     96.2778	        	        	        	        	       0	(  1  0 13)	  0  1
     97.5207	        	        	        	        	       0	(  2  1  7)	  0  1
     97.9357	        	        	        	        	       0	(  3  0  3)	  0  1
     98.4420	        	        	        	        	       0	(  0  0 14)	  0  1
    100.3182	        	        	        	        	       0	(  3  0  4)	  0  1
    100.9814	        	        	        	        	       0	(  2  0 11)	  0  1
    101.8000	        	        	        	        	       0	(  1  1 12)	  0  1
    102.6418	        	        	        	        	       0	(  2  1  8)	  0  1
    103.4090	        	        	        	        	       0	(  3  0  5)	  0  1
    105.5277	        	        	        	        	       0	(  1  0 14)	  0  1
    107.2432	        	        	        	        	       0	(  3  0  6)	  0  1
    108.5770	        	        	        	        	       0	(  2  1  9)	  0  1
    108.9903	        	        	        	        	       0	(  2  0 12)	  0  1
    111.8823	        	        	        	        	       0	(  3  0  7)	  0  1
    115.4719	        	        	        	        	       0	(  2  1 10)	  0  1
    115.9674	        	        	        	        	       0	(  1  0 15)	  0  1
    116.6172	        	        	        	        	       0	(  2  2  0)	  0  1
    117.4341	        	        	        	        	       0	(  3  0  8)	  0  1
    118.1321	        	        	        	        	       0	(  2  2  2)	  0  1
    118.1716	        	        	        	        	       0	(  2  0 13)	  0  1
    119.9227	        	        	        	        	       0	(  0  0 16)	  0  1
    120.6378	        	        	        	        	       0	(  1  1 14)	  0  1
    122.8164	        	        	        	        	       0	(  2  2  4)	  0  1
    123.5962	        	        	        	        	       0	(  2  1 11)	  0  1
    124.0920	        	        	        	        	       0	(  3  0  9)	  0  1
    124.6824	        	        	        	        	       0	(  3  1  0)	  0  1
    125.0925	        	        	        	        	       0	(  3  1  1)	  0  1
    126.3356	        	        	        	        	       0	(  3  1  2)	  0  1
    128.3054	        	        	        	        	       0	(  1  0 16)	  0  1
    128.4533	        	        	        	        	       0	(  3  1  3)	  0  1
    129.0971	        	        	        	        	       0	(  2  0 14)	  0  1
    131.2539	        	        	        	        	       0	(  2  2  6)	  0  1
    131.5284	        	        	        	        	       0	(  3  1  4)	  0  1
    132.2299	        	        	        	        	       0	(  3  0 10)	  0  1
    133.5048	        	        	        	        	       0	(  2  1 12)	  0  1
    135.7143	        	        	        	        	       0	(  3  1  5)	  0  1
    141.3081	        	        	        	        	       0	(  3  1  6)	  0  1
    142.7046	        	        	        	        	       0	(  3  0 11)	  0  1
    143.2303	        	        	        	        	       0	(  2  0 15)	  0  1
    144.4662	        	        	        	        	       0	(  1  0 17)	  0  1
    145.4834	        	        	        	        	       0	(  2  2  8)	  0  1
    146.6546	        	        	        	        	       0	(  2  1 13)	  0  1
    148.9789	        	        	        	        	       0	(  3  1  7)	  0  1
    149.5592	        	        	        	        	       0	(  1  1 16)	  0  1
    153.9539	        	        	        	        	       0	(  0  0 18)	  0  1
    158.5756	        	        	        	        	       0	(  3  0 12)	  0  1
    158.8401	        	        	        	        	       0	(  4  0  0)	  0  1
    159.7969	        	        	        	        	       0	(  4  0  1)	  0  1
    160.9688	        	        	        	        	       0	(  3  1  8)	  0  1
    162.9756	        	        	        	        	       0	(  4  0  2)	  0  1
    169.6495	        	        	        	        	       0	(  2  0 16)	  0  1
    170.3238	        	        	        	        	       0	(  4  0  3)	  0  1
    174.0782	        	        	        	        	       0	(  2  1 14)	  0  1
