MSG Master    CELL:    5.90573   5.90573  23.19837   90.0000   90.0000  120.0000   SPGR: P 63/m m c             TEMP:    855.75
  1   1280     2.52000     0.00000    -0.12349     0.00000     0.00000    0
    98     0     2
       0.00000      10.00000
     125.00000     130.00000
 2Theta	Yobs	Ycal	Yobs-Ycal	Backg	Posr	(hkl)	K
      0.7700	    0.00	  463.04	-1745.49	  352.83
      0.8700	    0.00	  464.76	-1745.49	  354.54
      0.9700	   41.00	  466.46	-1745.49	  356.24
      1.0700	   46.00	  468.14	-1745.49	  357.92
      1.1700	   46.00	  469.80	-1745.49	  359.58
      1.2700	   49.00	  471.45	-1745.49	  361.23
      1.3700	   43.00	  473.07	-1745.49	  362.85
      1.4700	   87.00	  474.68	-1745.49	  364.46
      1.5700	  265.00	  476.27	-1745.49	  366.05
      1.6700	  447.00	  477.84	-1745.49	  367.62
      1.7700	  544.00	  479.40	-1745.49	  369.18
      1.8700	  662.00	  480.93	-1745.49	  370.72
      1.9700	  751.00	  482.45	-1745.49	  372.24
      2.0700	  781.00	  483.96	-1745.49	  373.74
      2.1700	  765.00	  485.44	-1745.49	  375.22
      2.2700	  786.00	  486.91	-1745.49	  376.69
      2.3700	  730.00	  488.36	-1745.49	  378.14
      2.4700	  725.00	  489.80	-1745.49	  379.58
      2.5700	  670.00	  491.21	-1745.49	  381.00
      2.6700	  698.00	  492.61	-1745.49	  382.40
      2.7700	  673.00	  494.00	-1745.49	  383.78
      2.8700	  614.00	  495.37	-1745.49	  385.15
      2.9700	  649.00	  496.72	-1745.49	  386.50
      3.0700	  613.00	  498.05	-1745.49	  387.84
      3.1700	  582.00	  499.37	-1745.49	  389.15
      3.2700	  640.00	  500.68	-1745.49	  390.46
      3.3700	  780.00	  501.96	-1745.49	  391.74
      3.4700	  876.00	  503.23	-1745.49	  393.02
      3.5700	 1023.00	  504.49	-1745.49	  394.27
      3.6700	 1101.00	  505.73	-1745.49	  395.51
      3.7700	 1192.00	  506.95	-1745.49	  396.74
      3.8700	 1190.00	  508.16	-1745.49	  397.94
      3.9700	 1279.00	  509.36	-1745.49	  399.14
      4.0700	 1290.00	  510.53	-1745.49	  400.32
      4.1700	 1250.00	  511.70	-1745.49	  401.48
      4.2700	 1347.00	  512.84	-1745.49	  402.63
      4.3700	 1312.00	  513.98	-1745.49	  403.76
      4.4700	 1267.00	  515.10	-1745.49	  404.88
      4.5700	 1244.00	  516.20	-1745.49	  405.98
      4.6700	 1200.00	  517.29	-1745.49	  407.07
      4.7700	 1096.00	  518.36	-1745.49	  408.14
      4.8700	 1119.00	  519.42	-1745.49	  409.20
      4.9700	 1133.00	  520.47	-1745.49	  410.25
      5.0700	 1050.00	  521.50	-1745.49	  411.28
      5.1700	 1042.00	  522.52	-1745.49	  412.30
      5.2700	 1007.00	  523.52	-1745.49	  413.30
      5.3700	  961.00	  524.51	-1745.49	  414.29
      5.4700	  987.00	  525.48	-1745.49	  415.26
      5.5700	  935.00	  526.44	-1745.49	  416.23
      5.6700	  887.00	  527.39	-1745.49	  417.17
      5.7700	  995.00	  528.32	-1745.49	  418.11
      5.8700	  848.00	  529.24	-1745.49	  419.03
      5.9700	  894.00	  530.15	-1745.49	  419.93
      6.0700	  855.00	  531.04	-1745.49	  420.83
      6.1700	  819.00	  531.92	-1745.49	  421.71
      6.2700	  833.00	  532.79	-1745.49	  422.57
      6.3700	  766.00	  533.65	-1745.49	  423.43
      6.4700	  811.00	  534.49	-1745.49	  424.27
      6.5700	  749.00	  535.31	-1745.49	  425.10
      6.6700	  791.00	  536.13	-1745.49	  425.91
      6.7700	  745.00	  536.93	-1745.49	  426.71
      6.8700	  728.00	  537.72	-1745.49	  427.50
      6.9700	  722.00	  538.50	-1745.49	  428.28
      7.0700	  723.00	  539.27	-1745.49	  429.05
      7.1700	  672.00	  540.02	-1745.49	  429.80
      7.2700	  725.00	  540.76	-1745.49	  430.54
      7.3700	  689.00	  541.49	-1745.49	  431.27
      7.4700	  717.00	  542.20	-1745.49	  431.98
      7.5700	  670.00	  542.91	-1745.49	  432.69
      7.6700	  688.00	  543.60	-1745.49	  433.38
      7.7700	  660.00	  544.28	-1745.49	  434.06
      7.8700	  687.00	  544.95	-1745.49	  434.73
      7.9700	  676.00	  545.60	-1745.49	  435.39
      8.0700	  612.00	  546.25	-1745.49	  436.03
      8.1700	  651.00	  546.88	-1745.49	  436.67
      8.2700	  651.00	  547.51	-1745.49	  437.29
      8.3700	  628.00	  548.12	-1745.49	  437.90
      8.4700	  655.00	  548.72	-1745.49	  438.50
      8.5700	  634.00	  549.31	-1745.49	  439.09
      8.6700	  644.00	  549.88	-1745.49	  439.67
      8.7700	  632.00	  550.45	-1745.49	  440.23
      8.8700	  609.00	  551.01	-1745.49	  440.79
      8.9700	  580.00	  551.55	-1745.49	  441.33
      9.0700	  629.00	  552.08	-1745.49	  441.87
      9.1700	  630.00	  552.61	-1745.49	  442.39
      9.2700	  630.00	  553.12	-1745.49	  442.90
      9.3700	  633.00	  553.62	-1745.49	  443.41
      9.4700	  635.00	  554.12	-1745.49	  443.90
      9.5700	  658.00	  554.60	-1745.49	  444.38
      9.6700	  573.00	  555.07	-1745.49	  444.85
      9.7700	  649.00	  555.53	-1745.49	  445.31
      9.8700	  587.00	  555.98	-1745.49	  445.76
      9.9700	  608.00	  556.42	-1745.49	  446.20
     10.0700	  559.00	  558.68	-1745.17	  446.64
     10.1700	  656.00	  559.27	-1648.76	  447.06
     10.2700	  540.00	  559.90	-1765.39	  447.47
     10.3700	  588.00	  560.57	-1718.06	  447.87
     10.4700	  570.00	  561.31	-1736.80	  448.26
     10.5700	  588.00	  562.19	-1719.67	  448.65
     10.6700	  613.00	  563.26	-1695.74	  449.02
     10.7700	  563.00	  564.62	-1747.11	  449.38
     10.8700	  555.00	  566.35	-1756.84	  449.74
     10.9700	  574.00	  568.49	-1739.98	  450.08
     11.0700	  602.00	  571.05	-1714.53	  450.42
     11.1700	  611.00	  574.02	-1708.51	  450.75
     11.2700	  573.00	  577.44	-1749.92	  451.06
     11.3700	  617.00	  581.37	-1709.86	  451.37
     11.4700	  610.00	  585.94	-1721.42	  451.67
     11.5700	  609.00	  591.33	-1727.82	  451.96
     11.6700	  621.00	  597.85	-1722.34	  452.25
     11.7700	  658.00	  605.88	-1693.37	  452.52
     11.8700	  661.00	  615.79	-1700.28	  452.79
     11.9700	  677.00	  627.46	-1695.95	  453.04
     12.0700	  668.00	  639.62	-1717.11	  453.29
     12.1700	  679.00	  649.01	-1715.50	  453.53
     12.2700	  652.00	  650.30	-1743.78	  453.76
     12.3700	  662.00	  639.50	-1722.98	  453.99
     12.4700	  618.00	  620.77	-1748.26	  454.20
     12.5700	  635.00	  602.67	-1713.16	  454.41
     12.6700	  581.00	  589.36	-1753.84	  454.61
     12.7700	  540.00	  580.96	-1786.45	  454.80
     12.8700	  578.00	  576.15	-1743.64	  454.98
     12.9700	  563.00	  573.47	-1755.96	  455.16
     13.0700	  545.00	  571.92	-1772.40	  455.33
     13.1700	  590.00	  570.93	-1726.42	  455.49
     13.2700	  520.00	  570.26	-1795.75	  455.64
     13.3700	  581.00	  569.79	-1734.28	  455.79
     13.4700	  563.00	  569.44	-1751.93	  455.92
     13.5700	  544.00	  569.18	-1770.67	  456.05
     13.6700	  571.00	  568.99	-1743.48	  456.18
     13.7700	  529.00	  568.85	-1785.34	  456.29
     13.8700	  536.00	  568.75	-1778.23	  456.40
     13.9700	  534.00	  568.70	-1780.18	  456.50
     14.0700	  541.00	  568.64	-1773.13	  456.60
     14.1700	  573.00	  568.60	-1741.09	  456.68
     14.2700	  553.00	  568.57	-1761.06	  456.77
     14.3700	  588.00	  568.54	-1726.03	  456.84
     14.4700	  545.00	  568.53	-1769.02	  456.91
     14.5700	  567.00	  568.51	-1747.00	  456.97
     14.6700	  529.00	  568.50	-1784.99	  457.02
     14.7700	  594.00	  568.49	-1719.98	  457.07
     14.8700	  531.00	  568.48	-1782.97	  457.11
     14.9700	  544.00	  568.47	-1769.96	  457.14
     15.0700	  517.00	  568.46	-1796.94	  457.17
     15.1700	  579.00	  568.44	-1734.93	  457.19
     15.2700	  596.00	  568.42	-1717.91	  457.20
     15.3700	  584.00	  568.40	-1729.89	  457.21
     15.4700	  571.00	  568.37	-1742.86	  457.22
     15.5700	  577.00	  568.35	-1736.83	  457.21
     15.6700	  524.00	  568.31	-1789.80	  457.20
     15.7700	  578.00	  568.28	-1735.77	  457.19
     15.8700	  542.00	  568.24	-1771.73	  457.17
     15.9700	  529.00	  568.19	-1784.68	  457.14
     16.0700	  624.00	  568.14	-1689.63	  457.11
     16.1700	  527.00	  568.09	-1786.58	  457.07
     16.2700	  524.00	  568.03	-1789.52	  457.02
     16.3700	  564.00	  567.97	-1749.46	  456.97
     16.4700	  541.00	  567.90	-1772.39	  456.92
     16.5700	  549.00	  567.83	-1764.32	  456.86
     16.6700	  583.00	  567.76	-1730.24	  456.79
     16.7700	  539.00	  567.68	-1774.16	  456.72
     16.8700	  580.00	  567.59	-1733.08	  456.64
     16.9700	  539.00	  567.50	-1773.99	  456.56
     17.0700	  569.00	  567.41	-1743.89	  456.47
     17.1700	  519.00	  567.31	-1793.79	  456.38
     17.2700	  554.00	  567.20	-1758.69	  456.28
     17.3700	  569.00	  567.10	-1743.58	  456.18
     17.4700	  549.00	  566.98	-1763.47	  456.07
     17.5700	  553.00	  566.97	-1759.46	  455.96
     17.6700	  588.00	  566.85	-1724.34	  455.84
     17.7700	  545.00	  566.73	-1767.22	  455.72
     17.8700	  490.00	  566.60	-1822.09	  455.59
     17.9700	  540.00	  566.47	-1771.96	  455.46
     18.0700	  533.00	  566.43	-1778.92	  455.32
     18.1700	  497.00	  566.30	-1814.78	  455.18
     18.2700	  584.00	  566.15	-1727.64	  455.03
     18.3700	  542.00	  566.01	-1769.49	  454.88
     18.4700	  585.00	  565.85	-1726.34	  454.73
     18.5700	  537.00	  565.70	-1774.19	  454.57
     18.6700	  562.00	  565.54	-1749.03	  454.41
     18.7700	  530.00	  565.38	-1780.87	  454.24
     18.8700	  538.00	  565.21	-1772.70	  454.07
     18.9700	  553.00	  565.04	-1757.53	  453.89
     19.0700	  578.00	  564.87	-1732.36	  453.71
     19.1700	  573.00	  564.69	-1737.18	  453.53
     19.2700	  541.00	  564.51	-1769.00	  453.34
     19.3700	  528.00	  564.33	-1781.81	  453.15
     19.4700	  535.00	  564.14	-1774.63	  452.95
     19.5700	  533.00	  563.95	-1776.44	  452.75
     19.6700	  520.00	  563.76	-1789.24	  452.55
     19.7700	  559.00	  563.59	-1750.08	  452.34
     19.8700	  589.00	  563.40	-1719.88	  452.13
     19.9700	  553.00	  563.19	-1755.68	  451.92
     20.0700	  586.00	  562.99	-1722.47	  451.70
     20.1700	  564.00	  562.78	-1744.27	  451.48
     20.2700	  526.00	  562.57	-1782.06	  451.25
     20.3700	  566.00	  562.35	-1741.84	  451.02
     20.4700	  577.00	  562.14	-1730.63	  450.79
     20.5700	  560.00	  561.92	-1747.41	  450.56
     20.6700	  566.00	  561.70	-1741.19	  450.32
     20.7700	  564.00	  561.48	-1742.96	  450.08
     20.8700	  589.00	  561.25	-1717.74	  449.83
     20.9700	  545.00	  561.03	-1761.51	  449.58
     21.0700	  502.00	  560.80	-1804.28	  449.33
     21.1700	  540.00	  560.57	-1766.05	  449.08
     21.2700	  522.00	  560.34	-1783.82	  448.82
     21.3700	  556.00	  560.10	-1749.59	  448.56
     21.4700	  572.00	  559.87	-1733.36	  448.30
     21.5700	  531.00	  559.63	-1774.12	  448.03
     21.6700	  580.00	  559.40	-1724.89	  447.76
     21.7700	  522.00	  559.16	-1782.65	  447.49
     21.8700	  548.00	  558.93	-1756.42	  447.21
     21.9700	  592.00	  558.70	-1712.18	  446.94
     22.0700	  569.00	  558.46	-1734.95	  446.66
     22.1700	  574.00	  558.23	-1729.72	  446.37
     22.2700	  557.00	  558.00	-1746.49	  446.09
     22.3700	  585.00	  557.93	-1718.42	  445.80
     22.4700	  576.00	  557.71	-1727.20	  445.51
     22.5700	  556.00	  557.50	-1746.99	  445.22
     22.6700	  547.00	  557.29	-1755.78	  444.92
     22.7700	  591.00	  557.09	-1711.58	  444.62
     22.8700	  533.00	  556.90	-1769.38	  444.32
     22.9700	  564.00	  556.67	-1738.16	  444.02
     23.0700	  541.00	  556.51	-1761.00	  443.72
     23.1700	  568.00	  556.37	-1733.85	  443.41
     23.2700	  517.00	  556.25	-1784.73	  443.10
     23.3700	  573.00	  556.16	-1728.64	  442.79
     23.4700	  567.00	  556.11	-1734.60	  442.48
     23.5700	  570.00	  556.12	-1731.61	  442.16
     23.6700	  568.00	  556.21	-1733.69	  441.85
     23.7700	  576.00	  556.41	-1725.90	  441.53
     23.8700	  538.00	  556.80	-1764.29	  441.21
     23.9700	  527.00	  557.52	-1776.00	  440.88
     24.0700	  605.00	  558.76	-1699.25	  440.56
     24.1700	  576.00	  560.89	-1730.38	  440.23
     24.2700	  570.00	  564.38	-1739.87	  439.91
     24.3700	  609.00	  569.76	-1706.25	  439.58
     24.4700	  614.00	  577.43	-1708.92	  439.24
     24.5700	  560.00	  587.39	-1772.88	  438.91
     24.6700	  637.00	  598.77	-1707.25	  438.58
     24.7700	  614.00	  609.22	-1740.71	  438.24
     24.8700	  641.00	  614.64	-1719.13	  437.90
     24.9700	  637.00	  610.80	-1719.29	  437.56
     25.0700	  626.00	  598.54	-1718.03	  437.22
     25.1700	  640.00	  584.12	-1689.61	  436.88
     25.2700	  624.00	  572.18	-1693.66	  436.54
     25.3700	  611.00	  563.92	-1698.40	  436.19
     25.4700	  569.00	  558.80	-1735.29	  435.85
     25.5700	  590.00	  555.80	-1711.29	  435.50
     25.6700	  549.00	  554.01	-1750.50	  435.15
     25.7700	  620.00	  552.86	-1678.35	  434.80
     25.8700	  582.00	  552.07	-1715.55	  434.45
     25.9700	  601.00	  551.48	-1695.97	  434.10
     26.0700	  589.00	  551.05	-1707.54	  433.74
     26.1700	  588.00	  550.74	-1708.23	  433.39
     26.2700	  554.00	  550.54	-1742.03	  433.03
     26.3700	  562.00	  550.45	-1733.93	  432.68
     26.4700	  571.00	  550.45	-1724.94	  432.32
     26.5700	  527.00	  550.57	-1769.06	  431.96
     26.6700	  551.00	  550.81	-1745.30	  431.60
     26.7700	  513.00	  551.20	-1783.68	  431.24
     26.8700	  565.00	  551.76	-1732.25	  430.88
     26.9700	  528.00	  552.54	-1770.03	  430.52
     27.0700	  622.00	  553.62	-1677.10	  430.16
     27.1700	  603.00	  555.08	-1697.57	  429.80
     27.2700	  601.00	  557.13	-1701.62	  429.43
     27.3700	  583.00	  560.11	-1722.60	  429.07
     27.4700	  557.00	  564.69	-1753.18	  428.70
     27.5700	  570.00	  572.09	-1747.57	  428.34
     27.6700	  602.00	  584.34	-1727.83	  427.97
     27.7700	  577.00	  604.38	-1772.87	  427.60
     27.8700	  607.00	  635.42	-1773.90	  427.24
     27.9700	  699.00	  679.31	-1725.79	  426.87
     28.0700	  717.00	  734.11	-1762.59	  426.50
     28.1700	  814.00	  791.52	-1723.01	  426.13
     28.2700	  937.00	  835.32	-1643.80	  425.76
     28.3700	  973.00	  845.62	-1618.11	  425.39
     28.4700	  865.00	  819.51	-1700.00	  425.02
     28.5700	  823.00	  783.98	-1706.47	  424.65
     28.6700	  718.00	  766.47	-1793.96	  424.28
     28.7700	  699.00	  774.64	-1821.13	  423.91
     28.8700	  808.00	  799.38	-1736.87	  423.54
     28.9700	  835.00	  820.04	-1730.53	  423.17
     29.0700	  810.00	  812.10	-1747.58	  422.80
     29.1700	  759.00	  767.27	-1753.76	  422.43
     29.2700	  730.00	  705.58	-1721.07	  422.06
     29.3700	  675.00	  650.03	-1720.51	  421.69
     29.4700	  612.00	  609.62	-1743.11	  421.31
     29.5700	  600.00	  583.98	-1729.47	  420.94
     29.6700	  596.00	  569.03	-1718.52	  420.57
     29.7700	  569.00	  560.50	-1736.99	  420.20
     29.8700	  620.00	  555.45	-1680.93	  419.83
     29.9700	  576.00	  552.28	-1721.77	  419.46
     30.0700	  628.00	  550.32	-1667.81	  419.08
     30.1700	  611.00	  549.42	-1683.91	  418.71
     30.2700	  535.00	  549.76	-1760.25	  418.34
     30.3700	  546.00	  551.87	-1751.36	  417.97
     30.4700	  552.00	  556.67	-1750.15	  417.60
     30.5700	  570.00	  565.25	-1740.74	  417.23
     30.6700	  610.00	  578.36	-1713.85	  416.86
     30.7700	  587.00	  595.43	-1753.92	  416.49
     30.8700	  584.00	  613.63	-1775.12	  416.12
     30.9700	  612.00	  627.40	-1760.89	  415.75
     31.0700	  621.00	  629.51	-1753.99	  415.38
     31.1700	  621.00	  616.77	-1741.26	  415.01
     31.2700	  577.00	  595.58	-1764.07	  414.65
     31.3700	  642.00	  574.85	-1678.34	  414.28
     31.4700	  610.00	  558.93	-1694.42	  413.91
     31.5700	  540.00	  548.37	-1753.85	  413.54
     31.6700	  579.00	  542.00	-1708.48	  413.18
     31.7700	  569.00	  538.31	-1714.80	  412.81
     31.8700	  529.00	  536.13	-1752.62	  412.45
     31.9700	  524.00	  534.75	-1756.24	  412.08
     32.0700	  558.00	  533.82	-1721.31	  411.72
     32.1700	  542.00	  533.20	-1736.69	  411.35
     32.2700	  550.00	  532.81	-1728.30	  410.99
     32.3700	  561.00	  532.65	-1717.13	  410.63
     32.4700	  584.00	  532.69	-1694.17	  410.27
     32.5700	  540.00	  532.95	-1738.43	  409.90
     32.6700	  563.00	  533.46	-1715.95	  409.54
     32.7700	  578.00	  534.27	-1701.75	  409.18
     32.8700	  567.00	  535.44	-1713.93	  408.83
     32.9700	  508.00	  537.10	-1774.59	  408.47
     33.0700	  544.00	  539.44	-1740.93	  408.11
     33.1700	  545.00	  542.83	-1743.32	  407.75
     33.2700	  559.00	  548.01	-1734.50	  407.40
     33.3700	  560.00	  556.42	-1741.91	  407.04
     33.4700	  581.00	  570.68	-1735.17	  406.69
     33.5700	  582.00	  594.81	-1758.30	  406.34
     33.6700	  604.00	  634.03	-1775.52	  405.98
     33.7700	  695.00	  692.61	-1743.10	  405.63
     33.8700	  740.00	  769.87	-1775.36	  405.28
     33.9700	  864.00	  855.62	-1737.10	  404.93
     34.0700	  974.00	  927.64	-1699.12	  404.58
     34.1700	 1047.00	  954.99	-1653.48	  404.24
     34.2700	  974.00	  917.77	-1689.26	  403.89
     34.3700	  913.00	  833.88	-1666.37	  403.54
     34.4700	  759.00	  741.54	-1728.02	  403.20
     34.5700	  657.00	  664.96	-1753.45	  402.86
     34.6700	  609.00	  610.92	-1747.41	  402.51
     34.7700	  577.00	  576.84	-1745.33	  402.17
     34.8700	  598.00	  556.75	-1704.24	  401.83
     34.9700	  534.00	  545.01	-1756.50	  401.49
     35.0700	  496.00	  537.74	-1787.22	  401.16
     35.1700	  528.00	  532.79	-1750.27	  400.82
     35.2700	  552.00	  529.12	-1722.61	  400.48
     35.3700	  510.00	  526.24	-1761.73	  400.15
     35.4700	  530.00	  523.90	-1739.39	  399.82
     35.5700	  499.00	  522.42	-1768.91	  399.48
     35.6700	  534.00	  520.78	-1732.27	  399.15
     35.7700	  533.00	  519.37	-1731.86	  398.82
     35.8700	  502.00	  518.16	-1761.64	  398.50
     35.9700	  539.00	  517.08	-1723.56	  398.17
     36.0700	  537.00	  516.09	-1724.58	  397.84
     36.1700	  525.00	  515.23	-1735.71	  397.52
     36.2700	  539.00	  514.45	-1720.94	  397.20
     36.3700	  502.00	  513.74	-1757.23	  396.87
     36.4700	  523.00	  513.10	-1735.59	  396.55
     36.5700	  501.00	  512.52	-1757.00	  396.23
     36.6700	  500.00	  511.99	-1757.48	  395.92
     36.7700	  497.00	  511.52	-1760.00	  395.60
     36.8700	  474.00	  511.11	-1782.60	  395.29
     36.9700	  488.00	  510.80	-1768.29	  394.97
     37.0700	  524.00	  510.62	-1732.11	  394.66
     37.1700	  519.00	  510.67	-1737.16	  394.35
     37.2700	  520.00	  511.07	-1736.56	  394.04
     37.3700	  553.00	  511.96	-1704.45	  393.73
     37.4700	  531.00	  513.44	-1727.92	  393.43
     37.5700	  476.00	  515.43	-1784.91	  393.12
     37.6700	  511.00	  517.77	-1752.25	  392.82
     37.7700	  518.00	  519.42	-1746.91	  392.52
     37.8700	  503.00	  519.73	-1762.22	  392.22
     37.9700	  529.00	  518.29	-1734.78	  391.92
     38.0700	  484.00	  515.68	-1777.17	  391.62
     38.1700	  512.00	  512.81	-1746.29	  391.32
     38.2700	  510.00	  510.23	-1745.71	  391.03
     38.3700	  542.00	  508.16	-1711.65	  390.74
     38.4700	  485.00	  506.62	-1767.11	  390.45
     38.5700	  524.00	  505.53	-1727.01	  390.16
     38.6700	  506.00	  504.73	-1744.22	  389.87
     38.7700	  504.00	  504.13	-1745.61	  389.58
     38.8700	  476.00	  503.63	-1773.12	  389.30
     38.9700	  521.00	  503.21	-1727.70	  389.02
     39.0700	  481.00	  502.83	-1767.32	  388.73
     39.1700	  510.00	  502.48	-1737.97	  388.45
     39.2700	  534.00	  502.15	-1713.64	  388.18
     39.3700	  487.00	  501.74	-1760.23	  387.90
     39.4700	  471.00	  501.44	-1775.93	  387.63
     39.5700	  495.00	  501.16	-1751.65	  387.35
     39.6700	  530.00	  500.89	-1716.38	  387.08
     39.7700	  456.00	  500.63	-1790.12	  386.81
     39.8700	  494.00	  500.39	-1751.87	  386.54
     39.9700	  458.00	  500.15	-1787.64	  386.28
     40.0700	  494.00	  499.93	-1751.41	  386.01
     40.1700	  479.00	  499.62	-1766.10	  385.75
     40.2700	  479.00	  499.42	-1765.90	  385.49
     40.3700	  496.00	  499.74	-1749.23	  385.23
     40.4700	  506.00	  499.58	-1739.06	  384.97
     40.5700	  495.00	  499.43	-1749.91	  384.72
     40.6700	  477.00	  499.29	-1767.78	  384.46
     40.7700	  460.00	  499.18	-1784.67	  384.21
     40.8700	  456.00	  499.09	-1788.58	  383.96
     40.9700	  486.00	  499.03	-1758.52	  383.71
     41.0700	  504.00	  499.00	-1740.49	  383.46
     41.1700	  504.00	  499.01	-1740.49	  383.22
     41.2700	  542.00	  499.06	-1702.55	  382.98
     41.3700	  490.00	  499.17	-1754.66	  382.73
     41.4700	  507.00	  499.36	-1737.85	  382.50
     41.5700	  520.00	  499.65	-1725.14	  382.26
     41.6700	  502.00	  500.12	-1743.61	  382.02
     41.7700	  478.00	  500.76	-1768.24	  381.79
     41.8700	  454.00	  501.74	-1793.23	  381.55
     41.9700	  494.00	  503.41	-1754.90	  381.32
     42.0700	  518.00	  506.14	-1733.63	  381.10
     42.1700	  509.00	  510.92	-1747.41	  380.87
     42.2700	  508.00	  518.46	-1755.95	  380.64
     42.3700	  514.00	  529.89	-1761.38	  380.42
     42.4700	  495.00	  545.62	-1796.11	  380.20
     42.5700	  551.00	  564.64	-1759.13	  379.98
     42.6700	  563.00	  583.85	-1766.34	  379.76
     42.7700	  590.00	  597.70	-1753.19	  379.55
     42.8700	  566.00	  600.14	-1779.63	  379.33
     42.9700	  580.00	  589.68	-1755.17	  379.12
     43.0700	  529.00	  570.82	-1787.31	  378.91
     43.1700	  513.00	  550.53	-1783.02	  378.70
     43.2700	  471.00	  533.04	-1807.53	  378.50
     43.3700	  483.00	  519.90	-1782.38	  378.29
     43.4700	  494.00	  510.97	-1762.46	  378.09
     43.5700	  502.00	  505.34	-1748.83	  377.89
     43.6700	  529.00	  501.92	-1718.41	  377.69
     43.7700	  514.00	  499.82	-1731.30	  377.49
     43.8700	  465.00	  498.44	-1778.93	  377.30
     43.9700	  542.00	  497.47	-1700.96	  377.11
     44.0700	  487.00	  496.74	-1755.23	  376.92
     44.1700	  464.00	  496.16	-1777.65	  376.73
     44.2700	  472.00	  495.90	-1769.39	  376.54
     44.3700	  477.00	  495.52	-1764.01	  376.35
     44.4700	  489.00	  495.21	-1751.69	  376.17
     44.5700	  511.00	  494.95	-1729.44	  375.99
     44.6700	  519.00	  494.74	-1721.22	  375.81
     44.7700	  462.00	  494.57	-1778.05	  375.63
     44.8700	  500.00	  494.43	-1739.92	  375.46
     44.9700	  479.00	  494.33	-1760.82	  375.28
     45.0700	  518.00	  494.26	-1721.75	  375.11
     45.1700	  485.00	  494.22	-1754.71	  374.94
     45.2700	  510.00	  494.21	-1729.70	  374.77
     45.3700	  566.00	  494.22	-1673.71	  374.61
     45.4700	  483.00	  494.27	-1756.75	  374.44
     45.5700	  498.00	  494.34	-1741.82	  374.28
     45.6700	  479.00	  494.44	-1760.93	  374.12
     45.7700	  504.00	  494.64	-1736.13	  373.96
     45.8700	  473.00	  494.81	-1767.29	  373.81
     45.9700	  503.00	  495.01	-1737.50	  373.65
     46.0700	  486.00	  495.29	-1754.78	  373.50
     46.1700	  487.00	  495.44	-1753.92	  373.35
     46.2700	  512.00	  495.78	-1729.27	  373.20
     46.3700	  474.00	  496.18	-1767.67	  373.05
     46.4700	  546.00	  496.65	-1696.13	  372.91
     46.5700	  480.00	  497.19	-1762.68	  372.77
     46.6700	  544.00	  497.84	-1699.32	  372.63
     46.7700	  501.00	  498.60	-1743.09	  372.49
     46.8700	  473.00	  499.53	-1772.02	  372.35
     46.9700	  465.00	  500.70	-1781.19	  372.21
     47.0700	  518.00	  502.27	-1729.76	  372.08
     47.1700	  572.00	  504.49	-1677.98	  371.95
     47.2700	  499.00	  507.81	-1754.30	  371.82
     47.3700	  489.00	  512.84	-1769.33	  371.69
     47.4700	  502.00	  520.32	-1763.80	  371.57
     47.5700	  538.00	  530.85	-1738.34	  371.44
     47.6700	  509.00	  544.58	-1781.06	  371.32
     47.7700	  592.00	  560.68	-1714.17	  371.20
     47.8700	  543.00	  576.90	-1779.39	  371.08
     47.9700	  582.00	  589.43	-1752.92	  370.97
     48.0700	  557.00	  594.07	-1782.55	  370.85
     48.1700	  578.00	  589.29	-1756.78	  370.74
     48.2700	  590.00	  578.40	-1733.89	  370.63
     48.3700	  548.00	  565.21	-1762.70	  370.52
     48.4700	  520.00	  553.56	-1779.04	  370.42
     48.5700	  554.00	  545.16	-1736.65	  370.31
     48.6700	  542.00	  540.49	-1743.98	  370.21
     48.7700	  531.00	  539.29	-1753.78	  370.11
     48.8700	  525.00	  541.06	-1761.54	  370.01
     48.9700	  539.00	  545.34	-1751.83	  369.91
     49.0700	  523.00	  552.05	-1774.54	  369.82
     49.1700	  555.00	  561.64	-1752.13	  369.72
     49.2700	  577.00	  575.51	-1743.99	  369.63
     49.3700	  555.00	  596.61	-1787.10	  369.54
     49.4700	  635.00	  630.49	-1740.98	  369.45
     49.5700	  625.00	  686.25	-1806.74	  369.37
     49.6700	  745.00	  776.70	-1777.19	  369.28
     49.7700	  810.00	  916.47	-1851.96	  369.20
     49.8700	 1037.00	 1117.04	-1825.52	  369.12
     49.9700	 1324.00	 1379.04	-1800.52	  369.04
     50.0700	 1670.00	 1683.17	-1758.66	  368.96
     50.1700	 2020.00	 1981.68	-1707.17	  368.89
     50.2700	 2307.00	 2197.62	-1636.10	  368.82
     50.3700	 2279.00	 2250.38	-1716.87	  368.74
     50.4700	 2186.00	 2114.95	-1674.44	  368.67
     50.5700	 1865.00	 1848.86	-1729.35	  368.61
     50.6700	 1516.00	 1540.69	-1770.18	  368.54
     50.7700	 1126.00	 1256.22	-1875.70	  368.48
     50.8700	  956.00	 1028.99	-1818.48	  368.41
     50.9700	  740.00	  866.55	-1872.04	  368.35
     51.0700	  728.00	  761.40	-1778.88	  368.29
     51.1700	  652.00	  698.23	-1791.72	  368.24
     51.2700	  623.00	  660.76	-1783.25	  368.18
     51.3700	  599.00	  635.90	-1782.39	  368.13
     51.4700	  611.00	  615.89	-1750.38	  368.08
     51.5700	  626.00	  598.02	-1717.50	  368.03
     51.6700	  603.00	  582.22	-1724.71	  367.98
     51.7700	  635.00	  568.97	-1679.46	  367.93
     51.8700	  576.00	  558.54	-1728.03	  367.89
     51.9700	  571.00	  550.86	-1725.34	  367.84
     52.0700	  510.00	  545.63	-1781.12	  367.80
     52.1700	  576.00	  542.47	-1711.96	  367.76
     52.2700	  574.00	  541.03	-1712.52	  367.72
     52.3700	  538.00	  541.11	-1748.59	  367.69
     52.4700	  514.00	  542.74	-1774.23	  367.65
     52.5700	  555.00	  546.33	-1736.82	  367.62
     52.6700	  527.00	  552.79	-1771.28	  367.59
     52.7700	  559.00	  563.85	-1750.34	  367.56
     52.8700	  630.00	  582.24	-1697.73	  367.53
     52.9700	  608.00	  611.75	-1749.24	  367.50
     53.0700	  685.00	  656.72	-1717.20	  367.48
     53.1700	  740.00	  720.87	-1726.36	  367.46
     53.2700	  818.00	  805.47	-1732.96	  367.43
     53.3700	 1018.00	  907.01	-1634.50	  367.41
     53.4700	 1016.00	 1014.92	-1744.41	  367.40
     53.5700	 1086.00	 1109.66	-1769.15	  367.38
     53.6700	 1129.00	 1165.01	-1781.50	  367.36
     53.7700	 1150.00	 1160.39	-1755.88	  367.35
     53.8700	 1113.00	 1097.36	-1729.85	  367.34
     53.9700	 1003.00	  998.79	-1741.28	  367.33
     54.0700	  885.00	  891.00	-1751.48	  367.32
     54.1700	  816.00	  792.17	-1721.65	  367.31
     54.2700	  700.00	  711.48	-1756.97	  367.31
     54.3700	  650.00	  651.43	-1746.92	  367.30
     54.4700	  618.00	  610.15	-1737.64	  367.30
     54.5700	  548.00	  583.66	-1781.15	  367.30
     54.6700	  576.00	  567.61	-1737.09	  367.30
     54.7700	  573.00	  558.35	-1730.84	  367.30
     54.8700	  570.00	  553.33	-1728.81	  367.31
     54.9700	  550.00	  550.94	-1746.43	  367.31
     55.0700	  581.00	  550.34	-1714.82	  367.32
     55.1700	  581.00	  551.08	-1715.57	  367.33
     55.2700	  566.00	  553.00	-1732.49	  367.33
     55.3700	  527.00	  556.09	-1774.58	  367.35
     55.4700	  576.00	  560.45	-1729.93	  367.36
     55.5700	  612.00	  566.29	-1699.77	  367.37
     55.6700	  579.00	  574.05	-1740.54	  367.39
     55.7700	  584.00	  584.57	-1746.05	  367.40
     55.8700	  578.00	  599.40	-1766.89	  367.42
     55.9700	  655.00	  621.42	-1711.90	  367.44
     56.0700	  607.00	  655.48	-1793.97	  367.46
     56.1700	  712.00	  709.12	-1742.60	  367.48
     56.2700	  721.00	  792.67	-1817.16	  367.51
     56.3700	  884.00	  918.15	-1779.63	  367.53
     56.4700	 1017.00	 1096.36	-1824.85	  367.56
     56.5700	 1284.00	 1332.48	-1793.97	  367.59
     56.6700	 1622.00	 1620.18	-1743.66	  367.62
     56.7700	 1907.00	 1936.27	-1774.75	  367.65
     56.8700	 2168.00	 2235.54	-1813.03	  367.68
     56.9700	 2484.00	 2451.71	-1713.20	  367.71
     57.0700	 2522.00	 2517.78	-1741.27	  367.74
     57.1700	 2431.00	 2409.10	-1723.58	  367.78
     57.2700	 2173.00	 2165.06	-1737.55	  367.82
     57.3700	 1849.00	 1857.23	-1753.72	  367.86
     57.4700	 1515.00	 1547.81	-1778.30	  367.89
     57.5700	 1128.00	 1275.79	-1893.28	  367.94
     57.6700	  982.00	 1059.40	-1822.88	  367.98
     57.7700	  871.00	  901.46	-1775.95	  368.02
     57.8700	  791.00	  795.39	-1749.88	  368.06
     57.9700	  707.00	  730.54	-1769.03	  368.11
     58.0700	  715.00	  696.55	-1727.04	  368.16
     58.1700	  725.00	  685.69	-1706.18	  368.20
     58.2700	  673.00	  693.38	-1765.86	  368.25
     58.3700	  716.00	  717.55	-1747.04	  368.30
     58.4700	  802.00	  757.33	-1700.82	  368.36
     58.5700	  853.00	  811.61	-1704.10	  368.41
     58.6700	  877.00	  877.60	-1746.09	  368.46
     58.7700	  994.00	  949.70	-1701.19	  368.52
     58.8700	 1072.00	 1020.02	-1693.51	  368.57
     58.9700	 1130.00	 1081.49	-1696.98	  368.63
     59.0700	 1266.00	 1130.14	-1609.63	  368.69
     59.1700	 1319.00	 1162.79	-1589.27	  368.75
     59.2700	 1344.00	 1175.30	-1576.79	  368.81
     59.3700	 1341.00	 1167.41	-1571.89	  368.87
     59.4700	 1285.00	 1147.35	-1607.84	  368.93
     59.5700	 1243.00	 1127.92	-1630.41	  368.99
     59.6700	 1235.00	 1119.34	-1629.83	  369.06
     59.7700	 1247.00	 1127.13	-1625.61	  369.12
     59.8700	 1210.00	 1154.73	-1690.22	  369.19
     59.9700	 1209.00	 1205.20	-1741.69	  369.26
     60.0700	 1356.00	 1278.25	-1667.73	  369.33
     60.1700	 1409.00	 1365.61	-1702.10	  369.40
     60.2700	 1503.00	 1448.75	-1691.24	  369.47
     60.3700	 1594.00	 1500.68	-1652.17	  369.54
     60.4700	 1550.00	 1495.92	-1691.41	  369.61
     60.5700	 1493.00	 1426.77	-1679.26	  369.68
     60.6700	 1292.00	 1309.01	-1762.49	  369.76
     60.7700	 1239.00	 1169.29	-1675.78	  369.83
     60.8700	 1048.00	 1030.99	-1728.47	  369.91
     60.9700	  932.00	  909.43	-1722.91	  369.98
     61.0700	  786.00	  812.61	-1772.09	  370.06
     61.1700	  724.00	  742.95	-1764.44	  370.14
     61.2700	  745.00	  699.57	-1700.06	  370.22
     61.3700	  699.00	  680.29	-1726.78	  370.30
     61.4700	  691.00	  683.55	-1738.03	  370.38
     61.5700	  680.00	  709.17	-1774.65	  370.46
     61.6700	  692.00	  758.17	-1811.66	  370.54
     61.7700	  799.00	  831.58	-1778.07	  370.63
     61.8700	  917.00	  928.61	-1757.10	  370.71
     61.9700	 1025.00	 1044.68	-1765.17	  370.80
     62.0700	 1187.00	 1169.71	-1728.20	  370.88
     62.1700	 1209.00	 1286.74	-1823.22	  370.97
     62.2700	 1332.00	 1372.47	-1785.96	  371.05
     62.3700	 1294.00	 1403.51	-1855.00	  371.14
     62.4700	 1330.00	 1369.32	-1784.80	  371.23
     62.5700	 1133.00	 1280.17	-1892.65	  371.32
     62.6700	 1070.00	 1159.46	-1834.95	  371.41
     62.7700	  997.00	 1030.47	-1778.95	  371.50
     62.8700	  859.00	  909.89	-1796.37	  371.59
     62.9700	  680.00	  807.45	-1872.94	  371.68
     63.0700	  703.00	  726.97	-1769.45	  371.77
     63.1700	  639.00	  667.92	-1774.41	  371.87
     63.2700	  627.00	  627.27	-1745.76	  371.96
     63.3700	  615.00	  600.90	-1731.39	  372.05
     63.4700	  547.00	  584.94	-1783.43	  372.15
     63.5700	  595.00	  576.44	-1726.93	  372.24
     63.6700	  565.00	  573.62	-1754.11	  372.34
     63.7700	  558.00	  575.87	-1763.36	  372.44
     63.8700	  574.00	  583.54	-1755.02	  372.53
     63.9700	  642.00	  597.72	-1701.20	  372.63
     64.0700	  634.00	  619.85	-1731.34	  372.73
     64.1700	  693.00	  651.34	-1703.82	  372.83
     64.2700	  729.00	  692.74	-1709.23	  372.93
     64.3700	  758.00	  743.45	-1730.94	  373.03
     64.4700	  852.00	  800.86	-1694.35	  373.13
     64.5700	  928.00	  859.84	-1677.32	  373.23
     64.6700	  986.00	  912.57	-1672.06	  373.33
     64.7700	  968.00	  949.78	-1727.27	  373.43
     64.8700	 1052.00	  964.03	-1657.52	  373.53
     64.9700	  982.00	  953.22	-1716.70	  373.63
     65.0700	  940.00	  921.26	-1726.74	  373.73
     65.1700	  934.00	  875.34	-1686.83	  373.83
     65.2700	  830.00	  823.54	-1739.03	  373.94
     65.3700	  774.00	  773.68	-1745.17	  374.04
     65.4700	  794.00	  729.38	-1680.87	  374.14
     65.5700	  668.00	  692.10	-1769.59	  374.25
     65.6700	  660.00	  661.47	-1746.96	  374.35
     65.7700	  594.00	  636.51	-1788.00	  374.46
     65.8700	  596.00	  616.41	-1765.90	  374.56
     65.9700	  554.00	  600.60	-1792.09	  374.67
     66.0700	  610.00	  588.55	-1724.04	  374.77
     66.1700	  530.00	  579.76	-1795.25	  374.88
     66.2700	  577.00	  573.82	-1742.31	  374.98
     66.3700	  551.00	  570.65	-1765.13	  375.09
     66.4700	  540.00	  569.46	-1774.95	  375.20
     66.5700	  555.00	  570.39	-1760.88	  375.30
     66.6700	  580.00	  573.42	-1738.91	  375.41
     66.7700	  615.00	  578.79	-1709.28	  375.51
     66.8700	  611.00	  587.13	-1721.61	  375.62
     66.9700	  611.00	  599.65	-1734.14	  375.73
     67.0700	  635.00	  618.60	-1729.08	  375.84
     67.1700	  670.00	  647.11	-1722.60	  375.94
     67.2700	  673.00	  689.98	-1762.47	  376.05
     67.3700	  701.00	  753.21	-1797.70	  376.16
     67.4700	  799.00	  843.59	-1790.08	  376.26
     67.5700	  914.00	  967.49	-1798.98	  376.37
     67.6700	 1208.00	 1129.14	-1666.63	  376.48
     67.7700	 1336.00	 1328.48	-1737.96	  376.59
     67.8700	 1534.00	 1558.92	-1770.41	  376.69
     67.9700	 1740.00	 1805.55	-1811.04	  376.80
     68.0700	 2045.00	 2043.61	-1744.10	  376.91
     68.1700	 2269.00	 2238.76	-1715.25	  377.02
     68.2700	 2369.00	 2352.26	-1728.74	  377.13
     68.3700	 2330.00	 2355.97	-1771.46	  377.23
     68.4700	 2227.00	 2248.89	-1767.38	  377.34
     68.5700	 2040.00	 2057.92	-1763.40	  377.45
     68.6700	 1869.00	 1821.69	-1698.18	  377.55
     68.7700	 1574.00	 1575.09	-1746.58	  377.66
     68.8700	 1291.00	 1343.55	-1798.04	  377.77
     68.9700	 1121.00	 1142.47	-1766.96	  377.88
     69.0700	 1009.00	  978.91	-1715.40	  377.98
     69.1700	  840.00	  853.27	-1758.75	  378.09
     69.2700	  796.00	  761.46	-1710.95	  378.20
     69.3700	  721.00	  697.21	-1721.70	  378.30
     69.4700	  653.00	  653.70	-1746.18	  378.41
     69.5700	  637.00	  624.81	-1733.30	  378.52
     69.6700	  643.00	  605.73	-1708.22	  378.62
     69.7700	  528.00	  593.00	-1810.49	  378.73
     69.8700	  610.00	  584.17	-1719.66	  378.83
     69.9700	  579.00	  578.19	-1744.67	  378.94
     70.0700	  598.00	  574.04	-1721.53	  379.04
     70.1700	  557.00	  571.31	-1759.80	  379.15
     70.2700	  574.00	  569.71	-1741.20	  379.25
     70.3700	  523.00	  569.18	-1791.67	  379.36
     70.4700	  614.00	  569.75	-1701.24	  379.46
     70.5700	  526.00	  571.56	-1791.05	  379.56
     70.6700	  611.00	  574.95	-1709.44	  379.67
     70.7700	  577.00	  581.46	-1749.94	  379.77
     70.8700	  623.00	  590.23	-1712.72	  379.87
     70.9700	  604.00	  603.78	-1745.27	  379.97
     71.0700	  582.00	  624.39	-1787.88	  380.07
     71.1700	  640.00	  655.14	-1760.63	  380.18
     71.2700	  641.00	  699.80	-1804.29	  380.28
     71.3700	  736.00	  762.49	-1771.98	  380.38
     71.4700	  860.00	  846.97	-1732.46	  380.48
     71.5700	  977.00	  955.75	-1724.24	  380.58
     71.6700	 1044.00	 1088.83	-1790.32	  380.68
     71.7700	 1216.00	 1242.62	-1772.11	  380.77
     71.8700	 1346.00	 1409.03	-1808.52	  380.87
     71.9700	 1549.00	 1574.54	-1771.03	  380.97
     72.0700	 1715.00	 1720.20	-1750.69	  381.07
     72.1700	 1791.00	 1823.10	-1777.59	  381.16
     72.2700	 1874.00	 1862.47	-1733.96	  381.26
     72.3700	 1753.00	 1829.10	-1821.59	  381.36
     72.4700	 1747.00	 1730.79	-1729.27	  381.45
     72.5700	 1611.00	 1587.65	-1722.14	  381.55
     72.6700	 1390.00	 1422.71	-1778.20	  381.64
     72.7700	 1287.00	 1255.43	-1713.92	  381.73
     72.8700	 1172.00	 1099.66	-1673.15	  381.83
     72.9700	  957.00	  963.95	-1752.44	  381.92
     73.0700	  935.00	  852.14	-1662.63	  382.01
     73.1700	  772.00	  764.45	-1737.94	  382.10
     73.2700	  706.00	  698.60	-1738.09	  382.19
     73.3700	  742.00	  650.90	-1654.39	  382.28
     73.4700	  639.00	  617.31	-1723.79	  382.37
     73.5700	  622.00	  594.04	-1717.53	  382.46
     73.6700	  613.00	  578.01	-1710.50	  382.55
     73.7700	  589.00	  566.87	-1723.36	  382.64
     73.8700	  591.00	  558.49	-1712.98	  382.72
     73.9700	  558.00	  552.85	-1740.33	  382.81
     74.0700	  624.00	  548.75	-1670.23	  382.89
     74.1700	  570.00	  545.79	-1721.27	  382.98
     74.2700	  558.00	  543.71	-1731.19	  383.06
     74.3700	  558.00	  542.31	-1729.80	  383.14
     74.4700	  577.00	  541.43	-1709.91	  383.22
     74.5700	  599.00	  540.89	-1687.37	  383.31
     74.6700	  551.00	  540.50	-1734.98	  383.39
     74.7700	  620.00	  540.05	-1665.54	  383.47
     74.8700	  638.00	  539.38	-1646.87	  383.54
     74.9700	  650.00	  538.38	-1633.87	  383.62
     75.0700	  635.00	  537.11	-1647.60	  383.70
     75.1700	  584.00	  535.75	-1697.24	  383.78
     75.2700	  642.00	  534.55	-1638.03	  383.85
     75.3700	  593.00	  533.80	-1686.29	  383.93
     75.4700	  563.00	  533.82	-1716.31	  384.00
     75.5700	  559.00	  534.98	-1721.47	  384.07
     75.6700	  561.00	  537.66	-1722.15	  384.14
     75.7700	  563.00	  542.31	-1724.80	  384.21
     75.8700	  577.00	  549.35	-1717.84	  384.28
     75.9700	  561.00	  559.11	-1743.59	  384.35
     76.0700	  559.00	  571.90	-1758.39	  384.42
     76.1700	  603.00	  587.64	-1730.13	  384.49
     76.2700	  635.00	  605.96	-1716.45	  384.55
     76.3700	  631.00	  626.03	-1740.52	  384.62
     76.4700	  630.00	  646.52	-1762.01	  384.68
     76.5700	  616.00	  665.47	-1794.96	  384.75
     76.6700	  687.00	  680.73	-1739.22	  384.81
     76.7700	  720.00	  689.78	-1715.27	  384.87
     76.8700	  696.00	  690.86	-1740.35	  384.93
     76.9700	  612.00	  683.69	-1817.18	  384.99
     77.0700	  695.00	  669.63	-1720.12	  385.05
     77.1700	  658.00	  651.00	-1738.49	  385.11
     77.2700	  615.00	  630.21	-1760.70	  385.16
     77.3700	  571.00	  609.28	-1783.76	  385.22
     77.4700	  599.00	  589.67	-1736.16	  385.27
     77.5700	  561.00	  572.30	-1756.79	  385.32
     77.6700	  538.00	  557.75	-1765.23	  385.38
     77.7700	  547.00	  546.05	-1744.54	  385.43
     77.8700	  562.00	  537.02	-1720.51	  385.48
     77.9700	  503.00	  530.30	-1772.78	  385.52
     78.0700	  521.00	  525.22	-1749.71	  385.57
     78.1700	  517.00	  521.80	-1750.28	  385.62
     78.2700	  472.00	  519.41	-1792.90	  385.66
     78.3700	  497.00	  517.77	-1766.26	  385.71
     78.4700	  553.00	  516.63	-1709.12	  385.75
     78.5700	  499.00	  515.85	-1762.33	  385.79
     78.6700	  530.00	  515.30	-1730.79	  385.83
     78.7700	  515.00	  514.95	-1745.44	  385.87
     78.8700	  494.00	  514.74	-1766.23	  385.91
     78.9700	  517.00	  514.68	-1743.17	  385.94
     79.0700	  505.00	  514.76	-1755.25	  385.98
     79.1700	  518.00	  515.00	-1742.49	  386.01
     79.2700	  484.00	  515.42	-1776.91	  386.05
     79.3700	  529.00	  516.06	-1732.54	  386.08
     79.4700	  535.00	  516.95	-1727.44	  386.11
     79.5700	  505.00	  518.14	-1758.63	  386.14
     79.6700	  484.00	  519.69	-1781.18	  386.17
     79.7700	  550.00	  521.67	-1717.15	  386.19
     79.8700	  509.00	  524.13	-1760.62	  386.22
     79.9700	  513.00	  527.18	-1759.67	  386.24
     80.0700	  556.00	  530.91	-1720.40	  386.26
     80.1700	  526.00	  535.44	-1754.93	  386.29
     80.2700	  536.00	  540.88	-1750.37	  386.31
     80.3700	  549.00	  547.38	-1743.86	  386.32
     80.4700	  510.00	  555.07	-1790.56	  386.34
     80.5700	  575.00	  564.13	-1734.62	  386.36
     80.6700	  586.00	  574.46	-1733.95	  386.37
     80.7700	  607.00	  586.45	-1724.94	  386.39
     80.8700	  601.00	  599.66	-1744.15	  386.40
     80.9700	  598.00	  613.62	-1761.11	  386.41
     81.0700	  668.00	  627.61	-1705.09	  386.42
     81.1700	  645.00	  640.74	-1741.22	  386.43
     81.2700	  703.00	  652.16	-1694.65	  386.43
     81.3700	  639.00	  661.22	-1767.71	  386.44
     81.4700	  656.00	  667.54	-1757.02	  386.44
     81.5700	  743.00	  670.92	-1673.41	  386.44
     81.6700	  716.00	  671.37	-1700.86	  386.44
     81.7700	  703.00	  669.02	-1711.51	  386.44
     81.8700	  681.00	  664.04	-1728.53	  386.44
     81.9700	  701.00	  656.60	-1701.09	  386.44
     82.0700	  667.00	  647.00	-1725.49	  386.43
     82.1700	  665.00	  635.73	-1716.22	  386.43
     82.2700	  649.00	  623.48	-1719.97	  386.42
     82.3700	  653.00	  610.93	-1703.42	  386.41
     82.4700	  623.00	  598.62	-1721.11	  386.40
     82.5700	  607.00	  586.90	-1725.38	  386.39
     82.6700	  607.00	  576.02	-1714.50	  386.37
     82.7700	  578.00	  566.20	-1733.69	  386.36
     82.8700	  547.00	  557.68	-1756.16	  386.34
     82.9700	  551.00	  550.61	-1745.10	  386.32
     83.0700	  500.00	  545.15	-1790.63	  386.30
     83.1700	  535.00	  541.33	-1751.82	  386.28
     83.2700	  475.00	  539.19	-1809.68	  386.26
     83.3700	  511.00	  538.66	-1773.15	  386.24
     83.4700	  500.00	  539.65	-1785.14	  386.21
     83.5700	  535.00	  542.00	-1752.48	  386.18
     83.6700	  550.00	  545.45	-1740.94	  386.16
     83.7700	  534.00	  549.71	-1761.20	  386.13
     83.8700	  529.00	  554.36	-1770.85	  386.09
     83.9700	  534.00	  558.85	-1770.34	  386.06
     84.0700	  581.00	  562.71	-1727.20	  386.03
     84.1700	  533.00	  565.39	-1777.87	  385.99
     84.2700	  559.00	  566.35	-1752.84	  385.95
     84.3700	  548.00	  565.38	-1762.87	  385.91
     84.4700	  514.00	  562.55	-1794.04	  385.87
     84.5700	  566.00	  558.25	-1737.74	  385.83
     84.6700	  561.00	  552.97	-1737.46	  385.78
     84.7700	  505.00	  547.22	-1787.71	  385.74
     84.8700	  535.00	  541.44	-1751.93	  385.69
     84.9700	  521.00	  535.95	-1760.44	  385.64
     85.0700	  556.00	  531.00	-1720.49	  385.59
     85.1700	  524.00	  526.73	-1748.22	  385.54
     85.2700	  498.00	  523.18	-1770.67	  385.49
     85.3700	  501.00	  520.37	-1764.86	  385.43
     85.4700	  493.00	  518.24	-1770.73	  385.37
     85.5700	  501.00	  516.71	-1761.19	  385.31
     85.6700	  520.00	  515.69	-1741.18	  385.25
     85.7700	  507.00	  515.12	-1753.60	  385.19
     85.8700	  529.00	  514.93	-1731.42	  385.13
     85.9700	  484.00	  515.12	-1776.61	  385.06
     86.0700	  457.00	  515.69	-1804.18	  385.00
     86.1700	  531.00	  516.70	-1731.18	  384.93
     86.2700	  502.00	  518.23	-1761.71	  384.86
     86.3700	  501.00	  520.40	-1764.89	  384.79
     86.4700	  526.00	  523.38	-1742.86	  384.72
     86.5700	  509.00	  527.31	-1763.80	  384.64
     86.6700	  491.00	  532.36	-1786.85	  384.56
     86.7700	  513.00	  538.66	-1771.14	  384.49
     86.8700	  564.00	  546.27	-1727.76	  384.41
     86.9700	  541.00	  555.17	-1759.66	  384.33
     87.0700	  533.00	  565.24	-1777.72	  384.24
     87.1700	  603.00	  576.19	-1718.68	  384.16
     87.2700	  554.00	  587.60	-1779.09	  384.07
     87.3700	  597.00	  598.88	-1747.36	  383.99
     87.4700	  632.00	  609.27	-1722.76	  383.90
     87.5700	  587.00	  617.92	-1776.41	  383.81
     87.6700	  643.00	  623.93	-1726.42	  383.71
     87.7700	  667.00	  626.62	-1705.11	  383.62
     87.8700	  618.00	  625.71	-1753.19	  383.52
     87.9700	  623.00	  621.42	-1743.91	  383.42
     88.0700	  608.00	  614.46	-1751.95	  383.33
     88.1700	  636.00	  605.74	-1715.23	  383.23
     88.2700	  588.00	  596.24	-1753.72	  383.12
     88.3700	  578.00	  586.81	-1754.30	  383.02
     88.4700	  549.00	  578.20	-1774.69	  382.91
     88.5700	  568.00	  570.56	-1748.05	  382.81
     88.6700	  556.00	  565.11	-1754.60	  382.70
     88.7700	  573.00	  561.66	-1734.15	  382.59
     88.8700	  562.00	  560.25	-1743.74	  382.47
     88.9700	  553.00	  560.77	-1753.25	  382.36
     89.0700	  586.00	  562.95	-1722.43	  382.24
     89.1700	  590.00	  566.41	-1721.90	  382.13
     89.2700	  615.00	  570.66	-1701.15	  382.01
     89.3700	  634.00	  575.12	-1686.61	  381.89
     89.4700	  608.00	  579.17	-1716.66	  381.77
     89.5700	  601.00	  582.17	-1726.66	  381.64
     89.6700	  576.00	  583.58	-1753.07	  381.52
     89.7700	  571.00	  583.06	-1757.55	  381.39
     89.8700	  580.00	  580.57	-1746.05	  381.26
     89.9700	  579.00	  576.35	-1742.83	  381.13
     90.0700	  590.00	  570.82	-1726.31	  381.00
     90.1700	  542.00	  564.49	-1767.98	  380.87
     90.2700	  560.00	  557.82	-1743.31	  380.73
     90.3700	  501.00	  551.20	-1795.69	  380.60
     90.4700	  535.00	  544.95	-1755.44	  380.46
     90.5700	  536.00	  539.30	-1748.78	  380.32
     90.6700	  506.00	  534.38	-1773.87	  380.18
     90.7700	  496.00	  530.26	-1779.75	  380.04
     90.8700	  508.00	  526.96	-1764.45	  379.89
     90.9700	  559.00	  524.44	-1710.93	  379.74
     91.0700	  481.00	  522.64	-1787.13	  379.60
     91.1700	  498.00	  521.48	-1768.97	  379.45
     91.2700	  515.00	  520.89	-1751.38	  379.30
     91.3700	  478.00	  520.84	-1788.33	  379.15
     91.4700	  476.00	  521.29	-1790.78	  378.99
     91.5700	  523.00	  522.26	-1744.75	  378.84
     91.6700	  506.00	  523.80	-1763.29	  378.68
     91.7700	  473.00	  525.99	-1798.48	  378.52
     91.8700	  529.00	  528.96	-1745.45	  378.36
     91.9700	  529.00	  532.85	-1749.34	  378.20
     92.0700	  506.00	  537.84	-1777.33	  378.04
     92.1700	  520.00	  544.11	-1769.60	  377.87
     92.2700	  519.00	  551.83	-1778.32	  377.71
     92.3700	  562.00	  561.14	-1744.62	  377.54
     92.4700	  538.00	  572.13	-1779.61	  377.37
     92.5700	  588.00	  584.82	-1742.30	  377.20
     92.6700	  566.00	  599.14	-1778.63	  377.03
     92.7700	  609.00	  614.93	-1751.41	  376.85
     92.8700	  618.00	  631.89	-1759.37	  376.68
     92.9700	  661.00	  649.61	-1734.10	  376.50
     93.0700	  614.00	  667.57	-1799.06	  376.32
     93.1700	  683.00	  685.13	-1747.61	  376.14
     93.2700	  678.00	  701.64	-1769.13	  375.96
     93.3700	  749.00	  716.58	-1713.06	  375.78
     93.4700	  686.00	  729.67	-1789.16	  375.60
     93.5700	  706.00	  741.05	-1780.54	  375.41
     93.6700	  771.00	  751.15	-1725.64	  375.22
     93.7700	  856.00	  760.59	-1650.08	  375.04
     93.8700	  807.00	  769.68	-1708.17	  374.85
     93.9700	  799.00	  779.44	-1725.93	  374.65
     94.0700	  866.00	  789.84	-1669.32	  374.46
     94.1700	  857.00	  800.96	-1689.44	  374.27
     94.2700	  826.00	  812.83	-1732.31	  374.07
     94.3700	  821.00	  825.47	-1749.96	  373.88
     94.4700	  869.00	  838.84	-1715.33	  373.68
     94.5700	  842.00	  852.77	-1756.26	  373.48
     94.6700	  810.00	  866.80	-1802.29	  373.28
     94.7700	  927.00	  880.11	-1698.60	  373.08
     94.8700	  920.00	  891.55	-1717.04	  372.87
     94.9700	  865.00	  899.70	-1780.19	  372.67
     95.0700	  909.00	  903.07	-1739.56	  372.46
     95.1700	  866.00	  900.48	-1779.97	  372.26
     95.2700	  891.00	  891.36	-1745.84	  372.05
     95.3700	  911.00	  875.98	-1710.47	  371.84
     95.4700	  819.00	  855.42	-1781.90	  371.63
     95.5700	  800.00	  831.27	-1776.76	  371.42
     95.6700	  822.00	  805.38	-1728.87	  371.20
     95.7700	  817.00	  779.55	-1708.04	  370.99
     95.8700	  766.00	  755.50	-1734.99	  370.77
     95.9700	  750.00	  734.77	-1730.26	  370.55
     96.0700	  693.00	  718.74	-1771.23	  370.34
     96.1700	  728.00	  708.64	-1726.13	  370.12
     96.2700	  734.00	  705.50	-1716.99	  369.90
     96.3700	  702.00	  710.24	-1753.72	  369.67
     96.4700	  730.00	  723.55	-1739.04	  369.45
     96.5700	  751.00	  745.96	-1740.45	  369.23
     96.6700	  787.00	  777.77	-1736.26	  369.00
     96.7700	  840.00	  818.98	-1724.47	  368.77
     96.8700	  845.00	  869.27	-1769.76	  368.55
     96.9700	  915.00	  927.88	-1758.37	  368.32
     97.0700	 1020.00	  993.59	-1719.08	  368.09
     97.1700	 1039.00	 1064.63	-1771.12	  367.86
     97.2700	 1149.00	 1138.67	-1735.16	  367.63
     97.3700	 1153.00	 1212.79	-1805.28	  367.39
     97.4700	 1280.00	 1283.48	-1748.97	  367.16
     97.5700	 1348.00	 1346.76	-1744.25	  366.92
     97.6700	 1366.00	 1398.47	-1777.96	  366.69
     97.7700	 1424.00	 1434.76	-1756.24	  366.45
     97.8700	 1453.00	 1452.73	-1745.22	  366.21
     97.9700	 1364.00	 1451.13	-1832.62	  365.97
     98.0700	 1352.00	 1430.62	-1824.11	  365.74
     98.1700	 1420.00	 1393.57	-1719.06	  365.49
     98.2700	 1309.00	 1343.48	-1779.97	  365.25
     98.3700	 1308.00	 1284.31	-1721.80	  365.01
     98.4700	 1246.00	 1220.07	-1719.56	  364.77
     98.5700	 1104.00	 1154.47	-1795.95	  364.52
     98.6700	 1089.00	 1090.80	-1747.29	  364.28
     98.7700	 1038.00	 1031.87	-1739.36	  364.03
     98.8700	  953.00	  979.99	-1772.47	  363.79
     98.9700	  917.00	  937.03	-1765.52	  363.54
     99.0700	  859.00	  904.47	-1790.96	  363.29
     99.1700	  816.00	  883.45	-1812.94	  363.04
     99.2700	  917.00	  874.77	-1703.26	  362.79
     99.3700	  922.00	  878.94	-1702.43	  362.54
     99.4700	  918.00	  896.22	-1723.71	  362.29
     99.5700	  926.00	  926.60	-1746.08	  362.04
     99.6700	  990.00	  969.80	-1725.29	  361.78
     99.7700	 1013.00	 1025.26	-1757.75	  361.53
     99.8700	 1075.00	 1092.08	-1762.57	  361.28
     99.9700	 1202.00	 1168.98	-1712.47	  361.02
    100.0700	 1263.00	 1254.23	-1736.72	  360.77
    100.1700	 1318.00	 1345.70	-1773.18	  360.51
    100.2700	 1503.00	 1440.59	-1683.08	  360.26
    100.3700	 1577.00	 1535.70	-1704.19	  360.00
    100.4700	 1627.00	 1627.44	-1745.93	  359.74
    100.5700	 1705.00	 1712.21	-1752.70	  359.48
    100.6700	 1814.00	 1786.77	-1718.26	  359.23
    100.7700	 1828.00	 1848.65	-1766.13	  358.97
    100.8700	 1909.00	 1896.20	-1732.68	  358.71
    100.9700	 1985.00	 1928.48	-1688.97	  358.45
    101.0700	 1904.00	 1944.93	-1786.42	  358.19
    101.1700	 1935.00	 1945.13	-1755.62	  357.93
    101.2700	 1880.00	 1928.88	-1794.37	  357.67
    101.3700	 1885.00	 1896.53	-1757.02	  357.41
    101.4700	 1860.00	 1849.30	-1734.79	  357.14
    101.5700	 1837.00	 1789.57	-1698.06	  356.88
    101.6700	 1735.00	 1720.71	-1731.20	  356.62
    101.7700	 1670.00	 1646.64	-1722.13	  356.36
    101.8700	 1574.00	 1571.29	-1742.78	  356.09
    101.9700	 1479.00	 1498.15	-1764.63	  355.83
    102.0700	 1416.00	 1429.98	-1759.47	  355.57
    102.1700	 1387.00	 1368.75	-1727.24	  355.31
    102.2700	 1300.00	 1315.52	-1761.01	  355.04
    102.3700	 1280.00	 1270.59	-1736.08	  354.78
    102.4700	 1252.00	 1233.51	-1727.00	  354.52
    102.5700	 1169.00	 1203.16	-1779.65	  354.25
    102.6700	 1186.00	 1177.89	-1737.37	  353.99
    102.7700	 1138.00	 1155.62	-1763.11	  353.72
    102.8700	 1163.00	 1134.16	-1716.65	  353.46
    102.9700	 1106.00	 1111.46	-1750.95	  353.20
    103.0700	 1077.00	 1085.92	-1754.41	  352.93
    103.1700	  995.00	 1056.62	-1807.10	  352.67
    103.2700	  982.00	 1023.36	-1786.85	  352.41
    103.3700	  986.00	  986.60	-1746.09	  352.14
    103.4700	  951.00	  947.21	-1741.70	  351.88
    103.5700	  932.00	  906.25	-1719.74	  351.62
    103.6700	  844.00	  864.83	-1766.32	  351.35
    103.7700	  826.00	  823.98	-1743.47	  351.09
    103.8700	  779.00	  784.60	-1751.09	  350.83
    103.9700	  793.00	  747.46	-1699.95	  350.56
    104.0700	  752.00	  713.12	-1706.61	  350.30
    104.1700	  683.00	  682.00	-1744.48	  350.04
    104.2700	  696.00	  654.32	-1703.81	  349.78
    104.3700	  629.00	  630.17	-1746.66	  349.52
    104.4700	  638.00	  609.48	-1716.97	  349.26
    104.5700	  584.00	  592.08	-1753.57	  349.00
    104.6700	  576.00	  577.72	-1747.21	  348.74
    104.7700	  573.00	  566.10	-1738.59	  348.48
    104.8700	  592.00	  556.88	-1710.37	  348.22
    104.9700	  595.00	  549.76	-1700.24	  347.96
    105.0700	  563.00	  544.41	-1726.89	  347.70
    105.1700	  531.00	  540.56	-1755.05	  347.45
    105.2700	  533.00	  537.99	-1750.48	  347.19
    105.3700	  540.00	  536.51	-1741.99	  346.93
    105.4700	  530.00	  535.95	-1751.44	  346.68
    105.5700	  543.00	  536.22	-1738.71	  346.43
    105.6700	  543.00	  537.24	-1739.73	  346.17
    105.7700	  493.00	  538.98	-1791.47	  345.92
    105.8700	  569.00	  541.40	-1717.89	  345.67
    105.9700	  562.00	  544.54	-1728.02	  345.42
    106.0700	  548.00	  548.41	-1745.90	  345.17
    106.1700	  534.00	  553.06	-1764.55	  344.92
    106.2700	  608.00	  558.53	-1696.02	  344.67
    106.3700	  518.00	  564.85	-1792.33	  344.42
    106.4700	  614.00	  572.04	-1703.53	  344.17
    106.5700	  572.00	  580.08	-1753.57	  343.93
    106.6700	  576.00	  588.91	-1758.39	  343.68
    106.7700	  624.00	  598.40	-1719.89	  343.44
    106.8700	  615.00	  608.40	-1738.89	  343.20
    106.9700	  634.00	  618.68	-1730.17	  342.96
    107.0700	  638.00	  628.99	-1736.48	  342.72
    107.1700	  670.00	  639.01	-1714.49	  342.48
    107.2700	  636.00	  648.38	-1757.86	  342.24
    107.3700	  674.00	  656.78	-1728.26	  342.00
    107.4700	  634.00	  663.87	-1775.36	  341.77
    107.5700	  649.00	  669.40	-1765.89	  341.53
    107.6700	  658.00	  673.24	-1760.72	  341.30
    107.7700	  697.00	  675.41	-1723.90	  341.07
    107.8700	  666.00	  676.10	-1755.59	  340.84
    107.9700	  675.00	  675.63	-1746.12	  340.61
    108.0700	  652.00	  674.40	-1767.89	  340.39
    108.1700	  671.00	  672.82	-1747.31	  340.16
    108.2700	  634.00	  671.28	-1782.77	  339.94
    108.3700	  699.00	  670.10	-1716.59	  339.72
    108.4700	  643.00	  669.52	-1772.01	  339.50
    108.5700	  674.00	  669.67	-1741.16	  339.28
    108.6700	  719.00	  670.60	-1697.09	  339.06
    108.7700	  660.00	  672.23	-1757.72	  338.85
    108.8700	  692.00	  674.40	-1727.89	  338.64
    108.9700	  682.00	  676.84	-1740.33	  338.42
    109.0700	  684.00	  679.20	-1740.69	  338.22
    109.1700	  685.00	  681.10	-1741.59	  338.01
    109.2700	  712.00	  682.10	-1715.59	  337.80
    109.3700	  661.00	  681.83	-1766.32	  337.60
    109.4700	  705.00	  679.97	-1720.46	  337.40
    109.5700	  674.00	  676.36	-1747.84	  337.20
    109.6700	  706.00	  670.97	-1710.46	  337.00
    109.7700	  649.00	  663.93	-1760.42	  336.81
    109.8700	  639.00	  655.48	-1761.97	  336.61
    109.9700	  671.00	  645.95	-1720.44	  336.42
    110.0700	  664.00	  635.67	-1717.16	  336.24
    110.1700	  616.00	  624.98	-1754.47	  336.05
    110.2700	  600.00	  614.21	-1759.70	  335.87
    110.3700	  633.00	  603.63	-1716.12	  335.69
    110.4700	  586.00	  593.51	-1752.99	  335.51
    110.5700	  622.00	  584.03	-1707.52	  335.33
    110.6700	  572.00	  575.36	-1748.85	  335.16
    110.7700	  531.00	  567.61	-1782.10	  334.99
    110.8700	  570.00	  560.86	-1736.34	  334.82
    110.9700	  597.00	  555.12	-1703.61	  334.65
    111.0700	  567.00	  550.41	-1728.89	  334.49
    111.1700	  553.00	  546.68	-1739.17	  334.33
    111.2700	  574.00	  543.89	-1715.38	  334.17
    111.3700	  592.00	  541.97	-1695.46	  334.01
    111.4700	  535.00	  540.83	-1751.32	  333.86
    111.5700	  515.00	  540.40	-1770.89	  333.71
    111.6700	  532.00	  540.58	-1754.07	  333.57
    111.7700	  529.00	  541.29	-1757.78	  333.42
    111.8700	  513.00	  542.46	-1774.95	  333.28
    111.9700	  531.00	  544.02	-1758.50	  333.15
    112.0700	  542.00	  545.90	-1749.39	  333.01
    112.1700	  547.00	  548.06	-1746.55	  332.88
    112.2700	  540.00	  550.46	-1755.95	  332.75
    112.3700	  614.00	  553.09	-1684.58	  332.63
    112.4700	  581.00	  555.93	-1720.42	  332.51
    112.5700	  591.00	  559.00	-1713.48	  332.39
    112.6700	  555.00	  562.31	-1752.80	  332.28
    112.7700	  522.00	  565.91	-1789.39	  332.17
    112.8700	  531.00	  569.84	-1784.33	  332.06
    112.9700	  561.00	  574.17	-1758.66	  331.96
    113.0700	  585.00	  578.98	-1739.47	  331.85
    113.1700	  590.00	  584.38	-1739.87	  331.76
    113.2700	  595.00	  590.49	-1740.98	  331.67
    113.3700	  625.00	  597.49	-1717.98	  331.58
    113.4700	  599.00	  605.58	-1752.07	  331.49
    113.5700	  638.00	  615.03	-1722.52	  331.41
    113.6700	  641.00	  626.18	-1730.67	  331.33
    113.7700	  627.00	  639.45	-1757.93	  331.26
    113.8700	  648.00	  655.37	-1752.86	  331.19
    113.9700	  686.00	  674.59	-1734.08	  331.12
    114.0700	  727.00	  697.93	-1716.42	  331.06
    114.1700	  752.00	  726.33	-1719.82	  331.00
    114.2700	  743.00	  760.94	-1763.43	  330.95
    114.3700	  795.00	  803.10	-1753.59	  330.90
    114.4700	  823.00	  854.34	-1776.82	  330.86
    114.5700	  960.00	  916.38	-1701.87	  330.82
    114.6700	  957.00	  991.13	-1779.62	  330.78
    114.7700	 1096.00	 1080.63	-1730.12	  330.75
    114.8700	 1218.00	 1187.04	-1714.53	  330.72
    114.9700	 1348.00	 1312.51	-1710.00	  330.70
    115.0700	 1491.00	 1459.20	-1713.68	  330.68
    115.1700	 1730.00	 1629.03	-1644.52	  330.67
    115.2700	 1941.00	 1823.67	-1628.16	  330.66
    115.3700	 2100.00	 2044.43	-1689.92	  330.65
    115.4700	 2392.00	 2291.97	-1645.45	  330.65
    115.5700	 2627.00	 2566.37	-1684.85	  330.66
    115.6700	 2987.00	 2866.78	-1625.27	  330.67
    115.7700	 3231.00	 3191.48	-1705.97	  330.69
    115.8700	 3425.00	 3537.79	-1858.28	  330.71
    115.9700	 3989.00	 3901.76	-1658.25	  330.73
    116.0700	 4226.00	 4278.54	-1798.03	  330.76
    116.1700	 4652.00	 4661.96	-1755.44	  330.80
    116.2700	 5020.00	 5044.74	-1770.23	  330.84
    116.3700	 5282.00	 5418.74	-1882.23	  330.89
    116.4700	 5556.00	 5774.64	-1964.12	  330.94
    116.5700	 6226.00	 6102.62	-1622.10	  331.00
    116.6700	 6343.00	 6392.30	-1794.79	  331.06
    116.7700	 6627.00	 6633.48	-1751.96	  331.13
    116.8700	 6704.00	 6816.86	-1858.34	  331.20
    116.9700	 6839.00	 6934.72	-1841.21	  331.28
    117.0700	 6928.00	 6981.95	-1799.44	  331.37
    117.1700	 6856.00	 6956.58	-1846.07	  331.46
    117.2700	 6796.00	 6860.12	-1809.61	  331.55
    117.3700	 6730.00	 6697.27	-1712.75	  331.66
    117.4700	 6490.00	 6475.43	-1730.92	  331.77
    117.5700	 6192.00	 6203.67	-1757.16	  331.88
    117.6700	 5830.00	 5892.09	-1807.58	  332.00
    117.7700	 5494.00	 5551.00	-1802.48	  332.13
    117.8700	 5092.00	 5190.18	-1843.67	  332.26
    117.9700	 4690.00	 4818.94	-1874.43	  332.40
    118.0700	 4477.00	 4445.43	-1713.91	  332.55
    118.1700	 4174.00	 4076.88	-1648.37	  332.70
    118.2700	 3757.00	 3719.44	-1707.92	  332.86
    118.3700	 3555.00	 3377.93	-1568.41	  333.02
    118.4700	 3153.00	 3056.24	-1648.73	  333.19
    118.5700	 2815.00	 2757.02	-1687.51	  333.37
    118.6700	 2592.00	 2482.03	-1635.52	  333.56
    118.7700	 2207.00	 2232.16	-1770.65	  333.75
    118.8700	 2024.00	 2007.41	-1728.90	  333.95
    118.9700	 1806.00	 1807.27	-1746.76	  334.15
    119.0700	 1620.00	 1630.63	-1756.12	  334.36
    119.1700	 1445.00	 1476.07	-1776.55	  334.58
    119.2700	 1349.00	 1341.87	-1738.36	  334.81
    119.3700	 1279.00	 1226.13	-1692.62	  335.04
    119.4700	 1171.00	 1126.94	-1701.43	  335.28
    119.5700	 1008.00	 1042.34	-1779.82	  335.53
    119.6700	  994.00	  970.47	-1721.96	  335.79
    119.7700	  900.00	  909.61	-1755.09	  336.05
    119.8700	  865.00	  858.14	-1738.63	  336.32
    119.9700	  774.00	  814.67	-1786.16	  336.60
    120.0700	  771.00	  777.95	-1752.43	  336.88
    120.1700	  715.00	  746.89	-1777.38	  337.17
    120.2700	  713.00	  720.61	-1753.09	  337.47
    120.3700	  700.00	  698.31	-1743.80	  337.78
    120.4700	  661.00	  679.38	-1763.86	  338.10
    120.5700	  619.00	  663.28	-1789.77	  338.42
    120.6700	  628.00	  649.59	-1767.08	  338.76
    120.7700	  604.00	  637.97	-1779.46	  339.10
    120.8700	  576.00	  628.12	-1797.61	  339.44
    120.9700	  574.00	  619.82	-1791.31	  339.80
    121.0700	  605.00	  612.88	-1753.37	  340.17
    121.1700	  572.00	  607.15	-1780.64	  340.54
    121.2700	  614.00	  602.51	-1734.00	  340.92
    121.3700	  578.00	  598.84	-1766.33	  341.31
    121.4700	  592.00	  596.07	-1749.56	  341.71
    121.5700	  566.00	  594.12	-1773.61	  342.12
    121.6700	  593.00	  592.92	-1745.41	  342.53
    121.7700	  587.00	  592.42	-1750.90	  342.96
    121.8700	  583.00	  592.55	-1755.03	  343.39
    121.9700	  539.00	  593.25	-1799.74	  343.83
    122.0700	  603.00	  594.48	-1736.96	  344.28
    122.1700	  583.00	  596.16	-1758.65	  344.74
    122.2700	  605.00	  598.24	-1738.72	  345.21
    122.3700	  593.00	  600.64	-1753.13	  345.69
    122.4700	  621.00	  603.29	-1727.78	  346.18
    122.5700	  616.00	  606.11	-1735.59	  346.68
    122.6700	  586.00	  609.01	-1768.50	  347.19
    122.7700	  603.00	  611.90	-1754.39	  347.70
    122.8700	  685.00	  614.69	-1675.18	  348.23
    122.9700	  644.00	  617.29	-1718.77	  348.77
    123.0700	  616.00	  619.60	-1749.08	  349.31
    123.1700	  643.00	  621.54	-1724.03	  349.87
    123.2700	  692.00	  623.05	-1676.54	  350.43
    123.3700	  625.00	  624.08	-1744.56	  351.01
    123.4700	  614.00	  624.59	-1756.07	  351.59
    123.5700	  585.00	  624.58	-1785.06	  352.19
    123.6700	  666.00	  624.06	-1703.55	  352.79
    123.7700	  648.00	  623.07	-1720.56	  353.41
    123.8700	  665.00	  621.62	-1702.11	  354.04
    123.9700	  643.00	  619.82	-1722.30	  354.67
    124.0700	  590.00	  617.69	-1773.17	  355.32
    124.1700	  631.00	  615.29	-1729.78	  355.98
    124.2700	  591.00	  612.69	-1767.17	  356.65
    124.3700	  626.00	  609.93	-1729.42	  357.33
    124.4700	  613.00	  607.08	-1739.57	  358.02
    124.5700	  563.00	  604.18	-1786.67	  358.72
    124.6700	  632.00	  601.29	-1714.78	  359.43
    124.7700	  594.00	  598.45	-1749.94	  360.15
    124.8700	  575.00	  595.69	-1766.18	  360.89
    124.9700	  626.00	  471.85	-1591.34	  361.63
    125.0700	  568.00	  472.61	-1745.49	  362.39
    125.1700	  606.00	  473.38	-1745.49	  363.16
    125.2700	  610.00	  474.16	-1745.49	  363.94
    125.3700	  594.00	  474.95	-1745.49	  364.73
    125.4700	  563.00	  475.75	-1745.49	  365.53
    125.5700	  523.00	  476.57	-1745.49	  366.35
    125.6700	  571.00	  477.39	-1745.49	  367.18
    125.7700	  557.00	  478.23	-1745.49	  368.02
    125.8700	  536.00	  479.08	-1745.49	  368.87
    125.9700	  523.00	  479.95	-1745.49	  369.73
    126.0700	  571.00	  480.82	-1745.49	  370.60
    126.1700	  542.00	  481.71	-1745.49	  371.49
    126.2700	  540.00	  482.61	-1745.49	  372.39
    126.3700	  549.00	  483.52	-1745.49	  373.30
    126.4700	  561.00	  484.45	-1745.49	  374.23
    126.5700	  579.00	  485.38	-1745.49	  375.17
    126.6700	  601.00	  486.33	-1745.49	  376.12
    126.7700	  569.00	  487.30	-1745.49	  377.08
    126.8700	  541.00	  488.27	-1745.49	  378.06
    126.9700	  551.00	  489.26	-1745.49	  379.04
    127.0700	  513.00	  490.26	-1745.49	  380.05
    127.1700	  539.00	  491.28	-1745.49	  381.06
    127.2700	  567.00	  492.31	-1745.49	  382.09
    127.3700	  585.00	  493.35	-1745.49	  383.13
    127.4700	  588.00	  494.40	-1745.49	  384.19
    127.5700	  570.00	  495.47	-1745.49	  385.25
    127.6700	  590.00	  496.55	-1745.49	  386.34
    127.7700	  611.00	  497.65	-1745.49	  387.43
    127.8700	  594.00	  498.76	-1745.49	  388.54
    127.9700	  671.00	  499.88	-1745.49	  389.67
    128.0700	  608.00	  501.02	-1745.49	  390.80
    128.1700	  653.00	  502.17	-1745.49	  391.96
    128.2700	  685.00	  503.34	-1745.49	  393.12
    128.3700	  701.00	  504.52	-1745.49	  394.30
    128.4700	  716.00	  505.71	-1745.49	  395.50
    128.5700	    0.00	  506.92	-1745.49	  396.71
    128.6700	    0.00	  508.15	-1745.49	  397.93
     12.3491	        	        	        	        	       0	(  0  0  2)	  0  1
     24.9725	        	        	        	        	       0	(  0  0  4)	  0  1
     28.4007	        	        	        	        	       0	(  1  0  0)	  0  1
     29.1008	        	        	        	        	       0	(  1  0  1)	  0  1
     31.1151	        	        	        	        	       0	(  1  0  2)	  0  1
     34.2358	        	        	        	        	       0	(  1  0  3)	  0  1
     37.9151	        	        	        	        	       0	(  0  0  6)	  0  1
     38.2285	        	        	        	        	       0	(  1  0  4)	  0  1
     42.8967	        	        	        	        	       0	(  1  0  5)	  0  1
     48.1012	        	        	        	        	       0	(  1  0  6)	  0  1
     50.3937	        	        	        	        	       0	(  1  1  0)	  0  1
     51.3854	        	        	        	        	       0	(  0  0  8)	  0  1
     52.1244	        	        	        	        	       0	(  1  1  2)	  0  1
     53.7542	        	        	        	        	       0	(  1  0  7)	  0  1
     57.0945	        	        	        	        	       0	(  1  1  4)	  0  1
     58.9150	        	        	        	        	       0	(  2  0  0)	  0  1
     59.3085	        	        	        	        	       0	(  2  0  1)	  0  1
     59.8097	        	        	        	        	       0	(  1  0  8)	  0  1
     60.4793	        	        	        	        	       0	(  2  0  2)	  0  1
     62.4016	        	        	        	        	       0	(  2  0  3)	  0  1
     64.8244	        	        	        	        	       0	(  1  1  6)	  0  1
     65.0381	        	        	        	        	       0	(  2  0  4)	  0  1
     65.6723	        	        	        	        	       0	(  0  0 10)	  0  1
     66.2541	        	        	        	        	       0	(  1  0  9)	  0  1
     68.3483	        	        	        	        	       0	(  2  0  5)	  0  1
     72.2953	        	        	        	        	       0	(  2  0  6)	  0  1
     73.1020	        	        	        	        	       0	(  1  0 10)	  0  1
     74.9109	        	        	        	        	       0	(  1  1  8)	  0  1
     76.8527	        	        	        	        	       0	(  2  0  7)	  0  1
     80.3965	        	        	        	        	       0	(  1  0 11)	  0  1
     81.2317	        	        	        	        	       0	(  2  1  0)	  0  1
     81.2273	        	        	        	        	       0	(  0  0 12)	  0  1
     81.5735	        	        	        	        	       0	(  2  1  1)	  0  1
     82.0106	        	        	        	        	       0	(  2  0  8)	  0  1
     82.5971	        	        	        	        	       0	(  2  1  2)	  0  1
     84.2981	        	        	        	        	       0	(  2  1  3)	  0  1
     86.6716	        	        	        	        	       0	(  2  1  4)	  0  1
     87.2494	        	        	        	        	       0	(  1  1 10)	  0  1
     87.7817	        	        	        	        	       0	(  2  0  9)	  0  1
     88.2147	        	        	        	        	       0	(  1  0 12)	  0  1
     89.7158	        	        	        	        	       0	(  2  1  5)	  0  1
     93.4366	        	        	        	        	       0	(  2  1  6)	  0  1
     94.2092	        	        	        	        	       0	(  2  0 10)	  0  1
     95.1817	        	        	        	        	       0	(  3  0  0)	  0  1
     95.5213	        	        	        	        	       0	(  3  0  1)	  0  1
     96.5414	        	        	        	        	       0	(  3  0  2)	  0  1
     96.6822	        	        	        	        	       0	(  1  0 13)	  0  1
     97.8548	        	        	        	        	       0	(  2  1  7)	  0  1
     98.2463	        	        	        	        	       0	(  3  0  3)	  0  1
     98.8757	        	        	        	        	       0	(  0  0 14)	  0  1
    100.6463	        	        	        	        	       0	(  3  0  4)	  0  1
    101.3813	        	        	        	        	       0	(  2  0 11)	  0  1
    102.2198	        	        	        	        	       0	(  1  1 12)	  0  1
    103.0146	        	        	        	        	       0	(  2  1  8)	  0  1
    103.7609	        	        	        	        	       0	(  3  0  5)	  0  1
    106.0057	        	        	        	        	       0	(  1  0 14)	  0  1
    107.6265	        	        	        	        	       0	(  3  0  6)	  0  1
    108.9997	        	        	        	        	       0	(  2  1  9)	  0  1
    109.4584	        	        	        	        	       0	(  2  0 12)	  0  1
    112.3072	        	        	        	        	       0	(  3  0  7)	  0  1
    115.9614	        	        	        	        	       0	(  2  1 10)	  0  1
    116.5501	        	        	        	        	       0	(  1  0 15)	  0  1
    117.0454	        	        	        	        	       0	(  2  2  0)	  0  1
    117.9152	        	        	        	        	       0	(  3  0  8)	  0  1
    118.5760	        	        	        	        	       0	(  2  2  2)	  0  1
    118.7355	        	        	        	        	       0	(  2  0 13)	  0  1
    120.5687	        	        	        	        	       0	(  0  0 16)	  0  1
    121.2472	        	        	        	        	       0	(  1  1 14)	  0  1
    123.3133	        	        	        	        	       0	(  2  2  4)	  0  1
    124.1819	        	        	        	        	       0	(  2  1 11)	  0  1
    124.6525	        	        	        	        	       0	(  3  0  9)	  0  1
    125.1865	        	        	        	        	       0	(  3  1  0)	  0  1
    125.6018	        	        	        	        	       0	(  3  1  1)	  0  1
    126.8611	        	        	        	        	       0	(  3  1  2)	  0  1
    129.0079	        	        	        	        	       0	(  3  1  3)	  0  1
    129.0603	        	        	        	        	       0	(  1  0 16)	  0  1
    129.8145	        	        	        	        	       0	(  2  0 14)	  0  1
    131.8679	        	        	        	        	       0	(  2  2  6)	  0  1
    132.1292	        	        	        	        	       0	(  3  1  4)	  0  1
    132.9136	        	        	        	        	       0	(  3  0 10)	  0  1
    134.2479	        	        	        	        	       0	(  2  1 12)	  0  1
    136.3871	        	        	        	        	       0	(  3  1  5)	  0  1
    142.0997	        	        	        	        	       0	(  3  1  6)	  0  1
    143.6196	        	        	        	        	       0	(  3  0 11)	  0  1
    144.2726	        	        	        	        	       0	(  2  0 15)	  0  1
    145.6188	        	        	        	        	       0	(  1  0 17)	  0  1
    146.4114	        	        	        	        	       0	(  2  2  8)	  0  1
    147.7428	        	        	        	        	       0	(  2  1 13)	  0  1
    150.0004	        	        	        	        	       0	(  3  1  7)	  0  1
    150.8718	        	        	        	        	       0	(  1  1 16)	  0  1
    155.6085	        	        	        	        	       0	(  0  0 18)	  0  1
    160.2929	        	        	        	        	       0	(  4  0  0)	  0  1
    160.2797	        	        	        	        	       0	(  3  0 12)	  0  1
    161.3278	        	        	        	        	       0	(  4  0  1)	  0  1
    162.7401	        	        	        	        	       0	(  3  1  8)	  0  1
    164.8385	        	        	        	        	       0	(  4  0  2)	  0  1
    174.2923	        	        	        	        	       0	(  4  0  3)	  0  1
    174.7273	        	        	        	        	       0	(  2  0 16)	  0  1
