MSG Master    CELL:    5.91670   5.91670  23.26583   90.0000   90.0000  120.0000   SPGR: P 63/m m c             TEMP:   1022.75
  1   1280     2.52000     0.00000    -0.12384     0.00000     0.00000    0
    99     0     2
       0.00000      10.00000
     125.00000     130.00000
 2Theta	Yobs	Ycal	Yobs-Ycal	Backg	Posr	(hkl)	K
      0.7700	    0.00	  527.22	-1707.55	  411.72
      0.8700	    0.00	  528.14	-1707.55	  412.64
      0.9700	   45.00	  529.05	-1707.55	  413.55
      1.0700	   39.00	  529.95	-1707.55	  414.45
      1.1700	   41.00	  530.83	-1707.55	  415.33
      1.2700	   47.00	  531.70	-1707.55	  416.20
      1.3700	   42.00	  532.56	-1707.55	  417.06
      1.4700	   91.00	  533.41	-1707.55	  417.91
      1.5700	  278.00	  534.25	-1707.55	  418.74
      1.6700	  431.00	  535.07	-1707.55	  419.57
      1.7700	  563.00	  535.88	-1707.55	  420.38
      1.8700	  652.00	  536.68	-1707.55	  421.18
      1.9700	  701.00	  537.47	-1707.55	  421.96
      2.0700	  752.00	  538.24	-1707.55	  422.74
      2.1700	  766.00	  539.01	-1707.55	  423.50
      2.2700	  746.00	  539.76	-1707.55	  424.26
      2.3700	  772.00	  540.50	-1707.55	  425.00
      2.4700	  727.00	  541.23	-1707.55	  425.73
      2.5700	  729.00	  541.95	-1707.55	  426.44
      2.6700	  685.00	  542.65	-1707.55	  427.15
      2.7700	  645.00	  543.35	-1707.55	  427.85
      2.8700	  672.00	  544.03	-1707.55	  428.53
      2.9700	  591.00	  544.70	-1707.55	  429.20
      3.0700	  590.00	  545.37	-1707.55	  429.87
      3.1700	  577.00	  546.02	-1707.55	  430.52
      3.2700	  672.00	  546.66	-1707.55	  431.16
      3.3700	  718.00	  547.29	-1707.55	  431.79
      3.4700	  788.00	  547.91	-1707.55	  432.41
      3.5700	  838.00	  548.52	-1707.55	  433.01
      3.6700	  948.00	  549.11	-1707.55	  433.61
      3.7700	  963.00	  549.70	-1707.55	  434.20
      3.8700	 1008.00	  550.28	-1707.55	  434.78
      3.9700	 1103.00	  550.85	-1707.55	  435.34
      4.0700	 1103.00	  551.40	-1707.55	  435.90
      4.1700	 1055.00	  551.95	-1707.55	  436.45
      4.2700	 1181.00	  552.48	-1707.55	  436.98
      4.3700	 1120.00	  553.01	-1707.55	  437.51
      4.4700	 1116.00	  553.53	-1707.55	  438.03
      4.5700	 1047.00	  554.03	-1707.55	  438.53
      4.6700	 1044.00	  554.53	-1707.55	  439.03
      4.7700	 1012.00	  555.02	-1707.55	  439.52
      4.8700	  965.00	  555.50	-1707.55	  439.99
      4.9700	  944.00	  555.96	-1707.55	  440.46
      5.0700	  964.00	  556.42	-1707.55	  440.92
      5.1700	  945.00	  556.87	-1707.55	  441.37
      5.2700	  928.00	  557.31	-1707.55	  441.81
      5.3700	  926.00	  557.74	-1707.55	  442.24
      5.4700	  870.00	  558.16	-1707.55	  442.66
      5.5700	  903.00	  558.57	-1707.55	  443.07
      5.6700	  866.00	  558.98	-1707.55	  443.48
      5.7700	  866.00	  559.37	-1707.55	  443.87
      5.8700	  801.00	  559.76	-1707.55	  444.25
      5.9700	  889.00	  560.13	-1707.55	  444.63
      6.0700	  751.00	  560.50	-1707.55	  445.00
      6.1700	  770.00	  560.86	-1707.55	  445.36
      6.2700	  775.00	  561.21	-1707.55	  445.71
      6.3700	  783.00	  561.55	-1707.55	  446.05
      6.4700	  721.00	  561.88	-1707.55	  446.38
      6.5700	  813.00	  562.21	-1707.55	  446.71
      6.6700	  725.00	  562.52	-1707.55	  447.02
      6.7700	  732.00	  562.83	-1707.55	  447.33
      6.8700	  770.00	  563.13	-1707.55	  447.63
      6.9700	  691.00	  563.42	-1707.55	  447.92
      7.0700	  702.00	  563.71	-1707.55	  448.21
      7.1700	  664.00	  563.98	-1707.55	  448.48
      7.2700	  681.00	  564.25	-1707.55	  448.75
      7.3700	  667.00	  564.51	-1707.55	  449.01
      7.4700	  675.00	  564.76	-1707.55	  449.26
      7.5700	  659.00	  565.00	-1707.55	  449.50
      7.6700	  677.00	  565.24	-1707.55	  449.74
      7.7700	  668.00	  565.47	-1707.55	  449.97
      7.8700	  652.00	  565.69	-1707.55	  450.19
      7.9700	  647.00	  565.90	-1707.55	  450.40
      8.0700	  629.00	  566.11	-1707.55	  450.61
      8.1700	  678.00	  566.31	-1707.55	  450.81
      8.2700	  645.00	  566.50	-1707.55	  451.00
      8.3700	  663.00	  566.68	-1707.55	  451.18
      8.4700	  586.00	  566.86	-1707.55	  451.36
      8.5700	  622.00	  567.03	-1707.55	  451.53
      8.6700	  587.00	  567.19	-1707.55	  451.69
      8.7700	  660.00	  567.35	-1707.55	  451.84
      8.8700	  648.00	  567.49	-1707.55	  451.99
      8.9700	  619.00	  567.64	-1707.55	  452.13
      9.0700	  644.00	  567.77	-1707.55	  452.27
      9.1700	  613.00	  567.90	-1707.55	  452.40
      9.2700	  624.00	  568.02	-1707.55	  452.52
      9.3700	  592.00	  568.13	-1707.55	  452.63
      9.4700	  583.00	  568.24	-1707.55	  452.74
      9.5700	  595.00	  568.34	-1707.55	  452.84
      9.6700	  580.00	  568.44	-1707.55	  452.94
      9.7700	  599.00	  568.53	-1707.55	  453.02
      9.8700	  574.00	  568.61	-1707.55	  453.11
      9.9700	  569.00	  568.68	-1707.55	  453.18
     10.0700	  617.00	  570.09	-1660.65	  453.25
     10.1700	  545.00	  570.31	-1732.86	  453.32
     10.2700	  629.00	  570.55	-1649.10	  453.37
     10.3700	  595.00	  570.84	-1683.39	  453.42
     10.4700	  611.00	  571.21	-1667.76	  453.47
     10.5700	  613.00	  571.72	-1666.28	  453.51
     10.6700	  591.00	  572.48	-1689.03	  453.54
     10.7700	  595.00	  573.57	-1686.12	  453.57
     10.8700	  586.00	  575.07	-1696.62	  453.59
     10.9700	  597.00	  576.99	-1687.55	  453.61
     11.0700	  540.00	  579.33	-1746.88	  453.62
     11.1700	  607.00	  582.07	-1682.63	  453.62
     11.2700	  575.00	  585.28	-1717.83	  453.62
     11.3700	  578.00	  589.02	-1718.57	  453.61
     11.4700	  650.00	  593.44	-1651.00	  453.60
     11.5700	  583.00	  598.78	-1723.34	  453.58
     11.6700	  622.00	  605.42	-1690.97	  453.56
     11.7700	  624.00	  613.89	-1697.44	  453.53
     11.8700	  614.00	  624.77	-1718.33	  453.50
     11.9700	  614.00	  637.98	-1731.53	  453.46
     12.0700	  677.00	  651.51	-1682.07	  453.42
     12.1700	  668.00	  660.36	-1699.91	  453.37
     12.2700	  655.00	  657.19	-1709.74	  453.32
     12.3700	  654.00	  639.56	-1693.11	  453.26
     12.4700	  646.00	  616.69	-1678.24	  453.19
     12.5700	  611.00	  598.03	-1694.59	  453.12
     12.6700	  576.00	  586.06	-1717.62	  453.05
     12.7700	  595.00	  579.42	-1691.98	  452.97
     12.8700	  555.00	  575.94	-1728.49	  452.89
     12.9700	  519.00	  573.99	-1762.54	  452.80
     13.0700	  570.00	  572.75	-1710.30	  452.71
     13.1700	  571.00	  571.85	-1708.41	  452.61
     13.2700	  565.00	  571.16	-1713.71	  452.51
     13.3700	  617.00	  570.60	-1661.15	  452.41
     13.4700	  547.00	  570.13	-1730.69	  452.30
     13.5700	  620.00	  569.73	-1657.29	  452.18
     13.6700	  498.00	  569.38	-1778.94	  452.07
     13.7700	  596.00	  569.07	-1680.62	  451.94
     13.8700	  556.00	  568.78	-1720.34	  451.81
     13.9700	  558.00	  568.52	-1718.07	  451.68
     14.0700	  573.00	  568.27	-1702.82	  451.55
     14.1700	  591.00	  568.03	-1684.58	  451.41
     14.2700	  571.00	  567.80	-1704.36	  451.27
     14.3700	  525.00	  567.58	-1750.14	  451.12
     14.4700	  558.00	  567.37	-1716.92	  450.97
     14.5700	  566.00	  567.15	-1708.71	  450.81
     14.6700	  585.00	  566.95	-1689.50	  450.65
     14.7700	  564.00	  566.74	-1710.29	  450.49
     14.8700	  542.00	  566.56	-1732.12	  450.32
     14.9700	  539.00	  566.36	-1734.91	  450.15
     15.0700	  544.00	  566.15	-1729.71	  449.98
     15.1700	  567.00	  565.95	-1706.50	  449.80
     15.2700	  528.00	  565.74	-1745.29	  449.62
     15.3700	  535.00	  565.53	-1738.08	  449.43
     15.4700	  554.00	  565.32	-1718.88	  449.25
     15.5700	  515.00	  565.11	-1757.67	  449.05
     15.6700	  568.00	  564.90	-1704.45	  448.86
     15.7700	  572.00	  564.68	-1700.24	  448.66
     15.8700	  548.00	  564.47	-1724.02	  448.46
     15.9700	  530.00	  564.25	-1741.80	  448.25
     16.0700	  524.00	  564.03	-1747.58	  448.05
     16.1700	  565.00	  563.81	-1706.36	  447.84
     16.2700	  543.00	  563.58	-1728.14	  447.62
     16.3700	  569.00	  563.36	-1701.91	  447.40
     16.4700	  560.00	  563.13	-1710.68	  447.18
     16.5700	  542.00	  562.90	-1728.45	  446.96
     16.6700	  521.00	  562.66	-1749.22	  446.73
     16.7700	  582.00	  562.43	-1687.98	  446.50
     16.8700	  588.00	  562.19	-1681.74	  446.27
     16.9700	  551.00	  561.95	-1718.50	  446.04
     17.0700	  577.00	  561.70	-1692.26	  445.80
     17.1700	  534.00	  561.46	-1735.01	  445.56
     17.2700	  506.00	  561.21	-1762.77	  445.32
     17.3700	  538.00	  560.96	-1730.52	  445.07
     17.4700	  567.00	  560.71	-1701.26	  444.82
     17.5700	  569.00	  560.46	-1699.01	  444.57
     17.6700	  548.00	  560.20	-1719.75	  444.32
     17.7700	  505.00	  559.94	-1762.50	  444.06
     17.8700	  576.00	  559.68	-1691.23	  443.80
     17.9700	  604.00	  559.52	-1663.08	  443.54
     18.0700	  536.00	  559.26	-1730.82	  443.28
     18.1700	  534.00	  559.00	-1732.55	  443.01
     18.2700	  499.00	  558.73	-1767.28	  442.75
     18.3700	  539.00	  558.46	-1727.02	  442.48
     18.4700	  553.00	  558.19	-1712.75	  442.20
     18.5700	  596.00	  558.01	-1669.56	  441.93
     18.6700	  529.00	  557.73	-1736.29	  441.65
     18.7700	  578.00	  557.46	-1687.01	  441.37
     18.8700	  552.00	  557.18	-1712.74	  441.09
     18.9700	  572.00	  556.91	-1692.46	  440.81
     19.0700	  534.00	  556.63	-1730.18	  440.53
     19.1700	  487.00	  556.35	-1776.90	  440.24
     19.2700	  548.00	  556.06	-1715.62	  439.95
     19.3700	  582.00	  555.78	-1681.33	  439.66
     19.4700	  557.00	  555.50	-1706.05	  439.37
     19.5700	  571.00	  555.21	-1691.76	  439.07
     19.6700	  545.00	  554.92	-1717.48	  438.78
     19.7700	  529.00	  554.63	-1733.19	  438.48
     19.8700	  520.00	  554.34	-1741.90	  438.18
     19.9700	  542.00	  554.05	-1719.61	  437.88
     20.0700	  570.00	  553.76	-1691.32	  437.58
     20.1700	  514.00	  553.47	-1747.02	  437.27
     20.2700	  570.00	  553.17	-1690.73	  436.97
     20.3700	  552.00	  552.91	-1708.47	  436.66
     20.4700	  559.00	  552.62	-1701.17	  436.35
     20.5700	  576.00	  552.32	-1683.88	  436.04
     20.6700	  550.00	  552.03	-1709.58	  435.73
     20.7700	  518.00	  551.73	-1741.29	  435.42
     20.8700	  549.00	  551.44	-1709.99	  435.10
     20.9700	  536.00	  551.14	-1722.69	  434.79
     21.0700	  567.00	  550.84	-1691.40	  434.47
     21.1700	  541.00	  550.55	-1717.10	  434.15
     21.2700	  587.00	  550.25	-1670.81	  433.83
     21.3700	  557.00	  549.96	-1700.51	  433.51
     21.4700	  566.00	  549.66	-1691.22	  433.19
     21.5700	  534.00	  549.37	-1722.92	  432.87
     21.6700	  588.00	  549.08	-1668.63	  432.54
     21.7700	  579.00	  548.79	-1677.34	  432.22
     21.8700	  530.00	  548.50	-1726.05	  431.89
     21.9700	  547.00	  548.17	-1708.72	  431.56
     22.0700	  555.00	  547.88	-1700.44	  431.23
     22.1700	  602.00	  547.60	-1653.16	  430.91
     22.2700	  555.00	  547.33	-1699.88	  430.58
     22.3700	  544.00	  547.06	-1710.61	  430.24
     22.4700	  540.00	  546.79	-1714.34	  429.91
     22.5700	  567.00	  546.53	-1687.08	  429.58
     22.6700	  573.00	  546.28	-1680.83	  429.25
     22.7700	  506.00	  546.03	-1747.59	  428.91
     22.8700	  539.00	  545.80	-1714.36	  428.58
     22.9700	  548.00	  545.59	-1705.14	  428.24
     23.0700	  551.00	  545.54	-1702.09	  427.91
     23.1700	  550.00	  545.36	-1702.92	  427.57
     23.2700	  562.00	  545.22	-1690.77	  427.23
     23.3700	  541.00	  545.11	-1711.66	  426.89
     23.4700	  538.00	  545.05	-1714.60	  426.55
     23.5700	  594.00	  545.05	-1658.61	  426.22
     23.6700	  542.00	  545.16	-1710.71	  425.88
     23.7700	  595.00	  545.42	-1657.97	  425.54
     23.8700	  554.00	  545.95	-1699.50	  425.19
     23.9700	  518.00	  546.97	-1736.52	  424.85
     24.0700	  540.00	  548.85	-1716.40	  424.51
     24.1700	  545.00	  552.15	-1714.70	  424.17
     24.2700	  577.00	  557.57	-1688.12	  423.83
     24.3700	  597.00	  565.82	-1676.37	  423.49
     24.4700	  575.00	  577.36	-1709.92	  423.14
     24.5700	  611.00	  591.79	-1688.34	  422.80
     24.6700	  605.00	  606.72	-1709.28	  422.46
     24.7700	  633.00	  616.95	-1691.51	  422.11
     24.8700	  636.00	  615.60	-1687.16	  421.77
     24.9700	  610.00	  601.04	-1698.60	  421.43
     25.0700	  574.00	  581.54	-1715.09	  421.08
     25.1700	  572.00	  565.10	-1700.65	  420.74
     25.2700	  553.00	  554.12	-1708.68	  420.39
     25.3700	  546.00	  547.80	-1709.35	  420.05
     25.4700	  576.00	  544.40	-1675.95	  419.71
     25.5700	  562.00	  542.51	-1688.06	  419.36
     25.6700	  545.00	  541.32	-1703.88	  419.02
     25.7700	  566.00	  540.50	-1682.05	  418.67
     25.8700	  556.00	  539.88	-1691.43	  418.33
     25.9700	  573.00	  539.41	-1673.96	  417.98
     26.0700	  584.00	  539.06	-1662.61	  417.64
     26.1700	  574.00	  538.81	-1672.36	  417.30
     26.2700	  529.00	  538.65	-1717.20	  416.95
     26.3700	  576.00	  538.58	-1670.13	  416.61
     26.4700	  576.00	  538.60	-1670.16	  416.27
     26.5700	  572.00	  538.73	-1674.29	  415.92
     26.6700	  520.00	  538.99	-1726.54	  415.58
     26.7700	  526.00	  539.38	-1720.94	  415.24
     26.8700	  553.00	  539.96	-1694.51	  414.90
     26.9700	  541.00	  540.76	-1707.32	  414.55
     27.0700	  544.00	  541.87	-1705.43	  414.21
     27.1700	  572.00	  543.42	-1678.97	  413.87
     27.2700	  554.00	  545.63	-1699.19	  413.53
     27.3700	  533.00	  549.00	-1723.55	  413.19
     27.4700	  574.00	  554.45	-1688.00	  412.85
     27.5700	  523.00	  563.68	-1748.23	  412.51
     27.6700	  552.00	  579.42	-1734.97	  412.17
     27.7700	  591.00	  605.32	-1721.87	  411.83
     27.8700	  602.00	  644.80	-1750.35	  411.49
     27.9700	  665.00	  698.61	-1741.16	  411.16
     28.0700	  786.00	  761.52	-1683.07	  410.82
     28.1700	  864.00	  819.16	-1662.71	  410.48
     28.2700	  919.00	  848.42	-1636.97	  410.15
     28.3700	  906.00	  831.94	-1633.49	  409.81
     28.4700	  855.00	  786.51	-1639.07	  409.48
     28.5700	  743.00	  749.34	-1713.89	  409.14
     28.6700	  696.00	  740.31	-1751.86	  408.81
     28.7700	  716.00	  757.35	-1748.91	  408.48
     28.8700	  816.00	  782.96	-1674.51	  408.14
     28.9700	  814.00	  790.89	-1684.45	  407.81
     29.0700	  777.00	  761.31	-1691.86	  407.48
     29.1700	  722.00	  703.78	-1689.33	  407.15
     29.2700	  656.00	  645.12	-1696.67	  406.82
     29.3700	  639.00	  600.54	-1669.09	  406.49
     29.4700	  575.00	  572.16	-1704.72	  406.17
     29.5700	  585.00	  556.08	-1678.64	  405.84
     29.6700	  587.00	  547.35	-1667.91	  405.51
     29.7700	  606.00	  542.41	-1643.96	  405.19
     29.8700	  593.00	  539.36	-1653.92	  404.86
     29.9700	  558.00	  537.42	-1686.97	  404.54
     30.0700	  563.00	  536.34	-1680.89	  404.22
     30.1700	  563.00	  536.24	-1680.80	  403.90
     30.2700	  559.00	  537.47	-1686.03	  403.57
     30.3700	  561.00	  540.87	-1687.42	  403.26
     30.4700	  537.00	  547.63	-1718.19	  402.94
     30.5700	  588.00	  559.01	-1678.57	  402.62
     30.6700	  614.00	  575.32	-1668.87	  402.30
     30.7700	  552.00	  594.70	-1750.26	  401.99
     30.8700	  626.00	  612.22	-1693.78	  401.67
     30.9700	  571.00	  620.04	-1756.59	  401.36
     31.0700	  588.00	  611.74	-1731.29	  401.04
     31.1700	  580.00	  590.94	-1718.49	  400.73
     31.2700	  542.00	  568.19	-1733.74	  400.42
     31.3700	  553.00	  550.16	-1704.71	  400.11
     31.4700	  488.00	  538.30	-1757.86	  399.80
     31.5700	  505.00	  531.43	-1733.99	  399.50
     31.6700	  512.00	  527.69	-1723.24	  399.19
     31.7700	  548.00	  525.60	-1685.15	  398.89
     31.8700	  518.00	  524.32	-1713.87	  398.58
     31.9700	  528.00	  523.47	-1703.03	  398.28
     32.0700	  491.00	  522.90	-1739.45	  397.98
     32.1700	  544.00	  522.53	-1686.08	  397.68
     32.2700	  541.00	  522.35	-1688.90	  397.38
     32.3700	  533.00	  522.34	-1696.89	  397.08
     32.4700	  552.00	  522.51	-1678.07	  396.79
     32.5700	  532.00	  522.89	-1698.44	  396.49
     32.6700	  576.00	  523.50	-1655.05	  396.20
     32.7700	  533.00	  524.40	-1698.96	  395.90
     32.8700	  559.00	  525.68	-1674.23	  395.61
     32.9700	  518.00	  527.47	-1717.03	  395.32
     33.0700	  517.00	  530.03	-1720.59	  395.03
     33.1700	  562.00	  533.89	-1679.44	  394.75
     33.2700	  573.00	  540.14	-1674.69	  394.46
     33.3700	  584.00	  551.00	-1674.56	  394.18
     33.4700	  583.00	  570.45	-1695.00	  393.89
     33.5700	  559.00	  604.37	-1752.93	  393.61
     33.6700	  640.00	  659.16	-1726.72	  393.33
     33.7700	  739.00	  737.38	-1705.93	  393.05
     33.8700	  870.00	  831.46	-1669.01	  392.77
     33.9700	 1011.00	  919.33	-1615.89	  392.50
     34.0700	 1046.00	  965.80	-1627.36	  392.22
     34.1700	  972.00	  940.32	-1675.88	  391.95
     34.2700	  901.00	  853.20	-1659.75	  391.68
     34.3700	  777.00	  749.36	-1679.91	  391.40
     34.4700	  672.00	  662.05	-1697.60	  391.14
     34.5700	  575.00	  601.72	-1734.27	  390.87
     34.6700	  559.00	  565.42	-1713.98	  390.60
     34.7700	  570.00	  545.36	-1682.92	  390.34
     34.8700	  567.00	  534.37	-1674.93	  390.07
     34.9700	  523.00	  527.85	-1712.40	  389.81
     35.0700	  488.00	  523.51	-1743.07	  389.55
     35.1700	  489.00	  520.33	-1738.88	  389.29
     35.2700	  506.00	  517.84	-1719.40	  389.04
     35.3700	  494.00	  515.84	-1729.39	  388.78
     35.4700	  508.00	  514.18	-1713.74	  388.53
     35.5700	  520.00	  512.79	-1700.35	  388.27
     35.6700	  514.00	  511.61	-1705.16	  388.02
     35.7700	  493.00	  510.59	-1725.14	  387.77
     35.8700	  561.00	  509.69	-1656.25	  387.53
     35.9700	  480.00	  509.36	-1736.91	  387.28
     36.0700	  520.00	  508.67	-1696.22	  387.04
     36.1700	  512.00	  508.04	-1703.60	  386.79
     36.2700	  492.00	  507.49	-1723.04	  386.55
     36.3700	  532.00	  506.99	-1682.54	  386.31
     36.4700	  531.00	  506.54	-1683.09	  386.08
     36.5700	  478.00	  506.15	-1735.70	  385.84
     36.6700	  491.00	  505.82	-1722.37	  385.60
     36.7700	  523.00	  505.54	-1690.10	  385.37
     36.8700	  495.00	  505.37	-1717.92	  385.14
     36.9700	  528.00	  505.36	-1684.92	  384.91
     37.0700	  477.00	  505.65	-1736.20	  384.68
     37.1700	  497.00	  506.44	-1717.00	  384.46
     37.2700	  564.00	  508.00	-1651.56	  384.23
     37.3700	  497.00	  510.52	-1721.07	  384.01
     37.4700	  483.00	  513.89	-1738.44	  383.79
     37.5700	  551.00	  517.50	-1674.05	  383.57
     37.6700	  603.00	  520.16	-1624.72	  383.35
     37.7700	  525.00	  520.48	-1703.03	  383.13
     37.8700	  530.00	  518.02	-1695.57	  382.92
     37.9700	  511.00	  513.98	-1710.53	  382.71
     38.0700	  519.00	  509.88	-1698.44	  382.50
     38.1700	  486.00	  506.51	-1728.07	  382.29
     38.2700	  531.00	  504.07	-1680.62	  382.08
     38.3700	  498.00	  502.43	-1711.99	  381.87
     38.4700	  502.00	  501.54	-1707.10	  381.67
     38.5700	  486.00	  500.84	-1722.39	  381.47
     38.6700	  517.00	  500.23	-1690.78	  381.27
     38.7700	  514.00	  499.83	-1693.39	  381.07
     38.8700	  494.00	  499.50	-1713.06	  380.87
     38.9700	  532.00	  499.21	-1674.77	  380.68
     39.0700	  495.00	  498.95	-1711.51	  380.48
     39.1700	  510.00	  498.71	-1696.27	  380.29
     39.2700	  518.00	  498.49	-1688.04	  380.10
     39.3700	  461.00	  498.28	-1744.83	  379.91
     39.4700	  520.00	  498.00	-1685.55	  379.73
     39.5700	  501.00	  497.81	-1704.37	  379.54
     39.6700	  457.00	  497.64	-1748.19	  379.36
     39.7700	  502.00	  497.47	-1703.03	  379.18
     39.8700	  481.00	  497.32	-1723.88	  379.00
     39.9700	  478.00	  497.18	-1726.73	  378.82
     40.0700	  534.00	  497.05	-1670.60	  378.65
     40.1700	  497.00	  496.93	-1707.48	  378.47
     40.2700	  520.00	  496.82	-1684.37	  378.30
     40.3700	  495.00	  496.72	-1709.28	  378.13
     40.4700	  468.00	  496.64	-1736.20	  377.96
     40.5700	  458.00	  496.58	-1746.13	  377.80
     40.6700	  498.00	  496.53	-1706.08	  377.63
     40.7700	  485.00	  496.50	-1719.05	  377.47
     40.8700	  519.00	  496.50	-1685.05	  377.31
     40.9700	  459.00	  497.00	-1745.55	  377.15
     41.0700	  499.00	  497.06	-1705.62	  376.99
     41.1700	  495.00	  497.17	-1709.73	  376.84
     41.2700	  473.00	  497.33	-1731.89	  376.68
     41.3700	  495.00	  497.56	-1710.11	  376.53
     41.4700	  490.00	  497.87	-1715.43	  376.38
     41.5700	  491.00	  498.31	-1714.86	  376.23
     41.6700	  494.00	  498.93	-1712.49	  376.09
     41.7700	  469.00	  499.83	-1738.39	  375.94
     41.8700	  472.00	  501.36	-1736.91	  375.80
     41.9700	  500.00	  504.01	-1711.56	  375.66
     42.0700	  504.00	  508.72	-1712.28	  375.52
     42.1700	  499.00	  516.85	-1725.40	  375.38
     42.2700	  541.00	  529.82	-1696.37	  375.25
     42.3700	  486.00	  548.40	-1769.95	  375.11
     42.4700	  491.00	  571.32	-1787.88	  374.98
     42.5700	  619.00	  594.54	-1683.09	  374.85
     42.6700	  579.00	  610.61	-1739.17	  374.72
     42.7700	  603.00	  612.09	-1716.65	  374.60
     42.8700	  577.00	  597.61	-1728.16	  374.47
     42.9700	  568.00	  574.24	-1713.80	  374.35
     43.0700	  523.00	  550.35	-1734.91	  374.23
     43.1700	  544.00	  530.81	-1694.36	  374.11
     43.2700	  477.00	  517.03	-1747.59	  373.99
     43.3700	  504.00	  508.37	-1711.93	  373.88
     43.4700	  436.00	  503.55	-1775.10	  373.77
     43.5700	  446.00	  500.72	-1762.27	  373.65
     43.6700	  498.00	  499.06	-1708.61	  373.54
     43.7700	  504.00	  498.00	-1701.56	  373.44
     43.8700	  536.00	  497.26	-1668.82	  373.33
     43.9700	  475.00	  496.71	-1729.26	  373.23
     44.0700	  518.00	  496.28	-1685.84	  373.12
     44.1700	  512.00	  495.95	-1691.50	  373.02
     44.2700	  567.00	  495.68	-1636.24	  372.92
     44.3700	  502.00	  495.48	-1701.03	  372.83
     44.4700	  477.00	  495.32	-1725.87	  372.73
     44.5700	  544.00	  495.20	-1658.75	  372.64
     44.6700	  493.00	  495.12	-1709.67	  372.55
     44.7700	  492.00	  495.26	-1710.82	  372.46
     44.8700	  488.00	  495.25	-1714.80	  372.37
     44.9700	  461.00	  495.25	-1741.81	  372.28
     45.0700	  488.00	  495.29	-1714.84	  372.20
     45.1700	  512.00	  495.35	-1690.90	  372.12
     45.2700	  497.00	  495.43	-1705.98	  372.04
     45.3700	  501.00	  495.39	-1701.95	  371.96
     45.4700	  483.00	  495.53	-1720.08	  371.88
     45.5700	  489.00	  495.69	-1714.25	  371.80
     45.6700	  494.00	  495.88	-1709.44	  371.73
     45.7700	  494.00	  496.10	-1709.66	  371.66
     45.8700	  465.00	  496.36	-1738.91	  371.59
     45.9700	  509.00	  496.69	-1695.25	  371.52
     46.0700	  491.00	  497.02	-1713.58	  371.45
     46.1700	  495.00	  497.40	-1709.96	  371.39
     46.2700	  487.00	  497.83	-1718.39	  371.33
     46.3700	  489.00	  498.33	-1716.88	  371.26
     46.4700	  478.00	  498.96	-1728.51	  371.20
     46.5700	  474.00	  499.61	-1733.17	  371.15
     46.6700	  484.00	  500.41	-1723.97	  371.09
     46.7700	  518.00	  501.34	-1690.89	  371.04
     46.8700	  492.00	  502.50	-1718.05	  370.98
     46.9700	  476.00	  504.06	-1735.61	  370.93
     47.0700	  530.00	  506.34	-1683.89	  370.88
     47.1700	  546.00	  509.89	-1671.44	  370.84
     47.2700	  520.00	  515.55	-1703.10	  370.79
     47.3700	  543.00	  524.36	-1688.91	  370.75
     47.4700	  513.00	  537.17	-1731.73	  370.70
     47.5700	  563.00	  554.10	-1698.66	  370.66
     47.6700	  563.00	  573.75	-1718.30	  370.63
     47.7700	  574.00	  592.63	-1726.19	  370.59
     47.8700	  597.00	  605.39	-1715.94	  370.55
     47.9700	  594.00	  607.09	-1720.64	  370.52
     48.0700	  597.00	  597.45	-1708.00	  370.49
     48.1700	  583.00	  581.44	-1706.00	  370.46
     48.2700	  560.00	  564.84	-1712.39	  370.43
     48.3700	  538.00	  551.28	-1720.83	  370.40
     48.4700	  522.00	  542.21	-1727.77	  370.38
     48.5700	  576.00	  537.64	-1669.19	  370.35
     48.6700	  568.00	  536.80	-1676.35	  370.33
     48.7700	  513.00	  538.81	-1733.37	  370.31
     48.8700	  502.00	  543.43	-1748.98	  370.29
     48.9700	  514.00	  549.76	-1743.32	  370.27
     49.0700	  549.00	  558.57	-1717.12	  370.26
     49.1700	  524.00	  571.11	-1754.66	  370.24
     49.2700	  558.00	  590.18	-1739.73	  370.23
     49.3700	  583.00	  621.28	-1745.83	  370.22
     49.4700	  594.00	  673.96	-1787.51	  370.21
     49.5700	  687.00	  762.47	-1783.03	  370.20
     49.6700	  800.00	  904.11	-1811.67	  370.20
     49.7700	 1085.00	 1113.64	-1736.19	  370.19
     49.8700	 1414.00	 1393.90	-1687.45	  370.19
     49.9700	 1729.00	 1724.48	-1703.04	  370.19
     50.0700	 2098.00	 2052.08	-1661.63	  370.19
     50.1700	 2375.00	 2289.86	-1622.41	  370.19
     50.2700	 2408.00	 2346.93	-1646.48	  370.19
     50.3700	 2229.00	 2195.37	-1673.92	  370.20
     50.4700	 2014.00	 1901.17	-1594.72	  370.21
     50.5700	 1452.00	 1564.26	-1819.82	  370.21
     50.6700	 1130.00	 1258.18	-1835.73	  370.22
     50.7700	  900.00	 1018.95	-1826.50	  370.23
     50.8700	  752.00	  853.37	-1808.92	  370.25
     50.9700	  705.00	  750.00	-1752.56	  370.26
     51.0700	  633.00	  689.64	-1764.20	  370.28
     51.1700	  613.00	  653.53	-1748.08	  370.29
     51.2700	  596.00	  628.28	-1739.83	  370.31
     51.3700	  570.00	  607.42	-1744.98	  370.33
     51.4700	  599.00	  589.61	-1698.17	  370.35
     51.5700	  608.00	  574.46	-1674.01	  370.38
     51.6700	  524.00	  562.47	-1746.02	  370.40
     51.7700	  526.00	  553.60	-1735.15	  370.43
     51.8700	  526.00	  547.47	-1729.02	  370.45
     51.9700	  589.00	  543.55	-1662.10	  370.48
     52.0700	  553.00	  541.35	-1695.90	  370.51
     52.1700	  556.00	  540.52	-1692.07	  370.54
     52.2700	  572.00	  540.92	-1676.47	  370.58
     52.3700	  555.00	  542.68	-1695.24	  370.61
     52.4700	  544.00	  546.34	-1709.89	  370.65
     52.5700	  543.00	  553.04	-1717.60	  370.68
     52.6700	  614.00	  565.01	-1658.56	  370.72
     52.7700	  620.00	  585.84	-1673.39	  370.76
     52.8700	  674.00	  620.58	-1654.13	  370.80
     52.9700	  701.00	  674.96	-1681.52	  370.84
     53.0700	  807.00	  753.39	-1653.94	  370.89
     53.1700	  874.00	  856.04	-1689.60	  370.93
     53.2700	  958.00	  975.57	-1725.13	  370.98
     53.3700	 1096.00	 1094.33	-1705.88	  371.03
     53.4700	 1184.00	 1184.13	-1707.68	  371.08
     53.5700	 1290.00	 1214.27	-1631.83	  371.13
     53.6700	 1160.00	 1171.85	-1719.40	  371.18
     53.7700	 1017.00	 1074.05	-1764.61	  371.23
     53.8700	  922.00	  953.14	-1738.69	  371.28
     53.9700	  844.00	  835.98	-1699.53	  371.34
     54.0700	  718.00	  738.09	-1727.65	  371.40
     54.1700	  612.00	  665.07	-1760.63	  371.45
     54.2700	  656.00	  615.60	-1667.16	  371.51
     54.3700	  549.00	  584.74	-1743.30	  371.57
     54.4700	  586.00	  566.76	-1688.31	  371.64
     54.5700	  543.00	  556.76	-1721.31	  371.70
     54.6700	  562.00	  551.43	-1696.98	  371.76
     54.7700	  537.00	  548.81	-1719.36	  371.83
     54.8700	  565.00	  547.86	-1690.42	  371.89
     54.9700	  601.00	  548.11	-1654.66	  371.96
     55.0700	  571.00	  549.34	-1685.90	  372.03
     55.1700	  573.00	  551.52	-1686.07	  372.10
     55.2700	  610.00	  554.67	-1652.23	  372.17
     55.3700	  601.00	  558.92	-1665.48	  372.24
     55.4700	  573.00	  564.49	-1699.05	  372.31
     55.5700	  570.00	  571.76	-1709.32	  372.39
     55.6700	  591.00	  581.63	-1698.18	  372.46
     55.7700	  594.00	  595.65	-1709.21	  372.54
     55.8700	  655.00	  616.95	-1669.50	  372.62
     55.9700	  658.00	  651.06	-1700.62	  372.70
     56.0700	  695.00	  706.93	-1719.48	  372.78
     56.1700	  727.00	  797.23	-1777.79	  372.86
     56.2700	  906.00	  936.92	-1738.47	  372.94
     56.3700	 1096.00	 1139.34	-1750.90	  373.02
     56.4700	 1380.00	 1409.80	-1737.36	  373.11
     56.5700	 1642.00	 1737.82	-1803.38	  373.19
     56.6700	 2093.00	 2090.42	-1704.97	  373.28
     56.7700	 2373.00	 2407.48	-1742.04	  373.36
     56.8700	 2445.00	 2608.08	-1870.64	  373.45
     56.9700	 2585.00	 2623.27	-1745.83	  373.54
     57.0700	 2420.00	 2446.83	-1734.38	  373.63
     57.1700	 2116.00	 2141.76	-1733.31	  373.72
     57.2700	 1865.00	 1791.47	-1634.03	  373.81
     57.3700	 1426.00	 1460.07	-1741.63	  373.90
     57.4700	 1178.00	 1184.06	-1713.62	  374.00
     57.5700	  953.00	  976.68	-1731.23	  374.09
     57.6700	  845.00	  834.48	-1697.04	  374.19
     57.7700	  733.00	  745.42	-1719.97	  374.28
     57.8700	  739.00	  695.46	-1664.02	  374.38
     57.9700	  686.00	  673.14	-1694.69	  374.48
     58.0700	  695.00	  671.18	-1683.74	  374.58
     58.1700	  719.00	  686.21	-1674.76	  374.67
     58.2700	  735.00	  717.33	-1689.88	  374.78
     58.3700	  763.00	  764.43	-1708.98	  374.88
     58.4700	  862.00	  826.57	-1672.13	  374.98
     58.5700	  911.00	  900.47	-1697.03	  375.08
     58.6700	 1074.00	  979.51	-1613.06	  375.18
     58.7700	 1142.00	 1054.92	-1620.47	  375.29
     58.8700	 1281.00	 1119.60	-1546.16	  375.39
     58.9700	 1378.00	 1169.80	-1499.36	  375.50
     59.0700	 1361.00	 1201.70	-1548.25	  375.61
     59.1700	 1389.00	 1210.57	-1529.13	  375.71
     59.2700	 1316.00	 1197.08	-1588.64	  375.82
     59.3700	 1295.00	 1170.78	-1583.33	  375.93
     59.4700	 1221.00	 1144.13	-1630.69	  376.04
     59.5700	 1177.00	 1126.40	-1656.95	  376.15
     59.6700	 1202.00	 1124.48	-1630.03	  376.26
     59.7700	 1100.00	 1145.86	-1753.42	  376.37
     59.8700	 1240.00	 1196.35	-1663.91	  376.48
     59.9700	 1307.00	 1274.42	-1674.98	  376.60
     60.0700	 1443.00	 1367.58	-1632.13	  376.71
     60.1700	 1503.00	 1451.89	-1656.45	  376.83
     60.2700	 1593.00	 1496.36	-1610.91	  376.94
     60.3700	 1556.00	 1476.23	-1627.79	  377.06
     60.4700	 1427.00	 1390.03	-1670.59	  377.17
     60.5700	 1311.00	 1259.67	-1656.22	  377.29
     60.6700	 1146.00	 1113.93	-1675.48	  377.41
     60.7700	  938.00	  975.69	-1745.24	  377.52
     60.8700	  855.00	  859.11	-1711.66	  377.64
     60.9700	  732.00	  770.44	-1745.99	  377.76
     61.0700	  743.00	  710.35	-1674.90	  377.88
     61.1700	  640.00	  676.54	-1744.09	  378.00
     61.2700	  657.00	  666.32	-1716.87	  378.12
     61.3700	  626.00	  678.53	-1760.08	  378.24
     61.4700	  716.00	  714.10	-1705.65	  378.36
     61.5700	  747.00	  775.33	-1735.89	  378.48
     61.6700	  828.00	  863.99	-1743.55	  378.60
     61.7700	  964.00	  978.83	-1722.39	  378.73
     61.8700	 1014.00	 1113.12	-1806.68	  378.85
     61.9700	 1184.00	 1252.74	-1776.29	  378.97
     62.0700	 1295.00	 1375.30	-1787.85	  379.10
     62.1700	 1366.00	 1452.66	-1794.21	  379.22
     62.2700	 1360.00	 1461.40	-1808.95	  379.35
     62.3700	 1328.00	 1397.99	-1777.55	  379.47
     62.4700	 1208.00	 1281.73	-1781.29	  379.60
     62.5700	 1089.00	 1140.98	-1759.54	  379.72
     62.6700	  922.00	 1000.11	-1785.66	  379.85
     62.7700	  824.00	  875.18	-1758.74	  379.98
     62.8700	  765.00	  774.29	-1716.85	  380.10
     62.9700	  696.00	  699.13	-1710.68	  380.23
     63.0700	  661.00	  647.00	-1693.56	  380.36
     63.1700	  599.00	  613.13	-1721.69	  380.49
     63.2700	  549.00	  592.46	-1751.02	  380.61
     63.3700	  565.00	  580.85	-1723.40	  380.74
     63.4700	  615.00	  575.56	-1668.11	  380.87
     63.5700	  594.00	  575.29	-1688.84	  381.00
     63.6700	  593.00	  580.02	-1694.57	  381.13
     63.7700	  613.00	  590.75	-1685.30	  381.26
     63.8700	  626.00	  609.08	-1690.64	  381.39
     63.9700	  647.00	  636.89	-1697.45	  381.52
     64.0700	  688.00	  675.55	-1695.11	  381.65
     64.1700	  747.00	  725.23	-1685.79	  381.78
     64.2700	  831.00	  784.00	-1660.56	  381.91
     64.3700	  900.00	  847.26	-1654.81	  382.04
     64.4700	  986.00	  907.28	-1628.83	  382.17
     64.5700	  996.00	  953.50	-1665.05	  382.30
     64.6700	 1045.00	  977.44	-1639.99	  382.43
     64.7700	  996.00	  974.17	-1685.72	  382.56
     64.8700	  919.00	  946.18	-1734.73	  382.69
     64.9700	  930.00	  900.68	-1678.24	  382.82
     65.0700	  853.00	  846.69	-1701.24	  382.95
     65.1700	  789.00	  792.33	-1710.88	  383.08
     65.2700	  722.00	  743.02	-1728.57	  383.21
     65.3700	  733.00	  701.06	-1675.61	  383.34
     65.4700	  630.00	  666.53	-1744.09	  383.48
     65.5700	  627.00	  638.64	-1719.20	  383.61
     65.6700	  643.00	  616.54	-1681.09	  383.74
     65.7700	  565.00	  599.47	-1742.02	  383.87
     65.8700	  603.00	  586.82	-1691.37	  384.00
     65.9700	  585.00	  577.67	-1700.22	  384.13
     66.0700	  549.00	  571.57	-1730.12	  384.26
     66.1700	  557.00	  568.03	-1718.58	  384.39
     66.2700	  566.00	  566.65	-1708.20	  384.52
     66.3700	  587.00	  567.14	-1687.69	  384.66
     66.4700	  559.00	  569.32	-1717.88	  384.79
     66.5700	  543.00	  573.23	-1737.79	  384.92
     66.6700	  577.00	  579.20	-1709.75	  385.05
     66.7700	  572.00	  588.05	-1723.60	  385.18
     66.8700	  610.00	  601.36	-1698.92	  385.31
     66.9700	  646.00	  621.83	-1683.39	  385.44
     67.0700	  637.00	  653.74	-1724.30	  385.57
     67.1700	  679.00	  702.77	-1731.32	  385.70
     67.2700	  740.00	  776.53	-1744.08	  385.83
     67.3700	  906.00	  882.73	-1684.29	  385.96
     67.4700	  981.00	 1028.34	-1754.89	  386.09
     67.5700	 1158.00	 1216.54	-1766.09	  386.22
     67.6700	 1478.00	 1444.09	-1673.64	  386.34
     67.7700	 1704.00	 1698.73	-1702.29	  386.47
     67.8700	 1950.00	 1957.55	-1715.11	  386.60
     67.9700	 2291.00	 2186.52	-1603.07	  386.73
     68.0700	 2431.00	 2343.69	-1620.25	  386.86
     68.1700	 2414.00	 2391.86	-1685.42	  386.98
     68.2700	 2264.00	 2317.85	-1761.40	  387.11
     68.3700	 2162.00	 2141.52	-1687.07	  387.24
     68.4700	 1936.00	 1902.89	-1674.44	  387.36
     68.5700	 1655.00	 1642.80	-1695.36	  387.49
     68.6700	 1359.00	 1392.93	-1741.48	  387.62
     68.7700	 1178.00	 1173.60	-1703.15	  387.74
     68.8700	  981.00	  995.20	-1721.76	  387.87
     68.9700	  820.00	  859.21	-1746.77	  387.99
     69.0700	  709.00	  761.36	-1759.91	  388.12
     69.1700	  637.00	  694.35	-1764.90	  388.24
     69.2700	  660.00	  650.20	-1697.75	  388.36
     69.3700	  606.00	  621.82	-1723.37	  388.49
     69.4700	  635.00	  603.71	-1676.26	  388.61
     69.5700	  564.00	  591.97	-1735.53	  388.73
     69.6700	  602.00	  584.17	-1689.73	  388.85
     69.7700	  556.00	  578.85	-1730.40	  388.98
     69.8700	  590.00	  575.17	-1692.73	  389.10
     69.9700	  538.00	  572.73	-1742.28	  389.22
     70.0700	  572.00	  571.28	-1706.83	  389.34
     70.1700	  593.00	  570.69	-1685.24	  389.46
     70.2700	  586.00	  570.98	-1692.54	  389.58
     70.3700	  559.00	  572.27	-1720.83	  389.69
     70.4700	  564.00	  574.77	-1718.32	  389.81
     70.5700	  564.00	  578.95	-1722.51	  389.93
     70.6700	  607.00	  585.64	-1686.20	  390.05
     70.7700	  578.00	  596.22	-1725.77	  390.16
     70.8700	  598.00	  612.83	-1722.38	  390.28
     70.9700	  662.00	  638.56	-1684.11	  390.39
     71.0700	  593.00	  677.49	-1792.04	  390.51
     71.1700	  727.00	  734.45	-1715.00	  390.62
     71.2700	  772.00	  814.34	-1749.89	  390.73
     71.3700	  980.00	  921.04	-1648.59	  390.85
     71.4700	 1096.00	 1056.78	-1668.33	  390.96
     71.5700	 1193.00	 1217.38	-1731.93	  391.07
     71.6700	 1352.00	 1395.77	-1751.33	  391.18
     71.7700	 1518.00	 1577.92	-1767.47	  391.29
     71.8700	 1595.00	 1743.40	-1855.95	  391.40
     71.9700	 1903.00	 1866.90	-1671.46	  391.51
     72.0700	 1935.00	 1923.95	-1696.50	  391.62
     72.1700	 1905.00	 1901.17	-1703.72	  391.72
     72.2700	 1782.00	 1804.06	-1729.62	  391.83
     72.3700	 1660.00	 1653.70	-1701.25	  391.94
     72.4700	 1438.00	 1476.09	-1745.64	  392.04
     72.5700	 1287.00	 1294.05	-1714.61	  392.15
     72.6700	 1209.00	 1124.33	-1622.88	  392.25
     72.7700	 1022.00	  977.32	-1662.87	  392.35
     72.8700	  878.00	  857.68	-1687.24	  392.45
     72.9700	  807.00	  765.06	-1665.61	  392.55
     73.0700	  753.00	  697.41	-1651.97	  392.65
     73.1700	  690.00	  649.72	-1667.27	  392.75
     73.2700	  704.00	  617.11	-1620.66	  392.85
     73.3700	  637.00	  595.21	-1665.77	  392.95
     73.4700	  643.00	  580.55	-1645.11	  393.05
     73.5700	  620.00	  570.62	-1658.18	  393.14
     73.6700	  608.00	  563.76	-1663.31	  393.24
     73.7700	  630.00	  558.92	-1636.48	  393.33
     73.8700	  578.00	  555.50	-1685.05	  393.43
     73.9700	  595.00	  553.11	-1665.66	  393.52
     74.0700	  568.00	  551.53	-1691.09	  393.61
     74.1700	  629.00	  550.59	-1629.14	  393.70
     74.2700	  608.00	  550.11	-1649.66	  393.79
     74.3700	  643.00	  549.92	-1614.47	  393.88
     74.4700	  597.00	  549.81	-1660.37	  393.97
     74.5700	  627.00	  549.57	-1630.12	  394.06
     74.6700	  579.00	  549.00	-1677.55	  394.14
     74.7700	  619.00	  548.01	-1636.56	  394.23
     74.8700	  601.00	  546.67	-1653.22	  394.31
     74.9700	  590.00	  545.15	-1662.71	  394.40
     75.0700	  638.00	  543.73	-1613.29	  394.48
     75.1700	  632.00	  542.68	-1618.24	  394.56
     75.2700	  600.00	  542.25	-1649.81	  394.64
     75.3700	  577.00	  542.90	-1673.45	  394.72
     75.4700	  544.00	  544.95	-1708.50	  394.80
     75.5700	  581.00	  548.85	-1675.40	  394.87
     75.6700	  550.00	  555.05	-1712.61	  394.95
     75.7700	  568.00	  563.89	-1703.45	  395.02
     75.8700	  546.00	  575.84	-1737.39	  395.10
     75.9700	  624.00	  590.82	-1674.38	  395.17
     76.0700	  686.00	  608.51	-1630.07	  395.24
     76.1700	  610.00	  628.08	-1725.64	  395.31
     76.2700	  670.00	  648.17	-1685.73	  395.38
     76.3700	  708.00	  666.87	-1666.42	  395.45
     76.4700	  645.00	  681.74	-1744.30	  395.52
     76.5700	  731.00	  690.46	-1667.02	  395.59
     76.6700	  658.00	  691.24	-1740.80	  395.65
     76.7700	  669.00	  683.88	-1722.44	  395.72
     76.8700	  675.00	  669.81	-1702.37	  395.78
     76.9700	  661.00	  651.38	-1697.94	  395.84
     77.0700	  638.00	  631.03	-1700.58	  395.90
     77.1700	  627.00	  610.76	-1691.31	  395.96
     77.2700	  591.00	  591.86	-1708.42	  396.02
     77.3700	  575.00	  575.64	-1708.20	  396.08
     77.4700	  528.00	  562.33	-1741.88	  396.13
     77.5700	  529.00	  551.91	-1730.46	  396.19
     77.6700	  510.00	  544.12	-1741.67	  396.24
     77.7700	  529.00	  538.51	-1717.06	  396.29
     77.8700	  524.00	  534.60	-1718.15	  396.34
     77.9700	  589.00	  531.95	-1650.50	  396.39
     78.0700	  523.00	  530.17	-1714.72	  396.44
     78.1700	  502.00	  528.98	-1734.54	  396.49
     78.2700	  488.00	  528.19	-1747.75	  396.54
     78.3700	  510.00	  527.67	-1725.22	  396.58
     78.4700	  525.00	  527.32	-1709.88	  396.62
     78.5700	  515.00	  527.12	-1719.67	  396.67
     78.6700	  488.00	  527.04	-1746.59	  396.71
     78.7700	  502.00	  527.07	-1732.62	  396.75
     78.8700	  519.00	  527.23	-1715.79	  396.79
     78.9700	  504.00	  527.54	-1731.10	  396.82
     79.0700	  539.00	  528.03	-1696.59	  396.86
     79.1700	  493.00	  528.73	-1743.28	  396.89
     79.2700	  477.00	  529.68	-1760.23	  396.93
     79.3700	  515.00	  530.91	-1723.47	  396.96
     79.4700	  560.00	  532.48	-1680.04	  396.99
     79.5700	  514.00	  534.44	-1727.99	  397.02
     79.6700	  529.00	  536.83	-1715.39	  397.05
     79.7700	  508.00	  539.56	-1739.11	  397.07
     79.8700	  572.00	  543.10	-1678.66	  397.10
     79.9700	  570.00	  547.40	-1684.96	  397.12
     80.0700	  561.00	  552.64	-1699.19	  397.15
     80.1700	  526.00	  559.05	-1740.60	  397.17
     80.2700	  562.00	  566.94	-1712.49	  397.19
     80.3700	  569.00	  576.61	-1715.16	  397.21
     80.4700	  553.00	  588.29	-1742.84	  397.22
     80.5700	  535.00	  602.05	-1774.60	  397.24
     80.6700	  591.00	  617.68	-1734.24	  397.25
     80.7700	  612.00	  634.69	-1730.24	  397.27
     80.8700	  677.00	  652.22	-1682.78	  397.28
     80.9700	  653.00	  669.19	-1723.75	  397.29
     81.0700	  677.00	  684.42	-1714.98	  397.30
     81.1700	  660.00	  696.87	-1744.42	  397.30
     81.2700	  728.00	  705.70	-1685.25	  397.31
     81.3700	  766.00	  710.36	-1651.92	  397.31
     81.4700	  741.00	  710.60	-1677.15	  397.32
     81.5700	  765.00	  706.49	-1649.05	  397.32
     81.6700	  791.00	  698.38	-1614.93	  397.32
     81.7700	  711.00	  686.78	-1683.34	  397.32
     81.8700	  707.00	  672.45	-1673.01	  397.31
     81.9700	  716.00	  656.38	-1647.93	  397.31
     82.0700	  689.00	  639.65	-1658.20	  397.30
     82.1700	  627.00	  623.24	-1703.79	  397.30
     82.2700	  631.00	  607.86	-1684.42	  397.29
     82.3700	  616.00	  593.94	-1685.50	  397.28
     82.4700	  602.00	  581.71	-1687.26	  397.27
     82.5700	  545.00	  571.28	-1733.83	  397.25
     82.6700	  581.00	  562.69	-1689.25	  397.24
     82.7700	  608.00	  555.95	-1655.50	  397.22
     82.8700	  544.00	  550.99	-1714.54	  397.20
     82.9700	  515.00	  547.68	-1740.23	  397.18
     83.0700	  483.00	  546.04	-1770.60	  397.16
     83.1700	  538.00	  545.89	-1715.44	  397.14
     83.2700	  475.00	  547.14	-1779.69	  397.12
     83.3700	  523.00	  549.61	-1734.16	  397.09
     83.4700	  589.00	  553.07	-1671.62	  397.07
     83.5700	  563.00	  557.23	-1701.79	  397.04
     83.6700	  545.00	  561.73	-1724.29	  397.01
     83.7700	  527.00	  566.12	-1746.67	  396.98
     83.8700	  567.00	  569.87	-1710.43	  396.94
     83.9700	  563.00	  572.46	-1717.01	  396.91
     84.0700	  540.00	  573.44	-1741.00	  396.87
     84.1700	  577.00	  572.60	-1703.16	  396.84
     84.2700	  579.00	  570.02	-1698.58	  396.80
     84.3700	  538.00	  566.05	-1735.60	  396.76
     84.4700	  551.00	  561.16	-1717.71	  396.72
     84.5700	  520.00	  555.84	-1743.40	  396.67
     84.6700	  518.00	  550.50	-1740.06	  396.63
     84.7700	  513.00	  545.47	-1740.03	  396.58
     84.8700	  552.00	  540.97	-1696.52	  396.53
     84.9700	  534.00	  537.13	-1710.68	  396.48
     85.0700	  506.00	  533.99	-1735.55	  396.43
     85.1700	  538.00	  531.55	-1701.11	  396.38
     85.2700	  523.00	  529.74	-1714.29	  396.32
     85.3700	  520.00	  528.48	-1716.04	  396.27
     85.4700	  563.00	  527.69	-1672.25	  396.21
     85.5700	  537.00	  527.30	-1697.85	  396.15
     85.6700	  545.00	  527.26	-1689.81	  396.09
     85.7700	  503.00	  527.55	-1732.11	  396.03
     85.8700	  505.00	  528.21	-1730.76	  395.96
     85.9700	  507.00	  529.28	-1729.83	  395.90
     86.0700	  538.00	  530.86	-1700.42	  395.83
     86.1700	  517.00	  533.09	-1723.65	  395.76
     86.2700	  508.00	  536.13	-1735.68	  395.69
     86.3700	  487.00	  540.13	-1760.69	  395.62
     86.4700	  548.00	  545.28	-1704.83	  395.55
     86.5700	  530.00	  551.68	-1729.24	  395.47
     86.6700	  585.00	  559.39	-1681.95	  395.40
     86.7700	  571.00	  568.37	-1704.92	  395.32
     86.8700	  590.00	  578.40	-1695.96	  395.24
     86.9700	  604.00	  589.16	-1692.71	  395.16
     87.0700	  632.00	  600.10	-1675.65	  395.08
     87.1700	  647.00	  610.53	-1671.09	  394.99
     87.2700	  628.00	  619.63	-1699.19	  394.91
     87.3700	  600.00	  626.50	-1734.05	  394.82
     87.4700	  618.00	  630.33	-1719.89	  394.73
     87.5700	  677.00	  630.30	-1660.86	  394.64
     87.6700	  663.00	  627.15	-1671.70	  394.55
     87.7700	  659.00	  621.04	-1669.59	  394.46
     87.8700	  618.00	  612.81	-1702.36	  394.36
     87.9700	  593.00	  603.41	-1717.97	  394.26
     88.0700	  616.00	  593.78	-1685.33	  394.17
     88.1700	  590.00	  584.69	-1702.25	  394.07
     88.2700	  567.00	  576.81	-1717.36	  393.97
     88.3700	  575.00	  570.59	-1703.15	  393.86
     88.4700	  570.00	  566.34	-1703.89	  393.76
     88.5700	  529.00	  564.16	-1742.72	  393.65
     88.6700	  553.00	  564.01	-1718.56	  393.54
     88.7700	  575.00	  565.68	-1698.23	  393.44
     88.8700	  571.00	  568.84	-1705.40	  393.33
     88.9700	  569.00	  573.06	-1711.61	  393.21
     89.0700	  595.00	  577.81	-1690.36	  393.10
     89.1700	  591.00	  582.49	-1699.05	  392.98
     89.2700	  552.00	  586.50	-1742.06	  392.87
     89.3700	  580.00	  589.24	-1716.79	  392.75
     89.4700	  603.00	  590.23	-1694.79	  392.63
     89.5700	  590.00	  589.25	-1706.80	  392.51
     89.6700	  591.00	  586.35	-1702.91	  392.39
     89.7700	  579.00	  581.87	-1710.42	  392.26
     89.8700	  595.00	  576.25	-1688.80	  392.14
     89.9700	  543.00	  569.99	-1734.54	  392.01
     90.0700	  546.00	  563.54	-1725.10	  391.88
     90.1700	  570.00	  557.28	-1694.83	  391.75
     90.2700	  548.00	  551.48	-1711.04	  391.62
     90.3700	  545.00	  546.35	-1708.91	  391.48
     90.4700	  544.00	  541.99	-1705.54	  391.35
     90.5700	  492.00	  538.43	-1753.99	  391.21
     90.6700	  506.00	  535.66	-1737.22	  391.08
     90.7700	  504.00	  533.62	-1737.17	  390.94
     90.8700	  497.00	  532.22	-1742.77	  390.80
     90.9700	  534.00	  531.39	-1704.94	  390.65
     91.0700	  505.00	  531.05	-1733.61	  390.51
     91.1700	  531.00	  531.18	-1707.73	  390.37
     91.2700	  531.00	  531.75	-1708.30	  390.22
     91.3700	  505.00	  532.79	-1735.34	  390.07
     91.4700	  554.00	  534.37	-1687.93	  389.92
     91.5700	  527.00	  536.61	-1717.16	  389.77
     91.6700	  528.00	  539.64	-1719.20	  389.62
     91.7700	  485.00	  543.66	-1766.21	  389.47
     91.8700	  497.00	  548.86	-1759.41	  389.31
     91.9700	  535.00	  555.45	-1728.01	  389.15
     92.0700	  562.00	  563.64	-1709.20	  389.00
     92.1700	  550.00	  573.58	-1731.13	  388.84
     92.2700	  572.00	  585.36	-1720.91	  388.68
     92.3700	  608.00	  598.99	-1698.54	  388.51
     92.4700	  599.00	  614.37	-1722.92	  388.35
     92.5700	  655.00	  631.26	-1683.81	  388.19
     92.6700	  674.00	  649.28	-1682.84	  388.02
     92.7700	  642.00	  667.66	-1733.22	  387.85
     92.8700	  669.00	  686.26	-1724.82	  387.68
     92.9700	  652.00	  704.07	-1759.63	  387.51
     93.0700	  734.00	  720.37	-1693.92	  387.34
     93.1700	  705.00	  734.62	-1737.17	  387.17
     93.2700	  773.00	  746.62	-1681.18	  387.00
     93.3700	  765.00	  756.57	-1699.12	  386.82
     93.4700	  786.00	  764.93	-1686.48	  386.64
     93.5700	  763.00	  772.28	-1716.83	  386.47
     93.6700	  750.00	  779.17	-1736.72	  386.29
     93.7700	  833.00	  786.06	-1660.62	  386.11
     93.8700	  824.00	  793.38	-1676.93	  385.92
     93.9700	  834.00	  801.55	-1675.11	  385.74
     94.0700	  865.00	  811.03	-1653.58	  385.56
     94.1700	  852.00	  822.17	-1677.73	  385.37
     94.2700	  849.00	  835.09	-1693.64	  385.19
     94.3700	  864.00	  849.49	-1693.05	  385.00
     94.4700	  929.00	  864.65	-1643.20	  384.81
     94.5700	  887.00	  879.38	-1699.93	  384.62
     94.6700	  896.00	  892.15	-1703.70	  384.43
     94.7700	  884.00	  901.20	-1724.75	  384.23
     94.8700	  921.00	  904.83	-1691.39	  384.04
     94.9700	  851.00	  901.82	-1758.38	  383.84
     95.0700	  937.00	  891.73	-1662.28	  383.65
     95.1700	  917.00	  875.06	-1665.61	  383.45
     95.2700	  853.00	  853.11	-1707.67	  383.25
     95.3700	  850.00	  827.70	-1685.25	  383.05
     95.4700	  792.00	  800.77	-1716.33	  382.85
     95.5700	  769.00	  774.28	-1712.84	  382.65
     95.6700	  760.00	  750.03	-1697.58	  382.45
     95.7700	  706.00	  729.64	-1731.20	  382.24
     95.8700	  695.00	  714.60	-1727.16	  382.04
     95.9700	  695.00	  706.18	-1718.74	  381.83
     96.0700	  683.00	  705.49	-1730.05	  381.63
     96.1700	  637.00	  713.45	-1784.01	  381.42
     96.2700	  695.00	  730.78	-1743.34	  381.21
     96.3700	  707.00	  757.97	-1758.53	  381.00
     96.4700	  743.00	  795.22	-1759.78	  380.79
     96.5700	  819.00	  842.37	-1730.92	  380.58
     96.6700	  894.00	  898.81	-1712.36	  380.36
     96.7700	  971.00	  963.43	-1699.99	  380.15
     96.8700	 1019.00	 1034.52	-1723.08	  379.93
     96.9700	 1078.00	 1109.73	-1739.28	  379.72
     97.0700	 1197.00	 1186.05	-1696.60	  379.50
     97.1700	 1300.00	 1259.87	-1667.43	  379.28
     97.2700	 1349.00	 1327.09	-1685.65	  379.06
     97.3700	 1347.00	 1383.31	-1743.86	  378.84
     97.4700	 1436.00	 1424.32	-1695.88	  378.62
     97.5700	 1464.00	 1446.82	-1690.38	  378.40
     97.6700	 1430.00	 1449.09	-1726.64	  378.18
     97.7700	 1396.00	 1431.38	-1742.93	  377.96
     97.8700	 1427.00	 1395.84	-1676.39	  377.74
     97.9700	 1289.00	 1345.90	-1764.45	  377.51
     98.0700	 1267.00	 1285.64	-1726.19	  377.29
     98.1700	 1154.00	 1219.23	-1772.78	  377.06
     98.2700	 1199.00	 1150.61	-1659.16	  376.83
     98.3700	 1073.00	 1083.35	-1717.91	  376.61
     98.4700	  990.00	 1020.54	-1738.10	  376.38
     98.5700	  908.00	  964.78	-1764.33	  376.15
     98.6700	  931.00	  918.15	-1694.70	  375.92
     98.7700	  833.00	  882.30	-1756.86	  375.69
     98.8700	  822.00	  858.53	-1744.09	  375.46
     98.9700	  840.00	  847.72	-1715.28	  375.23
     99.0700	  852.00	  850.58	-1706.13	  375.00
     99.1700	  860.00	  867.44	-1714.99	  374.76
     99.2700	  879.00	  898.43	-1726.98	  374.53
     99.3700	  939.00	  943.46	-1712.01	  374.30
     99.4700	 1038.00	 1002.10	-1671.66	  374.06
     99.5700	 1084.00	 1073.65	-1697.20	  373.83
     99.6700	 1180.00	 1156.91	-1684.46	  373.59
     99.7700	 1276.00	 1250.18	-1681.73	  373.36
     99.8700	 1351.00	 1351.22	-1707.77	  373.12
     99.9700	 1480.00	 1457.08	-1684.63	  372.88
    100.0700	 1591.00	 1564.22	-1680.78	  372.65
    100.1700	 1602.00	 1668.55	-1774.10	  372.41
    100.2700	 1683.00	 1765.72	-1790.27	  372.17
    100.3700	 1786.00	 1851.62	-1773.17	  371.93
    100.4700	 2003.00	 1922.76	-1627.31	  371.69
    100.5700	 1985.00	 1976.60	-1699.15	  371.46
    100.6700	 2023.00	 2011.49	-1696.04	  371.22
    100.7700	 2054.00	 2026.46	-1680.01	  370.98
    100.8700	 2025.00	 2021.06	-1703.61	  370.74
    100.9700	 2043.00	 1995.46	-1660.01	  370.50
    101.0700	 1981.00	 1950.73	-1677.28	  370.26
    101.1700	 1837.00	 1889.21	-1759.76	  370.01
    101.2700	 1887.00	 1814.50	-1635.06	  369.77
    101.3700	 1735.00	 1731.09	-1703.65	  369.53
    101.4700	 1589.00	 1643.80	-1762.36	  369.29
    101.5700	 1560.00	 1557.13	-1704.68	  369.05
    101.6700	 1488.00	 1474.93	-1694.48	  368.81
    101.7700	 1429.00	 1400.14	-1678.69	  368.57
    101.8700	 1316.00	 1334.67	-1726.23	  368.33
    101.9700	 1290.00	 1279.50	-1697.06	  368.08
    102.0700	 1200.00	 1234.63	-1742.18	  367.84
    102.1700	 1251.00	 1199.23	-1655.79	  367.60
    102.2700	 1214.00	 1171.75	-1665.30	  367.36
    102.3700	 1187.00	 1150.03	-1670.58	  367.12
    102.4700	 1133.00	 1131.59	-1706.14	  366.87
    102.5700	 1090.00	 1113.82	-1731.37	  366.63
    102.6700	 1117.00	 1094.39	-1684.94	  366.39
    102.7700	 1098.00	 1071.53	-1681.08	  366.15
    102.8700	 1028.00	 1044.25	-1723.81	  365.91
    102.9700	 1034.00	 1012.44	-1685.99	  365.67
    103.0700	  935.00	  976.61	-1749.16	  365.43
    103.1700	  937.00	  937.76	-1708.31	  365.19
    103.2700	  871.00	  897.08	-1733.64	  364.95
    103.3700	  829.00	  855.80	-1734.36	  364.71
    103.4700	  806.00	  815.09	-1716.64	  364.47
    103.5700	  798.00	  775.94	-1685.50	  364.23
    103.6700	  717.00	  739.20	-1729.76	  363.99
    103.7700	  750.00	  705.51	-1663.07	  363.75
    103.8700	  710.00	  675.29	-1672.84	  363.51
    103.9700	  677.00	  648.76	-1679.32	  363.27
    104.0700	  642.00	  625.97	-1691.52	  363.03
    104.1700	  653.00	  606.78	-1661.34	  362.80
    104.2700	  571.00	  590.99	-1727.55	  362.56
    104.3700	  627.00	  578.27	-1658.82	  362.32
    104.4700	  553.00	  568.26	-1722.82	  362.09
    104.5700	  557.00	  560.60	-1711.15	  361.85
    104.6700	  598.00	  554.91	-1664.47	  361.62
    104.7700	  552.00	  550.88	-1706.43	  361.38
    104.8700	  560.00	  548.20	-1695.75	  361.15
    104.9700	  505.00	  546.61	-1749.17	  360.92
    105.0700	  557.00	  545.95	-1696.50	  360.69
    105.1700	  575.00	  546.04	-1678.60	  360.45
    105.2700	  548.00	  546.78	-1706.33	  360.22
    105.3700	  521.00	  548.10	-1734.65	  359.99
    105.4700	  538.00	  549.95	-1719.50	  359.76
    105.5700	  517.00	  552.37	-1742.92	  359.54
    105.6700	  583.00	  555.39	-1679.94	  359.31
    105.7700	  559.00	  559.07	-1707.63	  359.08
    105.8700	  517.00	  563.51	-1754.07	  358.86
    105.9700	  583.00	  568.79	-1693.35	  358.63
    106.0700	  565.00	  574.97	-1717.52	  358.41
    106.1700	  624.00	  582.10	-1665.66	  358.19
    106.2700	  539.00	  590.18	-1758.73	  357.97
    106.3700	  624.00	  599.12	-1682.68	  357.74
    106.4700	  655.00	  608.82	-1661.37	  357.53
    106.5700	  612.00	  619.08	-1714.63	  357.31
    106.6700	  649.00	  629.66	-1688.21	  357.09
    106.7700	  635.00	  640.26	-1712.81	  356.87
    106.8700	  688.00	  650.52	-1670.08	  356.66
    106.9700	  683.00	  660.08	-1684.64	  356.45
    107.0700	  696.00	  668.55	-1680.10	  356.23
    107.1700	  714.00	  675.58	-1669.13	  356.02
    107.2700	  643.00	  680.92	-1745.47	  355.81
    107.3700	  675.00	  684.44	-1716.99	  355.61
    107.4700	  725.00	  686.19	-1668.75	  355.40
    107.5700	  651.00	  686.40	-1742.96	  355.19
    107.6700	  684.00	  685.41	-1708.96	  354.99
    107.7700	  701.00	  683.63	-1690.18	  354.79
    107.8700	  709.00	  681.49	-1680.04	  354.59
    107.9700	  663.00	  679.37	-1723.92	  354.39
    108.0700	  630.00	  677.58	-1755.14	  354.19
    108.1700	  680.00	  676.35	-1703.90	  353.99
    108.2700	  680.00	  675.76	-1703.32	  353.80
    108.3700	  678.00	  675.83	-1705.38	  353.61
    108.4700	  693.00	  676.42	-1690.98	  353.42
    108.5700	  665.00	  677.34	-1719.89	  353.23
    108.6700	  676.00	  678.27	-1709.82	  353.04
    108.7700	  689.00	  678.85	-1697.41	  352.85
    108.8700	  680.00	  678.69	-1706.24	  352.67
    108.9700	  687.00	  677.42	-1697.97	  352.49
    109.0700	  729.00	  674.75	-1653.30	  352.31
    109.1700	  707.00	  670.52	-1671.07	  352.13
    109.2700	  666.00	  664.70	-1706.26	  351.95
    109.3700	  630.00	  657.42	-1734.97	  351.78
    109.4700	  651.00	  648.90	-1705.46	  351.61
    109.5700	  603.00	  639.44	-1744.00	  351.44
    109.6700	  636.00	  629.36	-1700.91	  351.27
    109.7700	  616.00	  618.97	-1710.52	  351.11
    109.8700	  557.00	  608.58	-1759.13	  350.94
    109.9700	  611.00	  598.45	-1695.01	  350.78
    110.0700	  576.00	  588.82	-1720.37	  350.62
    110.1700	  596.00	  579.86	-1691.42	  350.47
    110.2700	  536.00	  571.73	-1743.28	  350.31
    110.3700	  561.00	  564.51	-1711.06	  350.16
    110.4700	  553.00	  558.25	-1712.81	  350.01
    110.5700	  585.00	  552.98	-1675.54	  349.87
    110.6700	  548.00	  548.67	-1708.22	  349.72
    110.7700	  592.00	  545.28	-1660.83	  349.58
    110.8700	  537.00	  542.73	-1713.29	  349.44
    110.9700	  554.00	  540.97	-1694.52	  349.31
    111.0700	  513.00	  539.90	-1734.45	  349.17
    111.1700	  538.00	  539.44	-1708.99	  349.04
    111.2700	  519.00	  539.50	-1728.06	  348.92
    111.3700	  540.00	  540.03	-1707.58	  348.79
    111.4700	  528.00	  540.94	-1720.49	  348.67
    111.5700	  521.00	  542.19	-1728.74	  348.55
    111.6700	  536.00	  543.72	-1715.28	  348.43
    111.7700	  567.00	  545.51	-1686.06	  348.32
    111.8700	  572.00	  547.52	-1683.07	  348.21
    111.9700	  559.00	  549.73	-1698.29	  348.10
    112.0700	  553.00	  552.15	-1706.71	  348.00
    112.1700	  598.00	  554.78	-1664.33	  347.90
    112.2700	  551.00	  557.62	-1714.18	  347.80
    112.3700	  573.00	  560.71	-1695.26	  347.70
    112.4700	  547.00	  564.07	-1724.62	  347.61
    112.5700	  534.00	  567.74	-1741.29	  347.52
    112.6700	  570.00	  571.78	-1709.34	  347.44
    112.7700	  610.00	  576.27	-1673.83	  347.36
    112.8700	  601.00	  581.29	-1687.85	  347.28
    112.9700	  592.00	  586.97	-1702.52	  347.20
    113.0700	  606.00	  593.45	-1695.00	  347.13
    113.1700	  616.00	  600.94	-1692.49	  347.06
    113.2700	  597.00	  609.69	-1720.24	  347.00
    113.3700	  587.00	  620.02	-1740.58	  346.94
    113.4700	  662.00	  632.37	-1677.92	  346.88
    113.5700	  682.00	  647.25	-1672.81	  346.83
    113.6700	  683.00	  665.33	-1689.88	  346.78
    113.7700	  728.00	  687.42	-1666.97	  346.74
    113.8700	  744.00	  714.50	-1678.05	  346.70
    113.9700	  775.00	  747.74	-1680.29	  346.66
    114.0700	  903.00	  788.53	-1593.08	  346.62
    114.1700	  932.00	  838.48	-1614.03	  346.60
    114.2700	  959.00	  899.36	-1647.92	  346.57
    114.3700	 1051.00	  973.22	-1629.78	  346.55
    114.4700	 1142.00	 1062.18	-1627.73	  346.53
    114.5700	 1241.00	 1168.50	-1635.06	  346.52
    114.6700	 1359.00	 1294.51	-1643.06	  346.51
    114.7700	 1497.00	 1442.41	-1652.96	  346.51
    114.8700	 1736.00	 1614.24	-1585.80	  346.51
    114.9700	 1975.00	 1811.71	-1544.27	  346.51
    115.0700	 2068.00	 2036.10	-1675.65	  346.52
    115.1700	 2373.00	 2288.09	-1622.64	  346.53
    115.2700	 2686.00	 2567.51	-1589.07	  346.55
    115.3700	 2845.00	 2873.34	-1735.90	  346.57
    115.4700	 3162.00	 3203.46	-1749.01	  346.60
    115.5700	 3613.00	 3554.71	-1649.27	  346.63
    115.6700	 3871.00	 3922.79	-1759.35	  346.67
    115.7700	 4190.00	 4302.07	-1819.62	  346.71
    115.8700	 4542.00	 4685.76	-1851.32	  346.75
    115.9700	 4912.00	 5065.91	-1861.47	  346.81
    116.0700	 5362.00	 5433.62	-1779.18	  346.86
    116.1700	 5708.00	 5779.14	-1778.70	  346.92
    116.2700	 5994.00	 6092.01	-1805.56	  346.99
    116.3700	 6241.00	 6361.66	-1828.21	  347.06
    116.4700	 6537.00	 6577.97	-1748.52	  347.14
    116.5700	 6753.00	 6732.15	-1686.70	  347.22
    116.6700	 6747.00	 6817.50	-1778.05	  347.30
    116.7700	 6573.00	 6830.22	-1964.77	  347.40
    116.8700	 6757.00	 6769.98	-1720.54	  347.49
    116.9700	 6595.00	 6639.96	-1752.51	  347.60
    117.0700	 6495.00	 6446.33	-1658.88	  347.70
    117.1700	 6189.00	 6197.51	-1716.06	  347.82
    117.2700	 5864.00	 5903.41	-1746.96	  347.94
    117.3700	 5543.00	 5574.46	-1739.02	  348.06
    117.4700	 5108.00	 5221.08	-1820.63	  348.19
    117.5700	 4955.00	 4853.02	-1605.57	  348.33
    117.6700	 4577.00	 4479.20	-1609.75	  348.47
    117.7700	 4149.00	 4107.61	-1666.16	  348.62
    117.8700	 3814.00	 3745.06	-1638.61	  348.77
    117.9700	 3429.00	 3397.21	-1675.76	  348.93
    118.0700	 3192.00	 3068.41	-1583.96	  349.10
    118.1700	 2867.00	 2761.86	-1602.41	  349.27
    118.2700	 2570.00	 2479.78	-1617.34	  349.45
    118.3700	 2279.00	 2223.35	-1651.90	  349.63
    118.4700	 1939.00	 1992.90	-1761.46	  349.82
    118.5700	 1813.00	 1787.99	-1682.55	  350.02
    118.6700	 1630.00	 1607.59	-1685.14	  350.22
    118.7700	 1429.00	 1450.27	-1728.82	  350.43
    118.8700	 1228.00	 1314.25	-1793.81	  350.65
    118.9700	 1193.00	 1197.58	-1712.14	  350.87
    119.0700	 1090.00	 1098.18	-1715.74	  351.10
    119.1700	 1027.00	 1013.98	-1694.53	  351.34
    119.2700	  897.00	  942.99	-1753.54	  351.58
    119.3700	  892.00	  883.37	-1698.93	  351.83
    119.4700	  816.00	  833.44	-1724.99	  352.08
    119.5700	  778.00	  791.67	-1721.22	  352.35
    119.6700	  754.00	  756.75	-1710.30	  352.62
    119.7700	  680.00	  727.54	-1755.10	  352.89
    119.8700	  662.00	  703.10	-1748.66	  353.18
    119.9700	  636.00	  682.62	-1754.18	  353.47
    120.0700	  610.00	  665.44	-1762.99	  353.77
    120.1700	  596.00	  651.00	-1762.56	  354.07
    120.2700	  607.00	  638.88	-1739.44	  354.38
    120.3700	  565.00	  628.72	-1771.27	  354.70
    120.4700	  614.00	  620.22	-1713.78	  355.03
    120.5700	  569.00	  613.17	-1751.73	  355.37
    120.6700	  574.00	  607.38	-1740.93	  355.71
    120.7700	  593.00	  602.70	-1717.25	  356.06
    120.8700	  616.00	  599.01	-1690.56	  356.42
    120.9700	  561.00	  596.22	-1742.78	  356.78
    121.0700	  536.00	  594.26	-1765.81	  357.16
    121.1700	  576.00	  593.05	-1724.61	  357.54
    121.2700	  612.00	  592.54	-1688.10	  357.93
    121.3700	  624.00	  592.68	-1676.24	  358.32
    121.4700	  565.00	  593.41	-1735.97	  358.73
    121.5700	  621.00	  594.68	-1681.24	  359.14
    121.6700	  610.00	  596.44	-1694.00	  359.56
    121.7700	  644.00	  598.63	-1662.18	  359.99
    121.8700	  589.00	  601.17	-1719.73	  360.43
    121.9700	  577.00	  604.01	-1734.56	  360.88
    122.0700	  609.00	  607.06	-1705.61	  361.33
    122.1700	  601.00	  610.24	-1716.79	  361.80
    122.2700	  588.00	  613.46	-1733.01	  362.27
    122.3700	  662.00	  616.62	-1662.17	  362.75
    122.4700	  635.00	  619.62	-1692.18	  363.24
    122.5700	  615.00	  622.38	-1714.93	  363.74
    122.6700	  646.00	  624.77	-1686.32	  364.24
    122.7700	  642.00	  626.75	-1692.31	  364.76
    122.8700	  640.00	  628.24	-1695.79	  365.29
    122.9700	  652.00	  629.18	-1684.74	  365.82
    123.0700	  617.00	  629.56	-1720.11	  366.36
    123.1700	  615.00	  629.36	-1721.92	  366.92
    123.2700	  610.00	  628.62	-1726.17	  367.48
    123.3700	  660.00	  627.37	-1674.92	  368.05
    123.4700	  630.00	  625.66	-1703.22	  368.63
    123.5700	  630.00	  623.56	-1701.12	  369.22
    123.6700	  659.00	  621.14	-1669.69	  369.82
    123.7700	  632.00	  618.45	-1694.00	  370.43
    123.8700	  630.00	  615.58	-1693.14	  371.05
    123.9700	  595.00	  612.60	-1725.15	  371.67
    124.0700	  592.00	  609.56	-1725.11	  372.31
    124.1700	  593.00	  606.51	-1721.07	  372.96
    124.2700	  605.00	  603.52	-1706.08	  373.62
    124.3700	  642.00	  600.62	-1666.18	  374.29
    124.4700	  595.00	  597.86	-1710.41	  374.97
    124.5700	  617.00	  595.25	-1685.80	  375.66
    124.6700	  598.00	  592.82	-1702.37	  376.35
    124.7700	  562.00	  590.60	-1736.15	  377.06
    124.8700	  596.00	  588.59	-1700.15	  377.78
    124.9700	  563.00	  494.02	-1638.57	  378.51
    125.0700	  565.00	  494.76	-1707.55	  379.25
    125.1700	  591.00	  495.51	-1707.55	  380.01
    125.2700	  570.00	  496.27	-1707.55	  380.77
    125.3700	  594.00	  497.04	-1707.55	  381.54
    125.4700	  609.00	  497.83	-1707.55	  382.32
    125.5700	  582.00	  498.62	-1707.55	  383.12
    125.6700	  578.00	  499.43	-1707.55	  383.93
    125.7700	  536.00	  500.24	-1707.55	  384.74
    125.8700	  616.00	  501.07	-1707.55	  385.57
    125.9700	  519.00	  501.91	-1707.55	  386.41
    126.0700	  580.00	  502.76	-1707.55	  387.26
    126.1700	  634.00	  503.62	-1707.55	  388.12
    126.2700	  527.00	  504.50	-1707.55	  389.00
    126.3700	  573.00	  505.38	-1707.55	  389.88
    126.4700	  581.00	  506.28	-1707.55	  390.78
    126.5700	  589.00	  507.19	-1707.55	  391.69
    126.6700	  610.00	  508.11	-1707.55	  392.61
    126.7700	  651.00	  509.04	-1707.55	  393.54
    126.8700	  649.00	  509.98	-1707.55	  394.48
    126.9700	  640.00	  510.94	-1707.55	  395.44
    127.0700	  665.00	  511.91	-1707.55	  396.41
    127.1700	  605.00	  512.89	-1707.55	  397.39
    127.2700	  661.00	  513.88	-1707.55	  398.38
    127.3700	  614.00	  514.89	-1707.55	  399.39
    127.4700	  655.00	  515.91	-1707.55	  400.40
    127.5700	  654.00	  516.94	-1707.55	  401.43
    127.6700	  718.00	  517.98	-1707.55	  402.48
    127.7700	  712.00	  519.03	-1707.55	  403.53
    127.8700	  717.00	  520.10	-1707.55	  404.60
    127.9700	  680.00	  521.18	-1707.55	  405.68
    128.0700	  750.00	  522.28	-1707.55	  406.78
    128.1700	  765.00	  523.38	-1707.55	  407.88
    128.2700	  779.00	  524.50	-1707.55	  409.00
    128.3700	  819.00	  525.64	-1707.55	  410.14
    128.4700	  799.00	  526.78	-1707.55	  411.28
    128.5700	    0.00	  527.94	-1707.55	  412.44
    128.6700	    0.00	  529.12	-1707.55	  413.62
     12.3124	        	        	        	        	       0	(  0  0  2)	  0  1
     24.8982	        	        	        	        	       0	(  0  0  4)	  0  1
     28.3464	        	        	        	        	       0	(  1  0  0)	  0  1
     29.0436	        	        	        	        	       0	(  1  0  1)	  0  1
     31.0499	        	        	        	        	       0	(  1  0  2)	  0  1
     34.1586	        	        	        	        	       0	(  1  0  3)	  0  1
     37.8002	        	        	        	        	       0	(  0  0  6)	  0  1
     38.1361	        	        	        	        	       0	(  1  0  4)	  0  1
     42.7868	        	        	        	        	       0	(  1  0  5)	  0  1
     47.9717	        	        	        	        	       0	(  1  0  6)	  0  1
     50.2932	        	        	        	        	       0	(  1  1  0)	  0  1
     51.2248	        	        	        	        	       0	(  0  0  8)	  0  1
     52.0164	        	        	        	        	       0	(  1  1  2)	  0  1
     53.6031	        	        	        	        	       0	(  1  0  7)	  0  1
     56.9649	        	        	        	        	       0	(  1  1  4)	  0  1
     58.7945	        	        	        	        	       0	(  2  0  0)	  0  1
     59.1861	        	        	        	        	       0	(  2  0  1)	  0  1
     59.6347	        	        	        	        	       0	(  1  0  8)	  0  1
     60.3516	        	        	        	        	       0	(  2  0  2)	  0  1
     62.2652	        	        	        	        	       0	(  2  0  3)	  0  1
     64.6609	        	        	        	        	       0	(  1  1  6)	  0  1
     64.8897	        	        	        	        	       0	(  2  0  4)	  0  1
     65.4572	        	        	        	        	       0	(  0  0 10)	  0  1
     66.0525	        	        	        	        	       0	(  1  0  9)	  0  1
     68.1845	        	        	        	        	       0	(  2  0  5)	  0  1
     72.1128	        	        	        	        	       0	(  2  0  6)	  0  1
     72.8702	        	        	        	        	       0	(  1  0 10)	  0  1
     74.7008	        	        	        	        	       0	(  1  1  8)	  0  1
     76.6480	        	        	        	        	       0	(  2  0  7)	  0  1
     80.1299	        	        	        	        	       0	(  1  0 11)	  0  1
     80.9417	        	        	        	        	       0	(  0  0 12)	  0  1
     81.0490	        	        	        	        	       0	(  2  1  0)	  0  1
     81.3890	        	        	        	        	       0	(  2  1  1)	  0  1
     81.7797	        	        	        	        	       0	(  2  0  8)	  0  1
     82.4071	        	        	        	        	       0	(  2  1  2)	  0  1
     84.0989	        	        	        	        	       0	(  2  1  3)	  0  1
     86.4593	        	        	        	        	       0	(  2  1  4)	  0  1
     86.9757	        	        	        	        	       0	(  1  1 10)	  0  1
     87.5196	        	        	        	        	       0	(  2  0  9)	  0  1
     87.9066	        	        	        	        	       0	(  1  0 12)	  0  1
     89.4862	        	        	        	        	       0	(  2  1  5)	  0  1
     93.1851	        	        	        	        	       0	(  2  1  6)	  0  1
     93.9094	        	        	        	        	       0	(  2  0 10)	  0  1
     94.9486	        	        	        	        	       0	(  3  0  0)	  0  1
     95.2861	        	        	        	        	       0	(  3  0  1)	  0  1
     96.2998	        	        	        	        	       0	(  3  0  2)	  0  1
     96.3229	        	        	        	        	       0	(  1  0 13)	  0  1
     97.5756	        	        	        	        	       0	(  2  1  7)	  0  1
     97.9940	        	        	        	        	       0	(  3  0  3)	  0  1
     98.4871	        	        	        	        	       0	(  0  0 14)	  0  1
    100.3782	        	        	        	        	       0	(  3  0  4)	  0  1
    101.0344	        	        	        	        	       0	(  2  0 11)	  0  1
    101.8521	        	        	        	        	       0	(  1  1 12)	  0  1
    102.7007	        	        	        	        	       0	(  2  1  8)	  0  1
    103.4716	        	        	        	        	       0	(  3  0  5)	  0  1
    105.5797	        	        	        	        	       0	(  1  0 14)	  0  1
    107.3091	        	        	        	        	       0	(  3  0  6)	  0  1
    108.6411	        	        	        	        	       0	(  2  1  9)	  0  1
    109.0500	        	        	        	        	       0	(  2  0 12)	  0  1
    111.9528	        	        	        	        	       0	(  3  0  7)	  0  1
    115.5431	        	        	        	        	       0	(  2  1 10)	  0  1
    116.0293	        	        	        	        	       0	(  1  0 15)	  0  1
    116.6982	        	        	        	        	       0	(  2  2  0)	  0  1
    117.5111	        	        	        	        	       0	(  3  0  8)	  0  1
    118.2150	        	        	        	        	       0	(  2  2  2)	  0  1
    118.2410	        	        	        	        	       0	(  2  0 13)	  0  1
    119.9875	        	        	        	        	       0	(  0  0 16)	  0  1
    120.7087	        	        	        	        	       0	(  1  1 14)	  0  1
    122.9060	        	        	        	        	       0	(  2  2  4)	  0  1
    123.6782	        	        	        	        	       0	(  2  1 11)	  0  1
    124.1783	        	        	        	        	       0	(  3  0  9)	  0  1
    124.7769	        	        	        	        	       0	(  3  1  0)	  0  1
    125.1877	        	        	        	        	       0	(  3  1  1)	  0  1
    126.4330	        	        	        	        	       0	(  3  1  2)	  0  1
    128.3836	        	        	        	        	       0	(  1  0 16)	  0  1
    128.5546	        	        	        	        	       0	(  3  1  3)	  0  1
    129.1824	        	        	        	        	       0	(  2  0 14)	  0  1
    131.3589	        	        	        	        	       0	(  2  2  6)	  0  1
    131.6361	        	        	        	        	       0	(  3  1  4)	  0  1
    132.3311	        	        	        	        	       0	(  3  0 10)	  0  1
    133.6046	        	        	        	        	       0	(  2  1 12)	  0  1
    135.8320	        	        	        	        	       0	(  3  1  5)	  0  1
    141.4426	        	        	        	        	       0	(  3  1  6)	  0  1
    142.8342	        	        	        	        	       0	(  3  0 11)	  0  1
    143.3492	        	        	        	        	       0	(  2  0 15)	  0  1
    144.5816	        	        	        	        	       0	(  1  0 17)	  0  1
    145.6314	        	        	        	        	       0	(  2  2  8)	  0  1
    146.7941	        	        	        	        	       0	(  2  1 13)	  0  1
    149.1464	        	        	        	        	       0	(  3  1  7)	  0  1
    149.7003	        	        	        	        	       0	(  1  1 16)	  0  1
    154.1087	        	        	        	        	       0	(  0  0 18)	  0  1
    158.8013	        	        	        	        	       0	(  3  0 12)	  0  1
    159.0980	        	        	        	        	       0	(  4  0  0)	  0  1
    160.0671	        	        	        	        	       0	(  4  0  1)	  0  1
    161.2417	        	        	        	        	       0	(  3  1  8)	  0  1
    163.2967	        	        	        	        	       0	(  4  0  2)	  0  1
    170.0808	        	        	        	        	       0	(  2  0 16)	  0  1
    170.9004	        	        	        	        	       0	(  4  0  3)	  0  1
    174.9262	        	        	        	        	       0	(  2  1 14)	  0  1
