MSG Master    CELL:    5.91614   5.91614  23.25913   90.0000   90.0000  120.0000   SPGR: P 63/m m c             TEMP:   1017.65
  1   1280     2.52000     0.00000    -0.13292     0.00000     0.00000    0
    99     0     2
       0.00000      10.00000
     125.00000     130.00000
 2Theta	Yobs	Ycal	Yobs-Ycal	Backg	Posr	(hkl)	K
      0.7700	    0.00	  528.25	-1727.50	  411.55
      0.8700	    0.00	  529.13	-1727.50	  412.43
      0.9700	   49.00	  529.99	-1727.50	  413.29
      1.0700	   43.00	  530.85	-1727.50	  414.14
      1.1700	   48.00	  531.69	-1727.50	  414.99
      1.2700	   53.00	  532.52	-1727.50	  415.81
      1.3700	   37.00	  533.33	-1727.50	  416.63
      1.4700	   93.00	  534.14	-1727.50	  417.44
      1.5700	  316.00	  534.94	-1727.50	  418.23
      1.6700	  455.00	  535.72	-1727.50	  419.02
      1.7700	  576.00	  536.49	-1727.50	  419.79
      1.8700	  659.00	  537.26	-1727.50	  420.55
      1.9700	  765.00	  538.01	-1727.50	  421.30
      2.0700	  818.00	  538.75	-1727.50	  422.05
      2.1700	  782.00	  539.48	-1727.50	  422.77
      2.2700	  790.00	  540.19	-1727.50	  423.49
      2.3700	  712.00	  540.90	-1727.50	  424.20
      2.4700	  722.00	  541.60	-1727.50	  424.90
      2.5700	  710.00	  542.29	-1727.50	  425.59
      2.6700	  649.00	  542.96	-1727.50	  426.26
      2.7700	  660.00	  543.63	-1727.50	  426.93
      2.8700	  603.00	  544.29	-1727.50	  427.58
      2.9700	  616.00	  544.93	-1727.50	  428.23
      3.0700	  601.00	  545.57	-1727.50	  428.87
      3.1700	  635.00	  546.19	-1727.50	  429.49
      3.2700	  614.00	  546.81	-1727.50	  430.11
      3.3700	  693.00	  547.41	-1727.50	  430.71
      3.4700	  869.00	  548.01	-1727.50	  431.31
      3.5700	  878.00	  548.59	-1727.50	  431.89
      3.6700	  893.00	  549.17	-1727.50	  432.47
      3.7700	  969.00	  549.74	-1727.50	  433.03
      3.8700	 1024.00	  550.29	-1727.50	  433.59
      3.9700	 1136.00	  550.84	-1727.50	  434.14
      4.0700	 1098.00	  551.38	-1727.50	  434.68
      4.1700	 1151.00	  551.91	-1727.50	  435.20
      4.2700	 1187.00	  552.42	-1727.50	  435.72
      4.3700	 1098.00	  552.93	-1727.50	  436.23
      4.4700	 1140.00	  553.43	-1727.50	  436.73
      4.5700	 1096.00	  553.93	-1727.50	  437.22
      4.6700	 1080.00	  554.41	-1727.50	  437.71
      4.7700	 1063.00	  554.88	-1727.50	  438.18
      4.8700	 1066.00	  555.34	-1727.50	  438.64
      4.9700	 1029.00	  555.80	-1727.50	  439.10
      5.0700	  972.00	  556.25	-1727.50	  439.55
      5.1700	 1007.00	  556.68	-1727.50	  439.98
      5.2700	  915.00	  557.11	-1727.50	  440.41
      5.3700	  930.00	  557.53	-1727.50	  440.83
      5.4700	  832.00	  557.95	-1727.50	  441.24
      5.5700	  874.00	  558.35	-1727.50	  441.65
      5.6700	  879.00	  558.74	-1727.50	  442.04
      5.7700	  888.00	  559.13	-1727.50	  442.43
      5.8700	  874.00	  559.51	-1727.50	  442.81
      5.9700	  839.00	  559.88	-1727.50	  443.18
      6.0700	  785.00	  560.24	-1727.50	  443.54
      6.1700	  833.00	  560.59	-1727.50	  443.89
      6.2700	  786.00	  560.94	-1727.50	  444.24
      6.3700	  767.00	  561.28	-1727.50	  444.57
      6.4700	  754.00	  561.61	-1727.50	  444.90
      6.5700	  790.00	  561.93	-1727.50	  445.23
      6.6700	  741.00	  562.24	-1727.50	  445.54
      6.7700	  708.00	  562.55	-1727.50	  445.85
      6.8700	  764.00	  562.85	-1727.50	  446.14
      6.9700	  679.00	  563.14	-1727.50	  446.44
      7.0700	  681.00	  563.42	-1727.50	  446.72
      7.1700	  735.00	  563.70	-1727.50	  446.99
      7.2700	  678.00	  563.96	-1727.50	  447.26
      7.3700	  687.00	  564.23	-1727.50	  447.52
      7.4700	  655.00	  564.48	-1727.50	  447.78
      7.5700	  637.00	  564.72	-1727.50	  448.02
      7.6700	  630.00	  564.96	-1727.50	  448.26
      7.7700	  649.00	  565.20	-1727.50	  448.49
      7.8700	  629.00	  565.42	-1727.50	  448.72
      7.9700	  627.00	  565.64	-1727.50	  448.94
      8.0700	  597.00	  565.85	-1727.50	  449.15
      8.1700	  612.00	  566.05	-1727.50	  449.35
      8.2700	  614.00	  566.25	-1727.50	  449.55
      8.3700	  667.00	  566.44	-1727.50	  449.74
      8.4700	  627.00	  566.62	-1727.50	  449.92
      8.5700	  611.00	  566.80	-1727.50	  450.10
      8.6700	  706.00	  566.97	-1727.50	  450.27
      8.7700	  629.00	  567.13	-1727.50	  450.43
      8.8700	  629.00	  567.29	-1727.50	  450.59
      8.9700	  591.00	  567.44	-1727.50	  450.74
      9.0700	  624.00	  567.58	-1727.50	  450.88
      9.1700	  604.00	  567.72	-1727.50	  451.02
      9.2700	  603.00	  567.85	-1727.50	  451.15
      9.3700	  609.00	  567.98	-1727.50	  451.28
      9.4700	  567.00	  568.10	-1727.50	  451.39
      9.5700	  637.00	  568.21	-1727.50	  451.51
      9.6700	  565.00	  568.32	-1727.50	  451.61
      9.7700	  612.00	  568.42	-1727.50	  451.71
      9.8700	  662.00	  568.51	-1727.50	  451.81
      9.9700	  601.00	  568.60	-1727.50	  451.90
     10.0700	  647.00	  570.10	-1650.60	  451.98
     10.1700	  603.00	  570.34	-1694.84	  452.06
     10.2700	  574.00	  570.61	-1724.11	  452.13
     10.3700	  568.00	  570.93	-1730.43	  452.19
     10.4700	  604.00	  571.35	-1694.85	  452.25
     10.5700	  542.00	  571.92	-1757.42	  452.31
     10.6700	  600.00	  572.76	-1700.26	  452.35
     10.7700	  616.00	  573.96	-1685.46	  452.40
     10.8700	  603.00	  575.59	-1700.09	  452.43
     10.9700	  567.00	  577.68	-1738.18	  452.47
     11.0700	  613.00	  580.20	-1694.70	  452.49
     11.1700	  604.00	  583.16	-1706.66	  452.51
     11.2700	  616.00	  586.60	-1698.10	  452.53
     11.3700	  580.00	  590.63	-1738.13	  452.54
     11.4700	  597.00	  595.40	-1725.90	  452.55
     11.5700	  586.00	  601.15	-1742.65	  452.55
     11.6700	  589.00	  608.30	-1746.80	  452.54
     11.7700	  573.00	  617.44	-1771.94	  452.53
     11.8700	  630.00	  629.14	-1726.64	  452.52
     11.9700	  657.00	  643.21	-1713.71	  452.50
     12.0700	  687.00	  657.41	-1697.91	  452.47
     12.1700	  672.00	  666.24	-1721.74	  452.45
     12.2700	  720.00	  662.02	-1669.52	  452.41
     12.3700	  664.00	  642.80	-1706.30	  452.37
     12.4700	  645.00	  618.73	-1701.23	  452.33
     12.5700	  573.00	  599.40	-1753.90	  452.28
     12.6700	  626.00	  587.10	-1688.60	  452.23
     12.7700	  615.00	  580.29	-1692.79	  452.17
     12.8700	  583.00	  576.72	-1721.22	  452.11
     12.9700	  539.00	  574.72	-1763.22	  452.04
     13.0700	  599.00	  573.45	-1701.95	  451.97
     13.1700	  542.00	  572.53	-1758.03	  451.90
     13.2700	  555.00	  571.83	-1744.33	  451.82
     13.3700	  568.00	  571.27	-1730.77	  451.73
     13.4700	  556.00	  570.80	-1742.30	  451.65
     13.5700	  565.00	  570.41	-1732.91	  451.55
     13.6700	  528.00	  570.07	-1769.57	  451.46
     13.7700	  528.00	  569.76	-1769.26	  451.36
     13.8700	  585.00	  569.49	-1711.99	  451.25
     13.9700	  616.00	  569.24	-1680.74	  451.15
     14.0700	  528.00	  569.01	-1768.51	  451.03
     14.1700	  527.00	  568.79	-1769.29	  450.92
     14.2700	  555.00	  568.58	-1741.08	  450.80
     14.3700	  560.00	  568.38	-1735.88	  450.67
     14.4700	  568.00	  568.18	-1727.68	  450.55
     14.5700	  575.00	  567.99	-1720.49	  450.42
     14.6700	  586.00	  567.80	-1709.30	  450.28
     14.7700	  564.00	  567.62	-1731.12	  450.14
     14.8700	  563.00	  567.46	-1731.96	  450.00
     14.9700	  570.00	  567.28	-1724.78	  449.85
     15.0700	  534.00	  567.10	-1760.60	  449.70
     15.1700	  567.00	  566.91	-1727.41	  449.55
     15.2700	  515.00	  566.73	-1779.23	  449.40
     15.3700	  529.00	  566.54	-1765.04	  449.24
     15.4700	  575.00	  566.36	-1718.86	  449.07
     15.5700	  570.00	  566.17	-1723.67	  448.91
     15.6700	  558.00	  565.98	-1735.48	  448.74
     15.7700	  567.00	  565.79	-1726.29	  448.56
     15.8700	  621.00	  565.60	-1672.10	  448.39
     15.9700	  593.00	  565.41	-1699.91	  448.21
     16.0700	  583.00	  565.21	-1709.71	  448.03
     16.1700	  566.00	  565.02	-1726.52	  447.84
     16.2700	  525.00	  564.82	-1767.32	  447.65
     16.3700	  550.00	  564.62	-1742.12	  447.46
     16.4700	  526.00	  564.41	-1765.91	  447.27
     16.5700	  608.00	  564.21	-1683.71	  447.07
     16.6700	  560.00	  564.00	-1731.50	  446.87
     16.7700	  535.00	  563.79	-1756.29	  446.67
     16.8700	  561.00	  563.58	-1730.08	  446.46
     16.9700	  558.00	  563.36	-1732.86	  446.25
     17.0700	  548.00	  563.14	-1742.64	  446.04
     17.1700	  550.00	  562.92	-1740.42	  445.83
     17.2700	  567.00	  562.70	-1723.20	  445.61
     17.3700	  553.00	  562.48	-1736.98	  445.39
     17.4700	  553.00	  562.25	-1736.75	  445.17
     17.5700	  578.00	  562.03	-1711.53	  444.95
     17.6700	  521.00	  561.80	-1768.30	  444.72
     17.7700	  556.00	  561.56	-1733.06	  444.49
     17.8700	  546.00	  561.33	-1742.83	  444.26
     17.9700	  555.00	  561.09	-1733.59	  444.02
     18.0700	  520.00	  560.95	-1768.45	  443.79
     18.1700	  557.00	  560.71	-1731.21	  443.55
     18.2700	  531.00	  560.47	-1756.97	  443.31
     18.3700	  540.00	  560.23	-1747.73	  443.07
     18.4700	  511.00	  559.98	-1776.48	  442.82
     18.5700	  573.00	  559.74	-1714.24	  442.57
     18.6700	  552.00	  559.59	-1735.09	  442.32
     18.7700	  574.00	  559.34	-1712.84	  442.07
     18.8700	  494.00	  559.09	-1792.59	  441.82
     18.9700	  569.00	  558.84	-1717.34	  441.56
     19.0700	  546.00	  558.59	-1740.09	  441.30
     19.1700	  546.00	  558.33	-1739.83	  441.04
     19.2700	  566.00	  558.08	-1719.58	  440.78
     19.3700	  561.00	  557.82	-1724.32	  440.52
     19.4700	  512.00	  557.56	-1773.06	  440.25
     19.5700	  557.00	  557.30	-1727.80	  439.98
     19.6700	  542.00	  557.04	-1742.54	  439.71
     19.7700	  585.00	  556.78	-1699.28	  439.44
     19.8700	  499.00	  556.51	-1785.01	  439.17
     19.9700	  543.00	  556.25	-1740.75	  438.90
     20.0700	  537.00	  555.98	-1746.48	  438.62
     20.1700	  530.00	  555.72	-1753.22	  438.34
     20.2700	  552.00	  555.45	-1730.95	  438.06
     20.3700	  545.00	  555.21	-1737.71	  437.78
     20.4700	  543.00	  554.94	-1739.44	  437.50
     20.5700	  513.00	  554.67	-1769.17	  437.21
     20.6700	  599.00	  554.40	-1682.90	  436.93
     20.7700	  548.00	  554.13	-1733.63	  436.64
     20.8700	  578.00	  553.86	-1703.36	  436.35
     20.9700	  561.00	  553.59	-1720.09	  436.06
     21.0700	  507.00	  553.32	-1773.82	  435.77
     21.1700	  565.00	  553.05	-1715.55	  435.48
     21.2700	  505.00	  552.78	-1775.28	  435.19
     21.3700	  576.00	  552.51	-1704.01	  434.89
     21.4700	  531.00	  552.24	-1748.74	  434.59
     21.5700	  576.00	  551.97	-1703.47	  434.30
     21.6700	  570.00	  551.70	-1709.20	  434.00
     21.7700	  533.00	  551.44	-1745.94	  433.70
     21.8700	  509.00	  551.17	-1769.67	  433.40
     21.9700	  531.00	  550.86	-1747.36	  433.10
     22.0700	  590.00	  550.60	-1688.10	  432.79
     22.1700	  553.00	  550.35	-1724.85	  432.49
     22.2700	  545.00	  550.10	-1732.60	  432.18
     22.3700	  568.00	  549.85	-1709.35	  431.88
     22.4700	  533.00	  549.60	-1744.10	  431.57
     22.5700	  579.00	  549.37	-1697.87	  431.26
     22.6700	  593.00	  549.14	-1683.64	  430.95
     22.7700	  538.00	  548.92	-1738.42	  430.64
     22.8700	  563.00	  548.71	-1713.21	  430.33
     22.9700	  542.00	  548.52	-1734.02	  430.02
     23.0700	  528.00	  548.49	-1747.99	  429.71
     23.1700	  579.00	  548.34	-1696.84	  429.40
     23.2700	  579.00	  548.22	-1696.72	  429.08
     23.3700	  552.00	  548.13	-1723.63	  428.77
     23.4700	  561.00	  548.09	-1714.59	  428.45
     23.5700	  579.00	  548.12	-1696.62	  428.14
     23.6700	  547.00	  548.25	-1728.75	  427.82
     23.7700	  530.00	  548.53	-1746.03	  427.50
     23.8700	  551.00	  549.09	-1725.59	  427.19
     23.9700	  540.00	  550.14	-1737.64	  426.87
     24.0700	  556.00	  552.05	-1723.55	  426.55
     24.1700	  561.00	  555.38	-1721.88	  426.23
     24.2700	  573.00	  560.83	-1715.33	  425.91
     24.3700	  566.00	  569.08	-1730.58	  425.59
     24.4700	  609.00	  580.58	-1699.08	  425.27
     24.5700	  584.00	  594.85	-1738.35	  424.95
     24.6700	  601.00	  609.51	-1736.01	  424.63
     24.7700	  607.00	  619.38	-1739.88	  424.31
     24.8700	  641.00	  617.73	-1704.23	  423.98
     24.9700	  635.00	  603.21	-1695.71	  423.66
     25.0700	  635.00	  584.03	-1676.53	  423.34
     25.1700	  594.00	  567.95	-1701.45	  423.02
     25.2700	  569.00	  557.24	-1715.74	  422.69
     25.3700	  526.00	  551.06	-1752.56	  422.37
     25.4700	  605.00	  547.73	-1670.23	  422.05
     25.5700	  565.00	  545.87	-1708.37	  421.72
     25.6700	  576.00	  544.71	-1696.21	  421.40
     25.7700	  554.00	  543.90	-1717.40	  421.08
     25.8700	  509.00	  543.29	-1761.79	  420.75
     25.9700	  593.00	  542.82	-1677.32	  420.43
     26.0700	  546.00	  542.48	-1723.98	  420.10
     26.1700	  572.00	  542.22	-1697.72	  419.78
     26.2700	  542.00	  542.06	-1727.56	  419.46
     26.3700	  541.00	  541.98	-1728.48	  419.13
     26.4700	  562.00	  541.99	-1707.49	  418.81
     26.5700	  555.00	  542.09	-1714.59	  418.48
     26.6700	  545.00	  542.31	-1724.81	  418.16
     26.7700	  568.00	  542.66	-1702.16	  417.84
     26.8700	  532.00	  543.17	-1738.67	  417.51
     26.9700	  561.00	  543.90	-1710.40	  417.19
     27.0700	  557.00	  544.90	-1715.40	  416.86
     27.1700	  610.00	  546.29	-1663.79	  416.54
     27.2700	  570.00	  548.29	-1705.79	  416.22
     27.3700	  543.00	  551.34	-1735.84	  415.89
     27.4700	  549.00	  556.27	-1734.77	  415.57
     27.5700	  571.00	  564.64	-1721.14	  415.25
     27.6700	  557.00	  578.91	-1749.41	  414.93
     27.7700	  611.00	  602.36	-1718.86	  414.61
     27.8700	  613.00	  638.01	-1752.51	  414.28
     27.9700	  630.00	  686.43	-1783.93	  413.96
     28.0700	  726.00	  742.73	-1744.23	  413.64
     28.1700	  841.00	  793.81	-1680.31	  413.32
     28.2700	  920.00	  819.19	-1626.69	  413.00
     28.3700	  867.00	  805.14	-1665.64	  412.68
     28.4700	  796.00	  769.49	-1700.99	  412.36
     28.5700	  741.00	  745.83	-1732.33	  412.04
     28.6700	  721.00	  750.57	-1757.07	  411.72
     28.7700	  751.00	  779.52	-1756.02	  411.41
     28.8700	  804.00	  813.08	-1736.58	  411.09
     28.9700	  885.00	  822.63	-1665.13	  410.77
     29.0700	  810.00	  787.97	-1705.47	  410.46
     29.1700	  704.00	  722.74	-1746.24	  410.14
     29.2700	  681.00	  657.60	-1704.10	  409.82
     29.3700	  580.00	  608.88	-1756.38	  409.51
     29.4700	  535.00	  578.35	-1770.85	  409.20
     29.5700	  575.00	  561.29	-1713.79	  408.88
     29.6700	  585.00	  552.13	-1694.63	  408.57
     29.7700	  607.00	  546.96	-1667.46	  408.26
     29.8700	  566.00	  543.77	-1705.27	  407.95
     29.9700	  610.00	  541.70	-1659.20	  407.63
     30.0700	  541.00	  540.51	-1727.01	  407.32
     30.1700	  555.00	  540.31	-1712.81	  407.01
     30.2700	  545.00	  541.39	-1723.89	  406.71
     30.3700	  565.00	  544.57	-1707.07	  406.40
     30.4700	  578.00	  550.98	-1700.48	  406.09
     30.5700	  558.00	  561.77	-1731.27	  405.78
     30.6700	  567.00	  577.18	-1737.68	  405.48
     30.7700	  601.00	  595.36	-1721.86	  405.17
     30.8700	  616.00	  611.50	-1723.00	  404.87
     30.9700	  570.00	  618.15	-1775.65	  404.57
     31.0700	  565.00	  609.57	-1772.07	  404.26
     31.1700	  556.00	  589.69	-1761.19	  403.96
     31.2700	  560.00	  568.47	-1735.97	  403.66
     31.3700	  559.00	  551.86	-1720.36	  403.36
     31.4700	  575.00	  541.05	-1693.55	  403.06
     31.5700	  526.00	  534.84	-1736.34	  402.76
     31.6700	  484.00	  531.46	-1774.96	  402.47
     31.7700	  569.00	  529.57	-1688.07	  402.17
     31.8700	  574.00	  528.41	-1681.91	  401.88
     31.9700	  586.00	  527.64	-1669.14	  401.58
     32.0700	  548.00	  527.12	-1706.62	  401.29
     32.1700	  578.00	  526.79	-1676.29	  401.00
     32.2700	  549.00	  526.65	-1705.15	  400.70
     32.3700	  553.00	  526.67	-1701.17	  400.41
     32.4700	  561.00	  526.86	-1693.36	  400.13
     32.5700	  568.00	  527.26	-1686.76	  399.84
     32.6700	  532.00	  527.89	-1723.39	  399.55
     32.7700	  564.00	  528.80	-1692.30	  399.26
     32.8700	  549.00	  530.09	-1708.59	  398.98
     32.9700	  561.00	  531.90	-1698.40	  398.69
     33.0700	  555.00	  534.48	-1706.98	  398.41
     33.1700	  524.00	  538.36	-1741.86	  398.13
     33.2700	  563.00	  544.67	-1709.17	  397.85
     33.3700	  543.00	  555.67	-1740.17	  397.57
     33.4700	  569.00	  575.36	-1733.86	  397.29
     33.5700	  625.00	  609.70	-1712.20	  397.01
     33.6700	  638.00	  665.01	-1754.51	  396.74
     33.7700	  763.00	  743.62	-1708.12	  396.46
     33.8700	  885.00	  837.54	-1680.04	  396.19
     33.9700	 1004.00	  924.24	-1647.74	  395.92
     34.0700	  999.00	  968.32	-1696.82	  395.65
     34.1700	 1006.00	  940.17	-1661.67	  395.38
     34.2700	  912.00	  851.92	-1667.42	  395.11
     34.3700	  849.00	  748.70	-1627.20	  394.84
     34.4700	  655.00	  662.74	-1735.24	  394.57
     34.5700	  691.00	  603.77	-1640.27	  394.31
     34.6700	  576.00	  568.49	-1719.99	  394.04
     34.7700	  546.00	  549.06	-1730.56	  393.78
     34.8700	  581.00	  538.42	-1684.92	  393.52
     34.9700	  534.00	  532.10	-1725.60	  393.26
     35.0700	  552.00	  527.84	-1703.34	  393.00
     35.1700	  471.00	  524.73	-1781.23	  392.75
     35.2700	  514.00	  522.29	-1735.79	  392.49
     35.3700	  532.00	  520.32	-1715.82	  392.23
     35.4700	  477.00	  518.69	-1769.19	  391.98
     35.5700	  537.00	  517.33	-1707.83	  391.73
     35.6700	  504.00	  516.17	-1739.67	  391.48
     35.7700	  459.00	  515.16	-1783.66	  391.23
     35.8700	  514.00	  514.28	-1727.78	  390.98
     35.9700	  495.00	  513.51	-1746.01	  390.74
     36.0700	  516.00	  513.26	-1724.76	  390.49
     36.1700	  490.00	  512.65	-1750.15	  390.25
     36.2700	  504.00	  512.11	-1735.61	  390.00
     36.3700	  493.00	  511.62	-1746.12	  389.76
     36.4700	  486.00	  511.18	-1752.68	  389.52
     36.5700	  531.00	  510.80	-1707.30	  389.29
     36.6700	  501.00	  510.49	-1736.99	  389.05
     36.7700	  530.00	  510.24	-1707.74	  388.81
     36.8700	  492.00	  510.09	-1745.59	  388.58
     36.9700	  491.00	  510.12	-1746.62	  388.35
     37.0700	  485.00	  510.47	-1752.97	  388.12
     37.1700	  450.00	  511.36	-1788.86	  387.89
     37.2700	  484.00	  513.09	-1756.59	  387.66
     37.3700	  528.00	  515.86	-1715.36	  387.43
     37.4700	  497.00	  519.59	-1750.09	  387.21
     37.5700	  536.00	  523.64	-1715.14	  386.99
     37.6700	  518.00	  526.75	-1736.25	  386.76
     37.7700	  535.00	  527.40	-1719.90	  386.54
     37.8700	  537.00	  525.07	-1715.57	  386.32
     37.9700	  568.00	  520.96	-1680.46	  386.11
     38.0700	  539.00	  516.62	-1705.12	  385.89
     38.1700	  551.00	  512.86	-1689.36	  385.68
     38.2700	  477.00	  509.95	-1760.45	  385.46
     38.3700	  515.00	  507.91	-1720.41	  385.25
     38.4700	  502.00	  506.70	-1732.20	  385.04
     38.5700	  535.00	  505.78	-1698.28	  384.83
     38.6700	  511.00	  505.06	-1721.56	  384.63
     38.7700	  498.00	  504.59	-1734.09	  384.42
     38.8700	  500.00	  504.21	-1731.71	  384.22
     38.9700	  474.00	  503.89	-1757.39	  384.02
     39.0700	  473.00	  503.61	-1758.11	  383.82
     39.1700	  483.00	  503.35	-1747.85	  383.62
     39.2700	  503.00	  503.11	-1727.61	  383.42
     39.3700	  547.00	  502.89	-1683.39	  383.22
     39.4700	  508.00	  502.59	-1722.09	  383.03
     39.5700	  520.00	  502.40	-1709.90	  382.84
     39.6700	  495.00	  502.22	-1734.72	  382.65
     39.7700	  493.00	  502.05	-1736.55	  382.46
     39.8700	  546.00	  501.90	-1683.40	  382.27
     39.9700	  483.00	  501.75	-1746.25	  382.08
     40.0700	  517.00	  501.62	-1712.12	  381.90
     40.1700	  491.00	  501.50	-1738.00	  381.72
     40.2700	  499.00	  501.39	-1729.89	  381.54
     40.3700	  500.00	  501.30	-1728.80	  381.36
     40.4700	  485.00	  501.22	-1743.72	  381.18
     40.5700	  481.00	  501.17	-1747.67	  381.00
     40.6700	  510.00	  501.13	-1718.63	  380.83
     40.7700	  509.00	  501.12	-1719.62	  380.65
     40.8700	  480.00	  501.13	-1748.63	  380.48
     40.9700	  525.00	  501.66	-1704.16	  380.31
     41.0700	  499.00	  501.76	-1730.26	  380.14
     41.1700	  484.00	  501.90	-1745.40	  379.98
     41.2700	  501.00	  502.11	-1728.61	  379.81
     41.3700	  458.00	  502.40	-1771.90	  379.65
     41.4700	  496.00	  502.80	-1734.30	  379.49
     41.5700	  468.00	  503.34	-1762.84	  379.33
     41.6700	  521.00	  504.11	-1710.61	  379.17
     41.7700	  507.00	  505.23	-1725.73	  379.01
     41.8700	  516.00	  507.09	-1718.59	  378.86
     41.9700	  468.00	  510.32	-1769.82	  378.70
     42.0700	  507.00	  516.07	-1736.57	  378.55
     42.1700	  549.00	  525.97	-1704.47	  378.40
     42.2700	  538.00	  541.74	-1731.24	  378.25
     42.3700	  521.00	  564.33	-1770.83	  378.11
     42.4700	  554.00	  592.19	-1765.69	  377.96
     42.5700	  603.00	  620.30	-1744.80	  377.82
     42.6700	  585.00	  639.91	-1782.41	  377.67
     42.7700	  564.00	  641.69	-1805.19	  377.53
     42.8700	  603.00	  624.11	-1748.61	  377.40
     42.9700	  547.00	  595.65	-1776.15	  377.26
     43.0700	  503.00	  566.60	-1791.10	  377.12
     43.1700	  583.00	  542.84	-1687.34	  376.99
     43.2700	  510.00	  526.09	-1743.59	  376.86
     43.3700	  521.00	  515.55	-1722.05	  376.73
     43.4700	  520.00	  509.62	-1717.12	  376.60
     43.5700	  488.00	  506.16	-1745.66	  376.47
     43.6700	  515.00	  504.13	-1716.63	  376.35
     43.7700	  486.00	  502.83	-1744.33	  376.22
     43.8700	  528.00	  501.91	-1701.41	  376.10
     43.9700	  515.00	  501.21	-1713.71	  375.98
     44.0700	  507.00	  500.66	-1721.16	  375.86
     44.1700	  517.00	  500.23	-1710.73	  375.74
     44.2700	  483.00	  499.88	-1744.38	  375.63
     44.3700	  481.00	  499.59	-1746.09	  375.52
     44.4700	  512.00	  499.37	-1714.87	  375.40
     44.5700	  499.00	  499.19	-1727.69	  375.29
     44.6700	  522.00	  499.05	-1704.55	  375.18
     44.7700	  484.00	  498.95	-1742.45	  375.08
     44.8700	  524.00	  499.06	-1702.56	  374.97
     44.9700	  475.00	  499.02	-1751.52	  374.87
     45.0700	  486.00	  499.01	-1740.51	  374.77
     45.1700	  491.00	  499.02	-1735.52	  374.66
     45.2700	  526.00	  499.06	-1700.56	  374.57
     45.3700	  483.00	  498.98	-1743.48	  374.47
     45.4700	  507.00	  499.07	-1719.57	  374.37
     45.5700	  513.00	  499.19	-1713.69	  374.28
     45.6700	  500.00	  499.33	-1726.83	  374.19
     45.7700	  518.00	  499.50	-1709.00	  374.10
     45.8700	  513.00	  499.71	-1714.21	  374.01
     45.9700	  471.00	  499.95	-1756.45	  373.92
     46.0700	  494.00	  500.27	-1733.77	  373.83
     46.1700	  511.00	  500.58	-1717.08	  373.75
     46.2700	  531.00	  500.95	-1697.45	  373.67
     46.3700	  483.00	  501.37	-1745.87	  373.59
     46.4700	  528.00	  501.92	-1701.42	  373.51
     46.5700	  532.00	  502.49	-1697.99	  373.43
     46.6700	  492.00	  503.19	-1738.69	  373.35
     46.7700	  504.00	  504.00	-1727.50	  373.28
     46.8700	  516.00	  505.00	-1716.50	  373.20
     46.9700	  501.00	  506.36	-1732.86	  373.13
     47.0700	  533.00	  508.31	-1702.81	  373.06
     47.1700	  495.00	  511.32	-1743.82	  373.00
     47.2700	  513.00	  516.10	-1730.60	  372.93
     47.3700	  515.00	  523.52	-1736.02	  372.86
     47.4700	  522.00	  534.31	-1739.81	  372.80
     47.5700	  541.00	  548.56	-1735.06	  372.74
     47.6700	  579.00	  565.14	-1713.64	  372.68
     47.7700	  600.00	  581.18	-1708.68	  372.62
     47.8700	  584.00	  592.19	-1735.69	  372.56
     47.9700	  582.00	  593.99	-1739.49	  372.51
     48.0700	  601.00	  586.25	-1712.75	  372.45
     48.1700	  582.00	  573.10	-1718.60	  372.40
     48.2700	  564.00	  559.40	-1722.90	  372.35
     48.3700	  552.00	  548.25	-1723.75	  372.30
     48.4700	  536.00	  540.93	-1732.43	  372.25
     48.5700	  506.00	  537.44	-1758.94	  372.21
     48.6700	  467.00	  537.20	-1797.70	  372.16
     48.7700	  538.00	  539.47	-1728.97	  372.12
     48.8700	  567.00	  543.78	-1704.28	  372.08
     48.9700	  525.00	  550.39	-1752.89	  372.04
     49.0700	  512.00	  559.02	-1774.52	  372.00
     49.1700	  587.00	  571.28	-1711.78	  371.96
     49.2700	  527.00	  589.96	-1790.46	  371.93
     49.3700	  612.00	  620.54	-1736.04	  371.89
     49.4700	  669.00	  672.62	-1731.12	  371.86
     49.5700	  690.00	  760.50	-1798.00	  371.83
     49.6700	  817.00	  901.53	-1812.03	  371.80
     49.7700	 1038.00	 1110.44	-1799.94	  371.77
     49.8700	 1304.00	 1389.64	-1813.14	  371.75
     49.9700	 1757.00	 1718.03	-1688.53	  371.72
     50.0700	 2080.00	 2041.17	-1688.67	  371.70
     50.1700	 2468.00	 2271.69	-1531.19	  371.68
     50.2700	 2388.00	 2320.21	-1659.71	  371.66
     50.3700	 2202.00	 2162.64	-1688.14	  371.64
     50.4700	 1849.00	 1867.50	-1746.00	  371.62
     50.5700	 1458.00	 1534.08	-1803.58	  371.60
     50.6700	 1125.00	 1234.07	-1836.57	  371.59
     50.7700	  834.00	 1001.89	-1895.39	  371.58
     50.8700	  745.00	  843.19	-1825.69	  371.56
     50.9700	  689.00	  745.63	-1784.13	  371.55
     51.0700	  617.00	  689.69	-1800.19	  371.54
     51.1700	  650.00	  656.49	-1733.99	  371.54
     51.2700	  660.00	  632.70	-1700.20	  371.53
     51.3700	  601.00	  612.11	-1738.61	  371.53
     51.4700	  617.00	  593.60	-1704.10	  371.52
     51.5700	  598.00	  578.00	-1707.50	  371.52
     51.6700	  543.00	  565.31	-1749.81	  371.52
     51.7700	  556.00	  555.88	-1727.38	  371.52
     51.8700	  592.00	  549.37	-1684.87	  371.52
     51.9700	  536.00	  545.24	-1736.74	  371.53
     52.0700	  604.00	  542.92	-1666.42	  371.53
     52.1700	  549.00	  542.03	-1720.53	  371.54
     52.2700	  530.00	  542.41	-1739.91	  371.55
     52.3700	  593.00	  544.15	-1678.65	  371.55
     52.4700	  538.00	  547.76	-1737.26	  371.56
     52.5700	  564.00	  554.38	-1717.88	  371.58
     52.6700	  585.00	  566.17	-1708.67	  371.59
     52.7700	  631.00	  586.67	-1683.18	  371.60
     52.8700	  631.00	  620.92	-1717.42	  371.62
     52.9700	  721.00	  674.60	-1681.10	  371.64
     53.0700	  790.00	  752.25	-1689.75	  371.65
     53.1700	  873.00	  854.26	-1708.76	  371.67
     53.2700	 1013.00	  973.64	-1688.14	  371.69
     53.3700	 1150.00	 1093.22	-1670.72	  371.72
     53.4700	 1213.00	 1185.07	-1699.57	  371.74
     53.5700	 1199.00	 1218.24	-1746.74	  371.76
     53.6700	 1128.00	 1178.62	-1778.12	  371.79
     53.7700	 1033.00	 1082.31	-1776.81	  371.82
     53.8700	  893.00	  961.43	-1795.93	  371.85
     53.9700	  805.00	  843.43	-1765.93	  371.87
     54.0700	  695.00	  744.26	-1776.76	  371.91
     54.1700	  627.00	  669.91	-1770.41	  371.94
     54.2700	  595.00	  619.29	-1751.79	  371.97
     54.3700	  626.00	  587.57	-1689.07	  372.01
     54.4700	  581.00	  569.01	-1715.51	  372.04
     54.5700	  592.00	  558.65	-1694.15	  372.08
     54.6700	  596.00	  553.10	-1684.60	  372.12
     54.7700	  550.00	  550.33	-1727.83	  372.15
     54.8700	  600.00	  549.29	-1676.79	  372.19
     54.9700	  556.00	  549.45	-1720.95	  372.24
     55.0700	  542.00	  550.62	-1736.12	  372.28
     55.1700	  589.00	  552.74	-1691.24	  372.32
     55.2700	  564.00	  555.84	-1719.34	  372.37
     55.3700	  586.00	  560.03	-1701.53	  372.41
     55.4700	  582.00	  565.55	-1711.05	  372.46
     55.5700	  520.00	  572.76	-1780.26	  372.51
     55.6700	  564.00	  582.57	-1746.07	  372.56
     55.7700	  578.00	  596.54	-1746.04	  372.61
     55.8700	  637.00	  617.80	-1708.30	  372.66
     55.9700	  603.00	  651.93	-1776.43	  372.71
     56.0700	  705.00	  707.94	-1730.44	  372.77
     56.1700	  774.00	  798.63	-1752.13	  372.82
     56.2700	  870.00	  939.13	-1796.63	  372.88
     56.3700	 1105.00	 1142.97	-1765.47	  372.93
     56.4700	 1264.00	 1415.51	-1879.01	  372.99
     56.5700	 1715.00	 1746.11	-1758.61	  373.05
     56.6700	 2004.00	 2101.35	-1824.85	  373.11
     56.7700	 2416.00	 2420.39	-1731.89	  373.17
     56.8700	 2639.00	 2621.51	-1710.01	  373.23
     56.9700	 2559.00	 2635.40	-1803.90	  373.29
     57.0700	 2373.00	 2456.29	-1810.79	  373.36
     57.1700	 2154.00	 2148.11	-1721.61	  373.42
     57.2700	 1860.00	 1794.97	-1662.47	  373.49
     57.3700	 1469.00	 1461.36	-1719.86	  373.56
     57.4700	 1130.00	 1183.93	-1781.43	  373.62
     57.5700	  938.00	  975.82	-1765.32	  373.69
     57.6700	  850.00	  833.35	-1710.85	  373.76
     57.7700	  777.00	  744.23	-1694.73	  373.83
     57.8700	  707.00	  694.24	-1714.74	  373.90
     57.9700	  713.00	  671.82	-1686.32	  373.98
     58.0700	  718.00	  669.64	-1679.14	  374.05
     58.1700	  650.00	  684.34	-1761.84	  374.12
     58.2700	  725.00	  715.00	-1717.50	  374.20
     58.3700	  797.00	  761.51	-1692.01	  374.27
     58.4700	  873.00	  822.94	-1677.44	  374.35
     58.5700	  926.00	  895.96	-1697.46	  374.43
     58.6700	 1056.00	  974.04	-1645.54	  374.51
     58.7700	 1104.00	 1048.51	-1672.01	  374.58
     58.8700	 1273.00	 1112.46	-1566.96	  374.66
     58.9700	 1295.00	 1162.28	-1594.78	  374.75
     59.0700	 1359.00	 1194.10	-1562.60	  374.83
     59.1700	 1362.00	 1203.29	-1568.79	  374.91
     59.2700	 1352.00	 1190.78	-1566.28	  374.99
     59.3700	 1314.00	 1166.28	-1579.78	  375.08
     59.4700	 1250.00	 1142.01	-1619.51	  375.16
     59.5700	 1141.00	 1126.79	-1713.29	  375.25
     59.6700	 1198.00	 1126.85	-1656.35	  375.33
     59.7700	 1196.00	 1149.14	-1680.64	  375.42
     59.8700	 1272.00	 1199.43	-1654.93	  375.51
     59.9700	 1322.00	 1276.41	-1681.91	  375.60
     60.0700	 1369.00	 1367.85	-1726.35	  375.69
     60.1700	 1500.00	 1450.07	-1677.57	  375.78
     60.2700	 1561.00	 1492.24	-1658.74	  375.87
     60.3700	 1477.00	 1470.03	-1720.53	  375.96
     60.4700	 1437.00	 1382.39	-1672.89	  376.05
     60.5700	 1262.00	 1251.39	-1716.89	  376.14
     60.6700	 1087.00	 1105.69	-1746.19	  376.23
     60.7700	  992.00	  967.99	-1703.49	  376.33
     60.8700	  819.00	  852.16	-1760.66	  376.42
     60.9700	  686.00	  764.31	-1805.81	  376.52
     61.0700	  714.00	  704.88	-1718.38	  376.61
     61.1700	  666.00	  671.41	-1732.91	  376.71
     61.2700	  655.00	  661.09	-1733.59	  376.81
     61.3700	  680.00	  672.66	-1720.16	  376.90
     61.4700	  666.00	  706.95	-1768.45	  377.00
     61.5700	  710.00	  766.17	-1783.67	  377.10
     61.6700	  773.00	  852.06	-1806.56	  377.20
     61.7700	  934.00	  963.39	-1756.89	  377.30
     61.8700	 1084.00	 1093.56	-1737.06	  377.40
     61.9700	 1173.00	 1228.83	-1783.33	  377.50
     62.0700	 1265.00	 1347.29	-1809.79	  377.60
     62.1700	 1388.00	 1421.65	-1761.15	  377.70
     62.2700	 1344.00	 1429.28	-1812.78	  377.81
     62.3700	 1322.00	 1367.04	-1772.54	  377.91
     62.4700	 1224.00	 1253.84	-1757.34	  378.01
     62.5700	 1083.00	 1117.25	-1761.75	  378.12
     62.6700	  899.00	  980.82	-1809.32	  378.22
     62.7700	  853.00	  860.10	-1734.60	  378.32
     62.8700	  703.00	  762.84	-1787.34	  378.43
     62.9700	  684.00	  690.56	-1734.06	  378.54
     63.0700	  651.00	  640.59	-1717.09	  378.64
     63.1700	  610.00	  608.21	-1725.71	  378.75
     63.2700	  618.00	  588.51	-1698.01	  378.85
     63.3700	  587.00	  577.47	-1717.97	  378.96
     63.4700	  574.00	  572.43	-1725.93	  379.07
     63.5700	  561.00	  572.14	-1738.64	  379.18
     63.6700	  586.00	  576.57	-1718.07	  379.29
     63.7700	  601.00	  586.69	-1713.19	  379.39
     63.8700	  644.00	  604.07	-1687.57	  379.50
     63.9700	  673.00	  630.61	-1685.11	  379.61
     64.0700	  686.00	  667.77	-1709.27	  379.72
     64.1700	  718.00	  715.97	-1725.47	  379.83
     64.2700	  809.00	  773.63	-1692.13	  379.94
     64.3700	  890.00	  836.58	-1674.08	  380.05
     64.4700	  966.00	  897.59	-1659.09	  380.16
     64.5700	  992.00	  946.51	-1682.01	  380.27
     64.6700	 1006.00	  974.68	-1696.18	  380.38
     64.7700	  984.00	  976.54	-1720.04	  380.50
     64.8700	  993.00	  953.20	-1687.70	  380.61
     64.9700	  925.00	  910.96	-1713.46	  380.72
     65.0700	  851.00	  858.63	-1735.13	  380.83
     65.1700	  787.00	  804.64	-1745.14	  380.94
     65.2700	  761.00	  754.86	-1721.36	  381.06
     65.3700	  679.00	  711.95	-1760.45	  381.17
     65.4700	  658.00	  676.18	-1745.68	  381.28
     65.5700	  629.00	  646.84	-1745.34	  381.40
     65.6700	  607.00	  623.20	-1743.70	  381.51
     65.7700	  582.00	  604.64	-1750.14	  381.62
     65.8700	  573.00	  590.63	-1745.13	  381.74
     65.9700	  593.00	  580.31	-1714.81	  381.85
     66.0700	  574.00	  573.24	-1726.74	  381.96
     66.1700	  518.00	  568.92	-1778.42	  382.08
     66.2700	  544.00	  566.93	-1750.43	  382.19
     66.3700	  553.00	  566.97	-1741.47	  382.30
     66.4700	  554.00	  568.82	-1742.32	  382.42
     66.5700	  591.00	  572.48	-1708.98	  382.53
     66.6700	  508.00	  578.25	-1797.75	  382.65
     66.7700	  601.00	  586.92	-1713.42	  382.76
     66.8700	  567.00	  600.05	-1760.55	  382.88
     66.9700	  616.00	  620.30	-1731.80	  382.99
     67.0700	  612.00	  651.95	-1767.45	  383.10
     67.1700	  695.00	  700.68	-1733.18	  383.22
     67.2700	  792.00	  774.18	-1709.68	  383.33
     67.3700	  906.00	  880.27	-1701.77	  383.45
     67.4700	 1026.00	 1026.08	-1727.58	  383.56
     67.5700	 1237.00	 1214.98	-1705.48	  383.68
     67.6700	 1475.00	 1443.94	-1696.44	  383.79
     67.7700	 1684.00	 1700.80	-1744.30	  383.90
     67.8700	 2037.00	 1962.66	-1653.16	  384.02
     67.9700	 2226.00	 2195.32	-1696.82	  384.13
     68.0700	 2411.00	 2356.47	-1672.97	  384.25
     68.1700	 2358.00	 2408.11	-1777.61	  384.36
     68.2700	 2370.00	 2336.12	-1693.62	  384.47
     68.3700	 2135.00	 2159.87	-1752.37	  384.59
     68.4700	 1856.00	 1919.62	-1791.12	  384.70
     68.5700	 1742.00	 1656.82	-1642.32	  384.81
     68.6700	 1401.00	 1403.79	-1730.29	  384.93
     68.7700	 1163.00	 1181.52	-1746.02	  385.04
     68.8700	  967.00	 1000.27	-1760.77	  385.15
     68.9700	  823.00	  862.13	-1766.63	  385.26
     69.0700	  760.00	  762.71	-1730.21	  385.38
     69.1700	  665.00	  694.62	-1757.12	  385.49
     69.2700	  629.00	  649.78	-1748.28	  385.60
     69.3700	  632.00	  620.98	-1716.48	  385.71
     69.4700	  604.00	  602.59	-1726.09	  385.82
     69.5700	  580.00	  590.72	-1738.22	  385.94
     69.6700	  545.00	  582.83	-1765.33	  386.05
     69.7700	  618.00	  577.44	-1686.94	  386.16
     69.8700	  559.00	  573.71	-1742.21	  386.27
     69.9700	  528.00	  571.22	-1770.72	  386.38
     70.0700	  583.00	  569.71	-1714.21	  386.49
     70.1700	  572.00	  569.11	-1724.61	  386.60
     70.2700	  512.00	  569.37	-1784.87	  386.71
     70.3700	  551.00	  570.61	-1747.11	  386.82
     70.4700	  562.00	  573.07	-1738.57	  386.93
     70.5700	  559.00	  577.18	-1745.68	  387.03
     70.6700	  547.00	  583.77	-1764.27	  387.14
     70.7700	  606.00	  594.18	-1715.68	  387.25
     70.8700	  571.00	  610.56	-1767.06	  387.36
     70.9700	  593.00	  635.97	-1770.47	  387.46
     71.0700	  646.00	  674.49	-1755.99	  387.57
     71.1700	  725.00	  730.96	-1733.46	  387.68
     71.2700	  833.00	  810.34	-1704.84	  387.78
     71.3700	  880.00	  916.67	-1764.17	  387.89
     71.4700	 1039.00	 1051.49	-1739.99	  387.99
     71.5700	 1202.00	 1213.24	-1738.74	  388.10
     71.6700	 1392.00	 1392.52	-1728.02	  388.20
     71.7700	 1545.00	 1576.28	-1758.78	  388.31
     71.8700	 1767.00	 1744.19	-1704.69	  388.41
     71.9700	 1790.00	 1870.84	-1808.34	  388.51
     72.0700	 1825.00	 1931.32	-1833.82	  388.61
     72.1700	 1850.00	 1911.53	-1789.03	  388.72
     72.2700	 1830.00	 1816.35	-1713.85	  388.82
     72.3700	 1718.00	 1666.56	-1676.06	  388.92
     72.4700	 1602.00	 1488.35	-1613.85	  389.02
     72.5700	 1330.00	 1304.96	-1702.46	  389.12
     72.6700	 1204.00	 1133.53	-1657.03	  389.22
     72.7700	 1043.00	  984.70	-1669.20	  389.31
     72.8700	  920.00	  863.29	-1670.79	  389.41
     72.9700	  820.00	  769.09	-1676.59	  389.51
     73.0700	  769.00	  700.11	-1658.61	  389.61
     73.1700	  716.00	  651.36	-1662.86	  389.70
     73.2700	  680.00	  617.94	-1665.44	  389.80
     73.3700	  651.00	  595.44	-1671.94	  389.89
     73.4700	  634.00	  580.35	-1673.85	  389.99
     73.5700	  612.00	  570.14	-1685.64	  390.08
     73.6700	  580.00	  563.12	-1710.62	  390.18
     73.7700	  624.00	  558.24	-1661.74	  390.27
     73.8700	  609.00	  554.87	-1673.37	  390.36
     73.9700	  556.00	  552.63	-1724.13	  390.45
     74.0700	  607.00	  551.30	-1671.80	  390.54
     74.1700	  609.00	  550.67	-1669.17	  390.63
     74.2700	  630.00	  550.56	-1648.06	  390.72
     74.3700	  651.00	  550.76	-1627.26	  390.81
     74.4700	  586.00	  551.03	-1692.53	  390.90
     74.5700	  664.00	  551.08	-1614.58	  390.99
     74.6700	  651.00	  550.69	-1627.19	  391.07
     74.7700	  585.00	  549.72	-1692.22	  391.16
     74.8700	  605.00	  548.24	-1670.74	  391.24
     74.9700	  632.00	  546.47	-1641.97	  391.33
     75.0700	  597.00	  544.73	-1675.23	  391.41
     75.1700	  539.00	  543.36	-1731.86	  391.49
     75.2700	  590.00	  542.66	-1680.16	  391.58
     75.3700	  576.00	  543.12	-1694.62	  391.66
     75.4700	  585.00	  545.13	-1687.63	  391.74
     75.5700	  556.00	  549.16	-1720.66	  391.82
     75.6700	  555.00	  555.72	-1728.22	  391.90
     75.7700	  558.00	  565.19	-1734.69	  391.98
     75.8700	  622.00	  578.05	-1683.55	  392.05
     75.9700	  597.00	  594.28	-1724.78	  392.13
     76.0700	  632.00	  613.52	-1709.02	  392.20
     76.1700	  656.00	  634.90	-1706.40	  392.28
     76.2700	  664.00	  656.96	-1720.46	  392.35
     76.3700	  699.00	  677.64	-1706.14	  392.43
     76.4700	  685.00	  694.30	-1736.80	  392.50
     76.5700	  688.00	  704.36	-1743.86	  392.57
     76.6700	  754.00	  705.78	-1679.28	  392.64
     76.7700	  708.00	  698.23	-1717.73	  392.71
     76.8700	  679.00	  683.20	-1731.70	  392.78
     76.9700	  651.00	  663.22	-1739.72	  392.85
     77.0700	  660.00	  640.97	-1708.47	  392.91
     77.1700	  633.00	  618.70	-1713.20	  392.98
     77.2700	  578.00	  597.90	-1747.40	  393.05
     77.3700	  555.00	  579.96	-1752.46	  393.11
     77.4700	  575.00	  565.18	-1717.68	  393.17
     77.5700	  542.00	  553.60	-1739.10	  393.24
     77.6700	  521.00	  544.92	-1751.42	  393.30
     77.7700	  544.00	  538.67	-1722.17	  393.36
     77.8700	  552.00	  534.31	-1709.81	  393.42
     77.9700	  493.00	  531.35	-1765.85	  393.48
     78.0700	  511.00	  529.37	-1745.87	  393.53
     78.1700	  500.00	  528.06	-1755.56	  393.59
     78.2700	  515.00	  527.19	-1739.69	  393.64
     78.3700	  486.00	  526.61	-1768.11	  393.70
     78.4700	  490.00	  526.23	-1763.73	  393.75
     78.5700	  524.00	  526.02	-1729.52	  393.81
     78.6700	  503.00	  525.93	-1750.43	  393.86
     78.7700	  541.00	  525.98	-1712.48	  393.91
     78.8700	  466.00	  526.18	-1787.68	  393.96
     78.9700	  495.00	  526.54	-1759.04	  394.01
     79.0700	  485.00	  527.11	-1769.61	  394.05
     79.1700	  509.00	  527.92	-1746.42	  394.10
     79.2700	  495.00	  529.03	-1761.53	  394.14
     79.3700	  494.00	  530.47	-1763.97	  394.19
     79.4700	  508.00	  532.31	-1751.81	  394.23
     79.5700	  495.00	  534.59	-1767.09	  394.27
     79.6700	  499.00	  537.38	-1765.88	  394.31
     79.7700	  526.00	  540.58	-1742.08	  394.35
     79.8700	  512.00	  544.65	-1760.15	  394.39
     79.9700	  524.00	  549.53	-1753.03	  394.43
     80.0700	  571.00	  555.38	-1711.88	  394.47
     80.1700	  511.00	  562.41	-1778.91	  394.50
     80.2700	  560.00	  570.91	-1738.41	  394.54
     80.3700	  543.00	  581.15	-1765.65	  394.57
     80.4700	  583.00	  593.37	-1737.87	  394.60
     80.5700	  577.00	  607.59	-1758.09	  394.63
     80.6700	  608.00	  623.58	-1743.08	  394.66
     80.7700	  608.00	  640.78	-1760.28	  394.69
     80.8700	  663.00	  658.32	-1722.82	  394.72
     80.9700	  699.00	  675.07	-1703.57	  394.74
     81.0700	  683.00	  689.90	-1734.40	  394.77
     81.1700	  726.00	  701.89	-1703.39	  394.79
     81.2700	  734.00	  710.41	-1703.91	  394.82
     81.3700	  689.00	  715.09	-1753.59	  394.84
     81.4700	  779.00	  715.75	-1664.25	  394.86
     81.5700	  726.00	  712.42	-1713.92	  394.88
     81.6700	  687.00	  705.20	-1745.70	  394.89
     81.7700	  812.00	  694.36	-1609.86	  394.91
     81.8700	  720.00	  680.43	-1687.93	  394.93
     81.9700	  711.00	  664.29	-1680.79	  394.94
     82.0700	  689.00	  647.06	-1685.56	  394.95
     82.1700	  662.00	  629.82	-1695.32	  394.97
     82.2700	  618.00	  613.41	-1722.91	  394.98
     82.3700	  647.00	  598.39	-1678.89	  394.99
     82.4700	  616.00	  585.12	-1696.62	  394.99
     82.5700	  587.00	  573.78	-1714.28	  395.00
     82.6700	  559.00	  564.50	-1733.00	  395.01
     82.7700	  561.00	  557.30	-1723.80	  395.01
     82.8700	  577.00	  552.13	-1702.63	  395.01
     82.9700	  558.00	  548.87	-1718.37	  395.02
     83.0700	  586.00	  547.53	-1689.03	  395.02
     83.1700	  548.00	  547.90	-1727.40	  395.02
     83.2700	  544.00	  549.90	-1733.40	  395.02
     83.3700	  536.00	  553.30	-1744.80	  395.01
     83.4700	  588.00	  557.86	-1697.36	  395.01
     83.5700	  521.00	  563.22	-1769.72	  395.00
     83.6700	  586.00	  568.95	-1710.45	  394.99
     83.7700	  577.00	  574.51	-1725.01	  394.99
     83.8700	  547.00	  579.27	-1759.77	  394.98
     83.9700	  551.00	  582.60	-1759.10	  394.97
     84.0700	  529.00	  583.93	-1782.43	  394.95
     84.1700	  614.00	  583.01	-1696.51	  394.94
     84.2700	  508.00	  579.94	-1799.44	  394.93
     84.3700	  610.00	  575.14	-1692.64	  394.91
     84.4700	  568.00	  569.20	-1728.70	  394.89
     84.5700	  486.00	  562.71	-1804.21	  394.87
     84.6700	  542.00	  556.18	-1741.68	  394.85
     84.7700	  545.00	  550.03	-1732.53	  394.83
     84.8700	  547.00	  544.51	-1725.01	  394.81
     84.9700	  551.00	  539.80	-1716.30	  394.79
     85.0700	  539.00	  535.96	-1724.46	  394.76
     85.1700	  564.00	  532.95	-1696.45	  394.73
     85.2700	  543.00	  530.71	-1715.21	  394.71
     85.3700	  581.00	  529.13	-1675.63	  394.68
     85.4700	  523.00	  528.11	-1732.61	  394.65
     85.5700	  523.00	  527.55	-1732.05	  394.61
     85.6700	  543.00	  527.40	-1711.90	  394.58
     85.7700	  503.00	  527.61	-1752.11	  394.54
     85.8700	  563.00	  528.21	-1692.71	  394.51
     85.9700	  515.00	  529.26	-1741.76	  394.47
     86.0700	  538.00	  530.86	-1720.36	  394.43
     86.1700	  489.00	  533.15	-1771.65	  394.39
     86.2700	  514.00	  536.31	-1749.81	  394.35
     86.3700	  505.00	  540.52	-1763.02	  394.31
     86.4700	  588.00	  545.97	-1685.47	  394.26
     86.5700	  584.00	  552.80	-1696.30	  394.22
     86.6700	  576.00	  561.08	-1712.58	  394.17
     86.7700	  580.00	  570.76	-1718.26	  394.12
     86.8700	  589.00	  581.65	-1720.15	  394.07
     86.9700	  639.00	  593.38	-1681.88	  394.02
     87.0700	  623.00	  605.41	-1709.91	  393.97
     87.1700	  637.00	  616.99	-1707.49	  393.92
     87.2700	  613.00	  627.23	-1741.73	  393.86
     87.3700	  615.00	  635.16	-1747.66	  393.80
     87.4700	  635.00	  639.88	-1732.38	  393.75
     87.5700	  613.00	  640.45	-1754.95	  393.69
     87.6700	  674.00	  637.54	-1691.04	  393.63
     87.7700	  640.00	  631.28	-1718.78	  393.57
     87.8700	  631.00	  622.55	-1719.05	  393.50
     87.9700	  593.00	  612.38	-1746.88	  393.44
     88.0700	  589.00	  601.76	-1740.26	  393.37
     88.1700	  613.00	  591.56	-1706.06	  393.30
     88.2700	  621.00	  582.49	-1688.99	  393.23
     88.3700	  569.00	  575.09	-1733.59	  393.16
     88.4700	  575.00	  569.70	-1722.20	  393.09
     88.5700	  555.00	  566.45	-1738.95	  393.02
     88.6700	  571.00	  565.30	-1721.80	  392.95
     88.7700	  591.00	  566.08	-1702.58	  392.87
     88.8700	  569.00	  568.45	-1726.95	  392.79
     88.9700	  570.00	  571.98	-1729.48	  392.71
     89.0700	  603.00	  576.16	-1700.66	  392.63
     89.1700	  571.00	  580.39	-1736.89	  392.55
     89.2700	  554.00	  584.09	-1757.59	  392.47
     89.3700	  563.00	  586.65	-1751.15	  392.39
     89.4700	  569.00	  587.62	-1746.12	  392.30
     89.5700	  626.00	  586.75	-1688.25	  392.22
     89.6700	  558.00	  584.08	-1753.58	  392.13
     89.7700	  553.00	  579.90	-1754.40	  392.04
     89.8700	  578.00	  574.63	-1724.13	  391.95
     89.9700	  540.00	  568.74	-1756.24	  391.86
     90.0700	  572.00	  562.66	-1718.16	  391.76
     90.1700	  552.00	  556.74	-1732.24	  391.67
     90.2700	  530.00	  551.26	-1748.76	  391.57
     90.3700	  510.00	  546.41	-1763.91	  391.47
     90.4700	  541.00	  542.28	-1728.78	  391.37
     90.5700	  509.00	  538.92	-1757.42	  391.27
     90.6700	  558.00	  536.31	-1705.81	  391.17
     90.7700	  549.00	  534.40	-1712.90	  391.07
     90.8700	  528.00	  533.09	-1732.59	  390.97
     90.9700	  532.00	  532.34	-1727.84	  390.86
     91.0700	  483.00	  532.05	-1776.55	  390.75
     91.1700	  496.00	  532.21	-1763.71	  390.65
     91.2700	  518.00	  532.79	-1742.29	  390.54
     91.3700	  545.00	  533.83	-1716.33	  390.43
     91.4700	  540.00	  535.38	-1722.88	  390.31
     91.5700	  547.00	  537.56	-1718.06	  390.20
     91.6700	  520.00	  540.51	-1748.01	  390.09
     91.7700	  520.00	  544.40	-1751.90	  389.97
     91.8700	  518.00	  549.44	-1758.94	  389.85
     91.9700	  517.00	  555.84	-1766.34	  389.73
     92.0700	  558.00	  563.78	-1733.28	  389.61
     92.1700	  548.00	  573.44	-1752.94	  389.49
     92.2700	  563.00	  584.92	-1749.42	  389.37
     92.3700	  615.00	  598.24	-1710.74	  389.25
     92.4700	  605.00	  613.31	-1735.81	  389.12
     92.5700	  586.00	  629.92	-1771.42	  388.99
     92.6700	  660.00	  647.73	-1715.23	  388.87
     92.7700	  695.00	  665.99	-1698.49	  388.74
     92.8700	  687.00	  684.58	-1725.08	  388.61
     92.9700	  716.00	  702.54	-1714.04	  388.48
     93.0700	  680.00	  719.14	-1766.64	  388.34
     93.1700	  716.00	  733.86	-1745.36	  388.21
     93.2700	  749.00	  746.47	-1724.97	  388.07
     93.3700	  716.00	  757.12	-1768.62	  387.94
     93.4700	  800.00	  766.23	-1693.73	  387.80
     93.5700	  862.00	  774.34	-1639.84	  387.66
     93.6700	  808.00	  781.98	-1701.48	  387.52
     93.7700	  832.00	  789.54	-1685.04	  387.38
     93.8700	  744.00	  797.40	-1780.90	  387.24
     93.9700	  847.00	  805.95	-1686.45	  387.09
     94.0700	  793.00	  815.62	-1750.12	  386.95
     94.1700	  872.00	  826.77	-1682.27	  386.80
     94.2700	  903.00	  839.53	-1664.03	  386.66
     94.3700	  825.00	  853.70	-1756.20	  386.51
     94.4700	  909.00	  868.61	-1687.11	  386.36
     94.5700	  935.00	  883.15	-1675.65	  386.21
     94.6700	  852.00	  895.82	-1771.32	  386.05
     94.7700	  933.00	  904.90	-1699.40	  385.90
     94.8700	  916.00	  908.73	-1720.23	  385.75
     94.9700	  937.00	  906.05	-1696.55	  385.59
     95.0700	  937.00	  896.35	-1686.85	  385.44
     95.1700	  880.00	  880.09	-1727.59	  385.28
     95.2700	  848.00	  858.48	-1737.98	  385.12
     95.3700	  815.00	  833.26	-1745.76	  384.96
     95.4700	  856.00	  806.37	-1677.87	  384.80
     95.5700	  792.00	  779.73	-1715.23	  384.64
     95.6700	  781.00	  755.16	-1701.66	  384.47
     95.7700	  703.00	  734.33	-1758.83	  384.31
     95.8700	  714.00	  718.73	-1732.23	  384.14
     95.9700	  692.00	  709.68	-1745.18	  383.98
     96.0700	  724.00	  708.32	-1711.82	  383.81
     96.1700	  672.00	  715.60	-1771.10	  383.64
     96.2700	  676.00	  732.27	-1783.77	  383.47
     96.3700	  784.00	  758.86	-1702.36	  383.30
     96.4700	  778.00	  795.58	-1745.08	  383.13
     96.5700	  843.00	  842.31	-1726.81	  382.96
     96.6700	  864.00	  898.46	-1761.96	  382.78
     96.7700	  945.00	  962.93	-1745.43	  382.61
     96.8700	 1007.00	 1034.04	-1754.54	  382.43
     96.9700	 1128.00	 1109.41	-1708.91	  382.26
     97.0700	 1219.00	 1186.07	-1694.57	  382.08
     97.1700	 1205.00	 1260.41	-1782.91	  381.90
     97.2700	 1363.00	 1328.25	-1692.75	  381.72
     97.3700	 1380.00	 1385.20	-1732.70	  381.54
     97.4700	 1376.00	 1426.96	-1778.46	  381.36
     97.5700	 1410.00	 1450.12	-1767.62	  381.18
     97.6700	 1426.00	 1452.81	-1754.31	  381.00
     97.7700	 1345.00	 1435.21	-1817.71	  380.81
     97.8700	 1336.00	 1399.43	-1790.93	  380.63
     97.9700	 1378.00	 1348.98	-1698.48	  380.44
     98.0700	 1253.00	 1288.02	-1762.52	  380.25
     98.1700	 1244.00	 1220.83	-1704.33	  380.07
     98.2700	 1168.00	 1151.48	-1710.98	  379.88
     98.3700	 1108.00	 1083.54	-1703.04	  379.69
     98.4700	  980.00	 1020.13	-1767.63	  379.50
     98.5700	  950.00	  963.78	-1741.28	  379.31
     98.6700	  881.00	  916.60	-1763.10	  379.12
     98.7700	  913.00	  880.19	-1694.69	  378.93
     98.8700	  867.00	  855.76	-1716.26	  378.73
     98.9700	  812.00	  844.17	-1759.67	  378.54
     99.0700	  802.00	  846.07	-1771.57	  378.35
     99.1700	  867.00	  861.78	-1722.28	  378.15
     99.2700	  906.00	  891.42	-1712.92	  377.95
     99.3700	  901.00	  934.87	-1761.37	  377.76
     99.4700	 1004.00	  991.76	-1715.26	  377.56
     99.5700	 1086.00	 1061.39	-1702.89	  377.36
     99.6700	 1128.00	 1142.66	-1742.16	  377.16
     99.7700	 1189.00	 1233.98	-1772.48	  376.96
     99.8700	 1313.00	 1333.19	-1747.69	  376.76
     99.9700	 1416.00	 1437.52	-1749.02	  376.56
    100.0700	 1493.00	 1543.54	-1778.04	  376.36
    100.1700	 1596.00	 1647.32	-1778.82	  376.16
    100.2700	 1750.00	 1744.64	-1722.14	  375.96
    100.3700	 1821.00	 1831.45	-1737.95	  375.76
    100.4700	 1984.00	 1904.29	-1647.79	  375.55
    100.5700	 1966.00	 1960.59	-1722.09	  375.35
    100.6700	 2007.00	 1998.61	-1719.11	  375.14
    100.7700	 1983.00	 2017.30	-1761.80	  374.94
    100.8700	 2165.00	 2016.07	-1578.57	  374.73
    100.9700	 2040.00	 1994.81	-1682.31	  374.53
    101.0700	 1934.00	 1954.27	-1747.77	  374.32
    101.1700	 1941.00	 1896.40	-1682.90	  374.11
    101.2700	 1810.00	 1824.45	-1741.95	  373.91
    101.3700	 1737.00	 1742.70	-1733.20	  373.70
    101.4700	 1679.00	 1655.87	-1704.37	  373.49
    101.5700	 1608.00	 1568.54	-1688.04	  373.28
    101.6700	 1462.00	 1484.67	-1750.17	  373.07
    101.7700	 1408.00	 1407.35	-1726.85	  372.86
    101.8700	 1356.00	 1338.73	-1710.23	  372.65
    101.9700	 1262.00	 1279.98	-1745.48	  372.44
    102.0700	 1247.00	 1231.35	-1711.85	  372.23
    102.1700	 1208.00	 1192.25	-1711.75	  372.02
    102.2700	 1197.00	 1161.32	-1691.82	  371.81
    102.3700	 1115.00	 1136.62	-1749.12	  371.60
    102.4700	 1186.00	 1115.83	-1657.33	  371.39
    102.5700	 1115.00	 1096.47	-1708.97	  371.18
    102.6700	 1092.00	 1076.24	-1711.74	  370.97
    102.7700	 1057.00	 1053.34	-1723.84	  370.76
    102.8700	  981.00	 1026.69	-1773.19	  370.54
    102.9700	  971.00	  996.02	-1752.52	  370.33
    103.0700	  896.00	  961.72	-1793.22	  370.12
    103.1700	  907.00	  924.62	-1745.12	  369.91
    103.2700	  837.00	  885.81	-1776.31	  369.69
    103.3700	  883.00	  846.43	-1690.93	  369.48
    103.4700	  773.00	  807.56	-1762.06	  369.27
    103.5700	  761.00	  770.15	-1736.65	  369.06
    103.6700	  753.00	  734.99	-1709.49	  368.84
    103.7700	  746.00	  702.70	-1684.20	  368.63
    103.8700	  658.00	  673.69	-1743.19	  368.42
    103.9700	  650.00	  648.17	-1725.67	  368.20
    104.0700	  611.00	  626.19	-1742.69	  367.99
    104.1700	  563.00	  607.65	-1772.15	  367.78
    104.2700	  623.00	  592.32	-1696.82	  367.57
    104.3700	  578.00	  579.92	-1729.42	  367.35
    104.4700	  586.00	  570.11	-1711.61	  367.14
    104.5700	  583.00	  562.52	-1707.02	  366.93
    104.6700	  555.00	  556.82	-1729.32	  366.72
    104.7700	  527.00	  552.70	-1753.20	  366.51
    104.8700	  587.00	  549.86	-1690.36	  366.29
    104.9700	  586.00	  548.08	-1689.58	  366.08
    105.0700	  561.00	  547.19	-1713.69	  365.87
    105.1700	  570.00	  547.03	-1704.53	  365.66
    105.2700	  562.00	  547.50	-1713.00	  365.45
    105.3700	  495.00	  548.55	-1781.05	  365.24
    105.4700	  516.00	  550.13	-1761.63	  365.03
    105.5700	  594.00	  552.28	-1685.78	  364.82
    105.6700	  543.00	  555.01	-1739.51	  364.61
    105.7700	  527.00	  558.40	-1758.90	  364.40
    105.8700	  554.00	  562.50	-1736.00	  364.20
    105.9700	  524.00	  567.39	-1770.89	  363.99
    106.0700	  608.00	  573.12	-1692.62	  363.78
    106.1700	  545.00	  579.74	-1762.24	  363.57
    106.2700	  595.00	  587.24	-1719.74	  363.37
    106.3700	  588.00	  595.56	-1735.06	  363.16
    106.4700	  584.00	  604.58	-1748.08	  362.96
    106.5700	  612.00	  614.14	-1729.64	  362.75
    106.6700	  611.00	  624.03	-1740.53	  362.55
    106.7700	  645.00	  633.96	-1716.46	  362.34
    106.8700	  633.00	  643.64	-1738.14	  362.14
    106.9700	  629.00	  652.72	-1751.22	  361.94
    107.0700	  673.00	  660.86	-1715.36	  361.74
    107.1700	  695.00	  667.75	-1700.25	  361.54
    107.2700	  719.00	  673.15	-1681.65	  361.34
    107.3700	  672.00	  676.94	-1732.44	  361.14
    107.4700	  671.00	  679.16	-1735.66	  360.94
    107.5700	  640.00	  680.02	-1767.52	  360.74
    107.6700	  649.00	  679.82	-1758.32	  360.55
    107.7700	  665.00	  678.97	-1741.47	  360.35
    107.8700	  699.00	  677.84	-1706.34	  360.16
    107.9700	  702.00	  676.80	-1702.30	  359.96
    108.0700	  694.00	  676.13	-1709.63	  359.77
    108.1700	  639.00	  676.05	-1764.55	  359.58
    108.2700	  683.00	  676.64	-1721.14	  359.39
    108.3700	  687.00	  677.89	-1718.39	  359.20
    108.4700	  688.00	  679.66	-1719.16	  359.01
    108.5700	  686.00	  681.75	-1723.25	  358.82
    108.6700	  693.00	  683.84	-1718.34	  358.64
    108.7700	  726.00	  685.56	-1687.06	  358.45
    108.8700	  658.00	  686.50	-1756.00	  358.27
    108.9700	  671.00	  686.26	-1742.76	  358.09
    109.0700	  632.00	  684.52	-1780.02	  357.90
    109.1700	  708.00	  681.10	-1700.60	  357.72
    109.2700	  741.00	  675.94	-1662.44	  357.54
    109.3700	  654.00	  669.12	-1742.62	  357.37
    109.4700	  677.00	  660.90	-1711.40	  357.19
    109.5700	  702.00	  651.56	-1677.06	  357.02
    109.6700	  647.00	  641.44	-1721.94	  356.84
    109.7700	  674.00	  630.89	-1684.39	  356.67
    109.8700	  656.00	  620.22	-1691.72	  356.50
    109.9700	  625.00	  609.75	-1712.25	  356.33
    110.0700	  559.00	  599.71	-1768.21	  356.16
    110.1700	  599.00	  590.31	-1718.81	  356.00
    110.2700	  569.00	  581.72	-1740.22	  355.83
    110.3700	  572.00	  574.06	-1729.56	  355.67
    110.4700	  560.00	  567.38	-1734.88	  355.51
    110.5700	  586.00	  561.72	-1703.22	  355.35
    110.6700	  539.00	  557.06	-1745.56	  355.19
    110.7700	  568.00	  553.37	-1712.87	  355.03
    110.8700	  545.00	  550.58	-1733.08	  354.88
    110.9700	  550.00	  548.61	-1726.11	  354.73
    111.0700	  558.00	  547.38	-1716.88	  354.58
    111.1700	  554.00	  546.79	-1720.29	  354.43
    111.2700	  580.00	  546.77	-1694.27	  354.28
    111.3700	  582.00	  547.23	-1692.73	  354.14
    111.4700	  511.00	  548.10	-1764.60	  353.99
    111.5700	  543.00	  549.31	-1733.81	  353.85
    111.6700	  596.00	  550.80	-1682.30	  353.71
    111.7700	  575.00	  552.54	-1705.04	  353.58
    111.8700	  512.00	  554.49	-1769.99	  353.44
    111.9700	  559.00	  556.62	-1725.12	  353.31
    112.0700	  538.00	  558.94	-1748.44	  353.18
    112.1700	  551.00	  561.43	-1737.93	  353.05
    112.2700	  554.00	  564.11	-1737.61	  352.92
    112.3700	  567.00	  567.01	-1727.51	  352.80
    112.4700	  576.00	  570.15	-1721.65	  352.68
    112.5700	  580.00	  573.58	-1721.08	  352.56
    112.6700	  560.00	  577.36	-1744.86	  352.44
    112.7700	  597.00	  581.56	-1712.06	  352.33
    112.8700	  599.00	  586.26	-1714.76	  352.22
    112.9700	  592.00	  591.60	-1727.10	  352.11
    113.0700	  626.00	  597.70	-1699.20	  352.00
    113.1700	  604.00	  604.77	-1728.27	  351.89
    113.2700	  648.00	  613.05	-1692.55	  351.79
    113.3700	  680.00	  622.87	-1670.37	  351.69
    113.4700	  620.00	  634.63	-1742.13	  351.60
    113.5700	  654.00	  648.84	-1722.34	  351.50
    113.6700	  721.00	  666.15	-1672.65	  351.41
    113.7700	  733.00	  687.36	-1681.86	  351.32
    113.8700	  748.00	  713.44	-1692.94	  351.24
    113.9700	  796.00	  745.54	-1677.04	  351.15
    114.0700	  783.00	  785.05	-1729.55	  351.07
    114.1700	  923.00	  833.57	-1638.07	  350.99
    114.2700	  954.00	  892.90	-1666.40	  350.92
    114.3700	  996.00	  965.04	-1696.54	  350.85
    114.4700	 1054.00	 1052.20	-1725.70	  350.78
    114.5700	 1245.00	 1156.66	-1639.16	  350.71
    114.6700	 1373.00	 1280.77	-1635.27	  350.65
    114.7700	 1496.00	 1426.84	-1658.34	  350.59
    114.8700	 1755.00	 1596.98	-1569.48	  350.54
    114.9700	 1905.00	 1793.02	-1615.52	  350.48
    115.0700	 2160.00	 2016.27	-1583.77	  350.44
    115.1700	 2384.00	 2267.53	-1611.03	  350.39
    115.2700	 2630.00	 2546.81	-1644.31	  350.35
    115.3700	 2830.00	 2853.16	-1750.66	  350.31
    115.4700	 3224.00	 3184.59	-1688.09	  350.27
    115.5700	 3495.00	 3537.93	-1770.43	  350.24
    115.6700	 3849.00	 3908.91	-1787.41	  350.21
    115.7700	 4249.00	 4292.04	-1770.54	  350.18
    115.8700	 4445.00	 4680.48	-1962.98	  350.16
    115.9700	 4908.00	 5066.27	-1885.77	  350.14
    116.0700	 5322.00	 5440.36	-1845.86	  350.13
    116.1700	 5659.00	 5792.90	-1861.40	  350.12
    116.2700	 6154.00	 6113.41	-1686.91	  350.11
    116.3700	 6348.00	 6391.11	-1770.61	  350.10
    116.4700	 6621.00	 6615.69	-1722.19	  350.10
    116.5700	 6695.00	 6778.02	-1810.52	  350.11
    116.6700	 6785.00	 6871.12	-1813.62	  350.12
    116.7700	 6910.00	 6890.88	-1708.38	  350.13
    116.8700	 6847.00	 6836.62	-1717.12	  350.14
    116.9700	 6773.00	 6711.23	-1665.73	  350.16
    117.0700	 6504.00	 6520.75	-1744.25	  350.19
    117.1700	 6299.00	 6273.57	-1702.07	  350.22
    117.2700	 5766.00	 5979.55	-1941.05	  350.25
    117.3700	 5683.00	 5649.27	-1693.77	  350.28
    117.4700	 5064.00	 5293.27	-1956.77	  350.32
    117.5700	 4838.00	 4921.64	-1811.14	  350.37
    117.6700	 4554.00	 4543.51	-1717.01	  350.42
    117.7700	 4203.00	 4167.01	-1691.51	  350.47
    117.8700	 3969.00	 3799.20	-1557.70	  350.53
    117.9700	 3638.00	 3445.90	-1535.40	  350.59
    118.0700	 3351.00	 3111.75	-1488.25	  350.66
    118.1700	 2918.00	 2800.08	-1609.58	  350.73
    118.2700	 2484.00	 2513.11	-1756.61	  350.81
    118.3700	 2260.00	 2252.16	-1719.66	  350.89
    118.4700	 2020.00	 2017.57	-1725.07	  350.97
    118.5700	 1873.00	 1808.98	-1663.48	  351.06
    118.6700	 1582.00	 1625.36	-1770.86	  351.16
    118.7700	 1451.00	 1465.21	-1741.71	  351.26
    118.8700	 1274.00	 1326.77	-1780.27	  351.36
    118.9700	 1129.00	 1208.01	-1806.51	  351.47
    119.0700	 1101.00	 1106.87	-1733.37	  351.59
    119.1700	 1020.00	 1021.21	-1728.71	  351.71
    119.2700	  899.00	  949.01	-1777.51	  351.83
    119.3700	  846.00	  888.38	-1769.88	  351.96
    119.4700	  842.00	  837.60	-1723.10	  352.10
    119.5700	  754.00	  795.13	-1768.63	  352.24
    119.6700	  741.00	  759.62	-1746.12	  352.38
    119.7700	  717.00	  729.93	-1740.43	  352.53
    119.8700	  709.00	  705.06	-1723.56	  352.69
    119.9700	  634.00	  684.21	-1777.71	  352.85
    120.0700	  631.00	  666.71	-1763.21	  353.02
    120.1700	  583.00	  652.00	-1796.50	  353.19
    120.2700	  625.00	  639.63	-1742.13	  353.37
    120.3700	  608.00	  629.24	-1748.74	  353.55
    120.4700	  566.00	  620.54	-1782.04	  353.74
    120.5700	  635.00	  613.30	-1705.80	  353.94
    120.6700	  623.00	  607.33	-1711.83	  354.14
    120.7700	  543.00	  602.49	-1786.99	  354.34
    120.8700	  559.00	  598.66	-1767.16	  354.55
    120.9700	  561.00	  595.73	-1762.23	  354.77
    121.0700	  546.00	  593.64	-1775.14	  355.00
    121.1700	  586.00	  592.32	-1733.82	  355.23
    121.2700	  608.00	  591.71	-1711.21	  355.46
    121.3700	  567.00	  591.76	-1752.26	  355.71
    121.4700	  605.00	  592.41	-1714.91	  355.96
    121.5700	  592.00	  593.63	-1729.13	  356.21
    121.6700	  588.00	  595.35	-1734.85	  356.47
    121.7700	  592.00	  597.52	-1733.02	  356.74
    121.8700	  574.00	  600.07	-1753.57	  357.01
    121.9700	  588.00	  602.93	-1742.43	  357.29
    122.0700	  614.00	  606.03	-1719.53	  357.58
    122.1700	  620.00	  609.28	-1716.78	  357.87
    122.2700	  596.00	  612.59	-1744.09	  358.17
    122.3700	  653.00	  615.86	-1690.36	  358.48
    122.4700	  594.00	  618.99	-1752.49	  358.79
    122.5700	  596.00	  621.88	-1753.38	  359.11
    122.6700	  637.00	  624.41	-1714.91	  359.44
    122.7700	  626.00	  626.54	-1728.04	  359.78
    122.8700	  663.00	  628.16	-1692.66	  360.12
    122.9700	  642.00	  629.23	-1714.73	  360.46
    123.0700	  662.00	  629.70	-1695.20	  360.82
    123.1700	  627.00	  629.58	-1730.08	  361.18
    123.2700	  672.00	  628.88	-1684.38	  361.55
    123.3700	  633.00	  627.63	-1722.13	  361.93
    123.4700	  642.00	  625.88	-1711.38	  362.31
    123.5700	  655.00	  623.70	-1696.20	  362.70
    123.6700	  607.00	  621.14	-1741.64	  363.10
    123.7700	  656.00	  618.26	-1689.76	  363.51
    123.8700	  588.00	  615.16	-1754.66	  363.92
    123.9700	  623.00	  611.89	-1716.39	  364.34
    124.0700	  610.00	  608.52	-1726.02	  364.77
    124.1700	  613.00	  605.11	-1719.61	  365.20
    124.2700	  653.00	  601.71	-1676.21	  365.65
    124.3700	  579.00	  598.38	-1746.88	  366.10
    124.4700	  633.00	  595.16	-1689.66	  366.56
    124.5700	  608.00	  592.08	-1711.58	  367.03
    124.6700	  622.00	  589.17	-1694.67	  367.50
    124.7700	  554.00	  586.45	-1759.95	  367.99
    124.8700	  554.00	  583.95	-1757.45	  368.48
    124.9700	  616.00	  485.68	-1597.18	  368.98
    125.0700	  576.00	  486.19	-1727.50	  369.49
    125.1700	  571.00	  486.70	-1727.50	  370.00
    125.2700	  590.00	  487.23	-1727.50	  370.53
    125.3700	  560.00	  487.76	-1727.50	  371.06
    125.4700	  579.00	  488.30	-1727.50	  371.60
    125.5700	  571.00	  488.85	-1727.50	  372.15
    125.6700	  640.00	  489.41	-1727.50	  372.71
    125.7700	  516.00	  489.98	-1727.50	  373.28
    125.8700	  580.00	  490.56	-1727.50	  373.86
    125.9700	  577.00	  491.14	-1727.50	  374.44
    126.0700	  613.00	  491.74	-1727.50	  375.03
    126.1700	  567.00	  492.34	-1727.50	  375.64
    126.2700	  557.00	  492.95	-1727.50	  376.25
    126.3700	  567.00	  493.57	-1727.50	  376.87
    126.4700	  585.00	  494.20	-1727.50	  377.50
    126.5700	  551.00	  494.84	-1727.50	  378.14
    126.6700	  604.00	  495.49	-1727.50	  378.79
    126.7700	  569.00	  496.15	-1727.50	  379.44
    126.8700	  641.00	  496.81	-1727.50	  380.11
    126.9700	  622.00	  497.49	-1727.50	  380.79
    127.0700	  585.00	  498.17	-1727.50	  381.47
    127.1700	  653.00	  498.87	-1727.50	  382.17
    127.2700	  633.00	  499.58	-1727.50	  382.87
    127.3700	  638.00	  500.29	-1727.50	  383.59
    127.4700	  622.00	  501.01	-1727.50	  384.31
    127.5700	  674.00	  501.75	-1727.50	  385.05
    127.6700	  698.00	  502.49	-1727.50	  385.79
    127.7700	  703.00	  503.25	-1727.50	  386.55
    127.8700	  681.00	  504.01	-1727.50	  387.31
    127.9700	  726.00	  504.79	-1727.50	  388.08
    128.0700	  757.00	  505.57	-1727.50	  388.87
    128.1700	  746.00	  506.37	-1727.50	  389.66
    128.2700	  702.00	  507.17	-1727.50	  390.47
    128.3700	  788.00	  507.99	-1727.50	  391.28
    128.4700	  797.00	  508.81	-1727.50	  392.11
    128.5700	    0.00	  509.65	-1727.50	  392.95
    128.6700	    0.00	  510.50	-1727.50	  393.79
     12.3069	        	        	        	        	       0	(  0  0  2)	  0  1
     24.8964	        	        	        	        	       0	(  0  0  4)	  0  1
     28.3401	        	        	        	        	       0	(  1  0  0)	  0  1
     29.0376	        	        	        	        	       0	(  1  0  1)	  0  1
     31.0449	        	        	        	        	       0	(  1  0  2)	  0  1
     34.1549	        	        	        	        	       0	(  1  0  3)	  0  1
     37.8023	        	        	        	        	       0	(  0  0  6)	  0  1
     38.1341	        	        	        	        	       0	(  1  0  4)	  0  1
     42.7867	        	        	        	        	       0	(  1  0  5)	  0  1
     47.9736	        	        	        	        	       0	(  1  0  6)	  0  1
     50.2893	        	        	        	        	       0	(  1  1  0)	  0  1
     51.2314	        	        	        	        	       0	(  0  0  8)	  0  1
     52.0133	        	        	        	        	       0	(  1  1  2)	  0  1
     53.6073	        	        	        	        	       0	(  1  0  7)	  0  1
     56.9642	        	        	        	        	       0	(  1  1  4)	  0  1
     58.7916	        	        	        	        	       0	(  2  0  0)	  0  1
     59.1834	        	        	        	        	       0	(  2  0  1)	  0  1
     59.6413	        	        	        	        	       0	(  1  0  8)	  0  1
     60.3495	        	        	        	        	       0	(  2  0  2)	  0  1
     62.2640	        	        	        	        	       0	(  2  0  3)	  0  1
     64.6638	        	        	        	        	       0	(  1  1  6)	  0  1
     64.8898	        	        	        	        	       0	(  2  0  4)	  0  1
     65.4691	        	        	        	        	       0	(  0  0 10)	  0  1
     66.0617	        	        	        	        	       0	(  1  0  9)	  0  1
     68.1863	        	        	        	        	       0	(  2  0  5)	  0  1
     72.1165	        	        	        	        	       0	(  2  0  6)	  0  1
     72.8825	        	        	        	        	       0	(  1  0 10)	  0  1
     74.7085	        	        	        	        	       0	(  1  1  8)	  0  1
     76.6540	        	        	        	        	       0	(  2  0  7)	  0  1
     80.1455	        	        	        	        	       0	(  1  0 11)	  0  1
     80.9604	        	        	        	        	       0	(  0  0 12)	  0  1
     81.0493	        	        	        	        	       0	(  2  1  0)	  0  1
     81.3894	        	        	        	        	       0	(  2  1  1)	  0  1
     81.7883	        	        	        	        	       0	(  2  0  8)	  0  1
     82.4081	        	        	        	        	       0	(  2  1  2)	  0  1
     84.1009	        	        	        	        	       0	(  2  1  3)	  0  1
     86.4626	        	        	        	        	       0	(  2  1  4)	  0  1
     86.9897	        	        	        	        	       0	(  1  1 10)	  0  1
     87.5313	        	        	        	        	       0	(  2  0  9)	  0  1
     87.9263	        	        	        	        	       0	(  1  0 12)	  0  1
     89.4912	        	        	        	        	       0	(  2  1  5)	  0  1
     93.1922	        	        	        	        	       0	(  2  1  6)	  0  1
     93.9247	        	        	        	        	       0	(  2  0 10)	  0  1
     94.9515	        	        	        	        	       0	(  3  0  0)	  0  1
     95.2892	        	        	        	        	       0	(  3  0  1)	  0  1
     96.3035	        	        	        	        	       0	(  3  0  2)	  0  1
     96.3476	        	        	        	        	       0	(  1  0 13)	  0  1
     97.5853	        	        	        	        	       0	(  2  1  7)	  0  1
     97.9986	        	        	        	        	       0	(  3  0  3)	  0  1
     98.5159	        	        	        	        	       0	(  0  0 14)	  0  1
    100.3843	        	        	        	        	       0	(  3  0  4)	  0  1
    101.0542	        	        	        	        	       0	(  2  0 11)	  0  1
    101.8752	        	        	        	        	       0	(  1  1 12)	  0  1
    102.7136	        	        	        	        	       0	(  2  1  8)	  0  1
    103.4796	        	        	        	        	       0	(  3  0  5)	  0  1
    105.6108	        	        	        	        	       0	(  1  0 14)	  0  1
    107.3197	        	        	        	        	       0	(  3  0  6)	  0  1
    108.6581	        	        	        	        	       0	(  2  1  9)	  0  1
    109.0756	        	        	        	        	       0	(  2  0 12)	  0  1
    111.9667	        	        	        	        	       0	(  3  0  7)	  0  1
    115.5655	        	        	        	        	       0	(  2  1 10)	  0  1
    116.0695	        	        	        	        	       0	(  1  0 15)	  0  1
    116.7069	        	        	        	        	       0	(  2  2  0)	  0  1
    117.5292	        	        	        	        	       0	(  3  0  8)	  0  1
    118.2248	        	        	        	        	       0	(  2  2  2)	  0  1
    118.2746	        	        	        	        	       0	(  2  0 13)	  0  1
    120.0348	        	        	        	        	       0	(  0  0 16)	  0  1
    120.7477	        	        	        	        	       0	(  1  1 14)	  0  1
    122.9195	        	        	        	        	       0	(  2  2  4)	  0  1
    123.7080	        	        	        	        	       0	(  2  1 11)	  0  1
    124.2023	        	        	        	        	       0	(  3  0  9)	  0  1
    124.7887	        	        	        	        	       0	(  3  1  0)	  0  1
    125.1999	        	        	        	        	       0	(  3  1  1)	  0  1
    126.4463	        	        	        	        	       0	(  3  1  2)	  0  1
    128.4386	        	        	        	        	       0	(  1  0 16)	  0  1
    128.5698	        	        	        	        	       0	(  3  1  3)	  0  1
    129.2285	        	        	        	        	       0	(  2  0 14)	  0  1
    131.3802	        	        	        	        	       0	(  2  2  6)	  0  1
    131.6542	        	        	        	        	       0	(  3  1  4)	  0  1
    132.3640	        	        	        	        	       0	(  3  0 10)	  0  1
    133.6464	        	        	        	        	       0	(  2  1 12)	  0  1
    135.8545	        	        	        	        	       0	(  3  1  5)	  0  1
    141.4722	        	        	        	        	       0	(  3  1  6)	  0  1
    142.8832	        	        	        	        	       0	(  3  0 11)	  0  1
    143.4212	        	        	        	        	       0	(  2  0 15)	  0  1
    144.6703	        	        	        	        	       0	(  1  0 17)	  0  1
    145.6722	        	        	        	        	       0	(  2  2  8)	  0  1
    146.8611	        	        	        	        	       0	(  2  1 13)	  0  1
    149.1893	        	        	        	        	       0	(  3  1  7)	  0  1
    149.7964	        	        	        	        	       0	(  1  1 16)	  0  1
    154.2421	        	        	        	        	       0	(  0  0 18)	  0  1
    158.9020	        	        	        	        	       0	(  3  0 12)	  0  1
    159.1487	        	        	        	        	       0	(  4  0  0)	  0  1
    160.1211	        	        	        	        	       0	(  4  0  1)	  0  1
    161.3248	        	        	        	        	       0	(  3  1  8)	  0  1
    163.3646	        	        	        	        	       0	(  4  0  2)	  0  1
    170.3950	        	        	        	        	       0	(  2  0 16)	  0  1
    171.0392	        	        	        	        	       0	(  4  0  3)	  0  1
    175.4908	        	        	        	        	       0	(  2  1 14)	  0  1
