MSG Master    CELL:    5.91914   5.91914  23.26916   90.0000   90.0000  120.0000   SPGR: P 63/m m c             TEMP:   1074.95
  1   1280     2.52000     0.00000    -0.12553     0.00000     0.00000    0
    99     0     2
       0.00000      10.00000
     125.00000     130.00000
 2Theta	Yobs	Ycal	Yobs-Ycal	Backg	Posr	(hkl)	K
      0.7700	    0.00	  561.70	-1759.75	  442.53
      0.8700	    0.00	  562.20	-1759.75	  443.04
      0.9700	   37.00	  562.70	-1759.75	  443.53
      1.0700	   48.00	  563.19	-1759.75	  444.02
      1.1700	   47.00	  563.66	-1759.75	  444.50
      1.2700	   37.00	  564.13	-1759.75	  444.97
      1.3700	   47.00	  564.59	-1759.75	  445.43
      1.4700	   89.00	  565.04	-1759.75	  445.88
      1.5700	  271.00	  565.48	-1759.75	  446.32
      1.6700	  455.00	  565.92	-1759.75	  446.75
      1.7700	  626.00	  566.34	-1759.75	  447.18
      1.8700	  652.00	  566.76	-1759.75	  447.59
      1.9700	  726.00	  567.16	-1759.75	  448.00
      2.0700	  802.00	  567.56	-1759.75	  448.40
      2.1700	  747.00	  567.95	-1759.75	  448.79
      2.2700	  758.00	  568.34	-1759.75	  449.17
      2.3700	  751.00	  568.71	-1759.75	  449.54
      2.4700	  679.00	  569.07	-1759.75	  449.91
      2.5700	  679.00	  569.43	-1759.75	  450.27
      2.6700	  656.00	  569.78	-1759.75	  450.61
      2.7700	  676.00	  570.12	-1759.75	  450.95
      2.8700	  640.00	  570.45	-1759.75	  451.29
      2.9700	  572.00	  570.78	-1759.75	  451.61
      3.0700	  608.00	  571.09	-1759.75	  451.93
      3.1700	  627.00	  571.40	-1759.75	  452.24
      3.2700	  626.00	  571.70	-1759.75	  452.54
      3.3700	  672.00	  572.00	-1759.75	  452.83
      3.4700	  697.00	  572.28	-1759.75	  453.12
      3.5700	  844.00	  572.56	-1759.75	  453.39
      3.6700	  883.00	  572.83	-1759.75	  453.66
      3.7700	  924.00	  573.09	-1759.75	  453.93
      3.8700	  971.00	  573.35	-1759.75	  454.18
      3.9700	  964.00	  573.59	-1759.75	  454.43
      4.0700	 1098.00	  573.84	-1759.75	  454.67
      4.1700	 1093.00	  574.07	-1759.75	  454.90
      4.2700	 1118.00	  574.29	-1759.75	  455.13
      4.3700	 1082.00	  574.51	-1759.75	  455.35
      4.4700	 1021.00	  574.73	-1759.75	  455.56
      4.5700	  991.00	  574.93	-1759.75	  455.77
      4.6700	  991.00	  575.13	-1759.75	  455.96
      4.7700	 1041.00	  575.32	-1759.75	  456.15
      4.8700	 1007.00	  575.50	-1759.75	  456.34
      4.9700	 1007.00	  575.68	-1759.75	  456.52
      5.0700	  968.00	  575.85	-1759.75	  456.69
      5.1700	  904.00	  576.01	-1759.75	  456.85
      5.2700	  932.00	  576.17	-1759.75	  457.01
      5.3700	  906.00	  576.32	-1759.75	  457.16
      5.4700	  810.00	  576.47	-1759.75	  457.30
      5.5700	  807.00	  576.60	-1759.75	  457.44
      5.6700	  883.00	  576.74	-1759.75	  457.57
      5.7700	  841.00	  576.86	-1759.75	  457.70
      5.8700	  825.00	  576.98	-1759.75	  457.81
      5.9700	  825.00	  577.09	-1759.75	  457.93
      6.0700	  754.00	  577.20	-1759.75	  458.03
      6.1700	  762.00	  577.30	-1759.75	  458.13
      6.2700	  762.00	  577.39	-1759.75	  458.23
      6.3700	  782.00	  577.48	-1759.75	  458.31
      6.4700	  802.00	  577.56	-1759.75	  458.39
      6.5700	  726.00	  577.64	-1759.75	  458.47
      6.6700	  769.00	  577.71	-1759.75	  458.54
      6.7700	  739.00	  577.77	-1759.75	  458.60
      6.8700	  708.00	  577.83	-1759.75	  458.66
      6.9700	  743.00	  577.88	-1759.75	  458.72
      7.0700	  722.00	  577.93	-1759.75	  458.76
      7.1700	  670.00	  577.97	-1759.75	  458.80
      7.2700	  697.00	  578.00	-1759.75	  458.84
      7.3700	  693.00	  578.03	-1759.75	  458.87
      7.4700	  675.00	  578.06	-1759.75	  458.89
      7.5700	  649.00	  578.08	-1759.75	  458.91
      7.6700	  656.00	  578.09	-1759.75	  458.93
      7.7700	  677.00	  578.10	-1759.75	  458.94
      7.8700	  629.00	  578.10	-1759.75	  458.94
      7.9700	  622.00	  578.10	-1759.75	  458.94
      8.0700	  623.00	  578.10	-1759.75	  458.93
      8.1700	  644.00	  578.08	-1759.75	  458.92
      8.2700	  639.00	  578.07	-1759.75	  458.90
      8.3700	  631.00	  578.04	-1759.75	  458.88
      8.4700	  618.00	  578.02	-1759.75	  458.85
      8.5700	  634.00	  577.99	-1759.75	  458.82
      8.6700	  644.00	  577.95	-1759.75	  458.78
      8.7700	  626.00	  577.91	-1759.75	  458.74
      8.8700	  589.00	  577.86	-1759.75	  458.70
      8.9700	  643.00	  577.81	-1759.75	  458.64
      9.0700	  590.00	  577.75	-1759.75	  458.59
      9.1700	  584.00	  577.69	-1759.75	  458.53
      9.2700	  587.00	  577.63	-1759.75	  458.46
      9.3700	  611.00	  577.56	-1759.75	  458.39
      9.4700	  594.00	  577.48	-1759.75	  458.32
      9.5700	  617.00	  577.41	-1759.75	  458.24
      9.6700	  551.00	  577.32	-1759.75	  458.16
      9.7700	  603.00	  577.24	-1759.75	  458.07
      9.8700	  588.00	  577.14	-1759.75	  457.98
      9.9700	  624.00	  577.05	-1759.75	  457.88
     10.0700	  599.00	  577.61	-1738.36	  457.78
     10.1700	  581.00	  577.57	-1756.32	  457.68
     10.2700	  596.00	  577.55	-1741.30	  457.57
     10.3700	  576.00	  577.54	-1761.29	  457.46
     10.4700	  629.00	  577.58	-1708.33	  457.34
     10.5700	  587.00	  577.72	-1750.47	  457.22
     10.6700	  598.00	  578.05	-1739.80	  457.10
     10.7700	  601.00	  578.70	-1737.45	  456.97
     10.8700	  582.00	  579.72	-1757.47	  456.84
     10.9700	  603.00	  581.12	-1737.87	  456.70
     11.0700	  607.00	  582.85	-1735.60	  456.56
     11.1700	  582.00	  584.91	-1762.66	  456.42
     11.2700	  595.00	  587.31	-1752.06	  456.27
     11.3700	  572.00	  590.14	-1777.89	  456.12
     11.4700	  554.00	  593.53	-1799.28	  455.96
     11.5700	  645.00	  597.67	-1712.42	  455.81
     11.6700	  637.00	  602.88	-1725.62	  455.65
     11.7700	  604.00	  609.76	-1765.51	  455.48
     11.8700	  614.00	  619.32	-1765.07	  455.31
     11.9700	  651.00	  632.56	-1741.31	  455.14
     12.0700	  683.00	  648.32	-1725.07	  454.97
     12.1700	  658.00	  660.21	-1761.96	  454.79
     12.2700	  746.00	  657.38	-1671.13	  454.61
     12.3700	  608.00	  636.08	-1787.83	  454.42
     12.4700	  624.00	  609.88	-1745.63	  454.23
     12.5700	  572.00	  591.26	-1779.01	  454.04
     12.6700	  561.00	  581.74	-1780.49	  453.85
     12.7700	  591.00	  577.74	-1746.49	  453.65
     12.8700	  562.00	  575.99	-1773.74	  453.45
     12.9700	  612.00	  575.01	-1722.76	  453.25
     13.0700	  515.00	  574.30	-1819.05	  453.04
     13.1700	  550.00	  573.73	-1783.48	  452.83
     13.2700	  521.00	  573.25	-1812.00	  452.62
     13.3700	  566.00	  572.83	-1766.58	  452.40
     13.4700	  550.00	  572.45	-1782.20	  452.19
     13.5700	  540.00	  572.11	-1791.86	  451.97
     13.6700	  607.00	  571.78	-1724.53	  451.74
     13.7700	  544.00	  571.47	-1787.22	  451.52
     13.8700	  541.00	  571.17	-1789.92	  451.29
     13.9700	  560.00	  570.88	-1770.63	  451.06
     14.0700	  571.00	  570.60	-1759.35	  450.82
     14.1700	  570.00	  570.32	-1760.07	  450.59
     14.2700	  577.00	  570.04	-1752.79	  450.35
     14.3700	  569.00	  569.77	-1760.52	  450.11
     14.4700	  563.00	  569.50	-1766.25	  449.87
     14.5700	  574.00	  569.23	-1754.98	  449.62
     14.6700	  572.00	  568.96	-1756.71	  449.37
     14.7700	  538.00	  568.69	-1790.44	  449.12
     14.8700	  585.00	  568.42	-1743.17	  448.87
     14.9700	  548.00	  568.14	-1779.89	  448.61
     15.0700	  552.00	  567.87	-1775.62	  448.36
     15.1700	  540.00	  567.60	-1787.35	  448.10
     15.2700	  558.00	  567.33	-1769.08	  447.84
     15.3700	  568.00	  567.06	-1758.81	  447.57
     15.4700	  565.00	  566.78	-1761.53	  447.31
     15.5700	  559.00	  566.50	-1767.25	  447.04
     15.6700	  550.00	  566.23	-1775.98	  446.77
     15.7700	  554.00	  565.95	-1771.70	  446.50
     15.8700	  553.00	  565.67	-1772.42	  446.23
     15.9700	  586.00	  565.39	-1739.14	  445.95
     16.0700	  598.00	  565.10	-1726.85	  445.67
     16.1700	  582.00	  564.82	-1742.57	  445.39
     16.2700	  557.00	  564.53	-1767.28	  445.11
     16.3700	  544.00	  564.25	-1780.00	  444.83
     16.4700	  544.00	  563.96	-1779.71	  444.55
     16.5700	  576.00	  563.69	-1747.44	  444.26
     16.6700	  565.00	  563.40	-1758.15	  443.97
     16.7700	  588.00	  563.11	-1734.86	  443.68
     16.8700	  604.00	  562.82	-1718.57	  443.39
     16.9700	  554.00	  562.52	-1768.27	  443.10
     17.0700	  593.00	  562.23	-1728.98	  442.81
     17.1700	  556.00	  561.93	-1765.68	  442.51
     17.2700	  530.00	  561.63	-1791.38	  442.22
     17.3700	  507.00	  561.33	-1814.08	  441.92
     17.4700	  517.00	  561.03	-1803.78	  441.62
     17.5700	  608.00	  560.73	-1712.48	  441.32
     17.6700	  572.00	  560.43	-1748.18	  441.02
     17.7700	  541.00	  560.12	-1778.87	  440.71
     17.8700	  581.00	  559.82	-1738.57	  440.41
     17.9700	  561.00	  559.51	-1758.26	  440.10
     18.0700	  547.00	  559.31	-1772.06	  439.79
     18.1700	  568.00	  559.00	-1750.75	  439.49
     18.2700	  545.00	  558.69	-1773.44	  439.18
     18.3700	  537.00	  558.39	-1781.14	  438.87
     18.4700	  562.00	  558.08	-1755.83	  438.55
     18.5700	  562.00	  557.77	-1755.52	  438.24
     18.6700	  571.00	  557.45	-1746.20	  437.93
     18.7700	  592.00	  557.14	-1724.89	  437.61
     18.8700	  525.00	  556.83	-1791.58	  437.30
     18.9700	  559.00	  556.52	-1757.27	  436.98
     19.0700	  544.00	  556.28	-1772.03	  436.66
     19.1700	  569.00	  555.97	-1746.72	  436.34
     19.2700	  557.00	  555.66	-1758.41	  436.02
     19.3700	  583.00	  555.34	-1732.09	  435.70
     19.4700	  504.00	  555.03	-1810.78	  435.38
     19.5700	  546.00	  554.71	-1768.46	  435.06
     19.6700	  491.00	  554.40	-1823.15	  434.74
     19.7700	  553.00	  554.08	-1760.83	  434.42
     19.8700	  546.00	  553.77	-1767.52	  434.09
     19.9700	  529.00	  553.45	-1784.20	  433.77
     20.0700	  539.00	  553.13	-1773.88	  433.44
     20.1700	  534.00	  552.82	-1778.57	  433.12
     20.2700	  576.00	  552.47	-1736.22	  432.79
     20.3700	  556.00	  552.16	-1755.91	  432.46
     20.4700	  515.00	  551.84	-1796.59	  432.13
     20.5700	  567.00	  551.53	-1744.28	  431.81
     20.6700	  552.00	  551.21	-1758.96	  431.48
     20.7700	  587.00	  550.89	-1723.64	  431.15
     20.8700	  526.00	  550.58	-1784.33	  430.82
     20.9700	  548.00	  550.26	-1762.01	  430.49
     21.0700	  517.00	  549.99	-1792.74	  430.16
     21.1700	  558.00	  549.67	-1751.42	  429.83
     21.2700	  570.00	  549.36	-1739.11	  429.50
     21.3700	  514.00	  549.05	-1794.80	  429.17
     21.4700	  568.00	  548.74	-1740.49	  428.83
     21.5700	  583.00	  548.43	-1725.18	  428.50
     21.6700	  518.00	  548.12	-1789.87	  428.17
     21.7700	  571.00	  547.81	-1736.56	  427.84
     21.8700	  556.00	  547.50	-1751.25	  427.50
     21.9700	  558.00	  547.20	-1748.95	  427.17
     22.0700	  557.00	  546.90	-1749.65	  426.84
     22.1700	  511.00	  546.60	-1795.35	  426.51
     22.2700	  545.00	  546.30	-1761.05	  426.17
     22.3700	  516.00	  546.01	-1789.76	  425.84
     22.4700	  547.00	  545.72	-1758.47	  425.51
     22.5700	  550.00	  545.44	-1755.19	  425.17
     22.6700	  563.00	  545.16	-1741.91	  424.84
     22.7700	  547.00	  544.89	-1757.64	  424.51
     22.8700	  527.00	  544.62	-1777.37	  424.17
     22.9700	  539.00	  544.36	-1765.11	  423.84
     23.0700	  536.00	  544.12	-1767.87	  423.51
     23.1700	  544.00	  543.89	-1759.64	  423.17
     23.2700	  545.00	  543.68	-1758.43	  422.84
     23.3700	  554.00	  543.49	-1749.24	  422.51
     23.4700	  543.00	  543.33	-1760.08	  422.18
     23.5700	  561.00	  543.21	-1741.96	  421.84
     23.6700	  551.00	  543.15	-1751.90	  421.51
     23.7700	  584.00	  543.18	-1718.93	  421.18
     23.8700	  539.00	  543.40	-1764.15	  420.85
     23.9700	  502.00	  544.14	-1801.89	  420.52
     24.0700	  567.00	  545.61	-1738.36	  420.18
     24.1700	  525.00	  548.63	-1783.38	  419.85
     24.2700	  534.00	  554.11	-1779.86	  419.52
     24.3700	  558.00	  563.08	-1764.83	  419.19
     24.4700	  582.00	  576.81	-1754.56	  418.86
     24.5700	  589.00	  596.02	-1766.77	  418.53
     24.6700	  599.00	  618.16	-1778.91	  418.20
     24.7700	  576.00	  634.39	-1818.14	  417.88
     24.8700	  679.00	  632.06	-1712.81	  417.55
     24.9700	  607.00	  608.79	-1761.54	  417.22
     25.0700	  604.00	  580.09	-1735.84	  416.89
     25.1700	  563.00	  559.06	-1755.81	  416.57
     25.2700	  548.00	  547.81	-1759.56	  416.24
     25.3700	  542.00	  542.90	-1760.65	  415.91
     25.4700	  528.00	  540.82	-1772.57	  415.59
     25.5700	  501.00	  539.74	-1798.49	  415.26
     25.6700	  537.00	  539.03	-1761.78	  414.94
     25.7700	  549.00	  538.51	-1749.26	  414.62
     25.8700	  603.00	  538.12	-1694.87	  414.29
     25.9700	  609.00	  537.82	-1688.57	  413.97
     26.0700	  560.00	  537.60	-1737.35	  413.65
     26.1700	  547.00	  537.45	-1750.20	  413.33
     26.2700	  522.00	  537.37	-1775.12	  413.01
     26.3700	  514.00	  537.37	-1783.12	  412.69
     26.4700	  588.00	  537.45	-1709.20	  412.37
     26.5700	  598.00	  537.63	-1699.38	  412.05
     26.6700	  521.00	  537.91	-1776.66	  411.73
     26.7700	  539.00	  538.33	-1759.08	  411.42
     26.8700	  568.00	  538.92	-1730.67	  411.10
     26.9700	  555.00	  539.73	-1744.48	  410.79
     27.0700	  509.00	  540.83	-1791.58	  410.47
     27.1700	  567.00	  542.37	-1735.12	  410.16
     27.2700	  540.00	  544.58	-1764.33	  409.85
     27.3700	  540.00	  547.98	-1767.73	  409.54
     27.4700	  499.00	  553.54	-1814.29	  409.22
     27.5700	  532.00	  563.03	-1790.78	  408.92
     27.6700	  578.00	  579.29	-1761.04	  408.61
     27.7700	  579.00	  605.99	-1786.74	  408.30
     27.8700	  597.00	  646.35	-1809.10	  407.99
     27.9700	  678.00	  700.62	-1782.37	  407.68
     28.0700	  748.00	  762.64	-1774.39	  407.38
     28.1700	  956.00	  816.81	-1620.56	  407.08
     28.2700	  980.00	  839.53	-1619.28	  406.77
     28.3700	  923.00	  816.74	-1653.49	  406.47
     28.4700	  815.00	  770.48	-1715.23	  406.17
     28.5700	  641.00	  737.51	-1856.26	  405.87
     28.6700	  715.00	  734.84	-1779.59	  405.57
     28.7700	  745.00	  757.90	-1772.65	  405.27
     28.8700	  851.00	  786.44	-1695.19	  404.98
     28.9700	  820.00	  791.72	-1731.47	  404.68
     29.0700	  755.00	  755.25	-1760.00	  404.38
     29.1700	  662.00	  692.58	-1790.33	  404.09
     29.2700	  620.00	  632.95	-1772.70	  403.80
     29.3700	  557.00	  590.29	-1793.04	  403.51
     29.4700	  595.00	  564.87	-1729.62	  403.22
     29.5700	  580.00	  551.37	-1731.12	  402.93
     29.6700	  622.00	  544.34	-1682.09	  402.64
     29.7700	  588.00	  540.40	-1712.15	  402.35
     29.8700	  549.00	  537.96	-1748.71	  402.07
     29.9700	  547.00	  536.44	-1749.19	  401.78
     30.0700	  506.00	  535.70	-1789.45	  401.50
     30.1700	  614.00	  535.96	-1681.71	  401.22
     30.2700	  591.00	  537.79	-1706.54	  400.94
     30.3700	  535.00	  542.38	-1767.13	  400.66
     30.4700	  548.00	  551.59	-1763.34	  400.38
     30.5700	  545.00	  567.45	-1782.20	  400.10
     30.6700	  615.00	  590.72	-1735.47	  399.83
     30.7700	  613.00	  618.69	-1765.44	  399.55
     30.8700	  614.00	  643.46	-1789.21	  399.28
     30.9700	  631.00	  652.68	-1781.43	  399.01
     31.0700	  593.00	  637.65	-1804.40	  398.74
     31.1700	  602.00	  606.33	-1764.08	  398.47
     31.2700	  555.00	  574.91	-1779.66	  398.20
     31.3700	  581.00	  552.01	-1730.76	  397.94
     31.4700	  551.00	  538.35	-1747.10	  397.67
     31.5700	  536.00	  531.25	-1755.00	  397.41
     31.6700	  547.00	  527.69	-1740.44	  397.15
     31.7700	  538.00	  525.74	-1747.49	  396.89
     31.8700	  552.00	  524.52	-1732.27	  396.63
     31.9700	  506.00	  523.66	-1777.41	  396.37
     32.0700	  542.00	  523.04	-1740.79	  396.11
     32.1700	  552.00	  522.60	-1730.35	  395.86
     32.2700	  502.00	  522.32	-1780.07	  395.60
     32.3700	  548.00	  522.19	-1733.94	  395.35
     32.4700	  569.00	  522.20	-1712.95	  395.10
     32.5700	  591.00	  522.37	-1691.12	  394.85
     32.6700	  506.00	  522.72	-1776.47	  394.60
     32.7700	  546.00	  523.29	-1737.04	  394.36
     32.8700	  520.00	  524.14	-1763.89	  394.11
     32.9700	  570.00	  525.37	-1715.12	  393.87
     33.0700	  547.00	  527.17	-1739.92	  393.63
     33.1700	  556.00	  529.93	-1733.68	  393.39
     33.2700	  534.00	  534.60	-1760.35	  393.15
     33.3700	  572.00	  543.30	-1731.05	  392.91
     33.4700	  564.00	  560.33	-1756.08	  392.68
     33.5700	  568.00	  592.72	-1784.47	  392.44
     33.6700	  634.00	  649.11	-1774.86	  392.21
     33.7700	  762.00	  734.21	-1731.96	  391.98
     33.8700	  914.00	  839.69	-1685.44	  391.75
     33.9700	 1066.00	  937.44	-1631.19	  391.52
     34.0700	 1048.00	  982.85	-1694.60	  391.30
     34.1700	 1000.00	  941.79	-1701.54	  391.07
     34.2700	  903.00	  835.38	-1692.13	  390.85
     34.3700	  711.00	  720.25	-1769.00	  390.63
     34.4700	  619.00	  631.90	-1772.65	  390.41
     34.5700	  586.00	  577.51	-1751.26	  390.19
     34.6700	  582.00	  548.97	-1726.72	  389.97
     34.7700	  525.00	  535.11	-1769.86	  389.76
     34.8700	  547.00	  528.07	-1740.82	  389.54
     34.9700	  516.00	  523.90	-1767.65	  389.33
     35.0700	  520.00	  521.02	-1760.77	  389.12
     35.1700	  521.00	  518.85	-1757.60	  388.91
     35.2700	  561.00	  517.13	-1715.88	  388.71
     35.3700	  559.00	  515.73	-1716.48	  388.50
     35.4700	  531.00	  514.57	-1743.32	  388.30
     35.5700	  462.00	  513.61	-1811.36	  388.10
     35.6700	  517.00	  512.77	-1755.52	  387.90
     35.7700	  502.00	  512.04	-1769.79	  387.70
     35.8700	  548.00	  511.41	-1723.16	  387.50
     35.9700	  534.00	  510.84	-1736.59	  387.31
     36.0700	  530.00	  510.81	-1740.56	  387.11
     36.1700	  544.00	  510.36	-1726.11	  386.92
     36.2700	  489.00	  509.96	-1780.71	  386.73
     36.3700	  528.00	  509.59	-1741.34	  386.54
     36.4700	  521.00	  509.26	-1748.01	  386.36
     36.5700	  497.00	  508.97	-1771.72	  386.17
     36.6700	  445.00	  508.71	-1823.46	  385.99
     36.7700	  557.00	  508.49	-1711.24	  385.81
     36.8700	  540.00	  508.33	-1728.08	  385.63
     36.9700	  518.00	  508.27	-1750.02	  385.45
     37.0700	  567.00	  508.42	-1701.17	  385.27
     37.1700	  539.00	  509.00	-1729.75	  385.10
     37.2700	  525.00	  510.36	-1745.11	  384.92
     37.3700	  504.00	  512.96	-1768.71	  384.75
     37.4700	  542.00	  516.98	-1734.73	  384.58
     37.5700	  529.00	  521.99	-1752.74	  384.42
     37.6700	  552.00	  526.79	-1734.54	  384.25
     37.7700	  513.00	  529.76	-1776.51	  384.09
     37.8700	  522.00	  530.14	-1767.89	  383.92
     37.9700	  503.00	  528.57	-1785.32	  383.76
     38.0700	  498.00	  525.50	-1787.25	  383.60
     38.1700	  517.00	  521.04	-1763.79	  383.45
     38.2700	  471.00	  516.05	-1804.80	  383.29
     38.3700	  522.00	  511.70	-1749.45	  383.14
     38.4700	  485.00	  508.55	-1783.30	  382.99
     38.5700	  481.00	  506.58	-1785.33	  382.84
     38.6700	  542.00	  505.35	-1723.10	  382.69
     38.7700	  546.00	  504.71	-1718.46	  382.54
     38.8700	  456.00	  504.31	-1808.06	  382.40
     38.9700	  483.00	  504.02	-1780.77	  382.25
     39.0700	  498.00	  503.71	-1765.46	  382.11
     39.1700	  523.00	  503.50	-1740.25	  381.97
     39.2700	  504.00	  503.32	-1759.07	  381.83
     39.3700	  473.00	  503.15	-1789.90	  381.70
     39.4700	  492.00	  503.00	-1770.75	  381.56
     39.5700	  524.00	  502.86	-1738.61	  381.43
     39.6700	  505.00	  502.74	-1757.49	  381.30
     39.7700	  522.00	  502.62	-1740.37	  381.17
     39.8700	  544.00	  502.62	-1718.37	  381.04
     39.9700	  484.00	  502.53	-1778.28	  380.92
     40.0700	  468.00	  502.44	-1794.19	  380.80
     40.1700	  479.00	  502.37	-1783.12	  380.67
     40.2700	  500.00	  502.31	-1762.06	  380.55
     40.3700	  457.00	  502.25	-1805.00	  380.44
     40.4700	  497.00	  502.21	-1764.96	  380.32
     40.5700	  489.00	  502.19	-1772.94	  380.20
     40.6700	  468.00	  502.18	-1793.93	  380.09
     40.7700	  502.00	  502.19	-1759.94	  379.98
     40.8700	  487.00	  502.22	-1774.97	  379.87
     40.9700	  477.00	  502.28	-1785.03	  379.76
     41.0700	  491.00	  502.33	-1771.08	  379.66
     41.1700	  519.00	  502.45	-1743.20	  379.55
     41.2700	  495.00	  502.63	-1767.38	  379.45
     41.3700	  488.00	  502.86	-1774.61	  379.35
     41.4700	  517.00	  503.17	-1745.92	  379.25
     41.5700	  523.00	  503.59	-1740.34	  379.15
     41.6700	  518.00	  504.17	-1745.92	  379.06
     41.7700	  489.00	  505.42	-1776.17	  378.97
     41.8700	  541.00	  506.85	-1725.60	  378.87
     41.9700	  480.00	  509.52	-1789.27	  378.78
     42.0700	  479.00	  514.85	-1795.60	  378.70
     42.1700	  520.00	  525.25	-1765.00	  378.61
     42.2700	  542.00	  543.74	-1761.49	  378.52
     42.3700	  544.00	  572.45	-1788.20	  378.44
     42.4700	  576.00	  609.56	-1793.31	  378.36
     42.5700	  589.00	  647.21	-1817.96	  378.28
     42.6700	  631.00	  671.84	-1800.59	  378.20
     42.7700	  572.00	  670.56	-1858.31	  378.13
     42.8700	  595.00	  643.29	-1808.04	  378.05
     42.9700	  554.00	  603.82	-1809.57	  377.98
     43.0700	  540.00	  566.69	-1786.44	  377.91
     43.1700	  478.00	  539.19	-1820.94	  377.84
     43.2700	  507.00	  522.15	-1774.90	  377.78
     43.3700	  557.00	  512.98	-1715.73	  377.71
     43.4700	  510.00	  508.46	-1758.21	  377.65
     43.5700	  535.00	  506.21	-1730.96	  377.58
     43.6700	  551.00	  504.97	-1713.72	  377.52
     43.7700	  469.00	  504.18	-1794.93	  377.47
     43.8700	  519.00	  503.78	-1744.53	  377.41
     43.9700	  502.00	  503.37	-1761.11	  377.35
     44.0700	  536.00	  503.05	-1726.80	  377.30
     44.1700	  488.00	  502.81	-1774.56	  377.25
     44.2700	  459.00	  502.63	-1803.38	  377.20
     44.3700	  524.00	  502.41	-1738.16	  377.15
     44.4700	  522.00	  502.32	-1740.07	  377.10
     44.5700	  491.00	  502.27	-1771.02	  377.06
     44.6700	  515.00	  502.25	-1747.00	  377.02
     44.7700	  523.00	  502.25	-1739.00	  376.98
     44.8700	  532.00	  502.28	-1730.03	  376.94
     44.9700	  500.00	  502.34	-1762.09	  376.90
     45.0700	  468.00	  502.41	-1794.16	  376.86
     45.1700	  530.00	  502.50	-1732.25	  376.83
     45.2700	  519.00	  502.62	-1743.37	  376.79
     45.3700	  534.00	  502.93	-1728.68	  376.76
     45.4700	  513.00	  503.09	-1749.84	  376.73
     45.5700	  510.00	  503.27	-1753.02	  376.70
     45.6700	  515.00	  503.48	-1748.23	  376.68
     45.7700	  484.00	  503.71	-1779.46	  376.65
     45.8700	  530.00	  503.96	-1733.71	  376.63
     45.9700	  461.00	  504.25	-1803.00	  376.61
     46.0700	  529.00	  504.57	-1735.32	  376.59
     46.1700	  535.00	  504.92	-1729.67	  376.57
     46.2700	  517.00	  505.32	-1748.07	  376.56
     46.3700	  494.00	  505.76	-1771.51	  376.54
     46.4700	  496.00	  506.26	-1770.01	  376.53
     46.5700	  485.00	  506.82	-1781.57	  376.52
     46.6700	  480.00	  507.46	-1787.21	  376.51
     46.7700	  521.00	  508.20	-1746.95	  376.50
     46.8700	  491.00	  509.09	-1777.84	  376.49
     46.9700	  487.00	  510.22	-1782.97	  376.49
     47.0700	  527.00	  511.84	-1744.59	  376.48
     47.1700	  520.00	  514.46	-1754.21	  376.48
     47.2700	  528.00	  518.96	-1750.71	  376.48
     47.3700	  515.00	  526.69	-1771.44	  376.48
     47.4700	  547.00	  538.93	-1751.68	  376.48
     47.5700	  540.00	  556.17	-1775.92	  376.49
     47.6700	  594.00	  576.78	-1742.53	  376.49
     47.7700	  606.00	  596.47	-1750.22	  376.50
     47.8700	  580.00	  608.87	-1788.62	  376.51
     47.9700	  590.00	  608.77	-1778.52	  376.52
     48.0700	  643.00	  596.86	-1713.61	  376.53
     48.1700	  548.00	  579.34	-1791.09	  376.55
     48.2700	  528.00	  562.60	-1794.35	  376.56
     48.3700	  533.00	  550.32	-1777.07	  376.58
     48.4700	  526.00	  543.50	-1777.25	  376.60
     48.5700	  536.00	  541.40	-1765.15	  376.62
     48.6700	  537.00	  542.75	-1765.50	  376.64
     48.7700	  497.00	  546.51	-1809.26	  376.66
     48.8700	  555.00	  552.12	-1756.87	  376.68
     48.9700	  581.00	  559.65	-1738.40	  376.71
     49.0700	  601.00	  569.79	-1728.54	  376.74
     49.1700	  611.00	  584.19	-1732.94	  376.76
     49.2700	  669.00	  606.35	-1697.10	  376.79
     49.3700	  682.00	  642.97	-1720.72	  376.83
     49.4700	  716.00	  705.44	-1749.19	  376.86
     49.5700	  794.00	  810.20	-1775.95	  376.89
     49.6700	  869.00	  976.18	-1866.93	  376.93
     49.7700	 1169.00	 1217.98	-1808.73	  376.97
     49.8700	 1487.00	 1533.64	-1806.39	  377.01
     49.9700	 1809.00	 1893.95	-1844.70	  377.05
     50.0700	 2290.00	 2232.07	-1701.82	  377.09
     50.1700	 2483.00	 2448.45	-1725.20	  377.13
     50.2700	 2573.00	 2454.01	-1640.76	  377.17
     50.3700	 2286.00	 2243.83	-1717.58	  377.22
     50.4700	 1864.00	 1906.16	-1801.91	  377.27
     50.5700	 1447.00	 1545.82	-1858.57	  377.32
     50.6700	  989.00	 1232.29	-2003.04	  377.36
     50.7700	  863.00	  995.94	-1892.69	  377.42
     50.8700	  678.00	  838.08	-1919.83	  377.47
     50.9700	  666.00	  742.96	-1836.71	  377.52
     51.0700	  603.00	  688.80	-1845.55	  377.58
     51.1700	  613.00	  655.99	-1802.74	  377.63
     51.2700	  569.00	  631.54	-1822.29	  377.69
     51.3700	  620.00	  610.12	-1749.87	  377.75
     51.4700	  578.00	  591.22	-1772.97	  377.81
     51.5700	  573.00	  575.67	-1762.42	  377.87
     51.6700	  557.00	  563.95	-1766.70	  377.94
     51.7700	  569.00	  555.76	-1746.51	  378.00
     51.8700	  576.00	  550.29	-1734.04	  378.07
     51.9700	  593.00	  546.62	-1713.37	  378.13
     52.0700	  567.00	  544.06	-1736.81	  378.20
     52.1700	  551.00	  542.32	-1751.07	  378.27
     52.2700	  528.00	  541.35	-1773.10	  378.34
     52.3700	  577.00	  541.28	-1724.03	  378.41
     52.4700	  545.00	  542.47	-1757.22	  378.49
     52.5700	  546.00	  545.98	-1759.73	  378.56
     52.6700	  538.00	  553.30	-1775.05	  378.64
     52.7700	  556.00	  568.34	-1772.09	  378.71
     52.8700	  605.00	  597.22	-1751.97	  378.79
     52.9700	  728.00	  648.05	-1679.80	  378.87
     53.0700	  811.00	  728.37	-1677.12	  378.95
     53.1700	  868.00	  840.34	-1732.09	  379.03
     53.2700	 1009.00	  975.05	-1725.80	  379.11
     53.3700	 1118.00	 1108.80	-1750.55	  379.20
     53.4700	 1185.00	 1205.10	-1779.85	  379.28
     53.5700	 1161.00	 1227.79	-1826.54	  379.37
     53.6700	 1068.00	 1166.37	-1858.12	  379.45
     53.7700	  956.00	 1046.43	-1850.18	  379.54
     53.8700	  868.00	  907.87	-1799.62	  379.63
     53.9700	  758.00	  782.08	-1783.83	  379.72
     54.0700	  706.00	  685.40	-1739.15	  379.81
     54.1700	  586.00	  620.61	-1794.36	  379.91
     54.2700	  596.00	  582.05	-1745.80	  380.00
     54.3700	  568.00	  561.34	-1753.09	  380.09
     54.4700	  571.00	  551.04	-1739.79	  380.19
     54.5700	  564.00	  546.21	-1741.96	  380.29
     54.6700	  576.00	  544.10	-1727.85	  380.39
     54.7700	  535.00	  543.44	-1768.19	  380.48
     54.8700	  553.00	  543.67	-1750.42	  380.58
     54.9700	  559.00	  544.61	-1745.36	  380.69
     55.0700	  563.00	  546.20	-1742.95	  380.79
     55.1700	  503.00	  548.44	-1805.19	  380.89
     55.2700	  608.00	  551.40	-1703.15	  380.99
     55.3700	  583.00	  555.20	-1731.95	  381.10
     55.4700	  526.00	  560.02	-1793.77	  381.20
     55.5700	  583.00	  566.23	-1742.98	  381.31
     55.6700	  570.00	  574.49	-1764.24	  381.42
     55.7700	  589.00	  586.29	-1757.04	  381.53
     55.8700	  618.00	  604.69	-1746.44	  381.64
     55.9700	  650.00	  635.57	-1745.32	  381.75
     56.0700	  594.00	  689.09	-1854.84	  381.86
     56.1700	  741.00	  780.53	-1799.28	  381.97
     56.2700	  862.00	  928.73	-1826.48	  382.08
     56.3700	 1087.00	 1150.95	-1823.70	  382.20
     56.4700	 1392.00	 1453.79	-1821.54	  382.31
     56.5700	 1735.00	 1822.24	-1846.99	  382.43
     56.6700	 2121.00	 2211.46	-1850.21	  382.55
     56.7700	 2420.00	 2544.17	-1883.92	  382.66
     56.8700	 2568.00	 2725.08	-1916.83	  382.78
     56.9700	 2617.00	 2687.18	-1829.93	  382.90
     57.0700	 2359.00	 2445.15	-1845.90	  383.02
     57.1700	 2043.00	 2083.57	-1800.32	  383.14
     57.2700	 1772.00	 1696.24	-1683.99	  383.26
     57.3700	 1345.00	 1349.89	-1764.64	  383.38
     57.4700	 1051.00	 1078.35	-1787.10	  383.51
     57.5700	  817.00	  888.11	-1830.86	  383.63
     57.6700	  742.00	  767.93	-1785.68	  383.76
     57.7700	  678.00	  699.90	-1781.65	  383.88
     57.8700	  705.00	  667.33	-1722.08	  384.01
     57.9700	  614.00	  658.73	-1804.48	  384.13
     58.0700	  661.00	  668.25	-1767.00	  384.26
     58.1700	  710.00	  694.14	-1743.89	  384.39
     58.2700	  792.00	  736.75	-1704.50	  384.52
     58.3700	  865.00	  796.57	-1691.32	  384.65
     58.4700	  905.00	  872.44	-1727.19	  384.78
     58.5700	 1098.00	  959.95	-1621.70	  384.91
     58.6700	 1218.00	 1050.75	-1592.50	  385.04
     58.7700	 1376.00	 1134.79	-1518.54	  385.17
     58.8700	 1570.00	 1204.82	-1394.57	  385.31
     58.9700	 1580.00	 1256.58	-1436.33	  385.44
     59.0700	 1680.00	 1284.55	-1364.30	  385.57
     59.1700	 1570.00	 1283.71	-1473.46	  385.71
     59.2700	 1541.00	 1257.72	-1476.47	  385.84
     59.3700	 1366.00	 1219.51	-1613.26	  385.98
     59.4700	 1230.00	 1182.53	-1712.28	  386.11
     59.5700	 1169.00	 1155.64	-1746.39	  386.25
     59.6700	 1167.00	 1145.81	-1738.56	  386.39
     59.7700	 1166.00	 1161.34	-1755.09	  386.53
     59.8700	 1230.00	 1208.20	-1737.95	  386.67
     59.9700	 1284.00	 1283.48	-1759.23	  386.80
     60.0700	 1496.00	 1371.91	-1635.66	  386.94
     60.1700	 1526.00	 1446.18	-1679.93	  387.08
     60.2700	 1600.00	 1473.85	-1633.60	  387.22
     60.3700	 1550.00	 1433.96	-1643.71	  387.37
     60.4700	 1462.00	 1332.06	-1629.81	  387.51
     60.5700	 1226.00	 1194.07	-1727.82	  387.65
     60.6700	 1056.00	 1048.46	-1752.21	  387.79
     60.7700	  851.00	  916.20	-1824.95	  387.93
     60.8700	  787.00	  809.19	-1781.94	  388.08
     60.9700	  631.00	  731.45	-1860.20	  388.22
     61.0700	  669.00	  681.75	-1772.50	  388.36
     61.1700	  663.00	  656.68	-1753.43	  388.51
     61.2700	  627.00	  653.51	-1786.26	  388.65
     61.3700	  641.00	  671.93	-1790.68	  388.80
     61.4700	  688.00	  714.24	-1785.99	  388.94
     61.5700	  734.00	  784.11	-1809.86	  389.09
     61.6700	  813.00	  884.01	-1830.76	  389.24
     61.7700	  898.00	 1012.13	-1873.88	  389.38
     61.8700	 1028.00	 1159.38	-1891.13	  389.53
     61.9700	 1240.00	 1307.62	-1827.37	  389.68
     62.0700	 1361.00	 1429.71	-1828.46	  389.82
     62.1700	 1387.00	 1494.51	-1867.26	  389.97
     62.2700	 1430.00	 1481.04	-1810.79	  390.12
     62.3700	 1368.00	 1393.28	-1785.03	  390.27
     62.4700	 1195.00	 1257.22	-1821.97	  390.42
     62.5700	 1040.00	 1103.92	-1823.67	  390.57
     62.6700	  879.00	  957.95	-1838.70	  390.71
     62.7700	  749.00	  834.25	-1845.00	  390.86
     62.8700	  668.00	  739.03	-1830.78	  391.01
     62.9700	  629.00	  671.61	-1802.36	  391.16
     63.0700	  627.00	  627.26	-1760.01	  391.31
     63.1700	  571.00	  599.90	-1788.65	  391.46
     63.2700	  567.00	  583.94	-1776.69	  391.61
     63.3700	  570.00	  575.28	-1765.03	  391.76
     63.4700	  554.00	  571.49	-1777.24	  391.91
     63.5700	  575.00	  571.67	-1756.42	  392.06
     63.6700	  564.00	  576.20	-1771.95	  392.21
     63.7700	  602.00	  586.48	-1744.23	  392.36
     63.8700	  640.00	  604.70	-1724.45	  392.52
     63.9700	  658.00	  633.26	-1735.01	  392.67
     64.0700	  716.00	  673.92	-1717.67	  392.82
     64.1700	  696.00	  726.82	-1790.57	  392.97
     64.2700	  835.00	  789.31	-1714.06	  393.12
     64.3700	  949.00	  855.30	-1666.05	  393.27
     64.4700	  941.00	  915.24	-1733.99	  393.42
     64.5700	 1009.00	  957.17	-1707.92	  393.57
     64.6700	  980.00	  972.74	-1752.49	  393.73
     64.7700	  991.00	  958.85	-1727.60	  393.88
     64.8700	  996.00	  920.38	-1684.13	  394.03
     64.9700	  871.00	  866.56	-1755.31	  394.18
     65.0700	  932.00	  807.68	-1635.43	  394.33
     65.1700	  801.00	  752.08	-1710.83	  394.48
     65.2700	  727.00	  704.60	-1737.35	  394.63
     65.3700	  680.00	  666.59	-1746.34	  394.78
     65.4700	  620.00	  637.14	-1776.89	  394.94
     65.5700	  626.00	  614.61	-1748.36	  395.09
     65.6700	  637.00	  597.51	-1720.26	  395.24
     65.7700	  607.00	  584.73	-1737.48	  395.39
     65.8700	  534.00	  575.46	-1801.21	  395.54
     65.9700	  595.00	  569.11	-1733.86	  395.69
     66.0700	  572.00	  565.18	-1752.93	  395.84
     66.1700	  566.00	  563.26	-1757.01	  395.99
     66.2700	  508.00	  562.97	-1814.72	  396.14
     66.3700	  507.00	  564.03	-1816.78	  396.29
     66.4700	  539.00	  566.29	-1787.04	  396.44
     66.5700	  574.00	  569.79	-1755.54	  396.59
     66.6700	  527.00	  574.84	-1807.59	  396.74
     66.7700	  559.00	  582.26	-1783.01	  396.89
     66.8700	  556.00	  593.63	-1797.38	  397.04
     66.9700	  598.00	  611.88	-1773.63	  397.19
     67.0700	  587.00	  641.44	-1814.19	  397.33
     67.1700	  630.00	  689.16	-1818.91	  397.48
     67.2700	  764.00	  763.89	-1759.64	  397.63
     67.3700	  832.00	  875.38	-1803.13	  397.78
     67.4700	 1053.00	 1032.38	-1739.13	  397.93
     67.5700	 1268.00	 1238.53	-1730.28	  398.07
     67.6700	 1500.00	 1489.15	-1748.90	  398.22
     67.7700	 1764.00	 1767.62	-1763.37	  398.37
     67.8700	 2005.00	 2044.23	-1798.98	  398.51
     67.9700	 2318.00	 2277.11	-1718.86	  398.66
     68.0700	 2543.00	 2418.83	-1635.58	  398.80
     68.1700	 2470.00	 2433.35	-1723.10	  398.95
     68.2700	 2389.00	 2316.56	-1687.31	  399.10
     68.3700	 2202.00	 2099.24	-1656.99	  399.24
     68.4700	 1814.00	 1828.28	-1774.03	  399.38
     68.5700	 1494.00	 1547.67	-1813.42	  399.53
     68.6700	 1309.00	 1289.85	-1740.60	  399.67
     68.7700	 1056.00	 1074.01	-1777.76	  399.81
     68.8700	  912.00	  907.24	-1754.99	  399.96
     68.9700	  772.00	  787.29	-1775.04	  400.10
     69.0700	  693.00	  706.14	-1772.89	  400.24
     69.1700	  633.00	  654.09	-1780.84	  400.38
     69.2700	  628.00	  621.86	-1753.61	  400.52
     69.3700	  575.00	  602.26	-1787.01	  400.66
     69.4700	  602.00	  590.24	-1747.99	  400.80
     69.5700	  612.00	  582.62	-1730.37	  400.94
     69.6700	  604.00	  577.57	-1733.32	  401.08
     69.7700	  567.00	  574.09	-1766.84	  401.22
     69.8700	  553.00	  571.67	-1778.42	  401.36
     69.9700	  564.00	  570.06	-1765.81	  401.49
     70.0700	  569.00	  569.13	-1759.88	  401.63
     70.1700	  616.00	  568.83	-1712.58	  401.77
     70.2700	  581.00	  569.18	-1747.93	  401.90
     70.3700	  552.00	  570.25	-1778.00	  402.04
     70.4700	  545.00	  572.26	-1787.01	  402.17
     70.5700	  555.00	  575.59	-1780.34	  402.30
     70.6700	  590.00	  581.04	-1750.79	  402.44
     70.7700	  565.00	  589.97	-1784.72	  402.57
     70.8700	  612.00	  604.68	-1752.43	  402.70
     70.9700	  637.00	  628.62	-1751.37	  402.83
     71.0700	  617.00	  666.59	-1809.34	  402.96
     71.1700	  673.00	  724.46	-1811.21	  403.09
     71.2700	  754.00	  808.41	-1814.16	  403.22
     71.3700	  868.00	  923.47	-1815.22	  403.35
     71.4700	 1021.00	 1071.39	-1810.14	  403.48
     71.5700	 1268.00	 1249.46	-1741.21	  403.61
     71.6700	 1448.00	 1445.48	-1757.23	  403.73
     71.7700	 1534.00	 1641.93	-1867.68	  403.86
     71.8700	 1765.00	 1813.53	-1808.28	  403.99
     71.9700	 1844.00	 1931.06	-1846.81	  404.11
     72.0700	 1969.00	 1969.57	-1760.32	  404.23
     72.1700	 1864.00	 1919.60	-1815.35	  404.36
     72.2700	 1908.00	 1794.23	-1645.98	  404.48
     72.3700	 1720.00	 1619.46	-1659.21	  404.60
     72.4700	 1503.00	 1424.18	-1680.93	  404.72
     72.5700	 1392.00	 1232.50	-1600.25	  404.84
     72.6700	 1236.00	 1061.18	-1584.93	  404.96
     72.7700	 1094.00	  919.26	-1585.01	  405.08
     72.8700	  951.00	  809.04	-1617.79	  405.20
     72.9700	  873.00	  728.04	-1614.79	  405.31
     73.0700	  782.00	  671.17	-1648.92	  405.43
     73.1700	  771.00	  632.60	-1621.35	  405.54
     73.2700	  717.00	  606.99	-1649.74	  405.66
     73.3700	  693.00	  590.07	-1656.82	  405.77
     73.4700	  649.00	  578.81	-1689.56	  405.88
     73.5700	  623.00	  571.21	-1707.96	  405.99
     73.6700	  583.00	  566.04	-1742.79	  406.11
     73.7700	  586.00	  562.60	-1736.35	  406.22
     73.8700	  654.00	  560.45	-1666.20	  406.32
     73.9700	  554.00	  559.33	-1765.08	  406.43
     74.0700	  582.00	  559.03	-1736.78	  406.54
     74.1700	  583.00	  559.38	-1736.13	  406.65
     74.2700	  645.00	  560.17	-1674.92	  406.75
     74.3700	  620.00	  561.14	-1700.89	  406.85
     74.4700	  580.00	  561.97	-1741.72	  406.96
     74.5700	  613.00	  562.37	-1709.12	  407.06
     74.6700	  653.00	  562.07	-1668.82	  407.16
     74.7700	  622.00	  561.01	-1698.76	  407.26
     74.8700	  646.00	  559.31	-1673.06	  407.36
     74.9700	  631.00	  557.23	-1685.98	  407.46
     75.0700	  642.00	  555.19	-1672.94	  407.56
     75.1700	  586.00	  553.50	-1727.25	  407.65
     75.2700	  559.00	  552.49	-1753.24	  407.75
     75.3700	  572.00	  552.63	-1740.38	  407.84
     75.4700	  562.00	  554.31	-1752.06	  407.94
     75.5700	  541.00	  557.91	-1776.66	  408.03
     75.6700	  578.00	  564.17	-1745.92	  408.12
     75.7700	  562.00	  573.50	-1771.25	  408.21
     75.8700	  612.00	  586.25	-1734.00	  408.30
     75.9700	  620.00	  602.47	-1742.22	  408.39
     76.0700	  658.00	  621.71	-1723.46	  408.47
     76.1700	  612.00	  642.91	-1790.66	  408.56
     76.2700	  711.00	  664.32	-1713.07	  408.65
     76.3700	  607.00	  683.62	-1836.37	  408.73
     76.4700	  679.00	  698.06	-1778.81	  408.81
     76.5700	  700.00	  705.12	-1764.87	  408.89
     76.6700	  766.00	  703.35	-1697.10	  408.97
     76.7700	  704.00	  693.08	-1748.83	  409.05
     76.8700	  644.00	  676.13	-1791.88	  409.13
     76.9700	  643.00	  655.54	-1772.29	  409.21
     77.0700	  588.00	  633.75	-1805.50	  409.28
     77.1700	  615.00	  612.87	-1757.62	  409.36
     77.2700	  590.00	  594.37	-1764.12	  409.43
     77.3700	  545.00	  579.03	-1793.78	  409.50
     77.4700	  564.00	  567.07	-1762.82	  409.57
     77.5700	  535.00	  558.23	-1782.98	  409.64
     77.6700	  561.00	  552.02	-1750.77	  409.71
     77.7700	  574.00	  547.84	-1733.59	  409.78
     77.8700	  488.00	  545.13	-1816.88	  409.85
     77.9700	  505.00	  543.42	-1798.17	  409.91
     78.0700	  522.00	  542.36	-1780.11	  409.98
     78.1700	  486.00	  541.71	-1815.46	  410.04
     78.2700	  533.00	  541.31	-1768.06	  410.10
     78.3700	  528.00	  541.08	-1772.83	  410.16
     78.4700	  556.00	  540.96	-1744.71	  410.22
     78.5700	  510.00	  540.93	-1790.68	  410.28
     78.6700	  527.00	  540.99	-1773.74	  410.33
     78.7700	  513.00	  541.14	-1787.89	  410.39
     78.8700	  554.00	  541.41	-1747.16	  410.44
     78.9700	  505.00	  541.82	-1796.57	  410.49
     79.0700	  478.00	  542.43	-1824.18	  410.54
     79.1700	  522.00	  543.10	-1780.85	  410.59
     79.2700	  554.00	  544.26	-1750.01	  410.64
     79.3700	  534.00	  545.78	-1771.53	  410.69
     79.4700	  539.00	  547.75	-1768.50	  410.74
     79.5700	  501.00	  550.24	-1808.99	  410.78
     79.6700	  576.00	  553.34	-1737.09	  410.82
     79.7700	  520.00	  557.14	-1796.89	  410.87
     79.8700	  516.00	  561.79	-1805.54	  410.91
     79.9700	  540.00	  567.46	-1787.21	  410.94
     80.0700	  566.00	  574.38	-1768.13	  410.98
     80.1700	  551.00	  582.84	-1791.59	  411.02
     80.2700	  584.00	  593.16	-1768.91	  411.05
     80.3700	  531.00	  605.60	-1834.35	  411.09
     80.4700	  589.00	  620.27	-1791.02	  411.12
     80.5700	  610.00	  637.01	-1786.76	  411.15
     80.6700	  582.00	  655.29	-1833.04	  411.18
     80.7700	  687.00	  674.19	-1746.94	  411.21
     80.8700	  648.00	  692.41	-1804.16	  411.24
     80.9700	  721.00	  708.50	-1747.25	  411.26
     81.0700	  715.00	  721.08	-1765.83	  411.29
     81.1700	  749.00	  729.12	-1739.87	  411.31
     81.2700	  765.00	  732.00	-1726.75	  411.33
     81.3700	  753.00	  729.51	-1736.26	  411.35
     81.4700	  768.00	  721.97	-1713.72	  411.37
     81.5700	  782.00	  710.16	-1687.91	  411.39
     81.6700	  722.00	  695.10	-1732.85	  411.40
     81.7700	  766.00	  677.81	-1671.56	  411.42
     81.8700	  755.00	  659.49	-1664.24	  411.43
     81.9700	  668.00	  641.17	-1732.92	  411.44
     82.0700	  673.00	  623.77	-1710.52	  411.45
     82.1700	  677.00	  608.00	-1690.75	  411.46
     82.2700	  653.00	  594.27	-1701.02	  411.46
     82.3700	  654.00	  582.76	-1688.51	  411.47
     82.4700	  610.00	  573.46	-1723.21	  411.47
     82.5700	  590.00	  566.29	-1736.04	  411.48
     82.6700	  584.00	  561.07	-1736.82	  411.48
     82.7700	  596.00	  557.61	-1721.36	  411.48
     82.8700	  594.00	  555.77	-1721.52	  411.47
     82.9700	  566.00	  555.39	-1749.14	  411.47
     83.0700	  522.00	  556.37	-1794.12	  411.47
     83.1700	  528.00	  558.65	-1790.40	  411.46
     83.2700	  525.00	  562.10	-1796.85	  411.45
     83.3700	  543.00	  566.58	-1783.33	  411.44
     83.4700	  558.00	  571.86	-1773.61	  411.43
     83.5700	  502.00	  577.61	-1835.36	  411.42
     83.6700	  526.00	  583.40	-1817.15	  411.41
     83.7700	  589.00	  588.69	-1759.44	  411.39
     83.8700	  584.00	  592.88	-1768.63	  411.37
     83.9700	  560.00	  595.38	-1795.13	  411.35
     84.0700	  587.00	  595.77	-1768.52	  411.33
     84.1700	  571.00	  593.97	-1782.72	  411.31
     84.2700	  582.00	  590.23	-1767.98	  411.29
     84.3700	  593.00	  585.06	-1751.81	  411.27
     84.4700	  511.00	  579.05	-1827.80	  411.24
     84.5700	  563.00	  572.76	-1769.51	  411.21
     84.6700	  548.00	  566.65	-1778.40	  411.18
     84.7700	  545.00	  561.06	-1775.81	  411.15
     84.8700	  538.00	  556.20	-1777.95	  411.12
     84.9700	  539.00	  552.19	-1772.94	  411.09
     85.0700	  514.00	  549.04	-1794.79	  411.05
     85.1700	  522.00	  546.71	-1784.46	  411.01
     85.2700	  530.00	  545.09	-1774.84	  410.98
     85.3700	  528.00	  544.09	-1775.84	  410.94
     85.4700	  469.00	  543.60	-1834.35	  410.89
     85.5700	  516.00	  543.55	-1787.30	  410.85
     85.6700	  562.00	  543.86	-1741.61	  410.81
     85.7700	  521.00	  544.51	-1783.26	  410.76
     85.8700	  523.00	  545.49	-1782.24	  410.71
     85.9700	  529.00	  546.82	-1777.57	  410.66
     86.0700	  559.00	  548.53	-1749.28	  410.61
     86.1700	  509.00	  550.71	-1801.46	  410.56
     86.2700	  513.00	  553.45	-1800.20	  410.51
     86.3700	  533.00	  556.85	-1783.60	  410.45
     86.4700	  570.00	  561.03	-1750.78	  410.39
     86.5700	  561.00	  566.11	-1764.86	  410.34
     86.6700	  576.00	  571.85	-1755.60	  410.28
     86.7700	  564.00	  578.80	-1774.55	  410.21
     86.8700	  594.00	  586.48	-1752.23	  410.15
     86.9700	  610.00	  594.57	-1744.32	  410.09
     87.0700	  594.00	  602.60	-1768.35	  410.02
     87.1700	  642.00	  609.96	-1727.71	  409.95
     87.2700	  672.00	  615.98	-1703.73	  409.88
     87.3700	  663.00	  619.96	-1716.71	  409.81
     87.4700	  662.00	  621.36	-1719.11	  409.74
     87.5700	  640.00	  619.95	-1739.70	  409.66
     87.6700	  662.00	  615.93	-1713.68	  409.59
     87.7700	  592.00	  609.85	-1777.60	  409.51
     87.8700	  653.00	  602.47	-1709.22	  409.43
     87.9700	  625.00	  594.60	-1729.35	  409.35
     88.0700	  595.00	  587.01	-1751.76	  409.27
     88.1700	  604.00	  580.35	-1736.10	  409.19
     88.2700	  577.00	  575.12	-1757.87	  409.10
     88.3700	  605.00	  571.65	-1726.40	  409.01
     88.4700	  579.00	  570.12	-1750.87	  408.93
     88.5700	  528.00	  570.53	-1802.28	  408.84
     88.6700	  549.00	  572.75	-1783.50	  408.74
     88.7700	  617.00	  576.51	-1719.26	  408.65
     88.8700	  578.00	  581.41	-1763.16	  408.56
     88.9700	  591.00	  586.97	-1755.72	  408.46
     89.0700	  594.00	  592.63	-1758.38	  408.36
     89.1700	  607.00	  597.79	-1750.54	  408.26
     89.2700	  625.00	  601.82	-1736.57	  408.16
     89.3700	  578.00	  604.19	-1785.94	  408.06
     89.4700	  611.00	  604.51	-1753.26	  407.96
     89.5700	  582.00	  602.71	-1780.46	  407.85
     89.6700	  595.00	  599.00	-1763.75	  407.75
     89.7700	  606.00	  593.80	-1747.55	  407.64
     89.8700	  584.00	  587.64	-1763.39	  407.53
     89.9700	  558.00	  581.02	-1782.77	  407.42
     90.0700	  607.00	  574.41	-1727.16	  407.30
     90.1700	  591.00	  568.15	-1736.90	  407.19
     90.2700	  543.00	  562.52	-1779.27	  407.07
     90.3700	  525.00	  557.67	-1792.42	  406.96
     90.4700	  536.00	  553.67	-1777.42	  406.84
     90.5700	  579.00	  550.50	-1731.25	  406.72
     90.6700	  479.00	  548.10	-1828.85	  406.59
     90.7700	  473.00	  546.39	-1833.14	  406.47
     90.8700	  509.00	  545.26	-1796.01	  406.35
     90.9700	  584.00	  544.62	-1720.37	  406.22
     91.0700	  481.00	  544.39	-1823.14	  406.09
     91.1700	  506.00	  544.53	-1798.28	  405.96
     91.2700	  547.00	  545.04	-1757.79	  405.83
     91.3700	  517.00	  545.94	-1788.69	  405.70
     91.4700	  544.00	  547.31	-1763.06	  405.56
     91.5700	  536.00	  549.26	-1773.01	  405.43
     91.6700	  509.00	  551.94	-1802.69	  405.29
     91.7700	  510.00	  555.34	-1805.09	  405.15
     91.8700	  562.00	  560.04	-1757.79	  405.01
     91.9700	  542.00	  566.05	-1783.80	  404.87
     92.0700	  553.00	  573.54	-1780.29	  404.73
     92.1700	  589.00	  582.62	-1753.37	  404.58
     92.2700	  567.00	  593.35	-1786.10	  404.44
     92.3700	  605.00	  605.67	-1760.42	  404.29
     92.4700	  652.00	  619.37	-1727.12	  404.14
     92.5700	  575.00	  634.17	-1818.92	  403.99
     92.6700	  702.00	  649.59	-1707.34	  403.84
     92.7700	  686.00	  665.08	-1738.83	  403.69
     92.8700	  744.00	  680.00	-1695.75	  403.53
     92.9700	  707.00	  693.69	-1746.44	  403.38
     93.0700	  751.00	  705.60	-1714.35	  403.22
     93.1700	  832.00	  715.48	-1643.23	  403.06
     93.2700	  783.00	  723.48	-1700.23	  402.90
     93.3700	  758.00	  730.08	-1731.83	  402.74
     93.4700	  839.00	  736.01	-1656.76	  402.58
     93.5700	  810.00	  742.09	-1691.84	  402.42
     93.6700	  901.00	  749.06	-1607.81	  402.25
     93.7700	  808.00	  757.56	-1709.31	  402.08
     93.8700	  828.00	  768.13	-1699.88	  401.92
     93.9700	  857.00	  781.16	-1683.91	  401.75
     94.0700	  847.00	  796.90	-1709.65	  401.58
     94.1700	  885.00	  815.31	-1690.06	  401.40
     94.2700	  845.00	  835.97	-1750.72	  401.23
     94.3700	  889.00	  858.02	-1728.77	  401.06
     94.4700	  860.00	  880.17	-1779.92	  400.88
     94.5700	  907.00	  900.69	-1753.44	  400.70
     94.6700	  920.00	  917.62	-1757.37	  400.53
     94.7700	  893.00	  928.91	-1795.66	  400.35
     94.8700	  918.00	  932.84	-1774.59	  400.16
     94.9700	  907.00	  928.44	-1781.19	  399.98
     95.0700	  961.00	  915.74	-1714.49	  399.80
     95.1700	  879.00	  895.78	-1776.53	  399.61
     95.2700	  889.00	  870.31	-1741.06	  399.43
     95.3700	  817.00	  841.43	-1784.18	  399.24
     95.4700	  777.00	  811.33	-1794.08	  399.05
     95.5700	  729.00	  782.06	-1812.81	  398.86
     95.6700	  699.00	  755.52	-1816.27	  398.67
     95.7700	  702.00	  733.41	-1791.16	  398.48
     95.8700	  705.00	  717.26	-1772.01	  398.29
     95.9700	  655.00	  708.38	-1813.13	  398.09
     96.0700	  679.00	  707.92	-1788.67	  397.90
     96.1700	  680.00	  716.86	-1796.61	  397.70
     96.2700	  752.00	  735.97	-1743.72	  397.50
     96.3700	  803.00	  765.76	-1722.51	  397.30
     96.4700	  837.00	  806.42	-1729.17	  397.10
     96.5700	  801.00	  857.68	-1816.43	  396.90
     96.6700	  884.00	  918.74	-1794.49	  396.70
     96.7700	  967.00	  988.13	-1780.88	  396.49
     96.8700	 1032.00	 1063.67	-1791.42	  396.29
     96.9700	 1133.00	 1142.42	-1769.17	  396.08
     97.0700	 1213.00	 1220.71	-1767.46	  395.88
     97.1700	 1248.00	 1294.31	-1806.06	  395.67
     97.2700	 1359.00	 1358.57	-1759.32	  395.46
     97.3700	 1407.00	 1408.82	-1761.57	  395.25
     97.4700	 1463.00	 1440.99	-1737.74	  395.04
     97.5700	 1447.00	 1452.35	-1765.10	  394.83
     97.6700	 1480.00	 1442.16	-1721.91	  394.61
     97.7700	 1395.00	 1411.75	-1776.50	  394.40
     97.8700	 1284.00	 1364.27	-1840.02	  394.19
     97.9700	 1276.00	 1303.88	-1787.63	  393.97
     98.0700	 1234.00	 1235.13	-1760.88	  393.75
     98.1700	 1144.00	 1162.49	-1778.24	  393.54
     98.2700	 1064.00	 1090.07	-1785.82	  393.32
     98.3700	 1010.00	 1021.46	-1771.21	  393.10
     98.4700	  981.00	  959.63	-1738.38	  392.88
     98.5700	  862.00	  906.96	-1804.71	  392.65
     98.6700	  928.00	  865.24	-1696.99	  392.43
     98.7700	  808.00	  835.76	-1787.51	  392.21
     98.8700	  786.00	  819.46	-1793.21	  391.99
     98.9700	  769.00	  816.92	-1807.67	  391.76
     99.0700	  814.00	  828.55	-1774.30	  391.53
     99.1700	  893.00	  854.52	-1721.27	  391.31
     99.2700	  889.00	  894.85	-1765.60	  391.08
     99.3700	  918.00	  949.34	-1791.09	  390.85
     99.4700	 1007.00	 1017.51	-1770.26	  390.62
     99.5700	 1119.00	 1098.53	-1739.28	  390.39
     99.6700	 1218.00	 1191.11	-1732.86	  390.16
     99.7700	 1257.00	 1293.35	-1796.10	  389.93
     99.8700	 1368.00	 1402.70	-1794.45	  389.70
     99.9700	 1524.00	 1515.88	-1751.63	  389.47
    100.0700	 1622.00	 1628.93	-1766.68	  389.24
    100.1700	 1721.00	 1737.40	-1776.15	  389.00
    100.2700	 1975.00	 1836.65	-1621.40	  388.77
    100.3700	 2005.00	 1922.52	-1677.27	  388.53
    100.4700	 2012.00	 1991.56	-1739.31	  388.30
    100.5700	 2088.00	 2041.37	-1713.12	  388.06
    100.6700	 2080.00	 2070.34	-1750.09	  387.82
    100.7700	 2128.00	 2077.50	-1709.25	  387.59
    100.8700	 2059.00	 2062.49	-1763.24	  387.35
    100.9700	 2156.00	 2025.73	-1629.48	  387.11
    101.0700	 2092.00	 1968.83	-1636.58	  386.87
    101.1700	 1956.00	 1894.77	-1698.52	  386.63
    101.2700	 1797.00	 1807.89	-1770.64	  386.39
    101.3700	 1733.00	 1713.24	-1739.99	  386.15
    101.4700	 1550.00	 1616.04	-1825.79	  385.91
    101.5700	 1490.00	 1521.06	-1790.81	  385.67
    101.6700	 1435.00	 1432.29	-1757.04	  385.42
    101.7700	 1391.00	 1352.73	-1721.48	  385.18
    101.8700	 1321.00	 1284.22	-1722.97	  384.94
    101.9700	 1217.00	 1227.56	-1770.31	  384.70
    102.0700	 1141.00	 1182.42	-1801.17	  384.45
    102.1700	 1137.00	 1147.59	-1770.34	  384.21
    102.2700	 1124.00	 1121.08	-1756.83	  383.96
    102.3700	 1065.00	 1100.32	-1795.07	  383.72
    102.4700	 1130.00	 1082.53	-1712.28	  383.48
    102.5700	 1047.00	 1064.97	-1777.72	  383.23
    102.6700	 1006.00	 1045.35	-1799.10	  382.99
    102.7700	 1030.00	 1022.10	-1751.85	  382.74
    102.8700	  983.00	  994.50	-1771.25	  382.49
    102.9700	  924.00	  962.65	-1798.40	  382.25
    103.0700	  870.00	  927.25	-1817.00	  382.00
    103.1700	  868.00	  889.39	-1781.14	  381.76
    103.2700	  880.00	  850.27	-1730.02	  381.51
    103.3700	  781.00	  811.16	-1789.91	  381.26
    103.4700	  767.00	  773.20	-1765.95	  381.02
    103.5700	  740.00	  737.36	-1757.11	  380.77
    103.6700	  712.00	  704.43	-1752.18	  380.52
    103.7700	  666.00	  674.93	-1768.68	  380.28
    103.8700	  660.00	  649.18	-1748.93	  380.03
    103.9700	  628.00	  627.27	-1759.02	  379.78
    104.0700	  590.00	  609.12	-1778.87	  379.54
    104.1700	  610.00	  594.50	-1744.25	  379.29
    104.2700	  610.00	  583.10	-1732.85	  379.04
    104.3700	  546.00	  574.53	-1788.28	  378.80
    104.4700	  547.00	  568.40	-1781.15	  378.55
    104.5700	  549.00	  564.32	-1775.07	  378.30
    104.6700	  559.00	  561.93	-1762.68	  378.06
    104.7700	  541.00	  560.89	-1779.64	  377.81
    104.8700	  511.00	  560.92	-1809.67	  377.56
    104.9700	  542.00	  561.78	-1779.53	  377.32
    105.0700	  555.00	  563.27	-1768.02	  377.07
    105.1700	  526.00	  565.22	-1798.97	  376.83
    105.2700	  538.00	  567.49	-1789.24	  376.58
    105.3700	  546.00	  570.03	-1783.78	  376.34
    105.4700	  546.00	  572.80	-1786.55	  376.10
    105.5700	  589.00	  575.80	-1746.55	  375.85
    105.6700	  556.00	  579.10	-1782.85	  375.61
    105.7700	  605.00	  582.81	-1737.56	  375.37
    105.8700	  566.00	  587.05	-1780.80	  375.12
    105.9700	  569.00	  591.96	-1782.71	  374.88
    106.0700	  569.00	  597.65	-1788.40	  374.64
    106.1700	  576.00	  604.20	-1787.95	  374.40
    106.2700	  570.00	  611.63	-1801.38	  374.16
    106.3700	  613.00	  619.88	-1766.63	  373.92
    106.4700	  627.00	  628.83	-1761.58	  373.68
    106.5700	  627.00	  638.25	-1771.00	  373.44
    106.6700	  635.00	  647.87	-1772.62	  373.20
    106.7700	  599.00	  657.35	-1818.10	  372.96
    106.8700	  623.00	  666.29	-1803.04	  372.73
    106.9700	  721.00	  674.28	-1713.03	  372.49
    107.0700	  697.00	  680.92	-1743.67	  372.25
    107.1700	  671.00	  685.90	-1774.65	  372.02
    107.2700	  667.00	  689.01	-1781.76	  371.78
    107.3700	  668.00	  690.22	-1781.97	  371.55
    107.4700	  664.00	  689.70	-1785.45	  371.32
    107.5700	  652.00	  687.74	-1795.49	  371.09
    107.6700	  626.00	  684.76	-1818.51	  370.86
    107.7700	  661.00	  681.23	-1779.98	  370.63
    107.8700	  714.00	  677.59	-1723.34	  370.40
    107.9700	  683.00	  674.22	-1750.97	  370.17
    108.0700	  619.00	  671.42	-1812.17	  369.94
    108.1700	  719.00	  669.37	-1710.12	  369.72
    108.2700	  655.00	  668.14	-1772.89	  369.49
    108.3700	  696.00	  667.70	-1731.45	  369.27
    108.4700	  668.00	  667.86	-1759.61	  369.05
    108.5700	  665.00	  668.39	-1763.14	  368.82
    108.6700	  694.00	  668.94	-1734.69	  368.60
    108.7700	  701.00	  669.14	-1727.89	  368.38
    108.8700	  667.00	  668.61	-1761.36	  368.17
    108.9700	  674.00	  667.01	-1752.76	  367.95
    109.0700	  687.00	  664.11	-1736.86	  367.73
    109.1700	  676.00	  659.79	-1743.54	  367.52
    109.2700	  639.00	  654.06	-1774.81	  367.31
    109.3700	  631.00	  647.06	-1775.81	  367.10
    109.4700	  635.00	  639.03	-1763.78	  366.88
    109.5700	  642.00	  630.24	-1747.99	  366.68
    109.6700	  623.00	  621.00	-1757.75	  366.47
    109.7700	  597.00	  611.62	-1774.37	  366.26
    109.8700	  589.00	  602.37	-1773.12	  366.06
    109.9700	  569.00	  593.51	-1784.26	  365.86
    110.0700	  630.00	  585.25	-1715.00	  365.65
    110.1700	  559.00	  577.75	-1778.50	  365.45
    110.2700	  513.00	  571.11	-1817.86	  365.26
    110.3700	  575.00	  565.40	-1750.15	  365.06
    110.4700	  563.00	  560.64	-1757.39	  364.87
    110.5700	  565.00	  556.80	-1751.55	  364.67
    110.6700	  511.00	  553.85	-1802.60	  364.48
    110.7700	  539.00	  551.70	-1772.45	  364.29
    110.8700	  577.00	  550.29	-1733.04	  364.10
    110.9700	  552.00	  549.52	-1757.27	  363.92
    111.0700	  506.00	  549.32	-1803.07	  363.73
    111.1700	  539.00	  549.59	-1770.34	  363.55
    111.2700	  544.00	  550.28	-1766.03	  363.37
    111.3700	  576.00	  551.32	-1735.07	  363.19
    111.4700	  543.00	  552.66	-1769.41	  363.02
    111.5700	  575.00	  554.26	-1739.01	  362.85
    111.6700	  568.00	  556.09	-1747.84	  362.67
    111.7700	  523.00	  558.13	-1794.88	  362.50
    111.8700	  527.00	  560.37	-1793.12	  362.34
    111.9700	  551.00	  562.81	-1771.56	  362.17
    112.0700	  551.00	  565.45	-1774.20	  362.01
    112.1700	  593.00	  568.30	-1735.05	  361.85
    112.2700	  551.00	  571.39	-1780.14	  361.69
    112.3700	  614.00	  574.75	-1720.50	  361.53
    112.4700	  592.00	  578.41	-1746.16	  361.38
    112.5700	  556.00	  582.42	-1786.17	  361.23
    112.6700	  650.00	  586.85	-1696.60	  361.08
    112.7700	  635.00	  591.78	-1716.53	  360.93
    112.8700	  674.00	  597.32	-1683.07	  360.79
    112.9700	  690.00	  603.63	-1673.38	  360.64
    113.0700	  667.00	  610.88	-1703.63	  360.51
    113.1700	  748.00	  619.32	-1631.07	  360.37
    113.2700	  718.00	  629.27	-1671.02	  360.23
    113.3700	  796.00	  641.13	-1604.88	  360.10
    113.4700	  778.00	  655.40	-1637.15	  359.98
    113.5700	  834.00	  672.72	-1598.47	  359.85
    113.6700	  828.00	  693.89	-1625.64	  359.73
    113.7700	  898.00	  719.86	-1581.61	  359.61
    113.8700	  964.00	  751.78	-1547.53	  359.49
    113.9700	  988.00	  791.03	-1562.78	  359.38
    114.0700	 1013.00	  839.17	-1585.92	  359.26
    114.1700	 1087.00	  898.00	-1570.75	  359.16
    114.2700	 1152.00	  969.55	-1577.30	  359.05
    114.3700	 1271.00	 1055.97	-1544.72	  358.95
    114.4700	 1320.00	 1159.58	-1599.33	  358.85
    114.5700	 1531.00	 1282.70	-1511.45	  358.75
    114.6700	 1542.00	 1427.66	-1645.41	  358.66
    114.7700	 1731.00	 1596.65	-1625.40	  358.57
    114.8700	 1965.00	 1791.51	-1586.26	  358.48
    114.9700	 2082.00	 2013.68	-1691.43	  358.40
    115.0700	 2353.00	 2263.93	-1670.68	  358.32
    115.1700	 2537.00	 2542.36	-1765.11	  358.25
    115.2700	 2919.00	 2848.18	-1688.93	  358.17
    115.3700	 3080.00	 3179.49	-1859.24	  358.10
    115.4700	 3293.00	 3533.25	-2000.00	  358.04
    115.5700	 3815.00	 3905.19	-1849.94	  357.98
    115.6700	 4083.00	 4289.90	-1966.65	  357.92
    115.7700	 4418.00	 4680.75	-2022.50	  357.86
    115.8700	 4770.00	 5069.80	-2059.55	  357.81
    115.9700	 5141.00	 5448.08	-2066.83	  357.76
    116.0700	 5563.00	 5805.63	-2002.38	  357.72
    116.1700	 5995.00	 6131.95	-1896.70	  357.68
    116.2700	 6302.00	 6416.25	-1874.00	  357.64
    116.3700	 6676.00	 6647.97	-1731.72	  357.61
    116.4700	 6657.00	 6817.71	-1920.46	  357.58
    116.5700	 6851.00	 6918.06	-1826.81	  357.56
    116.6700	 7039.00	 6944.51	-1665.26	  357.54
    116.7700	 6930.00	 6895.98	-1725.73	  357.52
    116.8700	 6840.00	 6774.99	-1694.74	  357.51
    116.9700	 6821.00	 6587.31	-1526.06	  357.50
    117.0700	 6368.00	 6341.29	-1733.04	  357.49
    117.1700	 6081.00	 6046.84	-1725.59	  357.49
    117.2700	 5686.00	 5714.59	-1788.34	  357.50
    117.3700	 5486.00	 5355.29	-1629.04	  357.51
    117.4700	 4947.00	 4979.22	-1791.97	  357.52
    117.5700	 4541.00	 4595.89	-1814.64	  357.54
    117.6700	 4305.00	 4213.65	-1668.40	  357.56
    117.7700	 4024.00	 3839.71	-1575.46	  357.59
    117.8700	 3710.00	 3480.19	-1529.94	  357.62
    117.9700	 3310.00	 3139.88	-1589.63	  357.65
    118.0700	 2944.00	 2822.39	-1638.14	  357.69
    118.1700	 2601.00	 2530.09	-1688.84	  357.74
    118.2700	 2227.00	 2264.30	-1797.05	  357.79
    118.3700	 1972.00	 2025.50	-1813.25	  357.84
    118.4700	 1731.00	 1813.32	-1842.07	  357.90
    118.5700	 1571.00	 1626.79	-1815.54	  357.97
    118.6700	 1312.00	 1464.37	-1912.12	  358.03
    118.7700	 1235.00	 1324.21	-1848.96	  358.11
    118.8700	 1101.00	 1204.28	-1863.03	  358.19
    118.9700	 1014.00	 1102.41	-1848.16	  358.27
    119.0700	  959.00	 1016.45	-1817.20	  358.36
    119.1700	  839.00	  944.30	-1865.05	  358.46
    119.2700	  854.00	  884.00	-1789.75	  358.56
    119.3700	  775.00	  833.78	-1818.53	  358.66
    119.4700	  733.00	  792.05	-1818.80	  358.77
    119.5700	  680.00	  757.42	-1837.17	  358.89
    119.6700	  614.00	  728.69	-1874.44	  359.01
    119.7700	  646.00	  704.84	-1818.59	  359.13
    119.8700	  651.00	  685.03	-1793.78	  359.27
    119.9700	  618.00	  668.54	-1810.29	  359.40
    120.0700	  608.00	  654.80	-1806.55	  359.55
    120.1700	  578.00	  643.35	-1825.10	  359.69
    120.2700	  583.00	  633.80	-1810.55	  359.85
    120.3700	  568.00	  625.85	-1817.60	  360.01
    120.4700	  529.00	  619.28	-1850.03	  360.18
    120.5700	  578.00	  613.87	-1795.62	  360.35
    120.6700	  546.00	  609.50	-1823.25	  360.53
    120.7700	  577.00	  606.05	-1788.80	  360.71
    120.8700	  556.00	  603.42	-1807.17	  360.90
    120.9700	  577.00	  601.56	-1784.31	  361.10
    121.0700	  596.00	  600.40	-1764.15	  361.30
    121.1700	  535.00	  599.90	-1824.65	  361.51
    121.2700	  569.00	  600.03	-1790.78	  361.72
    121.3700	  628.00	  600.73	-1732.48	  361.94
    121.4700	  564.00	  601.98	-1797.73	  362.17
    121.5700	  609.00	  603.71	-1754.46	  362.40
    121.6700	  591.00	  605.88	-1774.63	  362.64
    121.7700	  601.00	  608.44	-1767.19	  362.89
    121.8700	  655.00	  611.31	-1716.06	  363.14
    121.9700	  566.00	  614.40	-1808.16	  363.40
    122.0700	  612.00	  617.64	-1765.39	  363.67
    122.1700	  630.00	  620.92	-1750.67	  363.94
    122.2700	  633.00	  624.15	-1750.90	  364.22
    122.3700	  635.00	  627.21	-1751.96	  364.51
    122.4700	  645.00	  629.99	-1744.74	  364.80
    122.5700	  624.00	  632.40	-1768.15	  365.10
    122.6700	  699.00	  634.34	-1695.09	  365.41
    122.7700	  651.00	  635.72	-1744.47	  365.72
    122.8700	  666.00	  636.50	-1730.25	  366.04
    122.9700	  635.00	  636.64	-1761.39	  366.37
    123.0700	  645.00	  636.14	-1750.89	  366.71
    123.1700	  656.00	  635.02	-1738.77	  367.05
    123.2700	  635.00	  633.33	-1758.08	  367.40
    123.3700	  702.00	  631.12	-1688.87	  367.76
    123.4700	  671.00	  628.48	-1717.23	  368.13
    123.5700	  662.00	  625.47	-1723.22	  368.50
    123.6700	  578.00	  622.17	-1803.92	  368.88
    123.7700	  655.00	  618.67	-1723.42	  369.27
    123.8700	  630.00	  615.04	-1744.79	  369.67
    123.9700	  661.00	  611.35	-1710.10	  370.07
    124.0700	  597.00	  607.66	-1770.41	  370.48
    124.1700	  626.00	  604.03	-1737.78	  370.90
    124.2700	  602.00	  600.51	-1758.26	  371.33
    124.3700	  600.00	  597.13	-1756.88	  371.76
    124.4700	  604.00	  593.93	-1749.68	  372.21
    124.5700	  626.00	  590.93	-1724.68	  372.66
    124.6700	  586.00	  588.14	-1761.89	  373.12
    124.7700	  653.00	  585.58	-1692.33	  373.59
    124.8700	  593.00	  583.25	-1750.00	  374.06
    124.9700	  582.00	  493.71	-1671.46	  374.55
    125.0700	  550.00	  494.21	-1759.75	  375.04
    125.1700	  574.00	  494.71	-1759.75	  375.54
    125.2700	  542.00	  495.22	-1759.75	  376.05
    125.3700	  611.00	  495.74	-1759.75	  376.57
    125.4700	  568.00	  496.27	-1759.75	  377.10
    125.5700	  563.00	  496.80	-1759.75	  377.64
    125.6700	  578.00	  497.35	-1759.75	  378.18
    125.7700	  554.00	  497.90	-1759.75	  378.74
    125.8700	  575.00	  498.46	-1759.75	  379.30
    125.9700	  611.00	  499.04	-1759.75	  379.87
    126.0700	  611.00	  499.62	-1759.75	  380.45
    126.1700	  588.00	  500.21	-1759.75	  381.04
    126.2700	  571.00	  500.81	-1759.75	  381.64
    126.3700	  590.00	  501.41	-1759.75	  382.25
    126.4700	  598.00	  502.03	-1759.75	  382.87
    126.5700	  591.00	  502.66	-1759.75	  383.50
    126.6700	  561.00	  503.30	-1759.75	  384.13
    126.7700	  630.00	  503.94	-1759.75	  384.78
    126.8700	  653.00	  504.60	-1759.75	  385.43
    126.9700	  599.00	  505.26	-1759.75	  386.10
    127.0700	  646.00	  505.94	-1759.75	  386.77
    127.1700	  647.00	  506.62	-1759.75	  387.46
    127.2700	  604.00	  507.32	-1759.75	  388.15
    127.3700	  649.00	  508.02	-1759.75	  388.86
    127.4700	  725.00	  508.74	-1759.75	  389.57
    127.5700	  681.00	  509.46	-1759.75	  390.30
    127.6700	  700.00	  510.20	-1759.75	  391.03
    127.7700	  731.00	  510.94	-1759.75	  391.78
    127.8700	  719.00	  511.70	-1759.75	  392.53
    127.9700	  742.00	  512.46	-1759.75	  393.30
    128.0700	  794.00	  513.24	-1759.75	  394.08
    128.1700	  761.00	  514.03	-1759.75	  394.86
    128.2700	  768.00	  514.82	-1759.75	  395.66
    128.3700	  788.00	  515.63	-1759.75	  396.47
    128.4700	  752.00	  516.45	-1759.75	  397.29
    128.5700	    0.00	  517.28	-1759.75	  398.12
    128.6700	    0.00	  518.12	-1759.75	  398.96
     12.3089	        	        	        	        	       0	(  0  0  2)	  0  1
     24.8928	        	        	        	        	       0	(  0  0  4)	  0  1
     28.3327	        	        	        	        	       0	(  1  0  0)	  0  1
     29.0300	        	        	        	        	       0	(  1  0  1)	  0  1
     31.0364	        	        	        	        	       0	(  1  0  2)	  0  1
     34.1451	        	        	        	        	       0	(  1  0  3)	  0  1
     37.7927	        	        	        	        	       0	(  0  0  6)	  0  1
     38.1226	        	        	        	        	       0	(  1  0  4)	  0  1
     42.7731	        	        	        	        	       0	(  1  0  5)	  0  1
     47.9575	        	        	        	        	       0	(  1  0  6)	  0  1
     50.2692	        	        	        	        	       0	(  1  1  0)	  0  1
     51.2150	        	        	        	        	       0	(  0  0  8)	  0  1
     51.9924	        	        	        	        	       0	(  1  1  2)	  0  1
     53.5883	        	        	        	        	       0	(  1  0  7)	  0  1
     56.9408	        	        	        	        	       0	(  1  1  4)	  0  1
     58.7660	        	        	        	        	       0	(  2  0  0)	  0  1
     59.1576	        	        	        	        	       0	(  2  0  1)	  0  1
     59.6191	        	        	        	        	       0	(  1  0  8)	  0  1
     60.3231	        	        	        	        	       0	(  2  0  2)	  0  1
     62.2366	        	        	        	        	       0	(  2  0  3)	  0  1
     64.6362	        	        	        	        	       0	(  1  1  6)	  0  1
     64.8609	        	        	        	        	       0	(  2  0  4)	  0  1
     65.4446	        	        	        	        	       0	(  0  0 10)	  0  1
     66.0357	        	        	        	        	       0	(  1  0  9)	  0  1
     68.1555	        	        	        	        	       0	(  2  0  5)	  0  1
     72.0833	        	        	        	        	       0	(  2  0  6)	  0  1
     72.8522	        	        	        	        	       0	(  1  0 10)	  0  1
     74.6747	        	        	        	        	       0	(  1  1  8)	  0  1
     76.6178	        	        	        	        	       0	(  2  0  7)	  0  1
     80.1102	        	        	        	        	       0	(  1  0 11)	  0  1
     80.9256	        	        	        	        	       0	(  0  0 12)	  0  1
     81.0067	        	        	        	        	       0	(  2  1  0)	  0  1
     81.3466	        	        	        	        	       0	(  2  1  1)	  0  1
     81.7485	        	        	        	        	       0	(  2  0  8)	  0  1
     82.3645	        	        	        	        	       0	(  2  1  2)	  0  1
     84.0560	        	        	        	        	       0	(  2  1  3)	  0  1
     86.4159	        	        	        	        	       0	(  2  1  4)	  0  1
     86.9469	        	        	        	        	       0	(  1  1 10)	  0  1
     87.4869	        	        	        	        	       0	(  2  0  9)	  0  1
     87.8849	        	        	        	        	       0	(  1  0 12)	  0  1
     89.4419	        	        	        	        	       0	(  2  1  5)	  0  1
     93.1396	        	        	        	        	       0	(  2  1  6)	  0  1
     93.8747	        	        	        	        	       0	(  2  0 10)	  0  1
     94.8951	        	        	        	        	       0	(  3  0  0)	  0  1
     95.2325	        	        	        	        	       0	(  3  0  1)	  0  1
     96.2458	        	        	        	        	       0	(  3  0  2)	  0  1
     96.2986	        	        	        	        	       0	(  1  0 13)	  0  1
     97.5285	        	        	        	        	       0	(  2  1  7)	  0  1
     97.9393	        	        	        	        	       0	(  3  0  3)	  0  1
     98.4658	        	        	        	        	       0	(  0  0 14)	  0  1
    100.3224	        	        	        	        	       0	(  3  0  4)	  0  1
    100.9971	        	        	        	        	       0	(  2  0 11)	  0  1
    101.8182	        	        	        	        	       0	(  1  1 12)	  0  1
    102.6513	        	        	        	        	       0	(  2  1  8)	  0  1
    103.4142	        	        	        	        	       0	(  3  0  5)	  0  1
    105.5519	        	        	        	        	       0	(  1  0 14)	  0  1
    107.2496	        	        	        	        	       0	(  3  0  6)	  0  1
    108.5886	        	        	        	        	       0	(  2  1  9)	  0  1
    109.0090	        	        	        	        	       0	(  2  0 12)	  0  1
    111.8902	        	        	        	        	       0	(  3  0  7)	  0  1
    115.4859	        	        	        	        	       0	(  2  1 10)	  0  1
    115.9964	        	        	        	        	       0	(  1  0 15)	  0  1
    116.6194	        	        	        	        	       0	(  2  2  0)	  0  1
    117.4440	        	        	        	        	       0	(  3  0  8)	  0  1
    118.1347	        	        	        	        	       0	(  2  2  2)	  0  1
    118.1942	        	        	        	        	       0	(  2  0 13)	  0  1
    119.9564	        	        	        	        	       0	(  0  0 16)	  0  1
    120.6643	        	        	        	        	       0	(  1  1 14)	  0  1
    122.8204	        	        	        	        	       0	(  2  2  4)	  0  1
    123.6138	        	        	        	        	       0	(  2  1 11)	  0  1
    124.1045	        	        	        	        	       0	(  3  0  9)	  0  1
    124.6843	        	        	        	        	       0	(  3  1  0)	  0  1
    125.0946	        	        	        	        	       0	(  3  1  1)	  0  1
    126.3381	        	        	        	        	       0	(  3  1  2)	  0  1
    128.3422	        	        	        	        	       0	(  1  0 16)	  0  1
    128.4564	        	        	        	        	       0	(  3  1  3)	  0  1
    129.1260	        	        	        	        	       0	(  2  0 14)	  0  1
    131.2607	        	        	        	        	       0	(  2  2  6)	  0  1
    131.5324	        	        	        	        	       0	(  3  1  4)	  0  1
    132.2461	        	        	        	        	       0	(  3  0 10)	  0  1
    133.5277	        	        	        	        	       0	(  2  1 12)	  0  1
    135.7197	        	        	        	        	       0	(  3  1  5)	  0  1
    141.3155	        	        	        	        	       0	(  3  1  6)	  0  1
    142.7271	        	        	        	        	       0	(  3  0 11)	  0  1
    143.2717	        	        	        	        	       0	(  2  0 15)	  0  1
    144.5205	        	        	        	        	       0	(  1  0 17)	  0  1
    145.4964	        	        	        	        	       0	(  2  2  8)	  0  1
    146.6884	        	        	        	        	       0	(  2  1 13)	  0  1
    148.9897	        	        	        	        	       0	(  3  1  7)	  0  1
    149.6140	        	        	        	        	       0	(  1  1 16)	  0  1
    154.0332	        	        	        	        	       0	(  0  0 18)	  0  1
    158.6172	        	        	        	        	       0	(  3  0 12)	  0  1
    158.8393	        	        	        	        	       0	(  4  0  0)	  0  1
    159.7962	        	        	        	        	       0	(  4  0  1)	  0  1
    160.9885	        	        	        	        	       0	(  3  1  8)	  0  1
    162.9752	        	        	        	        	       0	(  4  0  2)	  0  1
    169.7992	        	        	        	        	       0	(  2  0 16)	  0  1
    170.3235	        	        	        	        	       0	(  4  0  3)	  0  1
    174.2766	        	        	        	        	       0	(  2  1 14)	  0  1
