MSG Master    CELL:    5.91148   5.91148  23.24188   90.0000   90.0000  120.0000   SPGR: P 63/m m c             TEMP:    944.05
  1   1280     2.52000     0.00000    -0.12472     0.00000     0.00000    0
    98     0     2
       0.00000      10.00000
     125.00000     130.00000
 2Theta	Yobs	Ycal	Yobs-Ycal	Backg	Posr	(hkl)	K
      0.7700	    0.00	  482.58	-1722.50	  369.57
      0.8700	    0.00	  483.98	-1722.50	  370.97
      0.9700	   38.00	  485.36	-1722.50	  372.35
      1.0700	   33.00	  486.72	-1722.50	  373.71
      1.1700	   41.00	  488.07	-1722.50	  375.06
      1.2700	   46.00	  489.40	-1722.50	  376.40
      1.3700	   43.00	  490.72	-1722.50	  377.71
      1.4700	   88.00	  492.02	-1722.50	  379.01
      1.5700	  315.00	  493.31	-1722.50	  380.30
      1.6700	  447.00	  494.58	-1722.50	  381.57
      1.7700	  564.00	  495.83	-1722.50	  382.83
      1.8700	  644.00	  497.07	-1722.50	  384.07
      1.9700	  718.00	  498.30	-1722.50	  385.29
      2.0700	  763.00	  499.51	-1722.50	  386.50
      2.1700	  841.00	  500.70	-1722.50	  387.69
      2.2700	  769.00	  501.88	-1722.50	  388.87
      2.3700	  757.00	  503.05	-1722.50	  390.04
      2.4700	  728.00	  504.20	-1722.50	  391.19
      2.5700	  743.00	  505.33	-1722.50	  392.33
      2.6700	  679.00	  506.46	-1722.50	  393.45
      2.7700	  642.00	  507.56	-1722.50	  394.56
      2.8700	  638.00	  508.66	-1722.50	  395.65
      2.9700	  603.00	  509.73	-1722.50	  396.73
      3.0700	  575.00	  510.80	-1722.50	  397.79
      3.1700	  619.00	  511.85	-1722.50	  398.84
      3.2700	  665.00	  512.89	-1722.50	  399.88
      3.3700	  759.00	  513.91	-1722.50	  400.90
      3.4700	  808.00	  514.92	-1722.50	  401.91
      3.5700	  892.00	  515.92	-1722.50	  402.91
      3.6700	  982.00	  516.90	-1722.50	  403.89
      3.7700	 1055.00	  517.87	-1722.50	  404.86
      3.8700	 1030.00	  518.82	-1722.50	  405.82
      3.9700	 1147.00	  519.77	-1722.50	  406.76
      4.0700	 1159.00	  520.69	-1722.50	  407.69
      4.1700	 1182.00	  521.61	-1722.50	  408.60
      4.2700	 1217.00	  522.51	-1722.50	  409.51
      4.3700	 1188.00	  523.40	-1722.50	  410.40
      4.4700	 1173.00	  524.28	-1722.50	  411.28
      4.5700	 1145.00	  525.15	-1722.50	  412.14
      4.6700	 1086.00	  526.00	-1722.50	  412.99
      4.7700	 1048.00	  526.84	-1722.50	  413.83
      4.8700	 1030.00	  527.66	-1722.50	  414.66
      4.9700	  975.00	  528.48	-1722.50	  415.47
      5.0700	  948.00	  529.28	-1722.50	  416.28
      5.1700	  974.00	  530.07	-1722.50	  417.07
      5.2700	  936.00	  530.85	-1722.50	  417.84
      5.3700	  935.00	  531.62	-1722.50	  418.61
      5.4700	  934.00	  532.37	-1722.50	  419.36
      5.5700	  949.00	  533.11	-1722.50	  420.11
      5.6700	  842.00	  533.84	-1722.50	  420.84
      5.7700	  849.00	  534.56	-1722.50	  421.55
      5.8700	  855.00	  535.27	-1722.50	  422.26
      5.9700	  795.00	  535.96	-1722.50	  422.96
      6.0700	  854.00	  536.65	-1722.50	  423.64
      6.1700	  763.00	  537.32	-1722.50	  424.31
      6.2700	  778.00	  537.98	-1722.50	  424.97
      6.3700	  845.00	  538.63	-1722.50	  425.62
      6.4700	  787.00	  539.27	-1722.50	  426.26
      6.5700	  798.00	  539.90	-1722.50	  426.89
      6.6700	  723.00	  540.51	-1722.50	  427.51
      6.7700	  764.00	  541.12	-1722.50	  428.11
      6.8700	  731.00	  541.72	-1722.50	  428.71
      6.9700	  714.00	  542.30	-1722.50	  429.29
      7.0700	  705.00	  542.87	-1722.50	  429.87
      7.1700	  670.00	  543.44	-1722.50	  430.43
      7.2700	  715.00	  543.99	-1722.50	  430.98
      7.3700	  701.00	  544.53	-1722.50	  431.53
      7.4700	  659.00	  545.06	-1722.50	  432.06
      7.5700	  656.00	  545.59	-1722.50	  432.58
      7.6700	  662.00	  546.10	-1722.50	  433.09
      7.7700	  642.00	  546.60	-1722.50	  433.59
      7.8700	  620.00	  547.09	-1722.50	  434.08
      7.9700	  628.00	  547.57	-1722.50	  434.57
      8.0700	  664.00	  548.04	-1722.50	  435.04
      8.1700	  658.00	  548.51	-1722.50	  435.50
      8.2700	  592.00	  548.96	-1722.50	  435.95
      8.3700	  619.00	  549.40	-1722.50	  436.39
      8.4700	  627.00	  549.83	-1722.50	  436.83
      8.5700	  601.00	  550.26	-1722.50	  437.25
      8.6700	  588.00	  550.67	-1722.50	  437.66
      8.7700	  626.00	  551.07	-1722.50	  438.07
      8.8700	  627.00	  551.47	-1722.50	  438.46
      8.9700	  627.00	  551.86	-1722.50	  438.85
      9.0700	  628.00	  552.23	-1722.50	  439.23
      9.1700	  662.00	  552.60	-1722.50	  439.59
      9.2700	  572.00	  552.96	-1722.50	  439.95
      9.3700	  643.00	  553.31	-1722.50	  440.30
      9.4700	  573.00	  553.65	-1722.50	  440.64
      9.5700	  578.00	  553.98	-1722.50	  440.98
      9.6700	  611.00	  554.31	-1722.50	  441.30
      9.7700	  629.00	  554.62	-1722.50	  441.62
      9.8700	  565.00	  554.93	-1722.50	  441.92
      9.9700	  600.00	  555.23	-1722.50	  442.22
     10.0700	  591.00	  557.13	-1688.63	  442.51
     10.1700	  611.00	  557.59	-1669.09	  442.79
     10.2700	  583.00	  558.08	-1697.58	  443.06
     10.3700	  572.00	  558.62	-1709.12	  443.33
     10.4700	  618.00	  559.26	-1663.76	  443.59
     10.5700	  633.00	  560.04	-1649.54	  443.83
     10.6700	  616.00	  561.06	-1667.56	  444.07
     10.7700	  563.00	  562.42	-1721.92	  444.31
     10.8700	  564.00	  564.19	-1722.69	  444.53
     10.9700	  552.00	  566.41	-1736.91	  444.75
     11.0700	  601.00	  569.07	-1690.57	  444.96
     11.1700	  570.00	  572.16	-1724.66	  445.16
     11.2700	  579.00	  575.74	-1719.24	  445.35
     11.3700	  548.00	  579.89	-1754.39	  445.54
     11.4700	  622.00	  584.75	-1685.25	  445.72
     11.5700	  593.00	  590.55	-1720.05	  445.89
     11.6700	  668.00	  597.66	-1652.16	  446.05
     11.7700	  602.00	  606.55	-1727.05	  446.21
     11.8700	  640.00	  617.67	-1700.17	  446.36
     11.9700	  685.00	  630.82	-1668.32	  446.50
     12.0700	  674.00	  644.16	-1692.66	  446.64
     12.1700	  686.00	  653.32	-1689.82	  446.77
     12.2700	  662.00	  651.73	-1712.23	  446.89
     12.3700	  675.00	  636.29	-1683.79	  447.00
     12.4700	  654.00	  614.34	-1682.84	  447.11
     12.5700	  627.00	  595.21	-1690.71	  447.21
     12.6700	  570.00	  582.11	-1734.61	  447.31
     12.7700	  525.00	  574.34	-1771.84	  447.40
     12.8700	  507.00	  570.08	-1785.58	  447.48
     12.9700	  526.00	  567.72	-1764.22	  447.55
     13.0700	  588.00	  566.30	-1700.80	  447.62
     13.1700	  593.00	  565.34	-1694.84	  447.68
     13.2700	  567.00	  564.66	-1720.16	  447.74
     13.3700	  573.00	  564.14	-1713.64	  447.79
     13.4700	  540.00	  563.73	-1746.23	  447.83
     13.5700	  563.00	  563.41	-1722.91	  447.87
     13.6700	  525.00	  563.15	-1760.65	  447.90
     13.7700	  530.00	  562.94	-1755.44	  447.92
     13.8700	  560.00	  562.76	-1725.26	  447.94
     13.9700	  519.00	  562.61	-1766.11	  447.96
     14.0700	  539.00	  562.47	-1745.97	  447.96
     14.1700	  563.00	  562.35	-1721.85	  447.96
     14.2700	  548.00	  562.24	-1736.74	  447.96
     14.3700	  543.00	  562.17	-1741.67	  447.95
     14.4700	  555.00	  562.08	-1729.58	  447.93
     14.5700	  564.00	  561.99	-1720.49	  447.91
     14.6700	  588.00	  561.90	-1696.40	  447.89
     14.7700	  533.00	  561.81	-1751.31	  447.86
     14.8700	  568.00	  561.72	-1716.22	  447.82
     14.9700	  528.00	  561.64	-1756.14	  447.78
     15.0700	  512.00	  561.55	-1772.05	  447.73
     15.1700	  559.00	  561.46	-1724.96	  447.67
     15.2700	  548.00	  561.37	-1735.87	  447.62
     15.3700	  551.00	  561.28	-1732.78	  447.55
     15.4700	  576.00	  561.19	-1707.69	  447.48
     15.5700	  520.00	  561.09	-1763.59	  447.41
     15.6700	  541.00	  560.99	-1742.49	  447.33
     15.7700	  583.00	  560.89	-1700.39	  447.25
     15.8700	  521.00	  560.78	-1762.28	  447.16
     15.9700	  544.00	  560.67	-1739.17	  447.07
     16.0700	  556.00	  560.56	-1727.06	  446.97
     16.1700	  557.00	  560.44	-1725.94	  446.87
     16.2700	  538.00	  560.32	-1744.82	  446.76
     16.3700	  555.00	  560.20	-1727.70	  446.65
     16.4700	  543.00	  560.07	-1739.57	  446.53
     16.5700	  582.00	  559.94	-1700.44	  446.41
     16.6700	  562.00	  559.81	-1720.31	  446.29
     16.7700	  541.00	  559.67	-1741.17	  446.16
     16.8700	  529.00	  559.53	-1753.03	  446.03
     16.9700	  523.00	  559.38	-1758.88	  445.89
     17.0700	  564.00	  559.23	-1717.73	  445.75
     17.1700	  541.00	  559.08	-1740.58	  445.60
     17.2700	  537.00	  558.93	-1744.43	  445.45
     17.3700	  510.00	  558.77	-1771.27	  445.30
     17.4700	  544.00	  558.60	-1737.10	  445.14
     17.5700	  546.00	  558.44	-1734.94	  444.98
     17.6700	  531.00	  558.27	-1749.77	  444.81
     17.7700	  546.00	  558.20	-1734.70	  444.64
     17.8700	  537.00	  558.03	-1743.53	  444.47
     17.9700	  529.00	  557.85	-1751.35	  444.29
     18.0700	  536.00	  557.67	-1744.17	  444.11
     18.1700	  544.00	  557.49	-1735.99	  443.92
     18.2700	  535.00	  557.30	-1744.80	  443.74
     18.3700	  534.00	  557.19	-1745.69	  443.54
     18.4700	  529.00	  557.00	-1750.50	  443.35
     18.5700	  566.00	  556.80	-1713.30	  443.15
     18.6700	  540.00	  556.60	-1739.10	  442.95
     18.7700	  553.00	  556.40	-1725.90	  442.74
     18.8700	  555.00	  556.20	-1723.70	  442.53
     18.9700	  523.00	  555.99	-1755.49	  442.32
     19.0700	  549.00	  555.78	-1729.28	  442.11
     19.1700	  534.00	  555.57	-1744.07	  441.89
     19.2700	  538.00	  555.35	-1739.85	  441.67
     19.3700	  535.00	  555.14	-1742.64	  441.44
     19.4700	  559.00	  554.92	-1718.42	  441.21
     19.5700	  542.00	  554.69	-1735.19	  440.98
     19.6700	  550.00	  554.47	-1726.97	  440.75
     19.7700	  548.00	  554.24	-1728.74	  440.51
     19.8700	  527.00	  554.01	-1749.51	  440.27
     19.9700	  515.00	  553.78	-1761.28	  440.03
     20.0700	  567.00	  553.58	-1709.08	  439.78
     20.1700	  543.00	  553.34	-1732.84	  439.54
     20.2700	  560.00	  553.11	-1715.61	  439.29
     20.3700	  515.00	  552.87	-1760.37	  439.03
     20.4700	  557.00	  552.63	-1718.13	  438.78
     20.5700	  512.00	  552.38	-1762.88	  438.52
     20.6700	  505.00	  552.14	-1769.64	  438.26
     20.7700	  557.00	  551.89	-1717.39	  437.99
     20.8700	  552.00	  551.65	-1722.15	  437.73
     20.9700	  551.00	  551.40	-1722.90	  437.46
     21.0700	  540.00	  551.15	-1733.65	  437.19
     21.1700	  559.00	  550.90	-1714.40	  436.92
     21.2700	  567.00	  550.65	-1706.15	  436.64
     21.3700	  543.00	  550.40	-1729.90	  436.36
     21.4700	  558.00	  550.15	-1714.65	  436.08
     21.5700	  530.00	  549.90	-1742.40	  435.80
     21.6700	  521.00	  549.65	-1751.15	  435.52
     21.7700	  531.00	  549.40	-1740.90	  435.23
     21.8700	  579.00	  549.15	-1692.65	  434.94
     21.9700	  588.00	  548.90	-1683.40	  434.65
     22.0700	  551.00	  548.65	-1720.15	  434.36
     22.1700	  506.00	  548.41	-1764.91	  434.07
     22.2700	  552.00	  548.17	-1718.67	  433.77
     22.3700	  591.00	  547.93	-1679.43	  433.47
     22.4700	  593.00	  547.65	-1677.15	  433.17
     22.5700	  601.00	  547.42	-1668.92	  432.87
     22.6700	  578.00	  547.36	-1691.86	  432.57
     22.7700	  540.00	  547.16	-1729.66	  432.27
     22.8700	  555.00	  546.96	-1714.46	  431.96
     22.9700	  541.00	  546.78	-1728.28	  431.65
     23.0700	  571.00	  546.61	-1698.11	  431.34
     23.1700	  576.00	  546.47	-1692.97	  431.03
     23.2700	  507.00	  546.35	-1761.85	  430.72
     23.3700	  529.00	  546.27	-1739.77	  430.40
     23.4700	  537.00	  546.23	-1731.73	  430.09
     23.5700	  567.00	  546.26	-1701.76	  429.77
     23.6700	  530.00	  546.39	-1738.89	  429.45
     23.7700	  507.00	  546.66	-1762.16	  429.13
     23.8700	  604.00	  547.17	-1665.67	  428.81
     23.9700	  547.00	  548.10	-1723.60	  428.49
     24.0700	  564.00	  549.75	-1708.25	  428.17
     24.1700	  555.00	  552.58	-1720.08	  427.84
     24.2700	  544.00	  557.16	-1735.66	  427.52
     24.3700	  612.00	  564.10	-1674.60	  427.19
     24.4700	  553.00	  573.75	-1743.25	  426.86
     24.5700	  590.00	  585.82	-1718.32	  426.53
     24.6700	  569.00	  598.66	-1752.16	  426.20
     24.7700	  630.00	  608.57	-1701.07	  425.87
     24.8700	  599.00	  610.09	-1733.59	  425.54
     24.9700	  663.00	  600.29	-1659.79	  425.21
     25.0700	  612.00	  584.17	-1694.67	  424.87
     25.1700	  546.00	  569.00	-1745.50	  424.54
     25.2700	  591.00	  557.94	-1689.44	  424.20
     25.3700	  573.00	  550.99	-1700.49	  423.86
     25.4700	  548.00	  546.98	-1721.48	  423.53
     25.5700	  599.00	  544.70	-1668.20	  423.19
     25.6700	  540.00	  543.31	-1725.81	  422.85
     25.7700	  597.00	  542.37	-1667.87	  422.51
     25.8700	  542.00	  541.69	-1722.19	  422.17
     25.9700	  578.00	  541.18	-1685.68	  421.83
     26.0700	  580.00	  540.80	-1683.30	  421.49
     26.1700	  546.00	  540.52	-1717.02	  421.15
     26.2700	  567.00	  540.35	-1695.85	  420.81
     26.3700	  575.00	  540.27	-1687.77	  420.46
     26.4700	  573.00	  540.28	-1689.78	  420.12
     26.5700	  570.00	  540.41	-1692.91	  419.78
     26.6700	  555.00	  540.65	-1708.15	  419.43
     26.7700	  574.00	  541.05	-1689.55	  419.09
     26.8700	  548.00	  541.61	-1716.11	  418.74
     26.9700	  574.00	  542.41	-1690.91	  418.40
     27.0700	  580.00	  543.50	-1686.00	  418.05
     27.1700	  563.00	  545.00	-1704.50	  417.71
     27.2700	  564.00	  547.14	-1705.64	  417.36
     27.3700	  525.00	  550.32	-1747.82	  417.01
     27.4700	  564.00	  555.35	-1713.85	  416.67
     27.5700	  553.00	  563.71	-1733.21	  416.32
     27.6700	  574.00	  577.81	-1726.31	  415.97
     27.7700	  567.00	  600.96	-1756.46	  415.63
     27.8700	  568.00	  636.56	-1791.06	  415.28
     27.9700	  618.00	  685.90	-1790.40	  414.93
     28.0700	  772.00	  745.41	-1695.91	  414.59
     28.1700	  854.00	  803.63	-1672.13	  414.24
     28.2700	  947.00	  840.36	-1615.86	  413.89
     28.3700	  926.00	  835.57	-1632.07	  413.55
     28.4700	  853.00	  795.78	-1665.28	  413.20
     28.5700	  778.00	  754.66	-1699.16	  412.85
     28.6700	  761.00	  736.23	-1697.73	  412.51
     28.7700	  726.00	  743.35	-1739.85	  412.16
     28.8700	  755.00	  763.54	-1731.04	  411.81
     28.9700	  838.00	  774.90	-1659.40	  411.47
     29.0700	  784.00	  756.50	-1695.00	  411.12
     29.1700	  707.00	  709.00	-1724.50	  410.78
     29.2700	  666.00	  654.52	-1711.02	  410.43
     29.3700	  572.00	  609.90	-1760.40	  410.09
     29.4700	  575.00	  579.61	-1727.11	  409.74
     29.5700	  603.00	  561.45	-1680.95	  409.40
     29.6700	  555.00	  551.28	-1718.78	  409.05
     29.7700	  603.00	  545.50	-1665.00	  408.71
     29.8700	  555.00	  542.02	-1709.52	  408.36
     29.9700	  579.00	  539.83	-1683.33	  408.02
     30.0700	  579.00	  538.59	-1682.09	  407.68
     30.1700	  585.00	  538.31	-1675.81	  407.34
     30.2700	  588.00	  539.31	-1673.81	  407.00
     30.3700	  548.00	  542.31	-1716.81	  406.65
     30.4700	  600.00	  548.36	-1670.86	  406.31
     30.5700	  551.00	  558.67	-1730.17	  405.97
     30.6700	  544.00	  573.76	-1752.26	  405.63
     30.7700	  597.00	  592.36	-1717.86	  405.30
     30.8700	  606.00	  610.55	-1727.05	  404.96
     30.9700	  603.00	  621.47	-1740.97	  404.62
     31.0700	  586.00	  617.93	-1754.43	  404.28
     31.1700	  556.00	  600.23	-1766.73	  403.95
     31.2700	  577.00	  577.62	-1723.12	  403.61
     31.3700	  583.00	  558.05	-1697.55	  403.28
     31.4700	  551.00	  544.22	-1715.72	  402.94
     31.5700	  520.00	  535.66	-1738.16	  402.61
     31.6700	  515.00	  530.78	-1738.28	  402.28
     31.7700	  544.00	  528.03	-1706.53	  401.95
     31.8700	  564.00	  526.39	-1684.89	  401.61
     31.9700	  537.00	  525.33	-1710.83	  401.28
     32.0700	  575.00	  524.63	-1672.13	  400.96
     32.1700	  530.00	  524.18	-1716.68	  400.63
     32.2700	  562.00	  523.94	-1684.44	  400.30
     32.3700	  550.00	  523.90	-1696.40	  399.97
     32.4700	  547.00	  524.06	-1699.56	  399.65
     32.5700	  550.00	  524.44	-1696.94	  399.32
     32.6700	  539.00	  525.08	-1708.58	  399.00
     32.7700	  527.00	  526.02	-1721.52	  398.68
     32.8700	  547.00	  527.36	-1702.86	  398.35
     32.9700	  561.00	  529.23	-1690.73	  398.03
     33.0700	  549.00	  531.87	-1705.37	  397.71
     33.1700	  563.00	  535.77	-1695.27	  397.40
     33.2700	  545.00	  541.89	-1719.39	  397.08
     33.3700	  511.00	  552.16	-1763.66	  396.76
     33.4700	  549.00	  569.99	-1743.49	  396.45
     33.5700	  626.00	  600.51	-1697.01	  396.13
     33.6700	  673.00	  649.66	-1699.16	  395.82
     33.7700	  746.00	  720.89	-1697.39	  395.51
     33.8700	  829.00	  809.83	-1703.33	  395.19
     33.9700	  957.00	  899.76	-1665.26	  394.88
     34.0700	 1017.00	  960.66	-1666.16	  394.58
     34.1700	 1051.00	  959.37	-1630.87	  394.27
     34.2700	  961.00	  890.83	-1652.33	  393.96
     34.3700	  796.00	  791.14	-1717.64	  393.66
     34.4700	  728.00	  698.19	-1692.69	  393.35
     34.5700	  652.00	  628.55	-1699.05	  393.05
     34.6700	  519.00	  583.30	-1786.80	  392.75
     34.7700	  566.00	  556.66	-1713.16	  392.45
     34.8700	  556.00	  541.59	-1708.09	  392.15
     34.9700	  551.00	  532.78	-1704.28	  391.85
     35.0700	  518.00	  527.13	-1731.63	  391.56
     35.1700	  523.00	  523.10	-1722.60	  391.26
     35.2700	  510.00	  520.03	-1732.53	  390.97
     35.3700	  502.00	  517.57	-1738.07	  390.68
     35.4700	  495.00	  515.56	-1743.06	  390.39
     35.5700	  488.00	  513.85	-1748.35	  390.10
     35.6700	  492.00	  512.42	-1742.92	  389.81
     35.7700	  506.00	  511.65	-1728.15	  389.52
     35.8700	  522.00	  510.58	-1711.08	  389.24
     35.9700	  510.00	  509.65	-1722.15	  388.95
     36.0700	  512.00	  508.81	-1719.31	  388.67
     36.1700	  528.00	  508.08	-1702.58	  388.39
     36.2700	  509.00	  507.42	-1720.92	  388.11
     36.3700	  508.00	  506.81	-1721.31	  387.83
     36.4700	  497.00	  506.28	-1731.78	  387.56
     36.5700	  518.00	  505.79	-1710.29	  387.28
     36.6700	  498.00	  505.37	-1729.87	  387.01
     36.7700	  460.00	  505.02	-1767.52	  386.74
     36.8700	  515.00	  504.76	-1712.26	  386.47
     36.9700	  457.00	  504.64	-1770.14	  386.20
     37.0700	  468.00	  504.77	-1759.27	  385.93
     37.1700	  533.00	  505.29	-1694.79	  385.66
     37.2700	  493.00	  506.43	-1735.93	  385.40
     37.3700	  533.00	  508.34	-1697.84	  385.14
     37.4700	  534.00	  511.04	-1699.54	  384.88
     37.5700	  522.00	  514.16	-1714.66	  384.62
     37.6700	  488.00	  516.86	-1751.36	  384.36
     37.7700	  494.00	  517.96	-1746.46	  384.10
     37.8700	  458.00	  516.63	-1781.13	  383.85
     37.9700	  508.00	  513.39	-1727.89	  383.60
     38.0700	  472.00	  509.76	-1760.26	  383.35
     38.1700	  527.00	  506.34	-1701.84	  383.10
     38.2700	  559.00	  503.67	-1667.17	  382.85
     38.3700	  478.00	  501.76	-1746.26	  382.60
     38.4700	  464.00	  500.47	-1758.97	  382.36
     38.5700	  483.00	  499.60	-1739.10	  382.11
     38.6700	  455.00	  498.97	-1766.47	  381.87
     38.7700	  486.00	  498.49	-1734.99	  381.63
     38.8700	  491.00	  498.08	-1729.58	  381.40
     38.9700	  496.00	  497.73	-1724.23	  381.16
     39.0700	  520.00	  497.31	-1699.81	  380.93
     39.1700	  478.00	  497.01	-1741.51	  380.69
     39.2700	  502.00	  496.74	-1717.24	  380.46
     39.3700	  478.00	  496.49	-1740.99	  380.23
     39.4700	  510.00	  496.25	-1708.75	  380.01
     39.5700	  492.00	  496.02	-1726.52	  379.78
     39.6700	  524.00	  495.80	-1694.30	  379.56
     39.7700	  492.00	  495.60	-1726.10	  379.33
     39.8700	  506.00	  495.33	-1711.83	  379.11
     39.9700	  478.00	  495.15	-1739.65	  378.90
     40.0700	  516.00	  494.98	-1701.48	  378.68
     40.1700	  503.00	  494.83	-1714.33	  378.46
     40.2700	  505.00	  494.69	-1712.19	  378.25
     40.3700	  526.00	  494.56	-1691.06	  378.04
     40.4700	  504.00	  494.45	-1712.95	  377.83
     40.5700	  502.00	  494.36	-1714.86	  377.62
     40.6700	  506.00	  494.79	-1711.29	  377.42
     40.7700	  480.00	  494.75	-1737.25	  377.21
     40.8700	  485.00	  494.73	-1732.23	  377.01
     40.9700	  503.00	  494.75	-1714.25	  376.81
     41.0700	  471.00	  494.81	-1746.31	  376.61
     41.1700	  513.00	  494.92	-1704.42	  376.41
     41.2700	  481.00	  495.08	-1736.58	  376.22
     41.3700	  506.00	  495.32	-1711.82	  376.03
     41.4700	  515.00	  495.66	-1703.16	  375.83
     41.5700	  494.00	  496.12	-1724.62	  375.64
     41.6700	  460.00	  496.78	-1759.28	  375.46
     41.7700	  497.00	  497.76	-1723.26	  375.27
     41.8700	  487.00	  499.30	-1734.80	  375.09
     41.9700	  487.00	  501.88	-1737.38	  374.91
     42.0700	  489.00	  506.33	-1739.83	  374.73
     42.1700	  518.00	  513.91	-1718.41	  374.55
     42.2700	  501.00	  525.87	-1747.37	  374.37
     42.3700	  532.00	  543.42	-1733.92	  374.20
     42.4700	  548.00	  565.98	-1740.48	  374.02
     42.5700	  581.00	  590.59	-1732.09	  373.85
     42.6700	  612.00	  611.19	-1721.69	  373.68
     42.7700	  620.00	  619.71	-1722.21	  373.52
     42.8700	  585.00	  611.37	-1748.87	  373.35
     42.9700	  553.00	  590.08	-1759.58	  373.19
     43.0700	  556.00	  564.63	-1731.13	  373.03
     43.1700	  582.00	  541.87	-1682.37	  372.87
     43.2700	  512.00	  524.25	-1734.75	  372.71
     43.3700	  495.00	  512.23	-1739.73	  372.56
     43.4700	  546.00	  504.74	-1681.24	  372.40
     43.5700	  509.00	  500.29	-1713.79	  372.25
     43.6700	  459.00	  497.67	-1761.17	  372.10
     43.7700	  482.00	  496.02	-1736.52	  371.95
     43.8700	  458.00	  494.95	-1759.45	  371.81
     43.9700	  505.00	  494.13	-1711.63	  371.66
     44.0700	  493.00	  493.50	-1723.00	  371.52
     44.1700	  484.00	  493.00	-1731.50	  371.38
     44.2700	  493.00	  492.59	-1722.09	  371.24
     44.3700	  478.00	  492.26	-1736.76	  371.10
     44.4700	  458.00	  492.20	-1756.70	  370.97
     44.5700	  501.00	  491.99	-1713.49	  370.84
     44.6700	  513.00	  491.83	-1701.33	  370.71
     44.7700	  499.00	  491.70	-1715.20	  370.58
     44.8700	  507.00	  491.62	-1707.12	  370.45
     44.9700	  474.00	  491.56	-1740.06	  370.33
     45.0700	  490.00	  491.53	-1724.03	  370.20
     45.1700	  496.00	  491.53	-1718.03	  370.08
     45.2700	  496.00	  491.56	-1718.06	  369.96
     45.3700	  508.00	  491.62	-1706.12	  369.84
     45.4700	  466.00	  491.71	-1748.21	  369.73
     45.5700	  546.00	  491.82	-1668.32	  369.62
     45.6700	  510.00	  491.97	-1704.47	  369.50
     45.7700	  525.00	  492.14	-1689.64	  369.39
     45.8700	  453.00	  492.20	-1761.70	  369.29
     45.9700	  516.00	  492.45	-1698.95	  369.18
     46.0700	  495.00	  492.81	-1720.31	  369.08
     46.1700	  525.00	  493.15	-1690.65	  368.97
     46.2700	  499.00	  493.58	-1717.08	  368.87
     46.3700	  480.00	  494.03	-1736.53	  368.77
     46.4700	  476.00	  494.57	-1741.07	  368.68
     46.5700	  492.00	  495.18	-1725.68	  368.58
     46.6700	  509.00	  495.90	-1709.40	  368.49
     46.7700	  520.00	  496.76	-1699.26	  368.40
     46.8700	  485.00	  497.83	-1735.33	  368.31
     46.9700	  535.00	  499.23	-1686.73	  368.22
     47.0700	  485.00	  501.19	-1738.69	  368.14
     47.1700	  474.00	  504.13	-1752.63	  368.05
     47.2700	  517.00	  508.66	-1714.16	  367.97
     47.3700	  500.00	  515.60	-1738.10	  367.89
     47.4700	  472.00	  525.74	-1776.24	  367.82
     47.5700	  575.00	  539.44	-1686.94	  367.74
     47.6700	  547.00	  556.12	-1731.62	  367.67
     47.7700	  556.00	  573.69	-1740.19	  367.59
     47.8700	  592.00	  588.25	-1718.75	  367.52
     47.9700	  592.00	  595.02	-1725.52	  367.45
     48.0700	  639.00	  591.46	-1674.96	  367.39
     48.1700	  579.00	  579.89	-1723.39	  367.32
     48.2700	  559.00	  565.39	-1728.89	  367.26
     48.3700	  555.00	  552.07	-1719.57	  367.20
     48.4700	  533.00	  542.11	-1731.61	  367.14
     48.5700	  533.00	  536.55	-1726.05	  367.08
     48.6700	  564.00	  534.32	-1692.82	  367.03
     48.7700	  512.00	  535.19	-1745.69	  366.97
     48.8700	  528.00	  538.53	-1733.03	  366.92
     48.9700	  547.00	  544.05	-1719.55	  366.87
     49.0700	  516.00	  551.92	-1758.42	  366.82
     49.1700	  525.00	  562.99	-1760.49	  366.77
     49.2700	  584.00	  579.31	-1717.81	  366.73
     49.3700	  583.00	  605.01	-1744.51	  366.69
     49.4700	  546.00	  647.49	-1823.99	  366.65
     49.5700	  649.00	  718.34	-1791.84	  366.61
     49.6700	  765.00	  832.73	-1790.23	  366.57
     49.7700	  932.00	 1005.82	-1796.32	  366.53
     49.8700	 1225.00	 1245.76	-1743.26	  366.50
     49.9700	 1554.00	 1544.00	-1712.50	  366.47
     50.0700	 1873.00	 1865.37	-1714.87	  366.43
     50.1700	 2225.00	 2142.04	-1639.54	  366.41
     50.2700	 2325.00	 2284.47	-1681.97	  366.38
     50.3700	 2242.00	 2230.94	-1711.44	  366.35
     50.4700	 2002.00	 2004.56	-1725.06	  366.33
     50.5700	 1707.00	 1693.50	-1709.00	  366.31
     50.6700	 1292.00	 1381.92	-1812.42	  366.29
     50.7700	 1021.00	 1119.84	-1821.34	  366.27
     50.8700	  830.00	  925.92	-1818.42	  366.25
     50.9700	  737.00	  797.17	-1782.67	  366.24
     51.0700	  708.00	  718.76	-1733.26	  366.22
     51.1700	  622.00	  672.68	-1773.18	  366.21
     51.2700	  631.00	  642.79	-1734.29	  366.20
     51.3700	  590.00	  619.72	-1752.22	  366.19
     51.4700	  584.00	  599.81	-1738.31	  366.19
     51.5700	  586.00	  582.58	-1719.08	  366.18
     51.6700	  557.00	  568.35	-1733.85	  366.18
     51.7700	  535.00	  557.28	-1744.78	  366.18
     51.8700	  550.00	  549.22	-1721.72	  366.18
     51.9700	  495.00	  543.76	-1771.26	  366.18
     52.0700	  542.00	  540.43	-1720.93	  366.18
     52.1700	  553.00	  538.82	-1708.32	  366.18
     52.2700	  536.00	  538.65	-1725.15	  366.19
     52.3700	  549.00	  539.92	-1713.42	  366.20
     52.4700	  580.00	  542.96	-1685.46	  366.21
     52.5700	  539.00	  548.60	-1732.10	  366.22
     52.6700	  569.00	  558.48	-1711.98	  366.23
     52.7700	  592.00	  575.36	-1705.86	  366.25
     52.8700	  622.00	  603.22	-1703.72	  366.26
     52.9700	  676.00	  646.89	-1693.39	  366.28
     53.0700	  687.00	  710.87	-1746.37	  366.30
     53.1700	  797.00	  797.16	-1722.66	  366.32
     53.2700	  964.00	  902.77	-1661.27	  366.34
     53.3700	 1043.00	 1016.93	-1696.43	  366.36
     53.4700	 1159.00	 1119.15	-1682.65	  366.39
     53.5700	 1221.00	 1181.23	-1682.73	  366.42
     53.6700	 1121.00	 1179.90	-1781.40	  366.44
     53.7700	 1065.00	 1115.36	-1772.86	  366.47
     53.8700	  954.00	 1011.70	-1780.20	  366.51
     53.9700	  859.00	  897.67	-1761.17	  366.54
     54.0700	  782.00	  793.30	-1733.80	  366.57
     54.1700	  679.00	  708.81	-1752.31	  366.61
     54.2700	  675.00	  646.78	-1694.28	  366.64
     54.3700	  594.00	  604.91	-1733.41	  366.68
     54.4700	  584.00	  578.61	-1717.11	  366.72
     54.5700	  611.00	  563.01	-1674.51	  366.76
     54.6700	  573.00	  554.19	-1703.69	  366.81
     54.7700	  539.00	  549.43	-1732.93	  366.85
     54.8700	  560.00	  547.16	-1709.66	  366.90
     54.9700	  509.00	  546.52	-1760.02	  366.94
     55.0700	  586.00	  547.11	-1683.61	  366.99
     55.1700	  555.00	  548.77	-1716.27	  367.04
     55.2700	  604.00	  551.47	-1669.97	  367.09
     55.3700	  631.00	  555.30	-1646.80	  367.15
     55.4700	  540.00	  560.42	-1742.92	  367.20
     55.5700	  551.00	  567.17	-1738.67	  367.25
     55.6700	  581.00	  576.17	-1717.67	  367.31
     55.7700	  587.00	  588.65	-1724.15	  367.37
     55.8700	  639.00	  606.92	-1690.42	  367.43
     55.9700	  644.00	  635.14	-1713.64	  367.49
     56.0700	  677.00	  680.11	-1725.61	  367.55
     56.1700	  730.00	  751.93	-1744.43	  367.61
     56.2700	  756.00	  863.26	-1829.76	  367.68
     56.3700	  975.00	 1026.99	-1774.49	  367.74
     56.4700	 1173.00	 1251.70	-1801.20	  367.81
     56.5700	 1449.00	 1535.52	-1809.02	  367.88
     56.6700	 1840.00	 1859.66	-1742.16	  367.95
     56.7700	 2147.00	 2183.03	-1758.53	  368.02
     56.8700	 2368.00	 2440.26	-1794.76	  368.09
     56.9700	 2474.00	 2556.51	-1805.01	  368.16
     57.0700	 2457.00	 2489.10	-1754.60	  368.24
     57.1700	 2289.00	 2263.33	-1696.83	  368.31
     57.2700	 1921.00	 1951.40	-1752.90	  368.39
     57.3700	 1585.00	 1624.58	-1762.08	  368.47
     57.4700	 1332.00	 1330.64	-1721.14	  368.55
     57.5700	 1053.00	 1093.61	-1763.11	  368.63
     57.6700	  871.00	  919.33	-1770.83	  368.71
     57.7700	  817.00	  801.66	-1707.16	  368.79
     57.8700	  701.00	  729.08	-1750.58	  368.87
     57.9700	  734.00	  689.77	-1678.27	  368.96
     58.0700	  732.00	  674.65	-1665.15	  369.04
     58.1700	  699.00	  678.31	-1701.81	  369.13
     58.2700	  727.00	  698.36	-1693.86	  369.22
     58.3700	  746.00	  734.05	-1710.55	  369.30
     58.4700	  806.00	  784.83	-1701.33	  369.39
     58.5700	  914.00	  848.81	-1657.31	  369.49
     58.6700	  946.00	  921.42	-1697.92	  369.58
     58.7700	 1046.00	  995.27	-1671.77	  369.67
     58.8700	 1133.00	 1062.39	-1651.89	  369.76
     58.9700	 1286.00	 1117.84	-1554.34	  369.86
     59.0700	 1351.00	 1158.75	-1530.25	  369.95
     59.1700	 1260.00	 1181.11	-1643.61	  370.05
     59.2700	 1338.00	 1182.08	-1566.58	  370.15
     59.3700	 1305.00	 1166.20	-1583.70	  370.25
     59.4700	 1290.00	 1144.43	-1576.93	  370.35
     59.5700	 1211.00	 1127.28	-1638.78	  370.45
     59.6700	 1104.00	 1121.53	-1740.03	  370.55
     59.7700	 1156.00	 1132.96	-1699.46	  370.65
     59.8700	 1191.00	 1167.83	-1699.33	  370.76
     59.9700	 1270.00	 1229.18	-1681.68	  370.86
     60.0700	 1368.00	 1311.72	-1666.22	  370.97
     60.1700	 1426.00	 1399.38	-1695.88	  371.07
     60.2700	 1566.00	 1466.15	-1622.65	  371.18
     60.3700	 1535.00	 1483.27	-1670.77	  371.29
     60.4700	 1510.00	 1435.08	-1647.58	  371.39
     60.5700	 1380.00	 1330.58	-1673.08	  371.50
     60.6700	 1218.00	 1195.27	-1699.77	  371.61
     60.7700	 1050.00	 1054.92	-1727.42	  371.72
     60.8700	  925.00	  927.84	-1725.34	  371.84
     60.9700	  801.00	  824.27	-1745.77	  371.95
     61.0700	  706.00	  748.03	-1764.53	  372.06
     61.1700	  687.00	  698.71	-1734.21	  372.18
     61.2700	  651.00	  674.07	-1745.57	  372.29
     61.3700	  674.00	  672.14	-1720.64	  372.41
     61.4700	  707.00	  692.48	-1707.98	  372.52
     61.5700	  762.00	  736.25	-1696.75	  372.64
     61.6700	  786.00	  805.11	-1741.61	  372.76
     61.7700	  895.00	  899.35	-1726.85	  372.87
     61.8700	 1005.00	 1015.69	-1733.19	  372.99
     61.9700	 1095.00	 1145.28	-1772.78	  373.11
     62.0700	 1220.00	 1272.09	-1774.59	  373.23
     62.1700	 1314.00	 1372.91	-1781.41	  373.35
     62.2700	 1372.00	 1421.87	-1772.37	  373.48
     62.3700	 1296.00	 1403.04	-1829.54	  373.60
     62.4700	 1217.00	 1322.03	-1827.53	  373.72
     62.5700	 1113.00	 1201.63	-1811.13	  373.84
     62.6700	 1020.00	 1067.44	-1769.94	  373.97
     62.7700	  895.00	  939.12	-1766.62	  374.09
     62.8700	  725.00	  828.56	-1826.06	  374.22
     62.9700	  712.00	  740.99	-1751.49	  374.34
     63.0700	  630.00	  676.57	-1769.07	  374.47
     63.1700	  654.00	  632.22	-1700.72	  374.59
     63.2700	  612.00	  603.52	-1714.02	  374.72
     63.3700	  585.00	  586.17	-1723.67	  374.85
     63.4700	  584.00	  576.71	-1715.21	  374.98
     63.5700	  555.00	  573.09	-1740.59	  375.10
     63.6700	  545.00	  574.43	-1751.93	  375.23
     63.7700	  571.00	  580.98	-1732.48	  375.36
     63.8700	  591.00	  593.80	-1725.30	  375.49
     63.9700	  645.00	  614.43	-1691.93	  375.62
     64.0700	  670.00	  644.42	-1696.92	  375.75
     64.1700	  717.00	  684.71	-1690.21	  375.88
     64.2700	  744.00	  734.97	-1713.47	  376.01
     64.3700	  881.00	  792.92	-1634.42	  376.15
     64.4700	  912.00	  853.58	-1664.08	  376.28
     64.5700	  939.00	  909.30	-1692.80	  376.41
     64.6700	  982.00	  950.65	-1691.15	  376.54
     64.7700	 1023.00	  969.69	-1669.19	  376.68
     64.8700	  961.00	  963.47	-1724.97	  376.81
     64.9700	  972.00	  934.33	-1684.83	  376.94
     65.0700	  915.00	  889.99	-1697.49	  377.08
     65.1700	  905.00	  838.42	-1655.92	  377.21
     65.2700	  747.00	  786.95	-1762.45	  377.35
     65.3700	  718.00	  740.32	-1744.82	  377.48
     65.4700	  685.00	  700.08	-1737.58	  377.61
     65.5700	  661.00	  666.44	-1727.94	  377.75
     65.6700	  611.00	  638.86	-1750.36	  377.88
     65.7700	  596.00	  616.81	-1743.31	  378.02
     65.8700	  527.00	  599.74	-1795.24	  378.16
     65.9700	  539.00	  587.00	-1770.50	  378.29
     66.0700	  580.00	  577.95	-1720.45	  378.43
     66.1700	  534.00	  572.00	-1760.50	  378.56
     66.2700	  578.00	  568.69	-1713.19	  378.70
     66.3700	  575.00	  567.65	-1715.15	  378.84
     66.4700	  538.00	  568.61	-1753.11	  378.97
     66.5700	  570.00	  571.50	-1724.00	  379.11
     66.6700	  534.00	  576.72	-1765.22	  379.25
     66.7700	  598.00	  584.28	-1708.78	  379.38
     66.8700	  580.00	  595.56	-1738.06	  379.52
     66.9700	  617.00	  612.56	-1718.06	  379.66
     67.0700	  618.00	  638.46	-1742.96	  379.79
     67.1700	  676.00	  677.94	-1724.44	  379.93
     67.2700	  692.00	  737.20	-1767.70	  380.07
     67.3700	  810.00	  823.46	-1735.96	  380.20
     67.4700	  935.00	  943.91	-1731.41	  380.34
     67.5700	 1061.00	 1103.54	-1765.04	  380.48
     67.6700	 1287.00	 1303.24	-1738.74	  380.61
     67.7700	 1541.00	 1537.11	-1718.61	  380.75
     67.8700	 1800.00	 1790.32	-1712.82	  380.89
     67.9700	 2121.00	 2037.73	-1639.23	  381.02
     68.0700	 2295.00	 2243.89	-1671.39	  381.16
     68.1700	 2393.00	 2368.27	-1697.77	  381.30
     68.2700	 2345.00	 2380.05	-1757.55	  381.43
     68.3700	 2275.00	 2275.97	-1723.47	  381.57
     68.4700	 2127.00	 2082.71	-1678.21	  381.70
     68.5700	 1857.00	 1840.55	-1706.05	  381.84
     68.6700	 1663.00	 1586.58	-1646.08	  381.98
     68.7700	 1285.00	 1347.97	-1785.47	  382.11
     68.8700	 1144.00	 1141.42	-1719.92	  382.25
     68.9700	  927.00	  974.45	-1769.95	  382.38
     69.0700	  842.00	  847.42	-1727.92	  382.52
     69.1700	  775.00	  755.66	-1703.16	  382.65
     69.2700	  726.00	  692.30	-1688.80	  382.78
     69.3700	  632.00	  649.88	-1740.38	  382.92
     69.4700	  607.00	  622.25	-1737.75	  383.05
     69.5700	  613.00	  604.27	-1713.77	  383.19
     69.6700	  624.00	  592.41	-1690.91	  383.32
     69.7700	  573.00	  584.42	-1733.92	  383.45
     69.8700	  586.00	  578.92	-1715.42	  383.59
     69.9700	  562.00	  575.14	-1735.64	  383.72
     70.0700	  568.00	  572.64	-1727.14	  383.85
     70.1700	  590.00	  571.21	-1703.71	  383.98
     70.2700	  561.00	  570.78	-1732.28	  384.11
     70.3700	  571.00	  571.36	-1722.86	  384.24
     70.4700	  537.00	  573.11	-1758.61	  384.37
     70.5700	  613.00	  576.34	-1685.84	  384.50
     70.6700	  596.00	  581.64	-1708.14	  384.63
     70.7700	  623.00	  590.02	-1689.52	  384.76
     70.8700	  607.00	  603.05	-1718.55	  384.89
     70.9700	  640.00	  623.11	-1705.61	  385.02
     71.0700	  609.00	  653.43	-1766.93	  385.15
     71.1700	  689.00	  698.93	-1732.43	  385.28
     71.2700	  697.00	  762.37	-1787.87	  385.40
     71.3700	  805.00	  848.83	-1766.33	  385.53
     71.4700	  960.00	  961.14	-1723.64	  385.66
     71.5700	 1100.00	 1099.47	-1721.97	  385.78
     71.6700	 1238.00	 1260.06	-1744.56	  385.91
     71.7700	 1420.00	 1434.05	-1736.55	  386.03
     71.8700	 1584.00	 1606.83	-1745.33	  386.15
     71.9700	 1760.00	 1757.89	-1720.39	  386.28
     72.0700	 1839.00	 1862.89	-1746.39	  386.40
     72.1700	 1848.00	 1900.20	-1774.70	  386.52
     72.2700	 1789.00	 1860.95	-1794.45	  386.64
     72.3700	 1784.00	 1754.41	-1692.91	  386.77
     72.4700	 1597.00	 1602.47	-1727.97	  386.89
     72.5700	 1439.00	 1429.42	-1712.92	  387.01
     72.6700	 1312.00	 1255.53	-1666.03	  387.13
     72.7700	 1163.00	 1095.19	-1654.69	  387.24
     72.8700	 1039.00	  957.02	-1640.52	  387.36
     72.9700	  879.00	  844.62	-1688.12	  387.48
     73.0700	  830.00	  757.71	-1650.21	  387.60
     73.1700	  767.00	  693.41	-1648.91	  387.71
     73.2700	  693.00	  647.60	-1677.10	  387.83
     73.3700	  703.00	  615.84	-1635.34	  387.94
     73.4700	  636.00	  593.69	-1680.19	  388.05
     73.5700	  624.00	  578.96	-1677.46	  388.17
     73.6700	  609.00	  568.82	-1682.32	  388.28
     73.7700	  578.00	  561.74	-1706.24	  388.39
     73.8700	  581.00	  556.70	-1698.20	  388.50
     73.9700	  599.00	  553.11	-1676.61	  388.61
     74.0700	  551.00	  550.59	-1722.09	  388.72
     74.1700	  595.00	  548.90	-1676.40	  388.83
     74.2700	  560.00	  547.85	-1710.35	  388.94
     74.3700	  592.00	  547.27	-1677.77	  389.04
     74.4700	  565.00	  546.98	-1704.48	  389.15
     74.5700	  635.00	  546.76	-1634.26	  389.25
     74.6700	  622.00	  546.39	-1646.89	  389.36
     74.7700	  590.00	  545.70	-1678.20	  389.46
     74.8700	  624.00	  544.62	-1643.12	  389.56
     74.9700	  608.00	  543.25	-1657.75	  389.66
     75.0700	  614.00	  541.79	-1650.29	  389.76
     75.1700	  635.00	  540.52	-1628.02	  389.86
     75.2700	  579.00	  539.74	-1683.24	  389.96
     75.3700	  575.00	  539.78	-1687.28	  390.06
     75.4700	  552.00	  541.00	-1711.50	  390.16
     75.5700	  565.00	  543.83	-1701.33	  390.25
     75.6700	  585.00	  548.67	-1686.17	  390.35
     75.7700	  561.00	  556.07	-1717.57	  390.44
     75.8700	  549.00	  566.37	-1739.87	  390.53
     75.9700	  610.00	  579.79	-1692.29	  390.63
     76.0700	  621.00	  596.28	-1697.78	  390.72
     76.1700	  612.00	  615.28	-1725.78	  390.81
     76.2700	  684.00	  636.03	-1674.53	  390.90
     76.3700	  662.00	  656.96	-1717.46	  390.98
     76.4700	  705.00	  676.02	-1693.52	  391.07
     76.5700	  668.00	  690.72	-1745.22	  391.16
     76.6700	  772.00	  698.59	-1649.09	  391.24
     76.7700	  691.00	  698.06	-1729.56	  391.33
     76.8700	  699.00	  689.20	-1712.70	  391.41
     76.9700	  657.00	  673.67	-1739.17	  391.49
     77.0700	  636.00	  653.92	-1740.42	  391.57
     77.1700	  641.00	  632.50	-1714.00	  391.65
     77.2700	  553.00	  611.36	-1780.86	  391.73
     77.3700	  580.00	  591.91	-1734.41	  391.80
     77.4700	  567.00	  575.04	-1730.54	  391.88
     77.5700	  557.00	  561.12	-1726.62	  391.95
     77.6700	  564.00	  550.15	-1708.65	  392.03
     77.7700	  485.00	  541.67	-1779.17	  392.10
     77.8700	  516.00	  535.63	-1742.13	  392.17
     77.9700	  500.00	  531.37	-1753.87	  392.24
     78.0700	  473.00	  528.43	-1777.93	  392.31
     78.1700	  498.00	  526.43	-1750.93	  392.38
     78.2700	  557.00	  525.09	-1690.59	  392.44
     78.3700	  503.00	  524.18	-1743.68	  392.51
     78.4700	  470.00	  523.58	-1776.08	  392.57
     78.5700	  545.00	  523.20	-1700.70	  392.64
     78.6700	  502.00	  522.98	-1743.48	  392.70
     78.7700	  475.00	  522.91	-1770.41	  392.76
     78.8700	  513.00	  522.99	-1732.49	  392.82
     78.9700	  519.00	  523.23	-1726.73	  392.88
     79.0700	  516.00	  523.66	-1730.16	  392.93
     79.1700	  500.00	  524.31	-1746.81	  392.99
     79.2700	  500.00	  525.21	-1747.71	  393.04
     79.3700	  500.00	  526.41	-1748.91	  393.09
     79.4700	  523.00	  527.95	-1727.45	  393.15
     79.5700	  510.00	  529.89	-1742.39	  393.20
     79.6700	  493.00	  532.25	-1761.75	  393.24
     79.7700	  513.00	  535.11	-1744.61	  393.29
     79.8700	  529.00	  538.53	-1732.03	  393.34
     79.9700	  545.00	  542.61	-1720.11	  393.38
     80.0700	  545.00	  547.44	-1724.94	  393.43
     80.1700	  502.00	  553.20	-1773.70	  393.47
     80.2700	  563.00	  559.89	-1719.39	  393.51
     80.3700	  558.00	  568.22	-1732.72	  393.55
     80.4700	  546.00	  578.29	-1754.79	  393.58
     80.5700	  547.00	  590.34	-1765.84	  393.62
     80.6700	  570.00	  604.43	-1756.93	  393.66
     80.7700	  639.00	  620.34	-1703.84	  393.69
     80.8700	  627.00	  637.57	-1733.07	  393.72
     80.9700	  711.00	  655.25	-1666.75	  393.75
     81.0700	  679.00	  672.30	-1715.80	  393.78
     81.1700	  699.00	  687.57	-1711.07	  393.81
     81.2700	  749.00	  700.03	-1673.53	  393.84
     81.3700	  727.00	  708.88	-1704.38	  393.86
     81.4700	  790.00	  713.54	-1646.04	  393.89
     81.5700	  763.00	  713.75	-1673.25	  393.91
     81.6700	  716.00	  709.59	-1716.09	  393.93
     81.7700	  754.00	  701.36	-1669.86	  393.95
     81.8700	  701.00	  689.54	-1711.04	  393.97
     81.9700	  732.00	  674.87	-1665.37	  393.98
     82.0700	  691.00	  658.34	-1689.84	  394.00
     82.1700	  705.00	  641.09	-1658.59	  394.01
     82.2700	  615.00	  624.11	-1731.61	  394.02
     82.3700	  599.00	  608.15	-1731.65	  394.03
     82.4700	  599.00	  593.67	-1717.17	  394.04
     82.5700	  578.00	  580.93	-1725.43	  394.05
     82.6700	  606.00	  570.07	-1686.57	  394.05
     82.7700	  576.00	  561.16	-1707.66	  394.06
     82.8700	  542.00	  554.19	-1734.69	  394.06
     82.9700	  540.00	  549.13	-1731.63	  394.06
     83.0700	  569.00	  545.88	-1699.38	  394.06
     83.1700	  538.00	  544.35	-1728.85	  394.06
     83.2700	  556.00	  544.40	-1710.90	  394.06
     83.3700	  545.00	  545.89	-1723.39	  394.05
     83.4700	  568.00	  548.58	-1703.08	  394.04
     83.5700	  539.00	  552.33	-1735.83	  394.04
     83.6700	  528.00	  556.74	-1751.24	  394.03
     83.7700	  557.00	  561.48	-1726.98	  394.01
     83.8700	  502.00	  566.04	-1786.54	  394.00
     83.9700	  584.00	  569.89	-1708.39	  393.99
     84.0700	  586.00	  572.46	-1708.96	  393.97
     84.1700	  542.00	  573.31	-1753.81	  393.95
     84.2700	  559.00	  572.24	-1735.74	  393.93
     84.3700	  526.00	  569.38	-1765.88	  393.91
     84.4700	  569.00	  565.10	-1718.60	  393.89
     84.5700	  563.00	  559.91	-1719.41	  393.87
     84.6700	  562.00	  554.29	-1714.79	  393.84
     84.7700	  519.00	  548.69	-1752.19	  393.81
     84.8700	  565.00	  543.43	-1700.93	  393.78
     84.9700	  522.00	  538.72	-1739.22	  393.75
     85.0700	  511.00	  534.70	-1746.20	  393.72
     85.1700	  544.00	  531.41	-1709.91	  393.69
     85.2700	  533.00	  528.85	-1718.35	  393.65
     85.3700	  532.00	  526.94	-1717.44	  393.61
     85.4700	  530.00	  525.62	-1718.12	  393.58
     85.5700	  513.00	  524.80	-1734.30	  393.53
     85.6700	  521.00	  524.41	-1725.91	  393.49
     85.7700	  509.00	  524.41	-1737.91	  393.45
     85.8700	  506.00	  524.80	-1741.30	  393.40
     85.9700	  505.00	  525.60	-1743.10	  393.36
     86.0700	  521.00	  526.89	-1728.39	  393.31
     86.1700	  541.00	  528.77	-1710.27	  393.26
     86.2700	  508.00	  531.40	-1745.90	  393.21
     86.3700	  524.00	  534.93	-1733.43	  393.15
     86.4700	  549.00	  539.54	-1713.04	  393.10
     86.5700	  574.00	  545.41	-1693.91	  393.04
     86.6700	  551.00	  552.63	-1724.13	  392.98
     86.7700	  536.00	  561.26	-1747.76	  392.92
     86.8700	  557.00	  571.21	-1736.71	  392.86
     86.9700	  559.00	  582.28	-1745.78	  392.79
     87.0700	  578.00	  594.09	-1738.59	  392.73
     87.1700	  572.00	  606.07	-1756.57	  392.66
     87.2700	  628.00	  617.51	-1712.01	  392.59
     87.3700	  626.00	  627.50	-1724.00	  392.52
     87.4700	  668.00	  635.09	-1689.59	  392.45
     87.5700	  598.00	  639.42	-1763.92	  392.38
     87.6700	  663.00	  639.94	-1699.44	  392.30
     87.7700	  637.00	  636.67	-1722.17	  392.22
     87.8700	  632.00	  630.16	-1720.66	  392.14
     87.9700	  652.00	  621.29	-1691.79	  392.06
     88.0700	  606.00	  610.71	-1727.21	  391.98
     88.1700	  602.00	  600.18	-1720.68	  391.90
     88.2700	  544.00	  590.16	-1768.66	  391.81
     88.3700	  592.00	  581.31	-1711.81	  391.73
     88.4700	  584.00	  574.14	-1712.64	  391.64
     88.5700	  573.00	  568.97	-1718.47	  391.55
     88.6700	  594.00	  565.92	-1694.42	  391.45
     88.7700	  564.00	  564.95	-1723.45	  391.36
     88.8700	  551.00	  565.88	-1737.38	  391.26
     88.9700	  575.00	  568.37	-1715.87	  391.17
     89.0700	  579.00	  572.00	-1715.50	  391.07
     89.1700	  589.00	  576.25	-1709.75	  390.97
     89.2700	  616.00	  580.54	-1687.04	  390.86
     89.3700	  637.00	  584.25	-1669.75	  390.76
     89.4700	  620.00	  586.79	-1689.29	  390.65
     89.5700	  583.00	  587.69	-1727.19	  390.55
     89.6700	  587.00	  586.70	-1722.20	  390.44
     89.7700	  632.00	  583.87	-1674.37	  390.33
     89.8700	  612.00	  579.50	-1690.00	  390.22
     89.9700	  560.00	  574.02	-1736.52	  390.10
     90.0700	  553.00	  567.92	-1737.42	  389.99
     90.1700	  562.00	  561.61	-1722.11	  389.87
     90.2700	  509.00	  555.46	-1768.96	  389.75
     90.3700	  510.00	  549.75	-1762.25	  389.63
     90.4700	  488.00	  544.66	-1779.16	  389.51
     90.5700	  520.00	  540.31	-1742.81	  389.38
     90.6700	  521.00	  536.73	-1738.23	  389.26
     90.7700	  517.00	  533.92	-1739.42	  389.13
     90.8700	  497.00	  531.83	-1757.33	  389.00
     90.9700	  512.00	  530.39	-1740.89	  388.87
     91.0700	  512.00	  529.53	-1740.03	  388.74
     91.1700	  527.00	  529.17	-1724.67	  388.60
     91.2700	  504.00	  529.29	-1747.79	  388.47
     91.3700	  503.00	  529.87	-1749.37	  388.33
     91.4700	  532.00	  530.94	-1721.44	  388.19
     91.5700	  545.00	  532.56	-1710.06	  388.05
     91.6700	  530.00	  534.83	-1727.33	  387.91
     91.7700	  484.00	  537.88	-1776.38	  387.77
     91.8700	  525.00	  541.88	-1739.38	  387.62
     91.9700	  542.00	  547.01	-1727.51	  387.47
     92.0700	  571.00	  553.47	-1704.97	  387.33
     92.1700	  541.00	  561.43	-1742.93	  387.18
     92.2700	  516.00	  571.03	-1777.53	  387.03
     92.3700	  527.00	  582.37	-1777.87	  386.87
     92.4700	  602.00	  595.45	-1715.95	  386.72
     92.5700	  574.00	  610.19	-1758.69	  386.56
     92.6700	  643.00	  626.37	-1705.87	  386.40
     92.7700	  597.00	  643.66	-1769.16	  386.24
     92.8700	  690.00	  661.60	-1694.10	  386.08
     92.9700	  647.00	  679.59	-1755.09	  385.92
     93.0700	  680.00	  696.94	-1739.44	  385.76
     93.1700	  702.00	  712.98	-1733.48	  385.59
     93.2700	  745.00	  727.19	-1704.69	  385.42
     93.3700	  728.00	  739.09	-1733.59	  385.26
     93.4700	  804.00	  749.39	-1667.89	  385.09
     93.5700	  744.00	  758.23	-1736.73	  384.91
     93.6700	  814.00	  766.14	-1674.64	  384.74
     93.7700	  810.00	  773.61	-1686.11	  384.57
     93.8700	  788.00	  781.03	-1715.53	  384.39
     93.9700	  817.00	  788.73	-1694.23	  384.21
     94.0700	  829.00	  797.07	-1690.57	  384.03
     94.1700	  857.00	  806.42	-1671.92	  383.85
     94.2700	  876.00	  817.13	-1663.63	  383.67
     94.3700	  866.00	  829.33	-1685.83	  383.49
     94.4700	  857.00	  842.81	-1708.31	  383.30
     94.5700	  886.00	  856.97	-1693.47	  383.12
     94.6700	  869.00	  870.77	-1724.27	  382.93
     94.7700	  999.00	  882.83	-1606.33	  382.74
     94.8700	  912.00	  891.50	-1702.00	  382.55
     94.9700	  954.00	  895.22	-1663.72	  382.36
     95.0700	  871.00	  892.77	-1744.27	  382.16
     95.1700	  915.00	  883.66	-1691.16	  381.97
     95.2700	  926.00	  868.31	-1664.81	  381.77
     95.3700	  850.00	  847.90	-1720.40	  381.58
     95.4700	  842.00	  824.11	-1704.61	  381.38
     95.5700	  800.00	  798.79	-1721.29	  381.18
     95.6700	  724.00	  773.79	-1772.29	  380.98
     95.7700	  763.00	  750.83	-1710.33	  380.77
     95.8700	  738.00	  731.51	-1716.01	  380.57
     95.9700	  699.00	  717.22	-1740.72	  380.36
     96.0700	  654.00	  709.21	-1777.71	  380.16
     96.1700	  744.00	  708.55	-1687.05	  379.95
     96.2700	  687.00	  716.12	-1751.62	  379.74
     96.3700	  706.00	  732.64	-1749.14	  379.53
     96.4700	  746.00	  758.56	-1735.06	  379.32
     96.5700	  799.00	  794.08	-1717.58	  379.11
     96.6700	  799.00	  839.06	-1762.56	  378.89
     96.7700	  891.00	  892.99	-1724.49	  378.68
     96.8700	  892.00	  954.84	-1785.34	  378.46
     96.9700	 1061.00	 1023.06	-1684.56	  378.24
     97.0700	 1071.00	 1095.52	-1747.02	  378.02
     97.1700	 1165.00	 1169.47	-1726.97	  377.80
     97.2700	 1151.00	 1241.62	-1813.12	  377.58
     97.3700	 1280.00	 1308.09	-1750.59	  377.36
     97.4700	 1393.00	 1364.72	-1694.22	  377.14
     97.5700	 1398.00	 1407.40	-1731.90	  376.91
     97.6700	 1457.00	 1432.74	-1698.24	  376.69
     97.7700	 1423.00	 1438.76	-1738.26	  376.46
     97.8700	 1404.00	 1425.35	-1743.85	  376.23
     97.9700	 1334.00	 1394.25	-1782.75	  376.00
     98.0700	 1368.00	 1348.61	-1703.11	  375.77
     98.1700	 1338.00	 1292.28	-1676.78	  375.54
     98.2700	 1206.00	 1229.27	-1745.77	  375.31
     98.3700	 1118.00	 1163.44	-1767.94	  375.08
     98.4700	 1135.00	 1098.25	-1685.75	  374.84
     98.5700	  998.00	 1036.74	-1761.24	  374.61
     98.6700	  983.00	  981.45	-1720.95	  374.37
     98.7700	  933.00	  934.46	-1723.96	  374.13
     98.8700	  891.00	  897.47	-1728.97	  373.90
     98.9700	  880.00	  871.79	-1714.29	  373.66
     99.0700	  768.00	  858.37	-1812.87	  373.42
     99.1700	  840.00	  857.90	-1740.40	  373.18
     99.2700	  891.00	  870.77	-1702.27	  372.94
     99.3700	  925.00	  897.14	-1694.64	  372.69
     99.4700	  960.00	  936.93	-1699.43	  372.45
     99.5700	 1006.00	  989.75	-1706.25	  372.21
     99.6700	 1106.00	 1055.00	-1671.50	  371.96
     99.7700	 1185.00	 1131.60	-1669.10	  371.72
     99.8700	 1242.00	 1218.05	-1698.55	  371.47
     99.9700	 1291.00	 1312.29	-1743.79	  371.22
    100.0700	 1407.00	 1411.73	-1727.23	  370.97
    100.1700	 1527.00	 1513.19	-1708.69	  370.73
    100.2700	 1600.00	 1612.94	-1735.44	  370.48
    100.3700	 1686.00	 1706.98	-1743.48	  370.23
    100.4700	 1803.00	 1791.43	-1710.93	  369.98
    100.5700	 1903.00	 1862.95	-1682.45	  369.73
    100.6700	 1882.00	 1919.02	-1759.52	  369.47
    100.7700	 1923.00	 1957.96	-1757.46	  369.22
    100.8700	 1984.00	 1978.78	-1717.28	  368.97
    100.9700	 2066.00	 1980.87	-1637.37	  368.71
    101.0700	 1966.00	 1964.13	-1720.63	  368.46
    101.1700	 1976.00	 1929.14	-1675.64	  368.20
    101.2700	 1855.00	 1877.56	-1745.06	  367.95
    101.3700	 1796.00	 1812.29	-1738.79	  367.69
    101.4700	 1684.00	 1737.25	-1775.75	  367.44
    101.5700	 1653.00	 1656.83	-1726.33	  367.18
    101.6700	 1475.00	 1575.35	-1822.85	  366.92
    101.7700	 1574.00	 1496.66	-1645.16	  366.67
    101.8700	 1394.00	 1423.78	-1752.28	  366.41
    101.9700	 1338.00	 1358.83	-1743.33	  366.15
    102.0700	 1316.00	 1302.99	-1709.49	  365.89
    102.1700	 1199.00	 1256.57	-1780.07	  365.63
    102.2700	 1311.00	 1219.10	-1630.60	  365.37
    102.3700	 1194.00	 1189.37	-1717.87	  365.11
    102.4700	 1174.00	 1165.60	-1714.10	  364.85
    102.5700	 1120.00	 1145.56	-1748.06	  364.59
    102.6700	 1228.00	 1126.83	-1621.33	  364.33
    102.7700	 1167.00	 1107.14	-1662.64	  364.07
    102.8700	 1088.00	 1084.65	-1719.15	  363.81
    102.9700	 1061.00	 1058.20	-1719.70	  363.55
    103.0700	  945.00	 1027.42	-1804.92	  363.29
    103.1700	 1021.00	  992.67	-1694.17	  363.03
    103.2700	  910.00	  954.77	-1767.27	  362.76
    103.3700	  866.00	  914.82	-1771.32	  362.50
    103.4700	  917.00	  873.97	-1679.47	  362.24
    103.5700	  827.00	  833.34	-1728.84	  361.98
    103.6700	  806.00	  793.92	-1710.42	  361.72
    103.7700	  745.00	  756.56	-1734.06	  361.46
    103.8700	  735.00	  721.89	-1709.39	  361.19
    103.9700	  705.00	  690.41	-1707.91	  360.93
    104.0700	  608.00	  662.38	-1776.88	  360.67
    104.1700	  611.00	  637.93	-1749.43	  360.41
    104.2700	  617.00	  617.00	-1722.50	  360.15
    104.3700	  635.00	  599.43	-1686.93	  359.89
    104.4700	  576.00	  584.96	-1731.46	  359.63
    104.5700	  624.00	  573.28	-1671.78	  359.37
    104.6700	  564.00	  564.04	-1722.54	  359.11
    104.7700	  566.00	  556.91	-1713.41	  358.85
    104.8700	  552.00	  551.55	-1722.05	  358.59
    104.9700	  559.00	  547.68	-1711.18	  358.33
    105.0700	  510.00	  545.03	-1757.53	  358.07
    105.1700	  522.00	  543.40	-1743.90	  357.81
    105.2700	  556.00	  542.62	-1709.12	  357.55
    105.3700	  571.00	  542.58	-1694.08	  357.29
    105.4700	  553.00	  543.16	-1712.66	  357.03
    105.5700	  526.00	  544.34	-1740.84	  356.78
    105.6700	  556.00	  546.10	-1712.60	  356.52
    105.7700	  546.00	  548.45	-1724.95	  356.26
    105.8700	  540.00	  551.43	-1733.93	  356.01
    105.9700	  520.00	  555.07	-1757.57	  355.75
    106.0700	  585.00	  559.48	-1696.98	  355.50
    106.1700	  590.00	  564.68	-1697.18	  355.25
    106.2700	  537.00	  570.72	-1756.22	  354.99
    106.3700	  587.00	  577.59	-1713.09	  354.74
    106.4700	  573.00	  585.25	-1734.75	  354.49
    106.5700	  580.00	  593.62	-1736.12	  354.24
    106.6700	  628.00	  602.55	-1697.05	  353.99
    106.7700	  609.00	  611.85	-1725.35	  353.74
    106.8700	  650.00	  621.32	-1693.82	  353.49
    106.9700	  659.00	  630.65	-1694.15	  353.24
    107.0700	  649.00	  639.55	-1713.05	  353.00
    107.1700	  680.00	  647.68	-1690.18	  352.75
    107.2700	  619.00	  654.75	-1758.25	  352.51
    107.3700	  625.00	  660.51	-1758.01	  352.26
    107.4700	  663.00	  664.79	-1724.29	  352.02
    107.5700	  713.00	  667.61	-1677.11	  351.78
    107.6700	  701.00	  669.08	-1690.58	  351.54
    107.7700	  703.00	  669.48	-1688.98	  351.30
    107.8700	  691.00	  669.14	-1700.64	  351.06
    107.9700	  679.00	  668.43	-1711.93	  350.82
    108.0700	  649.00	  667.70	-1741.20	  350.59
    108.1700	  647.00	  667.24	-1742.74	  350.35
    108.2700	  618.00	  667.24	-1771.74	  350.12
    108.3700	  654.00	  667.83	-1736.33	  349.89
    108.4700	  675.00	  669.00	-1716.50	  349.66
    108.5700	  679.00	  670.69	-1714.19	  349.43
    108.6700	  692.00	  672.69	-1703.19	  349.20
    108.7700	  678.00	  674.75	-1719.25	  348.98
    108.8700	  725.00	  676.52	-1674.02	  348.75
    108.9700	  664.00	  677.62	-1736.12	  348.53
    109.0700	  704.00	  677.68	-1696.18	  348.31
    109.1700	  649.00	  676.37	-1749.87	  348.09
    109.2700	  723.00	  673.47	-1672.97	  347.87
    109.3700	  643.00	  668.88	-1748.38	  347.65
    109.4700	  675.00	  662.66	-1710.16	  347.44
    109.5700	  631.00	  655.00	-1746.50	  347.22
    109.6700	  621.00	  646.18	-1747.68	  347.01
    109.7700	  638.00	  636.50	-1721.00	  346.80
    109.8700	  674.00	  626.28	-1674.78	  346.60
    109.9700	  616.00	  615.88	-1722.38	  346.39
    110.0700	  590.00	  605.55	-1738.05	  346.19
    110.1700	  614.00	  595.56	-1704.06	  345.98
    110.2700	  623.00	  586.11	-1685.61	  345.79
    110.3700	  578.00	  577.38	-1721.88	  345.59
    110.4700	  532.00	  569.49	-1759.99	  345.39
    110.5700	  533.00	  562.51	-1752.01	  345.20
    110.6700	  570.00	  556.50	-1709.00	  345.01
    110.7700	  578.00	  551.45	-1695.95	  344.82
    110.8700	  556.00	  547.35	-1713.85	  344.63
    110.9700	  559.00	  544.15	-1707.65	  344.45
    111.0700	  532.00	  541.78	-1732.28	  344.26
    111.1700	  557.00	  540.18	-1705.68	  344.08
    111.2700	  535.00	  539.26	-1726.76	  343.91
    111.3700	  571.00	  538.95	-1690.45	  343.73
    111.4700	  537.00	  539.16	-1724.66	  343.56
    111.5700	  561.00	  539.82	-1701.32	  343.39
    111.6700	  517.00	  540.88	-1746.38	  343.22
    111.7700	  499.00	  542.28	-1765.78	  343.05
    111.8700	  525.00	  543.98	-1741.48	  342.89
    111.9700	  554.00	  545.93	-1714.43	  342.73
    112.0700	  561.00	  548.12	-1709.62	  342.57
    112.1700	  570.00	  550.53	-1703.03	  342.42
    112.2700	  550.00	  553.17	-1725.67	  342.27
    112.3700	  550.00	  556.03	-1728.53	  342.12
    112.4700	  573.00	  559.14	-1708.64	  341.97
    112.5700	  543.00	  562.52	-1742.02	  341.83
    112.6700	  580.00	  566.22	-1708.72	  341.69
    112.7700	  552.00	  570.28	-1740.78	  341.55
    112.8700	  615.00	  574.78	-1682.28	  341.42
    112.9700	  562.00	  579.79	-1740.29	  341.29
    113.0700	  601.00	  585.44	-1706.94	  341.16
    113.1700	  557.00	  591.85	-1757.35	  341.04
    113.2700	  579.00	  599.22	-1742.72	  340.92
    113.3700	  636.00	  607.77	-1694.27	  340.80
    113.4700	  624.00	  617.81	-1716.31	  340.68
    113.5700	  621.00	  629.72	-1731.22	  340.57
    113.6700	  675.00	  643.97	-1691.47	  340.47
    113.7700	  655.00	  661.17	-1728.67	  340.36
    113.8700	  709.00	  682.05	-1695.55	  340.26
    113.9700	  763.00	  707.52	-1667.02	  340.16
    114.0700	  718.00	  738.64	-1743.14	  340.07
    114.1700	  810.00	  776.69	-1689.19	  339.98
    114.2700	  838.00	  823.15	-1707.65	  339.89
    114.3700	  949.00	  879.69	-1653.19	  339.81
    114.4700	  970.00	  948.17	-1700.67	  339.73
    114.5700	 1039.00	 1030.64	-1714.14	  339.66
    114.6700	 1187.00	 1129.26	-1664.76	  339.59
    114.7700	 1283.00	 1246.24	-1685.74	  339.52
    114.8700	 1424.00	 1383.79	-1682.29	  339.46
    114.9700	 1697.00	 1543.93	-1569.43	  339.40
    115.0700	 1824.00	 1728.56	-1627.06	  339.34
    115.1700	 1964.00	 1939.13	-1697.63	  339.29
    115.2700	 2258.00	 2176.55	-1641.05	  339.24
    115.3700	 2626.00	 2441.09	-1537.59	  339.20
    115.4700	 2757.00	 2732.15	-1697.65	  339.16
    115.5700	 3091.00	 3048.29	-1679.79	  339.13
    115.6700	 3376.00	 3387.07	-1733.57	  339.10
    115.7700	 3720.00	 3744.81	-1747.31	  339.08
    115.8700	 4228.00	 4116.75	-1611.25	  339.06
    115.9700	 4346.00	 4496.89	-1873.39	  339.04
    116.0700	 4733.00	 4878.22	-1867.72	  339.03
    116.1700	 5195.00	 5252.62	-1780.12	  339.02
    116.2700	 5552.00	 5610.92	-1781.42	  339.02
    116.3700	 5779.00	 5943.21	-1886.71	  339.02
    116.4700	 6119.00	 6239.09	-1842.59	  339.03
    116.5700	 6313.00	 6488.31	-1897.81	  339.04
    116.6700	 6676.00	 6681.29	-1727.79	  339.06
    116.7700	 6781.00	 6809.92	-1751.42	  339.08
    116.8700	 6890.00	 6868.55	-1701.05	  339.11
    116.9700	 6774.00	 6854.66	-1803.16	  339.14
    117.0700	 6658.00	 6769.19	-1833.69	  339.18
    117.1700	 6645.00	 6616.37	-1693.87	  339.22
    117.2700	 6368.00	 6403.22	-1757.72	  339.27
    117.3700	 6023.00	 6138.68	-1838.18	  339.32
    117.4700	 5749.00	 5832.84	-1806.34	  339.38
    117.5700	 5467.00	 5495.96	-1751.46	  339.44
    117.6700	 5116.00	 5138.05	-1744.55	  339.51
    117.7700	 4670.00	 4768.52	-1821.02	  339.59
    117.8700	 4421.00	 4395.90	-1697.40	  339.67
    117.9700	 4160.00	 4027.64	-1590.14	  339.75
    118.0700	 3726.00	 3669.99	-1666.49	  339.85
    118.1700	 3458.00	 3328.02	-1592.52	  339.94
    118.2700	 2993.00	 3005.79	-1735.29	  340.05
    118.3700	 2824.00	 2706.16	-1604.66	  340.16
    118.4700	 2590.00	 2431.03	-1563.53	  340.27
    118.5700	 2281.00	 2181.29	-1622.79	  340.39
    118.6700	 2022.00	 1957.05	-1657.55	  340.52
    118.7700	 1700.00	 1757.80	-1780.30	  340.65
    118.8700	 1588.00	 1582.47	-1716.97	  340.79
    118.9700	 1412.00	 1429.61	-1740.11	  340.94
    119.0700	 1335.00	 1297.41	-1684.91	  341.09
    119.1700	 1131.00	 1183.91	-1775.41	  341.24
    119.2700	 1040.00	 1087.13	-1769.63	  341.41
    119.3700	 1000.00	 1005.06	-1727.56	  341.58
    119.4700	  916.00	  935.79	-1742.29	  341.76
    119.5700	  834.00	  877.51	-1766.01	  341.94
    119.6700	  831.00	  828.58	-1720.08	  342.13
    119.7700	  753.00	  787.57	-1757.07	  342.33
    119.8700	  747.00	  753.19	-1728.69	  342.53
    119.9700	  693.00	  724.36	-1753.86	  342.74
    120.0700	  655.00	  700.15	-1767.65	  342.96
    120.1700	  649.00	  679.78	-1753.28	  343.18
    120.2700	  640.00	  662.62	-1745.12	  343.42
    120.3700	  596.00	  648.13	-1774.63	  343.65
    120.4700	  621.00	  635.90	-1737.40	  343.90
    120.5700	  608.00	  625.58	-1740.08	  344.15
    120.6700	  621.00	  616.87	-1718.37	  344.41
    120.7700	  583.00	  609.58	-1749.08	  344.68
    120.8700	  637.00	  603.50	-1689.00	  344.95
    120.9700	  562.00	  598.51	-1759.01	  345.24
    121.0700	  565.00	  594.48	-1751.98	  345.53
    121.1700	  578.00	  591.33	-1735.83	  345.82
    121.2700	  548.00	  588.96	-1763.46	  346.13
    121.3700	  539.00	  587.33	-1770.83	  346.44
    121.4700	  578.00	  586.37	-1730.88	  346.76
    121.5700	  552.00	  586.04	-1756.54	  347.09
    121.6700	  567.00	  586.28	-1741.78	  347.43
    121.7700	  603.00	  587.03	-1706.53	  347.77
    121.8700	  559.00	  588.26	-1751.76	  348.12
    121.9700	  573.00	  589.91	-1739.41	  348.48
    122.0700	  586.00	  591.91	-1728.41	  348.85
    122.1700	  599.00	  594.20	-1717.70	  349.23
    122.2700	  571.00	  596.70	-1748.20	  349.61
    122.3700	  607.00	  599.35	-1714.85	  350.01
    122.4700	  597.00	  602.05	-1727.55	  350.41
    122.5700	  609.00	  604.73	-1718.23	  350.82
    122.6700	  652.00	  607.29	-1677.79	  351.24
    122.7700	  661.00	  609.64	-1671.14	  351.66
    122.8700	  611.00	  611.69	-1723.19	  352.10
    122.9700	  625.00	  613.38	-1710.88	  352.54
    123.0700	  644.00	  614.64	-1693.14	  353.00
    123.1700	  657.00	  615.41	-1680.91	  353.46
    123.2700	  633.00	  615.67	-1705.17	  353.93
    123.3700	  608.00	  615.45	-1729.95	  354.41
    123.4700	  639.00	  614.74	-1698.24	  354.90
    123.5700	  613.00	  613.58	-1723.08	  355.40
    123.6700	  644.00	  612.01	-1690.51	  355.91
    123.7700	  616.00	  610.09	-1716.59	  356.43
    123.8700	  581.00	  607.87	-1749.37	  356.96
    123.9700	  631.00	  605.41	-1696.91	  357.49
    124.0700	  622.00	  602.77	-1703.27	  358.04
    124.1700	  609.00	  600.01	-1713.51	  358.60
    124.2700	  583.00	  597.19	-1736.69	  359.16
    124.3700	  567.00	  594.35	-1749.85	  359.74
    124.4700	  630.00	  591.54	-1684.04	  360.33
    124.5700	  570.00	  588.79	-1741.29	  360.92
    124.6700	  617.00	  586.16	-1691.66	  361.53
    124.7700	  617.00	  583.67	-1689.17	  362.14
    124.8700	  567.00	  581.35	-1736.85	  362.77
    124.9700	  563.00	  476.41	-1635.91	  363.41
    125.0700	  596.00	  477.06	-1722.50	  364.05
    125.1700	  571.00	  477.72	-1722.50	  364.71
    125.2700	  626.00	  478.38	-1722.50	  365.38
    125.3700	  586.00	  479.06	-1722.50	  366.05
    125.4700	  585.00	  479.75	-1722.50	  366.74
    125.5700	  607.00	  480.45	-1722.50	  367.44
    125.6700	  576.00	  481.16	-1722.50	  368.15
    125.7700	  558.00	  481.88	-1722.50	  368.87
    125.8700	  556.00	  482.61	-1722.50	  369.61
    125.9700	  580.00	  483.36	-1722.50	  370.35
    126.0700	  569.00	  484.11	-1722.50	  371.11
    126.1700	  559.00	  484.88	-1722.50	  371.87
    126.2700	  597.00	  485.65	-1722.50	  372.65
    126.3700	  582.00	  486.44	-1722.50	  373.44
    126.4700	  551.00	  487.24	-1722.50	  374.24
    126.5700	  540.00	  488.05	-1722.50	  375.05
    126.6700	  530.00	  488.88	-1722.50	  375.87
    126.7700	  617.00	  489.71	-1722.50	  376.71
    126.8700	  579.00	  490.56	-1722.50	  377.55
    126.9700	  595.00	  491.42	-1722.50	  378.41
    127.0700	  587.00	  492.29	-1722.50	  379.28
    127.1700	  595.00	  493.17	-1722.50	  380.16
    127.2700	  609.00	  494.06	-1722.50	  381.06
    127.3700	  569.00	  494.97	-1722.50	  381.96
    127.4700	  619.00	  495.89	-1722.50	  382.88
    127.5700	  631.00	  496.82	-1722.50	  383.81
    127.6700	  652.00	  497.76	-1722.50	  384.76
    127.7700	  681.00	  498.72	-1722.50	  385.71
    127.8700	  722.00	  499.69	-1722.50	  386.68
    127.9700	  651.00	  500.67	-1722.50	  387.67
    128.0700	  697.00	  501.67	-1722.50	  388.66
    128.1700	  696.00	  502.67	-1722.50	  389.67
    128.2700	  748.00	  503.69	-1722.50	  390.69
    128.3700	  745.00	  504.73	-1722.50	  391.72
    128.4700	  749.00	  505.77	-1722.50	  392.77
    128.5700	    0.00	  506.83	-1722.50	  393.83
    128.6700	    0.00	  507.91	-1722.50	  394.90
     12.3245	        	        	        	        	       0	(  0  0  2)	  0  1
     24.9237	        	        	        	        	       0	(  0  0  4)	  0  1
     28.3712	        	        	        	        	       0	(  1  0  0)	  0  1
     29.0693	        	        	        	        	       0	(  1  0  1)	  0  1
     31.0781	        	        	        	        	       0	(  1  0  2)	  0  1
     34.1905	        	        	        	        	       0	(  1  0  3)	  0  1
     37.8401	        	        	        	        	       0	(  0  0  6)	  0  1
     38.1729	        	        	        	        	       0	(  1  0  4)	  0  1
     42.8295	        	        	        	        	       0	(  1  0  5)	  0  1
     48.0209	        	        	        	        	       0	(  1  0  6)	  0  1
     50.3399	        	        	        	        	       0	(  1  1  0)	  0  1
     51.2810	        	        	        	        	       0	(  0  0  8)	  0  1
     52.0655	        	        	        	        	       0	(  1  1  2)	  0  1
     53.6597	        	        	        	        	       0	(  1  0  7)	  0  1
     57.0210	        	        	        	        	       0	(  1  1  4)	  0  1
     58.8507	        	        	        	        	       0	(  2  0  0)	  0  1
     59.2429	        	        	        	        	       0	(  2  0  1)	  0  1
     59.6996	        	        	        	        	       0	(  1  0  8)	  0  1
     60.4102	        	        	        	        	       0	(  2  0  2)	  0  1
     62.3265	        	        	        	        	       0	(  2  0  3)	  0  1
     64.7282	        	        	        	        	       0	(  1  1  6)	  0  1
     64.9550	        	        	        	        	       0	(  2  0  4)	  0  1
     65.5328	        	        	        	        	       0	(  0  0 10)	  0  1
     66.1266	        	        	        	        	       0	(  1  0  9)	  0  1
     68.2550	        	        	        	        	       0	(  2  0  5)	  0  1
     72.1896	        	        	        	        	       0	(  2  0  6)	  0  1
     72.9550	        	        	        	        	       0	(  1  0 10)	  0  1
     74.7841	        	        	        	        	       0	(  1  1  8)	  0  1
     76.7325	        	        	        	        	       0	(  2  0  7)	  0  1
     80.2269	        	        	        	        	       0	(  1  0 11)	  0  1
     81.0424	        	        	        	        	       0	(  0  0 12)	  0  1
     81.1347	        	        	        	        	       0	(  2  1  0)	  0  1
     81.4753	        	        	        	        	       0	(  2  1  1)	  0  1
     81.8733	        	        	        	        	       0	(  2  0  8)	  0  1
     82.4954	        	        	        	        	       0	(  2  1  2)	  0  1
     84.1904	        	        	        	        	       0	(  2  1  3)	  0  1
     86.5554	        	        	        	        	       0	(  2  1  4)	  0  1
     87.0813	        	        	        	        	       0	(  1  1 10)	  0  1
     87.6241	        	        	        	        	       0	(  2  0  9)	  0  1
     88.0183	        	        	        	        	       0	(  1  0 12)	  0  1
     89.5884	        	        	        	        	       0	(  2  1  5)	  0  1
     93.2951	        	        	        	        	       0	(  2  1  6)	  0  1
     94.0274	        	        	        	        	       0	(  2  0 10)	  0  1
     95.0583	        	        	        	        	       0	(  3  0  0)	  0  1
     95.3965	        	        	        	        	       0	(  3  0  1)	  0  1
     96.4125	        	        	        	        	       0	(  3  0  2)	  0  1
     96.4528	        	        	        	        	       0	(  1  0 13)	  0  1
     97.6956	        	        	        	        	       0	(  2  1  7)	  0  1
     98.1106	        	        	        	        	       0	(  3  0  3)	  0  1
     98.6244	        	        	        	        	       0	(  0  0 14)	  0  1
    100.5006	        	        	        	        	       0	(  3  0  4)	  0  1
    101.1693	        	        	        	        	       0	(  2  0 11)	  0  1
    101.9913	        	        	        	        	       0	(  1  1 12)	  0  1
    102.8334	        	        	        	        	       0	(  2  1  8)	  0  1
    103.6019	        	        	        	        	       0	(  3  0  5)	  0  1
    105.7334	        	        	        	        	       0	(  1  0 14)	  0  1
    107.4500	        	        	        	        	       0	(  3  0  6)	  0  1
    108.7903	        	        	        	        	       0	(  2  1  9)	  0  1
    109.2072	        	        	        	        	       0	(  2  0 12)	  0  1
    112.1077	        	        	        	        	       0	(  3  0  7)	  0  1
    115.7147	        	        	        	        	       0	(  2  1 10)	  0  1
    116.2169	        	        	        	        	       0	(  1  0 15)	  0  1
    116.8619	        	        	        	        	       0	(  2  2  0)	  0  1
    117.6849	        	        	        	        	       0	(  3  0  8)	  0  1
    118.3842	        	        	        	        	       0	(  2  2  2)	  0  1
    118.4297	        	        	        	        	       0	(  2  0 13)	  0  1
    120.1930	        	        	        	        	       0	(  0  0 16)	  0  1
    120.9098	        	        	        	        	       0	(  1  1 14)	  0  1
    123.0937	        	        	        	        	       0	(  2  2  4)	  0  1
    123.8820	        	        	        	        	       0	(  2  1 11)	  0  1
    124.3792	        	        	        	        	       0	(  3  0  9)	  0  1
    124.9701	        	        	        	        	       0	(  3  1  0)	  0  1
    125.3828	        	        	        	        	       0	(  3  1  1)	  0  1
    126.6338	        	        	        	        	       0	(  3  1  2)	  0  1
    128.6267	        	        	        	        	       0	(  1  0 16)	  0  1
    128.7658	        	        	        	        	       0	(  3  1  3)	  0  1
    129.4216	        	        	        	        	       0	(  2  0 14)	  0  1
    131.5879	        	        	        	        	       0	(  2  2  6)	  0  1
    131.8637	        	        	        	        	       0	(  3  1  4)	  0  1
    132.5743	        	        	        	        	       0	(  3  0 10)	  0  1
    133.8616	        	        	        	        	       0	(  2  1 12)	  0  1
    136.0855	        	        	        	        	       0	(  3  1  5)	  0  1
    141.7389	        	        	        	        	       0	(  3  1  6)	  0  1
    143.1572	        	        	        	        	       0	(  3  0 11)	  0  1
    143.6954	        	        	        	        	       0	(  2  0 15)	  0  1
    144.9521	        	        	        	        	       0	(  1  0 17)	  0  1
    145.9721	        	        	        	        	       0	(  2  2  8)	  0  1
    147.1677	        	        	        	        	       0	(  2  1 13)	  0  1
    149.5257	        	        	        	        	       0	(  3  1  7)	  0  1
    150.1301	        	        	        	        	       0	(  1  1 16)	  0  1
    154.6320	        	        	        	        	       0	(  0  0 18)	  0  1
    159.3935	        	        	        	        	       0	(  3  0 12)	  0  1
    159.6560	        	        	        	        	       0	(  4  0  0)	  0  1
    160.6541	        	        	        	        	       0	(  4  0  1)	  0  1
    161.8889	        	        	        	        	       0	(  3  1  8)	  0  1
    164.0063	        	        	        	        	       0	(  4  0  2)	  0  1
    171.5210	        	        	        	        	       0	(  2  0 16)	  0  1
    172.3032	        	        	        	        	       0	(  4  0  3)	  0  1
