MSG Master    CELL:    5.90891   5.90891  23.22472   90.0000   90.0000  120.0000   SPGR: P 63/m m c             TEMP:    895.05
  1   1280     2.52000     0.00000    -0.11803     0.00000     0.00000    0
    98     0     2
       0.00000      10.00000
     125.00000     130.00000
 2Theta	Yobs	Ycal	Yobs-Ycal	Backg	Posr	(hkl)	K
      0.7700	    0.00	  480.49	-1734.91	  368.95
      0.8700	    0.00	  481.85	-1734.91	  370.31
      0.9700	   44.00	  483.19	-1734.91	  371.65
      1.0700	   41.00	  484.52	-1734.91	  372.97
      1.1700	   41.00	  485.83	-1734.91	  374.28
      1.2700	   41.00	  487.13	-1734.91	  375.58
      1.3700	   53.00	  488.41	-1734.91	  376.86
      1.4700	   99.00	  489.67	-1734.91	  378.13
      1.5700	  283.00	  490.93	-1734.91	  379.38
      1.6700	  477.00	  492.16	-1734.91	  380.62
      1.7700	  587.00	  493.38	-1734.91	  381.84
      1.8700	  665.00	  494.59	-1734.91	  383.04
      1.9700	  728.00	  495.78	-1734.91	  384.24
      2.0700	  814.00	  496.96	-1734.91	  385.42
      2.1700	  805.00	  498.13	-1734.91	  386.58
      2.2700	  808.00	  499.28	-1734.91	  387.73
      2.3700	  726.00	  500.41	-1734.91	  388.87
      2.4700	  660.00	  501.53	-1734.91	  389.99
      2.5700	  695.00	  502.64	-1734.91	  391.10
      2.6700	  693.00	  503.74	-1734.91	  392.19
      2.7700	  627.00	  504.82	-1734.91	  393.27
      2.8700	  626.00	  505.88	-1734.91	  394.34
      2.9700	  591.00	  506.94	-1734.91	  395.39
      3.0700	  632.00	  507.98	-1734.91	  396.43
      3.1700	  600.00	  509.00	-1734.91	  397.46
      3.2700	  686.00	  510.02	-1734.91	  398.47
      3.3700	  738.00	  511.02	-1734.91	  399.47
      3.4700	  860.00	  512.00	-1734.91	  400.46
      3.5700	  934.00	  512.98	-1734.91	  401.43
      3.6700	 1052.00	  513.94	-1734.91	  402.39
      3.7700	 1021.00	  514.88	-1734.91	  403.34
      3.8700	 1147.00	  515.82	-1734.91	  404.27
      3.9700	 1236.00	  516.74	-1734.91	  405.20
      4.0700	 1240.00	  517.65	-1734.91	  406.11
      4.1700	 1253.00	  518.55	-1734.91	  407.00
      4.2700	 1262.00	  519.43	-1734.91	  407.89
      4.3700	 1231.00	  520.31	-1734.91	  408.76
      4.4700	 1186.00	  521.17	-1734.91	  409.62
      4.5700	 1206.00	  522.01	-1734.91	  410.47
      4.6700	 1168.00	  522.85	-1734.91	  411.30
      4.7700	 1129.00	  523.67	-1734.91	  412.13
      4.8700	 1087.00	  524.48	-1734.91	  412.94
      4.9700	 1034.00	  525.28	-1734.91	  413.74
      5.0700	 1009.00	  526.07	-1734.91	  414.52
      5.1700	  965.00	  526.85	-1734.91	  415.30
      5.2700	  944.00	  527.61	-1734.91	  416.07
      5.3700	  960.00	  528.36	-1734.91	  416.82
      5.4700	  938.00	  529.11	-1734.91	  417.56
      5.5700	  964.00	  529.84	-1734.91	  418.29
      5.6700	  894.00	  530.55	-1734.91	  419.01
      5.7700	  896.00	  531.26	-1734.91	  419.72
      5.8700	  856.00	  531.96	-1734.91	  420.41
      5.9700	  825.00	  532.64	-1734.91	  421.10
      6.0700	  816.00	  533.32	-1734.91	  421.77
      6.1700	  784.00	  533.98	-1734.91	  422.43
      6.2700	  767.00	  534.63	-1734.91	  423.09
      6.3700	  727.00	  535.27	-1734.91	  423.73
      6.4700	  773.00	  535.90	-1734.91	  424.36
      6.5700	  763.00	  536.52	-1734.91	  424.98
      6.6700	  755.00	  537.13	-1734.91	  425.59
      6.7700	  703.00	  537.73	-1734.91	  426.19
      6.8700	  708.00	  538.32	-1734.91	  426.78
      6.9700	  713.00	  538.90	-1734.91	  427.35
      7.0700	  776.00	  539.47	-1734.91	  427.92
      7.1700	  685.00	  540.03	-1734.91	  428.48
      7.2700	  670.00	  540.57	-1734.91	  429.03
      7.3700	  678.00	  541.11	-1734.91	  429.57
      7.4700	  670.00	  541.64	-1734.91	  430.09
      7.5700	  648.00	  542.16	-1734.91	  430.61
      7.6700	  657.00	  542.67	-1734.91	  431.12
      7.7700	  613.00	  543.16	-1734.91	  431.62
      7.8700	  664.00	  543.65	-1734.91	  432.11
      7.9700	  641.00	  544.13	-1734.91	  432.59
      8.0700	  666.00	  544.60	-1734.91	  433.05
      8.1700	  618.00	  545.06	-1734.91	  433.51
      8.2700	  599.00	  545.51	-1734.91	  433.97
      8.3700	  619.00	  545.95	-1734.91	  434.41
      8.4700	  637.00	  546.39	-1734.91	  434.84
      8.5700	  615.00	  546.81	-1734.91	  435.26
      8.6700	  646.00	  547.22	-1734.91	  435.68
      8.7700	  599.00	  547.63	-1734.91	  436.08
      8.8700	  631.00	  548.02	-1734.91	  436.48
      8.9700	  581.00	  548.41	-1734.91	  436.86
      9.0700	  622.00	  548.79	-1734.91	  437.24
      9.1700	  612.00	  549.16	-1734.91	  437.61
      9.2700	  646.00	  549.52	-1734.91	  437.97
      9.3700	  603.00	  549.87	-1734.91	  438.32
      9.4700	  601.00	  550.21	-1734.91	  438.67
      9.5700	  618.00	  550.55	-1734.91	  439.00
      9.6700	  641.00	  550.88	-1734.91	  439.33
      9.7700	  602.00	  551.19	-1734.91	  439.65
      9.8700	  538.00	  551.50	-1734.91	  439.96
      9.9700	  613.00	  551.81	-1734.91	  440.26
     10.0700	  623.00	  553.83	-1665.74	  440.55
     10.1700	  617.00	  554.30	-1672.20	  440.84
     10.2700	  594.00	  554.80	-1695.71	  441.12
     10.3700	  639.00	  555.35	-1651.26	  441.39
     10.4700	  579.00	  555.99	-1711.90	  441.65
     10.5700	  614.00	  556.77	-1677.68	  441.90
     10.6700	  574.00	  557.77	-1718.68	  442.15
     10.7700	  594.00	  559.09	-1699.99	  442.39
     10.8700	  629.00	  560.80	-1666.71	  442.62
     10.9700	  597.00	  562.96	-1700.86	  442.84
     11.0700	  568.00	  565.55	-1732.45	  443.06
     11.1700	  554.00	  568.58	-1749.48	  443.27
     11.2700	  565.00	  572.08	-1741.99	  443.47
     11.3700	  573.00	  576.14	-1738.05	  443.66
     11.4700	  588.00	  580.89	-1727.79	  443.85
     11.5700	  595.00	  586.53	-1726.43	  444.03
     11.6700	  556.00	  593.39	-1772.29	  444.20
     11.7700	  593.00	  601.90	-1743.81	  444.37
     11.8700	  648.00	  612.44	-1699.35	  444.52
     11.9700	  694.00	  624.87	-1665.78	  444.68
     12.0700	  676.00	  637.67	-1696.58	  444.82
     12.1700	  647.00	  647.15	-1735.06	  444.96
     12.2700	  700.00	  647.43	-1682.34	  445.09
     12.3700	  689.00	  634.70	-1680.61	  445.21
     12.4700	  618.00	  614.27	-1731.18	  445.33
     12.5700	  579.00	  595.21	-1751.12	  445.44
     12.6700	  548.00	  581.49	-1768.39	  445.55
     12.7700	  563.00	  572.96	-1744.86	  445.64
     12.8700	  568.00	  568.09	-1735.00	  445.74
     12.9700	  529.00	  565.36	-1771.27	  445.82
     13.0700	  563.00	  563.73	-1735.64	  445.90
     13.1700	  551.00	  562.66	-1746.57	  445.97
     13.2700	  565.00	  561.90	-1731.81	  446.04
     13.3700	  503.00	  561.33	-1793.24	  446.10
     13.4700	  529.00	  560.89	-1766.80	  446.16
     13.5700	  507.00	  560.55	-1788.46	  446.20
     13.6700	  537.00	  560.27	-1758.18	  446.25
     13.7700	  523.00	  560.05	-1771.96	  446.28
     13.8700	  559.00	  559.86	-1735.77	  446.31
     13.9700	  478.00	  559.70	-1816.61	  446.34
     14.0700	  505.00	  559.60	-1789.51	  446.36
     14.1700	  554.00	  559.48	-1740.39	  446.37
     14.2700	  534.00	  559.38	-1760.28	  446.38
     14.3700	  575.00	  559.28	-1719.19	  446.38
     14.4700	  555.00	  559.19	-1739.10	  446.38
     14.5700	  518.00	  559.11	-1776.02	  446.37
     14.6700	  563.00	  559.03	-1730.93	  446.36
     14.7700	  553.00	  558.95	-1740.86	  446.34
     14.8700	  543.00	  558.87	-1750.78	  446.32
     14.9700	  547.00	  558.80	-1746.70	  446.29
     15.0700	  545.00	  558.72	-1748.63	  446.25
     15.1700	  496.00	  558.64	-1797.55	  446.22
     15.2700	  527.00	  558.56	-1766.47	  446.17
     15.3700	  558.00	  558.48	-1735.39	  446.12
     15.4700	  551.00	  558.40	-1742.31	  446.07
     15.5700	  537.00	  558.32	-1756.22	  446.01
     15.6700	  544.00	  558.23	-1749.14	  445.94
     15.7700	  552.00	  558.14	-1741.04	  445.87
     15.8700	  521.00	  558.04	-1771.95	  445.80
     15.9700	  539.00	  557.95	-1753.86	  445.72
     16.0700	  558.00	  557.85	-1734.76	  445.64
     16.1700	  515.00	  557.75	-1777.65	  445.55
     16.2700	  547.00	  557.64	-1745.55	  445.46
     16.3700	  577.00	  557.53	-1715.44	  445.36
     16.4700	  525.00	  557.42	-1767.33	  445.26
     16.5700	  578.00	  557.30	-1714.21	  445.16
     16.6700	  548.00	  557.18	-1744.09	  445.05
     16.7700	  587.00	  557.06	-1704.97	  444.93
     16.8700	  556.00	  556.93	-1735.84	  444.81
     16.9700	  553.00	  556.80	-1738.71	  444.69
     17.0700	  562.00	  556.67	-1729.58	  444.57
     17.1700	  585.00	  556.53	-1706.44	  444.43
     17.2700	  543.00	  556.39	-1748.30	  444.30
     17.3700	  543.00	  556.25	-1748.15	  444.16
     17.4700	  595.00	  556.10	-1696.01	  444.02
     17.5700	  546.00	  555.95	-1744.85	  443.87
     17.6700	  509.00	  555.90	-1781.81	  443.72
     17.7700	  542.00	  555.75	-1748.66	  443.57
     17.8700	  543.00	  555.59	-1747.50	  443.41
     17.9700	  547.00	  555.43	-1743.33	  443.25
     18.0700	  548.00	  555.26	-1742.17	  443.08
     18.1700	  542.00	  555.19	-1748.10	  442.91
     18.2700	  546.00	  555.02	-1743.93	  442.74
     18.3700	  565.00	  554.85	-1724.76	  442.56
     18.4700	  511.00	  554.67	-1778.58	  442.39
     18.5700	  540.00	  554.49	-1749.40	  442.20
     18.6700	  551.00	  554.31	-1738.22	  442.02
     18.7700	  552.00	  554.13	-1737.03	  441.83
     18.8700	  535.00	  553.94	-1753.85	  441.63
     18.9700	  537.00	  553.75	-1751.66	  441.44
     19.0700	  527.00	  553.56	-1761.46	  441.24
     19.1700	  536.00	  553.36	-1752.27	  441.04
     19.2700	  537.00	  553.16	-1751.07	  440.83
     19.3700	  535.00	  552.96	-1752.87	  440.62
     19.4700	  554.00	  552.76	-1733.66	  440.41
     19.5700	  559.00	  552.55	-1728.46	  440.19
     19.6700	  533.00	  552.34	-1754.25	  439.98
     19.7700	  489.00	  552.13	-1798.04	  439.75
     19.8700	  531.00	  551.96	-1755.87	  439.53
     19.9700	  574.00	  551.74	-1712.65	  439.30
     20.0700	  526.00	  551.53	-1760.44	  439.08
     20.1700	  533.00	  551.31	-1753.22	  438.84
     20.2700	  542.00	  551.09	-1744.00	  438.61
     20.3700	  560.00	  550.87	-1725.78	  438.37
     20.4700	  554.00	  550.65	-1731.55	  438.13
     20.5700	  521.00	  550.42	-1764.33	  437.89
     20.6700	  527.00	  550.19	-1758.10	  437.64
     20.7700	  533.00	  549.97	-1751.87	  437.40
     20.8700	  527.00	  549.74	-1757.64	  437.15
     20.9700	  525.00	  549.51	-1759.41	  436.89
     21.0700	  569.00	  549.28	-1715.18	  436.64
     21.1700	  580.00	  549.04	-1703.95	  436.38
     21.2700	  496.00	  548.81	-1787.72	  436.12
     21.3700	  544.00	  548.58	-1739.49	  435.86
     21.4700	  537.00	  548.35	-1746.26	  435.60
     21.5700	  559.00	  548.12	-1724.02	  435.33
     21.6700	  530.00	  547.88	-1752.79	  435.06
     21.7700	  595.00	  547.65	-1687.56	  434.79
     21.8700	  586.00	  547.42	-1696.33	  434.52
     21.9700	  545.00	  547.19	-1737.10	  434.24
     22.0700	  557.00	  546.97	-1724.87	  433.97
     22.1700	  534.00	  546.74	-1747.65	  433.69
     22.2700	  546.00	  546.52	-1735.43	  433.41
     22.3700	  531.00	  546.31	-1750.21	  433.12
     22.4700	  557.00	  546.26	-1724.16	  432.84
     22.5700	  547.00	  546.05	-1733.96	  432.55
     22.6700	  561.00	  545.86	-1719.77	  432.27
     22.7700	  523.00	  545.63	-1757.54	  431.98
     22.8700	  532.00	  545.46	-1748.36	  431.69
     22.9700	  529.00	  545.30	-1751.21	  431.39
     23.0700	  544.00	  545.16	-1736.07	  431.10
     23.1700	  545.00	  545.04	-1734.95	  430.80
     23.2700	  545.00	  544.96	-1734.86	  430.50
     23.3700	  572.00	  544.91	-1707.81	  430.20
     23.4700	  578.00	  544.91	-1701.81	  429.90
     23.5700	  568.00	  544.97	-1711.88	  429.60
     23.6700	  539.00	  545.13	-1741.04	  429.30
     23.7700	  509.00	  545.44	-1771.34	  428.99
     23.8700	  556.00	  545.98	-1724.88	  428.68
     23.9700	  539.00	  546.91	-1742.82	  428.38
     24.0700	  567.00	  548.53	-1716.43	  428.07
     24.1700	  608.00	  551.24	-1678.14	  427.76
     24.2700	  572.00	  555.61	-1718.52	  427.44
     24.3700	  596.00	  562.25	-1701.16	  427.13
     24.4700	  580.00	  571.55	-1726.46	  426.82
     24.5700	  595.00	  583.35	-1723.26	  426.50
     24.6700	  628.00	  596.36	-1703.27	  426.19
     24.7700	  621.00	  607.45	-1721.36	  425.87
     24.8700	  661.00	  611.55	-1685.46	  425.55
     24.9700	  623.00	  604.57	-1716.48	  425.23
     25.0700	  641.00	  589.40	-1683.31	  424.91
     25.1700	  598.00	  573.45	-1710.35	  424.59
     25.2700	  615.00	  560.99	-1680.89	  424.26
     25.3700	  608.00	  552.70	-1679.61	  423.94
     25.4700	  537.00	  547.72	-1745.63	  423.62
     25.5700	  568.00	  544.84	-1711.75	  423.29
     25.6700	  558.00	  543.13	-1720.03	  422.97
     25.7700	  568.00	  542.01	-1708.92	  422.64
     25.8700	  554.00	  541.23	-1722.14	  422.31
     25.9700	  530.00	  540.66	-1745.57	  421.98
     26.0700	  579.00	  540.24	-1696.15	  421.65
     26.1700	  581.00	  539.95	-1693.86	  421.33
     26.2700	  610.00	  539.77	-1664.68	  421.00
     26.3700	  538.00	  539.70	-1736.60	  420.66
     26.4700	  492.00	  539.73	-1782.63	  420.33
     26.5700	  571.00	  539.87	-1703.78	  420.00
     26.6700	  532.00	  540.15	-1743.05	  419.67
     26.7700	  559.00	  540.57	-1716.48	  419.34
     26.8700	  564.00	  541.18	-1712.09	  419.00
     26.9700	  541.00	  542.01	-1735.92	  418.67
     27.0700	  594.00	  543.15	-1684.06	  418.33
     27.1700	  569.00	  544.70	-1710.61	  418.00
     27.2700	  566.00	  546.86	-1715.77	  417.66
     27.3700	  595.00	  550.01	-1689.92	  417.33
     27.4700	  539.00	  554.89	-1750.79	  416.99
     27.5700	  576.00	  562.81	-1721.72	  416.66
     27.6700	  581.00	  575.99	-1729.89	  416.32
     27.7700	  622.00	  597.54	-1710.45	  415.99
     27.8700	  557.00	  630.81	-1808.72	  415.65
     27.9700	  657.00	  677.53	-1755.44	  415.31
     28.0700	  726.00	  735.19	-1744.10	  414.97
     28.1700	  874.00	  794.32	-1655.23	  414.64
     28.2700	  933.00	  837.06	-1638.97	  414.30
     28.3700	  960.00	  842.91	-1617.81	  413.96
     28.4700	  873.00	  811.90	-1673.81	  413.63
     28.5700	  746.00	  774.22	-1763.12	  413.29
     28.6700	  715.00	  756.86	-1776.76	  412.95
     28.7700	  766.00	  765.83	-1734.73	  412.61
     28.8700	  789.00	  790.42	-1736.33	  412.28
     28.9700	  847.00	  808.68	-1696.58	  411.94
     29.0700	  797.00	  796.30	-1734.21	  411.60
     29.1700	  768.00	  748.18	-1715.09	  411.27
     29.2700	  730.00	  686.43	-1691.34	  410.93
     29.3700	  655.00	  632.72	-1712.62	  410.59
     29.4700	  561.00	  594.64	-1768.55	  410.25
     29.5700	  594.00	  570.93	-1711.84	  409.92
     29.6700	  617.00	  557.31	-1675.22	  409.58
     29.7700	  573.00	  549.59	-1711.50	  409.25
     29.8700	  550.00	  545.02	-1729.93	  408.91
     29.9700	  638.00	  542.18	-1639.09	  408.58
     30.0700	  582.00	  540.51	-1693.41	  408.24
     30.1700	  556.00	  539.91	-1718.82	  407.91
     30.2700	  588.00	  540.65	-1687.56	  407.57
     30.3700	  559.00	  543.39	-1719.29	  407.24
     30.4700	  585.00	  549.14	-1699.05	  406.90
     30.5700	  552.00	  559.14	-1742.04	  406.57
     30.6700	  583.00	  574.07	-1725.97	  406.24
     30.7700	  630.00	  593.04	-1697.95	  405.90
     30.8700	  586.00	  612.59	-1761.49	  405.57
     30.9700	  583.00	  626.24	-1778.15	  405.24
     31.0700	  606.00	  626.22	-1755.13	  404.91
     31.1700	  647.00	  610.47	-1698.38	  404.58
     31.2700	  564.00	  587.15	-1758.06	  404.25
     31.3700	  544.00	  565.46	-1756.37	  403.92
     31.4700	  543.00	  549.33	-1741.23	  403.59
     31.5700	  556.00	  538.89	-1717.80	  403.26
     31.6700	  536.00	  532.73	-1731.64	  402.94
     31.7700	  548.00	  529.22	-1716.13	  402.61
     31.8700	  582.00	  527.14	-1680.05	  402.28
     31.9700	  590.00	  525.83	-1670.74	  401.96
     32.0700	  520.00	  524.96	-1739.86	  401.63
     32.1700	  525.00	  524.38	-1734.29	  401.31
     32.2700	  571.00	  524.05	-1687.96	  400.99
     32.3700	  545.00	  523.93	-1713.84	  400.66
     32.4700	  534.00	  524.03	-1724.94	  400.34
     32.5700	  537.00	  524.36	-1722.26	  400.02
     32.6700	  577.00	  524.94	-1682.85	  399.70
     32.7700	  539.00	  525.83	-1721.74	  399.38
     32.8700	  498.00	  527.11	-1764.02	  399.06
     32.9700	  543.00	  528.90	-1720.81	  398.75
     33.0700	  543.00	  531.42	-1723.33	  398.43
     33.1700	  561.00	  535.09	-1709.00	  398.11
     33.2700	  546.00	  540.75	-1729.66	  397.80
     33.3700	  520.00	  550.05	-1764.96	  397.48
     33.4700	  557.00	  565.92	-1743.82	  397.17
     33.5700	  657.00	  592.78	-1670.69	  396.86
     33.6700	  606.00	  636.10	-1765.00	  396.55
     33.7700	  684.00	  699.74	-1750.65	  396.24
     33.8700	  768.00	  781.54	-1748.45	  395.93
     33.9700	  917.00	  868.75	-1686.66	  395.62
     34.0700	 1063.00	  936.12	-1608.03	  395.31
     34.1700	 1062.00	  951.64	-1624.55	  395.01
     34.2700	  954.00	  901.09	-1681.99	  394.70
     34.3700	  885.00	  810.40	-1660.30	  394.40
     34.4700	  685.00	  718.00	-1767.91	  394.09
     34.5700	  610.00	  644.61	-1769.52	  393.79
     34.6700	  610.00	  594.47	-1719.38	  393.49
     34.7700	  571.00	  563.65	-1727.56	  393.19
     34.8700	  559.00	  545.77	-1721.68	  392.89
     34.9700	  565.00	  535.32	-1705.22	  392.59
     35.0700	  525.00	  528.76	-1738.66	  392.30
     35.1700	  498.00	  524.22	-1761.12	  392.00
     35.2700	  561.00	  520.81	-1694.72	  391.71
     35.3700	  485.00	  518.12	-1768.03	  391.42
     35.4700	  531.00	  515.93	-1719.84	  391.13
     35.5700	  506.00	  514.11	-1743.02	  390.83
     35.6700	  512.00	  513.05	-1735.96	  390.55
     35.7700	  488.00	  511.71	-1758.61	  390.26
     35.8700	  497.00	  510.58	-1748.49	  389.97
     35.9700	  478.00	  509.59	-1766.49	  389.69
     36.0700	  501.00	  508.71	-1742.61	  389.40
     36.1700	  520.00	  507.92	-1722.83	  389.12
     36.2700	  504.00	  507.22	-1738.13	  388.84
     36.3700	  512.00	  506.60	-1729.50	  388.56
     36.4700	  493.00	  506.03	-1747.94	  388.28
     36.5700	  511.00	  505.54	-1729.44	  388.00
     36.6700	  496.00	  505.10	-1744.01	  387.73
     36.7700	  477.00	  504.74	-1762.65	  387.45
     36.8700	  459.00	  504.47	-1780.38	  387.18
     36.9700	  468.00	  504.35	-1771.25	  386.91
     37.0700	  481.00	  504.45	-1758.36	  386.64
     37.1700	  471.00	  504.94	-1768.85	  386.37
     37.2700	  467.00	  506.02	-1773.92	  386.10
     37.3700	  503.00	  507.88	-1739.78	  385.83
     37.4700	  451.00	  510.60	-1794.50	  385.57
     37.5700	  531.00	  513.93	-1717.84	  385.30
     37.6700	  538.00	  517.17	-1714.08	  385.04
     37.7700	  514.00	  519.34	-1740.25	  384.78
     37.8700	  521.00	  518.93	-1732.84	  384.52
     37.9700	  507.00	  516.12	-1744.03	  384.26
     38.0700	  523.00	  512.15	-1724.05	  384.01
     38.1700	  485.00	  508.23	-1758.14	  383.75
     38.2700	  498.00	  504.97	-1741.87	  383.50
     38.3700	  457.00	  502.51	-1780.41	  383.25
     38.4700	  504.00	  500.78	-1731.69	  383.00
     38.5700	  474.00	  499.60	-1760.51	  382.75
     38.6700	  491.00	  498.78	-1742.69	  382.50
     38.7700	  520.00	  498.17	-1713.08	  382.26
     38.8700	  507.00	  497.69	-1725.60	  382.01
     38.9700	  472.00	  497.28	-1760.19	  381.77
     39.0700	  516.00	  496.92	-1715.83	  381.53
     39.1700	  492.00	  496.59	-1739.50	  381.29
     39.2700	  490.00	  496.19	-1741.10	  381.05
     39.3700	  483.00	  495.91	-1747.82	  380.82
     39.4700	  518.00	  495.65	-1712.55	  380.58
     39.5700	  483.00	  495.40	-1747.31	  380.35
     39.6700	  481.00	  495.17	-1749.07	  380.12
     39.7700	  485.00	  494.95	-1744.86	  379.89
     39.8700	  535.00	  494.74	-1694.65	  379.66
     39.9700	  496.00	  494.55	-1733.45	  379.43
     40.0700	  497.00	  494.36	-1732.27	  379.21
     40.1700	  463.00	  494.10	-1766.01	  378.98
     40.2700	  516.00	  493.95	-1712.86	  378.76
     40.3700	  484.00	  493.81	-1744.72	  378.54
     40.4700	  507.00	  494.20	-1722.10	  378.32
     40.5700	  479.00	  494.10	-1750.00	  378.11
     40.6700	  511.00	  494.02	-1717.93	  377.89
     40.7700	  462.00	  493.96	-1766.87	  377.68
     40.8700	  538.00	  493.93	-1690.84	  377.47
     40.9700	  486.00	  493.94	-1742.84	  377.26
     41.0700	  516.00	  493.98	-1712.88	  377.05
     41.1700	  512.00	  494.06	-1716.97	  376.84
     41.2700	  468.00	  494.20	-1761.11	  376.64
     41.3700	  485.00	  494.41	-1744.32	  376.44
     41.4700	  470.00	  494.71	-1759.62	  376.23
     41.5700	  504.00	  495.13	-1726.04	  376.03
     41.6700	  530.00	  495.72	-1700.63	  375.84
     41.7700	  498.00	  496.59	-1733.50	  375.64
     41.8700	  514.00	  497.93	-1718.84	  375.44
     41.9700	  488.00	  500.17	-1747.08	  375.25
     42.0700	  498.00	  503.88	-1740.78	  375.06
     42.1700	  481.00	  510.15	-1764.06	  374.87
     42.2700	  530.00	  520.20	-1725.11	  374.68
     42.3700	  520.00	  534.91	-1749.82	  374.50
     42.4700	  548.00	  554.42	-1741.33	  374.31
     42.5700	  574.00	  576.94	-1737.85	  374.13
     42.6700	  528.00	  597.87	-1804.78	  373.95
     42.7700	  580.00	  610.11	-1765.02	  373.77
     42.8700	  589.00	  607.70	-1753.61	  373.59
     42.9700	  562.00	  591.59	-1764.50	  373.42
     43.0700	  560.00	  568.66	-1743.56	  373.24
     43.1700	  525.00	  546.18	-1756.09	  373.07
     43.2700	  502.00	  527.86	-1760.77	  372.90
     43.3700	  516.00	  514.68	-1733.59	  372.73
     43.4700	  479.00	  506.06	-1761.97	  372.57
     43.5700	  477.00	  500.77	-1758.68	  372.40
     43.6700	  503.00	  497.59	-1729.50	  372.24
     43.7700	  487.00	  495.63	-1743.54	  372.08
     43.8700	  480.00	  494.33	-1749.24	  371.92
     43.9700	  533.00	  493.40	-1695.31	  371.76
     44.0700	  501.00	  492.69	-1726.60	  371.60
     44.1700	  472.00	  492.13	-1755.04	  371.45
     44.2700	  481.00	  491.68	-1745.59	  371.29
     44.3700	  496.00	  491.52	-1730.43	  371.14
     44.4700	  495.00	  491.23	-1731.14	  370.99
     44.5700	  508.00	  491.00	-1717.90	  370.85
     44.6700	  516.00	  490.81	-1709.72	  370.70
     44.7700	  479.00	  490.66	-1746.57	  370.56
     44.8700	  494.00	  490.56	-1731.46	  370.42
     44.9700	  447.00	  490.48	-1778.39	  370.28
     45.0700	  497.00	  490.44	-1728.35	  370.14
     45.1700	  467.00	  490.43	-1758.34	  370.00
     45.2700	  548.00	  490.44	-1677.35	  369.87
     45.3700	  506.00	  490.49	-1719.40	  369.73
     45.4700	  496.00	  490.56	-1729.47	  369.60
     45.5700	  518.00	  490.67	-1707.58	  369.47
     45.6700	  489.00	  490.80	-1736.71	  369.34
     45.7700	  472.00	  490.97	-1753.88	  369.22
     45.8700	  490.00	  491.23	-1736.14	  369.09
     45.9700	  499.00	  491.48	-1727.38	  368.97
     46.0700	  499.00	  491.64	-1727.55	  368.85
     46.1700	  467.00	  491.98	-1759.88	  368.73
     46.2700	  498.00	  492.38	-1729.28	  368.61
     46.3700	  460.00	  492.82	-1767.73	  368.50
     46.4700	  534.00	  493.34	-1694.25	  368.38
     46.5700	  505.00	  493.95	-1723.85	  368.27
     46.6700	  513.00	  494.66	-1716.56	  368.16
     46.7700	  456.00	  495.50	-1774.41	  368.05
     46.8700	  468.00	  496.54	-1763.45	  367.95
     46.9700	  461.00	  497.87	-1771.78	  367.84
     47.0700	  487.00	  499.69	-1747.60	  367.74
     47.1700	  471.00	  502.33	-1766.24	  367.64
     47.2700	  534.00	  506.34	-1707.25	  367.54
     47.3700	  532.00	  512.42	-1715.33	  367.44
     47.4700	  504.00	  521.34	-1752.25	  367.34
     47.5700	  571.00	  533.60	-1697.51	  367.25
     47.6700	  563.00	  549.01	-1720.92	  367.16
     47.7700	  583.00	  566.16	-1718.07	  367.07
     47.8700	  580.00	  581.97	-1736.88	  366.98
     47.9700	  563.00	  592.00	-1763.91	  366.89
     48.0700	  570.00	  592.56	-1757.47	  366.80
     48.1700	  563.00	  584.05	-1755.96	  366.72
     48.2700	  567.00	  570.74	-1738.65	  366.64
     48.3700	  559.00	  557.61	-1733.52	  366.56
     48.4700	  529.00	  546.62	-1752.53	  366.48
     48.5700	  523.00	  539.35	-1751.26	  366.40
     48.6700	  510.00	  535.88	-1760.79	  366.33
     48.7700	  509.00	  535.74	-1761.64	  366.25
     48.8700	  565.00	  538.35	-1708.25	  366.18
     48.9700	  502.00	  543.33	-1776.23	  366.11
     49.0700	  538.00	  550.70	-1747.61	  366.04
     49.1700	  558.00	  561.11	-1738.02	  365.98
     49.2700	  552.00	  576.26	-1759.17	  365.91
     49.3700	  588.00	  599.62	-1746.53	  365.85
     49.4700	  599.00	  637.57	-1773.48	  365.79
     49.5700	  647.00	  700.31	-1788.21	  365.72
     49.6700	  670.00	  801.74	-1866.64	  365.67
     49.7700	  833.00	  956.86	-1858.77	  365.61
     49.8700	 1099.00	 1175.97	-1811.88	  365.55
     49.9700	 1430.00	 1456.00	-1760.91	  365.50
     50.0700	 1773.00	 1771.11	-1733.02	  365.45
     50.1700	 2096.00	 2064.76	-1703.66	  365.40
     50.2700	 2413.00	 2253.02	-1574.93	  365.35
     50.3700	 2490.00	 2260.61	-1505.52	  365.30
     50.4700	 2116.00	 2082.60	-1701.51	  365.26
     50.5700	 1851.00	 1792.51	-1676.42	  365.22
     50.6700	 1321.00	 1478.98	-1892.88	  365.17
     50.7700	 1066.00	 1201.36	-1870.26	  365.13
     50.8700	  856.00	  986.81	-1865.72	  365.09
     50.9700	  750.00	  838.00	-1822.91	  365.06
     51.0700	  660.00	  744.06	-1818.97	  365.02
     51.1700	  674.00	  688.05	-1748.95	  364.99
     51.2700	  632.00	  653.56	-1756.47	  364.96
     51.3700	  643.00	  628.84	-1720.74	  364.93
     51.4700	  606.00	  608.13	-1737.03	  364.90
     51.5700	  621.00	  589.99	-1703.90	  364.87
     51.6700	  573.00	  574.59	-1736.50	  364.84
     51.7700	  576.00	  562.19	-1721.10	  364.82
     51.8700	  558.00	  552.79	-1729.70	  364.80
     51.9700	  516.00	  546.15	-1765.05	  364.78
     52.0700	  528.00	  541.84	-1748.74	  364.76
     52.1700	  537.00	  539.44	-1737.35	  364.74
     52.2700	  552.00	  538.65	-1721.56	  364.72
     52.3700	  554.00	  539.35	-1720.26	  364.71
     52.4700	  542.00	  541.73	-1734.63	  364.69
     52.5700	  508.00	  546.40	-1773.30	  364.68
     52.6700	  602.00	  554.63	-1687.54	  364.67
     52.7700	  572.00	  568.64	-1731.55	  364.66
     52.8700	  609.00	  591.74	-1717.65	  364.65
     52.9700	  671.00	  628.18	-1692.09	  364.65
     53.0700	  687.00	  682.33	-1730.23	  364.64
     53.1700	  746.00	  757.08	-1745.98	  364.64
     53.2700	  915.00	  851.68	-1671.59	  364.64
     53.3700	  948.00	  959.34	-1746.25	  364.64
     53.4700	 1164.00	 1064.85	-1635.75	  364.64
     53.5700	 1168.00	 1144.11	-1711.02	  364.64
     53.6700	 1171.00	 1171.04	-1734.94	  364.65
     53.7700	 1148.00	 1134.57	-1721.48	  364.65
     53.8700	 1016.00	 1048.95	-1767.85	  364.66
     53.9700	  915.00	  941.56	-1761.47	  364.67
     54.0700	  796.00	  835.58	-1774.49	  364.68
     54.1700	  702.00	  744.61	-1777.52	  364.69
     54.2700	  634.00	  674.16	-1775.06	  364.70
     54.3700	  621.00	  624.10	-1738.00	  364.72
     54.4700	  574.00	  591.09	-1752.00	  364.73
     54.5700	  619.00	  570.66	-1686.57	  364.75
     54.6700	  583.00	  558.65	-1710.55	  364.77
     54.7700	  552.00	  551.91	-1734.82	  364.79
     54.8700	  564.00	  548.42	-1719.33	  364.81
     54.9700	  574.00	  547.00	-1707.91	  364.83
     55.0700	  560.00	  547.05	-1721.96	  364.86
     55.1700	  520.00	  548.29	-1763.20	  364.88
     55.2700	  581.00	  550.65	-1704.56	  364.91
     55.3700	  552.00	  554.16	-1737.06	  364.93
     55.4700	  548.00	  558.95	-1745.86	  364.96
     55.5700	  535.00	  565.31	-1765.21	  364.99
     55.6700	  591.00	  573.76	-1717.67	  365.03
     55.7700	  595.00	  585.34	-1725.24	  365.06
     55.8700	  600.00	  601.94	-1736.85	  365.09
     55.9700	  642.00	  627.02	-1719.93	  365.13
     56.0700	  653.00	  666.32	-1748.23	  365.16
     56.1700	  698.00	  728.46	-1765.36	  365.20
     56.2700	  795.00	  824.70	-1764.60	  365.24
     56.3700	  894.00	  967.45	-1808.36	  365.28
     56.4700	 1114.00	 1166.41	-1787.32	  365.32
     56.5700	 1334.00	 1423.57	-1824.48	  365.37
     56.6700	 1695.00	 1727.26	-1767.17	  365.41
     56.7700	 1980.00	 2046.54	-1801.45	  365.46
     56.8700	 2346.00	 2327.26	-1716.17	  365.50
     56.9700	 2489.00	 2497.94	-1743.85	  365.55
     57.0700	 2451.00	 2500.67	-1784.58	  365.60
     57.1700	 2277.00	 2334.23	-1792.13	  365.65
     57.2700	 1980.00	 2056.02	-1810.93	  365.70
     57.3700	 1724.00	 1738.70	-1749.60	  365.75
     57.4700	 1416.00	 1437.21	-1756.12	  365.81
     57.5700	 1192.00	 1182.80	-1725.71	  365.86
     57.6700	  973.00	  987.43	-1749.33	  365.92
     57.7700	  807.00	  849.57	-1777.48	  365.97
     57.8700	  776.00	  760.17	-1719.08	  366.03
     57.9700	  749.00	  707.96	-1693.86	  366.09
     58.0700	  706.00	  683.13	-1712.04	  366.15
     58.1700	  720.00	  679.04	-1693.95	  366.21
     58.2700	  708.00	  692.15	-1719.05	  366.27
     58.3700	  752.00	  721.03	-1703.94	  366.34
     58.4700	  789.00	  765.02	-1710.93	  366.40
     58.5700	  880.00	  822.68	-1677.59	  366.46
     58.6700	  922.00	  890.51	-1703.42	  366.53
     58.7700	  965.00	  962.13	-1732.04	  366.60
     58.8700	 1083.00	 1029.65	-1681.56	  366.67
     58.9700	 1259.00	 1087.10	-1563.01	  366.74
     59.0700	 1272.00	 1131.54	-1594.45	  366.81
     59.1700	 1320.00	 1159.80	-1574.71	  366.88
     59.2700	 1361.00	 1168.34	-1542.24	  366.95
     59.3700	 1255.00	 1158.87	-1638.78	  367.02
     59.4700	 1236.00	 1140.75	-1639.65	  367.10
     59.5700	 1230.00	 1125.13	-1630.04	  367.17
     59.6700	 1192.00	 1119.65	-1662.56	  367.25
     59.7700	 1147.00	 1129.09	-1717.00	  367.32
     59.8700	 1200.00	 1158.39	-1693.30	  367.40
     59.9700	 1243.00	 1211.59	-1703.49	  367.48
     60.0700	 1320.00	 1286.90	-1701.81	  367.56
     60.1700	 1432.00	 1372.88	-1675.79	  367.64
     60.2700	 1459.00	 1447.71	-1723.61	  367.72
     60.3700	 1584.00	 1483.27	-1634.18	  367.80
     60.4700	 1496.00	 1458.02	-1696.93	  367.89
     60.5700	 1488.00	 1372.05	-1618.96	  367.97
     60.6700	 1275.00	 1246.26	-1706.17	  368.05
     60.7700	 1115.00	 1107.06	-1726.97	  368.14
     60.8700	 1004.00	  975.12	-1706.03	  368.22
     60.9700	  823.00	  863.12	-1775.03	  368.31
     61.0700	  781.00	  776.92	-1730.83	  368.40
     61.1700	  686.00	  717.56	-1766.46	  368.49
     61.2700	  676.00	  683.45	-1742.36	  368.58
     61.3700	  664.00	  672.46	-1743.37	  368.67
     61.4700	  642.00	  683.50	-1776.41	  368.76
     61.5700	  694.00	  716.96	-1757.87	  368.85
     61.6700	  740.00	  774.12	-1769.03	  368.94
     61.7700	  766.00	  855.71	-1824.61	  369.03
     61.8700	  893.00	  959.86	-1801.77	  369.13
     61.9700	 1014.00	 1080.30	-1801.20	  369.22
     62.0700	 1184.00	 1204.56	-1755.47	  369.32
     62.1700	 1311.00	 1313.12	-1737.03	  369.41
     62.2700	 1296.00	 1381.47	-1820.38	  369.51
     62.3700	 1261.00	 1389.17	-1863.08	  369.60
     62.4700	 1259.00	 1333.05	-1808.96	  369.70
     62.5700	 1202.00	 1229.75	-1762.65	  369.80
     62.6700	 1086.00	 1103.96	-1752.86	  369.90
     62.7700	  923.00	  976.96	-1788.86	  370.00
     62.8700	  840.00	  862.84	-1757.75	  370.10
     62.9700	  785.00	  768.95	-1718.86	  370.20
     63.0700	  685.00	  697.30	-1747.20	  370.30
     63.1700	  609.00	  646.20	-1772.11	  370.40
     63.2700	  615.00	  611.91	-1731.82	  370.50
     63.3700	  642.00	  590.31	-1683.22	  370.60
     63.4700	  594.00	  577.75	-1718.65	  370.71
     63.5700	  574.00	  571.70	-1732.61	  370.81
     63.6700	  574.00	  570.85	-1731.76	  370.91
     63.7700	  608.00	  574.97	-1701.88	  371.02
     63.8700	  584.00	  584.74	-1735.64	  371.12
     63.9700	  652.00	  601.40	-1684.30	  371.23
     64.0700	  649.00	  626.42	-1712.33	  371.33
     64.1700	  708.00	  660.99	-1687.90	  371.44
     64.2700	  810.00	  705.43	-1630.33	  371.55
     64.3700	  792.00	  758.36	-1701.27	  371.65
     64.4700	  875.00	  816.41	-1676.31	  371.76
     64.5700	  859.00	  873.52	-1749.43	  371.87
     64.6700	  951.00	  921.30	-1705.21	  371.98
     64.7700	 1019.00	  951.04	-1666.95	  372.09
     64.8700	  999.00	  957.28	-1693.19	  372.19
     64.9700	  951.00	  940.00	-1723.91	  372.30
     65.0700	  985.00	  904.02	-1653.93	  372.41
     65.1700	  844.00	  856.69	-1747.60	  372.52
     65.2700	  790.00	  806.54	-1751.45	  372.63
     65.3700	  738.00	  759.00	-1755.91	  372.74
     65.4700	  716.00	  717.08	-1735.99	  372.86
     65.5700	  665.00	  681.43	-1751.34	  372.97
     65.6700	  636.00	  651.69	-1750.60	  373.08
     65.7700	  636.00	  627.34	-1726.25	  373.19
     65.8700	  593.00	  607.94	-1749.85	  373.30
     65.9700	  573.00	  593.00	-1754.91	  373.41
     66.0700	  554.00	  581.97	-1762.88	  373.53
     66.1700	  586.00	  574.28	-1723.19	  373.64
     66.2700	  561.00	  569.47	-1743.37	  373.75
     66.3700	  576.00	  567.29	-1726.20	  373.86
     66.4700	  551.00	  567.30	-1751.21	  373.98
     66.5700	  557.00	  569.27	-1747.18	  374.09
     66.6700	  555.00	  573.38	-1753.29	  374.20
     66.7700	  570.00	  579.97	-1744.88	  374.32
     66.8700	  597.00	  589.93	-1727.84	  374.43
     66.9700	  614.00	  604.86	-1725.77	  374.54
     67.0700	  642.00	  627.41	-1720.32	  374.66
     67.1700	  617.00	  661.63	-1779.54	  374.77
     67.2700	  693.00	  712.78	-1754.69	  374.89
     67.3700	  713.00	  787.54	-1809.45	  375.00
     67.4700	  873.00	  892.85	-1754.76	  375.12
     67.5700	 1033.00	 1034.53	-1736.44	  375.23
     67.6700	 1207.00	 1215.27	-1743.18	  375.34
     67.7700	 1451.00	 1432.24	-1716.15	  375.46
     67.8700	 1639.00	 1675.05	-1770.96	  375.57
     67.9700	 1931.00	 1923.98	-1727.89	  375.69
     68.0700	 2275.00	 2149.09	-1609.00	  375.80
     68.1700	 2325.00	 2312.17	-1722.07	  375.92
     68.2700	 2351.00	 2376.56	-1760.47	  376.03
     68.3700	 2338.00	 2325.26	-1722.16	  376.14
     68.4700	 2149.00	 2172.02	-1757.93	  376.26
     68.5700	 1931.00	 1952.17	-1756.07	  376.37
     68.6700	 1724.00	 1704.51	-1715.42	  376.49
     68.7700	 1424.00	 1460.24	-1771.15	  376.60
     68.8700	 1236.00	 1240.12	-1739.03	  376.71
     68.9700	 1022.00	 1055.56	-1768.46	  376.83
     69.0700	  909.00	  910.01	-1735.92	  376.94
     69.1700	  766.00	  801.33	-1770.24	  377.05
     69.2700	  732.00	  723.97	-1726.88	  377.17
     69.3700	  634.00	  670.99	-1771.90	  377.28
     69.4700	  653.00	  635.67	-1717.58	  377.39
     69.5700	  582.00	  612.43	-1765.34	  377.51
     69.6700	  598.00	  596.91	-1733.82	  377.62
     69.7700	  585.00	  586.62	-1736.53	  377.73
     69.8700	  586.00	  579.59	-1728.49	  377.84
     69.9700	  568.00	  574.72	-1741.63	  377.96
     70.0700	  546.00	  571.41	-1760.32	  378.07
     70.1700	  580.00	  569.34	-1724.25	  378.18
     70.2700	  618.00	  568.35	-1685.26	  378.29
     70.3700	  522.00	  568.45	-1781.35	  378.40
     70.4700	  578.00	  569.67	-1726.57	  378.51
     70.5700	  536.00	  572.28	-1771.18	  378.62
     70.6700	  579.00	  576.75	-1732.65	  378.73
     70.7700	  594.00	  583.87	-1724.78	  378.84
     70.8700	  570.00	  595.87	-1760.78	  378.95
     70.9700	  654.00	  612.91	-1693.82	  379.06
     71.0700	  674.00	  638.67	-1699.58	  379.17
     71.1700	  660.00	  676.71	-1751.62	  379.28
     71.2700	  727.00	  731.21	-1739.12	  379.39
     71.3700	  789.00	  806.37	-1752.28	  379.50
     71.4700	  897.00	  905.56	-1743.47	  379.60
     71.5700	 1025.00	 1030.17	-1740.08	  379.71
     71.6700	 1195.00	 1178.42	-1718.33	  379.82
     71.7700	 1334.00	 1344.25	-1745.16	  379.92
     71.8700	 1484.00	 1516.36	-1767.26	  380.03
     71.9700	 1615.00	 1677.70	-1797.61	  380.13
     72.0700	 1759.00	 1806.08	-1781.99	  380.24
     72.1700	 1820.00	 1878.07	-1792.97	  380.34
     72.2700	 1882.00	 1877.61	-1730.52	  380.45
     72.3700	 1752.00	 1804.79	-1787.70	  380.55
     72.4700	 1655.00	 1675.78	-1755.68	  380.65
     72.5700	 1455.00	 1514.09	-1794.00	  380.76
     72.6700	 1362.00	 1341.84	-1714.75	  380.86
     72.7700	 1178.00	 1175.90	-1732.81	  380.96
     72.8700	 1076.00	 1027.43	-1686.34	  381.06
     72.9700	  948.00	  902.38	-1689.29	  381.16
     73.0700	  844.00	  802.46	-1693.37	  381.26
     73.1700	  775.00	  726.22	-1686.13	  381.36
     73.2700	  760.00	  670.31	-1645.22	  381.46
     73.3700	  690.00	  630.61	-1675.52	  381.55
     73.4700	  615.00	  603.04	-1722.95	  381.65
     73.5700	  622.00	  584.09	-1696.99	  381.75
     73.6700	  603.00	  571.00	-1702.91	  381.85
     73.7700	  605.00	  561.35	-1691.26	  381.94
     73.8700	  587.00	  554.84	-1702.74	  382.04
     73.9700	  610.00	  550.13	-1675.03	  382.13
     74.0700	  514.00	  546.71	-1767.62	  382.22
     74.1700	  598.00	  544.28	-1681.19	  382.32
     74.2700	  614.00	  542.60	-1663.51	  382.41
     74.3700	  597.00	  541.51	-1679.41	  382.50
     74.4700	  603.00	  540.82	-1672.72	  382.59
     74.5700	  625.00	  540.35	-1650.25	  382.68
     74.6700	  624.00	  539.89	-1650.80	  382.77
     74.7700	  629.00	  539.26	-1645.17	  382.86
     74.8700	  648.00	  538.33	-1625.24	  382.95
     74.9700	  623.00	  537.10	-1649.01	  383.03
     75.0700	  609.00	  535.70	-1661.61	  383.12
     75.1700	  594.00	  534.37	-1675.28	  383.21
     75.2700	  560.00	  533.37	-1708.28	  383.29
     75.3700	  559.00	  533.01	-1708.92	  383.37
     75.4700	  561.00	  533.61	-1707.52	  383.46
     75.5700	  567.00	  535.55	-1703.45	  383.54
     75.6700	  568.00	  539.23	-1706.14	  383.62
     75.7700	  574.00	  545.09	-1706.00	  383.70
     75.8700	  598.00	  553.47	-1690.38	  383.78
     75.9700	  592.00	  564.76	-1707.67	  383.86
     76.0700	  580.00	  579.00	-1733.90	  383.94
     76.1700	  616.00	  595.94	-1714.85	  384.02
     76.2700	  640.00	  614.96	-1709.87	  384.09
     76.3700	  651.00	  634.94	-1718.85	  384.17
     76.4700	  633.00	  654.16	-1756.07	  384.24
     76.5700	  635.00	  670.66	-1770.56	  384.32
     76.6700	  683.00	  681.93	-1733.84	  384.39
     76.7700	  720.00	  685.92	-1700.82	  384.46
     76.8700	  706.00	  681.75	-1710.66	  384.53
     76.9700	  667.00	  670.25	-1738.16	  384.60
     77.0700	  645.00	  653.43	-1743.34	  384.67
     77.1700	  637.00	  633.69	-1731.60	  384.74
     77.2700	  577.00	  613.13	-1771.04	  384.81
     77.3700	  547.00	  593.50	-1781.40	  384.87
     77.4700	  613.00	  575.84	-1697.75	  384.94
     77.5700	  578.00	  560.78	-1717.69	  385.00
     77.6700	  559.00	  548.52	-1724.43	  385.07
     77.7700	  527.00	  538.96	-1746.87	  385.13
     77.8700	  550.00	  531.79	-1716.69	  385.19
     77.9700	  506.00	  526.37	-1755.28	  385.25
     78.0700	  516.00	  522.69	-1741.60	  385.31
     78.1700	  510.00	  520.14	-1745.04	  385.37
     78.2700	  474.00	  518.39	-1779.30	  385.42
     78.3700	  487.00	  517.20	-1765.10	  385.48
     78.4700	  510.00	  516.38	-1741.29	  385.54
     78.5700	  497.00	  515.84	-1753.75	  385.59
     78.6700	  491.00	  515.49	-1759.40	  385.64
     78.7700	  502.00	  515.30	-1748.21	  385.69
     78.8700	  458.00	  515.26	-1792.17	  385.74
     78.9700	  508.00	  515.36	-1742.27	  385.79
     79.0700	  486.00	  515.63	-1764.54	  385.84
     79.1700	  531.00	  516.08	-1719.99	  385.89
     79.2700	  542.00	  516.75	-1709.66	  385.94
     79.3700	  482.00	  517.68	-1770.58	  385.98
     79.4700	  522.00	  518.90	-1731.81	  386.02
     79.5700	  524.00	  520.46	-1731.37	  386.07
     79.6700	  542.00	  522.42	-1715.33	  386.11
     79.7700	  523.00	  524.83	-1736.74	  386.15
     79.8700	  534.00	  527.77	-1728.67	  386.19
     79.9700	  495.00	  531.31	-1771.22	  386.23
     80.0700	  546.00	  535.58	-1724.48	  386.26
     80.1700	  472.00	  540.67	-1803.58	  386.30
     80.2700	  537.00	  546.77	-1744.68	  386.33
     80.3700	  553.00	  554.07	-1735.97	  386.36
     80.4700	  573.00	  562.61	-1724.52	  386.40
     80.5700	  590.00	  573.05	-1717.95	  386.43
     80.6700	  545.00	  585.29	-1775.19	  386.46
     80.7700	  592.00	  599.26	-1742.17	  386.49
     80.8700	  583.00	  614.66	-1766.57	  386.51
     80.9700	  654.00	  630.87	-1711.77	  386.54
     81.0700	  648.00	  647.01	-1733.92	  386.56
     81.1700	  689.00	  662.12	-1708.02	  386.59
     81.2700	  724.00	  675.26	-1686.17	  386.61
     81.3700	  711.00	  685.72	-1709.63	  386.63
     81.4700	  715.00	  692.99	-1712.89	  386.65
     81.5700	  687.00	  696.71	-1744.61	  386.67
     81.6700	  719.00	  696.74	-1712.64	  386.68
     81.7700	  743.00	  693.07	-1684.97	  386.70
     81.8700	  694.00	  685.79	-1726.70	  386.71
     81.9700	  710.00	  675.20	-1700.11	  386.72
     82.0700	  643.00	  661.90	-1753.81	  386.74
     82.1700	  641.00	  646.82	-1740.72	  386.75
     82.2700	  635.00	  630.98	-1730.89	  386.75
     82.3700	  693.00	  615.29	-1657.19	  386.76
     82.4700	  655.00	  600.37	-1680.28	  386.77
     82.5700	  628.00	  586.65	-1693.55	  386.77
     82.6700	  603.00	  574.41	-1706.31	  386.78
     82.7700	  561.00	  563.85	-1737.75	  386.78
     82.8700	  578.00	  555.11	-1712.01	  386.78
     82.9700	  528.00	  548.26	-1755.16	  386.78
     83.0700	  498.00	  543.29	-1780.20	  386.78
     83.1700	  498.00	  540.16	-1777.07	  386.77
     83.2700	  556.00	  538.76	-1717.67	  386.77
     83.3700	  494.00	  538.97	-1779.88	  386.76
     83.4700	  538.00	  540.62	-1737.52	  386.75
     83.5700	  492.00	  543.47	-1786.38	  386.74
     83.6700	  522.00	  547.25	-1760.16	  386.73
     83.7700	  538.00	  551.53	-1748.44	  386.72
     83.8700	  576.00	  556.01	-1714.92	  386.71
     83.9700	  571.00	  560.07	-1723.97	  386.69
     84.0700	  531.00	  563.23	-1767.14	  386.68
     84.1700	  551.00	  564.95	-1748.86	  386.66
     84.2700	  509.00	  564.87	-1790.78	  386.64
     84.3700	  583.00	  562.94	-1714.85	  386.62
     84.4700	  534.00	  559.41	-1760.32	  386.60
     84.5700	  579.00	  554.72	-1710.63	  386.58
     84.6700	  544.00	  549.37	-1740.28	  386.55
     84.7700	  519.00	  543.82	-1759.72	  386.53
     84.8700	  526.00	  538.42	-1747.32	  386.50
     84.9700	  473.00	  533.43	-1795.34	  386.47
     85.0700	  496.00	  529.07	-1767.97	  386.44
     85.1700	  491.00	  525.39	-1769.30	  386.41
     85.2700	  514.00	  522.43	-1743.34	  386.37
     85.3700	  559.00	  520.15	-1696.06	  386.34
     85.4700	  537.00	  518.48	-1716.39	  386.30
     85.5700	  485.00	  517.34	-1767.25	  386.26
     85.6700	  501.00	  516.66	-1750.57	  386.22
     85.7700	  507.00	  516.39	-1744.30	  386.18
     85.8700	  526.00	  516.48	-1725.39	  386.14
     85.9700	  467.00	  516.96	-1784.87	  386.10
     86.0700	  526.00	  517.86	-1726.76	  386.05
     86.1700	  539.00	  519.25	-1715.16	  386.00
     86.2700	  583.00	  521.27	-1673.18	  385.96
     86.3700	  523.00	  524.05	-1735.96	  385.91
     86.4700	  549.00	  527.75	-1713.66	  385.85
     86.5700	  546.00	  532.54	-1721.44	  385.80
     86.6700	  536.00	  538.54	-1737.45	  385.75
     86.7700	  534.00	  545.85	-1746.76	  385.69
     86.8700	  568.00	  554.46	-1721.36	  385.63
     86.9700	  565.00	  564.25	-1734.15	  385.57
     87.0700	  578.00	  574.97	-1731.88	  385.51
     87.1700	  560.00	  586.23	-1761.13	  385.45
     87.2700	  611.00	  597.44	-1721.35	  385.39
     87.3700	  642.00	  607.90	-1700.81	  385.32
     87.4700	  592.00	  616.75	-1759.65	  385.26
     87.5700	  607.00	  623.09	-1751.00	  385.19
     87.6700	  660.00	  626.21	-1701.11	  385.12
     87.7700	  630.00	  625.74	-1730.65	  385.05
     87.8700	  587.00	  621.87	-1769.78	  384.97
     87.9700	  659.00	  615.23	-1691.14	  384.90
     88.0700	  629.00	  606.71	-1712.62	  384.82
     88.1700	  600.00	  597.29	-1732.19	  384.75
     88.2700	  585.00	  587.83	-1737.74	  384.67
     88.3700	  547.00	  578.70	-1766.61	  384.59
     88.4700	  632.00	  571.29	-1674.20	  384.51
     88.5700	  548.00	  565.62	-1752.53	  384.42
     88.6700	  583.00	  561.93	-1713.84	  384.34
     88.7700	  511.00	  560.31	-1784.21	  384.25
     88.8700	  552.00	  560.65	-1743.56	  384.16
     88.9700	  544.00	  562.74	-1753.65	  384.07
     89.0700	  564.00	  566.22	-1737.13	  383.98
     89.1700	  579.00	  570.62	-1726.53	  383.89
     89.2700	  594.00	  575.39	-1716.30	  383.80
     89.3700	  573.00	  579.91	-1741.82	  383.70
     89.4700	  591.00	  583.54	-1727.45	  383.60
     89.5700	  548.00	  585.68	-1772.59	  383.51
     89.6700	  535.00	  585.93	-1785.83	  383.40
     89.7700	  592.00	  584.13	-1727.04	  383.30
     89.8700	  590.00	  580.45	-1725.36	  383.20
     89.9700	  560.00	  575.28	-1750.19	  383.10
     90.0700	  502.00	  569.12	-1802.03	  382.99
     90.1700	  536.00	  562.45	-1761.36	  382.88
     90.2700	  540.00	  555.71	-1750.62	  382.77
     90.3700	  540.00	  549.25	-1744.16	  382.66
     90.4700	  529.00	  543.33	-1749.24	  382.55
     90.5700	  550.00	  538.12	-1723.03	  382.43
     90.6700	  546.00	  533.71	-1722.62	  382.32
     90.7700	  508.00	  530.13	-1757.04	  382.20
     90.8700	  524.00	  527.35	-1738.26	  382.08
     90.9700	  507.00	  525.32	-1753.23	  381.96
     91.0700	  531.00	  523.96	-1727.87	  381.84
     91.1700	  484.00	  523.20	-1774.11	  381.72
     91.2700	  511.00	  522.98	-1746.89	  381.60
     91.3700	  506.00	  523.26	-1752.17	  381.47
     91.4700	  519.00	  524.05	-1739.96	  381.34
     91.5700	  536.00	  525.39	-1724.29	  381.21
     91.6700	  494.00	  527.33	-1768.24	  381.08
     91.7700	  518.00	  530.01	-1746.91	  380.95
     91.8700	  519.00	  533.55	-1749.46	  380.82
     91.9700	  533.00	  538.14	-1740.05	  380.68
     92.0700	  515.00	  543.95	-1763.86	  380.55
     92.1700	  541.00	  551.18	-1745.09	  380.41
     92.2700	  527.00	  559.98	-1767.88	  380.27
     92.3700	  558.00	  570.47	-1747.37	  380.13
     92.4700	  582.00	  582.70	-1735.61	  379.99
     92.5700	  574.00	  596.65	-1757.56	  379.85
     92.6700	  584.00	  612.19	-1763.10	  379.70
     92.7700	  595.00	  629.06	-1768.96	  379.55
     92.8700	  653.00	  646.88	-1728.78	  379.41
     92.9700	  661.00	  665.13	-1739.04	  379.26
     93.0700	  702.00	  683.18	-1716.09	  379.11
     93.1700	  668.00	  700.34	-1767.25	  378.95
     93.2700	  675.00	  715.96	-1775.87	  378.80
     93.3700	  720.00	  729.64	-1744.55	  378.65
     93.4700	  727.00	  741.31	-1749.21	  378.49
     93.5700	  753.00	  751.23	-1733.13	  378.33
     93.6700	  807.00	  759.61	-1687.52	  378.17
     93.7700	  756.00	  767.57	-1746.48	  378.01
     93.8700	  840.00	  775.27	-1670.17	  377.85
     93.9700	  799.00	  783.04	-1718.95	  377.69
     94.0700	  861.00	  791.16	-1665.07	  377.52
     94.1700	  803.00	  799.93	-1731.84	  377.36
     94.2700	  833.00	  809.68	-1711.58	  377.19
     94.3700	  832.00	  820.65	-1723.55	  377.02
     94.4700	  864.00	  832.88	-1703.78	  376.85
     94.5700	  839.00	  846.05	-1741.96	  376.68
     94.6700	  901.00	  859.44	-1693.35	  376.51
     94.7700	  901.00	  871.93	-1705.84	  376.34
     94.8700	  881.00	  882.09	-1736.00	  376.16
     94.9700	  890.00	  888.35	-1733.25	  375.98
     95.0700	  892.00	  889.26	-1732.16	  375.81
     95.1700	  917.00	  883.91	-1701.81	  375.63
     95.2700	  838.00	  872.17	-1769.08	  375.45
     95.3700	  890.00	  854.78	-1699.68	  375.27
     95.4700	  831.00	  833.10	-1737.01	  375.08
     95.5700	  779.00	  808.88	-1764.78	  374.90
     95.6700	  786.00	  783.94	-1732.84	  374.71
     95.7700	  749.00	  760.03	-1745.93	  374.53
     95.8700	  734.00	  738.76	-1739.67	  374.34
     95.9700	  660.00	  721.61	-1796.52	  374.15
     96.0700	  717.00	  709.87	-1727.78	  373.96
     96.1700	  667.00	  704.68	-1772.58	  373.77
     96.2700	  695.00	  706.99	-1746.90	  373.58
     96.3700	  709.00	  717.60	-1743.51	  373.38
     96.4700	  698.00	  737.10	-1774.01	  373.19
     96.5700	  754.00	  765.85	-1746.75	  372.99
     96.6700	  787.00	  803.93	-1751.84	  372.79
     96.7700	  863.00	  851.08	-1722.99	  372.59
     96.8700	  861.00	  906.65	-1780.56	  372.40
     96.9700	  993.00	  969.49	-1711.40	  372.19
     97.0700	 1026.00	 1037.95	-1746.86	  371.99
     97.1700	 1079.00	 1109.82	-1765.73	  371.79
     97.2700	 1174.00	 1182.30	-1743.21	  371.59
     97.3700	 1216.00	 1252.01	-1770.92	  371.38
     97.4700	 1316.00	 1315.10	-1734.00	  371.17
     97.5700	 1352.00	 1367.48	-1750.39	  370.97
     97.6700	 1417.00	 1405.30	-1723.21	  370.76
     97.7700	 1316.00	 1425.52	-1844.43	  370.55
     97.8700	 1353.00	 1426.65	-1808.56	  370.34
     97.9700	 1378.00	 1409.07	-1765.98	  370.13
     98.0700	 1378.00	 1374.89	-1731.80	  369.92
     98.1700	 1305.00	 1327.38	-1757.29	  369.70
     98.2700	 1284.00	 1270.41	-1721.31	  369.49
     98.3700	 1207.00	 1207.87	-1735.78	  369.27
     98.4700	 1144.00	 1143.46	-1734.37	  369.06
     98.5700	 1028.00	 1080.46	-1787.37	  368.84
     98.6700	  989.00	 1021.69	-1767.59	  368.62
     98.7700	  978.00	  969.53	-1726.43	  368.40
     98.8700	  886.00	  925.92	-1774.82	  368.18
     98.9700	  903.00	  892.41	-1724.32	  367.96
     99.0700	  911.00	  870.19	-1694.10	  367.74
     99.1700	  850.00	  860.11	-1745.02	  367.52
     99.2700	  861.00	  862.77	-1736.68	  367.29
     99.3700	  913.00	  878.49	-1700.40	  367.07
     99.4700	  902.00	  907.34	-1740.25	  366.85
     99.5700	  927.00	  949.14	-1757.05	  366.62
     99.6700	 1008.00	 1003.43	-1730.33	  366.39
     99.7700	 1043.00	 1069.45	-1761.35	  366.17
     99.8700	 1145.00	 1146.01	-1735.92	  365.94
     99.9700	 1222.00	 1231.61	-1744.52	  365.71
    100.0700	 1310.00	 1324.09	-1749.00	  365.48
    100.1700	 1427.00	 1420.81	-1728.71	  365.25
    100.2700	 1497.00	 1518.58	-1756.49	  365.02
    100.3700	 1608.00	 1613.79	-1740.70	  364.79
    100.4700	 1743.00	 1702.67	-1694.58	  364.55
    100.5700	 1720.00	 1781.68	-1796.59	  364.32
    100.6700	 1899.00	 1847.91	-1683.82	  364.09
    100.7700	 1881.00	 1899.27	-1753.18	  363.85
    100.8700	 1983.00	 1934.45	-1686.36	  363.62
    100.9700	 2004.00	 1952.60	-1683.51	  363.38
    101.0700	 1981.00	 1953.20	-1707.11	  363.15
    101.1700	 1946.00	 1936.11	-1725.02	  362.91
    101.2700	 1877.00	 1901.86	-1759.77	  362.67
    101.3700	 1878.00	 1852.05	-1708.95	  362.44
    101.4700	 1754.00	 1789.44	-1770.35	  362.20
    101.5700	 1746.00	 1717.79	-1706.70	  361.96
    101.6700	 1731.00	 1641.28	-1645.19	  361.72
    101.7700	 1635.00	 1564.00	-1663.91	  361.48
    101.8700	 1477.00	 1489.52	-1747.43	  361.24
    101.9700	 1426.00	 1420.65	-1729.56	  361.00
    102.0700	 1394.00	 1359.30	-1700.21	  360.76
    102.1700	 1352.00	 1306.53	-1689.44	  360.52
    102.2700	 1235.00	 1262.54	-1762.45	  360.28
    102.3700	 1231.00	 1226.78	-1730.68	  360.03
    102.4700	 1214.00	 1198.02	-1718.93	  359.79
    102.5700	 1143.00	 1174.49	-1766.39	  359.55
    102.6700	 1164.00	 1154.01	-1724.92	  359.31
    102.7700	 1144.00	 1134.28	-1725.19	  359.06
    102.8700	 1070.00	 1113.14	-1778.05	  358.82
    102.9700	 1060.00	 1088.93	-1763.84	  358.58
    103.0700	 1089.00	 1060.68	-1706.59	  358.33
    103.1700	 1060.00	 1028.20	-1703.11	  358.09
    103.2700	  957.00	  991.95	-1769.86	  357.85
    103.3700	  900.00	  952.83	-1787.74	  357.60
    103.4700	  877.00	  911.95	-1769.86	  357.36
    103.5700	  911.00	  870.46	-1694.37	  357.11
    103.6700	  829.00	  829.45	-1735.36	  356.87
    103.7700	  792.00	  789.85	-1732.76	  356.62
    103.8700	  802.00	  752.45	-1685.36	  356.38
    103.9700	  716.00	  717.86	-1736.77	  356.13
    104.0700	  699.00	  686.51	-1722.42	  355.89
    104.1700	  671.00	  658.65	-1722.55	  355.65
    104.2700	  660.00	  634.34	-1709.25	  355.40
    104.3700	  616.00	  613.54	-1732.45	  355.16
    104.4700	  626.00	  596.06	-1704.96	  354.91
    104.5700	  621.00	  581.64	-1695.54	  354.67
    104.6700	  575.00	  569.96	-1729.87	  354.42
    104.7700	  580.00	  560.70	-1715.61	  354.18
    104.8700	  515.00	  553.51	-1773.42	  353.94
    104.9700	  586.00	  548.09	-1696.99	  353.69
    105.0700	  539.00	  544.13	-1740.04	  353.45
    105.1700	  581.00	  541.40	-1695.31	  353.21
    105.2700	  555.00	  539.70	-1719.61	  352.96
    105.3700	  511.00	  538.87	-1762.78	  352.72
    105.4700	  552.00	  538.78	-1721.69	  352.48
    105.5700	  562.00	  539.37	-1712.27	  352.24
    105.6700	  532.00	  540.56	-1743.47	  352.00
    105.7700	  535.00	  542.36	-1742.27	  351.75
    105.8700	  570.00	  544.78	-1709.69	  351.51
    105.9700	  534.00	  547.83	-1748.74	  351.27
    106.0700	  555.00	  551.57	-1731.48	  351.03
    106.1700	  564.00	  556.03	-1726.94	  350.79
    106.2700	  589.00	  561.27	-1707.18	  350.56
    106.3700	  503.00	  567.31	-1799.22	  350.32
    106.4700	  615.00	  574.13	-1694.04	  350.08
    106.5700	  616.00	  581.68	-1700.58	  349.84
    106.6700	  606.00	  589.86	-1718.77	  349.61
    106.7700	  566.00	  598.54	-1767.45	  349.37
    106.8700	  592.00	  607.54	-1750.44	  349.14
    106.9700	  613.00	  616.61	-1738.52	  348.90
    107.0700	  606.00	  625.48	-1754.38	  348.67
    107.1700	  606.00	  633.88	-1762.78	  348.44
    107.2700	  601.00	  641.49	-1775.39	  348.20
    107.3700	  670.00	  648.02	-1712.93	  347.97
    107.4700	  641.00	  653.25	-1747.16	  347.74
    107.5700	  606.00	  657.06	-1785.97	  347.51
    107.6700	  644.00	  659.46	-1750.37	  347.29
    107.7700	  673.00	  660.61	-1722.52	  347.06
    107.8700	  697.00	  660.77	-1698.68	  346.83
    107.9700	  726.00	  660.29	-1669.19	  346.61
    108.0700	  634.00	  659.51	-1760.41	  346.38
    108.1700	  608.00	  658.76	-1785.66	  346.16
    108.2700	  686.00	  658.31	-1707.21	  345.94
    108.3700	  668.00	  658.34	-1725.25	  345.72
    108.4700	  681.00	  658.97	-1712.88	  345.50
    108.5700	  663.00	  660.19	-1732.10	  345.28
    108.6700	  706.00	  661.93	-1690.83	  345.06
    108.7700	  666.00	  663.99	-1732.90	  344.84
    108.8700	  634.00	  666.14	-1767.05	  344.63
    108.9700	  713.00	  668.03	-1689.94	  344.41
    109.0700	  682.00	  669.32	-1722.22	  344.20
    109.1700	  673.00	  669.62	-1731.53	  343.99
    109.2700	  682.00	  668.63	-1721.53	  343.78
    109.3700	  636.00	  666.11	-1765.02	  343.57
    109.4700	  678.00	  661.99	-1718.89	  343.36
    109.5700	  662.00	  656.29	-1729.20	  343.16
    109.6700	  666.00	  649.20	-1718.11	  342.96
    109.7700	  627.00	  640.97	-1748.87	  342.75
    109.8700	  639.00	  631.89	-1727.80	  342.55
    109.9700	  626.00	  622.29	-1731.20	  342.35
    110.0700	  600.00	  612.47	-1747.38	  342.16
    110.1700	  586.00	  602.69	-1751.60	  341.96
    110.2700	  619.00	  593.23	-1709.14	  341.77
    110.3700	  599.00	  584.27	-1720.18	  341.57
    110.4700	  615.00	  575.99	-1695.90	  341.38
    110.5700	  622.00	  568.50	-1681.40	  341.19
    110.6700	  573.00	  561.88	-1723.79	  341.01
    110.7700	  569.00	  556.19	-1722.10	  340.82
    110.8700	  585.00	  551.44	-1701.35	  340.64
    110.9700	  552.00	  547.61	-1730.52	  340.46
    111.0700	  579.00	  544.67	-1700.58	  340.28
    111.1700	  567.00	  542.55	-1710.46	  340.10
    111.2700	  533.00	  541.19	-1743.10	  339.93
    111.3700	  500.00	  540.51	-1775.42	  339.76
    111.4700	  503.00	  540.44	-1772.35	  339.58
    111.5700	  519.00	  540.90	-1756.80	  339.42
    111.6700	  555.00	  541.81	-1721.71	  339.25
    111.7700	  559.00	  543.11	-1719.02	  339.09
    111.8700	  567.00	  544.75	-1712.65	  338.92
    111.9700	  552.00	  546.67	-1729.57	  338.76
    112.0700	  534.00	  548.83	-1749.74	  338.61
    112.1700	  552.00	  551.22	-1734.13	  338.45
    112.2700	  532.00	  553.81	-1756.72	  338.30
    112.3700	  562.00	  556.61	-1729.52	  338.15
    112.4700	  597.00	  559.62	-1697.53	  338.00
    112.5700	  595.00	  562.87	-1702.78	  337.86
    112.6700	  553.00	  566.40	-1748.31	  337.72
    112.7700	  558.00	  570.25	-1747.16	  337.58
    112.8700	  564.00	  574.48	-1745.39	  337.44
    112.9700	  558.00	  579.18	-1756.09	  337.31
    113.0700	  596.00	  584.44	-1723.35	  337.18
    113.1700	  623.00	  590.38	-1702.29	  337.05
    113.2700	  594.00	  597.17	-1738.07	  336.92
    113.3700	  557.00	  605.00	-1782.90	  336.80
    113.4700	  614.00	  614.12	-1735.03	  336.68
    113.5700	  577.00	  624.88	-1782.78	  336.56
    113.6700	  638.00	  637.66	-1734.57	  336.45
    113.7700	  707.00	  652.99	-1680.90	  336.34
    113.8700	  725.00	  671.51	-1681.41	  336.23
    113.9700	  729.00	  693.98	-1699.88	  336.12
    114.0700	  679.00	  721.35	-1777.26	  336.02
    114.1700	  764.00	  754.75	-1725.65	  335.93
    114.2700	  848.00	  795.47	-1682.38	  335.83
    114.3700	  867.00	  845.05	-1712.96	  335.74
    114.4700	  950.00	  905.18	-1690.09	  335.65
    114.5700	 1031.00	  977.77	-1681.68	  335.56
    114.6700	 1158.00	 1064.86	-1641.77	  335.48
    114.7700	 1221.00	 1168.58	-1682.49	  335.41
    114.8700	 1344.00	 1291.16	-1682.07	  335.33
    114.9700	 1538.00	 1434.70	-1631.61	  335.26
    115.0700	 1646.00	 1601.25	-1690.16	  335.19
    115.1700	 1877.00	 1792.51	-1650.42	  335.13
    115.2700	 2071.00	 2009.78	-1673.69	  335.07
    115.3700	 2319.00	 2253.88	-1669.79	  335.01
    115.4700	 2583.00	 2524.90	-1676.80	  334.96
    115.5700	 2930.00	 2822.16	-1627.07	  334.91
    115.6700	 3227.00	 3143.99	-1651.90	  334.86
    115.7700	 3559.00	 3487.66	-1663.56	  334.82
    115.8700	 3838.00	 3849.49	-1746.40	  334.79
    115.9700	 4217.00	 4224.48	-1742.39	  334.75
    116.0700	 4519.00	 4606.68	-1822.58	  334.72
    116.1700	 4963.00	 4988.85	-1760.75	  334.70
    116.2700	 5227.00	 5362.69	-1870.59	  334.68
    116.3700	 5662.00	 5719.12	-1792.03	  334.66
    116.4700	 6004.00	 6048.12	-1779.03	  334.65
    116.5700	 6268.00	 6339.44	-1806.35	  334.64
    116.6700	 6445.00	 6582.79	-1872.70	  334.64
    116.7700	 6721.00	 6768.70	-1782.61	  334.64
    116.8700	 6865.00	 6889.42	-1759.33	  334.64
    116.9700	 6831.00	 6939.63	-1843.54	  334.65
    117.0700	 6820.00	 6917.21	-1832.12	  334.67
    117.1700	 6693.00	 6823.50	-1865.41	  334.69
    117.2700	 6643.00	 6663.13	-1755.04	  334.71
    117.3700	 6387.00	 6443.32	-1791.22	  334.74
    117.4700	 6119.00	 6173.23	-1789.14	  334.77
    117.5700	 5764.00	 5862.85	-1833.76	  334.81
    117.6700	 5416.00	 5522.50	-1841.41	  334.85
    117.7700	 5115.00	 5162.19	-1782.10	  334.90
    117.8700	 4707.00	 4791.06	-1818.96	  334.95
    117.9700	 4410.00	 4417.53	-1742.44	  335.01
    118.0700	 4145.00	 4048.77	-1638.67	  335.07
    118.1700	 3818.00	 3690.97	-1607.88	  335.14
    118.2700	 3529.00	 3349.18	-1555.09	  335.21
    118.3700	 3264.00	 3027.14	-1498.05	  335.29
    118.4700	 2889.00	 2727.74	-1573.64	  335.37
    118.5700	 2498.00	 2452.64	-1689.55	  335.46
    118.6700	 2333.00	 2202.78	-1604.69	  335.55
    118.7700	 1938.00	 1978.30	-1775.21	  335.65
    118.8700	 1777.00	 1778.59	-1736.49	  335.75
    118.9700	 1588.00	 1602.62	-1749.53	  335.86
    119.0700	 1392.00	 1448.90	-1791.81	  335.98
    119.1700	 1299.00	 1315.71	-1751.62	  336.10
    119.2700	 1169.00	 1201.16	-1767.06	  336.23
    119.3700	 1082.00	 1103.22	-1756.13	  336.36
    119.4700	 1004.00	 1019.97	-1750.88	  336.50
    119.5700	  958.00	  949.49	-1726.39	  336.64
    119.6700	  970.00	  890.01	-1654.92	  336.79
    119.7700	  805.00	  839.93	-1769.84	  336.95
    119.8700	  734.00	  797.81	-1798.72	  337.11
    119.9700	  736.00	  762.39	-1761.29	  337.28
    120.0700	  702.00	  732.57	-1765.47	  337.45
    120.1700	  711.00	  707.43	-1731.34	  337.63
    120.2700	  625.00	  686.22	-1796.12	  337.82
    120.3700	  632.00	  668.27	-1771.18	  338.01
    120.4700	  642.00	  653.08	-1745.99	  338.21
    120.5700	  624.00	  640.21	-1751.12	  338.41
    120.6700	  614.00	  629.31	-1750.22	  338.63
    120.7700	  605.00	  620.11	-1750.01	  338.84
    120.8700	  600.00	  612.37	-1747.28	  339.07
    120.9700	  557.00	  605.93	-1783.84	  339.30
    121.0700	  526.00	  600.63	-1809.54	  339.54
    121.1700	  576.00	  596.35	-1755.26	  339.78
    121.2700	  595.00	  593.01	-1732.91	  340.04
    121.3700	  593.00	  590.51	-1732.42	  340.30
    121.4700	  597.00	  588.80	-1726.70	  340.56
    121.5700	  581.00	  587.80	-1741.71	  340.83
    121.6700	  577.00	  587.47	-1745.37	  341.11
    121.7700	  555.00	  587.74	-1767.65	  341.40
    121.8700	  538.00	  588.58	-1785.49	  341.69
    121.9700	  532.00	  589.91	-1792.82	  342.00
    122.0700	  551.00	  591.68	-1775.59	  342.30
    122.1700	  615.00	  593.82	-1713.73	  342.62
    122.2700	  591.00	  596.26	-1740.17	  342.94
    122.3700	  583.00	  598.93	-1750.83	  343.27
    122.4700	  611.00	  601.73	-1725.64	  343.61
    122.5700	  605.00	  604.59	-1734.50	  343.96
    122.6700	  591.00	  607.40	-1751.31	  344.31
    122.7700	  628.00	  610.08	-1716.99	  344.67
    122.8700	  655.00	  612.52	-1692.43	  345.04
    122.9700	  655.00	  614.64	-1694.54	  345.42
    123.0700	  664.00	  616.34	-1687.25	  345.81
    123.1700	  633.00	  617.57	-1719.48	  346.20
    123.2700	  661.00	  618.29	-1692.19	  346.60
    123.3700	  666.00	  618.45	-1687.36	  347.01
    123.4700	  651.00	  618.07	-1701.97	  347.43
    123.5700	  686.00	  617.15	-1666.06	  347.85
    123.6700	  649.00	  615.72	-1701.63	  348.29
    123.7700	  609.00	  613.88	-1739.78	  348.73
    123.8700	  590.00	  611.64	-1756.55	  349.18
    123.9700	  552.00	  609.08	-1791.99	  349.64
    124.0700	  609.00	  606.27	-1732.18	  350.11
    124.1700	  613.00	  603.26	-1725.17	  350.58
    124.2700	  612.00	  600.12	-1723.02	  351.07
    124.3700	  603.00	  596.90	-1728.81	  351.56
    124.4700	  585.00	  593.67	-1743.58	  352.07
    124.5700	  572.00	  590.47	-1753.38	  352.58
    124.6700	  585.00	  587.35	-1737.26	  353.10
    124.7700	  579.00	  584.35	-1740.26	  353.63
    124.8700	  595.00	  581.50	-1721.40	  354.17
    124.9700	  609.00	  466.26	-1592.17	  354.72
    125.0700	  611.00	  466.82	-1734.91	  355.27
    125.1700	  592.00	  467.39	-1734.91	  355.84
    125.2700	  600.00	  467.96	-1734.91	  356.42
    125.3700	  548.00	  468.55	-1734.91	  357.00
    125.4700	  547.00	  469.15	-1734.91	  357.60
    125.5700	  545.00	  469.75	-1734.91	  358.20
    125.6700	  600.00	  470.37	-1734.91	  358.82
    125.7700	  592.00	  470.99	-1734.91	  359.44
    125.8700	  567.00	  471.62	-1734.91	  360.08
    125.9700	  538.00	  472.27	-1734.91	  360.72
    126.0700	  558.00	  472.92	-1734.91	  361.38
    126.1700	  541.00	  473.59	-1734.91	  362.04
    126.2700	  532.00	  474.26	-1734.91	  362.72
    126.3700	  546.00	  474.95	-1734.91	  363.40
    126.4700	  535.00	  475.64	-1734.91	  364.10
    126.5700	  562.00	  476.35	-1734.91	  364.80
    126.6700	  521.00	  477.06	-1734.91	  365.52
    126.7700	  580.00	  477.79	-1734.91	  366.24
    126.8700	  585.00	  478.53	-1734.91	  366.98
    126.9700	  579.00	  479.27	-1734.91	  367.73
    127.0700	  591.00	  480.03	-1734.91	  368.49
    127.1700	  616.00	  480.80	-1734.91	  369.26
    127.2700	  571.00	  481.58	-1734.91	  370.04
    127.3700	  583.00	  482.37	-1734.91	  370.83
    127.4700	  614.00	  483.17	-1734.91	  371.63
    127.5700	  590.00	  483.99	-1734.91	  372.44
    127.6700	  600.00	  484.81	-1734.91	  373.27
    127.7700	  635.00	  485.65	-1734.91	  374.10
    127.8700	  612.00	  486.49	-1734.91	  374.95
    127.9700	  619.00	  487.35	-1734.91	  375.81
    128.0700	  668.00	  488.22	-1734.91	  376.68
    128.1700	  670.00	  489.10	-1734.91	  377.56
    128.2700	  680.00	  490.00	-1734.91	  378.45
    128.3700	  739.00	  490.90	-1734.91	  379.36
    128.4700	  736.00	  491.82	-1734.91	  380.27
    128.5700	    0.00	  492.75	-1734.91	  381.20
    128.6700	    0.00	  493.69	-1734.91	  382.14
     12.3403	        	        	        	        	       0	(  0  0  2)	  0  1
     24.9490	        	        	        	        	       0	(  0  0  4)	  0  1
     28.3905	        	        	        	        	       0	(  1  0  0)	  0  1
     29.0893	        	        	        	        	       0	(  1  0  1)	  0  1
     31.1002	        	        	        	        	       0	(  1  0  2)	  0  1
     34.2158	        	        	        	        	       0	(  1  0  3)	  0  1
     37.8757	        	        	        	        	       0	(  0  0  6)	  0  1
     38.2021	        	        	        	        	       0	(  1  0  4)	  0  1
     42.8631	        	        	        	        	       0	(  1  0  5)	  0  1
     48.0595	        	        	        	        	       0	(  1  0  6)	  0  1
     50.3701	        	        	        	        	       0	(  1  1  0)	  0  1
     51.3280	        	        	        	        	       0	(  0  0  8)	  0  1
     52.0976	        	        	        	        	       0	(  1  1  2)	  0  1
     53.7038	        	        	        	        	       0	(  1  0  7)	  0  1
     57.0586	        	        	        	        	       0	(  1  1  4)	  0  1
     58.8856	        	        	        	        	       0	(  2  0  0)	  0  1
     59.2782	        	        	        	        	       0	(  2  0  1)	  0  1
     59.7498	        	        	        	        	       0	(  1  0  8)	  0  1
     60.4469	        	        	        	        	       0	(  2  0  2)	  0  1
     62.3655	        	        	        	        	       0	(  2  0  3)	  0  1
     64.7745	        	        	        	        	       0	(  1  1  6)	  0  1
     64.9971	        	        	        	        	       0	(  2  0  4)	  0  1
     65.5936	        	        	        	        	       0	(  0  0 10)	  0  1
     66.1835	        	        	        	        	       0	(  1  0  9)	  0  1
     68.3009	        	        	        	        	       0	(  2  0  5)	  0  1
     72.2403	        	        	        	        	       0	(  2  0  6)	  0  1
     73.0195	        	        	        	        	       0	(  1  0 10)	  0  1
     74.8422	        	        	        	        	       0	(  1  1  8)	  0  1
     76.7888	        	        	        	        	       0	(  2  0  7)	  0  1
     80.3002	        	        	        	        	       0	(  1  0 11)	  0  1
     81.1209	        	        	        	        	       0	(  0  0 12)	  0  1
     81.1842	        	        	        	        	       0	(  2  1  0)	  0  1
     81.5252	        	        	        	        	       0	(  2  1  1)	  0  1
     81.9362	        	        	        	        	       0	(  2  0  8)	  0  1
     82.5467	        	        	        	        	       0	(  2  1  2)	  0  1
     84.2440	        	        	        	        	       0	(  2  1  3)	  0  1
     86.6123	        	        	        	        	       0	(  2  1  4)	  0  1
     87.1555	        	        	        	        	       0	(  1  1 10)	  0  1
     87.6950	        	        	        	        	       0	(  2  0  9)	  0  1
     88.1020	        	        	        	        	       0	(  1  0 12)	  0  1
     89.6497	        	        	        	        	       0	(  2  1  5)	  0  1
     93.3619	        	        	        	        	       0	(  2  1  6)	  0  1
     94.1077	        	        	        	        	       0	(  2  0 10)	  0  1
     95.1195	        	        	        	        	       0	(  3  0  0)	  0  1
     95.4583	        	        	        	        	       0	(  3  0  1)	  0  1
     96.4759	        	        	        	        	       0	(  3  0  2)	  0  1
     96.5495	        	        	        	        	       0	(  1  0 13)	  0  1
     97.7693	        	        	        	        	       0	(  2  1  7)	  0  1
     98.1767	        	        	        	        	       0	(  3  0  3)	  0  1
     98.7288	        	        	        	        	       0	(  0  0 14)	  0  1
    100.5707	        	        	        	        	       0	(  3  0  4)	  0  1
    101.2615	        	        	        	        	       0	(  2  0 11)	  0  1
    102.0892	        	        	        	        	       0	(  1  1 12)	  0  1
    102.9158	        	        	        	        	       0	(  2  1  8)	  0  1
    103.6772	        	        	        	        	       0	(  3  0  5)	  0  1
    105.8468	        	        	        	        	       0	(  1  0 14)	  0  1
    107.5323	        	        	        	        	       0	(  3  0  6)	  0  1
    108.8839	        	        	        	        	       0	(  2  1  9)	  0  1
    109.3148	        	        	        	        	       0	(  2  0 12)	  0  1
    112.1992	        	        	        	        	       0	(  3  0  7)	  0  1
    115.8231	        	        	        	        	       0	(  2  1 10)	  0  1
    116.3541	        	        	        	        	       0	(  1  0 15)	  0  1
    116.9500	        	        	        	        	       0	(  2  2  0)	  0  1
    117.7888	        	        	        	        	       0	(  3  0  8)	  0  1
    118.4756	        	        	        	        	       0	(  2  2  2)	  0  1
    118.5588	        	        	        	        	       0	(  2  0 13)	  0  1
    120.3459	        	        	        	        	       0	(  0  0 16)	  0  1
    121.0504	        	        	        	        	       0	(  1  1 14)	  0  1
    123.1965	        	        	        	        	       0	(  2  2  4)	  0  1
    124.0117	        	        	        	        	       0	(  2  1 11)	  0  1
    124.5004	        	        	        	        	       0	(  3  0  9)	  0  1
    125.0728	        	        	        	        	       0	(  3  1  0)	  0  1
    125.4865	        	        	        	        	       0	(  3  1  1)	  0  1
    126.7410	        	        	        	        	       0	(  3  1  2)	  0  1
    128.8031	        	        	        	        	       0	(  1  0 16)	  0  1
    128.8791	        	        	        	        	       0	(  3  1  3)	  0  1
    129.5851	        	        	        	        	       0	(  2  0 14)	  0  1
    131.7155	        	        	        	        	       0	(  2  2  6)	  0  1
    131.9868	        	        	        	        	       0	(  3  1  4)	  0  1
    132.7222	        	        	        	        	       0	(  3  0 10)	  0  1
    134.0259	        	        	        	        	       0	(  2  1 12)	  0  1
    136.2236	        	        	        	        	       0	(  3  1  5)	  0  1
    141.9017	        	        	        	        	       0	(  3  1  6)	  0  1
    143.3550	        	        	        	        	       0	(  3  0 11)	  0  1
    143.9315	        	        	        	        	       0	(  2  0 15)	  0  1
    145.2190	        	        	        	        	       0	(  1  0 17)	  0  1
    146.1657	        	        	        	        	       0	(  2  2  8)	  0  1
    147.4075	        	        	        	        	       0	(  2  1 13)	  0  1
    149.7361	        	        	        	        	       0	(  3  1  7)	  0  1
    150.4289	        	        	        	        	       0	(  1  1 16)	  0  1
    155.0159	        	        	        	        	       0	(  0  0 18)	  0  1
    159.7615	        	        	        	        	       0	(  3  0 12)	  0  1
    159.9441	        	        	        	        	       0	(  4  0  0)	  0  1
    160.9580	        	        	        	        	       0	(  4  0  1)	  0  1
    162.2554	        	        	        	        	       0	(  3  1  8)	  0  1
    164.3776	        	        	        	        	       0	(  4  0  2)	  0  1
    172.6355	        	        	        	        	       0	(  2  0 16)	  0  1
    173.1199	        	        	        	        	       0	(  4  0  3)	  0  1
