MSG Master    CELL:    5.90690   5.90690  23.21180   90.0000   90.0000  120.0000   SPGR: P 63/m m c             TEMP:    869.85
  1   1280     2.52000     0.00000    -0.12287     0.00000     0.00000    0
    98     0     2
       0.00000      10.00000
     125.00000     130.00000
 2Theta	Yobs	Ycal	Yobs-Ycal	Backg	Posr	(hkl)	K
      0.7700	    0.00	  456.53	-1747.07	  346.26
      0.8700	    0.00	  458.27	-1747.07	  348.00
      0.9700	   42.00	  459.99	-1747.07	  349.73
      1.0700	   44.00	  461.70	-1747.07	  351.43
      1.1700	   45.00	  463.38	-1747.07	  353.12
      1.2700	   42.00	  465.05	-1747.07	  354.78
      1.3700	   33.00	  466.70	-1747.07	  356.43
      1.4700	   88.00	  468.33	-1747.07	  358.06
      1.5700	  277.00	  469.95	-1747.07	  359.68
      1.6700	  442.00	  471.54	-1747.07	  361.27
      1.7700	  586.00	  473.12	-1747.07	  362.85
      1.8700	  653.00	  474.68	-1747.07	  364.41
      1.9700	  674.00	  476.22	-1747.07	  365.95
      2.0700	  765.00	  477.75	-1747.07	  367.48
      2.1700	  779.00	  479.25	-1747.07	  368.98
      2.2700	  744.00	  480.74	-1747.07	  370.47
      2.3700	  718.00	  482.22	-1747.07	  371.95
      2.4700	  702.00	  483.67	-1747.07	  373.40
      2.5700	  692.00	  485.11	-1747.07	  374.84
      2.6700	  673.00	  486.53	-1747.07	  376.26
      2.7700	  641.00	  487.94	-1747.07	  377.67
      2.8700	  657.00	  489.33	-1747.07	  379.06
      2.9700	  683.00	  490.70	-1747.07	  380.43
      3.0700	  627.00	  492.05	-1747.07	  381.78
      3.1700	  574.00	  493.39	-1747.07	  383.12
      3.2700	  657.00	  494.71	-1747.07	  384.45
      3.3700	  753.00	  496.02	-1747.07	  385.75
      3.4700	  861.00	  497.31	-1747.07	  387.04
      3.5700	  975.00	  498.59	-1747.07	  388.32
      3.6700	 1086.00	  499.84	-1747.07	  389.58
      3.7700	 1114.00	  501.09	-1747.07	  390.82
      3.8700	 1182.00	  502.32	-1747.07	  392.05
      3.9700	 1178.00	  503.53	-1747.07	  393.26
      4.0700	 1278.00	  504.72	-1747.07	  394.45
      4.1700	 1240.00	  505.90	-1747.07	  395.64
      4.2700	 1240.00	  507.07	-1747.07	  396.80
      4.3700	 1228.00	  508.22	-1747.07	  397.95
      4.4700	 1243.00	  509.36	-1747.07	  399.09
      4.5700	 1270.00	  510.48	-1747.07	  400.21
      4.6700	 1149.00	  511.58	-1747.07	  401.31
      4.7700	 1109.00	  512.67	-1747.07	  402.41
      4.8700	 1096.00	  513.75	-1747.07	  403.48
      4.9700	 1069.00	  514.81	-1747.07	  404.54
      5.0700	 1022.00	  515.86	-1747.07	  405.59
      5.1700	 1034.00	  516.89	-1747.07	  406.63
      5.2700	 1055.00	  517.91	-1747.07	  407.64
      5.3700	  927.00	  518.92	-1747.07	  408.65
      5.4700	  950.00	  519.91	-1747.07	  409.64
      5.5700	  957.00	  520.88	-1747.07	  410.62
      5.6700	  937.00	  521.85	-1747.07	  411.58
      5.7700	  909.00	  522.80	-1747.07	  412.53
      5.8700	  861.00	  523.73	-1747.07	  413.46
      5.9700	  846.00	  524.65	-1747.07	  414.39
      6.0700	  851.00	  525.56	-1747.07	  415.29
      6.1700	  843.00	  526.46	-1747.07	  416.19
      6.2700	  847.00	  527.34	-1747.07	  417.07
      6.3700	  852.00	  528.21	-1747.07	  417.94
      6.4700	  697.00	  529.06	-1747.07	  418.79
      6.5700	  763.00	  529.91	-1747.07	  419.64
      6.6700	  768.00	  530.73	-1747.07	  420.47
      6.7700	  723.00	  531.55	-1747.07	  421.28
      6.8700	  768.00	  532.35	-1747.07	  422.09
      6.9700	  704.00	  533.15	-1747.07	  422.88
      7.0700	  731.00	  533.92	-1747.07	  423.66
      7.1700	  692.00	  534.69	-1747.07	  424.42
      7.2700	  763.00	  535.44	-1747.07	  425.18
      7.3700	  684.00	  536.18	-1747.07	  425.92
      7.4700	  696.00	  536.91	-1747.07	  426.65
      7.5700	  665.00	  537.63	-1747.07	  427.36
      7.6700	  624.00	  538.34	-1747.07	  428.07
      7.7700	  639.00	  539.03	-1747.07	  428.76
      7.8700	  662.00	  539.71	-1747.07	  429.44
      7.9700	  632.00	  540.38	-1747.07	  430.11
      8.0700	  611.00	  541.04	-1747.07	  430.77
      8.1700	  633.00	  541.68	-1747.07	  431.41
      8.2700	  608.00	  542.32	-1747.07	  432.05
      8.3700	  631.00	  542.94	-1747.07	  432.67
      8.4700	  625.00	  543.55	-1747.07	  433.28
      8.5700	  653.00	  544.15	-1747.07	  433.88
      8.6700	  636.00	  544.74	-1747.07	  434.47
      8.7700	  593.00	  545.32	-1747.07	  435.05
      8.8700	  629.00	  545.89	-1747.07	  435.62
      8.9700	  582.00	  546.44	-1747.07	  436.17
      9.0700	  635.00	  546.99	-1747.07	  436.72
      9.1700	  552.00	  547.52	-1747.07	  437.25
      9.2700	  596.00	  548.05	-1747.07	  437.78
      9.3700	  625.00	  548.56	-1747.07	  438.29
      9.4700	  615.00	  549.06	-1747.07	  438.79
      9.5700	  577.00	  549.56	-1747.07	  439.29
      9.6700	  615.00	  550.04	-1747.07	  439.77
      9.7700	  614.00	  550.51	-1747.07	  440.24
      9.8700	  595.00	  550.97	-1747.07	  440.70
      9.9700	  627.00	  551.42	-1747.07	  441.15
     10.0700	  621.00	  553.48	-1679.55	  441.60
     10.1700	  572.00	  554.07	-1729.14	  442.03
     10.2700	  547.00	  554.69	-1754.76	  442.45
     10.3700	  523.00	  555.35	-1779.42	  442.86
     10.4700	  582.00	  556.08	-1721.15	  443.26
     10.5700	  573.00	  556.94	-1731.00	  443.65
     10.6700	  622.00	  557.99	-1683.05	  444.04
     10.7700	  594.00	  559.32	-1712.39	  444.41
     10.8700	  541.00	  561.02	-1767.09	  444.77
     10.9700	  556.00	  563.12	-1754.19	  445.13
     11.0700	  607.00	  565.62	-1705.68	  445.47
     11.1700	  596.00	  568.51	-1719.58	  445.81
     11.2700	  586.00	  571.83	-1732.90	  446.14
     11.3700	  639.00	  575.65	-1683.72	  446.46
     11.4700	  606.00	  580.09	-1721.16	  446.77
     11.5700	  573.00	  585.34	-1759.41	  447.07
     11.6700	  556.00	  591.70	-1782.76	  447.36
     11.7700	  628.00	  599.57	-1718.64	  447.64
     11.8700	  593.00	  609.36	-1763.43	  447.91
     11.9700	  627.00	  621.01	-1741.07	  448.18
     12.0700	  680.00	  633.17	-1700.23	  448.44
     12.1700	  661.00	  642.41	-1728.47	  448.69
     12.2700	  718.00	  643.16	-1672.22	  448.93
     12.3700	  625.00	  631.57	-1753.63	  449.16
     12.4700	  588.00	  612.55	-1771.61	  449.38
     12.5700	  593.00	  594.80	-1748.86	  449.60
     12.6700	  604.00	  582.14	-1725.21	  449.80
     12.7700	  614.00	  574.42	-1707.49	  450.00
     12.8700	  565.00	  570.14	-1752.21	  450.20
     12.9700	  528.00	  567.82	-1786.88	  450.38
     13.0700	  568.00	  566.48	-1745.54	  450.56
     13.1700	  574.00	  565.64	-1738.70	  450.72
     13.2700	  573.00	  565.06	-1739.13	  450.89
     13.3700	  578.00	  564.66	-1733.73	  451.04
     13.4700	  524.00	  564.37	-1787.44	  451.18
     13.5700	  528.00	  564.16	-1783.23	  451.32
     13.6700	  541.00	  564.01	-1770.08	  451.45
     13.7700	  524.00	  563.91	-1786.97	  451.58
     13.8700	  568.00	  563.83	-1742.90	  451.69
     13.9700	  582.00	  563.78	-1728.84	  451.80
     14.0700	  547.00	  563.74	-1763.81	  451.90
     14.1700	  555.00	  563.72	-1755.79	  452.00
     14.2700	  580.00	  563.74	-1730.80	  452.09
     14.3700	  584.00	  563.73	-1726.80	  452.17
     14.4700	  557.00	  563.73	-1753.80	  452.24
     14.5700	  514.00	  563.73	-1796.80	  452.31
     14.6700	  534.00	  563.74	-1776.80	  452.37
     14.7700	  540.00	  563.74	-1770.80	  452.42
     14.8700	  568.00	  563.74	-1742.80	  452.47
     14.9700	  531.00	  563.74	-1779.80	  452.51
     15.0700	  507.00	  563.74	-1803.80	  452.55
     15.1700	  624.00	  563.73	-1686.80	  452.58
     15.2700	  551.00	  563.72	-1759.79	  452.60
     15.3700	  557.00	  563.71	-1753.78	  452.61
     15.4700	  562.00	  563.70	-1748.76	  452.62
     15.5700	  575.00	  563.68	-1735.74	  452.63
     15.6700	  529.00	  563.66	-1781.72	  452.62
     15.7700	  537.00	  563.63	-1773.69	  452.62
     15.8700	  547.00	  563.60	-1763.66	  452.60
     15.9700	  565.00	  563.56	-1745.63	  452.58
     16.0700	  558.00	  563.52	-1752.59	  452.56
     16.1700	  564.00	  563.48	-1746.54	  452.52
     16.2700	  554.00	  563.43	-1756.49	  452.49
     16.3700	  570.00	  563.37	-1740.44	  452.44
     16.4700	  509.00	  563.31	-1801.38	  452.39
     16.5700	  583.00	  563.25	-1727.31	  452.34
     16.6700	  549.00	  563.18	-1761.25	  452.28
     16.7700	  580.00	  563.11	-1730.17	  452.21
     16.8700	  552.00	  563.03	-1758.09	  452.14
     16.9700	  567.00	  562.95	-1743.01	  452.07
     17.0700	  556.00	  562.86	-1753.92	  451.99
     17.1700	  562.00	  562.77	-1747.83	  451.90
     17.2700	  576.00	  562.67	-1733.74	  451.81
     17.3700	  519.00	  562.57	-1790.64	  451.71
     17.4700	  507.00	  562.46	-1802.53	  451.61
     17.5700	  529.00	  562.47	-1780.53	  451.50
     17.6700	  547.00	  562.35	-1762.42	  451.39
     17.7700	  520.00	  562.24	-1789.30	  451.28
     17.8700	  550.00	  562.12	-1759.18	  451.16
     17.9700	  528.00	  561.99	-1781.06	  451.03
     18.0700	  516.00	  561.86	-1792.93	  450.90
     18.1700	  543.00	  561.82	-1765.89	  450.77
     18.2700	  595.00	  561.69	-1713.75	  450.63
     18.3700	  544.00	  561.55	-1764.61	  450.48
     18.4700	  571.00	  561.40	-1737.47	  450.34
     18.5700	  569.00	  561.25	-1739.32	  450.18
     18.6700	  586.00	  561.10	-1722.17	  450.03
     18.7700	  539.00	  560.94	-1769.01	  449.87
     18.8700	  539.00	  560.78	-1768.85	  449.70
     18.9700	  509.00	  560.62	-1798.69	  449.53
     19.0700	  545.00	  560.45	-1762.52	  449.36
     19.1700	  543.00	  560.28	-1764.35	  449.18
     19.2700	  575.00	  560.11	-1732.17	  449.00
     19.3700	  528.00	  559.93	-1779.00	  448.81
     19.4700	  564.00	  559.75	-1742.81	  448.62
     19.5700	  551.00	  559.57	-1755.63	  448.43
     19.6700	  558.00	  559.38	-1748.44	  448.23
     19.7700	  535.00	  559.19	-1771.25	  448.03
     19.8700	  551.00	  559.03	-1755.09	  447.83
     19.9700	  545.00	  558.83	-1760.90	  447.62
     20.0700	  547.00	  558.63	-1758.70	  447.41
     20.1700	  546.00	  558.43	-1759.49	  447.19
     20.2700	  568.00	  558.22	-1737.29	  446.97
     20.3700	  523.00	  558.02	-1782.08	  446.75
     20.4700	  520.00	  557.81	-1784.87	  446.52
     20.5700	  532.00	  557.60	-1772.66	  446.29
     20.6700	  537.00	  557.38	-1767.45	  446.06
     20.7700	  543.00	  557.16	-1761.23	  445.83
     20.8700	  537.00	  556.95	-1767.01	  445.59
     20.9700	  573.00	  556.72	-1730.79	  445.35
     21.0700	  572.00	  556.50	-1731.57	  445.10
     21.1700	  547.00	  556.28	-1756.34	  444.85
     21.2700	  523.00	  556.05	-1780.12	  444.60
     21.3700	  522.00	  555.83	-1780.89	  444.35
     21.4700	  541.00	  555.60	-1761.66	  444.09
     21.5700	  562.00	  555.37	-1740.44	  443.83
     21.6700	  510.00	  555.14	-1792.21	  443.57
     21.7700	  577.00	  554.91	-1724.98	  443.30
     21.8700	  579.00	  554.68	-1722.75	  443.03
     21.9700	  572.00	  554.46	-1729.52	  442.76
     22.0700	  533.00	  554.23	-1768.29	  442.49
     22.1700	  530.00	  554.00	-1771.07	  442.21
     22.2700	  545.00	  553.78	-1755.84	  441.93
     22.3700	  539.00	  553.56	-1761.62	  441.65
     22.4700	  560.00	  553.50	-1740.56	  441.37
     22.5700	  533.00	  553.29	-1767.36	  441.08
     22.6700	  572.00	  553.04	-1728.11	  440.79
     22.7700	  567.00	  552.85	-1732.92	  440.50
     22.8700	  566.00	  552.67	-1733.73	  440.21
     22.9700	  568.00	  552.49	-1731.56	  439.91
     23.0700	  574.00	  552.34	-1725.40	  439.61
     23.1700	  547.00	  552.20	-1752.26	  439.31
     23.2700	  579.00	  552.08	-1720.15	  439.01
     23.3700	  611.00	  552.00	-1688.07	  438.71
     23.4700	  522.00	  551.97	-1777.03	  438.40
     23.5700	  553.00	  551.98	-1746.05	  438.09
     23.6700	  532.00	  552.08	-1767.15	  437.78
     23.7700	  553.00	  552.31	-1746.37	  437.47
     23.8700	  565.00	  552.73	-1734.80	  437.16
     23.9700	  595.00	  553.50	-1705.56	  436.84
     24.0700	  544.00	  554.86	-1757.92	  436.52
     24.1700	  573.00	  557.19	-1731.25	  436.20
     24.2700	  598.00	  561.02	-1710.09	  435.88
     24.3700	  558.00	  566.94	-1756.00	  435.56
     24.4700	  602.00	  575.37	-1720.44	  435.23
     24.5700	  601.00	  586.29	-1732.35	  434.91
     24.6700	  642.00	  598.61	-1703.68	  434.58
     24.7700	  657.00	  609.53	-1699.60	  434.25
     24.8700	  628.00	  614.30	-1733.36	  433.92
     24.9700	  649.00	  608.57	-1706.63	  433.59
     25.0700	  592.00	  594.44	-1749.51	  433.25
     25.1700	  583.00	  579.08	-1743.15	  432.92
     25.2700	  501.00	  566.96	-1813.02	  432.58
     25.3700	  601.00	  558.90	-1704.97	  432.24
     25.4700	  595.00	  554.11	-1706.17	  431.90
     25.5700	  566.00	  551.36	-1732.42	  431.56
     25.6700	  556.00	  549.73	-1740.80	  431.22
     25.7700	  566.00	  548.68	-1729.74	  430.88
     25.8700	  553.00	  547.94	-1742.00	  430.53
     25.9700	  616.00	  547.39	-1678.46	  430.19
     26.0700	  571.00	  546.99	-1723.06	  429.84
     26.1700	  530.00	  546.71	-1763.78	  429.50
     26.2700	  586.00	  546.53	-1707.60	  429.15
     26.3700	  620.00	  546.46	-1673.52	  428.80
     26.4700	  545.00	  546.49	-1748.55	  428.45
     26.5700	  637.00	  546.63	-1656.69	  428.10
     26.6700	  584.00	  546.89	-1709.96	  427.75
     26.7700	  520.00	  547.31	-1774.37	  427.39
     26.8700	  561.00	  547.90	-1733.97	  427.04
     26.9700	  563.00	  548.72	-1732.79	  426.68
     27.0700	  561.00	  549.84	-1735.91	  426.33
     27.1700	  603.00	  551.38	-1695.44	  425.97
     27.2700	  583.00	  553.51	-1717.58	  425.62
     27.3700	  572.00	  556.63	-1731.70	  425.26
     27.4700	  549.00	  561.45	-1759.51	  424.90
     27.5700	  590.00	  569.25	-1726.32	  424.54
     27.6700	  600.00	  582.19	-1729.26	  424.19
     27.7700	  610.00	  603.29	-1740.36	  423.83
     27.8700	  614.00	  635.84	-1768.90	  423.47
     27.9700	  656.00	  681.55	-1772.62	  423.11
     28.0700	  680.00	  738.11	-1805.18	  422.74
     28.1700	  762.00	  796.53	-1781.59	  422.38
     28.2700	  931.00	  839.62	-1655.69	  422.02
     28.3700	  973.00	  847.08	-1621.15	  421.66
     28.4700	  896.00	  817.31	-1668.37	  421.30
     28.5700	  777.00	  778.76	-1748.82	  420.94
     28.6700	  750.00	  758.68	-1755.74	  420.57
     28.7700	  779.00	  764.12	-1732.19	  420.21
     28.8700	  801.00	  785.73	-1731.80	  419.85
     28.9700	  778.00	  803.08	-1772.14	  419.48
     29.0700	  765.00	  792.75	-1774.82	  419.12
     29.1700	  742.00	  748.22	-1753.28	  418.76
     29.2700	  702.00	  689.39	-1734.45	  418.39
     29.3700	  680.00	  637.37	-1704.43	  418.03
     29.4700	  665.00	  600.01	-1682.07	  417.67
     29.5700	  602.00	  576.54	-1721.60	  417.30
     29.6700	  585.00	  562.90	-1724.96	  416.94
     29.7700	  575.00	  555.10	-1727.17	  416.57
     29.8700	  584.00	  550.44	-1713.51	  416.21
     29.9700	  568.00	  547.50	-1726.56	  415.85
     30.0700	  614.00	  545.67	-1678.74	  415.48
     30.1700	  576.00	  544.84	-1715.90	  415.12
     30.2700	  588.00	  545.20	-1704.26	  414.76
     30.3700	  548.00	  547.29	-1746.35	  414.39
     30.4700	  609.00	  552.00	-1690.07	  414.03
     30.5700	  593.00	  560.42	-1714.48	  413.67
     30.6700	  511.00	  573.22	-1809.28	  413.31
     30.7700	  571.00	  589.75	-1765.81	  412.95
     30.8700	  640.00	  607.12	-1714.18	  412.58
     30.9700	  601.00	  619.77	-1765.83	  412.22
     31.0700	  653.00	  620.71	-1714.77	  411.86
     31.1700	  627.00	  607.49	-1727.55	  411.50
     31.2700	  612.00	  586.87	-1721.94	  411.14
     31.3700	  572.00	  567.28	-1742.35	  410.78
     31.4700	  534.00	  552.52	-1765.58	  410.42
     31.5700	  610.00	  542.88	-1679.94	  410.07
     31.6700	  566.00	  537.15	-1718.21	  409.71
     31.7700	  594.00	  533.86	-1686.92	  409.35
     31.8700	  574.00	  531.91	-1704.97	  408.99
     31.9700	  525.00	  530.67	-1752.73	  408.64
     32.0700	  545.00	  529.83	-1731.90	  408.28
     32.1700	  547.00	  529.28	-1729.34	  407.93
     32.2700	  550.00	  528.95	-1726.01	  407.57
     32.3700	  553.00	  528.82	-1722.88	  407.22
     32.4700	  605.00	  528.89	-1670.96	  406.87
     32.5700	  513.00	  529.18	-1763.25	  406.51
     32.6700	  535.00	  529.72	-1741.78	  406.16
     32.7700	  577.00	  530.55	-1700.61	  405.81
     32.8700	  545.00	  531.74	-1733.81	  405.46
     32.9700	  510.00	  533.42	-1770.49	  405.11
     33.0700	  533.00	  535.79	-1749.86	  404.76
     33.1700	  589.00	  539.24	-1697.30	  404.42
     33.2700	  563.00	  544.54	-1728.60	  404.07
     33.3700	  572.00	  553.22	-1728.28	  403.72
     33.4700	  568.00	  568.04	-1747.10	  403.38
     33.5700	  612.00	  593.36	-1728.42	  403.03
     33.6700	  574.00	  634.65	-1807.71	  402.69
     33.7700	  728.00	  696.17	-1715.24	  402.35
     33.8700	  788.00	  776.66	-1735.72	  402.01
     33.9700	  893.00	  864.49	-1718.55	  401.67
     34.0700	 1010.00	  935.45	-1672.51	  401.33
     34.1700	 1045.00	  957.21	-1659.27	  400.99
     34.2700	  995.00	  912.19	-1664.26	  400.65
     34.3700	  866.00	  823.13	-1704.20	  400.31
     34.4700	  691.00	  729.41	-1785.48	  399.98
     34.5700	  589.00	  653.79	-1811.86	  399.64
     34.6700	  585.00	  601.69	-1763.75	  399.31
     34.7700	  562.00	  569.52	-1754.59	  398.98
     34.8700	  584.00	  550.88	-1713.94	  398.65
     34.9700	  533.00	  540.04	-1754.10	  398.32
     35.0700	  541.00	  533.29	-1739.36	  397.99
     35.1700	  509.00	  528.65	-1766.72	  397.66
     35.2700	  515.00	  525.18	-1757.25	  397.34
     35.3700	  510.00	  522.45	-1759.51	  397.01
     35.4700	  530.00	  520.21	-1737.28	  396.69
     35.5700	  515.00	  518.83	-1750.89	  396.37
     35.6700	  573.00	  517.26	-1691.32	  396.04
     35.7700	  509.00	  515.88	-1753.95	  395.72
     35.8700	  468.00	  514.71	-1793.78	  395.41
     35.9700	  522.00	  513.68	-1738.75	  395.09
     36.0700	  531.00	  512.78	-1728.84	  394.77
     36.1700	  534.00	  511.96	-1725.02	  394.46
     36.2700	  477.00	  511.22	-1781.28	  394.14
     36.3700	  515.00	  510.55	-1742.62	  393.83
     36.4700	  450.00	  509.95	-1807.01	  393.52
     36.5700	  460.00	  509.40	-1796.47	  393.21
     36.6700	  505.00	  508.92	-1750.99	  392.90
     36.7700	  525.00	  508.50	-1730.57	  392.60
     36.8700	  454.00	  508.16	-1801.22	  392.29
     36.9700	  492.00	  507.94	-1763.00	  391.99
     37.0700	  518.00	  507.90	-1736.97	  391.69
     37.1700	  475.00	  508.18	-1780.25	  391.39
     37.2700	  476.00	  508.97	-1780.03	  391.09
     37.3700	  483.00	  510.45	-1774.51	  390.79
     37.4700	  507.00	  512.73	-1752.80	  390.49
     37.5700	  490.00	  515.67	-1772.73	  390.20
     37.6700	  533.00	  518.68	-1732.74	  389.90
     37.7700	  509.00	  520.72	-1758.79	  389.61
     37.8700	  487.00	  520.67	-1780.74	  389.32
     37.9700	  516.00	  518.45	-1749.52	  389.03
     38.0700	  537.00	  514.76	-1724.83	  388.75
     38.1700	  509.00	  511.02	-1749.09	  388.46
     38.2700	  516.00	  507.88	-1738.94	  388.18
     38.3700	  451.00	  505.51	-1801.58	  387.89
     38.4700	  499.00	  503.86	-1751.92	  387.61
     38.5700	  457.00	  502.73	-1792.79	  387.33
     38.6700	  527.00	  501.93	-1722.00	  387.06
     38.7700	  473.00	  501.33	-1775.40	  386.78
     38.8700	  529.00	  500.85	-1718.91	  386.50
     38.9700	  505.00	  500.43	-1742.50	  386.23
     39.0700	  468.00	  500.05	-1779.12	  385.96
     39.1700	  511.00	  499.71	-1735.77	  385.69
     39.2700	  486.00	  499.39	-1760.45	  385.42
     39.3700	  492.00	  498.98	-1754.04	  385.16
     39.4700	  533.00	  498.69	-1712.76	  384.89
     39.5700	  519.00	  498.42	-1726.49	  384.63
     39.6700	  532.00	  498.16	-1713.23	  384.37
     39.7700	  482.00	  497.92	-1762.98	  384.11
     39.8700	  543.00	  497.68	-1701.75	  383.85
     39.9700	  502.00	  497.46	-1742.53	  383.60
     40.0700	  499.00	  497.25	-1745.32	  383.34
     40.1700	  486.00	  496.96	-1758.03	  383.09
     40.2700	  524.00	  496.78	-1719.85	  382.84
     40.3700	  476.00	  496.61	-1767.68	  382.59
     40.4700	  480.00	  496.97	-1764.04	  382.34
     40.5700	  441.00	  496.84	-1802.91	  382.10
     40.6700	  509.00	  496.73	-1734.80	  381.85
     40.7700	  479.00	  496.65	-1764.71	  381.61
     40.8700	  435.00	  496.59	-1808.65	  381.37
     40.9700	  504.00	  496.56	-1739.62	  381.13
     41.0700	  476.00	  496.56	-1767.63	  380.90
     41.1700	  522.00	  496.61	-1721.67	  380.66
     41.2700	  489.00	  496.71	-1754.78	  380.43
     41.3700	  474.00	  496.88	-1769.95	  380.20
     41.4700	  479.00	  497.13	-1765.20	  379.97
     41.5700	  479.00	  497.50	-1765.57	  379.74
     41.6700	  485.00	  498.03	-1760.10	  379.52
     41.7700	  535.00	  498.81	-1710.88	  379.29
     41.8700	  508.00	  500.07	-1739.13	  379.07
     41.9700	  501.00	  502.05	-1748.11	  378.85
     42.0700	  522.00	  505.42	-1730.49	  378.63
     42.1700	  467.00	  511.26	-1791.33	  378.42
     42.2700	  486.00	  520.70	-1781.76	  378.20
     42.3700	  556.00	  534.93	-1725.99	  377.99
     42.4700	  546.00	  554.20	-1755.27	  377.78
     42.5700	  505.00	  577.13	-1819.20	  377.57
     42.6700	  573.00	  599.40	-1773.46	  377.36
     42.7700	  580.00	  613.98	-1781.04	  377.16
     42.8700	  612.00	  614.06	-1749.13	  376.96
     42.9700	  551.00	  599.26	-1795.33	  376.75
     43.0700	  557.00	  576.07	-1766.13	  376.55
     43.1700	  517.00	  552.47	-1782.53	  376.36
     43.2700	  515.00	  532.84	-1764.91	  376.16
     43.3700	  518.00	  518.55	-1747.61	  375.97
     43.4700	  501.00	  509.13	-1755.19	  375.78
     43.5700	  488.00	  503.34	-1762.41	  375.59
     43.6700	  492.00	  499.88	-1754.95	  375.40
     43.7700	  472.00	  497.76	-1772.83	  375.21
     43.8700	  513.00	  496.37	-1730.44	  375.03
     43.9700	  500.00	  495.38	-1742.44	  374.85
     44.0700	  471.00	  494.62	-1770.69	  374.67
     44.1700	  511.00	  494.02	-1730.09	  374.49
     44.2700	  502.00	  493.53	-1738.60	  374.31
     44.3700	  465.00	  493.34	-1775.40	  374.14
     44.4700	  482.00	  493.01	-1758.08	  373.96
     44.5700	  541.00	  492.75	-1698.81	  373.79
     44.6700	  521.00	  492.53	-1718.60	  373.62
     44.7700	  493.00	  492.36	-1746.42	  373.46
     44.8700	  519.00	  492.22	-1720.28	  373.29
     44.9700	  505.00	  492.12	-1734.18	  373.13
     45.0700	  435.00	  492.05	-1804.11	  372.97
     45.1700	  505.00	  492.00	-1734.07	  372.81
     45.2700	  515.00	  491.99	-1724.06	  372.65
     45.3700	  485.00	  492.01	-1754.07	  372.50
     45.4700	  487.00	  492.05	-1752.12	  372.34
     45.5700	  485.00	  492.13	-1754.19	  372.19
     45.6700	  488.00	  492.23	-1751.30	  372.04
     45.7700	  561.00	  492.37	-1678.43	  371.89
     45.8700	  525.00	  492.53	-1714.60	  371.75
     45.9700	  500.00	  492.81	-1739.87	  371.60
     46.0700	  489.00	  492.90	-1750.97	  371.46
     46.1700	  481.00	  493.23	-1759.30	  371.32
     46.2700	  489.00	  493.58	-1751.64	  371.18
     46.3700	  532.00	  493.98	-1709.04	  371.05
     46.4700	  449.00	  494.46	-1792.52	  370.91
     46.5700	  533.00	  495.01	-1709.07	  370.78
     46.6700	  486.00	  495.65	-1756.72	  370.65
     46.7700	  497.00	  496.42	-1746.48	  370.52
     46.8700	  494.00	  497.35	-1750.42	  370.39
     46.9700	  512.00	  498.54	-1733.60	  370.27
     47.0700	  500.00	  500.14	-1747.20	  370.15
     47.1700	  496.00	  502.44	-1753.51	  370.03
     47.2700	  465.00	  505.92	-1787.99	  369.91
     47.3700	  482.00	  511.25	-1776.31	  369.79
     47.4700	  501.00	  519.18	-1765.24	  369.68
     47.5700	  526.00	  530.31	-1751.38	  369.56
     47.6700	  555.00	  544.65	-1736.72	  369.45
     47.7700	  573.00	  561.11	-1735.18	  369.34
     47.8700	  585.00	  577.04	-1739.11	  369.23
     47.9700	  580.00	  588.27	-1755.34	  369.13
     48.0700	  551.00	  590.81	-1786.87	  369.02
     48.1700	  583.00	  584.08	-1748.14	  368.92
     48.2700	  595.00	  571.78	-1723.84	  368.82
     48.3700	  542.00	  558.94	-1764.01	  368.72
     48.4700	  518.00	  547.85	-1776.92	  368.63
     48.5700	  552.00	  540.30	-1735.36	  368.53
     48.6700	  522.00	  536.51	-1761.58	  368.44
     48.7700	  522.00	  536.09	-1761.16	  368.35
     48.8700	  525.00	  538.47	-1760.53	  368.26
     48.9700	  508.00	  543.23	-1782.29	  368.17
     49.0700	  533.00	  550.34	-1764.40	  368.09
     49.1700	  556.00	  560.37	-1751.43	  368.01
     49.2700	  535.00	  574.84	-1786.91	  367.92
     49.3700	  572.00	  596.95	-1772.01	  367.84
     49.4700	  621.00	  632.52	-1758.59	  367.77
     49.5700	  648.00	  690.98	-1790.04	  367.69
     49.6700	  715.00	  785.34	-1817.40	  367.62
     49.7700	  822.00	  930.00	-1855.06	  367.54
     49.8700	 1071.00	 1135.57	-1811.63	  367.47
     49.9700	 1292.00	 1401.07	-1856.14	  367.41
     50.0700	 1730.00	 1704.77	-1721.84	  367.34
     50.1700	 2050.00	 1996.36	-1693.42	  367.27
     50.2700	 2355.00	 2197.29	-1589.36	  367.21
     50.3700	 2255.00	 2230.46	-1722.53	  367.15
     50.4700	 2146.00	 2079.44	-1680.51	  367.09
     50.5700	 1823.00	 1807.63	-1731.69	  367.03
     50.6700	 1433.00	 1502.01	-1816.08	  366.97
     50.7700	 1127.00	 1224.57	-1844.63	  366.92
     50.8700	  898.00	 1005.23	-1854.30	  366.87
     50.9700	  798.00	  850.36	-1799.43	  366.82
     51.0700	  672.00	  750.50	-1825.57	  366.77
     51.1700	  610.00	  690.31	-1827.37	  366.72
     51.2700	  662.00	  653.80	-1738.87	  366.67
     51.3700	  596.00	  628.69	-1779.76	  366.63
     51.4700	  540.00	  608.26	-1815.33	  366.59
     51.5700	  612.00	  590.43	-1725.50	  366.55
     51.6700	  561.00	  575.16	-1761.23	  366.51
     51.7700	  545.00	  562.72	-1764.79	  366.47
     51.8700	  543.00	  553.17	-1757.24	  366.44
     51.9700	  511.00	  546.32	-1782.38	  366.40
     52.0700	  540.00	  541.77	-1748.84	  366.37
     52.1700	  539.00	  539.12	-1747.19	  366.34
     52.2700	  537.00	  538.05	-1748.11	  366.31
     52.3700	  549.00	  538.39	-1736.46	  366.28
     52.4700	  554.00	  540.27	-1733.33	  366.26
     52.5700	  578.00	  544.17	-1713.23	  366.23
     52.6700	  555.00	  551.17	-1743.24	  366.21
     52.7700	  577.00	  563.24	-1733.30	  366.19
     52.8700	  591.00	  583.45	-1739.52	  366.17
     52.9700	  637.00	  615.98	-1726.05	  366.16
     53.0700	  689.00	  665.46	-1723.53	  366.14
     53.1700	  786.00	  735.51	-1696.58	  366.13
     53.2700	  886.00	  826.64	-1687.70	  366.11
     53.3700	  971.00	  933.66	-1709.73	  366.10
     53.4700	 1027.00	 1043.32	-1763.39	  366.09
     53.5700	 1178.00	 1132.96	-1702.03	  366.09
     53.6700	 1220.00	 1175.08	-1702.14	  366.08
     53.7700	 1179.00	 1152.96	-1721.02	  366.08
     53.8700	 1007.00	 1075.40	-1815.47	  366.07
     53.9700	  966.00	  969.03	-1750.10	  366.07
     54.0700	  825.00	  859.55	-1781.61	  366.07
     54.1700	  717.00	  763.16	-1793.23	  366.07
     54.2700	  659.00	  687.15	-1775.22	  366.08
     54.3700	  674.00	  632.44	-1705.51	  366.08
     54.4700	  634.00	  596.05	-1709.11	  366.09
     54.5700	  618.00	  573.41	-1702.48	  366.09
     54.6700	  555.00	  560.09	-1752.16	  366.10
     54.7700	  565.00	  552.63	-1734.70	  366.11
     54.8700	  540.00	  548.74	-1755.80	  366.13
     54.9700	  584.00	  547.08	-1710.15	  366.14
     55.0700	  567.00	  546.96	-1727.03	  366.15
     55.1700	  566.00	  548.07	-1729.14	  366.17
     55.2700	  587.00	  550.29	-1710.36	  366.19
     55.3700	  583.00	  553.65	-1717.71	  366.21
     55.4700	  585.00	  558.26	-1720.32	  366.23
     55.5700	  552.00	  564.37	-1759.44	  366.25
     55.6700	  570.00	  572.46	-1749.53	  366.27
     55.7700	  567.00	  583.44	-1763.50	  366.30
     55.8700	  600.00	  599.02	-1746.08	  366.32
     55.9700	  636.00	  622.34	-1733.40	  366.35
     56.0700	  609.00	  658.71	-1796.77	  366.38
     56.1700	  696.00	  716.32	-1767.38	  366.41
     56.2700	  730.00	  806.19	-1823.25	  366.44
     56.3700	  918.00	  941.01	-1770.08	  366.48
     56.4700	 1077.00	 1131.59	-1801.66	  366.51
     56.5700	 1311.00	 1381.99	-1818.06	  366.54
     56.6700	 1612.00	 1683.52	-1818.58	  366.58
     56.7700	 1965.00	 2008.81	-1790.87	  366.62
     56.8700	 2338.00	 2307.34	-1716.41	  366.66
     56.9700	 2500.00	 2508.23	-1755.29	  366.70
     57.0700	 2567.00	 2546.19	-1726.25	  366.74
     57.1700	 2404.00	 2406.71	-1749.78	  366.78
     57.2700	 2182.00	 2139.55	-1704.61	  366.83
     57.3700	 1762.00	 1819.24	-1804.30	  366.87
     57.4700	 1459.00	 1506.33	-1794.39	  366.92
     57.5700	 1175.00	 1237.02	-1809.09	  366.97
     57.6700	  995.00	 1026.83	-1778.89	  367.02
     57.7700	  870.00	  876.31	-1753.38	  367.07
     57.8700	  763.00	  777.19	-1761.26	  367.12
     57.9700	  755.00	  718.03	-1710.10	  367.17
     58.0700	  752.00	  688.31	-1683.38	  367.23
     58.1700	  744.00	  680.55	-1683.62	  367.28
     58.2700	  731.00	  690.53	-1706.59	  367.34
     58.3700	  738.00	  716.42	-1725.48	  367.39
     58.4700	  756.00	  757.41	-1748.48	  367.45
     58.5700	  806.00	  812.29	-1753.35	  367.51
     58.6700	  886.00	  878.00	-1739.07	  367.57
     58.7700	 1001.00	  948.73	-1694.79	  367.63
     58.8700	 1106.00	 1016.68	-1657.75	  367.69
     58.9700	 1128.00	 1075.46	-1694.52	  367.76
     59.0700	 1285.00	 1121.75	-1583.81	  367.82
     59.1700	 1256.00	 1152.63	-1643.70	  367.89
     59.2700	 1329.00	 1164.41	-1582.47	  367.95
     59.3700	 1262.00	 1157.61	-1642.68	  368.02
     59.4700	 1238.00	 1140.73	-1649.79	  368.09
     59.5700	 1244.00	 1125.43	-1628.50	  368.16
     59.6700	 1209.00	 1120.31	-1658.38	  368.23
     59.7700	 1179.00	 1130.22	-1698.28	  368.30
     59.8700	 1190.00	 1159.40	-1716.47	  368.37
     59.9700	 1294.00	 1211.86	-1664.93	  368.45
     60.0700	 1380.00	 1287.10	-1654.16	  368.52
     60.1700	 1431.00	 1375.57	-1691.63	  368.60
     60.2700	 1586.00	 1456.99	-1618.06	  368.67
     60.3700	 1532.00	 1503.36	-1718.43	  368.75
     60.4700	 1596.00	 1490.21	-1641.28	  368.83
     60.5700	 1434.00	 1412.98	-1726.05	  368.91
     60.6700	 1373.00	 1290.07	-1664.13	  368.99
     60.7700	 1187.00	 1148.54	-1708.61	  369.07
     60.8700	 1008.00	 1010.99	-1750.05	  369.15
     60.9700	  851.00	  891.82	-1787.89	  369.23
     61.0700	  761.00	  798.19	-1784.26	  369.31
     61.1700	  712.00	  731.95	-1767.01	  369.40
     61.2700	  655.00	  691.79	-1783.85	  369.48
     61.3700	  669.00	  675.51	-1753.57	  369.57
     61.4700	  663.00	  681.61	-1765.68	  369.65
     61.5700	  709.00	  710.14	-1748.21	  369.74
     61.6700	  744.00	  762.22	-1765.28	  369.83
     61.7700	  793.00	  838.77	-1792.84	  369.91
     61.8700	  965.00	  938.59	-1720.65	  370.00
     61.9700	  963.00	 1056.39	-1840.45	  370.09
     62.0700	 1170.00	 1181.10	-1758.16	  370.18
     62.1700	 1212.00	 1294.60	-1829.67	  370.27
     62.2700	 1235.00	 1373.00	-1885.06	  370.36
     62.3700	 1299.00	 1393.92	-1841.98	  370.46
     62.4700	 1312.00	 1349.94	-1785.01	  370.55
     62.5700	 1168.00	 1254.27	-1833.33	  370.64
     62.6700	 1062.00	 1131.15	-1816.22	  370.74
     62.7700	  929.00	 1002.99	-1821.05	  370.83
     62.8700	  848.00	  885.38	-1784.45	  370.93
     62.9700	  822.00	  786.95	-1712.01	  371.02
     63.0700	  686.00	  710.65	-1771.72	  371.12
     63.1700	  639.00	  655.48	-1763.54	  371.22
     63.2700	  593.00	  617.94	-1772.01	  371.31
     63.3700	  618.00	  593.93	-1722.99	  371.41
     63.4700	  560.00	  579.67	-1766.73	  371.51
     63.5700	  570.00	  572.35	-1749.42	  371.61
     63.6700	  582.00	  570.44	-1735.50	  371.71
     63.7700	  629.00	  573.50	-1691.57	  371.81
     63.8700	  608.00	  582.08	-1721.15	  371.91
     63.9700	  606.00	  597.38	-1738.44	  372.01
     64.0700	  624.00	  620.89	-1743.96	  372.11
     64.1700	  704.00	  653.97	-1697.03	  372.21
     64.2700	  745.00	  696.98	-1699.04	  372.31
     64.3700	  792.00	  749.01	-1704.08	  372.42
     64.4700	  910.00	  806.98	-1644.05	  372.52
     64.5700	  910.00	  865.21	-1702.27	  372.62
     64.6700	 1014.00	  915.43	-1648.49	  372.73
     64.7700	 1010.00	  948.50	-1685.57	  372.83
     64.8700	  998.00	  958.05	-1707.11	  372.93
     64.9700	  981.00	  943.29	-1709.35	  373.04
     65.0700	  938.00	  908.80	-1717.86	  373.14
     65.1700	  874.00	  862.42	-1735.48	  373.25
     65.2700	  853.00	  811.51	-1705.58	  373.35
     65.3700	  743.00	  763.39	-1767.45	  373.46
     65.4700	  722.00	  720.98	-1746.05	  373.56
     65.5700	  654.00	  685.12	-1778.18	  373.67
     65.6700	  657.00	  655.28	-1745.35	  373.78
     65.7700	  608.00	  630.70	-1769.77	  373.88
     65.8700	  674.00	  610.82	-1683.89	  373.99
     65.9700	  593.00	  595.22	-1749.28	  374.10
     66.0700	  565.00	  583.41	-1765.47	  374.20
     66.1700	  599.00	  574.93	-1723.00	  374.31
     66.2700	  558.00	  569.36	-1758.43	  374.42
     66.3700	  521.00	  566.35	-1792.41	  374.53
     66.4700	  567.00	  565.73	-1745.79	  374.63
     66.5700	  575.00	  567.25	-1739.31	  374.74
     66.6700	  564.00	  570.69	-1753.75	  374.85
     66.7700	  513.00	  576.49	-1810.56	  374.96
     66.8700	  551.00	  585.35	-1781.41	  375.07
     66.9700	  638.00	  598.62	-1707.68	  375.17
     67.0700	  612.00	  618.64	-1753.70	  375.28
     67.1700	  579.00	  649.00	-1817.07	  375.39
     67.2700	  674.00	  694.82	-1767.88	  375.50
     67.3700	  749.00	  762.26	-1760.33	  375.61
     67.4700	  833.00	  858.38	-1772.44	  375.71
     67.5700	  994.00	  989.49	-1742.55	  375.82
     67.6700	 1142.00	 1159.31	-1764.38	  375.93
     67.7700	 1347.00	 1366.68	-1766.74	  376.04
     67.8700	 1597.00	 1603.36	-1753.42	  376.15
     67.9700	 1835.00	 1852.19	-1764.26	  376.26
     68.0700	 2065.00	 2085.97	-1768.03	  376.36
     68.1700	 2299.00	 2268.16	-1716.22	  376.47
     68.2700	 2352.00	 2360.29	-1755.36	  376.58
     68.3700	 2392.00	 2338.71	-1693.77	  376.69
     68.4700	 2169.00	 2209.27	-1787.34	  376.79
     68.5700	 1990.00	 2003.44	-1760.50	  376.90
     68.6700	 1794.00	 1760.50	-1713.57	  377.01
     68.7700	 1502.00	 1513.96	-1759.02	  377.12
     68.8700	 1273.00	 1287.18	-1761.24	  377.22
     68.9700	 1042.00	 1093.81	-1798.87	  377.33
     69.0700	  919.00	  939.14	-1767.20	  377.44
     69.1700	  811.00	  822.24	-1758.31	  377.54
     69.2700	  755.00	  738.17	-1730.24	  377.65
     69.3700	  693.00	  680.15	-1734.21	  377.75
     69.4700	  638.00	  641.32	-1750.39	  377.86
     69.5700	  617.00	  615.77	-1745.84	  377.97
     69.6700	  591.00	  598.81	-1754.87	  378.07
     69.7700	  576.00	  587.63	-1758.69	  378.17
     69.8700	  568.00	  580.04	-1759.11	  378.28
     69.9700	  533.00	  574.82	-1788.88	  378.38
     70.0700	  565.00	  571.26	-1753.33	  378.49
     70.1700	  593.00	  568.99	-1723.06	  378.59
     70.2700	  588.00	  567.83	-1726.90	  378.69
     70.3700	  589.00	  567.72	-1725.79	  378.80
     70.4700	  596.00	  568.73	-1719.79	  378.90
     70.5700	  553.00	  571.06	-1765.13	  379.00
     70.6700	  616.00	  575.08	-1706.15	  379.10
     70.7700	  627.00	  582.46	-1702.53	  379.20
     70.8700	  581.00	  592.51	-1758.57	  379.30
     70.9700	  605.00	  607.98	-1750.05	  379.40
     71.0700	  635.00	  631.50	-1743.57	  379.50
     71.1700	  633.00	  666.56	-1780.62	  379.60
     71.2700	  703.00	  717.33	-1761.39	  379.70
     71.3700	  757.00	  788.30	-1778.36	  379.80
     71.4700	  886.00	  883.34	-1744.41	  379.90
     71.5700	 1015.00	 1004.72	-1736.79	  380.00
     71.6700	 1142.00	 1151.70	-1756.76	  380.09
     71.7700	 1329.00	 1319.34	-1737.41	  380.19
     71.8700	 1521.00	 1497.62	-1723.69	  380.28
     71.9700	 1604.00	 1670.54	-1813.61	  380.38
     72.0700	 1752.00	 1816.44	-1811.50	  380.47
     72.1700	 1864.00	 1910.56	-1793.62	  380.57
     72.2700	 1882.00	 1932.86	-1797.92	  380.66
     72.3700	 1760.00	 1878.01	-1865.08	  380.75
     72.4700	 1739.00	 1758.63	-1766.69	  380.85
     72.5700	 1579.00	 1597.96	-1766.03	  380.94
     72.6700	 1487.00	 1420.09	-1680.16	  381.03
     72.7700	 1271.00	 1244.40	-1720.46	  381.12
     72.8700	 1157.00	 1084.14	-1674.21	  381.21
     72.9700	  989.00	  947.08	-1705.14	  381.30
     73.0700	  836.00	  836.09	-1747.16	  381.39
     73.1700	  791.00	  750.50	-1706.57	  381.47
     73.2700	  733.00	  687.25	-1701.31	  381.56
     73.3700	  650.00	  642.09	-1739.16	  381.65
     73.4700	  650.00	  610.69	-1707.76	  381.73
     73.5700	  617.00	  589.15	-1719.21	  381.82
     73.6700	  640.00	  574.38	-1681.45	  381.90
     73.7700	  543.00	  563.65	-1767.72	  381.98
     73.8700	  583.00	  556.45	-1720.51	  382.06
     73.9700	  548.00	  551.30	-1750.36	  382.15
     74.0700	  624.00	  547.61	-1670.68	  382.23
     74.1700	  516.00	  545.02	-1776.09	  382.31
     74.2700	  592.00	  543.28	-1698.35	  382.39
     74.3700	  552.00	  542.21	-1737.27	  382.46
     74.4700	  586.00	  541.61	-1702.67	  382.54
     74.5700	  564.00	  541.28	-1724.35	  382.62
     74.6700	  612.00	  541.02	-1676.08	  382.69
     74.7700	  590.00	  540.57	-1697.64	  382.77
     74.8700	  651.00	  539.76	-1635.83	  382.84
     74.9700	  614.00	  538.54	-1671.60	  382.92
     75.0700	  651.00	  537.00	-1633.07	  382.99
     75.1700	  621.00	  535.39	-1661.45	  383.06
     75.2700	  576.00	  533.99	-1705.05	  383.13
     75.3700	  606.00	  533.12	-1674.19	  383.20
     75.4700	  575.00	  533.12	-1705.19	  383.27
     75.5700	  557.00	  534.38	-1724.44	  383.33
     75.6700	  537.00	  537.30	-1747.36	  383.40
     75.7700	  589.00	  542.32	-1700.38	  383.47
     75.8700	  545.00	  549.87	-1751.94	  383.53
     75.9700	  582.00	  560.25	-1725.31	  383.59
     76.0700	  601.00	  573.72	-1719.78	  383.66
     76.1700	  573.00	  590.10	-1764.17	  383.72
     76.2700	  585.00	  608.90	-1770.97	  383.78
     76.3700	  706.00	  629.15	-1670.21	  383.84
     76.4700	  654.00	  649.34	-1742.41	  383.90
     76.5700	  665.00	  667.36	-1749.42	  383.95
     76.6700	  661.00	  680.95	-1767.01	  384.01
     76.7700	  702.00	  687.69	-1732.75	  384.06
     76.8700	  638.00	  686.20	-1795.27	  384.12
     76.9700	  730.00	  676.74	-1693.81	  384.17
     77.0700	  625.00	  661.05	-1783.12	  384.22
     77.1700	  650.00	  641.56	-1738.63	  384.27
     77.2700	  626.00	  620.56	-1741.62	  384.32
     77.3700	  563.00	  600.00	-1784.06	  384.37
     77.4700	  594.00	  581.15	-1734.21	  384.42
     77.5700	  558.00	  564.81	-1753.88	  384.46
     77.6700	  509.00	  551.33	-1789.39	  384.51
     77.7700	  540.00	  540.68	-1747.74	  384.55
     77.8700	  511.00	  532.60	-1768.66	  384.60
     77.9700	  480.00	  526.67	-1793.74	  384.64
     78.0700	  482.00	  522.24	-1787.30	  384.68
     78.1700	  526.00	  519.30	-1740.36	  384.72
     78.2700	  480.00	  517.27	-1784.34	  384.75
     78.3700	  517.00	  515.89	-1745.95	  384.79
     78.4700	  504.00	  514.93	-1758.00	  384.83
     78.5700	  510.00	  514.28	-1751.35	  384.86
     78.6700	  503.00	  513.84	-1757.91	  384.89
     78.7700	  478.00	  513.58	-1782.64	  384.92
     78.8700	  503.00	  513.45	-1757.52	  384.95
     78.9700	  528.00	  513.48	-1732.54	  384.98
     79.0700	  496.00	  513.66	-1764.72	  385.01
     79.1700	  522.00	  514.01	-1739.08	  385.04
     79.2700	  479.00	  514.58	-1782.64	  385.06
     79.3700	  520.00	  515.39	-1742.46	  385.09
     79.4700	  569.00	  516.49	-1694.56	  385.11
     79.5700	  520.00	  517.93	-1745.00	  385.13
     79.6700	  463.00	  519.76	-1803.83	  385.15
     79.7700	  500.00	  522.04	-1769.10	  385.17
     79.8700	  500.00	  524.82	-1771.88	  385.18
     79.9700	  481.00	  528.19	-1794.25	  385.20
     80.0700	  537.00	  532.23	-1742.30	  385.21
     80.1700	  517.00	  537.06	-1767.12	  385.23
     80.2700	  494.00	  542.79	-1795.85	  385.24
     80.3700	  540.00	  549.59	-1756.66	  385.25
     80.4700	  537.00	  557.69	-1767.76	  385.26
     80.5700	  610.00	  567.11	-1704.17	  385.27
     80.6700	  572.00	  578.42	-1753.48	  385.27
     80.7700	  599.00	  591.42	-1739.48	  385.28
     80.8700	  608.00	  605.88	-1744.95	  385.28
     80.9700	  655.00	  621.30	-1713.36	  385.28
     81.0700	  675.00	  636.88	-1708.95	  385.28
     81.1700	  660.00	  651.68	-1738.75	  385.28
     81.2700	  656.00	  664.74	-1755.80	  385.28
     81.3700	  743.00	  675.25	-1679.31	  385.27
     81.4700	  735.00	  682.63	-1694.69	  385.27
     81.5700	  720.00	  686.50	-1713.57	  385.26
     81.6700	  765.00	  686.75	-1668.82	  385.25
     81.7700	  684.00	  683.46	-1746.52	  385.24
     81.8700	  689.00	  676.83	-1734.90	  385.23
     81.9700	  681.00	  667.19	-1733.26	  385.22
     82.0700	  694.00	  655.06	-1708.13	  385.21
     82.1700	  702.00	  641.20	-1686.27	  385.19
     82.2700	  628.00	  626.53	-1745.60	  385.17
     82.3700	  679.00	  611.87	-1679.93	  385.15
     82.4700	  645.00	  597.82	-1699.88	  385.13
     82.5700	  592.00	  584.77	-1739.84	  385.11
     82.6700	  598.00	  572.99	-1722.06	  385.09
     82.7700	  569.00	  562.67	-1740.74	  385.06
     82.8700	  552.00	  553.97	-1749.04	  385.04
     82.9700	  535.00	  547.01	-1759.07	  385.01
     83.0700	  512.00	  541.82	-1776.88	  384.98
     83.1700	  538.00	  538.40	-1747.47	  384.95
     83.2700	  523.00	  536.70	-1760.76	  384.92
     83.3700	  514.00	  536.63	-1769.69	  384.88
     83.4700	  531.00	  538.04	-1754.11	  384.85
     83.5700	  533.00	  540.76	-1754.82	  384.81
     83.6700	  538.00	  544.51	-1753.58	  384.77
     83.7700	  532.00	  548.90	-1763.96	  384.73
     83.8700	  533.00	  553.63	-1767.69	  384.69
     83.9700	  549.00	  558.09	-1756.15	  384.65
     84.0700	  550.00	  561.79	-1758.85	  384.60
     84.1700	  564.00	  564.12	-1747.19	  384.55
     84.2700	  558.00	  564.66	-1753.72	  384.51
     84.3700	  571.00	  563.23	-1739.30	  384.46
     84.4700	  574.00	  560.01	-1733.07	  384.40
     84.5700	  584.00	  555.41	-1718.47	  384.35
     84.6700	  590.00	  549.94	-1707.00	  384.30
     84.7700	  568.00	  544.11	-1723.17	  384.24
     84.8700	  488.00	  538.32	-1797.39	  384.18
     84.9700	  535.00	  532.89	-1744.96	  384.12
     85.0700	  550.00	  528.06	-1725.12	  384.06
     85.1700	  482.00	  523.92	-1788.99	  384.00
     85.2700	  509.00	  520.53	-1758.60	  383.93
     85.3700	  475.00	  517.86	-1789.93	  383.87
     85.4700	  514.00	  515.86	-1748.93	  383.80
     85.5700	  483.00	  514.45	-1778.51	  383.73
     85.6700	  518.00	  513.53	-1742.59	  383.66
     85.7700	  494.00	  513.04	-1766.10	  383.59
     85.8700	  494.00	  512.94	-1766.00	  383.51
     85.9700	  518.00	  513.21	-1742.28	  383.44
     86.0700	  533.00	  513.89	-1727.96	  383.36
     86.1700	  498.00	  515.04	-1764.11	  383.28
     86.2700	  517.00	  516.76	-1746.83	  383.20
     86.3700	  513.00	  519.19	-1753.26	  383.12
     86.4700	  565.00	  522.50	-1704.56	  383.04
     86.5700	  531.00	  526.85	-1742.91	  382.95
     86.6700	  531.00	  532.40	-1748.47	  382.86
     86.7700	  494.00	  539.27	-1792.34	  382.77
     86.8700	  517.00	  547.51	-1777.58	  382.68
     86.9700	  582.00	  557.06	-1722.12	  382.59
     87.0700	  566.00	  567.72	-1748.79	  382.50
     87.1700	  571.00	  579.16	-1755.22	  382.40
     87.2700	  537.00	  590.86	-1800.93	  382.31
     87.3700	  594.00	  602.16	-1755.23	  382.21
     87.4700	  573.00	  612.23	-1786.30	  382.11
     87.5700	  662.00	  620.14	-1705.21	  382.01
     87.6700	  654.00	  625.05	-1718.12	  381.90
     87.7700	  632.00	  626.38	-1741.45	  381.80
     87.8700	  593.00	  624.05	-1778.11	  381.69
     87.9700	  596.00	  618.50	-1769.56	  381.58
     88.0700	  555.00	  610.55	-1802.61	  381.47
     88.1700	  624.00	  601.16	-1724.23	  381.36
     88.2700	  617.00	  591.29	-1721.36	  381.25
     88.3700	  567.00	  581.38	-1761.45	  381.13
     88.4700	  581.00	  572.93	-1738.99	  381.01
     88.5700	  592.00	  566.05	-1721.12	  380.90
     88.6700	  578.00	  561.10	-1730.16	  380.78
     88.7700	  556.00	  558.23	-1749.29	  380.65
     88.8700	  565.00	  557.43	-1739.50	  380.53
     88.9700	  543.00	  558.54	-1762.60	  380.41
     89.0700	  532.00	  561.23	-1776.30	  380.28
     89.1700	  600.00	  565.09	-1712.16	  380.15
     89.2700	  562.00	  569.59	-1754.66	  380.02
     89.3700	  571.00	  574.11	-1750.18	  379.89
     89.4700	  622.00	  578.02	-1703.08	  379.76
     89.5700	  615.00	  580.67	-1712.74	  379.62
     89.6700	  558.00	  581.58	-1770.65	  379.49
     89.7700	  575.00	  580.48	-1752.54	  379.35
     89.8700	  607.00	  577.41	-1717.47	  379.21
     89.9700	  564.00	  572.69	-1755.75	  379.07
     90.0700	  568.00	  566.78	-1745.85	  378.93
     90.1700	  552.00	  560.19	-1755.26	  378.78
     90.2700	  550.00	  553.38	-1750.45	  378.64
     90.3700	  561.00	  546.73	-1732.79	  378.49
     90.4700	  540.00	  540.53	-1747.59	  378.34
     90.5700	  529.00	  534.98	-1753.05	  378.19
     90.6700	  493.00	  530.21	-1784.28	  378.04
     90.7700	  550.00	  526.27	-1723.33	  377.89
     90.8700	  503.00	  523.14	-1767.21	  377.73
     90.9700	  506.00	  520.78	-1761.85	  377.58
     91.0700	  448.00	  519.13	-1818.19	  377.42
     91.1700	  481.00	  518.09	-1784.16	  377.26
     91.2700	  463.00	  517.61	-1801.67	  377.10
     91.3700	  505.00	  517.63	-1759.70	  376.93
     91.4700	  518.00	  518.15	-1747.22	  376.77
     91.5700	  452.00	  519.18	-1814.24	  376.60
     91.6700	  506.00	  520.76	-1761.83	  376.44
     91.7700	  496.00	  523.00	-1774.07	  376.27
     91.8700	  497.00	  526.02	-1776.08	  376.10
     91.9700	  540.00	  529.97	-1737.04	  375.93
     92.0700	  538.00	  535.03	-1744.10	  375.75
     92.1700	  567.00	  541.38	-1721.45	  375.58
     92.2700	  484.00	  549.19	-1812.26	  375.40
     92.3700	  506.00	  558.61	-1799.67	  375.22
     92.4700	  559.00	  569.72	-1757.78	  375.04
     92.5700	  551.00	  582.54	-1778.60	  374.86
     92.6700	  588.00	  597.00	-1756.07	  374.68
     92.7700	  598.00	  612.94	-1762.01	  374.50
     92.8700	  646.00	  630.06	-1731.13	  374.31
     92.9700	  626.00	  647.94	-1769.01	  374.13
     93.0700	  625.00	  666.04	-1788.10	  373.94
     93.1700	  661.00	  683.72	-1769.79	  373.75
     93.2700	  697.00	  700.36	-1750.42	  373.56
     93.3700	  713.00	  715.45	-1749.51	  373.37
     93.4700	  728.00	  728.76	-1747.83	  373.17
     93.5700	  689.00	  740.43	-1798.50	  372.98
     93.6700	  770.00	  750.53	-1727.59	  372.78
     93.7700	  714.00	  760.11	-1793.18	  372.59
     93.8700	  766.00	  769.30	-1750.36	  372.39
     93.9700	  802.00	  778.37	-1723.43	  372.19
     94.0700	  786.00	  787.53	-1748.60	  371.99
     94.1700	  829.00	  796.99	-1715.06	  371.78
     94.2700	  843.00	  807.00	-1711.07	  371.58
     94.3700	  841.00	  817.83	-1723.89	  371.37
     94.4700	  877.00	  829.63	-1699.69	  371.17
     94.5700	  881.00	  842.28	-1708.34	  370.96
     94.6700	  833.00	  855.28	-1769.35	  370.75
     94.7700	  897.00	  867.73	-1717.79	  370.54
     94.8700	  877.00	  878.34	-1748.41	  370.33
     94.9700	  933.00	  885.63	-1699.69	  370.12
     95.0700	  872.00	  888.10	-1763.16	  369.90
     95.1700	  937.00	  884.62	-1694.69	  369.69
     95.2700	  852.00	  874.78	-1769.84	  369.47
     95.3700	  909.00	  858.97	-1697.03	  369.25
     95.4700	  848.00	  838.36	-1737.42	  369.03
     95.5700	  811.00	  814.57	-1750.64	  368.81
     95.6700	  824.00	  789.41	-1712.47	  368.59
     95.7700	  777.00	  764.64	-1734.71	  368.37
     95.8700	  739.00	  741.94	-1750.00	  368.15
     95.9700	  687.00	  722.81	-1782.87	  367.92
     96.0700	  690.00	  708.61	-1765.67	  367.70
     96.1700	  705.00	  700.54	-1742.61	  367.47
     96.2700	  711.00	  699.66	-1735.72	  367.24
     96.3700	  687.00	  706.83	-1766.89	  367.01
     96.4700	  723.00	  722.76	-1746.82	  366.78
     96.5700	  700.00	  747.93	-1795.00	  366.55
     96.6700	  790.00	  782.58	-1739.65	  366.32
     96.7700	  825.00	  826.63	-1748.70	  366.09
     96.8700	  870.00	  879.61	-1756.67	  365.85
     96.9700	  967.00	  940.59	-1720.65	  365.62
     97.0700	 1015.00	 1008.15	-1740.21	  365.38
     97.1700	 1047.00	 1080.30	-1780.36	  365.15
     97.2700	 1163.00	 1154.45	-1738.51	  364.91
     97.3700	 1222.00	 1227.42	-1752.49	  364.67
     97.4700	 1264.00	 1295.49	-1778.55	  364.43
     97.5700	 1351.00	 1354.56	-1750.62	  364.19
     97.6700	 1394.00	 1400.51	-1753.57	  363.95
     97.7700	 1408.00	 1429.76	-1768.82	  363.71
     97.8700	 1425.00	 1439.98	-1762.05	  363.46
     97.9700	 1393.00	 1430.68	-1784.74	  363.22
     98.0700	 1353.00	 1403.24	-1797.30	  362.97
     98.1700	 1328.00	 1360.54	-1779.61	  362.73
     98.2700	 1274.00	 1306.37	-1779.43	  362.48
     98.3700	 1226.00	 1244.74	-1765.80	  362.24
     98.4700	 1169.00	 1179.57	-1757.63	  361.99
     98.5700	 1116.00	 1114.41	-1745.47	  361.74
     98.6700	 1045.00	 1052.34	-1754.40	  361.49
     98.7700	 1009.00	  995.99	-1734.06	  361.24
     98.8700	  951.00	  947.53	-1743.59	  360.99
     98.9700	  912.00	  908.68	-1743.74	  360.74
     99.0700	  851.00	  880.80	-1776.87	  360.49
     99.1700	  912.00	  864.91	-1699.97	  360.24
     99.2700	  779.00	  861.72	-1829.79	  359.98
     99.3700	  829.00	  871.69	-1789.76	  359.73
     99.4700	  936.00	  895.00	-1706.07	  359.48
     99.5700	  940.00	  931.61	-1738.67	  359.22
     99.6700	  960.00	  981.18	-1768.24	  358.97
     99.7700	 1138.00	 1043.08	-1652.15	  358.71
     99.8700	 1132.00	 1116.34	-1731.40	  358.45
     99.9700	 1135.00	 1199.61	-1811.67	  358.20
    100.0700	 1287.00	 1291.01	-1751.07	  357.94
    100.1700	 1347.00	 1388.12	-1788.19	  357.68
    100.2700	 1442.00	 1487.95	-1793.02	  357.43
    100.3700	 1658.00	 1587.03	-1676.09	  357.17
    100.4700	 1711.00	 1681.53	-1717.59	  356.91
    100.5700	 1757.00	 1767.73	-1757.80	  356.65
    100.6700	 1787.00	 1842.38	-1802.44	  356.39
    100.7700	 1984.00	 1902.96	-1666.02	  356.13
    100.8700	 1978.00	 1947.81	-1716.88	  355.87
    100.9700	 1960.00	 1975.90	-1762.96	  355.61
    101.0700	 1993.00	 1986.51	-1740.58	  355.35
    101.1700	 2032.00	 1979.23	-1694.29	  355.09
    101.2700	 1905.00	 1954.06	-1796.12	  354.83
    101.3700	 1940.00	 1911.84	-1718.91	  354.57
    101.4700	 1806.00	 1854.64	-1795.71	  354.31
    101.5700	 1850.00	 1785.66	-1682.73	  354.05
    101.6700	 1690.00	 1708.94	-1766.01	  353.79
    101.7700	 1587.00	 1628.80	-1788.87	  353.53
    101.8700	 1625.00	 1549.24	-1671.31	  353.27
    101.9700	 1434.00	 1473.65	-1786.71	  353.01
    102.0700	 1371.00	 1404.54	-1780.60	  352.75
    102.1700	 1396.00	 1343.56	-1694.62	  352.49
    102.2700	 1255.00	 1291.47	-1783.54	  352.22
    102.3700	 1289.00	 1248.22	-1706.29	  351.96
    102.4700	 1206.00	 1213.00	-1754.06	  351.70
    102.5700	 1179.00	 1184.34	-1752.41	  351.44
    102.6700	 1176.00	 1160.30	-1731.36	  351.18
    102.7700	 1161.00	 1138.61	-1724.68	  350.92
    102.8700	 1102.00	 1117.01	-1762.07	  350.66
    102.9700	 1054.00	 1093.51	-1786.57	  350.40
    103.0700	 1043.00	 1066.71	-1770.78	  350.14
    103.1700	 1064.00	 1035.97	-1719.03	  349.88
    103.2700	 1061.00	 1001.37	-1687.44	  349.63
    103.3700	  969.00	  963.56	-1741.62	  349.37
    103.4700	  958.00	  923.51	-1712.58	  349.11
    103.5700	  849.00	  882.34	-1780.40	  348.85
    103.6700	  814.00	  841.11	-1774.17	  348.60
    103.7700	  830.00	  800.83	-1717.90	  348.34
    103.8700	  755.00	  762.37	-1754.43	  348.08
    103.9700	  750.00	  726.41	-1723.47	  347.83
    104.0700	  676.00	  693.46	-1764.53	  347.57
    104.1700	  704.00	  663.87	-1706.94	  347.32
    104.2700	  623.00	  637.80	-1761.86	  347.06
    104.3700	  575.00	  615.25	-1787.32	  346.81
    104.4700	  653.00	  596.12	-1690.19	  346.56
    104.5700	  556.00	  580.19	-1771.26	  346.31
    104.6700	  566.00	  567.16	-1748.23	  346.05
    104.7700	  564.00	  556.72	-1739.79	  345.80
    104.8700	  555.00	  548.53	-1740.59	  345.55
    104.9700	  583.00	  542.26	-1706.33	  345.31
    105.0700	  574.00	  537.63	-1710.69	  345.06
    105.1700	  550.00	  534.36	-1731.42	  344.81
    105.2700	  523.00	  532.24	-1756.30	  344.57
    105.3700	  548.00	  531.09	-1730.15	  344.32
    105.4700	  530.00	  530.78	-1747.84	  344.08
    105.5700	  521.00	  531.21	-1757.28	  343.83
    105.6700	  498.00	  532.33	-1781.40	  343.59
    105.7700	  558.00	  534.11	-1723.17	  343.35
    105.8700	  545.00	  536.53	-1738.59	  343.11
    105.9700	  525.00	  539.64	-1761.70	  342.87
    106.0700	  531.00	  543.47	-1759.53	  342.63
    106.1700	  546.00	  548.06	-1749.12	  342.40
    106.2700	  609.00	  553.47	-1691.53	  342.16
    106.3700	  547.00	  559.71	-1759.77	  341.93
    106.4700	  554.00	  566.81	-1759.88	  341.70
    106.5700	  570.00	  574.74	-1751.80	  341.46
    106.6700	  565.00	  583.40	-1765.46	  341.23
    106.7700	  558.00	  592.68	-1781.74	  341.01
    106.8700	  606.00	  602.40	-1743.47	  340.78
    106.9700	  600.00	  612.35	-1759.41	  340.55
    107.0700	  604.00	  622.23	-1765.30	  340.33
    107.1700	  670.00	  631.78	-1708.85	  340.11
    107.2700	  632.00	  640.67	-1755.73	  339.89
    107.3700	  605.00	  648.56	-1790.63	  339.67
    107.4700	  675.00	  655.18	-1727.25	  339.45
    107.5700	  681.00	  660.35	-1726.42	  339.23
    107.6700	  681.00	  664.01	-1730.07	  339.02
    107.7700	  639.00	  666.24	-1774.31	  338.81
    107.8700	  690.00	  667.30	-1724.36	  338.60
    107.9700	  676.00	  667.52	-1738.58	  338.39
    108.0700	  664.00	  667.28	-1750.35	  338.18
    108.1700	  671.00	  666.98	-1743.04	  337.98
    108.2700	  672.00	  666.93	-1742.00	  337.77
    108.3700	  629.00	  667.40	-1785.46	  337.57
    108.4700	  667.00	  668.53	-1748.60	  337.37
    108.5700	  690.00	  670.40	-1727.46	  337.18
    108.6700	  719.00	  672.93	-1701.00	  336.98
    108.7700	  714.00	  675.99	-1709.06	  336.79
    108.8700	  671.00	  679.32	-1755.38	  336.60
    108.9700	  674.00	  682.57	-1755.63	  336.41
    109.0700	  705.00	  685.34	-1727.40	  336.23
    109.1700	  679.00	  687.19	-1755.26	  336.04
    109.2700	  695.00	  687.71	-1739.77	  335.86
    109.3700	  706.00	  686.54	-1727.60	  335.68
    109.4700	  664.00	  683.47	-1766.53	  335.51
    109.5700	  675.00	  678.43	-1750.50	  335.33
    109.6700	  703.00	  671.54	-1715.60	  335.16
    109.7700	  689.00	  663.02	-1721.08	  334.99
    109.8700	  622.00	  653.20	-1778.26	  334.83
    109.9700	  655.00	  642.45	-1734.51	  334.66
    110.0700	  644.00	  631.15	-1734.21	  334.50
    110.1700	  604.00	  619.65	-1762.71	  334.35
    110.2700	  614.00	  608.25	-1741.32	  334.19
    110.3700	  596.00	  597.27	-1748.34	  334.04
    110.4700	  608.00	  586.92	-1725.98	  333.89
    110.5700	  587.00	  577.38	-1737.44	  333.74
    110.6700	  560.00	  568.79	-1755.85	  333.60
    110.7700	  570.00	  561.23	-1738.30	  333.46
    110.8700	  612.00	  554.75	-1689.82	  333.32
    110.9700	  550.00	  549.36	-1746.42	  333.19
    111.0700	  556.00	  545.02	-1736.08	  333.06
    111.1700	  570.00	  541.68	-1718.75	  332.93
    111.2700	  526.00	  539.28	-1760.34	  332.80
    111.3700	  549.00	  537.72	-1735.78	  332.68
    111.4700	  560.00	  536.92	-1723.98	  332.56
    111.5700	  568.00	  536.79	-1715.85	  332.45
    111.6700	  535.00	  537.23	-1749.30	  332.34
    111.7700	  537.00	  538.18	-1748.24	  332.23
    111.8700	  589.00	  539.55	-1697.62	  332.12
    111.9700	  570.00	  541.29	-1718.35	  332.02
    112.0700	  519.00	  543.33	-1771.40	  331.93
    112.1700	  497.00	  545.65	-1795.71	  331.83
    112.2700	  507.00	  548.21	-1788.27	  331.74
    112.3700	  548.00	  551.00	-1750.07	  331.66
    112.4700	  535.00	  554.02	-1766.09	  331.58
    112.5700	  582.00	  557.29	-1722.36	  331.50
    112.6700	  549.00	  560.84	-1758.90	  331.42
    112.7700	  559.00	  564.69	-1752.76	  331.35
    112.8700	  581.00	  568.92	-1734.98	  331.29
    112.9700	  609.00	  573.58	-1711.64	  331.22
    113.0700	  594.00	  578.76	-1731.82	  331.16
    113.1700	  636.00	  584.57	-1695.64	  331.11
    113.2700	  628.00	  591.16	-1710.23	  331.06
    113.3700	  628.00	  598.71	-1717.77	  331.02
    113.4700	  639.00	  607.44	-1715.50	  330.97
    113.5700	  644.00	  617.63	-1720.70	  330.94
    113.6700	  611.00	  629.67	-1765.73	  330.90
    113.7700	  648.00	  644.00	-1743.07	  330.88
    113.8700	  645.00	  661.21	-1763.28	  330.85
    113.9700	  681.00	  682.00	-1748.06	  330.83
    114.0700	  703.00	  707.21	-1751.28	  330.82
    114.1700	  734.00	  737.89	-1750.95	  330.81
    114.2700	  812.00	  775.24	-1710.31	  330.81
    114.3700	  846.00	  820.68	-1721.74	  330.81
    114.4700	  878.00	  875.80	-1744.87	  330.81
    114.5700	  932.00	  942.39	-1757.46	  330.82
    114.6700	  974.00	 1022.42	-1795.49	  330.83
    114.7700	 1171.00	 1118.00	-1694.06	  330.85
    114.8700	 1307.00	 1231.27	-1671.33	  330.88
    114.9700	 1406.00	 1364.41	-1705.47	  330.91
    115.0700	 1562.00	 1519.46	-1704.53	  330.94
    115.1700	 1756.00	 1698.32	-1689.39	  330.98
    115.2700	 1967.00	 1902.56	-1682.62	  331.03
    115.3700	 2244.00	 2133.21	-1636.28	  331.08
    115.4700	 2358.00	 2390.80	-1779.87	  331.14
    115.5700	 2784.00	 2675.01	-1638.07	  331.20
    115.6700	 3070.00	 2984.75	-1661.81	  331.27
    115.7700	 3419.00	 3317.99	-1646.05	  331.34
    115.8700	 3782.00	 3671.54	-1636.61	  331.42
    115.9700	 4068.00	 4041.17	-1720.23	  331.50
    116.0700	 4409.00	 4421.43	-1759.49	  331.59
    116.1700	 4670.00	 4805.85	-1882.92	  331.69
    116.2700	 5123.00	 5186.90	-1810.97	  331.79
    116.3700	 5452.00	 5555.88	-1850.94	  331.90
    116.4700	 5961.00	 5903.27	-1689.33	  332.01
    116.5700	 6055.00	 6218.90	-1910.97	  332.13
    116.6700	 6417.00	 6492.47	-1822.53	  332.26
    116.7700	 6736.00	 6714.00	-1725.07	  332.39
    116.8700	 6755.00	 6874.59	-1866.65	  332.53
    116.9700	 6920.00	 6967.36	-1794.42	  332.68
    117.0700	 6830.00	 6988.26	-1905.33	  332.83
    117.1700	 6892.00	 6936.61	-1791.67	  332.98
    117.2700	 6670.00	 6815.09	-1892.15	  333.15
    117.3700	 6643.00	 6629.50	-1733.56	  333.32
    117.4700	 6319.00	 6387.95	-1816.02	  333.50
    117.5700	 6108.00	 6100.09	-1739.16	  333.68
    117.6700	 5619.00	 5776.10	-1904.16	  333.87
    117.7700	 5308.00	 5426.10	-1865.17	  334.07
    117.8700	 5020.00	 5059.83	-1786.90	  334.27
    117.9700	 4747.00	 4686.17	-1686.24	  334.49
    118.0700	 4440.00	 4313.06	-1620.13	  334.70
    118.1700	 4087.00	 3947.22	-1607.28	  334.93
    118.2700	 3686.00	 3594.28	-1655.35	  335.16
    118.3700	 3244.00	 3258.82	-1761.88	  335.40
    118.4700	 2988.00	 2944.23	-1703.30	  335.65
    118.5700	 2784.00	 2652.95	-1616.02	  335.90
    118.6700	 2455.00	 2386.33	-1678.40	  336.17
    118.7700	 2111.00	 2144.91	-1780.98	  336.44
    118.8700	 1947.00	 1928.59	-1728.66	  336.71
    118.9700	 1768.00	 1736.62	-1715.69	  337.00
    119.0700	 1516.00	 1567.83	-1798.89	  337.29
    119.1700	 1498.00	 1420.62	-1669.68	  337.59
    119.2700	 1199.00	 1293.19	-1841.26	  337.90
    119.3700	 1191.00	 1183.66	-1739.72	  338.21
    119.4700	 1096.00	 1090.06	-1741.12	  338.54
    119.5700	 1009.00	 1010.47	-1748.54	  338.87
    119.6700	  937.00	  943.05	-1753.12	  339.21
    119.7700	  886.00	  886.10	-1747.16	  339.56
    119.8700	  886.00	  838.07	-1699.14	  339.92
    119.9700	  841.00	  797.61	-1703.67	  340.28
    120.0700	  704.00	  763.51	-1806.58	  340.65
    120.1700	  725.00	  734.76	-1756.83	  341.03
    120.2700	  691.00	  710.49	-1766.55	  341.42
    120.3700	  704.00	  689.96	-1733.02	  341.82
    120.4700	  622.00	  672.58	-1797.65	  342.23
    120.5700	  675.00	  657.86	-1729.93	  342.65
    120.6700	  618.00	  645.39	-1774.46	  343.07
    120.7700	  645.00	  634.85	-1736.91	  343.51
    120.8700	  573.00	  625.96	-1800.02	  343.95
    120.9700	  595.00	  618.52	-1770.58	  344.40
    121.0700	  596.00	  612.34	-1763.41	  344.86
    121.1700	  558.00	  607.30	-1796.36	  345.33
    121.2700	  589.00	  603.27	-1761.33	  345.81
    121.3700	  613.00	  600.16	-1734.22	  346.30
    121.4700	  563.00	  597.88	-1781.94	  346.80
    121.5700	  583.00	  596.37	-1760.44	  347.31
    121.6700	  581.00	  595.57	-1761.64	  347.82
    121.7700	  530.00	  595.42	-1812.49	  348.35
    121.8700	  565.00	  595.87	-1777.94	  348.89
    121.9700	  556.00	  596.85	-1787.92	  349.44
    122.0700	  557.00	  598.32	-1788.39	  349.99
    122.1700	  597.00	  600.21	-1750.27	  350.56
    122.2700	  552.00	  602.45	-1797.52	  351.14
    122.3700	  626.00	  604.98	-1726.04	  351.72
    122.4700	  646.00	  607.72	-1708.78	  352.32
    122.5700	  613.00	  610.58	-1744.65	  352.93
    122.6700	  589.00	  613.49	-1771.55	  353.54
    122.7700	  642.00	  616.34	-1721.41	  354.17
    122.8700	  650.00	  619.06	-1716.12	  354.81
    122.9700	  653.00	  621.54	-1715.60	  355.46
    123.0700	  656.00	  623.70	-1714.77	  356.12
    123.1700	  586.00	  625.48	-1786.54	  356.79
    123.2700	  639.00	  626.80	-1734.86	  357.47
    123.3700	  630.00	  627.63	-1744.70	  358.16
    123.4700	  615.00	  627.96	-1760.02	  358.87
    123.5700	  624.00	  627.78	-1750.85	  359.58
    123.6700	  673.00	  627.12	-1701.19	  360.31
    123.7700	  659.00	  626.00	-1714.07	  361.04
    123.8700	  645.00	  624.50	-1726.57	  361.79
    123.9700	  653.00	  622.67	-1716.73	  362.55
    124.0700	  637.00	  620.55	-1730.61	  363.32
    124.1700	  664.00	  618.20	-1701.27	  364.10
    124.2700	  614.00	  615.69	-1748.76	  364.90
    124.3700	  630.00	  613.07	-1730.14	  365.71
    124.4700	  595.00	  610.39	-1762.46	  366.52
    124.5700	  622.00	  607.70	-1732.77	  367.35
    124.6700	  579.00	  605.05	-1773.11	  368.20
    124.7700	  559.00	  602.47	-1790.53	  369.05
    124.8700	  616.00	  599.99	-1731.06	  369.92
    124.9700	  588.00	  481.06	-1640.13	  370.79
    125.0700	  549.00	  481.95	-1747.07	  371.69
    125.1700	  568.00	  482.86	-1747.07	  372.59
    125.2700	  585.00	  483.77	-1747.07	  373.51
    125.3700	  540.00	  484.70	-1747.07	  374.43
    125.4700	  563.00	  485.64	-1747.07	  375.38
    125.5700	  512.00	  486.60	-1747.07	  376.33
    125.6700	  594.00	  487.57	-1747.07	  377.30
    125.7700	  587.00	  488.55	-1747.07	  378.28
    125.8700	  586.00	  489.54	-1747.07	  379.27
    125.9700	  540.00	  490.55	-1747.07	  380.28
    126.0700	  537.00	  491.57	-1747.07	  381.30
    126.1700	  601.00	  492.60	-1747.07	  382.33
    126.2700	  514.00	  493.64	-1747.07	  383.38
    126.3700	  548.00	  494.71	-1747.07	  384.44
    126.4700	  536.00	  495.78	-1747.07	  385.51
    126.5700	  549.00	  496.87	-1747.07	  386.60
    126.6700	  538.00	  497.97	-1747.07	  387.70
    126.7700	  591.00	  499.08	-1747.07	  388.81
    126.8700	  581.00	  500.21	-1747.07	  389.94
    126.9700	  582.00	  501.36	-1747.07	  391.09
    127.0700	  554.00	  502.51	-1747.07	  392.24
    127.1700	  576.00	  503.69	-1747.07	  393.42
    127.2700	  559.00	  504.87	-1747.07	  394.60
    127.3700	  598.00	  506.07	-1747.07	  395.80
    127.4700	  566.00	  507.29	-1747.07	  397.02
    127.5700	  576.00	  508.52	-1747.07	  398.25
    127.6700	  569.00	  509.76	-1747.07	  399.49
    127.7700	  583.00	  511.02	-1747.07	  400.75
    127.8700	  597.00	  512.30	-1747.07	  402.03
    127.9700	  617.00	  513.59	-1747.07	  403.32
    128.0700	  650.00	  514.89	-1747.07	  404.62
    128.1700	  679.00	  516.21	-1747.07	  405.94
    128.2700	  691.00	  517.55	-1747.07	  407.28
    128.3700	  687.00	  518.90	-1747.07	  408.63
    128.4700	  707.00	  520.27	-1747.07	  410.00
    128.5700	    0.00	  521.65	-1747.07	  411.38
    128.6700	    0.00	  523.05	-1747.07	  412.78
     12.3424	        	        	        	        	       0	(  0  0  2)	  0  1
     24.9584	        	        	        	        	       0	(  0  0  4)	  0  1
     28.3956	        	        	        	        	       0	(  1  0  0)	  0  1
     29.0950	        	        	        	        	       0	(  1  0  1)	  0  1
     31.1074	        	        	        	        	       0	(  1  0  2)	  0  1
     34.2253	        	        	        	        	       0	(  1  0  3)	  0  1
     37.8928	        	        	        	        	       0	(  0  0  6)	  0  1
     38.2146	        	        	        	        	       0	(  1  0  4)	  0  1
     42.8790	        	        	        	        	       0	(  1  0  5)	  0  1
     48.0792	        	        	        	        	       0	(  1  0  6)	  0  1
     50.3837	        	        	        	        	       0	(  1  1  0)	  0  1
     51.3541	        	        	        	        	       0	(  0  0  8)	  0  1
     52.1127	        	        	        	        	       0	(  1  1  2)	  0  1
     53.7278	        	        	        	        	       0	(  1  0  7)	  0  1
     57.0779	        	        	        	        	       0	(  1  1  4)	  0  1
     58.9028	        	        	        	        	       0	(  2  0  0)	  0  1
     59.2958	        	        	        	        	       0	(  2  0  1)	  0  1
     59.7783	        	        	        	        	       0	(  1  0  8)	  0  1
     60.4655	        	        	        	        	       0	(  2  0  2)	  0  1
     62.3858	        	        	        	        	       0	(  2  0  3)	  0  1
     64.8004	        	        	        	        	       0	(  1  1  6)	  0  1
     65.0198	        	        	        	        	       0	(  2  0  4)	  0  1
     65.6301	        	        	        	        	       0	(  0  0 10)	  0  1
     66.2172	        	        	        	        	       0	(  1  0  9)	  0  1
     68.3266	        	        	        	        	       0	(  2  0  5)	  0  1
     72.2696	        	        	        	        	       0	(  2  0  6)	  0  1
     73.0590	        	        	        	        	       0	(  1  0 10)	  0  1
     74.8771	        	        	        	        	       0	(  1  1  8)	  0  1
     76.8224	        	        	        	        	       0	(  2  0  7)	  0  1
     80.3464	        	        	        	        	       0	(  1  0 11)	  0  1
     81.1710	        	        	        	        	       0	(  0  0 12)	  0  1
     81.2129	        	        	        	        	       0	(  2  1  0)	  0  1
     81.5543	        	        	        	        	       0	(  2  1  1)	  0  1
     81.9749	        	        	        	        	       0	(  2  0  8)	  0  1
     82.5768	        	        	        	        	       0	(  2  1  2)	  0  1
     84.2759	        	        	        	        	       0	(  2  1  3)	  0  1
     86.6468	        	        	        	        	       0	(  2  1  4)	  0  1
     87.2026	        	        	        	        	       0	(  1  1 10)	  0  1
     87.7397	        	        	        	        	       0	(  2  0  9)	  0  1
     88.1563	        	        	        	        	       0	(  1  0 12)	  0  1
     89.6874	        	        	        	        	       0	(  2  1  5)	  0  1
     93.4039	        	        	        	        	       0	(  2  1  6)	  0  1
     94.1597	        	        	        	        	       0	(  2  0 10)	  0  1
     95.1575	        	        	        	        	       0	(  3  0  0)	  0  1
     95.4967	        	        	        	        	       0	(  3  0  1)	  0  1
     96.5155	        	        	        	        	       0	(  3  0  2)	  0  1
     96.6135	        	        	        	        	       0	(  1  0 13)	  0  1
     97.8166	        	        	        	        	       0	(  2  1  7)	  0  1
     98.2184	        	        	        	        	       0	(  3  0  3)	  0  1
     98.7988	        	        	        	        	       0	(  0  0 14)	  0  1
    100.6154	        	        	        	        	       0	(  3  0  4)	  0  1
    101.3225	        	        	        	        	       0	(  2  0 11)	  0  1
    102.1544	        	        	        	        	       0	(  1  1 12)	  0  1
    102.9698	        	        	        	        	       0	(  2  1  8)	  0  1
    103.7260	        	        	        	        	       0	(  3  0  5)	  0  1
    105.9238	        	        	        	        	       0	(  1  0 14)	  0  1
    107.5864	        	        	        	        	       0	(  3  0  6)	  0  1
    108.9465	        	        	        	        	       0	(  2  1  9)	  0  1
    109.3876	        	        	        	        	       0	(  2  0 12)	  0  1
    112.2604	        	        	        	        	       0	(  3  0  7)	  0  1
    115.8971	        	        	        	        	       0	(  2  1 10)	  0  1
    116.4494	        	        	        	        	       0	(  1  0 15)	  0  1
    117.0090	        	        	        	        	       0	(  2  2  0)	  0  1
    117.8595	        	        	        	        	       0	(  3  0  8)	  0  1
    118.5373	        	        	        	        	       0	(  2  2  2)	  0  1
    118.6482	        	        	        	        	       0	(  2  0 13)	  0  1
    120.4531	        	        	        	        	       0	(  0  0 16)	  0  1
    121.1486	        	        	        	        	       0	(  1  1 14)	  0  1
    123.2669	        	        	        	        	       0	(  2  2  4)	  0  1
    124.1021	        	        	        	        	       0	(  2  1 11)	  0  1
    124.5845	        	        	        	        	       0	(  3  0  9)	  0  1
    125.1433	        	        	        	        	       0	(  3  1  0)	  0  1
    125.5580	        	        	        	        	       0	(  3  1  1)	  0  1
    126.8151	        	        	        	        	       0	(  3  1  2)	  0  1
    128.9285	        	        	        	        	       0	(  1  0 16)	  0  1
    128.9579	        	        	        	        	       0	(  3  1  3)	  0  1
    129.7010	        	        	        	        	       0	(  2  0 14)	  0  1
    131.8053	        	        	        	        	       0	(  2  2  6)	  0  1
    132.0731	        	        	        	        	       0	(  3  1  4)	  0  1
    132.8270	        	        	        	        	       0	(  3  0 10)	  0  1
    134.1431	        	        	        	        	       0	(  2  1 12)	  0  1
    136.3217	        	        	        	        	       0	(  3  1  5)	  0  1
    142.0192	        	        	        	        	       0	(  3  1  6)	  0  1
    143.4987	        	        	        	        	       0	(  3  0 11)	  0  1
    144.1038	        	        	        	        	       0	(  2  0 15)	  0  1
    145.4145	        	        	        	        	       0	(  1  0 17)	  0  1
    146.3070	        	        	        	        	       0	(  2  2  8)	  0  1
    147.5835	        	        	        	        	       0	(  2  1 13)	  0  1
    149.8911	        	        	        	        	       0	(  3  1  7)	  0  1
    150.6500	        	        	        	        	       0	(  1  1 16)	  0  1
    155.3030	        	        	        	        	       0	(  0  0 18)	  0  1
    160.0403	        	        	        	        	       0	(  3  0 12)	  0  1
    160.1628	        	        	        	        	       0	(  4  0  0)	  0  1
    161.1895	        	        	        	        	       0	(  4  0  1)	  0  1
    162.5359	        	        	        	        	       0	(  3  1  8)	  0  1
    164.6647	        	        	        	        	       0	(  4  0  2)	  0  1
    173.6120	        	        	        	        	       0	(  2  0 16)	  0  1
    173.8248	        	        	        	        	       0	(  4  0  3)	  0  1
