MSG Master    CELL:    5.87728   5.87728  23.08206   90.0000   90.0000  120.0000   SPGR: P 63/m m c             TEMP:    474.45
  2   1280     2.52000     0.00000    -0.09109     0.00000     0.00000    0
    95    95     0     0     2
       0.00000      10.00000
     125.00000     130.00000
 2Theta	Yobs	Ycal	Yobs-Ycal	Backg	Posr	(hkl)	K
      0.7700	    0.00	  965.79	-2230.25	  826.90
      0.8700	    0.00	  962.56	-2230.25	  823.66
      0.9700	   52.00	  959.34	-2230.25	  820.44
      1.0700	   56.00	  956.14	-2230.25	  817.25
      1.1700	   40.00	  952.97	-2230.25	  814.07
      1.2700	   43.00	  949.81	-2230.25	  810.91
      1.3700	   45.00	  946.68	-2230.25	  807.78
      1.4700	  108.00	  943.56	-2230.25	  804.66
      1.5700	  298.00	  940.46	-2230.25	  801.57
      1.6700	  442.00	  937.39	-2230.25	  798.49
      1.7700	  578.00	  934.33	-2230.25	  795.43
      1.8700	  657.00	  931.29	-2230.25	  792.39
      1.9700	  717.00	  928.27	-2230.25	  789.37
      2.0700	  742.00	  925.27	-2230.25	  786.38
      2.1700	  776.00	  922.29	-2230.25	  783.39
      2.2700	  764.00	  919.33	-2230.25	  780.43
      2.3700	  710.00	  916.39	-2230.25	  777.49
      2.4700	  708.00	  913.47	-2230.25	  774.57
      2.5700	  658.00	  910.56	-2230.25	  771.66
      2.6700	  677.00	  907.68	-2230.25	  768.78
      2.7700	  635.00	  904.81	-2230.25	  765.91
      2.8700	  657.00	  901.96	-2230.25	  763.07
      2.9700	  616.00	  899.13	-2230.25	  760.24
      3.0700	  602.00	  896.32	-2230.25	  757.43
      3.1700	  638.00	  893.53	-2230.25	  754.63
      3.2700	  716.00	  890.76	-2230.25	  751.86
      3.3700	  864.00	  888.00	-2230.25	  749.10
      3.4700	 1053.00	  885.26	-2230.25	  746.37
      3.5700	 1205.00	  882.54	-2230.25	  743.65
      3.6700	 1335.00	  879.84	-2230.25	  740.95
      3.7700	 1413.00	  877.16	-2230.25	  738.26
      3.8700	 1535.00	  874.49	-2230.25	  735.60
      3.9700	 1535.00	  871.85	-2230.25	  732.95
      4.0700	 1656.00	  869.22	-2230.25	  730.32
      4.1700	 1752.00	  866.60	-2230.25	  727.71
      4.2700	 1668.00	  864.01	-2230.25	  725.11
      4.3700	 1615.00	  861.43	-2230.25	  722.53
      4.4700	 1597.00	  858.87	-2230.25	  719.97
      4.5700	 1523.00	  856.33	-2230.25	  717.43
      4.6700	 1460.00	  853.80	-2230.25	  714.91
      4.7700	 1447.00	  851.29	-2230.25	  712.40
      4.8700	 1445.00	  848.80	-2230.25	  709.91
      4.9700	 1387.00	  846.33	-2230.25	  707.43
      5.0700	 1360.00	  843.87	-2230.25	  704.97
      5.1700	 1258.00	  841.43	-2230.25	  702.53
      5.2700	 1291.00	  839.01	-2230.25	  700.11
      5.3700	 1292.00	  836.60	-2230.25	  697.70
      5.4700	 1264.00	  834.21	-2230.25	  695.31
      5.5700	 1148.00	  831.84	-2230.25	  692.94
      5.6700	 1243.00	  829.48	-2230.25	  690.58
      5.7700	 1154.00	  827.14	-2230.25	  688.24
      5.8700	 1139.00	  824.81	-2230.25	  685.92
      5.9700	 1060.00	  822.51	-2230.25	  683.61
      6.0700	 1141.00	  820.21	-2230.25	  681.32
      6.1700	 1110.00	  817.94	-2230.25	  679.04
      6.2700	  996.00	  815.68	-2230.25	  676.78
      6.3700	 1072.00	  813.44	-2230.25	  674.54
      6.4700	  984.00	  811.21	-2230.25	  672.31
      6.5700	 1024.00	  809.00	-2230.25	  670.10
      6.6700	  967.00	  806.80	-2230.25	  667.90
      6.7700	  984.00	  804.62	-2230.25	  665.72
      6.8700	  917.00	  802.45	-2230.25	  663.56
      6.9700	  941.00	  800.31	-2230.25	  661.41
      7.0700	  924.00	  798.17	-2230.25	  659.27
      7.1700	  881.00	  796.05	-2230.25	  657.16
      7.2700	  954.00	  793.95	-2230.25	  655.05
      7.3700	  921.00	  791.86	-2230.25	  652.96
      7.4700	  875.00	  789.79	-2230.25	  650.89
      7.5700	  851.00	  787.73	-2230.25	  648.83
      7.6700	  846.00	  785.69	-2230.25	  646.79
      7.7700	  814.00	  783.66	-2230.25	  644.76
      7.8700	  859.00	  781.65	-2230.25	  642.75
      7.9700	  824.00	  779.65	-2230.25	  640.75
      8.0700	  812.00	  777.67	-2230.25	  638.77
      8.1700	  813.00	  775.70	-2230.25	  636.80
      8.2700	  808.00	  773.75	-2230.25	  634.85
      8.3700	  828.00	  771.81	-2230.25	  632.91
      8.4700	  827.00	  769.88	-2230.25	  630.99
      8.5700	  805.00	  767.97	-2230.25	  629.08
      8.6700	  787.00	  766.08	-2230.25	  627.18
      8.7700	  783.00	  764.20	-2230.25	  625.30
      8.8700	  784.00	  762.33	-2230.25	  623.43
      8.9700	  764.00	  760.47	-2230.25	  621.58
      9.0700	  779.00	  758.64	-2230.25	  619.74
      9.1700	  776.00	  756.81	-2230.25	  617.91
      9.2700	  733.00	  755.00	-2230.25	  616.10
      9.3700	  787.00	  753.20	-2230.25	  614.31
      9.4700	  781.00	  751.42	-2230.25	  612.52
      9.5700	  805.00	  749.65	-2230.25	  610.75
      9.6700	  747.00	  747.89	-2230.25	  609.00
      9.7700	  734.00	  746.15	-2230.25	  607.25
      9.8700	  738.00	  744.42	-2230.25	  605.52
      9.9700	  787.00	  742.71	-2230.25	  603.81
     10.0700	  755.00	  743.12	-2218.37	  602.11
     10.1700	  751.00	  741.66	-2220.91	  600.42
     10.2700	  744.00	  740.27	-2226.52	  598.74
     10.3700	  735.00	  738.94	-2234.19	  597.08
     10.4700	  750.00	  737.71	-2217.96	  595.43
     10.5700	  718.00	  736.62	-2248.87	  593.80
     10.6700	  754.00	  735.73	-2211.98	  592.17
     10.7700	  739.00	  735.10	-2226.35	  590.56
     10.8700	  739.00	  734.83	-2226.08	  588.97
     10.9700	  737.00	  735.02	-2228.27	  587.38
     11.0700	  752.00	  735.71	-2213.96	  585.81
     11.1700	  731.00	  736.92	-2236.17	  584.25
     11.2700	  733.00	  738.67	-2235.92	  582.71
     11.3700	  732.00	  741.02	-2239.27	  581.17
     11.4700	  745.00	  744.04	-2229.29	  579.65
     11.5700	  776.00	  747.87	-2202.12	  578.14
     11.6700	  744.00	  752.74	-2238.99	  576.65
     11.7700	  797.00	  758.90	-2192.15	  575.16
     11.8700	  838.00	  766.60	-2158.85	  573.69
     11.9700	  778.00	  775.89	-2228.14	  572.23
     12.0700	  839.00	  786.25	-2177.50	  570.78
     12.1700	  856.00	  796.11	-2170.36	  569.35
     12.2700	  866.00	  802.37	-2166.62	  567.93
     12.3700	  872.00	  800.57	-2158.82	  566.51
     12.4700	  807.00	  788.08	-2211.33	  565.11
     12.5700	  841.00	  768.59	-2157.84	  563.73
     12.6700	  749.00	  749.04	-2230.29	  562.35
     12.7700	  700.00	  733.22	-2263.47	  560.99
     12.8700	  661.00	  721.71	-2290.96	  559.63
     12.9700	  718.00	  713.71	-2225.96	  558.29
     13.0700	  664.00	  708.15	-2274.40	  556.96
     13.1700	  672.00	  704.11	-2262.36	  555.65
     13.2700	  654.00	  700.98	-2277.23	  554.34
     13.3700	  669.00	  698.38	-2259.63	  553.04
     13.4700	  690.00	  696.11	-2236.36	  551.76
     13.5700	  672.00	  694.08	-2252.33	  550.49
     13.6700	  667.00	  692.20	-2255.45	  549.23
     13.7700	  621.00	  690.46	-2299.71	  547.97
     13.8700	  686.00	  688.81	-2233.06	  546.73
     13.9700	  644.00	  687.24	-2273.49	  545.51
     14.0700	  733.00	  685.74	-2182.99	  544.29
     14.1700	  688.00	  684.29	-2226.54	  543.08
     14.2700	  661.00	  682.88	-2252.13	  541.89
     14.3700	  706.00	  681.52	-2205.77	  540.70
     14.4700	  635.00	  680.19	-2275.44	  539.53
     14.5700	  693.00	  678.88	-2216.14	  538.36
     14.6700	  651.00	  677.61	-2256.86	  537.21
     14.7700	  639.00	  676.36	-2267.61	  536.07
     14.8700	  666.00	  675.14	-2239.39	  534.93
     14.9700	  634.00	  673.93	-2270.18	  533.81
     15.0700	  649.00	  672.74	-2253.99	  532.70
     15.1700	  669.00	  671.57	-2232.82	  531.60
     15.2700	  671.00	  670.42	-2229.67	  530.51
     15.3700	  698.00	  669.29	-2201.54	  529.43
     15.4700	  640.00	  668.17	-2258.42	  528.36
     15.5700	  670.00	  667.06	-2227.31	  527.29
     15.6700	  680.00	  665.97	-2216.22	  526.24
     15.7700	  640.00	  664.89	-2255.14	  525.20
     15.8700	  660.00	  663.82	-2234.07	  524.17
     15.9700	  686.00	  662.77	-2207.02	  523.15
     16.0700	  628.00	  661.73	-2263.98	  522.14
     16.1700	  674.00	  660.70	-2216.95	  521.14
     16.2700	  667.00	  659.68	-2222.93	  520.14
     16.3700	  688.00	  658.68	-2200.93	  519.16
     16.4700	  710.00	  657.69	-2177.94	  518.19
     16.5700	  652.00	  656.70	-2234.95	  517.23
     16.6700	  679.00	  655.73	-2206.98	  516.27
     16.7700	  623.00	  654.77	-2262.02	  515.33
     16.8700	  647.00	  653.82	-2237.07	  514.39
     16.9700	  646.00	  652.88	-2237.13	  513.47
     17.0700	  685.00	  651.95	-2197.20	  512.55
     17.1700	  676.00	  651.03	-2205.28	  511.64
     17.2700	  658.00	  650.12	-2222.37	  510.74
     17.3700	  631.00	  649.22	-2248.47	  509.85
     17.4700	  635.00	  648.33	-2243.58	  508.97
     17.5700	  657.00	  647.45	-2220.70	  508.10
     17.6700	  664.00	  646.58	-2212.83	  507.24
     17.7700	  643.00	  645.72	-2232.97	  506.39
     17.8700	  650.00	  644.86	-2225.11	  505.54
     17.9700	  671.00	  644.02	-2203.27	  504.71
     18.0700	  649.00	  643.19	-2224.44	  503.88
     18.1700	  651.00	  642.36	-2221.61	  503.06
     18.2700	  644.00	  641.55	-2227.80	  502.25
     18.3700	  641.00	  640.74	-2229.99	  501.45
     18.4700	  646.00	  639.95	-2224.20	  500.65
     18.5700	  655.00	  639.16	-2214.41	  499.87
     18.6700	  623.00	  638.38	-2245.63	  499.09
     18.7700	  643.00	  637.61	-2224.86	  498.33
     18.8700	  630.00	  636.85	-2237.10	  497.57
     18.9700	  592.00	  636.10	-2274.35	  496.82
     19.0700	  601.00	  636.59	-2265.84	  496.07
     19.1700	  618.00	  637.93	-2250.18	  495.34
     19.2700	  657.00	  637.27	-2210.52	  494.61
     19.3700	  652.00	  636.63	-2214.88	  493.89
     19.4700	  661.00	  635.99	-2205.24	  493.18
     19.5700	  616.00	  635.37	-2249.62	  492.48
     19.6700	  660.00	  634.75	-2205.00	  491.78
     19.7700	  575.00	  634.15	-2289.40	  491.09
     19.8700	  621.00	  633.56	-2242.81	  490.42
     19.9700	  599.00	  632.98	-2264.23	  489.74
     20.0700	  635.00	  632.41	-2227.66	  489.08
     20.1700	  645.00	  631.91	-2217.16	  488.42
     20.2700	  653.00	  631.36	-2208.61	  487.77
     20.3700	  613.00	  630.83	-2248.08	  487.13
     20.4700	  651.00	  630.31	-2209.56	  486.50
     20.5700	  614.00	  629.80	-2246.05	  485.87
     20.6700	  655.00	  629.31	-2204.56	  485.25
     20.7700	  629.00	  628.82	-2230.07	  484.64
     20.8700	  573.00	  628.35	-2285.60	  484.04
     20.9700	  614.00	  627.89	-2244.14	  483.44
     21.0700	  635.00	  627.45	-2222.70	  482.85
     21.1700	  622.00	  627.02	-2235.27	  482.27
     21.2700	  614.00	  626.60	-2242.85	  481.69
     21.3700	  611.00	  626.20	-2245.45	  481.13
     21.4700	  638.00	  625.81	-2218.06	  480.56
     21.5700	  640.00	  625.44	-2215.69	  480.01
     21.6700	  641.00	  625.09	-2214.34	  479.46
     21.7700	  652.00	  624.75	-2203.00	  478.92
     21.8700	  606.00	  624.42	-2248.67	  478.39
     21.9700	  559.00	  624.12	-2295.37	  477.86
     22.0700	  638.00	  623.83	-2216.08	  477.34
     22.1700	  656.00	  623.57	-2197.82	  476.83
     22.2700	  643.00	  623.32	-2210.57	  476.32
     22.3700	  622.00	  623.31	-2231.56	  475.82
     22.4700	  612.00	  623.11	-2241.36	  475.33
     22.5700	  646.00	  622.94	-2207.19	  474.84
     22.6700	  666.00	  622.80	-2187.05	  474.36
     22.7700	  664.00	  622.68	-2188.93	  473.89
     22.8700	  628.00	  622.60	-2224.85	  473.42
     22.9700	  610.00	  622.55	-2242.80	  472.96
     23.0700	  674.00	  622.54	-2178.79	  472.50
     23.1700	  606.00	  622.57	-2246.82	  472.05
     23.2700	  591.00	  622.66	-2261.91	  471.61
     23.3700	  606.00	  622.79	-2247.04	  471.17
     23.4700	  594.00	  622.99	-2259.24	  470.74
     23.5700	  613.00	  623.27	-2240.52	  470.32
     23.6700	  637.00	  623.65	-2216.90	  469.90
     23.7700	  636.00	  624.14	-2218.39	  469.49
     23.8700	  651.00	  624.79	-2204.04	  469.08
     23.9700	  572.00	  625.66	-2283.91	  468.68
     24.0700	  638.00	  626.86	-2219.11	  468.29
     24.1700	  668.00	  628.55	-2190.80	  467.90
     24.2700	  620.00	  630.99	-2241.24	  467.52
     24.3700	  694.00	  634.47	-2170.72	  467.14
     24.4700	  673.00	  639.49	-2196.74	  466.77
     24.5700	  713.00	  646.32	-2163.57	  466.40
     24.6700	  659.00	  654.98	-2226.23	  466.04
     24.7700	  671.00	  665.00	-2224.25	  465.69
     24.8700	  669.00	  675.12	-2236.37	  465.34
     24.9700	  711.00	  683.00	-2202.25	  464.99
     25.0700	  713.00	  685.43	-2202.68	  464.66
     25.1700	  700.00	  680.67	-2210.92	  464.32
     25.2700	  721.00	  671.21	-2180.46	  464.00
     25.3700	  649.00	  661.29	-2242.54	  463.67
     25.4700	  651.00	  653.51	-2232.76	  463.36
     25.5700	  623.00	  648.47	-2255.72	  463.05
     25.6700	  710.00	  645.83	-2166.08	  462.74
     25.7700	  647.00	  645.01	-2228.26	  462.44
     25.8700	  673.00	  645.50	-2202.75	  462.14
     25.9700	  638.00	  646.90	-2239.15	  461.85
     26.0700	  667.00	  649.01	-2212.26	  461.57
     26.1700	  660.00	  651.75	-2222.00	  461.29
     26.2700	  680.00	  655.11	-2205.36	  461.01
     26.3700	  622.00	  659.13	-2267.38	  460.74
     26.4700	  647.00	  663.90	-2247.15	  460.47
     26.5700	  692.00	  669.54	-2207.79	  460.21
     26.6700	  668.00	  676.20	-2238.45	  459.96
     26.7700	  698.00	  684.11	-2216.36	  459.71
     26.8700	  678.00	  693.55	-2245.80	  459.46
     26.9700	  672.00	  704.92	-2263.17	  459.22
     27.0700	  682.00	  718.73	-2266.98	  458.98
     27.1700	  676.00	  735.72	-2289.97	  458.75
     27.2700	  708.00	  756.95	-2279.20	  458.52
     27.3700	  757.00	  784.11	-2257.36	  458.30
     27.4700	  780.00	  820.25	-2270.50	  458.08
     27.5700	  753.00	  871.87	-2349.12	  457.86
     27.6700	  829.00	  953.42	-2354.67	  457.65
     27.7700	  955.00	 1095.12	-2370.37	  457.45
     27.8700	 1032.00	 1352.39	-2550.64	  457.25
     27.9700	 1330.00	 1811.82	-2712.07	  457.05
     28.0700	 2019.00	 2580.61	-2791.86	  456.86
     28.1700	 3361.00	 3741.10	-2610.35	  456.67
     28.2700	 5396.00	 5255.28	-2089.53	  456.48
     28.3700	 7574.00	 6828.48	-1484.73	  456.30
     28.4700	 8921.00	 7847.33	-1156.58	  456.13
     28.5700	 8169.00	 7642.76	-1704.01	  455.96
     28.6700	 6509.00	 6326.40	-2047.65	  455.79
     28.7700	 4604.00	 4899.90	-2526.15	  455.63
     28.8700	 3741.00	 4088.92	-2578.17	  455.47
     28.9700	 3956.00	 3995.70	-2269.95	  455.31
     29.0700	 4619.00	 4319.92	-1931.17	  455.16
     29.1700	 4981.00	 4584.13	-1833.38	  455.01
     29.2700	 4538.00	 4350.75	-2043.00	  454.87
     29.3700	 3560.00	 3575.21	-2245.46	  454.73
     29.4700	 2434.00	 2647.62	-2443.87	  454.59
     29.5700	 1677.00	 1890.62	-2443.87	  454.46
     29.6700	 1371.00	 1392.00	-2251.25	  454.33
     29.7700	 1100.00	 1107.36	-2237.61	  454.20
     29.8700	  979.00	  955.67	-2206.92	  454.08
     29.9700	  860.00	  872.16	-2242.41	  453.97
     30.0700	  843.00	  820.69	-2207.94	  453.85
     30.1700	  809.00	  785.12	-2206.37	  453.74
     30.2700	  770.00	  758.93	-2219.18	  453.63
     30.3700	  723.00	  739.37	-2246.62	  453.53
     30.4700	  748.00	  725.35	-2207.60	  453.43
     30.5700	  713.00	  716.80	-2234.05	  453.33
     30.6700	  727.00	  714.55	-2217.80	  453.24
     30.7700	  728.00	  719.91	-2222.16	  453.15
     30.8700	  748.00	  733.72	-2215.97	  453.06
     30.9700	  769.00	  754.69	-2215.94	  452.98
     31.0700	  787.00	  777.85	-2221.10	  452.90
     31.1700	  810.00	  793.85	-2214.10	  452.82
     31.2700	  755.00	  791.18	-2266.43	  452.75
     31.3700	  742.00	  766.18	-2254.43	  452.68
     31.4700	  749.00	  730.21	-2211.46	  452.61
     31.5700	  750.00	  696.74	-2176.99	  452.55
     31.6700	  695.00	  671.60	-2206.85	  452.49
     31.7700	  687.00	  655.00	-2198.25	  452.43
     31.8700	  652.00	  644.79	-2223.04	  452.37
     31.9700	  663.00	  638.53	-2205.78	  452.32
     32.0700	  643.00	  634.45	-2221.70	  452.27
     32.1700	  635.00	  631.56	-2226.81	  452.23
     32.2700	  665.00	  629.39	-2194.64	  452.18
     32.3700	  653.00	  627.74	-2204.99	  452.14
     32.4700	  641.00	  626.52	-2215.77	  452.11
     32.5700	  675.00	  625.68	-2180.93	  452.07
     32.6700	  700.00	  625.24	-2155.49	  452.04
     32.7700	  644.00	  625.15	-2211.40	  452.01
     32.8700	  667.00	  625.45	-2188.70	  451.98
     32.9700	  668.00	  626.22	-2188.47	  451.96
     33.0700	  661.00	  627.53	-2196.78	  451.94
     33.1700	  691.00	  629.54	-2168.79	  451.92
     33.2700	  674.00	  632.49	-2188.74	  451.90
     33.3700	  674.00	  636.88	-2193.13	  451.89
     33.4700	  673.00	  643.64	-2200.89	  451.88
     33.5700	  623.00	  654.61	-2261.86	  451.87
     33.6700	  693.00	  673.04	-2210.29	  451.87
     33.7700	  743.00	  704.00	-2191.25	  451.86
     33.8700	  803.00	  753.89	-2181.14	  451.86
     33.9700	  835.00	  828.03	-2223.28	  451.86
     34.0700	  999.00	  925.80	-2157.05	  451.87
     34.1700	 1138.00	 1034.97	-2127.22	  451.87
     34.2700	 1289.00	 1128.53	-2069.78	  451.88
     34.3700	 1295.00	 1167.95	-2103.20	  451.89
     34.4700	 1236.00	 1126.49	-2120.74	  451.90
     34.5700	 1093.00	 1023.20	-2160.46	  451.92
     34.6700	  911.00	  905.66	-2224.91	  451.94
     34.7700	  815.00	  805.95	-2221.20	  451.96
     34.8700	  747.00	  734.17	-2217.42	  451.98
     34.9700	  726.00	  687.99	-2192.24	  452.00
     35.0700	  703.00	  660.37	-2187.62	  452.03
     35.1700	  665.00	  644.19	-2209.44	  452.06
     35.2700	  706.00	  634.32	-2158.57	  452.09
     35.3700	  653.00	  627.79	-2205.04	  452.12
     35.4700	  635.00	  623.10	-2218.35	  452.15
     35.5700	  644.00	  619.54	-2205.79	  452.19
     35.6700	  633.00	  616.75	-2214.00	  452.22
     35.7700	  593.00	  614.53	-2251.78	  452.26
     35.8700	  646.00	  612.74	-2196.99	  452.31
     35.9700	  631.00	  611.34	-2210.59	  452.35
     36.0700	  601.00	  610.17	-2239.42	  452.39
     36.1700	  594.00	  609.23	-2245.48	  452.44
     36.2700	  623.00	  608.49	-2215.74	  452.49
     36.3700	  605.00	  607.93	-2233.18	  452.54
     36.4700	  624.00	  607.52	-2213.77	  452.59
     36.5700	  587.00	  607.27	-2250.52	  452.65
     36.6700	  617.00	  607.17	-2220.42	  452.70
     36.7700	  597.00	  607.22	-2240.47	  452.76
     36.8700	  606.00	  607.65	-2231.90	  452.82
     36.9700	  608.00	  608.08	-2230.33	  452.88
     37.0700	  581.00	  608.77	-2258.02	  452.94
     37.1700	  619.00	  609.79	-2221.04	  453.01
     37.2700	  549.00	  611.79	-2293.04	  453.07
     37.3700	  589.00	  614.01	-2255.26	  453.14
     37.4700	  669.00	  617.38	-2178.63	  453.21
     37.5700	  621.00	  622.57	-2231.82	  453.27
     37.6700	  626.00	  630.74	-2234.99	  453.35
     37.7700	  622.00	  643.35	-2251.60	  453.42
     37.8700	  657.00	  661.98	-2235.23	  453.49
     37.9700	  651.00	  687.63	-2266.88	  453.57
     38.0700	  676.00	  717.63	-2271.88	  453.64
     38.1700	  778.00	  752.15	-2204.40	  453.72
     38.2700	  776.00	  781.88	-2236.13	  453.80
     38.3700	  745.00	  796.34	-2281.59	  453.88
     38.4700	  774.00	  787.10	-2243.35	  453.96
     38.5700	  734.00	  757.12	-2253.37	  454.05
     38.6700	  731.00	  719.14	-2218.39	  454.13
     38.7700	  639.00	  684.06	-2275.31	  454.21
     38.8700	  608.00	  656.64	-2278.89	  454.30
     38.9700	  661.00	  637.47	-2206.72	  454.39
     39.0700	  595.00	  625.13	-2260.38	  454.48
     39.1700	  662.00	  617.56	-2185.81	  454.57
     39.2700	  626.00	  612.94	-2217.19	  454.66
     39.3700	  620.00	  610.01	-2220.26	  454.75
     39.4700	  614.00	  608.02	-2224.27	  454.84
     39.5700	  629.00	  605.40	-2206.65	  454.94
     39.6700	  598.00	  604.33	-2236.58	  455.03
     39.7700	  609.00	  603.50	-2224.75	  455.13
     39.8700	  579.00	  602.86	-2254.11	  455.22
     39.9700	  611.00	  602.35	-2221.60	  455.32
     40.0700	  608.00	  601.96	-2224.21	  455.42
     40.1700	  602.00	  601.66	-2229.91	  455.52
     40.2700	  581.00	  601.44	-2250.69	  455.62
     40.3700	  594.00	  601.29	-2237.54	  455.72
     40.4700	  634.00	  601.18	-2197.43	  455.82
     40.5700	  599.00	  601.13	-2232.38	  455.93
     40.6700	  582.00	  601.13	-2249.38	  456.03
     40.7700	  561.00	  601.70	-2270.95	  456.13
     40.8700	  593.00	  601.78	-2239.03	  456.24
     40.9700	  665.00	  601.91	-2167.16	  456.34
     41.0700	  654.00	  602.08	-2178.33	  456.45
     41.1700	  602.00	  602.34	-2230.59	  456.56
     41.2700	  573.00	  602.60	-2259.85	  456.67
     41.3700	  608.00	  602.92	-2225.17	  456.77
     41.4700	  634.00	  603.29	-2199.54	  456.88
     41.5700	  613.00	  603.75	-2221.00	  456.99
     41.6700	  559.00	  604.29	-2275.54	  457.10
     41.7700	  589.00	  604.95	-2246.20	  457.21
     41.8700	  599.00	  605.77	-2237.02	  457.32
     41.9700	  561.00	  606.81	-2276.06	  457.44
     42.0700	  582.00	  608.23	-2256.48	  457.55
     42.1700	  576.00	  610.26	-2264.51	  457.66
     42.2700	  596.00	  613.33	-2247.58	  457.77
     42.3700	  641.00	  618.11	-2207.36	  457.89
     42.4700	  653.00	  625.45	-2202.70	  458.00
     42.5700	  617.00	  636.38	-2249.63	  458.12
     42.6700	  663.00	  651.49	-2218.74	  458.23
     42.7700	  638.00	  670.47	-2262.72	  458.35
     42.8700	  690.00	  691.33	-2231.58	  458.46
     42.9700	  673.00	  709.79	-2267.04	  458.58
     43.0700	  723.00	  719.74	-2226.99	  458.70
     43.1700	  644.00	  716.54	-2302.79	  458.81
     43.2700	  701.00	  701.48	-2230.73	  458.93
     43.3700	  699.00	  680.89	-2212.14	  459.05
     43.4700	  652.00	  660.66	-2238.91	  459.16
     43.5700	  603.00	  643.93	-2271.18	  459.28
     43.6700	  592.00	  631.49	-2269.74	  459.40
     43.7700	  630.00	  622.97	-2223.22	  459.52
     43.8700	  635.00	  617.53	-2212.78	  459.64
     43.9700	  681.00	  614.17	-2163.42	  459.75
     44.0700	  647.00	  612.31	-2195.56	  459.87
     44.1700	  570.00	  611.01	-2271.26	  459.99
     44.2700	  614.00	  610.16	-2226.41	  460.11
     44.3700	  642.00	  609.58	-2197.83	  460.23
     44.4700	  624.00	  609.18	-2215.43	  460.35
     44.5700	  602.00	  608.91	-2237.16	  460.47
     44.6700	  633.00	  608.73	-2205.98	  460.59
     44.7700	  644.00	  608.65	-2194.90	  460.71
     44.8700	  640.00	  608.62	-2198.87	  460.83
     44.9700	  593.00	  608.65	-2245.90	  460.95
     45.0700	  619.00	  608.97	-2220.22	  461.07
     45.1700	  604.00	  609.08	-2235.33	  461.19
     45.2700	  648.00	  609.23	-2191.48	  461.30
     45.3700	  589.00	  609.42	-2250.67	  461.42
     45.4700	  650.00	  609.64	-2189.89	  461.54
     45.5700	  683.00	  609.88	-2157.13	  461.66
     45.6700	  630.00	  610.16	-2210.41	  461.78
     45.7700	  605.00	  610.56	-2235.81	  461.90
     45.8700	  617.00	  610.89	-2224.14	  462.02
     45.9700	  609.00	  611.26	-2232.51	  462.14
     46.0700	  653.00	  611.67	-2188.92	  462.26
     46.1700	  558.00	  612.11	-2284.36	  462.38
     46.2700	  667.00	  612.59	-2175.84	  462.49
     46.3700	  577.00	  613.11	-2266.36	  462.61
     46.4700	  643.00	  613.48	-2200.73	  462.73
     46.5700	  652.00	  614.14	-2192.39	  462.85
     46.6700	  620.00	  614.99	-2225.24	  462.97
     46.7700	  611.00	  615.77	-2235.02	  463.08
     46.8700	  656.00	  616.64	-2190.89	  463.20
     46.9700	  595.00	  617.64	-2252.89	  463.32
     47.0700	  618.00	  618.78	-2231.03	  463.43
     47.1700	  636.00	  620.15	-2214.40	  463.55
     47.2700	  613.00	  621.86	-2239.11	  463.67
     47.3700	  654.00	  624.11	-2200.36	  463.78
     47.4700	  612.00	  627.22	-2245.47	  463.90
     47.5700	  647.00	  631.66	-2214.91	  464.01
     47.6700	  589.00	  638.03	-2279.28	  464.13
     47.7700	  612.00	  646.93	-2265.18	  464.24
     47.8700	  673.00	  658.76	-2216.01	  464.35
     47.9700	  636.00	  673.41	-2267.66	  464.47
     48.0700	  723.00	  689.85	-2197.10	  464.58
     48.1700	  718.00	  705.70	-2217.95	  464.69
     48.2700	  653.00	  717.23	-2294.48	  464.80
     48.3700	  741.00	  720.70	-2209.95	  464.92
     48.4700	  666.00	  715.23	-2279.48	  465.03
     48.5700	  614.00	  704.24	-2320.49	  465.14
     48.6700	  712.00	  691.15	-2209.40	  465.25
     48.7700	  642.00	  679.46	-2267.71	  465.36
     48.8700	  644.00	  670.72	-2256.97	  465.47
     48.9700	  650.00	  665.40	-2245.65	  465.58
     49.0700	  645.00	  663.38	-2248.63	  465.68
     49.1700	  665.00	  664.25	-2229.50	  465.79
     49.2700	  618.00	  667.64	-2279.89	  465.90
     49.3700	  701.00	  673.38	-2202.63	  466.01
     49.4700	  677.00	  681.78	-2235.03	  466.11
     49.5700	  663.00	  693.99	-2261.24	  466.22
     49.6700	  716.00	  713.03	-2227.28	  466.32
     49.7700	  779.00	  745.66	-2196.91	  466.43
     49.8700	  815.00	  805.17	-2220.42	  466.53
     49.9700	  923.00	  913.92	-2221.17	  466.63
     50.0700	 1188.00	 1102.23	-2144.48	  466.74
     50.1700	 1480.00	 1399.62	-2149.87	  466.84
     50.2700	 1868.00	 1817.04	-2179.29	  466.94
     50.3700	 2422.00	 2323.96	-2132.21	  467.04
     50.4700	 2962.00	 2831.53	-2099.78	  467.14
     50.5700	 3191.00	 3195.99	-2235.24	  467.24
     50.6700	 3113.00	 3271.68	-2388.93	  467.34
     50.7700	 3022.00	 3020.01	-2228.26	  467.43
     50.8700	 2463.00	 2552.98	-2320.23	  467.53
     50.9700	 1943.00	 2032.26	-2319.51	  467.63
     51.0700	 1463.00	 1574.07	-2341.32	  467.72
     51.1700	 1152.00	 1232.49	-2310.74	  467.82
     51.2700	  970.00	 1010.64	-2270.89	  467.91
     51.3700	  928.00	  883.04	-2185.29	  468.01
     51.4700	  880.00	  816.29	-2166.54	  468.10
     51.5700	  788.00	  782.23	-2224.48	  468.19
     51.6700	  796.00	  762.20	-2196.45	  468.28
     51.7700	  745.00	  746.85	-2232.10	  468.37
     51.8700	  751.00	  733.10	-2212.35	  468.46
     51.9700	  713.00	  721.05	-2238.30	  468.55
     52.0700	  726.00	  711.34	-2215.59	  468.64
     52.1700	  675.00	  704.07	-2259.32	  468.73
     52.2700	  714.00	  698.79	-2215.04	  468.81
     52.3700	  719.00	  694.66	-2205.91	  468.90
     52.4700	  639.00	  690.96	-2282.21	  468.98
     52.5700	  660.00	  687.73	-2257.98	  469.07
     52.6700	  698.00	  685.56	-2217.81	  469.15
     52.7700	  708.00	  685.25	-2207.50	  469.23
     52.8700	  691.00	  687.63	-2226.88	  469.31
     52.9700	  719.00	  693.79	-2205.04	  469.39
     53.0700	  722.00	  705.27	-2213.52	  469.47
     53.1700	  709.00	  724.30	-2245.55	  469.55
     53.2700	  750.00	  753.73	-2233.98	  469.63
     53.3700	  766.00	  796.69	-2260.94	  469.70
     53.4700	  827.00	  855.72	-2258.97	  469.78
     53.5700	  974.00	  931.55	-2187.80	  469.86
     53.6700	 1015.00	 1021.63	-2236.88	  469.93
     53.7700	 1135.00	 1117.92	-2213.17	  470.00
     53.8700	 1190.00	 1205.62	-2245.87	  470.07
     53.9700	 1272.00	 1263.55	-2221.80	  470.15
     54.0700	 1334.00	 1272.46	-2168.71	  470.22
     54.1700	 1247.00	 1228.80	-2212.05	  470.28
     54.2700	 1152.00	 1148.15	-2226.40	  470.35
     54.3700	 1066.00	 1052.92	-2217.17	  470.42
     54.4700	  951.00	  960.49	-2239.74	  470.49
     54.5700	  855.00	  880.63	-2255.88	  470.55
     54.6700	  788.00	  817.28	-2259.53	  470.62
     54.7700	  728.00	  770.47	-2272.72	  470.68
     54.8700	  739.00	  737.97	-2229.22	  470.74
     54.9700	  679.00	  716.60	-2267.85	  470.80
     55.0700	  702.00	  703.18	-2231.43	  470.86
     55.1700	  689.00	  695.14	-2236.39	  470.92
     55.2700	  670.00	  690.66	-2250.91	  470.98
     55.3700	  724.00	  688.56	-2194.81	  471.04
     55.4700	  651.00	  688.20	-2267.45	  471.09
     55.5700	  689.00	  689.24	-2230.49	  471.15
     55.6700	  655.00	  691.56	-2266.81	  471.20
     55.7700	  693.00	  695.19	-2232.44	  471.26
     55.8700	  674.00	  700.29	-2256.54	  471.31
     55.9700	  672.00	  707.20	-2265.45	  471.36
     56.0700	  695.00	  716.57	-2251.82	  471.41
     56.1700	  651.00	  729.70	-2308.95	  471.46
     56.2700	  768.00	  748.98	-2211.23	  471.50
     56.3700	  765.00	  778.65	-2243.90	  471.55
     56.4700	  814.00	  825.56	-2241.81	  471.60
     56.5700	  862.00	  899.69	-2267.94	  471.64
     56.6700	 1032.00	 1013.41	-2211.66	  471.68
     56.7700	 1132.00	 1179.43	-2277.68	  471.73
     56.8700	 1433.00	 1406.28	-2203.53	  471.77
     56.9700	 1721.00	 1692.66	-2201.91	  471.81
     57.0700	 2020.00	 2021.32	-2231.57	  471.84
     57.1700	 2352.00	 2353.44	-2231.69	  471.88
     57.2700	 2704.00	 2626.07	-2152.32	  471.92
     57.3700	 2792.00	 2763.84	-2202.09	  471.95
     57.4700	 2715.00	 2717.99	-2233.24	  471.99
     57.5700	 2491.00	 2505.37	-2244.62	  472.02
     57.6700	 2200.00	 2194.83	-2225.08	  472.05
     57.7700	 1838.00	 1859.63	-2251.88	  472.08
     57.8700	 1444.00	 1551.02	-2337.27	  472.11
     57.9700	 1205.00	 1296.46	-2321.71	  472.14
     58.0700	 1013.00	 1104.57	-2321.82	  472.17
     58.1700	  950.00	  971.38	-2251.63	  472.20
     58.2700	  862.00	  886.58	-2254.83	  472.22
     58.3700	  785.00	  838.85	-2284.10	  472.25
     58.4700	  782.00	  819.46	-2267.71	  472.27
     58.5700	  790.00	  823.52	-2263.77	  472.29
     58.6700	  821.00	  849.35	-2258.59	  472.31
     58.7700	  826.00	  896.62	-2300.87	  472.33
     58.8700	  966.00	  964.40	-2228.65	  472.35
     58.9700	 1016.00	 1048.72	-2262.97	  472.36
     59.0700	 1158.00	 1141.16	-2213.41	  472.38
     59.1700	 1134.00	 1228.90	-2325.15	  472.39
     59.2700	 1259.00	 1298.71	-2269.96	  472.41
     59.3700	 1326.00	 1343.70	-2247.95	  472.42
     59.4700	 1362.00	 1363.78	-2232.03	  472.43
     59.5700	 1352.00	 1359.57	-2237.82	  472.44
     59.6700	 1295.00	 1331.59	-2266.84	  472.45
     59.7700	 1319.00	 1286.87	-2198.12	  472.46
     59.8700	 1263.00	 1239.62	-2206.87	  472.46
     59.9700	 1228.00	 1204.35	-2206.60	  472.47
     60.0700	 1193.00	 1190.88	-2228.13	  472.47
     60.1700	 1272.00	 1204.83	-2163.08	  472.47
     60.2700	 1332.00	 1249.39	-2147.64	  472.48
     60.3700	 1445.00	 1324.77	-2110.02	  472.48
     60.4700	 1522.00	 1424.65	-2132.90	  472.48
     60.5700	 1615.00	 1532.82	-2148.07	  472.47
     60.6700	 1574.00	 1622.89	-2279.14	  472.47
     60.7700	 1636.00	 1663.33	-2257.58	  472.47
     60.8700	 1656.00	 1632.44	-2206.69	  472.46
     60.9700	 1460.00	 1533.86	-2304.11	  472.45
     61.0700	 1341.00	 1393.33	-2282.58	  472.44
     61.1700	 1196.00	 1240.88	-2275.13	  472.43
     61.2700	 1012.00	 1099.53	-2317.78	  472.42
     61.3700	  959.00	  982.94	-2254.19	  472.41
     61.4700	  860.00	  896.73	-2266.98	  472.40
     61.5700	  886.00	  840.93	-2185.18	  472.38
     61.6700	  892.00	  812.93	-2151.18	  472.37
     61.7700	  835.00	  810.35	-2205.60	  472.35
     61.8700	  877.00	  832.87	-2186.12	  472.33
     61.9700	  926.00	  882.67	-2186.92	  472.31
     62.0700	 1034.00	  963.29	-2159.54	  472.29
     62.1700	 1145.00	 1077.45	-2162.70	  472.27
     62.2700	 1304.00	 1223.98	-2150.23	  472.25
     62.3700	 1392.00	 1394.97	-2233.22	  472.23
     62.4700	 1667.00	 1573.44	-2136.69	  472.20
     62.5700	 1726.00	 1732.14	-2236.39	  472.17
     62.6700	 1782.00	 1836.40	-2284.65	  472.15
     62.7700	 1765.00	 1855.90	-2321.15	  472.12
     62.8700	 1703.00	 1783.89	-2311.14	  472.09
     62.9700	 1649.00	 1642.39	-2223.64	  472.06
     63.0700	 1413.00	 1466.55	-2283.80	  472.02
     63.1700	 1245.00	 1287.53	-2272.78	  471.99
     63.2700	 1083.00	 1126.57	-2273.82	  471.95
     63.3700	  991.00	  994.90	-2234.15	  471.92
     63.4700	  864.00	  895.63	-2261.88	  471.88
     63.5700	  791.00	  826.21	-2265.46	  471.84
     63.6700	  789.00	  780.96	-2222.21	  471.80
     63.7700	  742.00	  753.70	-2241.95	  471.76
     63.8700	  744.00	  739.09	-2225.34	  471.72
     63.9700	  733.00	  733.60	-2230.85	  471.67
     64.0700	  809.00	  735.46	-2156.71	  471.63
     64.1700	  738.00	  744.13	-2236.38	  471.58
     64.2700	  791.00	  762.11	-2201.36	  471.54
     64.3700	  760.00	  791.57	-2261.82	  471.49
     64.4700	  867.00	  836.04	-2199.29	  471.44
     64.5700	  901.00	  899.18	-2228.43	  471.39
     64.6700	 1017.00	  983.85	-2197.10	  471.33
     64.7700	 1218.00	 1090.80	-2103.05	  471.28
     64.8700	 1257.00	 1217.03	-2190.28	  471.23
     64.9700	 1426.00	 1354.42	-2158.67	  471.17
     65.0700	 1480.00	 1488.75	-2239.00	  471.11
     65.1700	 1518.00	 1600.91	-2313.16	  471.06
     65.2700	 1663.00	 1670.89	-2238.14	  471.00
     65.3700	 1522.00	 1684.12	-2392.37	  470.94
     65.4700	 1537.00	 1636.97	-2330.22	  470.87
     65.5700	 1408.00	 1540.85	-2363.10	  470.81
     65.6700	 1325.00	 1415.99	-2321.24	  470.75
     65.7700	 1226.00	 1283.25	-2287.50	  470.68
     65.8700	 1143.00	 1158.00	-2245.25	  470.62
     65.9700	  986.00	 1048.92	-2293.17	  470.55
     66.0700	  988.00	  959.33	-2201.58	  470.48
     66.1700	  831.00	  888.97	-2288.22	  470.41
     66.2700	  813.00	  835.75	-2253.00	  470.34
     66.3700	  822.00	  796.68	-2204.93	  470.27
     66.4700	  743.00	  768.70	-2255.95	  470.19
     66.5700	  704.00	  749.02	-2275.27	  470.12
     66.6700	  675.00	  735.44	-2290.69	  470.04
     66.7700	  699.00	  726.40	-2257.65	  469.96
     66.8700	  727.00	  720.90	-2224.15	  469.89
     66.9700	  675.00	  718.38	-2273.63	  469.81
     67.0700	  694.00	  718.59	-2254.84	  469.73
     67.1700	  680.00	  721.71	-2271.96	  469.64
     67.2700	  673.00	  728.13	-2285.38	  469.56
     67.3700	  703.00	  739.08	-2266.33	  469.48
     67.4700	  696.00	  756.76	-2291.01	  469.39
     67.5700	  812.00	  784.24	-2202.49	  469.31
     67.6700	  831.00	  826.35	-2225.60	  469.22
     67.7700	  896.00	  889.25	-2223.50	  469.13
     67.8700	 1004.00	  979.91	-2206.16	  469.04
     67.9700	 1080.00	 1105.13	-2255.38	  468.95
     68.0700	 1326.00	 1269.64	-2173.89	  468.86
     68.1700	 1530.00	 1473.91	-2174.16	  468.77
     68.2700	 1728.00	 1712.01	-2214.26	  468.67
     68.3700	 1894.00	 1969.56	-2305.81	  468.58
     68.4700	 2263.00	 2222.11	-2189.36	  468.48
     68.5700	 2455.00	 2435.03	-2210.28	  468.38
     68.6700	 2599.00	 2568.05	-2199.30	  468.28
     68.7700	 2517.00	 2589.22	-2302.47	  468.18
     68.8700	 2379.00	 2492.79	-2344.04	  468.08
     68.9700	 2297.00	 2303.06	-2236.31	  467.98
     69.0700	 2085.00	 2059.54	-2204.79	  467.88
     69.1700	 1867.00	 1799.89	-2163.14	  467.77
     69.2700	 1615.00	 1552.22	-2167.47	  467.67
     69.3700	 1331.00	 1334.31	-2233.56	  467.56
     69.4700	 1237.00	 1154.90	-2148.15	  467.46
     69.5700	 1021.00	 1015.52	-2224.77	  467.35
     69.6700	  929.00	  912.68	-2213.93	  467.24
     69.7700	  895.00	  840.03	-2175.28	  467.13
     69.8700	  782.00	  790.44	-2238.69	  467.02
     69.9700	  829.00	  757.33	-2158.58	  466.90
     70.0700	  813.00	  735.40	-2152.65	  466.79
     70.1700	  754.00	  720.76	-2197.01	  466.68
     70.2700	  729.00	  710.79	-2212.04	  466.56
     70.3700	  718.00	  703.87	-2216.12	  466.44
     70.4700	  742.00	  699.05	-2187.30	  466.32
     70.5700	  779.00	  695.75	-2147.00	  466.21
     70.6700	  711.00	  693.72	-2212.97	  466.09
     70.7700	  721.00	  692.82	-2202.07	  465.97
     70.8700	  748.00	  693.07	-2175.32	  465.84
     70.9700	  685.00	  694.59	-2239.84	  465.72
     71.0700	  700.00	  697.48	-2227.73	  465.60
     71.1700	  732.00	  702.71	-2200.96	  465.47
     71.2700	  680.00	  710.99	-2261.24	  465.35
     71.3700	  733.00	  723.77	-2221.02	  465.22
     71.4700	  734.00	  743.19	-2239.44	  465.09
     71.5700	  818.00	  772.16	-2184.41	  464.96
     71.6700	  834.00	  814.36	-2210.61	  464.83
     71.7700	  927.00	  873.86	-2177.11	  464.70
     71.8700	 1011.00	  954.73	-2173.98	  464.57
     71.9700	 1180.00	 1060.03	-2110.28	  464.44
     72.0700	 1200.00	 1190.79	-2221.04	  464.31
     72.1700	 1390.00	 1344.84	-2185.09	  464.17
     72.2700	 1561.00	 1515.73	-2184.98	  464.04
     72.3700	 1742.00	 1692.00	-2180.25	  463.90
     72.4700	 1816.00	 1856.40	-2270.65	  463.76
     72.5700	 1979.00	 1986.72	-2237.97	  463.62
     72.6700	 1988.00	 2059.49	-2301.74	  463.48
     72.7700	 1956.00	 2058.82	-2333.07	  463.34
     72.8700	 1872.00	 1984.80	-2343.05	  463.20
     72.9700	 1833.00	 1853.53	-2250.78	  463.06
     73.0700	 1676.00	 1688.43	-2242.68	  462.92
     73.1700	 1441.00	 1512.42	-2301.67	  462.78
     73.2700	 1374.00	 1341.20	-2197.45	  462.63
     73.3700	 1151.00	 1186.78	-2266.03	  462.49
     73.4700	 1089.00	 1055.49	-2196.74	  462.34
     73.5700	  962.00	  949.35	-2217.60	  462.19
     73.6700	  856.00	  867.32	-2241.57	  462.04
     73.7700	  838.00	  806.36	-2198.61	  461.90
     73.8700	  788.00	  762.50	-2204.75	  461.75
     73.9700	  709.00	  731.74	-2252.99	  461.60
     74.0700	  764.00	  709.99	-2176.24	  461.44
     74.1700	  680.00	  695.52	-2245.77	  461.29
     74.2700	  713.00	  685.74	-2202.99	  461.14
     74.3700	  677.00	  679.29	-2232.54	  460.99
     74.4700	  708.00	  675.29	-2197.54	  460.83
     74.5700	  678.00	  673.20	-2225.45	  460.68
     74.6700	  646.00	  672.67	-2256.92	  460.52
     74.7700	  672.00	  673.41	-2231.66	  460.36
     74.8700	  685.00	  675.16	-2220.41	  460.21
     74.9700	  712.00	  677.50	-2195.75	  460.05
     75.0700	  729.00	  680.14	-2181.39	  459.89
     75.1700	  700.00	  682.49	-2212.74	  459.73
     75.2700	  704.00	  684.01	-2210.26	  459.57
     75.3700	  730.00	  684.24	-2184.49	  459.41
     75.4700	  711.00	  683.10	-2202.35	  459.24
     75.5700	  756.00	  680.88	-2155.13	  459.08
     75.6700	  739.00	  678.26	-2169.51	  458.92
     75.7700	  714.00	  676.05	-2192.30	  458.75
     75.8700	  684.00	  675.05	-2221.30	  458.59
     75.9700	  708.00	  676.33	-2198.58	  458.42
     76.0700	  657.00	  680.81	-2254.06	  458.25
     76.1700	  690.00	  689.53	-2229.78	  458.09
     76.2700	  689.00	  703.58	-2244.83	  457.92
     76.3700	  723.00	  723.96	-2231.21	  457.75
     76.4700	  787.00	  751.44	-2194.69	  457.58
     76.5700	  730.00	  786.36	-2286.61	  457.41
     76.6700	  847.00	  828.38	-2211.63	  457.24
     76.7700	  911.00	  876.27	-2195.52	  457.07
     76.8700	  920.00	  927.71	-2237.96	  456.90
     76.9700	  926.00	  979.16	-2283.41	  456.73
     77.0700	 1024.00	 1025.76	-2232.01	  456.55
     77.1700	 1023.00	 1061.62	-2268.87	  456.38
     77.2700	 1033.00	 1080.92	-2278.17	  456.20
     77.3700	 1050.00	 1079.92	-2260.17	  456.03
     77.4700	 1073.00	 1058.72	-2215.97	  455.85
     77.5700	  965.00	 1021.19	-2286.44	  455.68
     77.6700	  943.00	  973.01	-2260.26	  455.50
     77.7700	  945.00	  920.37	-2205.62	  455.32
     77.8700	  880.00	  867.81	-2218.06	  455.15
     77.9700	  880.00	  818.79	-2169.04	  454.97
     78.0700	  784.00	  775.47	-2221.72	  454.79
     78.1700	  756.00	  738.94	-2213.19	  454.61
     78.2700	  720.00	  709.42	-2219.67	  454.43
     78.3700	  651.00	  686.44	-2265.69	  454.25
     78.4700	  699.00	  669.14	-2200.39	  454.07
     78.5700	  641.00	  656.50	-2245.75	  453.89
     78.6700	  642.00	  647.46	-2235.71	  453.70
     78.7700	  655.00	  641.11	-2216.36	  453.52
     78.8700	  661.00	  636.67	-2205.92	  453.34
     78.9700	  685.00	  633.54	-2178.79	  453.15
     79.0700	  610.00	  631.40	-2251.65	  452.97
     79.1700	  637.00	  629.95	-2223.20	  452.79
     79.2700	  605.00	  629.01	-2254.26	  452.60
     79.3700	  656.00	  628.50	-2202.75	  452.42
     79.4700	  642.00	  628.35	-2216.60	  452.23
     79.5700	  658.00	  628.58	-2200.83	  452.04
     79.6700	  617.00	  629.21	-2242.46	  451.86
     79.7700	  617.00	  630.29	-2243.54	  451.67
     79.8700	  607.00	  631.92	-2255.17	  451.48
     79.9700	  694.00	  634.24	-2170.49	  451.30
     80.0700	  657.00	  637.50	-2210.75	  451.11
     80.1700	  587.00	  642.06	-2285.31	  450.92
     80.2700	  625.00	  648.48	-2253.73	  450.73
     80.3700	  657.00	  657.59	-2230.84	  450.54
     80.4700	  734.00	  670.28	-2166.53	  450.35
     80.5700	  706.00	  688.57	-2212.82	  450.16
     80.6700	  781.00	  714.02	-2163.27	  449.97
     80.7700	  784.00	  748.68	-2194.93	  449.78
     80.8700	  816.00	  794.56	-2208.81	  449.59
     80.9700	  976.00	  853.31	-2107.56	  449.40
     81.0700	  989.00	  925.78	-2167.03	  449.21
     81.1700	 1078.00	 1011.55	-2163.80	  449.01
     81.2700	 1161.00	 1108.43	-2177.68	  448.82
     81.3700	 1300.00	 1212.12	-2142.37	  448.63
     81.4700	 1389.00	 1316.15	-2157.40	  448.44
     81.5700	 1451.00	 1412.18	-2191.43	  448.24
     81.6700	 1518.00	 1491.13	-2203.38	  448.05
     81.7700	 1583.00	 1545.07	-2192.32	  447.86
     81.8700	 1565.00	 1569.21	-2234.46	  447.66
     81.9700	 1521.00	 1562.57	-2271.82	  447.47
     82.0700	 1478.00	 1527.44	-2279.69	  447.27
     82.1700	 1548.00	 1468.63	-2150.88	  447.08
     82.2700	 1327.00	 1392.80	-2296.05	  446.89
     82.3700	 1225.00	 1307.35	-2312.60	  446.69
     82.4700	 1194.00	 1219.01	-2255.26	  446.50
     82.5700	 1079.00	 1133.07	-2284.32	  446.30
     82.6700	 1014.00	 1053.33	-2269.58	  446.10
     82.7700	  941.00	  982.15	-2271.40	  445.91
     82.8700	  919.00	  920.57	-2231.82	  445.71
     82.9700	  786.00	  868.44	-2312.69	  445.52
     83.0700	  801.00	  824.78	-2254.03	  445.32
     83.1700	  721.00	  788.24	-2297.49	  445.13
     83.2700	  686.00	  757.58	-2301.83	  444.93
     83.3700	  697.00	  731.92	-2265.17	  444.73
     83.4700	  711.00	  710.67	-2229.92	  444.54
     83.5700	  703.00	  693.49	-2220.74	  444.34
     83.6700	  653.00	  680.15	-2257.40	  444.15
     83.7700	  661.00	  670.49	-2239.74	  443.95
     83.8700	  667.00	  664.37	-2227.62	  443.75
     83.9700	  635.00	  661.57	-2256.82	  443.56
     84.0700	  661.00	  661.81	-2231.06	  443.36
     84.1700	  642.00	  664.64	-2252.89	  443.16
     84.2700	  630.00	  669.50	-2269.75	  442.97
     84.3700	  670.00	  675.51	-2235.76	  442.77
     84.4700	  651.00	  682.13	-2261.38	  442.57
     84.5700	  715.00	  688.23	-2203.48	  442.38
     84.6700	  711.00	  692.71	-2211.96	  442.18
     84.7700	  671.00	  694.84	-2254.09	  441.98
     84.8700	  676.00	  693.94	-2248.19	  441.79
     84.9700	  722.00	  689.96	-2198.21	  441.59
     85.0700	  623.00	  683.34	-2290.59	  441.39
     85.1700	  669.00	  674.86	-2236.11	  441.20
     85.2700	  636.00	  665.39	-2259.64	  441.00
     85.3700	  679.00	  655.74	-2206.99	  440.80
     85.4700	  641.00	  646.57	-2235.82	  440.61
     85.5700	  601.00	  638.41	-2267.66	  440.41
     85.6700	  612.00	  631.62	-2249.87	  440.22
     85.7700	  609.00	  626.45	-2247.70	  440.02
     85.8700	  589.00	  623.03	-2264.28	  439.83
     85.9700	  626.00	  621.41	-2225.66	  439.63
     86.0700	  607.00	  621.61	-2244.86	  439.44
     86.1700	  622.00	  623.62	-2231.87	  439.24
     86.2700	  606.00	  627.41	-2251.66	  439.05
     86.3700	  605.00	  632.92	-2258.17	  438.85
     86.4700	  622.00	  640.04	-2248.29	  438.66
     86.5700	  674.00	  648.63	-2204.88	  438.46
     86.6700	  660.00	  658.44	-2228.69	  438.27
     86.7700	  652.00	  669.15	-2247.40	  438.07
     86.8700	  664.00	  680.32	-2246.57	  437.88
     86.9700	  666.00	  691.44	-2255.69	  437.69
     87.0700	  704.00	  701.93	-2228.18	  437.49
     87.1700	  668.00	  711.29	-2273.54	  437.30
     87.2700	  722.00	  719.22	-2227.47	  437.11
     87.3700	  702.00	  725.73	-2253.98	  436.92
     87.4700	  741.00	  731.19	-2220.44	  436.72
     87.5700	  684.00	  736.14	-2282.39	  436.53
     87.6700	  746.00	  741.07	-2225.32	  436.34
     87.7700	  774.00	  746.28	-2202.53	  436.15
     87.8700	  712.00	  751.77	-2270.02	  435.96
     87.9700	  714.00	  757.25	-2273.50	  435.77
     88.0700	  818.00	  762.11	-2174.36	  435.58
     88.1700	  778.00	  765.50	-2217.75	  435.39
     88.2700	  752.00	  766.49	-2244.74	  435.20
     88.3700	  750.00	  764.31	-2244.56	  435.01
     88.4700	  734.00	  758.64	-2254.89	  434.82
     88.5700	  756.00	  749.72	-2223.97	  434.63
     88.6700	  757.00	  738.23	-2211.48	  434.45
     88.7700	  700.00	  725.10	-2255.35	  434.26
     88.8700	  727.00	  710.82	-2214.07	  434.07
     88.9700	  652.00	  697.15	-2275.40	  433.89
     89.0700	  668.00	  684.39	-2246.64	  433.70
     89.1700	  685.00	  673.12	-2218.37	  433.51
     89.2700	  656.00	  663.77	-2238.02	  433.33
     89.3700	  680.00	  656.56	-2206.81	  433.14
     89.4700	  651.00	  651.58	-2230.83	  432.96
     89.5700	  649.00	  648.71	-2229.96	  432.78
     89.6700	  605.00	  647.72	-2272.97	  432.59
     89.7700	  647.00	  648.24	-2231.49	  432.41
     89.8700	  679.00	  649.80	-2201.05	  432.23
     89.9700	  732.00	  651.87	-2150.12	  432.05
     90.0700	  705.00	  653.85	-2179.10	  431.87
     90.1700	  739.00	  655.18	-2146.43	  431.69
     90.2700	  710.00	  655.37	-2175.62	  431.51
     90.3700	  668.00	  654.12	-2216.37	  431.33
     90.4700	  663.00	  651.38	-2218.63	  431.15
     90.5700	  683.00	  647.35	-2194.60	  430.97
     90.6700	  663.00	  642.35	-2209.60	  430.79
     90.7700	  637.00	  636.78	-2230.03	  430.62
     90.8700	  669.00	  631.00	-2192.25	  430.44
     90.9700	  661.00	  625.33	-2194.58	  430.27
     91.0700	  651.00	  620.03	-2199.28	  430.09
     91.1700	  582.00	  615.28	-2263.52	  429.92
     91.2700	  637.00	  611.18	-2204.43	  429.74
     91.3700	  640.00	  607.79	-2198.04	  429.57
     91.4700	  582.00	  605.11	-2253.36	  429.40
     91.5700	  580.00	  603.11	-2253.36	  429.23
     91.6700	  625.00	  601.75	-2207.00	  429.06
     91.7700	  579.00	  600.95	-2252.20	  428.89
     91.8700	  575.00	  600.69	-2255.94	  428.72
     91.9700	  632.00	  600.93	-2199.18	  428.55
     92.0700	  651.00	  601.67	-2180.92	  428.38
     92.1700	  626.00	  602.95	-2207.20	  428.21
     92.2700	  609.00	  604.86	-2226.11	  428.05
     92.3700	  668.00	  607.51	-2169.76	  427.88
     92.4700	  671.00	  611.06	-2170.31	  427.72
     92.5700	  648.00	  615.71	-2197.96	  427.55
     92.6700	  630.00	  621.68	-2221.93	  427.39
     92.7700	  624.00	  629.19	-2235.44	  427.23
     92.8700	  642.00	  638.48	-2226.73	  427.07
     92.9700	  674.00	  649.71	-2205.96	  426.91
     93.0700	  693.00	  663.02	-2200.27	  426.75
     93.1700	  622.00	  678.45	-2286.70	  426.59
     93.2700	  704.00	  695.92	-2222.17	  426.43
     93.3700	  677.00	  715.23	-2268.48	  426.27
     93.4700	  704.00	  736.03	-2262.28	  426.12
     93.5700	  719.00	  757.81	-2269.06	  425.96
     93.6700	  807.00	  779.93	-2203.18	  425.81
     93.7700	  779.00	  801.60	-2252.85	  425.65
     93.8700	  793.00	  821.98	-2259.23	  425.50
     93.9700	  771.00	  840.36	-2299.61	  425.35
     94.0700	  805.00	  856.33	-2281.58	  425.20
     94.1700	  856.00	  869.94	-2244.19	  425.05
     94.2700	  815.00	  881.69	-2296.94	  424.90
     94.3700	  888.00	  892.40	-2234.65	  424.75
     94.4700	  824.00	  902.61	-2308.86	  424.61
     94.5700	  863.00	  913.69	-2280.94	  424.46
     94.6700	  923.00	  925.85	-2233.10	  424.32
     94.7700	  928.00	  939.36	-2241.61	  424.17
     94.8700	  921.00	  954.39	-2263.64	  424.03
     94.9700	 1019.00	  970.98	-2182.23	  423.89
     95.0700	  969.00	  989.09	-2250.34	  423.75
     95.1700	 1046.00	 1008.50	-2192.75	  423.61
     95.2700	 1051.00	 1028.63	-2207.88	  423.47
     95.3700	 1048.00	 1048.48	-2230.73	  423.34
     95.4700	 1054.00	 1066.56	-2242.81	  423.20
     95.5700	 1069.00	 1081.01	-2242.26	  423.07
     95.6700	 1165.00	 1089.82	-2155.07	  422.93
     95.7700	 1061.00	 1091.16	-2260.41	  422.80
     95.8700	 1090.00	 1083.86	-2224.11	  422.67
     95.9700	 1078.00	 1067.71	-2219.96	  422.54
     96.0700	 1060.00	 1043.59	-2213.84	  422.41
     96.1700	 1002.00	 1013.26	-2241.51	  422.28
     96.2700	 1023.00	  978.98	-2186.23	  422.15
     96.3700	  982.00	  943.18	-2191.43	  422.03
     96.4700	  890.00	  908.26	-2248.51	  421.90
     96.5700	  903.00	  876.44	-2203.69	  421.78
     96.6700	  869.00	  849.68	-2210.93	  421.66
     96.7700	  867.00	  829.64	-2192.89	  421.54
     96.8700	  838.00	  817.66	-2209.91	  421.42
     96.9700	  838.00	  814.84	-2207.09	  421.30
     97.0700	  844.00	  821.96	-2208.21	  421.18
     97.1700	  848.00	  839.57	-2221.82	  421.07
     97.2700	  937.00	  867.96	-2161.21	  420.95
     97.3700	  895.00	  907.19	-2242.44	  420.84
     97.4700	  976.00	  956.98	-2211.23	  420.73
     97.5700	 1071.00	 1016.71	-2175.96	  420.62
     97.6700	 1156.00	 1085.32	-2159.57	  420.51
     97.7700	 1121.00	 1161.25	-2270.50	  420.40
     97.8700	 1262.00	 1242.38	-2210.63	  420.29
     97.9700	 1344.00	 1325.94	-2212.19	  420.19
     98.0700	 1388.00	 1408.55	-2250.80	  420.08
     98.1700	 1494.00	 1486.21	-2222.46	  419.98
     98.2700	 1510.00	 1554.48	-2274.73	  419.88
     98.3700	 1617.00	 1608.83	-2222.08	  419.78
     98.4700	 1598.00	 1645.16	-2277.41	  419.68
     98.5700	 1620.00	 1660.61	-2270.86	  419.58
     98.6700	 1596.00	 1654.24	-2288.49	  419.49
     98.7700	 1550.00	 1627.17	-2307.42	  419.39
     98.8700	 1511.00	 1582.26	-2301.51	  419.30
     98.9700	 1476.00	 1523.49	-2277.74	  419.21
     99.0700	 1421.00	 1455.28	-2264.53	  419.12
     99.1700	 1390.00	 1382.02	-2222.27	  419.03
     99.2700	 1321.00	 1307.70	-2216.95	  418.95
     99.3700	 1207.00	 1235.87	-2259.12	  418.86
     99.4700	 1190.00	 1169.56	-2209.81	  418.78
     99.5700	 1141.00	 1111.28	-2200.53	  418.69
     99.6700	 1056.00	 1063.04	-2237.29	  418.61
     99.7700	 1038.00	 1026.43	-2218.68	  418.53
     99.8700	 1024.00	 1002.65	-2208.90	  418.46
     99.9700	 1002.00	  992.56	-2220.81	  418.38
    100.0700	 1065.00	  996.73	-2161.98	  418.30
    100.1700	 1028.00	 1015.39	-2217.64	  418.23
    100.2700	 1026.00	 1048.48	-2252.73	  418.16
    100.3700	 1164.00	 1095.60	-2161.85	  418.09
    100.4700	 1172.00	 1156.04	-2214.29	  418.02
    100.5700	 1275.00	 1228.68	-2183.93	  417.95
    100.6700	 1308.00	 1312.02	-2234.27	  417.89
    100.7700	 1369.00	 1404.04	-2265.29	  417.83
    100.8700	 1494.00	 1502.22	-2238.47	  417.76
    100.9700	 1515.00	 1603.45	-2318.70	  417.70
    101.0700	 1648.00	 1704.46	-2286.71	  417.64
    101.1700	 1866.00	 1801.40	-2165.65	  417.59
    101.2700	 1850.00	 1890.52	-2270.77	  417.53
    101.3700	 1988.00	 1968.56	-2210.81	  417.48
    101.4700	 2015.00	 2033.03	-2248.28	  417.43
    101.5700	 2107.00	 2082.46	-2205.71	  417.38
    101.6700	 2063.00	 2116.11	-2283.36	  417.33
    101.7700	 2112.00	 2133.68	-2251.93	  417.28
    101.8700	 2204.00	 2135.06	-2161.31	  417.24
    101.9700	 2216.00	 2120.25	-2134.50	  417.19
    102.0700	 2106.00	 2089.58	-2213.83	  417.15
    102.1700	 2055.00	 2044.14	-2219.39	  417.11
    102.2700	 2016.00	 1986.05	-2200.30	  417.07
    102.3700	 1971.00	 1918.37	-2177.62	  417.04
    102.4700	 1883.00	 1844.84	-2192.09	  417.00
    102.5700	 1831.00	 1769.27	-2168.52	  416.97
    102.6700	 1701.00	 1695.16	-2224.41	  416.94
    102.7700	 1763.00	 1625.33	-2092.58	  416.91
    102.8700	 1664.00	 1561.81	-2128.06	  416.88
    102.9700	 1476.00	 1505.78	-2260.03	  416.86
    103.0700	 1509.00	 1457.66	-2178.91	  416.83
    103.1700	 1446.00	 1417.14	-2201.39	  416.81
    103.2700	 1401.00	 1383.31	-2212.56	  416.79
    103.3700	 1430.00	 1354.71	-2154.96	  416.77
    103.4700	 1338.00	 1329.48	-2221.73	  416.75
    103.5700	 1321.00	 1305.50	-2214.75	  416.74
    103.6700	 1246.00	 1280.75	-2265.00	  416.73
    103.7700	 1231.00	 1253.48	-2252.73	  416.72
    103.8700	 1195.00	 1222.56	-2257.81	  416.71
    103.9700	 1110.00	 1187.58	-2307.83	  416.70
    104.0700	 1156.00	 1148.79	-2223.04	  416.70
    104.1700	 1110.00	 1106.97	-2227.22	  416.69
    104.2700	 1072.00	 1063.16	-2221.41	  416.69
    104.3700	 1054.00	 1018.47	-2194.72	  416.69
    104.4700	  979.00	  974.01	-2225.26	  416.70
    104.5700	  923.00	  930.74	-2237.99	  416.70
    104.6700	  892.00	  889.51	-2227.76	  416.71
    104.7700	  867.00	  850.97	-2214.22	  416.72
    104.8700	  838.00	  815.60	-2207.85	  416.73
    104.9700	  779.00	  783.66	-2234.91	  416.74
    105.0700	  822.00	  755.44	-2163.69	  416.75
    105.1700	  729.00	  730.89	-2232.14	  416.77
    105.2700	  706.00	  709.90	-2234.15	  416.79
    105.3700	  694.00	  692.23	-2228.48	  416.81
    105.4700	  668.00	  677.62	-2239.88	  416.83
    105.5700	  694.00	  665.76	-2202.01	  416.86
    105.6700	  641.00	  656.31	-2245.56	  416.88
    105.7700	  639.00	  648.91	-2240.16	  416.91
    105.8700	  661.00	  643.36	-2212.61	  416.94
    105.9700	  620.00	  639.35	-2249.60	  416.98
    106.0700	  640.00	  636.69	-2226.94	  417.01
    106.1700	  653.00	  635.20	-2212.45	  417.05
    106.2700	  650.00	  634.79	-2215.04	  417.09
    106.3700	  590.00	  635.36	-2275.61	  417.13
    106.4700	  618.00	  636.91	-2249.16	  417.17
    106.5700	  638.00	  639.42	-2231.67	  417.22
    106.6700	  611.00	  642.94	-2262.19	  417.27
    106.7700	  620.00	  647.51	-2257.76	  417.32
    106.8700	  655.00	  653.19	-2228.44	  417.37
    106.9700	  657.00	  660.03	-2233.28	  417.42
    107.0700	  683.00	  668.09	-2215.34	  417.48
    107.1700	  647.00	  677.40	-2260.65	  417.54
    107.2700	  713.00	  687.94	-2205.19	  417.60
    107.3700	  692.00	  699.65	-2237.90	  417.66
    107.4700	  728.00	  712.40	-2214.65	  417.73
    107.5700	  704.00	  726.03	-2252.28	  417.79
    107.6700	  675.00	  740.28	-2295.53	  417.86
    107.7700	  752.00	  754.84	-2233.09	  417.93
    107.8700	  722.00	  769.33	-2277.58	  418.01
    107.9700	  741.00	  783.32	-2272.57	  418.09
    108.0700	  778.00	  796.34	-2248.59	  418.16
    108.1700	  749.00	  807.92	-2289.17	  418.24
    108.2700	  771.00	  817.62	-2276.87	  418.33
    108.3700	  816.00	  825.10	-2239.35	  418.41
    108.4700	  807.00	  830.16	-2253.41	  418.50
    108.5700	  791.00	  832.78	-2272.03	  418.59
    108.6700	  783.00	  833.23	-2280.48	  418.68
    108.7700	  809.00	  831.87	-2253.12	  418.78
    108.8700	  779.00	  829.20	-2280.45	  418.87
    108.9700	  807.00	  825.75	-2249.00	  418.97
    109.0700	  784.00	  822.04	-2268.29	  419.07
    109.1700	  761.00	  818.50	-2287.75	  419.18
    109.2700	  689.00	  815.50	-2356.75	  419.28
    109.3700	  771.00	  813.27	-2272.52	  419.39
    109.4700	  749.00	  811.96	-2293.21	  419.50
    109.5700	  790.00	  811.56	-2251.81	  419.62
    109.6700	  829.00	  811.98	-2213.23	  419.73
    109.7700	  803.00	  812.98	-2240.23	  419.85
    109.8700	  778.00	  814.24	-2266.49	  419.97
    109.9700	  789.00	  815.36	-2256.61	  420.09
    110.0700	  799.00	  815.89	-2247.14	  420.22
    110.1700	  798.00	  815.37	-2247.62	  420.34
    110.2700	  802.00	  813.45	-2241.70	  420.47
    110.3700	  771.00	  809.85	-2269.10	  420.60
    110.4700	  787.00	  804.45	-2247.70	  420.74
    110.5700	  776.00	  797.30	-2251.55	  420.88
    110.6700	  741.00	  788.57	-2277.82	  421.02
    110.7700	  744.00	  778.56	-2264.81	  421.16
    110.8700	  779.00	  767.59	-2218.84	  421.30
    110.9700	  771.00	  756.01	-2215.26	  421.45
    111.0700	  702.00	  744.16	-2272.41	  421.60
    111.1700	  723.00	  732.35	-2239.60	  421.75
    111.2700	  743.00	  720.85	-2208.10	  421.90
    111.3700	  669.00	  709.88	-2271.13	  422.06
    111.4700	  685.00	  699.64	-2244.89	  422.22
    111.5700	  687.00	  690.28	-2233.53	  422.38
    111.6700	  701.00	  681.88	-2211.13	  422.54
    111.7700	  682.00	  674.52	-2222.77	  422.71
    111.8700	  635.00	  668.22	-2263.47	  422.88
    111.9700	  652.00	  662.98	-2241.23	  423.05
    112.0700	  657.00	  658.77	-2232.02	  423.22
    112.1700	  649.00	  655.51	-2236.76	  423.40
    112.2700	  633.00	  653.15	-2250.40	  423.58
    112.3700	  617.00	  651.60	-2264.85	  423.76
    112.4700	  606.00	  650.75	-2275.00	  423.95
    112.5700	  654.00	  650.52	-2226.77	  424.13
    112.6700	  617.00	  650.81	-2264.06	  424.32
    112.7700	  646.00	  651.51	-2235.76	  424.51
    112.8700	  638.00	  652.55	-2244.80	  424.71
    112.9700	  621.00	  653.85	-2263.10	  424.90
    113.0700	  608.00	  655.34	-2277.59	  425.10
    113.1700	  589.00	  656.98	-2298.23	  425.31
    113.2700	  673.00	  658.72	-2215.97	  425.51
    113.3700	  621.00	  660.55	-2269.80	  425.72
    113.4700	  640.00	  662.48	-2252.73	  425.93
    113.5700	  611.00	  664.53	-2283.78	  426.14
    113.6700	  666.00	  666.72	-2230.97	  426.35
    113.7700	  664.00	  669.12	-2235.37	  426.57
    113.8700	  600.00	  671.76	-2302.01	  426.79
    113.9700	  653.00	  674.73	-2251.98	  427.01
    114.0700	  677.00	  678.13	-2231.38	  427.24
    114.1700	  639.00	  682.05	-2273.30	  427.47
    114.2700	  687.00	  686.62	-2229.87	  427.70
    114.3700	  663.00	  692.03	-2259.28	  427.93
    114.4700	  660.00	  698.50	-2268.75	  428.17
    114.5700	  689.00	  706.31	-2247.56	  428.41
    114.6700	  734.00	  715.85	-2212.10	  428.65
    114.7700	  734.00	  727.57	-2223.82	  428.89
    114.8700	  776.00	  742.09	-2196.34	  429.14
    114.9700	  760.00	  760.16	-2230.41	  429.39
    115.0700	  824.00	  782.73	-2188.98	  429.64
    115.1700	  844.00	  810.97	-2197.22	  429.89
    115.2700	  888.00	  846.26	-2188.51	  430.15
    115.3700	 1005.00	  890.25	-2115.50	  430.41
    115.4700	 1062.00	  944.87	-2113.12	  430.67
    115.5700	 1145.00	 1012.29	-2097.54	  430.94
    115.6700	 1254.00	 1094.97	-2071.22	  431.21
    115.7700	 1331.00	 1195.54	-2094.79	  431.48
    115.8700	 1533.00	 1316.79	-2014.04	  431.75
    115.9700	 1664.00	 1461.52	-2027.77	  432.03
    116.0700	 1891.00	 1632.51	-1971.76	  432.31
    116.1700	 2078.00	 1832.35	-1984.60	  432.59
    116.2700	 2310.00	 2063.17	-1983.42	  432.87
    116.3700	 2588.00	 2326.53	-1968.78	  433.16
    116.4700	 2837.00	 2623.20	-2016.45	  433.45
    116.5700	 3124.00	 2953.05	-2059.30	  433.74
    116.6700	 3531.00	 3314.81	-2014.06	  434.04
    116.7700	 3889.00	 3705.82	-2047.07	  434.33
    116.8700	 4160.00	 4122.07	-2192.32	  434.63
    116.9700	 4580.00	 4557.96	-2208.21	  434.94
    117.0700	 4911.00	 5006.67	-2325.92	  435.24
    117.1700	 5428.00	 5459.87	-2262.12	  435.55
    117.2700	 5795.00	 5907.83	-2343.08	  435.86
    117.3700	 6172.00	 6339.78	-2398.03	  436.18
    117.4700	 6527.00	 6744.05	-2447.30	  436.50
    117.5700	 6916.00	 7108.66	-2422.91	  436.82
    117.6700	 7161.00	 7421.65	-2490.90	  437.14
    117.7700	 7420.00	 7671.69	-2481.94	  437.46
    117.8700	 7512.00	 7849.13	-2567.38	  437.79
    117.9700	 7544.00	 7946.73	-2632.98	  438.12
    118.0700	 7805.00	 7960.59	-2385.84	  438.46
    118.1700	 7591.00	 7890.49	-2529.74	  438.79
    118.2700	 7644.00	 7739.96	-2326.21	  439.13
    118.3700	 7271.00	 7515.85	-2475.10	  439.48
    118.4700	 6963.00	 7227.60	-2494.85	  439.82
    118.5700	 6592.00	 6886.22	-2524.47	  440.17
    118.6700	 6354.00	 6503.47	-2379.72	  440.52
    118.7700	 6103.00	 6091.37	-2218.62	  440.87
    118.8700	 5579.00	 5661.41	-2312.66	  441.23
    118.9700	 5231.00	 5224.32	-2223.57	  441.59
    119.0700	 4874.00	 4789.62	-2145.87	  441.95
    119.1700	 4615.00	 4365.52	-1980.77	  442.31
    119.2700	 4229.00	 3958.95	-1960.20	  442.68
    119.3700	 3809.00	 3575.32	-1996.57	  443.05
    119.4700	 3490.00	 3218.62	-1958.88	  443.43
    119.5700	 3272.00	 2891.37	-1849.62	  443.80
    119.6700	 2830.00	 2594.83	-1995.08	  444.18
    119.7700	 2556.00	 2329.27	-2003.52	  444.56
    119.8700	 2334.00	 2094.03	-1990.28	  444.95
    119.9700	 2097.00	 1887.74	-2020.99	  445.33
    120.0700	 1941.00	 1708.46	-1997.71	  445.72
    120.1700	 1738.00	 1553.91	-2046.16	  446.12
    120.2700	 1660.00	 1421.67	-1991.92	  446.51
    120.3700	 1526.00	 1309.22	-2013.47	  446.91
    120.4700	 1372.00	 1214.09	-2072.34	  447.31
    120.5700	 1381.00	 1133.90	-1983.15	  447.72
    120.6700	 1205.00	 1066.46	-2091.71	  448.12
    120.7700	 1128.00	 1009.82	-2112.07	  448.53
    120.8700	 1107.00	  962.26	-2085.51	  448.95
    120.9700	 1011.00	  922.27	-2141.52	  449.36
    121.0700	  977.00	  888.60	-2141.85	  449.78
    121.1700	  909.00	  860.19	-2181.44	  450.20
    121.2700	  848.00	  836.17	-2218.42	  450.63
    121.3700	  869.00	  815.85	-2177.10	  451.05
    121.4700	  841.00	  798.67	-2187.92	  451.48
    121.5700	  792.00	  784.16	-2222.41	  451.92
    121.6700	  758.00	  771.98	-2244.23	  452.35
    121.7700	  746.00	  761.83	-2246.08	  452.79
    121.8700	  752.00	  753.51	-2231.76	  453.23
    121.9700	  714.00	  746.82	-2263.07	  453.67
    122.0700	  712.00	  741.62	-2259.87	  454.12
    122.1700	  695.00	  737.81	-2273.06	  454.57
    122.2700	  694.00	  735.27	-2271.52	  455.02
    122.3700	  673.00	  733.94	-2291.19	  455.48
    122.4700	  701.00	  733.75	-2263.00	  455.94
    122.5700	  716.00	  734.63	-2248.88	  456.40
    122.6700	  702.00	  736.53	-2264.78	  456.86
    122.7700	  719.00	  739.40	-2250.65	  457.33
    122.8700	  678.00	  743.18	-2295.43	  457.80
    122.9700	  714.00	  747.81	-2264.06	  458.27
    123.0700	  685.00	  753.23	-2298.48	  458.75
    123.1700	  731.00	  759.37	-2258.62	  459.23
    123.2700	  715.00	  766.14	-2281.39	  459.71
    123.3700	  755.00	  773.47	-2248.72	  460.19
    123.4700	  760.00	  781.24	-2251.49	  460.68
    123.5700	  801.00	  789.36	-2218.61	  461.17
    123.6700	  759.00	  797.72	-2268.97	  461.66
    123.7700	  763.00	  806.18	-2273.43	  462.16
    123.8700	  799.00	  814.62	-2245.87	  462.66
    123.9700	  772.00	  822.91	-2281.16	  463.16
    124.0700	  821.00	  830.92	-2240.17	  463.66
    124.1700	  793.00	  838.53	-2275.78	  464.17
    124.2700	  822.00	  845.65	-2253.90	  464.68
    124.3700	  745.00	  852.18	-2337.43	  465.19
    124.4700	  827.00	  858.07	-2261.32	  465.71
    124.5700	  793.00	  863.28	-2300.53	  466.22
    124.6700	  820.00	  867.87	-2278.12	  466.75
    124.7700	  826.00	  871.84	-2276.09	  467.27
    124.8700	  852.00	  875.25	-2253.50	  467.80
    124.9700	  849.00	  607.22	-1988.47	  468.33
    125.0700	  800.00	  607.76	-2230.25	  468.86
    125.1700	  820.00	  608.29	-2230.25	  469.39
    125.2700	  806.00	  608.83	-2230.25	  469.93
    125.3700	  854.00	  609.37	-2230.25	  470.47
    125.4700	  797.00	  609.91	-2230.25	  471.02
    125.5700	  817.00	  610.46	-2230.25	  471.56
    125.6700	  824.00	  611.01	-2230.25	  472.11
    125.7700	  813.00	  611.56	-2230.25	  472.67
    125.8700	  807.00	  612.12	-2230.25	  473.22
    125.9700	  808.00	  612.68	-2230.25	  473.78
    126.0700	  816.00	  613.24	-2230.25	  474.34
    126.1700	  811.00	  613.80	-2230.25	  474.90
    126.2700	  792.00	  614.37	-2230.25	  475.47
    126.3700	  818.00	  614.94	-2230.25	  476.04
    126.4700	  821.00	  615.51	-2230.25	  476.61
    126.5700	  775.00	  616.08	-2230.25	  477.19
    126.6700	  757.00	  616.66	-2230.25	  477.76
    126.7700	  793.00	  617.24	-2230.25	  478.34
    126.8700	  778.00	  617.82	-2230.25	  478.93
    126.9700	  742.00	  618.41	-2230.25	  479.51
    127.0700	  749.00	  619.00	-2230.25	  480.10
    127.1700	  680.00	  619.59	-2230.25	  480.69
    127.2700	  734.00	  620.18	-2230.25	  481.29
    127.3700	  755.00	  620.78	-2230.25	  481.88
    127.4700	  680.00	  621.38	-2230.25	  482.48
    127.5700	  671.00	  621.98	-2230.25	  483.09
    127.6700	  694.00	  622.59	-2230.25	  483.69
    127.7700	  660.00	  623.20	-2230.25	  484.30
    127.8700	  670.00	  623.81	-2230.25	  484.91
    127.9700	  649.00	  624.42	-2230.25	  485.53
    128.0700	  701.00	  625.04	-2230.25	  486.14
    128.1700	  675.00	  625.66	-2230.25	  486.76
    128.2700	  710.00	  626.28	-2230.25	  487.38
    128.3700	  647.00	  626.91	-2230.25	  488.01
    128.4700	  681.00	  627.53	-2230.25	  488.64
    128.5700	    0.00	  628.16	-2230.25	  489.27
    128.6700	    0.00	  628.80	-2230.25	  489.90
     12.4446	        	        	        	        	       0	(  0  0  2)	  0  1
     12.4446	        	        	        	        	    -557	(  0  0  2)	  0  1
     25.1335	        	        	        	        	       0	(  0  0  4)	  0  1
     25.1335	        	        	        	        	    -557	(  0  0  4)	  0  1
     28.5741	        	        	        	        	       0	(  1  0  0)	  0  1
     28.5741	        	        	        	        	    -557	(  1  0  0)	  0  1
     29.2781	        	        	        	        	       0	(  1  0  1)	  0  1
     29.2781	        	        	        	        	    -557	(  1  0  1)	  0  1
     31.3037	        	        	        	        	       0	(  1  0  2)	  0  1
     31.3037	        	        	        	        	    -557	(  1  0  2)	  0  1
     34.4419	        	        	        	        	       0	(  1  0  3)	  0  1
     34.4419	        	        	        	        	    -557	(  1  0  3)	  0  1
     38.1467	        	        	        	        	       0	(  0  0  6)	  0  1
     38.1467	        	        	        	        	    -557	(  0  0  6)	  0  1
     38.4574	        	        	        	        	       0	(  1  0  4)	  0  1
     38.4574	        	        	        	        	    -557	(  1  0  4)	  0  1
     43.1528	        	        	        	        	       0	(  1  0  5)	  0  1
     43.1528	        	        	        	        	    -557	(  1  0  5)	  0  1
     48.3885	        	        	        	        	       0	(  1  0  6)	  0  1
     48.3885	        	        	        	        	    -557	(  1  0  6)	  0  1
     50.6880	        	        	        	        	       0	(  1  1  0)	  0  1
     50.6880	        	        	        	        	    -557	(  1  1  0)	  0  1
     51.6967	        	        	        	        	       0	(  0  0  8)	  0  1
     51.6967	        	        	        	        	    -557	(  0  0  8)	  0  1
     52.4297	        	        	        	        	       0	(  1  1  2)	  0  1
     52.4297	        	        	        	        	    -557	(  1  1  2)	  0  1
     54.0770	        	        	        	        	       0	(  1  0  7)	  0  1
     54.0770	        	        	        	        	    -557	(  1  0  7)	  0  1
     57.4322	        	        	        	        	       0	(  1  1  4)	  0  1
     57.4322	        	        	        	        	    -557	(  1  1  4)	  0  1
     59.2618	        	        	        	        	       0	(  2  0  0)	  0  1
     59.2618	        	        	        	        	    -557	(  2  0  0)	  0  1
     59.6579	        	        	        	        	       0	(  2  0  1)	  0  1
     59.6579	        	        	        	        	    -557	(  2  0  1)	  0  1
     60.1723	        	        	        	        	       0	(  1  0  8)	  0  1
     60.1723	        	        	        	        	    -557	(  1  0  8)	  0  1
     60.8368	        	        	        	        	       0	(  2  0  2)	  0  1
     60.8368	        	        	        	        	    -557	(  2  0  2)	  0  1
     62.7724	        	        	        	        	       0	(  2  0  3)	  0  1
     62.7724	        	        	        	        	    -557	(  2  0  3)	  0  1
     65.2156	        	        	        	        	       0	(  1  1  6)	  0  1
     65.2156	        	        	        	        	    -557	(  1  1  6)	  0  1
     65.4278	        	        	        	        	       0	(  2  0  4)	  0  1
     65.4278	        	        	        	        	    -557	(  2  0  4)	  0  1
     66.0788	        	        	        	        	       0	(  0  0 10)	  0  1
     66.0788	        	        	        	        	    -557	(  0  0 10)	  0  1
     66.6618	        	        	        	        	       0	(  1  0  9)	  0  1
     66.6618	        	        	        	        	    -557	(  1  0  9)	  0  1
     68.7623	        	        	        	        	       0	(  2  0  5)	  0  1
     68.7623	        	        	        	        	    -557	(  2  0  5)	  0  1
     72.7395	        	        	        	        	       0	(  2  0  6)	  0  1
     72.7395	        	        	        	        	    -557	(  2  0  6)	  0  1
     73.5614	        	        	        	        	       0	(  1  0 10)	  0  1
     73.5614	        	        	        	        	    -557	(  1  0 10)	  0  1
     75.3788	        	        	        	        	       0	(  1  1  8)	  0  1
     75.3788	        	        	        	        	    -557	(  1  1  8)	  0  1
     77.3336	        	        	        	        	       0	(  2  0  7)	  0  1
     77.3336	        	        	        	        	    -557	(  2  0  7)	  0  1
     80.9163	        	        	        	        	       0	(  1  0 11)	  0  1
     80.9163	        	        	        	        	    -557	(  1  0 11)	  0  1
     81.7417	        	        	        	        	       0	(  2  1  0)	  0  1
     81.7417	        	        	        	        	    -557	(  2  1  0)	  0  1
     81.7571	        	        	        	        	       0	(  0  0 12)	  0  1
     81.7571	        	        	        	        	    -557	(  0  0 12)	  0  1
     82.0866	        	        	        	        	       0	(  2  1  1)	  0  1
     82.0866	        	        	        	        	    -557	(  2  1  1)	  0  1
     82.5361	        	        	        	        	       0	(  2  0  8)	  0  1
     82.5361	        	        	        	        	    -557	(  2  0  8)	  0  1
     83.1194	        	        	        	        	       0	(  2  1  2)	  0  1
     83.1194	        	        	        	        	    -557	(  2  1  2)	  0  1
     84.8360	        	        	        	        	       0	(  2  1  3)	  0  1
     84.8360	        	        	        	        	    -557	(  2  1  3)	  0  1
     87.2319	        	        	        	        	       0	(  2  1  4)	  0  1
     87.2319	        	        	        	        	    -557	(  2  1  4)	  0  1
     87.8265	        	        	        	        	       0	(  1  1 10)	  0  1
     87.8265	        	        	        	        	    -557	(  1  1 10)	  0  1
     88.3612	        	        	        	        	       0	(  2  0  9)	  0  1
     88.3612	        	        	        	        	    -557	(  2  0  9)	  0  1
     88.8068	        	        	        	        	       0	(  1  0 12)	  0  1
     88.8068	        	        	        	        	    -557	(  1  0 12)	  0  1
     90.3061	        	        	        	        	       0	(  2  1  5)	  0  1
     90.3061	        	        	        	        	    -557	(  2  1  5)	  0  1
     94.0659	        	        	        	        	       0	(  2  1  6)	  0  1
     94.0659	        	        	        	        	    -557	(  2  1  6)	  0  1
     94.8554	        	        	        	        	       0	(  2  0 10)	  0  1
     94.8554	        	        	        	        	    -557	(  2  0 10)	  0  1
     95.8245	        	        	        	        	       0	(  3  0  0)	  0  1
     95.8245	        	        	        	        	    -557	(  3  0  0)	  0  1
     96.1679	        	        	        	        	       0	(  3  0  1)	  0  1
     96.1679	        	        	        	        	    -557	(  3  0  1)	  0  1
     97.1995	        	        	        	        	       0	(  3  0  2)	  0  1
     97.1995	        	        	        	        	    -557	(  3  0  2)	  0  1
     97.3646	        	        	        	        	       0	(  1  0 13)	  0  1
     97.3646	        	        	        	        	    -557	(  1  0 13)	  0  1
     98.5339	        	        	        	        	       0	(  2  1  7)	  0  1
     98.5339	        	        	        	        	    -557	(  2  1  7)	  0  1
     98.9244	        	        	        	        	       0	(  3  0  3)	  0  1
     98.9244	        	        	        	        	    -557	(  3  0  3)	  0  1
     99.5869	        	        	        	        	       0	(  0  0 14)	  0  1
     99.5869	        	        	        	        	    -557	(  0  0 14)	  0  1
    101.3535	        	        	        	        	       0	(  3  0  4)	  0  1
    101.3535	        	        	        	        	    -557	(  3  0  4)	  0  1
    102.1121	        	        	        	        	       0	(  2  0 11)	  0  1
    102.1121	        	        	        	        	    -557	(  2  0 11)	  0  1
    102.9642	        	        	        	        	       0	(  1  1 12)	  0  1
    102.9642	        	        	        	        	    -557	(  1  1 12)	  0  1
    103.7578	        	        	        	        	       0	(  2  1  8)	  0  1
    103.7578	        	        	        	        	    -557	(  2  1  8)	  0  1
    104.5082	        	        	        	        	       0	(  3  0  5)	  0  1
    104.5082	        	        	        	        	    -557	(  3  0  5)	  0  1
    106.8072	        	        	        	        	       0	(  1  0 14)	  0  1
    106.8072	        	        	        	        	    -557	(  1  0 14)	  0  1
    108.4276	        	        	        	        	       0	(  3  0  6)	  0  1
    108.4276	        	        	        	        	    -557	(  3  0  6)	  0  1
    109.8271	        	        	        	        	       0	(  2  1  9)	  0  1
    109.8271	        	        	        	        	    -557	(  2  1  9)	  0  1
    110.3017	        	        	        	        	       0	(  2  0 12)	  0  1
    110.3017	        	        	        	        	    -557	(  2  0 12)	  0  1
    113.1806	        	        	        	        	       0	(  3  0  7)	  0  1
    113.1806	        	        	        	        	    -557	(  3  0  7)	  0  1
    116.9039	        	        	        	        	       0	(  2  1 10)	  0  1
    116.9039	        	        	        	        	    -557	(  2  1 10)	  0  1
    117.5225	        	        	        	        	       0	(  1  0 15)	  0  1
    117.5225	        	        	        	        	    -557	(  1  0 15)	  0  1
    117.9920	        	        	        	        	       0	(  2  2  0)	  0  1
    117.9920	        	        	        	        	    -557	(  2  2  0)	  0  1
    118.8878	        	        	        	        	       0	(  3  0  8)	  0  1
    118.8878	        	        	        	        	    -557	(  3  0  8)	  0  1
    119.5516	        	        	        	        	       0	(  2  2  2)	  0  1
    119.5516	        	        	        	        	    -557	(  2  2  2)	  0  1
    119.7402	        	        	        	        	       0	(  2  0 13)	  0  1
    119.7402	        	        	        	        	    -557	(  2  0 13)	  0  1
    121.6240	        	        	        	        	       0	(  0  0 16)	  0  1
    121.6240	        	        	        	        	    -557	(  0  0 16)	  0  1
    122.3070	        	        	        	        	       0	(  1  1 14)	  0  1
    122.3070	        	        	        	        	    -557	(  1  1 14)	  0  1
    124.3881	        	        	        	        	       0	(  2  2  4)	  0  1
    124.3881	        	        	        	        	    -557	(  2  2  4)	  0  1
    125.2939	        	        	        	        	       0	(  2  1 11)	  0  1
    125.2939	        	        	        	        	    -557	(  2  1 11)	  0  1
    125.7687	        	        	        	        	       0	(  3  0  9)	  0  1
    125.7687	        	        	        	        	    -557	(  3  0  9)	  0  1
    126.3014	        	        	        	        	       0	(  3  1  0)	  0  1
    126.3014	        	        	        	        	    -557	(  3  1  0)	  0  1
    126.7268	        	        	        	        	       0	(  3  1  1)	  0  1
    126.7268	        	        	        	        	    -557	(  3  1  1)	  0  1
    128.0174	        	        	        	        	       0	(  3  1  2)	  0  1
    128.0174	        	        	        	        	    -557	(  3  1  2)	  0  1
    130.2211	        	        	        	        	       0	(  3  1  3)	  0  1
    130.2211	        	        	        	        	    -557	(  3  1  3)	  0  1
    130.3193	        	        	        	        	       0	(  1  0 16)	  0  1
    130.3193	        	        	        	        	    -557	(  1  0 16)	  0  1
    131.0839	        	        	        	        	       0	(  2  0 14)	  0  1
    131.0839	        	        	        	        	    -557	(  2  0 14)	  0  1
    133.1683	        	        	        	        	       0	(  2  2  6)	  0  1
    133.1683	        	        	        	        	    -557	(  2  2  6)	  0  1
    133.4338	        	        	        	        	       0	(  3  1  4)	  0  1
    133.4338	        	        	        	        	    -557	(  3  1  4)	  0  1
    134.2588	        	        	        	        	       0	(  3  0 10)	  0  1
    134.2588	        	        	        	        	    -557	(  3  0 10)	  0  1
    135.6458	        	        	        	        	       0	(  2  1 12)	  0  1
    135.6458	        	        	        	        	    -557	(  2  1 12)	  0  1
    137.8372	        	        	        	        	       0	(  3  1  5)	  0  1
    137.8372	        	        	        	        	    -557	(  3  1  5)	  0  1
    143.7968	        	        	        	        	       0	(  3  1  6)	  0  1
    143.7968	        	        	        	        	    -557	(  3  1  6)	  0  1
    145.4156	        	        	        	        	       0	(  3  0 11)	  0  1
    145.4156	        	        	        	        	    -557	(  3  0 11)	  0  1
    146.1305	        	        	        	        	       0	(  2  0 15)	  0  1
    146.1305	        	        	        	        	    -557	(  2  0 15)	  0  1
    147.5733	        	        	        	        	       0	(  1  0 17)	  0  1
    147.5733	        	        	        	        	    -557	(  1  0 17)	  0  1
    148.3579	        	        	        	        	       0	(  2  2  8)	  0  1
    148.3579	        	        	        	        	    -557	(  2  2  8)	  0  1
    149.8071	        	        	        	        	       0	(  2  1 13)	  0  1
    149.8071	        	        	        	        	    -557	(  2  1 13)	  0  1
    152.2025	        	        	        	        	       0	(  3  1  7)	  0  1
    152.2025	        	        	        	        	    -557	(  3  1  7)	  0  1
    153.2104	        	        	        	        	       0	(  1  1 16)	  0  1
    153.2104	        	        	        	        	    -557	(  1  1 16)	  0  1
    158.4936	        	        	        	        	       0	(  0  0 18)	  0  1
    158.4936	        	        	        	        	    -557	(  0  0 18)	  0  1
    163.8549	        	        	        	        	       0	(  4  0  0)	  0  1
    163.8549	        	        	        	        	    -557	(  4  0  0)	  0  1
    163.9100	        	        	        	        	       0	(  3  0 12)	  0  1
    163.9100	        	        	        	        	    -557	(  3  0 12)	  0  1
    165.1399	        	        	        	        	       0	(  4  0  1)	  0  1
    165.1399	        	        	        	        	    -557	(  4  0  1)	  0  1
    167.0029	        	        	        	        	       0	(  3  1  8)	  0  1
    167.0029	        	        	        	        	    -557	(  3  1  8)	  0  1
