MSG Master    CELL:    5.91883   5.91883  23.26832   90.0000   90.0000  120.0000   SPGR: P 63/m m c             TEMP:   1074.85
  1   1280     2.52000     0.00000    -0.13689     0.00000     0.00000    0
    99     0     2
       0.00000      10.00000
     125.00000     130.00000
 2Theta	Yobs	Ycal	Yobs-Ycal	Backg	Posr	(hkl)	K
      0.7700	    0.00	  546.31	-1770.00	  427.47
      0.8700	    0.00	  547.05	-1770.00	  428.21
      0.9700	   48.00	  547.78	-1770.00	  428.94
      1.0700	   42.00	  548.50	-1770.00	  429.66
      1.1700	   51.00	  549.21	-1770.00	  430.37
      1.2700	   55.00	  549.90	-1770.00	  431.07
      1.3700	   50.00	  550.59	-1770.00	  431.75
      1.4700	   72.00	  551.27	-1770.00	  432.43
      1.5700	  274.00	  551.93	-1770.00	  433.10
      1.6700	  507.00	  552.59	-1770.00	  433.75
      1.7700	  557.00	  553.23	-1770.00	  434.40
      1.8700	  648.00	  553.87	-1770.00	  435.03
      1.9700	  739.00	  554.49	-1770.00	  435.66
      2.0700	  759.00	  555.11	-1770.00	  436.27
      2.1700	  798.00	  555.71	-1770.00	  436.88
      2.2700	  743.00	  556.31	-1770.00	  437.47
      2.3700	  703.00	  556.89	-1770.00	  438.06
      2.4700	  675.00	  557.47	-1770.00	  438.63
      2.5700	  666.00	  558.03	-1770.00	  439.20
      2.6700	  672.00	  558.59	-1770.00	  439.75
      2.7700	  655.00	  559.13	-1770.00	  440.30
      2.8700	  675.00	  559.67	-1770.00	  440.83
      2.9700	  608.00	  560.19	-1770.00	  441.36
      3.0700	  612.00	  560.71	-1770.00	  441.88
      3.1700	  604.00	  561.22	-1770.00	  442.38
      3.2700	  589.00	  561.72	-1770.00	  442.88
      3.3700	  657.00	  562.20	-1770.00	  443.37
      3.4700	  691.00	  562.68	-1770.00	  443.85
      3.5700	  802.00	  563.15	-1770.00	  444.32
      3.6700	  832.00	  563.62	-1770.00	  444.78
      3.7700	  918.00	  564.07	-1770.00	  445.23
      3.8700	  979.00	  564.51	-1770.00	  445.68
      3.9700	 1065.00	  564.95	-1770.00	  446.11
      4.0700	 1035.00	  565.37	-1770.00	  446.54
      4.1700	 1063.00	  565.79	-1770.00	  446.95
      4.2700	 1130.00	  566.20	-1770.00	  447.36
      4.3700	 1073.00	  566.60	-1770.00	  447.76
      4.4700	 1046.00	  566.99	-1770.00	  448.15
      4.5700	 1004.00	  567.37	-1770.00	  448.53
      4.6700	 1021.00	  567.74	-1770.00	  448.91
      4.7700	  997.00	  568.11	-1770.00	  449.27
      4.8700	  990.00	  568.47	-1770.00	  449.63
      4.9700	  929.00	  568.82	-1770.00	  449.98
      5.0700	  949.00	  569.16	-1770.00	  450.32
      5.1700	  902.00	  569.49	-1770.00	  450.65
      5.2700	  925.00	  569.81	-1770.00	  450.98
      5.3700	  892.00	  570.13	-1770.00	  451.30
      5.4700	  834.00	  570.44	-1770.00	  451.60
      5.5700	  836.00	  570.74	-1770.00	  451.91
      5.6700	  840.00	  571.03	-1770.00	  452.20
      5.7700	  861.00	  571.32	-1770.00	  452.48
      5.8700	  820.00	  571.60	-1770.00	  452.76
      5.9700	  829.00	  571.87	-1770.00	  453.03
      6.0700	  787.00	  572.13	-1770.00	  453.30
      6.1700	  738.00	  572.39	-1770.00	  453.55
      6.2700	  786.00	  572.63	-1770.00	  453.80
      6.3700	  759.00	  572.87	-1770.00	  454.04
      6.4700	  751.00	  573.11	-1770.00	  454.27
      6.5700	  739.00	  573.33	-1770.00	  454.50
      6.6700	  720.00	  573.55	-1770.00	  454.72
      6.7700	  768.00	  573.76	-1770.00	  454.93
      6.8700	  692.00	  573.97	-1770.00	  455.13
      6.9700	  712.00	  574.17	-1770.00	  455.33
      7.0700	  747.00	  574.36	-1770.00	  455.52
      7.1700	  698.00	  574.54	-1770.00	  455.70
      7.2700	  687.00	  574.72	-1770.00	  455.88
      7.3700	  681.00	  574.89	-1770.00	  456.05
      7.4700	  697.00	  575.05	-1770.00	  456.21
      7.5700	  656.00	  575.21	-1770.00	  456.37
      7.6700	  708.00	  575.35	-1770.00	  456.52
      7.7700	  656.00	  575.50	-1770.00	  456.66
      7.8700	  651.00	  575.63	-1770.00	  456.80
      7.9700	  637.00	  575.77	-1770.00	  456.93
      8.0700	  660.00	  575.89	-1770.00	  457.05
      8.1700	  621.00	  576.01	-1770.00	  457.17
      8.2700	  642.00	  576.12	-1770.00	  457.28
      8.3700	  615.00	  576.22	-1770.00	  457.39
      8.4700	  628.00	  576.32	-1770.00	  457.49
      8.5700	  587.00	  576.41	-1770.00	  457.58
      8.6700	  632.00	  576.50	-1770.00	  457.67
      8.7700	  620.00	  576.58	-1770.00	  457.75
      8.8700	  618.00	  576.66	-1770.00	  457.82
      8.9700	  621.00	  576.73	-1770.00	  457.89
      9.0700	  604.00	  576.79	-1770.00	  457.95
      9.1700	  612.00	  576.85	-1770.00	  458.01
      9.2700	  647.00	  576.90	-1770.00	  458.06
      9.3700	  595.00	  576.94	-1770.00	  458.11
      9.4700	  572.00	  576.98	-1770.00	  458.15
      9.5700	  569.00	  577.02	-1770.00	  458.18
      9.6700	  586.00	  577.05	-1770.00	  458.21
      9.7700	  585.00	  577.07	-1770.00	  458.23
      9.8700	  586.00	  577.09	-1770.00	  458.25
      9.9700	  574.00	  577.10	-1770.00	  458.26
     10.0700	  561.00	  577.92	-1786.92	  458.27
     10.1700	  627.00	  578.01	-1721.01	  458.27
     10.2700	  591.00	  578.12	-1757.12	  458.27
     10.3700	  596.00	  578.25	-1752.25	  458.26
     10.4700	  605.00	  578.44	-1743.44	  458.25
     10.5700	  612.00	  578.75	-1736.75	  458.23
     10.6700	  615.00	  579.28	-1734.28	  458.21
     10.7700	  594.00	  580.12	-1756.12	  458.18
     10.8700	  581.00	  581.35	-1770.35	  458.14
     10.9700	  602.00	  582.94	-1750.94	  458.11
     11.0700	  598.00	  584.88	-1756.88	  458.06
     11.1700	  620.00	  587.15	-1737.15	  458.01
     11.2700	  589.00	  589.80	-1770.80	  457.96
     11.3700	  579.00	  592.90	-1783.90	  457.90
     11.4700	  568.00	  596.60	-1798.60	  457.84
     11.5700	  565.00	  601.10	-1806.10	  457.78
     11.6700	  645.00	  606.75	-1731.75	  457.70
     11.7700	  593.00	  614.20	-1791.20	  457.63
     11.8700	  628.00	  624.33	-1766.33	  457.55
     11.9700	  683.00	  637.66	-1724.66	  457.46
     12.0700	  682.00	  652.29	-1740.29	  457.37
     12.1700	  703.00	  661.83	-1728.83	  457.28
     12.2700	  671.00	  656.91	-1755.91	  457.18
     12.3700	  672.00	  635.98	-1733.98	  457.08
     12.4700	  606.00	  611.91	-1775.91	  456.98
     12.5700	  584.00	  594.78	-1780.78	  456.87
     12.6700	  561.00	  585.58	-1794.58	  456.75
     12.7700	  567.00	  581.40	-1784.40	  456.63
     12.8700	  561.00	  579.48	-1788.48	  456.51
     12.9700	  550.00	  578.40	-1798.40	  456.39
     13.0700	  583.00	  577.65	-1764.65	  456.26
     13.1700	  563.00	  577.08	-1784.08	  456.12
     13.2700	  577.00	  576.62	-1769.62	  455.98
     13.3700	  541.00	  576.22	-1805.22	  455.84
     13.4700	  597.00	  575.88	-1748.88	  455.70
     13.5700	  585.00	  575.57	-1760.57	  455.55
     13.6700	  551.00	  575.29	-1794.29	  455.40
     13.7700	  567.00	  575.03	-1778.03	  455.24
     13.8700	  594.00	  574.78	-1750.78	  455.08
     13.9700	  557.00	  574.54	-1787.54	  454.92
     14.0700	  557.00	  574.32	-1787.32	  454.75
     14.1700	  541.00	  574.09	-1803.09	  454.58
     14.2700	  576.00	  573.87	-1767.87	  454.41
     14.3700	  568.00	  573.65	-1775.65	  454.23
     14.4700	  557.00	  573.44	-1786.44	  454.05
     14.5700	  556.00	  573.22	-1787.22	  453.87
     14.6700	  570.00	  573.01	-1773.01	  453.68
     14.7700	  627.00	  572.80	-1715.80	  453.49
     14.8700	  532.00	  572.58	-1810.58	  453.30
     14.9700	  585.00	  572.37	-1757.36	  453.11
     15.0700	  567.00	  572.15	-1775.15	  452.91
     15.1700	  556.00	  571.93	-1785.93	  452.70
     15.2700	  563.00	  571.71	-1778.71	  452.50
     15.3700	  599.00	  571.49	-1742.49	  452.29
     15.4700	  543.00	  571.27	-1798.27	  452.08
     15.5700	  510.00	  571.04	-1831.04	  451.87
     15.6700	  569.00	  570.82	-1771.82	  451.65
     15.7700	  551.00	  570.59	-1789.59	  451.43
     15.8700	  580.00	  570.36	-1760.36	  451.21
     15.9700	  563.00	  570.13	-1777.13	  450.99
     16.0700	  570.00	  569.92	-1769.92	  450.76
     16.1700	  590.00	  569.68	-1749.68	  450.53
     16.2700	  550.00	  569.44	-1789.44	  450.30
     16.3700	  553.00	  569.20	-1786.20	  450.06
     16.4700	  567.00	  568.96	-1771.96	  449.83
     16.5700	  562.00	  568.72	-1776.72	  449.59
     16.6700	  550.00	  568.47	-1788.47	  449.34
     16.7700	  562.00	  568.22	-1776.22	  449.10
     16.8700	  544.00	  567.97	-1793.97	  448.85
     16.9700	  567.00	  567.72	-1770.72	  448.60
     17.0700	  552.00	  567.47	-1785.47	  448.35
     17.1700	  605.00	  567.21	-1732.21	  448.10
     17.2700	  532.00	  566.95	-1804.95	  447.84
     17.3700	  548.00	  566.69	-1788.69	  447.58
     17.4700	  592.00	  566.43	-1744.43	  447.32
     17.5700	  547.00	  566.17	-1789.17	  447.06
     17.6700	  552.00	  565.90	-1783.90	  446.80
     17.7700	  571.00	  565.63	-1764.63	  446.53
     17.8700	  509.00	  565.36	-1826.36	  446.26
     17.9700	  529.00	  565.09	-1806.09	  445.99
     18.0700	  507.00	  564.92	-1827.92	  445.72
     18.1700	  554.00	  564.65	-1780.65	  445.44
     18.2700	  603.00	  564.37	-1731.37	  445.17
     18.3700	  552.00	  564.10	-1782.10	  444.89
     18.4700	  556.00	  563.82	-1777.82	  444.61
     18.5700	  593.00	  563.54	-1740.54	  444.33
     18.6700	  566.00	  563.26	-1767.26	  444.05
     18.7700	  504.00	  562.98	-1828.98	  443.76
     18.8700	  543.00	  562.78	-1789.78	  443.47
     18.9700	  566.00	  562.49	-1766.49	  443.19
     19.0700	  572.00	  562.21	-1760.21	  442.90
     19.1700	  587.00	  561.92	-1744.92	  442.60
     19.2700	  491.00	  561.64	-1840.64	  442.31
     19.3700	  529.00	  561.35	-1802.35	  442.02
     19.4700	  558.00	  561.06	-1773.06	  441.72
     19.5700	  569.00	  560.77	-1761.77	  441.42
     19.6700	  585.00	  560.48	-1745.48	  441.13
     19.7700	  577.00	  560.18	-1753.18	  440.83
     19.8700	  563.00	  559.89	-1766.89	  440.52
     19.9700	  550.00	  559.60	-1779.60	  440.22
     20.0700	  564.00	  559.30	-1765.30	  439.92
     20.1700	  549.00	  559.01	-1780.01	  439.61
     20.2700	  531.00	  558.71	-1797.71	  439.31
     20.3700	  527.00	  558.41	-1801.41	  439.00
     20.4700	  543.00	  558.12	-1785.12	  438.69
     20.5700	  597.00	  557.82	-1730.82	  438.38
     20.6700	  549.00	  557.49	-1778.49	  438.07
     20.7700	  542.00	  557.19	-1785.19	  437.76
     20.8700	  551.00	  556.93	-1775.93	  437.44
     20.9700	  518.00	  556.63	-1808.63	  437.13
     21.0700	  582.00	  556.33	-1744.33	  436.81
     21.1700	  564.00	  556.03	-1762.03	  436.50
     21.2700	  618.00	  555.73	-1707.73	  436.18
     21.3700	  591.00	  555.44	-1734.44	  435.86
     21.4700	  572.00	  555.14	-1753.14	  435.55
     21.5700	  578.00	  554.84	-1746.84	  435.23
     21.6700	  561.00	  554.55	-1763.55	  434.91
     21.7700	  563.00	  554.25	-1761.25	  434.58
     21.8700	  577.00	  553.96	-1746.96	  434.26
     21.9700	  581.00	  553.67	-1742.67	  433.94
     22.0700	  513.00	  553.38	-1810.38	  433.62
     22.1700	  534.00	  553.09	-1789.09	  433.29
     22.2700	  552.00	  552.81	-1770.81	  432.97
     22.3700	  556.00	  552.53	-1766.53	  432.64
     22.4700	  568.00	  552.25	-1754.25	  432.32
     22.5700	  528.00	  551.98	-1793.98	  431.99
     22.6700	  574.00	  551.71	-1747.71	  431.66
     22.7700	  549.00	  551.45	-1772.45	  431.34
     22.8700	  562.00	  551.20	-1759.20	  431.01
     22.9700	  561.00	  550.95	-1759.95	  430.68
     23.0700	  541.00	  550.72	-1779.72	  430.35
     23.1700	  584.00	  550.51	-1736.51	  430.02
     23.2700	  551.00	  550.31	-1769.31	  429.69
     23.3700	  531.00	  550.15	-1789.15	  429.36
     23.4700	  556.00	  550.01	-1764.01	  429.03
     23.5700	  548.00	  549.92	-1771.92	  428.70
     23.6700	  518.00	  550.04	-1802.04	  428.37
     23.7700	  580.00	  550.13	-1740.13	  428.04
     23.8700	  530.00	  550.44	-1790.44	  427.71
     23.9700	  569.00	  551.19	-1752.19	  427.38
     24.0700	  532.00	  552.80	-1790.80	  427.05
     24.1700	  570.00	  555.89	-1755.89	  426.71
     24.2700	  561.00	  561.28	-1770.28	  426.38
     24.3700	  566.00	  569.86	-1773.86	  426.05
     24.4700	  622.00	  582.57	-1730.57	  425.72
     24.5700	  601.00	  599.48	-1768.48	  425.38
     24.6700	  620.00	  617.67	-1767.67	  425.05
     24.7700	  615.00	  629.55	-1784.55	  424.72
     24.8700	  633.00	  625.48	-1762.48	  424.39
     24.9700	  612.00	  605.21	-1763.21	  424.05
     25.0700	  555.00	  581.61	-1796.61	  423.72
     25.1700	  596.00	  564.23	-1738.23	  423.39
     25.2700	  535.00	  554.46	-1789.46	  423.06
     25.3700	  571.00	  549.83	-1748.83	  422.73
     25.4700	  577.00	  547.69	-1740.69	  422.39
     25.5700	  546.00	  546.53	-1770.53	  422.06
     25.6700	  560.00	  545.77	-1755.77	  421.73
     25.7700	  569.00	  545.20	-1746.20	  421.40
     25.8700	  556.00	  544.78	-1758.78	  421.07
     25.9700	  531.00	  544.45	-1783.45	  420.74
     26.0700	  525.00	  544.21	-1789.21	  420.41
     26.1700	  590.00	  544.04	-1724.04	  420.07
     26.2700	  536.00	  543.95	-1777.95	  419.74
     26.3700	  556.00	  543.94	-1757.94	  419.41
     26.4700	  590.00	  544.01	-1724.01	  419.08
     26.5700	  558.00	  544.17	-1756.17	  418.76
     26.6700	  538.00	  544.45	-1776.45	  418.43
     26.7700	  545.00	  544.87	-1769.87	  418.10
     26.8700	  545.00	  545.46	-1770.46	  417.77
     26.9700	  604.00	  546.29	-1712.29	  417.44
     27.0700	  556.00	  547.42	-1761.42	  417.12
     27.1700	  562.00	  549.00	-1757.00	  416.79
     27.2700	  598.00	  551.29	-1723.29	  416.46
     27.3700	  589.00	  554.84	-1735.84	  416.14
     27.4700	  571.00	  560.67	-1759.67	  415.81
     27.5700	  563.00	  570.65	-1777.65	  415.49
     27.6700	  555.00	  587.66	-1802.66	  415.16
     27.7700	  599.00	  615.35	-1786.35	  414.84
     27.8700	  596.00	  656.71	-1830.71	  414.52
     27.9700	  719.00	  711.48	-1762.48	  414.19
     28.0700	  807.00	  772.75	-1735.75	  413.87
     28.1700	  854.00	  824.22	-1740.22	  413.55
     28.2700	  928.00	  842.47	-1684.47	  413.23
     28.3700	  899.00	  816.23	-1687.23	  412.91
     28.4700	  794.00	  770.23	-1746.23	  412.59
     28.5700	  710.00	  739.41	-1799.41	  412.27
     28.6700	  702.00	  738.06	-1806.06	  411.96
     28.7700	  728.00	  760.13	-1802.13	  411.64
     28.8700	  795.00	  785.25	-1760.25	  411.32
     28.9700	  811.00	  786.19	-1745.19	  411.01
     29.0700	  799.00	  747.94	-1718.94	  410.69
     29.1700	  710.00	  687.72	-1747.72	  410.38
     29.2700	  597.00	  632.11	-1805.11	  410.07
     29.3700	  566.00	  592.72	-1796.72	  409.75
     29.4700	  618.00	  569.19	-1721.19	  409.44
     29.5700	  593.00	  556.54	-1733.54	  409.13
     29.6700	  639.00	  549.82	-1680.82	  408.82
     29.7700	  571.00	  545.97	-1744.97	  408.51
     29.8700	  573.00	  543.54	-1740.54	  408.21
     29.9700	  564.00	  541.99	-1747.99	  407.90
     30.0700	  594.00	  541.21	-1717.21	  407.59
     30.1700	  578.00	  541.37	-1733.37	  407.29
     30.2700	  611.00	  543.01	-1702.01	  406.99
     30.3700	  589.00	  547.16	-1728.16	  406.68
     30.4700	  622.00	  555.33	-1703.33	  406.38
     30.5700	  554.00	  569.07	-1785.07	  406.08
     30.6700	  580.00	  588.64	-1778.65	  405.78
     30.7700	  581.00	  611.37	-1800.37	  405.48
     30.8700	  575.00	  630.47	-1825.47	  405.18
     30.9700	  597.00	  635.99	-1808.99	  404.89
     31.0700	  659.00	  622.03	-1733.03	  404.59
     31.1700	  625.00	  596.09	-1741.09	  404.30
     31.2700	  542.00	  570.87	-1798.87	  404.00
     31.3700	  584.00	  552.55	-1738.55	  403.71
     31.4700	  530.00	  541.53	-1781.53	  403.42
     31.5700	  571.00	  535.66	-1734.66	  403.13
     31.6700	  529.00	  532.63	-1773.63	  402.84
     31.7700	  542.00	  530.94	-1758.94	  402.55
     31.8700	  536.00	  529.86	-1763.86	  402.27
     31.9700	  543.00	  529.11	-1756.11	  401.98
     32.0700	  548.00	  528.59	-1750.59	  401.70
     32.1700	  529.00	  528.24	-1769.24	  401.42
     32.2700	  538.00	  528.05	-1760.05	  401.13
     32.3700	  524.00	  528.01	-1774.01	  400.85
     32.4700	  588.00	  528.12	-1710.12	  400.58
     32.5700	  540.00	  528.42	-1758.42	  400.30
     32.6700	  584.00	  528.92	-1714.92	  400.02
     32.7700	  536.00	  529.67	-1763.67	  399.75
     32.8700	  552.00	  530.76	-1748.76	  399.47
     32.9700	  553.00	  532.30	-1749.30	  399.20
     33.0700	  575.00	  534.54	-1729.54	  398.93
     33.1700	  529.00	  537.99	-1778.99	  398.66
     33.2700	  552.00	  543.82	-1761.82	  398.39
     33.3700	  554.00	  554.52	-1770.52	  398.12
     33.4700	  612.00	  574.85	-1732.85	  397.86
     33.5700	  579.00	  612.19	-1803.19	  397.59
     33.6700	  643.00	  674.74	-1801.74	  397.33
     33.7700	  714.00	  765.47	-1821.47	  397.07
     33.8700	  894.00	  873.53	-1749.53	  396.81
     33.9700	 1029.00	  968.80	-1709.80	  396.55
     34.0700	 1085.00	 1006.62	-1691.62	  396.29
     34.1700	 1060.00	  957.01	-1667.01	  396.03
     34.2700	  954.00	  846.56	-1662.56	  395.78
     34.3700	  735.00	  730.98	-1765.98	  395.52
     34.4700	  644.00	  642.73	-1768.73	  395.27
     34.5700	  578.00	  587.69	-1779.69	  395.02
     34.6700	  571.00	  558.00	-1757.00	  394.77
     34.7700	  561.00	  543.04	-1752.04	  394.52
     34.8700	  507.00	  535.19	-1798.19	  394.28
     34.9700	  556.00	  530.45	-1744.45	  394.03
     35.0700	  535.00	  527.16	-1762.16	  393.79
     35.1700	  508.00	  524.69	-1786.69	  393.55
     35.2700	  547.00	  522.71	-1745.71	  393.31
     35.3700	  524.00	  521.10	-1767.10	  393.07
     35.4700	  540.00	  519.77	-1749.77	  392.83
     35.5700	  513.00	  518.64	-1775.64	  392.60
     35.6700	  580.00	  517.67	-1707.67	  392.36
     35.7700	  515.00	  516.82	-1771.82	  392.13
     35.8700	  490.00	  516.08	-1796.08	  391.90
     35.9700	  506.00	  515.41	-1779.41	  391.67
     36.0700	  504.00	  515.30	-1781.30	  391.44
     36.1700	  495.00	  514.77	-1789.77	  391.22
     36.2700	  513.00	  514.29	-1771.29	  390.99
     36.3700	  525.00	  513.86	-1758.86	  390.77
     36.4700	  518.00	  513.46	-1765.46	  390.55
     36.5700	  539.00	  513.10	-1744.10	  390.33
     36.6700	  506.00	  512.79	-1776.79	  390.11
     36.7700	  533.00	  512.52	-1749.52	  389.89
     36.8700	  513.00	  512.31	-1769.31	  389.68
     36.9700	  509.00	  512.23	-1773.23	  389.47
     37.0700	  511.00	  512.39	-1771.39	  389.25
     37.1700	  524.00	  513.02	-1759.02	  389.04
     37.2700	  516.00	  514.46	-1768.46	  388.83
     37.3700	  532.00	  516.99	-1754.99	  388.63
     37.4700	  489.00	  520.60	-1801.60	  388.42
     37.5700	  527.00	  524.60	-1767.60	  388.22
     37.6700	  500.00	  527.59	-1797.59	  388.02
     37.7700	  521.00	  528.07	-1777.07	  387.82
     37.8700	  554.00	  525.78	-1741.78	  387.62
     37.9700	  537.00	  522.08	-1755.08	  387.42
     38.0700	  454.00	  518.31	-1834.31	  387.23
     38.1700	  486.00	  515.01	-1799.01	  387.03
     38.2700	  504.00	  512.41	-1778.41	  386.84
     38.3700	  499.00	  510.54	-1781.54	  386.65
     38.4700	  502.00	  509.28	-1777.28	  386.46
     38.5700	  465.00	  508.46	-1813.46	  386.27
     38.6700	  519.00	  507.82	-1758.82	  386.09
     38.7700	  525.00	  507.43	-1752.43	  385.91
     38.8700	  492.00	  507.13	-1785.13	  385.72
     38.9700	  483.00	  506.87	-1793.87	  385.54
     39.0700	  486.00	  506.64	-1790.64	  385.37
     39.1700	  470.00	  506.43	-1806.43	  385.19
     39.2700	  511.00	  506.16	-1765.16	  385.01
     39.3700	  503.00	  505.97	-1772.97	  384.84
     39.4700	  497.00	  505.93	-1778.93	  384.67
     39.5700	  534.00	  505.77	-1741.77	  384.50
     39.6700	  486.00	  505.61	-1789.61	  384.33
     39.7700	  478.00	  505.47	-1797.47	  384.17
     39.8700	  518.00	  505.34	-1757.34	  384.00
     39.9700	  523.00	  505.21	-1752.21	  383.84
     40.0700	  517.00	  505.10	-1758.10	  383.68
     40.1700	  493.00	  504.99	-1781.99	  383.52
     40.2700	  500.00	  504.90	-1774.90	  383.36
     40.3700	  500.00	  504.81	-1774.81	  383.20
     40.4700	  518.00	  504.75	-1756.75	  383.05
     40.5700	  522.00	  504.69	-1752.69	  382.90
     40.6700	  518.00	  504.65	-1756.65	  382.75
     40.7700	  536.00	  504.63	-1738.63	  382.60
     40.8700	  526.00	  504.64	-1748.64	  382.45
     40.9700	  450.00	  504.67	-1824.67	  382.31
     41.0700	  496.00	  504.73	-1778.73	  382.16
     41.1700	  499.00	  504.84	-1775.84	  382.02
     41.2700	  496.00	  504.96	-1778.96	  381.88
     41.3700	  492.00	  505.18	-1783.18	  381.74
     41.4700	  508.00	  505.48	-1767.48	  381.61
     41.5700	  516.00	  506.34	-1760.34	  381.47
     41.6700	  498.00	  506.94	-1778.94	  381.34
     41.7700	  519.00	  507.86	-1758.86	  381.21
     41.8700	  492.00	  509.42	-1787.42	  381.08
     41.9700	  501.00	  512.32	-1781.32	  380.95
     42.0700	  534.00	  517.92	-1753.92	  380.82
     42.1700	  477.00	  528.34	-1821.34	  380.70
     42.2700	  526.00	  546.01	-1790.01	  380.58
     42.3700	  534.00	  572.23	-1808.23	  380.46
     42.4700	  600.00	  604.77	-1774.77	  380.34
     42.5700	  579.00	  636.43	-1827.43	  380.22
     42.6700	  575.00	  655.61	-1850.61	  380.10
     42.7700	  609.00	  652.20	-1813.20	  379.99
     42.8700	  576.00	  627.21	-1821.21	  379.88
     42.9700	  530.00	  593.05	-1833.05	  379.77
     43.0700	  564.00	  561.34	-1767.34	  379.66
     43.1700	  492.00	  537.70	-1815.70	  379.55
     43.2700	  502.00	  522.73	-1790.73	  379.45
     43.3700	  494.00	  514.38	-1790.38	  379.34
     43.4700	  481.00	  510.06	-1799.06	  379.24
     43.5700	  508.00	  507.80	-1769.80	  379.14
     43.6700	  480.00	  506.50	-1796.50	  379.05
     43.7700	  460.00	  505.84	-1815.84	  378.95
     43.8700	  492.00	  505.23	-1783.23	  378.85
     43.9700	  504.00	  504.80	-1770.80	  378.76
     44.0700	  500.00	  504.43	-1774.43	  378.67
     44.1700	  478.00	  504.15	-1796.15	  378.58
     44.2700	  476.00	  503.93	-1797.93	  378.49
     44.3700	  488.00	  503.76	-1785.76	  378.41
     44.4700	  478.00	  503.63	-1795.63	  378.32
     44.5700	  487.00	  503.54	-1786.54	  378.24
     44.6700	  496.00	  503.35	-1777.35	  378.16
     44.7700	  521.00	  503.32	-1752.32	  378.08
     44.8700	  508.00	  503.31	-1765.31	  378.01
     44.9700	  502.00	  503.33	-1771.33	  377.93
     45.0700	  488.00	  503.37	-1785.37	  377.86
     45.1700	  486.00	  503.62	-1787.62	  377.79
     45.2700	  534.00	  503.71	-1739.71	  377.72
     45.3700	  545.00	  503.82	-1728.82	  377.65
     45.4700	  521.00	  503.95	-1752.95	  377.58
     45.5700	  462.00	  504.10	-1812.10	  377.51
     45.6700	  480.00	  504.28	-1794.28	  377.45
     45.7700	  520.00	  504.49	-1754.49	  377.39
     45.8700	  516.00	  504.73	-1758.73	  377.33
     45.9700	  505.00	  504.99	-1769.99	  377.27
     46.0700	  509.00	  505.29	-1766.29	  377.22
     46.1700	  542.00	  505.63	-1733.63	  377.16
     46.2700	  475.00	  506.02	-1801.02	  377.11
     46.3700	  484.00	  506.45	-1792.45	  377.06
     46.4700	  567.00	  506.94	-1709.94	  377.01
     46.5700	  518.00	  507.51	-1759.51	  376.96
     46.6700	  476.00	  508.16	-1802.16	  376.91
     46.7700	  548.00	  508.92	-1730.92	  376.87
     46.8700	  505.00	  509.86	-1774.86	  376.82
     46.9700	  498.00	  511.09	-1783.09	  376.78
     47.0700	  502.00	  512.88	-1780.88	  376.74
     47.1700	  514.00	  515.78	-1771.78	  376.70
     47.2700	  501.00	  520.68	-1789.68	  376.67
     47.3700	  527.00	  528.65	-1771.65	  376.63
     47.4700	  521.00	  540.78	-1789.78	  376.60
     47.5700	  571.00	  557.19	-1756.19	  376.57
     47.6700	  562.00	  576.19	-1784.19	  376.54
     47.7700	  639.00	  593.74	-1724.74	  376.51
     47.8700	  628.00	  604.12	-1746.12	  376.48
     47.9700	  604.00	  603.03	-1769.03	  376.46
     48.0700	  589.00	  591.72	-1772.72	  376.43
     48.1700	  591.00	  575.87	-1754.87	  376.41
     48.2700	  529.00	  560.99	-1801.99	  376.39
     48.3700	  526.00	  550.13	-1794.13	  376.37
     48.4700	  504.00	  544.12	-1810.12	  376.36
     48.5700	  560.00	  542.38	-1752.38	  376.34
     48.6700	  560.00	  543.85	-1753.85	  376.33
     48.7700	  552.00	  547.64	-1765.64	  376.32
     48.8700	  531.00	  553.35	-1792.35	  376.30
     48.9700	  566.00	  561.08	-1765.08	  376.30
     49.0700	  553.00	  571.56	-1788.56	  376.29
     49.1700	  591.00	  586.57	-1765.57	  376.28
     49.2700	  653.00	  609.86	-1726.86	  376.28
     49.3700	  669.00	  648.45	-1749.45	  376.27
     49.4700	  718.00	  714.18	-1766.18	  376.27
     49.5700	  808.00	  824.02	-1786.02	  376.27
     49.6700	  949.00	  996.00	-1817.00	  376.27
     49.7700	 1115.00	 1243.64	-1898.64	  376.28
     49.8700	 1506.00	 1563.44	-1827.44	  376.28
     49.9700	 1951.00	 1923.34	-1742.34	  376.29
     50.0700	 2245.00	 2253.65	-1778.65	  376.30
     50.1700	 2529.00	 2454.10	-1695.10	  376.31
     50.2700	 2585.00	 2440.52	-1625.52	  376.32
     50.3700	 2221.00	 2217.09	-1766.09	  376.33
     50.4700	 1822.00	 1875.96	-1823.96	  376.34
     50.5700	 1444.00	 1519.44	-1845.44	  376.36
     50.6700	 1015.00	 1213.02	-1968.02	  376.37
     50.7700	  850.00	  983.99	-1903.99	  376.39
     50.8700	  704.00	  831.97	-1897.97	  376.41
     50.9700	  660.00	  740.52	-1850.52	  376.43
     51.0700	  621.00	  688.18	-1837.18	  376.46
     51.1700	  629.00	  655.93	-1796.93	  376.48
     51.2700	  658.00	  631.53	-1743.53	  376.50
     51.3700	  613.00	  610.15	-1767.15	  376.53
     51.4700	  599.00	  591.34	-1762.34	  376.56
     51.5700	  569.00	  575.81	-1776.81	  376.59
     51.6700	  581.00	  563.94	-1752.94	  376.62
     51.7700	  541.00	  555.51	-1784.51	  376.65
     51.8700	  547.00	  549.83	-1772.83	  376.69
     51.9700	  535.00	  546.16	-1781.16	  376.72
     52.0700	  554.00	  543.89	-1759.89	  376.76
     52.1700	  567.00	  542.67	-1745.67	  376.80
     52.2700	  570.00	  542.61	-1742.61	  376.83
     52.3700	  584.00	  543.38	-1729.38	  376.88
     52.4700	  558.00	  545.63	-1757.63	  376.92
     52.5700	  563.00	  550.43	-1757.43	  376.96
     52.6700	  564.00	  560.03	-1766.03	  377.01
     52.7700	  554.00	  578.46	-1794.46	  377.05
     52.8700	  633.00	  611.94	-1748.94	  377.10
     52.9700	  694.00	  667.99	-1743.99	  377.15
     53.0700	  809.00	  752.82	-1713.82	  377.20
     53.1700	  954.00	  866.81	-1682.81	  377.25
     53.2700	 1107.00	  999.71	-1662.71	  377.30
     53.3700	 1124.00	 1127.72	-1773.72	  377.35
     53.4700	 1242.00	 1215.45	-1743.45	  377.41
     53.5700	 1132.00	 1229.58	-1867.58	  377.47
     53.6700	 1093.00	 1163.37	-1840.37	  377.52
     53.7700	 1022.00	 1043.85	-1791.85	  377.58
     53.8700	  843.00	  908.88	-1835.88	  377.64
     53.9700	  735.00	  786.98	-1821.98	  377.70
     54.0700	  700.00	  692.57	-1762.57	  377.76
     54.1700	  601.00	  628.17	-1797.17	  377.83
     54.2700	  570.00	  588.80	-1788.80	  377.89
     54.3700	  583.00	  566.84	-1753.84	  377.96
     54.4700	  616.00	  555.42	-1709.42	  378.03
     54.5700	  544.00	  549.74	-1775.74	  378.09
     54.6700	  533.00	  547.11	-1784.11	  378.16
     54.7700	  550.00	  546.12	-1766.12	  378.23
     54.8700	  591.00	  546.19	-1725.19	  378.31
     54.9700	  563.00	  547.07	-1754.07	  378.38
     55.0700	  559.00	  548.69	-1759.69	  378.45
     55.1700	  572.00	  551.06	-1749.06	  378.53
     55.2700	  550.00	  554.27	-1774.27	  378.61
     55.3700	  568.00	  558.40	-1760.40	  378.68
     55.4700	  568.00	  563.68	-1765.68	  378.76
     55.5700	  566.00	  570.55	-1774.55	  378.84
     55.6700	  585.00	  579.82	-1764.82	  378.92
     55.7700	  598.00	  593.21	-1765.21	  379.00
     55.8700	  611.00	  614.17	-1773.17	  379.09
     55.9700	  639.00	  649.08	-1780.08	  379.17
     56.0700	  700.00	  708.57	-1778.57	  379.26
     56.1700	  773.00	  807.91	-1804.91	  379.34
     56.2700	  885.00	  965.11	-1850.11	  379.43
     56.3700	 1126.00	 1195.45	-1839.45	  379.52
     56.4700	 1417.00	 1502.76	-1855.76	  379.61
     56.5700	 1778.00	 1869.68	-1861.68	  379.70
     56.6700	 2212.00	 2249.84	-1807.84	  379.79
     56.7700	 2568.00	 2566.39	-1768.39	  379.88
     56.8700	 2574.00	 2726.97	-1922.97	  379.97
     56.9700	 2603.00	 2671.61	-1838.61	  380.07
     57.0700	 2431.00	 2421.73	-1760.73	  380.16
     57.1700	 2004.00	 2062.53	-1828.53	  380.26
     57.2700	 1691.00	 1683.28	-1762.28	  380.35
     57.3700	 1305.00	 1345.96	-1810.96	  380.45
     57.4700	 1039.00	 1081.29	-1812.29	  380.55
     57.5700	  903.00	  894.69	-1761.69	  380.65
     57.6700	  732.00	  775.63	-1813.63	  380.75
     57.7700	  719.00	  707.23	-1758.23	  380.85
     57.8700	  692.00	  673.82	-1751.82	  380.95
     57.9700	  648.00	  664.47	-1786.47	  381.06
     58.0700	  665.00	  673.48	-1778.48	  381.16
     58.1700	  691.00	  699.07	-1778.07	  381.26
     58.2700	  759.00	  741.36	-1752.36	  381.37
     58.3700	  819.00	  800.55	-1751.55	  381.48
     58.4700	  960.00	  875.16	-1685.16	  381.58
     58.5700	 1124.00	  960.42	-1606.42	  381.69
     58.6700	 1280.00	 1047.88	-1537.88	  381.80
     58.7700	 1326.00	 1127.81	-1571.81	  381.91
     58.8700	 1541.00	 1193.54	-1422.54	  382.02
     58.9700	 1510.00	 1241.15	-1501.15	  382.13
     59.0700	 1497.00	 1265.29	-1538.29	  382.24
     59.1700	 1501.00	 1261.68	-1530.68	  382.36
     59.2700	 1430.00	 1234.88	-1574.88	  382.47
     59.3700	 1351.00	 1198.11	-1617.11	  382.58
     59.4700	 1268.00	 1164.57	-1666.57	  382.70
     59.5700	 1147.00	 1143.09	-1766.09	  382.82
     59.6700	 1076.00	 1140.82	-1834.82	  382.93
     59.7700	 1140.00	 1165.65	-1795.65	  383.05
     59.8700	 1198.00	 1222.30	-1794.30	  383.17
     59.9700	 1321.00	 1306.07	-1755.07	  383.28
     60.0700	 1462.00	 1399.97	-1707.97	  383.40
     60.1700	 1604.00	 1475.55	-1641.55	  383.52
     60.2700	 1544.00	 1500.26	-1726.26	  383.64
     60.3700	 1557.00	 1454.90	-1667.90	  383.77
     60.4700	 1414.00	 1347.42	-1703.42	  383.89
     60.5700	 1201.00	 1205.17	-1774.17	  384.01
     60.6700	 1114.00	 1056.74	-1712.74	  384.13
     60.7700	  941.00	  922.79	-1751.79	  384.26
     60.8700	  736.00	  814.82	-1848.82	  384.38
     60.9700	  713.00	  736.58	-1793.58	  384.50
     61.0700	  665.00	  686.80	-1791.80	  384.63
     61.1700	  628.00	  662.14	-1804.14	  384.75
     61.2700	  622.00	  660.01	-1808.01	  384.88
     61.3700	  656.00	  680.13	-1794.13	  385.01
     61.4700	  682.00	  724.65	-1812.65	  385.13
     61.5700	  770.00	  796.81	-1796.81	  385.26
     61.6700	  804.00	  898.46	-1864.46	  385.39
     61.7700	  938.00	 1027.04	-1859.04	  385.52
     61.8700	 1101.00	 1172.93	-1841.93	  385.65
     61.9700	 1239.00	 1317.67	-1848.67	  385.78
     62.0700	 1386.00	 1434.18	-1818.18	  385.91
     62.1700	 1404.00	 1492.22	-1858.22	  386.04
     62.2700	 1366.00	 1472.71	-1876.71	  386.17
     62.3700	 1318.00	 1381.63	-1833.63	  386.30
     62.4700	 1197.00	 1245.42	-1818.42	  386.43
     62.5700	 1034.00	 1094.20	-1830.20	  386.56
     62.6700	  902.00	  951.15	-1819.15	  386.70
     62.7700	  783.00	  830.28	-1817.28	  386.83
     62.8700	  692.00	  737.17	-1815.17	  386.96
     62.9700	  600.00	  671.01	-1841.01	  387.10
     63.0700	  565.00	  627.27	-1832.27	  387.23
     63.1700	  559.00	  600.08	-1811.08	  387.37
     63.2700	  545.00	  584.13	-1809.13	  387.50
     63.3700	  594.00	  575.50	-1751.50	  387.64
     63.4700	  604.00	  571.89	-1737.89	  387.77
     63.5700	  586.00	  572.45	-1756.45	  387.91
     63.6700	  554.00	  577.61	-1793.61	  388.04
     63.7700	  630.00	  588.73	-1728.73	  388.18
     63.8700	  628.00	  607.87	-1749.87	  388.32
     63.9700	  642.00	  637.17	-1765.17	  388.45
     64.0700	  690.00	  678.11	-1758.11	  388.59
     64.1700	  806.00	  730.52	-1694.52	  388.73
     64.2700	  844.00	  791.63	-1717.63	  388.86
     64.3700	  891.00	  855.46	-1734.46	  389.00
     64.4700	 1003.00	  912.80	-1679.80	  389.14
     64.5700	 1043.00	  952.22	-1679.22	  389.28
     64.6700	  944.00	  966.19	-1792.19	  389.42
     64.7700	 1043.00	  952.12	-1679.12	  389.55
     64.8700	  924.00	  914.88	-1760.88	  389.69
     64.9700	  939.00	  863.29	-1694.29	  389.83
     65.0700	  829.00	  806.98	-1747.98	  389.97
     65.1700	  793.00	  753.70	-1730.70	  390.11
     65.2700	  708.00	  707.87	-1769.87	  390.25
     65.3700	  727.00	  670.63	-1713.63	  390.39
     65.4700	  655.00	  641.17	-1756.17	  390.53
     65.5700	  583.00	  618.09	-1805.09	  390.66
     65.6700	  557.00	  600.23	-1813.23	  390.80
     65.7700	  579.00	  586.66	-1777.66	  390.94
     65.8700	  557.00	  576.71	-1789.71	  391.08
     65.9700	  557.00	  569.80	-1782.80	  391.22
     66.0700	  542.00	  565.48	-1793.48	  391.36
     66.1700	  545.00	  563.32	-1788.32	  391.50
     66.2700	  598.00	  562.96	-1734.96	  391.64
     66.3700	  540.00	  564.09	-1794.09	  391.78
     66.4700	  549.00	  566.57	-1787.57	  391.92
     66.5700	  521.00	  570.44	-1819.44	  392.06
     66.6700	  573.00	  576.19	-1773.19	  392.20
     66.7700	  532.00	  584.52	-1822.52	  392.34
     66.8700	  573.00	  597.26	-1794.26	  392.48
     66.9700	  600.00	  617.43	-1787.43	  392.62
     67.0700	  579.00	  649.78	-1840.78	  392.76
     67.1700	  699.00	  701.09	-1772.09	  392.90
     67.2700	  842.00	  779.93	-1707.93	  393.03
     67.3700	  848.00	  895.50	-1817.50	  393.17
     67.4700	 1107.00	 1055.35	-1718.35	  393.31
     67.5700	 1247.00	 1261.88	-1784.88	  393.45
     67.6700	 1498.00	 1509.34	-1781.34	  393.59
     67.7700	 1770.00	 1780.74	-1780.74	  393.73
     67.8700	 2039.00	 2046.98	-1777.98	  393.87
     67.9700	 2342.00	 2267.11	-1695.11	  394.00
     68.0700	 2378.00	 2395.66	-1787.66	  394.14
     68.1700	 2498.00	 2399.60	-1671.60	  394.28
     68.2700	 2327.00	 2277.85	-1720.85	  394.42
     68.3700	 2025.00	 2061.99	-1806.99	  394.55
     68.4700	 1828.00	 1797.56	-1739.56	  394.69
     68.5700	 1490.00	 1525.74	-1805.74	  394.83
     68.6700	 1252.00	 1276.74	-1794.74	  394.96
     68.7700	 1047.00	 1068.10	-1791.10	  395.10
     68.8700	  876.00	  906.22	-1800.22	  395.24
     68.9700	  759.00	  788.82	-1799.82	  395.37
     69.0700	  718.00	  708.63	-1760.63	  395.51
     69.1700	  726.00	  656.51	-1700.51	  395.64
     69.2700	  685.00	  623.80	-1708.80	  395.78
     69.3700	  584.00	  603.58	-1789.58	  395.91
     69.4700	  594.00	  591.00	-1767.00	  396.05
     69.5700	  616.00	  582.94	-1736.94	  396.18
     69.6700	  579.00	  577.56	-1768.56	  396.31
     69.7700	  578.00	  573.85	-1765.85	  396.45
     69.8700	  583.00	  571.29	-1758.29	  396.58
     69.9700	  558.00	  569.60	-1781.60	  396.71
     70.0700	  611.00	  568.65	-1727.65	  396.84
     70.1700	  540.00	  568.40	-1798.40	  396.97
     70.2700	  564.00	  568.88	-1774.88	  397.11
     70.3700	  561.00	  570.16	-1779.16	  397.24
     70.4700	  570.00	  572.50	-1772.50	  397.37
     70.5700	  590.00	  576.36	-1756.36	  397.50
     70.6700	  565.00	  582.62	-1787.62	  397.63
     70.7700	  621.00	  592.76	-1741.76	  397.75
     70.8700	  560.00	  609.20	-1819.20	  397.88
     70.9700	  623.00	  635.44	-1782.44	  398.01
     71.0700	  627.00	  676.24	-1819.24	  398.14
     71.1700	  709.00	  737.24	-1798.24	  398.26
     71.2700	  781.00	  824.13	-1813.13	  398.39
     71.3700	  903.00	  941.23	-1808.23	  398.52
     71.4700	 1092.00	 1089.47	-1767.47	  398.64
     71.5700	 1221.00	 1265.55	-1814.55	  398.77
     71.6700	 1429.00	 1457.04	-1798.04	  398.89
     71.7700	 1566.00	 1646.69	-1850.69	  399.02
     71.8700	 1765.00	 1809.78	-1814.78	  399.14
     71.9700	 1883.00	 1918.11	-1805.11	  399.26
     72.0700	 1899.00	 1948.34	-1819.34	  399.38
     72.1700	 1891.00	 1893.21	-1772.21	  399.50
     72.2700	 1760.00	 1765.94	-1775.94	  399.62
     72.3700	 1671.00	 1592.24	-1691.24	  399.74
     72.4700	 1474.00	 1400.66	-1696.66	  399.86
     72.5700	 1325.00	 1213.48	-1658.48	  399.98
     72.6700	 1157.00	 1046.29	-1659.29	  400.10
     72.7700	 1027.00	  907.59	-1650.59	  400.22
     72.8700	  941.00	  799.64	-1628.64	  400.34
     72.9700	  832.00	  720.21	-1658.21	  400.45
     73.0700	  789.00	  664.48	-1645.48	  400.57
     73.1700	  741.00	  626.83	-1655.83	  400.68
     73.2700	  693.00	  602.02	-1679.02	  400.80
     73.3700	  668.00	  585.81	-1687.81	  400.91
     73.4700	  689.00	  575.15	-1656.15	  401.02
     73.5700	  617.00	  568.01	-1721.01	  401.13
     73.6700	  643.00	  563.16	-1690.16	  401.24
     73.7700	  612.00	  559.88	-1717.88	  401.36
     73.8700	  608.00	  557.75	-1719.75	  401.46
     73.9700	  613.00	  556.55	-1713.55	  401.57
     74.0700	  627.00	  556.10	-1699.10	  401.68
     74.1700	  585.00	  556.23	-1741.23	  401.79
     74.2700	  611.00	  556.75	-1715.75	  401.90
     74.3700	  606.00	  557.44	-1721.44	  402.00
     74.4700	  646.00	  558.01	-1682.01	  402.11
     74.5700	  613.00	  558.19	-1715.19	  402.21
     74.6700	  673.00	  557.76	-1654.76	  402.31
     74.7700	  651.00	  556.65	-1675.65	  402.42
     74.8700	  639.00	  555.02	-1686.02	  402.52
     74.9700	  614.00	  553.14	-1709.14	  402.62
     75.0700	  602.00	  551.33	-1719.33	  402.72
     75.1700	  556.00	  549.93	-1763.93	  402.82
     75.2700	  532.00	  549.24	-1787.24	  402.91
     75.3700	  595.00	  549.73	-1724.73	  403.01
     75.4700	  560.00	  551.84	-1761.84	  403.11
     75.5700	  554.00	  556.03	-1772.03	  403.20
     75.6700	  550.00	  562.71	-1782.71	  403.30
     75.7700	  570.00	  572.57	-1772.57	  403.39
     75.8700	  580.00	  585.80	-1775.80	  403.48
     75.9700	  639.00	  602.38	-1733.38	  403.57
     76.0700	  621.00	  621.80	-1770.80	  403.66
     76.1700	  625.00	  642.96	-1787.96	  403.75
     76.2700	  622.00	  664.12	-1812.12	  403.84
     76.3700	  691.00	  682.97	-1761.97	  403.93
     76.4700	  715.00	  696.79	-1751.79	  404.02
     76.5700	  652.00	  703.14	-1821.14	  404.10
     76.6700	  708.00	  700.70	-1762.70	  404.19
     76.7700	  675.00	  689.94	-1784.94	  404.27
     76.8700	  686.00	  672.92	-1756.92	  404.35
     76.9700	  639.00	  652.12	-1783.12	  404.44
     77.0700	  600.00	  630.46	-1800.46	  404.52
     77.1700	  571.00	  609.75	-1808.75	  404.60
     77.2700	  601.00	  591.38	-1760.38	  404.67
     77.3700	  546.00	  576.10	-1800.10	  404.75
     77.4700	  502.00	  564.10	-1832.10	  404.83
     77.5700	  528.00	  555.15	-1797.15	  404.90
     77.6700	  531.00	  548.80	-1787.80	  404.98
     77.7700	  560.00	  544.46	-1754.46	  405.05
     77.8700	  532.00	  541.61	-1779.61	  405.12
     77.9700	  529.00	  539.78	-1780.78	  405.19
     78.0700	  498.00	  538.62	-1810.62	  405.26
     78.1700	  525.00	  537.90	-1782.90	  405.33
     78.2700	  578.00	  537.45	-1729.45	  405.40
     78.3700	  500.00	  537.18	-1807.18	  405.47
     78.4700	  492.00	  537.04	-1815.04	  405.53
     78.5700	  505.00	  537.00	-1802.00	  405.59
     78.6700	  512.00	  537.06	-1795.06	  405.66
     78.7700	  513.00	  537.24	-1794.24	  405.72
     78.8700	  478.00	  537.54	-1829.54	  405.78
     78.9700	  514.00	  538.01	-1794.01	  405.84
     79.0700	  499.00	  538.70	-1809.70	  405.90
     79.1700	  539.00	  539.65	-1770.65	  405.95
     79.2700	  524.00	  540.92	-1786.92	  406.01
     79.3700	  490.00	  542.41	-1822.41	  406.06
     79.4700	  578.00	  544.53	-1736.53	  406.12
     79.5700	  506.00	  547.18	-1811.18	  406.17
     79.6700	  527.00	  550.44	-1793.44	  406.22
     79.7700	  602.00	  554.40	-1722.40	  406.27
     79.8700	  547.00	  559.19	-1782.19	  406.32
     79.9700	  561.00	  564.98	-1773.98	  406.37
     80.0700	  571.00	  571.99	-1770.99	  406.41
     80.1700	  559.00	  580.48	-1791.48	  406.46
     80.2700	  565.00	  590.80	-1795.80	  406.50
     80.3700	  594.00	  603.23	-1779.23	  406.54
     80.4700	  575.00	  617.89	-1812.89	  406.58
     80.5700	  624.00	  634.63	-1780.63	  406.62
     80.6700	  654.00	  652.96	-1768.96	  406.66
     80.7700	  625.00	  671.98	-1816.98	  406.70
     80.8700	  708.00	  690.41	-1752.41	  406.74
     80.9700	  713.00	  706.83	-1763.83	  406.77
     81.0700	  706.00	  719.89	-1783.89	  406.80
     81.1700	  748.00	  728.57	-1750.57	  406.83
     81.2700	  762.00	  732.22	-1740.22	  406.87
     81.3700	  723.00	  730.61	-1777.61	  406.89
     81.4700	  733.00	  723.99	-1760.99	  406.92
     81.5700	  761.00	  713.05	-1722.05	  406.95
     81.6700	  719.00	  698.67	-1749.67	  406.97
     81.7700	  730.00	  681.87	-1721.87	  407.00
     81.8700	  680.00	  663.69	-1753.69	  407.02
     81.9700	  699.00	  645.25	-1716.25	  407.04
     82.0700	  680.00	  627.46	-1717.46	  407.06
     82.1700	  653.00	  611.19	-1728.19	  407.08
     82.2700	  657.00	  596.86	-1709.86	  407.10
     82.3700	  657.00	  584.66	-1697.66	  407.11
     82.4700	  631.00	  574.63	-1713.63	  407.13
     82.5700	  595.00	  566.72	-1741.72	  407.14
     82.6700	  545.00	  560.76	-1785.76	  407.15
     82.7700	  596.00	  556.65	-1730.65	  407.16
     82.8700	  538.00	  554.22	-1786.22	  407.17
     82.9700	  546.00	  553.33	-1777.33	  407.18
     83.0700	  598.00	  553.87	-1725.87	  407.18
     83.1700	  536.00	  555.74	-1789.74	  407.19
     83.2700	  524.00	  558.82	-1804.82	  407.19
     83.3700	  540.00	  562.93	-1792.93	  407.19
     83.4700	  571.00	  567.85	-1766.85	  407.19
     83.5700	  537.00	  573.23	-1806.23	  407.19
     83.6700	  571.00	  578.65	-1777.65	  407.19
     83.7700	  553.00	  583.59	-1800.59	  407.19
     83.8700	  582.00	  587.45	-1775.45	  407.18
     83.9700	  561.00	  589.69	-1798.69	  407.17
     84.0700	  594.00	  589.92	-1765.92	  407.17
     84.1700	  554.00	  588.08	-1804.08	  407.16
     84.2700	  599.00	  584.41	-1755.41	  407.14
     84.3700	  539.00	  579.42	-1810.42	  407.13
     84.4700	  534.00	  573.67	-1809.67	  407.12
     84.5700	  545.00	  567.68	-1792.68	  407.10
     84.6700	  586.00	  561.87	-1745.87	  407.09
     84.7700	  554.00	  556.57	-1772.57	  407.07
     84.8700	  524.00	  551.97	-1797.97	  407.05
     84.9700	  505.00	  548.19	-1813.19	  407.03
     85.0700	  546.00	  545.22	-1769.22	  407.00
     85.1700	  524.00	  543.02	-1789.02	  406.98
     85.2700	  527.00	  541.52	-1784.52	  406.95
     85.3700	  529.00	  540.60	-1781.60	  406.93
     85.4700	  559.00	  540.18	-1751.18	  406.90
     85.5700	  518.00	  540.18	-1792.18	  406.87
     85.6700	  555.00	  540.54	-1755.54	  406.83
     85.7700	  496.00	  541.24	-1815.24	  406.80
     85.8700	  510.00	  542.27	-1802.27	  406.77
     85.9700	  511.00	  543.67	-1802.67	  406.73
     86.0700	  499.00	  545.50	-1816.50	  406.69
     86.1700	  551.00	  547.84	-1766.84	  406.65
     86.2700	  507.00	  550.81	-1813.81	  406.61
     86.3700	  534.00	  554.53	-1790.53	  406.57
     86.4700	  569.00	  559.15	-1760.15	  406.53
     86.5700	  537.00	  564.79	-1797.79	  406.48
     86.6700	  553.00	  571.50	-1788.50	  406.43
     86.7700	  621.00	  579.26	-1728.26	  406.39
     86.8700	  585.00	  587.55	-1772.55	  406.34
     86.9700	  561.00	  596.64	-1805.64	  406.28
     87.0700	  631.00	  605.70	-1744.70	  406.23
     87.1700	  649.00	  614.04	-1735.04	  406.18
     87.2700	  651.00	  620.90	-1739.90	  406.12
     87.3700	  623.00	  625.49	-1772.49	  406.06
     87.4700	  688.00	  627.22	-1709.22	  406.00
     87.5700	  674.00	  625.82	-1721.82	  405.94
     87.6700	  636.00	  621.54	-1755.54	  405.88
     87.7700	  668.00	  614.98	-1716.98	  405.82
     87.8700	  660.00	  607.01	-1717.01	  405.75
     87.9700	  581.00	  598.49	-1787.49	  405.69
     88.0700	  635.00	  590.26	-1725.26	  405.62
     88.1700	  600.00	  583.00	-1753.00	  405.55
     88.2700	  607.00	  577.26	-1740.26	  405.48
     88.3700	  536.00	  573.39	-1807.39	  405.41
     88.4700	  595.00	  571.59	-1746.59	  405.33
     88.5700	  583.00	  571.87	-1758.87	  405.26
     88.6700	  585.00	  574.07	-1759.07	  405.18
     88.7700	  574.00	  577.90	-1773.90	  405.10
     88.8700	  594.00	  582.96	-1758.96	  405.02
     88.9700	  633.00	  588.72	-1725.72	  404.94
     89.0700	  574.00	  594.59	-1790.59	  404.86
     89.1700	  584.00	  599.91	-1785.91	  404.77
     89.2700	  594.00	  604.04	-1780.04	  404.68
     89.3700	  616.00	  606.39	-1760.39	  404.60
     89.4700	  611.00	  606.58	-1765.58	  404.51
     89.5700	  588.00	  604.53	-1786.53	  404.42
     89.6700	  547.00	  600.49	-1823.49	  404.32
     89.7700	  577.00	  594.92	-1787.92	  404.23
     89.8700	  555.00	  588.35	-1803.35	  404.14
     89.9700	  520.00	  581.34	-1831.34	  404.04
     90.0700	  554.00	  574.34	-1790.34	  403.94
     90.1700	  547.00	  567.74	-1790.74	  403.84
     90.2700	  542.00	  561.79	-1789.79	  403.74
     90.3700	  524.00	  556.66	-1802.66	  403.64
     90.4700	  543.00	  552.43	-1779.43	  403.53
     90.5700	  576.00	  549.07	-1743.07	  403.43
     90.6700	  514.00	  546.53	-1802.53	  403.32
     90.7700	  528.00	  544.71	-1786.71	  403.21
     90.8700	  509.00	  543.52	-1804.52	  403.10
     90.9700	  522.00	  542.84	-1790.84	  402.99
     91.0700	  529.00	  542.62	-1783.62	  402.88
     91.1700	  529.00	  542.79	-1783.79	  402.76
     91.2700	  510.00	  543.37	-1803.37	  402.65
     91.3700	  523.00	  544.37	-1791.37	  402.53
     91.4700	  477.00	  545.88	-1838.88	  402.41
     91.5700	  535.00	  548.00	-1783.00	  402.29
     91.6700	  514.00	  550.89	-1806.89	  402.17
     91.7700	  547.00	  554.73	-1777.73	  402.04
     91.8700	  573.00	  559.71	-1756.71	  401.92
     91.9700	  550.00	  565.82	-1785.82	  401.79
     92.0700	  574.00	  573.67	-1769.67	  401.66
     92.1700	  543.00	  583.16	-1810.16	  401.54
     92.2700	  545.00	  594.35	-1819.35	  401.41
     92.3700	  583.00	  607.18	-1794.18	  401.27
     92.4700	  643.00	  621.50	-1748.50	  401.14
     92.5700	  618.00	  637.00	-1789.00	  401.01
     92.6700	  652.00	  653.27	-1771.27	  400.87
     92.7700	  665.00	  669.77	-1774.77	  400.73
     92.8700	  738.00	  685.85	-1717.85	  400.59
     92.9700	  731.00	  700.85	-1739.85	  400.45
     93.0700	  749.00	  714.24	-1735.24	  400.31
     93.1700	  725.00	  725.72	-1770.72	  400.17
     93.2700	  756.00	  735.39	-1749.39	  400.02
     93.3700	  818.00	  743.67	-1695.67	  399.88
     93.4700	  795.00	  751.18	-1726.18	  399.73
     93.5700	  815.00	  758.60	-1713.60	  399.58
     93.6700	  826.00	  766.52	-1710.52	  399.43
     93.7700	  871.00	  775.45	-1674.45	  399.28
     93.8700	  800.00	  785.83	-1755.83	  399.13
     93.9700	  817.00	  798.04	-1751.04	  398.97
     94.0700	  909.00	  812.37	-1673.37	  398.82
     94.1700	  842.00	  828.86	-1756.86	  398.66
     94.2700	  838.00	  847.22	-1779.22	  398.50
     94.3700	  871.00	  866.72	-1765.72	  398.34
     94.4700	  901.00	  886.16	-1755.16	  398.18
     94.5700	  918.00	  903.97	-1755.97	  398.02
     94.6700	  951.00	  918.25	-1737.25	  397.86
     94.7700	  926.00	  927.08	-1771.08	  397.69
     94.8700	  934.00	  928.85	-1764.85	  397.52
     94.9700	  909.00	  922.66	-1783.66	  397.36
     95.0700	  876.00	  908.65	-1802.65	  397.19
     95.1700	  898.00	  887.88	-1759.88	  397.02
     95.2700	  834.00	  862.11	-1798.11	  396.85
     95.3700	  814.00	  833.41	-1789.41	  396.68
     95.4700	  747.00	  803.87	-1826.87	  396.50
     95.5700	  767.00	  775.49	-1778.49	  396.33
     95.6700	  714.00	  750.06	-1806.06	  396.15
     95.7700	  708.00	  729.23	-1791.23	  395.97
     95.8700	  680.00	  714.42	-1804.42	  395.80
     95.9700	  697.00	  706.87	-1779.87	  395.62
     96.0700	  642.00	  707.65	-1835.65	  395.44
     96.1700	  679.00	  717.66	-1808.66	  395.25
     96.2700	  721.00	  737.59	-1786.59	  395.07
     96.3700	  713.00	  767.87	-1824.87	  394.89
     96.4700	  802.00	  808.59	-1776.59	  394.70
     96.5700	  867.00	  859.47	-1762.47	  394.51
     96.6700	  905.00	  919.66	-1784.66	  394.33
     96.7700	  968.00	  987.71	-1789.71	  394.14
     96.8700	 1028.00	 1061.51	-1803.51	  393.95
     96.9700	 1154.00	 1138.21	-1754.21	  393.76
     97.0700	 1163.00	 1214.34	-1821.34	  393.56
     97.1700	 1293.00	 1285.82	-1762.82	  393.37
     97.2700	 1410.00	 1348.19	-1708.19	  393.18
     97.3700	 1335.00	 1396.97	-1831.97	  392.98
     97.4700	 1456.00	 1428.25	-1742.25	  392.79
     97.5700	 1405.00	 1439.46	-1804.46	  392.59
     97.6700	 1432.00	 1429.91	-1767.91	  392.39
     97.7700	 1408.00	 1400.95	-1762.95	  392.19
     97.8700	 1353.00	 1355.58	-1772.58	  391.99
     97.9700	 1256.00	 1297.78	-1811.78	  391.79
     98.0700	 1184.00	 1231.87	-1817.87	  391.59
     98.1700	 1160.00	 1162.15	-1772.15	  391.38
     98.2700	 1138.00	 1092.53	-1724.53	  391.18
     98.3700	 1035.00	 1026.47	-1761.47	  390.97
     98.4700	  894.00	  966.86	-1842.86	  390.77
     98.5700	  852.00	  916.02	-1834.02	  390.56
     98.6700	  871.00	  875.77	-1774.77	  390.35
     98.7700	  809.00	  847.47	-1808.47	  390.14
     98.8700	  800.00	  832.11	-1802.11	  389.93
     98.9700	  728.00	  830.37	-1872.37	  389.72
     99.0700	  853.00	  842.67	-1759.67	  389.51
     99.1700	  875.00	  869.23	-1764.23	  389.30
     99.2700	  924.00	  910.06	-1756.06	  389.08
     99.3700	  969.00	  964.95	-1765.95	  388.87
     99.4700	 1040.00	 1033.34	-1763.34	  388.65
     99.5700	 1096.00	 1114.34	-1788.34	  388.44
     99.6700	 1226.00	 1206.53	-1750.53	  388.22
     99.7700	 1302.00	 1307.91	-1775.91	  388.00
     99.8700	 1401.00	 1415.88	-1784.88	  387.78
     99.9700	 1445.00	 1527.03	-1852.03	  387.56
    100.0700	 1613.00	 1637.39	-1794.39	  387.34
    100.1700	 1776.00	 1742.50	-1736.50	  387.12
    100.2700	 1835.00	 1837.85	-1772.85	  386.90
    100.3700	 1898.00	 1919.42	-1791.42	  386.68
    100.4700	 2084.00	 1984.01	-1670.01	  386.46
    100.5700	 2025.00	 2029.47	-1774.47	  386.24
    100.6700	 2127.00	 2054.44	-1697.44	  386.01
    100.7700	 2152.00	 2058.20	-1676.20	  385.79
    100.8700	 2097.00	 2040.54	-1713.54	  385.56
    100.9700	 1980.00	 2002.05	-1792.05	  385.34
    101.0700	 1996.00	 1944.45	-1718.45	  385.11
    101.1700	 1893.00	 1870.82	-1747.82	  384.88
    101.2700	 1792.00	 1785.45	-1763.45	  384.66
    101.3700	 1642.00	 1693.29	-1821.29	  384.43
    101.4700	 1670.00	 1599.38	-1699.38	  384.20
    101.5700	 1583.00	 1508.22	-1695.22	  383.97
    101.6700	 1429.00	 1423.57	-1764.57	  383.74
    101.7700	 1339.00	 1348.14	-1779.14	  383.51
    101.8700	 1321.00	 1283.56	-1732.56	  383.28
    101.9700	 1260.00	 1230.45	-1740.45	  383.05
    102.0700	 1185.00	 1188.36	-1773.36	  382.82
    102.1700	 1142.00	 1156.00	-1784.00	  382.59
    102.2700	 1130.00	 1131.37	-1771.37	  382.35
    102.3700	 1056.00	 1111.94	-1825.94	  382.12
    102.4700	 1094.00	 1094.95	-1770.95	  381.89
    102.5700	 1050.00	 1077.74	-1797.74	  381.65
    102.6700	 1079.00	 1058.09	-1749.09	  381.42
    102.7700	 1020.00	 1034.53	-1784.53	  381.19
    102.8700	  996.00	 1006.44	-1780.44	  380.95
    102.9700	 1020.00	  974.00	-1724.00	  380.72
    103.0700	  927.00	  937.97	-1780.97	  380.48
    103.1700	  873.00	  899.48	-1796.48	  380.25
    103.2700	  855.00	  859.78	-1774.78	  380.01
    103.3700	  854.00	  820.08	-1736.08	  379.78
    103.4700	  779.00	  781.54	-1772.54	  379.54
    103.5700	  764.00	  745.11	-1751.11	  379.31
    103.6700	  679.00	  711.56	-1802.56	  379.07
    103.7700	  707.00	  681.42	-1744.42	  378.84
    103.8700	  676.00	  654.98	-1748.98	  378.60
    103.9700	  647.00	  632.35	-1755.35	  378.36
    104.0700	  660.00	  613.43	-1723.43	  378.13
    104.1700	  646.00	  598.01	-1722.01	  377.89
    104.2700	  556.00	  585.78	-1799.78	  377.65
    104.3700	  609.00	  576.35	-1737.35	  377.42
    104.4700	  591.00	  569.34	-1748.34	  377.18
    104.5700	  566.00	  564.37	-1768.37	  376.95
    104.6700	  578.00	  561.08	-1753.08	  376.71
    104.7700	  529.00	  559.15	-1800.15	  376.47
    104.8700	  562.00	  558.30	-1766.30	  376.24
    104.9700	  554.00	  558.30	-1774.30	  376.00
    105.0700	  542.00	  559.00	-1787.00	  375.77
    105.1700	  551.00	  560.22	-1779.22	  375.53
    105.2700	  563.00	  561.88	-1768.88	  375.30
    105.3700	  523.00	  563.94	-1810.94	  375.06
    105.4700	  541.00	  566.38	-1795.38	  374.83
    105.5700	  552.00	  569.20	-1787.20	  374.59
    105.6700	  586.00	  572.48	-1756.48	  374.36
    105.7700	  536.00	  576.30	-1810.30	  374.12
    105.8700	  551.00	  580.77	-1799.77	  373.89
    105.9700	  588.00	  586.00	-1768.00	  373.66
    106.0700	  576.00	  592.08	-1786.08	  373.42
    106.1700	  591.00	  599.03	-1778.03	  373.19
    106.2700	  562.00	  606.85	-1814.85	  372.96
    106.3700	  582.00	  615.46	-1803.46	  372.73
    106.4700	  599.00	  624.72	-1795.72	  372.50
    106.5700	  641.00	  634.41	-1763.41	  372.27
    106.6700	  619.00	  644.24	-1795.24	  372.04
    106.7700	  626.00	  653.91	-1797.91	  371.81
    106.8700	  617.00	  663.02	-1816.02	  371.58
    106.9700	  675.00	  671.19	-1766.19	  371.35
    107.0700	  648.00	  678.07	-1800.07	  371.12
    107.1700	  697.00	  683.36	-1756.36	  370.89
    107.2700	  669.00	  686.88	-1787.88	  370.67
    107.3700	  657.00	  688.63	-1801.63	  370.44
    107.4700	  642.00	  688.78	-1816.78	  370.22
    107.5700	  657.00	  687.63	-1800.63	  369.99
    107.6700	  689.00	  685.60	-1766.60	  369.77
    107.7700	  675.00	  683.13	-1778.13	  369.55
    107.8700	  702.00	  680.64	-1748.64	  369.32
    107.9700	  691.00	  678.48	-1757.48	  369.10
    108.0700	  695.00	  676.91	-1751.91	  368.88
    108.1700	  681.00	  676.09	-1765.09	  368.66
    108.2700	  690.00	  676.07	-1756.07	  368.45
    108.3700	  671.00	  676.75	-1775.75	  368.23
    108.4700	  663.00	  677.95	-1784.95	  368.01
    108.5700	  672.00	  679.38	-1777.38	  367.80
    108.6700	  698.00	  680.69	-1752.69	  367.58
    108.7700	  686.00	  681.47	-1765.47	  367.37
    108.8700	  686.00	  681.31	-1765.31	  367.16
    108.9700	  660.00	  679.88	-1789.88	  366.95
    109.0700	  697.00	  676.94	-1749.94	  366.74
    109.1700	  696.00	  672.38	-1746.38	  366.53
    109.2700	  668.00	  666.24	-1768.24	  366.32
    109.3700	  642.00	  658.69	-1786.69	  366.11
    109.4700	  648.00	  650.00	-1772.00	  365.91
    109.5700	  634.00	  640.48	-1776.48	  365.70
    109.6700	  623.00	  630.46	-1777.46	  365.50
    109.7700	  645.00	  620.29	-1745.29	  365.30
    109.8700	  645.00	  610.24	-1735.24	  365.10
    109.9700	  641.00	  600.60	-1729.60	  364.90
    110.0700	  605.00	  591.57	-1756.57	  364.70
    110.1700	  573.00	  583.33	-1780.33	  364.51
    110.2700	  590.00	  576.01	-1756.01	  364.32
    110.3700	  555.00	  569.65	-1784.65	  364.12
    110.4700	  574.00	  564.30	-1760.30	  363.93
    110.5700	  538.00	  559.93	-1791.93	  363.74
    110.6700	  602.00	  556.49	-1724.49	  363.56
    110.7700	  566.00	  553.92	-1757.92	  363.37
    110.8700	  539.00	  552.14	-1783.14	  363.19
    110.9700	  596.00	  551.05	-1725.05	  363.00
    111.0700	  578.00	  550.57	-1742.57	  362.82
    111.1700	  525.00	  550.61	-1795.61	  362.64
    111.2700	  550.00	  551.11	-1771.11	  362.47
    111.3700	  554.00	  551.99	-1767.99	  362.29
    111.4700	  525.00	  553.21	-1798.21	  362.12
    111.5700	  538.00	  554.71	-1786.71	  361.95
    111.6700	  530.00	  556.46	-1796.46	  361.78
    111.7700	  568.00	  558.45	-1760.45	  361.61
    111.8700	  532.00	  560.66	-1798.66	  361.44
    111.9700	  554.00	  563.09	-1779.09	  361.28
    112.0700	  563.00	  565.73	-1772.73	  361.12
    112.1700	  530.00	  568.60	-1808.60	  360.96
    112.2700	  551.00	  571.73	-1790.73	  360.80
    112.3700	  647.00	  575.12	-1698.12	  360.65
    112.4700	  539.00	  578.83	-1809.83	  360.49
    112.5700	  634.00	  582.90	-1718.90	  360.34
    112.6700	  572.00	  587.40	-1785.40	  360.20
    112.7700	  605.00	  592.40	-1757.40	  360.05
    112.8700	  632.00	  598.03	-1736.03	  359.91
    112.9700	  678.00	  604.42	-1696.42	  359.77
    113.0700	  670.00	  611.75	-1711.75	  359.63
    113.1700	  701.00	  620.29	-1689.29	  359.49
    113.2700	  732.00	  630.32	-1668.32	  359.36
    113.3700	  746.00	  642.27	-1666.27	  359.23
    113.4700	  758.00	  656.64	-1668.64	  359.10
    113.5700	  811.00	  674.08	-1633.08	  358.97
    113.6700	  833.00	  695.36	-1632.36	  358.85
    113.7700	  879.00	  721.46	-1612.46	  358.73
    113.8700	  954.00	  753.53	-1569.53	  358.61
    113.9700	  950.00	  792.92	-1612.92	  358.49
    114.0700	 1052.00	  841.23	-1559.23	  358.38
    114.1700	 1066.00	  900.27	-1604.27	  358.27
    114.2700	 1130.00	  972.03	-1612.03	  358.17
    114.3700	 1191.00	 1058.69	-1637.69	  358.06
    114.4700	 1282.00	 1162.54	-1650.54	  357.96
    114.5700	 1380.00	 1285.94	-1675.94	  357.86
    114.6700	 1548.00	 1431.22	-1653.22	  357.77
    114.7700	 1706.00	 1600.51	-1664.51	  357.68
    114.8700	 1927.00	 1795.68	-1638.68	  357.59
    114.9700	 2150.00	 2018.11	-1638.11	  357.50
    115.0700	 2317.00	 2268.63	-1721.63	  357.42
    115.1700	 2556.00	 2547.36	-1761.36	  357.34
    115.2700	 2878.00	 2853.40	-1745.40	  357.27
    115.3700	 3007.00	 3184.86	-1947.86	  357.20
    115.4700	 3518.00	 3538.67	-1790.67	  357.13
    115.5700	 3781.00	 3910.65	-1899.65	  357.06
    115.6700	 4102.00	 4295.39	-1963.39	  357.00
    115.7700	 4517.00	 4686.14	-1939.14	  356.94
    115.8700	 4706.00	 5075.00	-2139.00	  356.89
    115.9700	 5268.00	 5452.95	-1954.95	  356.83
    116.0700	 5639.00	 5810.15	-1941.15	  356.79
    116.1700	 6042.00	 6136.08	-1864.08	  356.74
    116.2700	 6366.00	 6419.86	-1823.86	  356.70
    116.3700	 6546.00	 6650.98	-1874.98	  356.66
    116.4700	 6769.00	 6820.04	-1821.04	  356.63
    116.5700	 6704.00	 6919.72	-1985.72	  356.60
    116.6700	 7080.00	 6945.54	-1635.54	  356.58
    116.7700	 7050.00	 6896.43	-1616.43	  356.56
    116.8700	 6815.00	 6774.96	-1729.96	  356.54
    116.9700	 6754.00	 6587.00	-1603.00	  356.52
    117.0700	 6403.00	 6340.84	-1707.84	  356.51
    117.1700	 6205.00	 6046.38	-1611.38	  356.51
    117.2700	 5731.00	 5714.32	-1753.32	  356.51
    117.3700	 5316.00	 5355.36	-1809.36	  356.51
    117.4700	 4976.00	 4979.80	-1773.80	  356.52
    117.5700	 4612.00	 4597.00	-1755.00	  356.53
    117.6700	 4372.00	 4215.28	-1613.28	  356.54
    117.7700	 3973.00	 3841.93	-1638.93	  356.56
    117.8700	 3612.00	 3482.98	-1640.98	  356.59
    117.9700	 3221.00	 3143.22	-1692.22	  356.62
    118.0700	 2930.00	 2826.17	-1666.17	  356.65
    118.1700	 2565.00	 2534.16	-1739.16	  356.69
    118.2700	 2254.00	 2268.62	-1784.62	  356.73
    118.3700	 2010.00	 2029.96	-1789.96	  356.78
    118.4700	 1710.00	 1817.86	-1877.86	  356.83
    118.5700	 1500.00	 1631.28	-1901.28	  356.89
    118.6700	 1406.00	 1468.73	-1832.73	  356.95
    118.7700	 1246.00	 1328.40	-1852.40	  357.01
    118.8700	 1158.00	 1208.24	-1820.24	  357.08
    118.9700	 1024.00	 1106.13	-1852.13	  357.16
    119.0700	  965.00	 1019.88	-1824.88	  357.24
    119.1700	  931.00	  947.40	-1786.40	  357.33
    119.2700	  857.00	  886.78	-1799.78	  357.42
    119.3700	  797.00	  836.22	-1809.22	  357.51
    119.4700	  703.00	  794.16	-1861.16	  357.61
    119.5700	  669.00	  759.18	-1860.18	  357.72
    119.6700	  726.00	  730.10	-1774.10	  357.83
    119.7700	  606.00	  705.90	-1869.90	  357.95
    119.8700	  664.00	  685.75	-1791.75	  358.07
    119.9700	  655.00	  668.92	-1783.92	  358.20
    120.0700	  612.00	  654.86	-1812.86	  358.33
    120.1700	  640.00	  643.09	-1773.09	  358.47
    120.2700	  590.00	  633.23	-1813.23	  358.61
    120.3700	  585.00	  624.99	-1809.99	  358.76
    120.4700	  548.00	  618.12	-1840.12	  358.92
    120.5700	  582.00	  612.43	-1800.43	  359.08
    120.6700	  558.00	  607.78	-1819.78	  359.24
    120.7700	  555.00	  604.05	-1819.05	  359.42
    120.8700	  535.00	  601.14	-1836.14	  359.59
    120.9700	  568.00	  598.99	-1800.99	  359.78
    121.0700	  622.00	  597.54	-1745.54	  359.97
    121.1700	  531.00	  596.74	-1835.74	  360.17
    121.2700	  609.00	  596.55	-1757.55	  360.37
    121.3700	  597.00	  596.92	-1769.92	  360.58
    121.4700	  580.00	  597.82	-1787.82	  360.79
    121.5700	  613.00	  599.21	-1756.21	  361.01
    121.6700	  571.00	  601.02	-1800.02	  361.24
    121.7700	  601.00	  603.21	-1772.21	  361.47
    121.8700	  568.00	  605.69	-1807.69	  361.71
    121.9700	  575.00	  608.43	-1803.43	  361.96
    122.0700	  604.00	  611.32	-1777.32	  362.21
    122.1700	  610.00	  614.28	-1774.28	  362.47
    122.2700	  563.00	  617.22	-1824.22	  362.74
    122.3700	  598.00	  620.03	-1792.03	  363.01
    122.4700	  638.00	  622.62	-1754.62	  363.29
    122.5700	  609.00	  624.89	-1785.89	  363.57
    122.6700	  642.00	  626.75	-1754.75	  363.87
    122.7700	  615.00	  628.14	-1783.14	  364.17
    122.8700	  645.00	  628.99	-1753.99	  364.47
    122.9700	  671.00	  629.27	-1728.27	  364.79
    123.0700	  637.00	  628.98	-1761.98	  365.11
    123.1700	  677.00	  628.12	-1721.12	  365.44
    123.2700	  667.00	  626.74	-1729.74	  365.77
    123.3700	  698.00	  624.88	-1696.88	  366.12
    123.4700	  639.00	  622.59	-1753.59	  366.46
    123.5700	  637.00	  619.95	-1752.95	  366.82
    123.6700	  664.00	  617.02	-1723.02	  367.19
    123.7700	  642.00	  613.87	-1741.87	  367.56
    123.8700	  598.00	  610.57	-1782.57	  367.94
    123.9700	  641.00	  607.17	-1736.17	  368.33
    124.0700	  602.00	  603.75	-1771.75	  368.72
    124.1700	  618.00	  600.35	-1752.35	  369.12
    124.2700	  607.00	  597.03	-1760.03	  369.53
    124.3700	  619.00	  593.81	-1744.81	  369.95
    124.4700	  601.00	  590.73	-1759.73	  370.38
    124.5700	  592.00	  587.83	-1765.83	  370.81
    124.6700	  579.00	  585.11	-1776.11	  371.25
    124.7700	  586.00	  582.60	-1766.60	  371.70
    124.8700	  587.00	  580.31	-1763.31	  372.16
    124.9700	  567.00	  491.46	-1694.46	  372.63
    125.0700	  556.00	  491.94	-1770.00	  373.10
    125.1700	  590.00	  492.42	-1770.00	  373.59
    125.2700	  536.00	  492.91	-1770.00	  374.08
    125.3700	  560.00	  493.41	-1770.00	  374.58
    125.4700	  594.00	  493.92	-1770.00	  375.09
    125.5700	  575.00	  494.44	-1770.00	  375.60
    125.6700	  568.00	  494.96	-1770.00	  376.13
    125.7700	  551.00	  495.50	-1770.00	  376.66
    125.8700	  578.00	  496.04	-1770.00	  377.21
    125.9700	  560.00	  496.59	-1770.00	  377.76
    126.0700	  554.00	  497.15	-1770.00	  378.32
    126.1700	  616.00	  497.72	-1770.00	  378.89
    126.2700	  634.00	  498.30	-1770.00	  379.47
    126.3700	  630.00	  498.89	-1770.00	  380.06
    126.4700	  614.00	  499.49	-1770.00	  380.65
    126.5700	  576.00	  500.09	-1770.00	  381.26
    126.6700	  633.00	  500.71	-1770.00	  381.87
    126.7700	  610.00	  501.33	-1770.00	  382.50
    126.8700	  613.00	  501.97	-1770.00	  383.13
    126.9700	  600.00	  502.61	-1770.00	  383.78
    127.0700	  639.00	  503.27	-1770.00	  384.43
    127.1700	  623.00	  503.93	-1770.00	  385.09
    127.2700	  672.00	  504.60	-1770.00	  385.77
    127.3700	  647.00	  505.28	-1770.00	  386.45
    127.4700	  656.00	  505.98	-1770.00	  387.14
    127.5700	  679.00	  506.68	-1770.00	  387.84
    127.6700	  657.00	  507.39	-1770.00	  388.56
    127.7700	  707.00	  508.11	-1770.00	  389.28
    127.8700	  734.00	  508.85	-1770.00	  390.01
    127.9700	  775.00	  509.59	-1770.00	  390.75
    128.0700	  790.00	  510.34	-1770.00	  391.51
    128.1700	  698.00	  511.10	-1770.00	  392.27
    128.2700	  790.00	  511.88	-1770.00	  393.04
    128.3700	  825.00	  512.66	-1770.00	  393.83
    128.4700	  762.00	  513.46	-1770.00	  394.62
    128.5700	    0.00	  514.26	-1770.00	  395.43
    128.6700	    0.00	  515.08	-1770.00	  396.24
     12.2977	        	        	        	        	       0	(  0  0  2)	  0  1
     24.8819	        	        	        	        	       0	(  0  0  4)	  0  1
     28.3228	        	        	        	        	       0	(  1  0  0)	  0  1
     29.0201	        	        	        	        	       0	(  1  0  1)	  0  1
     31.0265	        	        	        	        	       0	(  1  0  2)	  0  1
     34.1352	        	        	        	        	       0	(  1  0  3)	  0  1
     37.7821	        	        	        	        	       0	(  0  0  6)	  0  1
     38.1127	        	        	        	        	       0	(  1  0  4)	  0  1
     42.7632	        	        	        	        	       0	(  1  0  5)	  0  1
     47.9477	        	        	        	        	       0	(  1  0  6)	  0  1
     50.2606	        	        	        	        	       0	(  1  1  0)	  0  1
     51.2047	        	        	        	        	       0	(  0  0  8)	  0  1
     51.9838	        	        	        	        	       0	(  1  1  2)	  0  1
     53.5786	        	        	        	        	       0	(  1  0  7)	  0  1
     56.9322	        	        	        	        	       0	(  1  1  4)	  0  1
     58.7579	        	        	        	        	       0	(  2  0  0)	  0  1
     59.1496	        	        	        	        	       0	(  2  0  1)	  0  1
     59.6095	        	        	        	        	       0	(  1  0  8)	  0  1
     60.3151	        	        	        	        	       0	(  2  0  2)	  0  1
     62.2285	        	        	        	        	       0	(  2  0  3)	  0  1
     64.6277	        	        	        	        	       0	(  1  1  6)	  0  1
     64.8529	        	        	        	        	       0	(  2  0  4)	  0  1
     65.4347	        	        	        	        	       0	(  0  0 10)	  0  1
     66.0263	        	        	        	        	       0	(  1  0  9)	  0  1
     68.1475	        	        	        	        	       0	(  2  0  5)	  0  1
     72.0754	        	        	        	        	       0	(  2  0  6)	  0  1
     72.8429	        	        	        	        	       0	(  1  0 10)	  0  1
     74.6664	        	        	        	        	       0	(  1  1  8)	  0  1
     76.6100	        	        	        	        	       0	(  2  0  7)	  0  1
     80.1011	        	        	        	        	       0	(  1  0 11)	  0  1
     80.9161	        	        	        	        	       0	(  0  0 12)	  0  1
     81.0003	        	        	        	        	       0	(  2  1  0)	  0  1
     81.3402	        	        	        	        	       0	(  2  1  1)	  0  1
     81.7408	        	        	        	        	       0	(  2  0  8)	  0  1
     82.3582	        	        	        	        	       0	(  2  1  2)	  0  1
     84.0497	        	        	        	        	       0	(  2  1  3)	  0  1
     86.4097	        	        	        	        	       0	(  2  1  4)	  0  1
     86.9389	        	        	        	        	       0	(  1  1 10)	  0  1
     87.4794	        	        	        	        	       0	(  2  0  9)	  0  1
     87.8760	        	        	        	        	       0	(  1  0 12)	  0  1
     89.4358	        	        	        	        	       0	(  2  1  5)	  0  1
     93.1337	        	        	        	        	       0	(  2  1  6)	  0  1
     93.8675	        	        	        	        	       0	(  2  0 10)	  0  1
     94.8902	        	        	        	        	       0	(  3  0  0)	  0  1
     95.2276	        	        	        	        	       0	(  3  0  1)	  0  1
     96.2409	        	        	        	        	       0	(  3  0  2)	  0  1
     96.2901	        	        	        	        	       0	(  1  0 13)	  0  1
     97.5228	        	        	        	        	       0	(  2  1  7)	  0  1
     97.9345	        	        	        	        	       0	(  3  0  3)	  0  1
     98.4569	        	        	        	        	       0	(  0  0 14)	  0  1
    100.3178	        	        	        	        	       0	(  3  0  4)	  0  1
    100.9902	        	        	        	        	       0	(  2  0 11)	  0  1
    101.8109	        	        	        	        	       0	(  1  1 12)	  0  1
    102.6459	        	        	        	        	       0	(  2  1  8)	  0  1
    103.4098	        	        	        	        	       0	(  3  0  5)	  0  1
    105.5438	        	        	        	        	       0	(  1  0 14)	  0  1
    107.2454	        	        	        	        	       0	(  3  0  6)	  0  1
    108.5835	        	        	        	        	       0	(  2  1  9)	  0  1
    109.0025	        	        	        	        	       0	(  2  0 12)	  0  1
    111.8864	        	        	        	        	       0	(  3  0  7)	  0  1
    115.4815	        	        	        	        	       0	(  2  1 10)	  0  1
    115.9890	        	        	        	        	       0	(  1  0 15)	  0  1
    116.6176	        	        	        	        	       0	(  2  2  0)	  0  1
    117.4408	        	        	        	        	       0	(  3  0  8)	  0  1
    118.1331	        	        	        	        	       0	(  2  2  2)	  0  1
    118.1885	        	        	        	        	       0	(  2  0 13)	  0  1
    119.9488	        	        	        	        	       0	(  0  0 16)	  0  1
    120.6583	        	        	        	        	       0	(  1  1 14)	  0  1
    122.8194	        	        	        	        	       0	(  2  2  4)	  0  1
    123.6102	        	        	        	        	       0	(  2  1 11)	  0  1
    124.1021	        	        	        	        	       0	(  3  0  9)	  0  1
    124.6842	        	        	        	        	       0	(  3  1  0)	  0  1
    125.0945	        	        	        	        	       0	(  3  1  1)	  0  1
    126.3382	        	        	        	        	       0	(  3  1  2)	  0  1
    128.3359	        	        	        	        	       0	(  1  0 16)	  0  1
    128.4570	        	        	        	        	       0	(  3  1  3)	  0  1
    129.1215	        	        	        	        	       0	(  2  0 14)	  0  1
    131.2613	        	        	        	        	       0	(  2  2  6)	  0  1
    131.5337	        	        	        	        	       0	(  3  1  4)	  0  1
    132.2451	        	        	        	        	       0	(  3  0 10)	  0  1
    133.5257	        	        	        	        	       0	(  2  1 12)	  0  1
    135.7220	        	        	        	        	       0	(  3  1  5)	  0  1
    141.3197	        	        	        	        	       0	(  3  1  6)	  0  1
    142.7289	        	        	        	        	       0	(  3  0 11)	  0  1
    143.2698	        	        	        	        	       0	(  2  0 15)	  0  1
    144.5166	        	        	        	        	       0	(  1  0 17)	  0  1
    145.5016	        	        	        	        	       0	(  2  2  8)	  0  1
    146.6900	        	        	        	        	       0	(  2  1 13)	  0  1
    148.9976	        	        	        	        	       0	(  3  1  7)	  0  1
    149.6133	        	        	        	        	       0	(  1  1 16)	  0  1
    154.0313	        	        	        	        	       0	(  0  0 18)	  0  1
    158.6285	        	        	        	        	       0	(  3  0 12)	  0  1
    158.8596	        	        	        	        	       0	(  4  0  0)	  0  1
    159.8180	        	        	        	        	       0	(  4  0  1)	  0  1
    161.0082	        	        	        	        	       0	(  3  1  8)	  0  1
    163.0031	        	        	        	        	       0	(  4  0  2)	  0  1
    169.8226	        	        	        	        	       0	(  2  0 16)	  0  1
    170.3814	        	        	        	        	       0	(  4  0  3)	  0  1
    174.3420	        	        	        	        	       0	(  2  1 14)	  0  1
