MSG Master    CELL:    5.91020   5.91020  23.24084   90.0000   90.0000  120.0000   SPGR: P 63/m m c             TEMP:    919.35
  1   1280     2.52000     0.00000    -0.12074     0.00000     0.00000    0
    98     0     2
       0.00000      10.00000
     125.00000     130.00000
 2Theta	Yobs	Ycal	Yobs-Ycal	Backg	Posr	(hkl)	K
      0.7700	    0.00	  466.71	-1731.00	  356.63
      0.8700	    0.00	  468.31	-1731.00	  358.22
      0.9700	   40.00	  469.89	-1731.00	  359.80
      1.0700	   39.00	  471.45	-1731.00	  361.36
      1.1700	   47.00	  472.99	-1731.00	  362.90
      1.2700	   44.00	  474.51	-1731.00	  364.43
      1.3700	   50.00	  476.02	-1731.00	  365.93
      1.4700	   91.00	  477.51	-1731.00	  367.43
      1.5700	  304.00	  478.98	-1731.00	  368.90
      1.6700	  458.00	  480.44	-1731.00	  370.36
      1.7700	  578.00	  481.88	-1731.00	  371.80
      1.8700	  641.00	  483.30	-1731.00	  373.22
      1.9700	  739.00	  484.71	-1731.00	  374.63
      2.0700	  777.00	  486.10	-1731.00	  376.02
      2.1700	  771.00	  487.48	-1731.00	  377.39
      2.2700	  761.00	  488.83	-1731.00	  378.75
      2.3700	  737.00	  490.18	-1731.00	  380.09
      2.4700	  730.00	  491.50	-1731.00	  381.42
      2.5700	  653.00	  492.81	-1731.00	  382.72
      2.6700	  699.00	  494.10	-1731.00	  384.02
      2.7700	  672.00	  495.38	-1731.00	  385.30
      2.8700	  661.00	  496.65	-1731.00	  386.56
      2.9700	  641.00	  497.89	-1731.00	  387.81
      3.0700	  634.00	  499.12	-1731.00	  389.04
      3.1700	  566.00	  500.34	-1731.00	  390.25
      3.2700	  695.00	  501.54	-1731.00	  391.45
      3.3700	  755.00	  502.73	-1731.00	  392.64
      3.4700	  835.00	  503.90	-1731.00	  393.81
      3.5700	  951.00	  505.05	-1731.00	  394.97
      3.6700	  944.00	  506.19	-1731.00	  396.11
      3.7700	 1056.00	  507.32	-1731.00	  397.23
      3.8700	 1095.00	  508.43	-1731.00	  398.35
      3.9700	 1134.00	  509.53	-1731.00	  399.44
      4.0700	 1204.00	  510.61	-1731.00	  400.52
      4.1700	 1186.00	  511.68	-1731.00	  401.59
      4.2700	 1277.00	  512.73	-1731.00	  402.65
      4.3700	 1149.00	  513.77	-1731.00	  403.69
      4.4700	 1195.00	  514.80	-1731.00	  404.71
      4.5700	 1166.00	  515.81	-1731.00	  405.72
      4.6700	 1095.00	  516.81	-1731.00	  406.72
      4.7700	 1118.00	  517.79	-1731.00	  407.70
      4.8700	 1101.00	  518.76	-1731.00	  408.67
      4.9700	 1053.00	  519.72	-1731.00	  409.63
      5.0700	 1016.00	  520.66	-1731.00	  410.57
      5.1700	  962.00	  521.59	-1731.00	  411.50
      5.2700	 1022.00	  522.51	-1731.00	  412.42
      5.3700	  968.00	  523.41	-1731.00	  413.32
      5.4700	  908.00	  524.30	-1731.00	  414.21
      5.5700	  889.00	  525.18	-1731.00	  415.09
      5.6700	  883.00	  526.04	-1731.00	  415.95
      5.7700	  918.00	  526.89	-1731.00	  416.80
      5.8700	  828.00	  527.73	-1731.00	  417.64
      5.9700	  843.00	  528.55	-1731.00	  418.47
      6.0700	  851.00	  529.37	-1731.00	  419.28
      6.1700	  854.00	  530.17	-1731.00	  420.08
      6.2700	  837.00	  530.95	-1731.00	  420.87
      6.3700	  785.00	  531.73	-1731.00	  421.64
      6.4700	  764.00	  532.49	-1731.00	  422.41
      6.5700	  756.00	  533.24	-1731.00	  423.16
      6.6700	  704.00	  533.98	-1731.00	  423.90
      6.7700	  771.00	  534.71	-1731.00	  424.62
      6.8700	  711.00	  535.42	-1731.00	  425.34
      6.9700	  724.00	  536.13	-1731.00	  426.04
      7.0700	  677.00	  536.82	-1731.00	  426.73
      7.1700	  678.00	  537.50	-1731.00	  427.41
      7.2700	  712.00	  538.17	-1731.00	  428.08
      7.3700	  632.00	  538.82	-1731.00	  428.74
      7.4700	  675.00	  539.47	-1731.00	  429.38
      7.5700	  632.00	  540.10	-1731.00	  430.02
      7.6700	  638.00	  540.72	-1731.00	  430.64
      7.7700	  682.00	  541.34	-1731.00	  431.25
      7.8700	  641.00	  541.94	-1731.00	  431.85
      7.9700	  591.00	  542.52	-1731.00	  432.44
      8.0700	  635.00	  543.10	-1731.00	  433.02
      8.1700	  668.00	  543.67	-1731.00	  433.58
      8.2700	  662.00	  544.23	-1731.00	  434.14
      8.3700	  613.00	  544.77	-1731.00	  434.69
      8.4700	  653.00	  545.31	-1731.00	  435.22
      8.5700	  630.00	  545.83	-1731.00	  435.75
      8.6700	  666.00	  546.35	-1731.00	  436.26
      8.7700	  663.00	  546.85	-1731.00	  436.77
      8.8700	  628.00	  547.35	-1731.00	  437.26
      8.9700	  632.00	  547.83	-1731.00	  437.74
      9.0700	  607.00	  548.30	-1731.00	  438.22
      9.1700	  600.00	  548.77	-1731.00	  438.68
      9.2700	  556.00	  549.22	-1731.00	  439.14
      9.3700	  644.00	  549.67	-1731.00	  439.58
      9.4700	  620.00	  550.10	-1731.00	  440.01
      9.5700	  636.00	  550.52	-1731.00	  440.44
      9.6700	  597.00	  550.94	-1731.00	  440.85
      9.7700	  599.00	  551.34	-1731.00	  441.26
      9.8700	  559.00	  551.74	-1731.00	  441.65
      9.9700	  605.00	  552.13	-1731.00	  442.04
     10.0700	  585.00	  553.97	-1699.97	  442.42
     10.1700	  600.00	  554.49	-1685.49	  442.78
     10.2700	  590.00	  555.03	-1696.03	  443.14
     10.3700	  557.00	  555.62	-1729.62	  443.49
     10.4700	  562.00	  556.29	-1725.29	  443.83
     10.5700	  587.00	  557.08	-1701.08	  444.16
     10.6700	  564.00	  558.09	-1725.09	  444.49
     10.7700	  545.00	  559.40	-1745.40	  444.80
     10.8700	  542.00	  561.08	-1750.08	  445.10
     10.9700	  546.00	  563.18	-1748.18	  445.40
     11.0700	  621.00	  565.67	-1675.67	  445.69
     11.1700	  595.00	  568.56	-1704.56	  445.97
     11.2700	  576.00	  571.89	-1726.89	  446.24
     11.3700	  560.00	  575.72	-1746.72	  446.50
     11.4700	  541.00	  580.20	-1770.20	  446.75
     11.5700	  622.00	  585.52	-1694.52	  447.00
     11.6700	  617.00	  592.01	-1706.01	  447.24
     11.7700	  607.00	  600.14	-1724.14	  447.47
     11.8700	  658.00	  610.37	-1683.37	  447.69
     11.9700	  672.00	  622.63	-1681.63	  447.90
     12.0700	  689.00	  635.34	-1677.34	  448.11
     12.1700	  701.00	  644.48	-1674.48	  448.30
     12.2700	  645.00	  643.78	-1729.78	  448.49
     12.3700	  634.00	  629.83	-1726.83	  448.68
     12.4700	  630.00	  609.30	-1710.30	  448.85
     12.5700	  584.00	  591.30	-1738.30	  449.02
     12.6700	  593.00	  579.07	-1717.07	  449.18
     12.7700	  595.00	  571.94	-1707.94	  449.33
     12.8700	  587.00	  568.14	-1712.14	  449.48
     12.9700	  570.00	  566.09	-1727.09	  449.61
     13.0700	  572.00	  564.90	-1723.90	  449.74
     13.1700	  556.00	  564.12	-1739.12	  449.87
     13.2700	  557.00	  563.58	-1737.58	  449.98
     13.3700	  557.00	  563.18	-1737.18	  450.09
     13.4700	  534.00	  562.89	-1759.89	  450.20
     13.5700	  547.00	  562.67	-1746.67	  450.29
     13.6700	  538.00	  562.50	-1755.50	  450.38
     13.7700	  571.00	  562.37	-1722.37	  450.46
     13.8700	  570.00	  562.28	-1723.28	  450.54
     13.9700	  524.00	  562.20	-1769.20	  450.61
     14.0700	  548.00	  562.13	-1745.13	  450.67
     14.1700	  565.00	  562.08	-1728.08	  450.72
     14.2700	  533.00	  562.04	-1760.04	  450.77
     14.3700	  491.00	  562.00	-1802.00	  450.82
     14.4700	  537.00	  561.97	-1755.97	  450.85
     14.5700	  554.00	  561.97	-1738.97	  450.88
     14.6700	  553.00	  561.94	-1739.94	  450.91
     14.7700	  555.00	  561.91	-1737.91	  450.92
     14.8700	  552.00	  561.88	-1740.88	  450.94
     14.9700	  557.00	  561.85	-1735.85	  450.94
     15.0700	  535.00	  561.81	-1757.81	  450.94
     15.1700	  559.00	  561.78	-1733.78	  450.94
     15.2700	  574.00	  561.74	-1718.74	  450.92
     15.3700	  579.00	  561.70	-1713.70	  450.91
     15.4700	  534.00	  561.65	-1758.65	  450.88
     15.5700	  563.00	  561.60	-1729.60	  450.86
     15.6700	  524.00	  561.55	-1768.55	  450.82
     15.7700	  546.00	  561.49	-1746.49	  450.78
     15.8700	  532.00	  561.43	-1760.43	  450.74
     15.9700	  574.00	  561.36	-1718.36	  450.69
     16.0700	  570.00	  561.30	-1722.30	  450.63
     16.1700	  559.00	  561.22	-1733.22	  450.57
     16.2700	  533.00	  561.14	-1759.14	  450.50
     16.3700	  580.00	  561.06	-1712.06	  450.43
     16.4700	  561.00	  560.98	-1730.98	  450.35
     16.5700	  569.00	  560.89	-1722.89	  450.27
     16.6700	  541.00	  560.79	-1750.79	  450.18
     16.7700	  570.00	  560.69	-1721.69	  450.09
     16.8700	  549.00	  560.59	-1742.59	  450.00
     16.9700	  520.00	  560.48	-1771.48	  449.89
     17.0700	  579.00	  560.37	-1712.37	  449.79
     17.1700	  561.00	  560.25	-1730.25	  449.68
     17.2700	  556.00	  560.13	-1735.13	  449.56
     17.3700	  536.00	  560.01	-1755.01	  449.44
     17.4700	  496.00	  559.88	-1794.88	  449.32
     17.5700	  489.00	  559.85	-1801.85	  449.19
     17.6700	  533.00	  559.72	-1757.72	  449.05
     17.7700	  553.00	  559.58	-1737.58	  448.92
     17.8700	  587.00	  559.44	-1703.44	  448.77
     17.9700	  519.00	  559.29	-1771.29	  448.63
     18.0700	  560.00	  559.14	-1730.14	  448.48
     18.1700	  584.00	  559.08	-1706.08	  448.32
     18.2700	  590.00	  558.93	-1699.93	  448.16
     18.3700	  546.00	  558.77	-1743.77	  448.00
     18.4700	  573.00	  558.60	-1716.60	  447.83
     18.5700	  528.00	  558.44	-1761.44	  447.66
     18.6700	  590.00	  558.27	-1699.27	  447.48
     18.7700	  514.00	  558.09	-1775.09	  447.31
     18.8700	  505.00	  557.91	-1783.91	  447.12
     18.9700	  540.00	  557.73	-1748.73	  446.94
     19.0700	  519.00	  557.55	-1769.55	  446.74
     19.1700	  540.00	  557.36	-1748.36	  446.55
     19.2700	  522.00	  557.17	-1766.17	  446.35
     19.3700	  561.00	  556.98	-1726.98	  446.15
     19.4700	  524.00	  556.78	-1763.78	  445.95
     19.5700	  537.00	  556.58	-1750.58	  445.74
     19.6700	  526.00	  556.38	-1761.38	  445.53
     19.7700	  527.00	  556.18	-1760.18	  445.31
     19.8700	  534.00	  555.97	-1752.97	  445.09
     19.9700	  527.00	  555.79	-1759.79	  444.87
     20.0700	  569.00	  555.58	-1717.58	  444.65
     20.1700	  579.00	  555.37	-1707.37	  444.42
     20.2700	  506.00	  555.15	-1780.15	  444.19
     20.3700	  516.00	  554.93	-1769.93	  443.95
     20.4700	  548.00	  554.71	-1737.71	  443.72
     20.5700	  551.00	  554.49	-1734.49	  443.47
     20.6700	  534.00	  554.26	-1751.26	  443.23
     20.7700	  543.00	  554.04	-1742.04	  442.99
     20.8700	  550.00	  553.81	-1734.81	  442.74
     20.9700	  589.00	  553.58	-1695.58	  442.48
     21.0700	  571.00	  553.34	-1713.34	  442.23
     21.1700	  553.00	  553.11	-1731.11	  441.97
     21.2700	  580.00	  552.88	-1703.88	  441.71
     21.3700	  564.00	  552.64	-1719.64	  441.45
     21.4700	  546.00	  552.41	-1737.41	  441.18
     21.5700	  537.00	  552.17	-1746.17	  440.92
     21.6700	  575.00	  551.94	-1707.94	  440.64
     21.7700	  553.00	  551.70	-1729.70	  440.37
     21.8700	  589.00	  551.47	-1693.47	  440.10
     21.9700	  528.00	  551.24	-1754.24	  439.82
     22.0700	  528.00	  551.00	-1754.00	  439.54
     22.1700	  526.00	  550.77	-1755.77	  439.26
     22.2700	  509.00	  550.55	-1772.55	  438.97
     22.3700	  556.00	  550.28	-1725.28	  438.68
     22.4700	  533.00	  550.07	-1748.07	  438.39
     22.5700	  544.00	  549.86	-1736.86	  438.10
     22.6700	  557.00	  549.80	-1723.80	  437.81
     22.7700	  530.00	  549.61	-1750.61	  437.51
     22.8700	  571.00	  549.43	-1709.43	  437.22
     22.9700	  572.00	  549.26	-1708.26	  436.92
     23.0700	  549.00	  549.11	-1731.11	  436.62
     23.1700	  554.00	  548.99	-1725.99	  436.31
     23.2700	  531.00	  548.89	-1748.89	  436.01
     23.3700	  521.00	  548.83	-1758.83	  435.70
     23.4700	  573.00	  548.81	-1706.81	  435.39
     23.5700	  594.00	  548.87	-1685.87	  435.08
     23.6700	  558.00	  549.02	-1722.02	  434.77
     23.7700	  587.00	  549.32	-1693.32	  434.46
     23.8700	  564.00	  549.88	-1716.88	  434.14
     23.9700	  600.00	  550.88	-1681.88	  433.82
     24.0700	  554.00	  552.65	-1729.65	  433.51
     24.1700	  605.00	  555.70	-1681.70	  433.19
     24.2700	  573.00	  560.68	-1718.68	  432.86
     24.3700	  577.00	  568.29	-1722.29	  432.54
     24.4700	  567.00	  579.02	-1743.02	  432.22
     24.5700	  598.00	  592.64	-1725.64	  431.89
     24.6700	  618.00	  607.42	-1720.42	  431.56
     24.7700	  605.00	  619.21	-1745.21	  431.24
     24.8700	  623.00	  621.71	-1729.71	  430.91
     24.9700	  693.00	  611.06	-1649.06	  430.57
     25.0700	  626.00	  592.71	-1697.71	  430.24
     25.1700	  573.00	  575.26	-1733.26	  429.91
     25.2700	  590.00	  562.58	-1703.58	  429.58
     25.3700	  569.00	  554.70	-1716.70	  429.24
     25.4700	  548.00	  550.25	-1733.25	  428.90
     25.5700	  560.00	  547.77	-1718.77	  428.57
     25.6700	  561.00	  546.27	-1716.27	  428.23
     25.7700	  604.00	  545.28	-1672.28	  427.89
     25.8700	  557.00	  544.56	-1718.56	  427.55
     25.9700	  558.00	  544.03	-1717.03	  427.21
     26.0700	  538.00	  543.63	-1736.63	  426.86
     26.1700	  569.00	  543.34	-1705.34	  426.52
     26.2700	  549.00	  543.16	-1725.16	  426.18
     26.3700	  566.00	  543.08	-1708.08	  425.83
     26.4700	  587.00	  543.11	-1687.11	  425.49
     26.5700	  554.00	  543.24	-1720.24	  425.14
     26.6700	  604.00	  543.49	-1670.49	  424.80
     26.7700	  582.00	  543.90	-1692.90	  424.45
     26.8700	  571.00	  544.48	-1704.48	  424.10
     26.9700	  586.00	  545.29	-1690.29	  423.75
     27.0700	  498.00	  546.39	-1779.39	  423.40
     27.1700	  585.00	  547.91	-1693.91	  423.05
     27.2700	  568.00	  550.05	-1713.05	  422.70
     27.3700	  556.00	  553.19	-1728.19	  422.35
     27.4700	  571.00	  558.08	-1718.08	  422.00
     27.5700	  628.00	  566.04	-1669.04	  421.65
     27.6700	  566.00	  579.25	-1744.25	  421.30
     27.7700	  578.00	  600.68	-1753.68	  420.95
     27.8700	  592.00	  633.37	-1772.37	  420.60
     27.9700	  673.00	  678.61	-1736.61	  420.24
     28.0700	  707.00	  733.45	-1757.45	  419.89
     28.1700	  839.00	  788.33	-1680.33	  419.54
     28.2700	  961.00	  826.01	-1596.01	  419.19
     28.3700	  861.00	  828.16	-1698.16	  418.83
     28.4700	  826.00	  797.88	-1702.88	  418.48
     28.5700	  778.00	  764.63	-1717.63	  418.13
     28.6700	  689.00	  752.04	-1794.04	  417.77
     28.7700	  720.00	  763.99	-1774.99	  417.42
     28.8700	  749.00	  788.96	-1770.96	  417.07
     28.9700	  813.00	  804.97	-1722.97	  416.71
     29.0700	  825.00	  789.13	-1695.13	  416.36
     29.1700	  738.00	  739.44	-1732.44	  416.01
     29.2700	  708.00	  679.06	-1702.06	  415.65
     29.3700	  624.00	  627.95	-1734.95	  415.30
     29.4700	  613.00	  592.33	-1710.33	  414.95
     29.5700	  581.00	  570.46	-1720.46	  414.59
     29.6700	  591.00	  557.97	-1697.97	  414.24
     29.7700	  571.00	  550.90	-1710.90	  413.89
     29.8700	  561.00	  546.63	-1716.62	  413.54
     29.9700	  573.00	  543.92	-1701.92	  413.18
     30.0700	  560.00	  542.29	-1713.29	  412.83
     30.1700	  594.00	  541.66	-1678.66	  412.48
     30.2700	  558.00	  542.31	-1715.31	  412.13
     30.3700	  617.00	  544.87	-1658.87	  411.78
     30.4700	  574.00	  550.33	-1707.33	  411.43
     30.5700	  607.00	  559.83	-1683.83	  411.08
     30.6700	  572.00	  573.96	-1732.96	  410.73
     30.7700	  604.00	  591.70	-1718.70	  410.38
     30.8700	  589.00	  609.50	-1751.50	  410.03
     30.9700	  595.00	  621.00	-1757.00	  409.68
     31.0700	  638.00	  619.07	-1712.07	  409.34
     31.1700	  604.00	  602.95	-1729.95	  408.99
     31.2700	  595.00	  581.06	-1717.06	  408.64
     31.3700	  545.00	  561.52	-1747.52	  408.30
     31.4700	  543.00	  547.40	-1735.40	  407.95
     31.5700	  589.00	  538.49	-1680.49	  407.61
     31.6700	  504.00	  533.32	-1760.32	  407.26
     31.7700	  553.00	  530.38	-1708.38	  406.92
     31.8700	  556.00	  528.62	-1703.62	  406.58
     31.9700	  513.00	  527.49	-1745.49	  406.23
     32.0700	  536.00	  526.71	-1721.71	  405.89
     32.1700	  539.00	  526.20	-1718.20	  405.55
     32.2700	  548.00	  525.89	-1708.89	  405.21
     32.3700	  536.00	  525.79	-1720.79	  404.87
     32.4700	  569.00	  525.88	-1687.88	  404.54
     32.5700	  544.00	  526.18	-1713.18	  404.20
     32.6700	  492.00	  526.72	-1765.72	  403.86
     32.7700	  543.00	  527.56	-1715.56	  403.53
     32.8700	  581.00	  528.77	-1678.77	  403.19
     32.9700	  504.00	  530.47	-1757.47	  402.86
     33.0700	  545.00	  532.89	-1718.89	  402.52
     33.1700	  567.00	  536.45	-1700.45	  402.19
     33.2700	  501.00	  542.03	-1772.03	  401.86
     33.3700	  559.00	  551.37	-1723.37	  401.53
     33.4700	  519.00	  567.56	-1779.56	  401.20
     33.5700	  621.00	  595.39	-1705.39	  400.87
     33.6700	  582.00	  640.55	-1789.55	  400.55
     33.7700	  712.00	  706.75	-1725.75	  400.22
     33.8700	  836.00	  790.79	-1685.79	  399.90
     33.9700	  909.00	  877.89	-1699.89	  399.57
     34.0700	  995.00	  940.42	-1676.42	  399.25
     34.1700	 1007.00	  945.90	-1669.90	  398.93
     34.2700	  955.00	  885.44	-1661.44	  398.61
     34.3700	  813.00	  790.97	-1708.97	  398.29
     34.4700	  703.00	  700.23	-1728.23	  397.97
     34.5700	  631.00	  631.02	-1731.02	  397.65
     34.6700	  624.00	  585.46	-1692.46	  397.34
     34.7700	  556.00	  558.40	-1733.40	  397.02
     34.8700	  502.00	  543.06	-1772.06	  396.71
     34.9700	  553.00	  534.12	-1712.12	  396.39
     35.0700	  504.00	  528.44	-1755.44	  396.08
     35.1700	  529.00	  524.42	-1726.42	  395.77
     35.2700	  490.00	  521.36	-1762.36	  395.47
     35.3700	  550.00	  518.89	-1699.89	  395.16
     35.4700	  507.00	  516.89	-1740.89	  394.85
     35.5700	  527.00	  515.69	-1719.69	  394.55
     35.6700	  529.00	  514.27	-1716.27	  394.24
     35.7700	  515.00	  513.05	-1729.05	  393.94
     35.8700	  496.00	  511.99	-1746.99	  393.64
     35.9700	  481.00	  511.05	-1761.05	  393.34
     36.0700	  501.00	  510.21	-1740.21	  393.05
     36.1700	  541.00	  509.46	-1699.46	  392.75
     36.2700	  508.00	  508.79	-1731.79	  392.45
     36.3700	  485.00	  508.19	-1754.19	  392.16
     36.4700	  508.00	  507.64	-1730.64	  391.87
     36.5700	  510.00	  507.15	-1728.15	  391.58
     36.6700	  520.00	  506.71	-1717.71	  391.29
     36.7700	  486.00	  506.34	-1751.34	  391.00
     36.8700	  510.00	  506.06	-1727.06	  390.71
     36.9700	  504.00	  505.92	-1732.92	  390.43
     37.0700	  507.00	  506.02	-1730.02	  390.15
     37.1700	  513.00	  506.51	-1724.51	  389.86
     37.2700	  491.00	  507.62	-1747.62	  389.58
     37.3700	  481.00	  509.56	-1759.56	  389.31
     37.4700	  508.00	  512.34	-1735.34	  389.03
     37.5700	  503.00	  515.62	-1743.62	  388.75
     37.6700	  489.00	  518.53	-1760.53	  388.48
     37.7700	  532.00	  519.80	-1718.80	  388.21
     37.8700	  573.00	  518.50	-1676.50	  387.94
     37.9700	  501.00	  515.10	-1745.10	  387.67
     38.0700	  512.00	  511.06	-1730.06	  387.40
     38.1700	  553.00	  507.61	-1685.61	  387.13
     38.2700	  511.00	  504.81	-1724.81	  386.87
     38.3700	  555.00	  502.85	-1678.85	  386.61
     38.4700	  472.00	  501.55	-1760.55	  386.35
     38.5700	  492.00	  500.66	-1739.66	  386.09
     38.6700	  494.00	  500.03	-1737.03	  385.83
     38.7700	  509.00	  499.54	-1721.54	  385.57
     38.8700	  511.00	  499.12	-1719.12	  385.32
     38.9700	  505.00	  498.76	-1724.76	  385.07
     39.0700	  535.00	  498.42	-1694.42	  384.81
     39.1700	  464.00	  498.01	-1765.01	  384.57
     39.2700	  512.00	  497.72	-1716.72	  384.32
     39.3700	  559.00	  497.45	-1669.45	  384.07
     39.4700	  509.00	  497.20	-1719.20	  383.83
     39.5700	  508.00	  496.95	-1719.95	  383.59
     39.6700	  514.00	  496.72	-1713.72	  383.34
     39.7700	  494.00	  496.50	-1733.50	  383.11
     39.8700	  516.00	  496.29	-1711.29	  382.87
     39.9700	  487.00	  496.10	-1740.10	  382.63
     40.0700	  480.00	  495.82	-1746.82	  382.40
     40.1700	  479.00	  495.65	-1747.65	  382.17
     40.2700	  502.00	  495.49	-1724.49	  381.94
     40.3700	  443.00	  495.35	-1783.35	  381.71
     40.4700	  495.00	  495.22	-1731.22	  381.48
     40.5700	  495.00	  495.61	-1731.61	  381.26
     40.6700	  508.00	  495.53	-1718.53	  381.04
     40.7700	  487.00	  495.47	-1739.47	  380.82
     40.8700	  468.00	  495.44	-1758.44	  380.60
     40.9700	  501.00	  495.43	-1725.43	  380.38
     41.0700	  465.00	  495.47	-1761.47	  380.16
     41.1700	  515.00	  495.55	-1711.55	  379.95
     41.2700	  487.00	  495.69	-1739.69	  379.74
     41.3700	  490.00	  495.90	-1736.90	  379.53
     41.4700	  450.00	  496.21	-1777.21	  379.32
     41.5700	  441.00	  496.64	-1786.64	  379.11
     41.6700	  478.00	  497.25	-1750.25	  378.91
     41.7700	  491.00	  498.16	-1738.16	  378.71
     41.8700	  507.00	  499.65	-1723.65	  378.51
     41.9700	  495.00	  502.06	-1738.06	  378.31
     42.0700	  494.00	  506.24	-1743.24	  378.11
     42.1700	  509.00	  513.48	-1735.48	  377.92
     42.2700	  493.00	  525.00	-1763.00	  377.72
     42.3700	  506.00	  542.06	-1767.06	  377.53
     42.4700	  513.00	  564.43	-1782.43	  377.34
     42.5700	  545.00	  589.45	-1775.45	  377.16
     42.6700	  598.00	  611.10	-1744.10	  376.97
     42.7700	  580.00	  621.23	-1772.23	  376.79
     42.8700	  565.00	  614.33	-1780.33	  376.61
     42.9700	  549.00	  593.54	-1775.54	  376.43
     43.0700	  551.00	  567.95	-1747.95	  376.25
     43.1700	  521.00	  544.27	-1754.27	  376.07
     43.2700	  534.00	  525.92	-1722.92	  375.90
     43.3700	  503.00	  513.38	-1741.38	  375.73
     43.4700	  523.00	  505.52	-1713.52	  375.56
     43.5700	  507.00	  500.87	-1724.87	  375.39
     43.6700	  466.00	  498.13	-1763.13	  375.22
     43.7700	  490.00	  496.42	-1737.42	  375.06
     43.8700	  473.00	  495.27	-1753.27	  374.89
     43.9700	  537.00	  494.43	-1688.43	  374.73
     44.0700	  514.00	  493.77	-1710.77	  374.58
     44.1700	  481.00	  493.25	-1743.25	  374.42
     44.2700	  476.00	  492.83	-1747.83	  374.26
     44.3700	  450.00	  492.69	-1773.69	  374.11
     44.4700	  500.00	  492.41	-1723.41	  373.96
     44.5700	  543.00	  492.19	-1680.19	  373.81
     44.6700	  476.00	  492.01	-1747.01	  373.67
     44.7700	  514.00	  491.87	-1708.87	  373.52
     44.8700	  509.00	  491.76	-1713.76	  373.38
     44.9700	  501.00	  491.69	-1721.69	  373.24
     45.0700	  473.00	  491.65	-1749.65	  373.10
     45.1700	  477.00	  491.63	-1745.63	  372.96
     45.2700	  494.00	  491.65	-1728.65	  372.82
     45.3700	  476.00	  491.69	-1746.69	  372.69
     45.4700	  503.00	  491.76	-1719.76	  372.56
     45.5700	  508.00	  491.85	-1714.85	  372.43
     45.6700	  499.00	  491.98	-1723.98	  372.30
     45.7700	  489.00	  492.13	-1734.13	  372.18
     45.8700	  539.00	  492.18	-1684.18	  372.05
     45.9700	  516.00	  492.41	-1707.41	  371.93
     46.0700	  515.00	  492.74	-1708.74	  371.81
     46.1700	  519.00	  493.05	-1705.05	  371.69
     46.2700	  524.00	  493.44	-1700.44	  371.58
     46.3700	  487.00	  493.86	-1737.86	  371.46
     46.4700	  482.00	  494.35	-1743.35	  371.35
     46.5700	  472.00	  494.91	-1753.91	  371.24
     46.6700	  523.00	  495.58	-1703.58	  371.13
     46.7700	  480.00	  496.36	-1747.36	  371.03
     46.8700	  500.00	  497.33	-1728.33	  370.92
     46.9700	  495.00	  498.56	-1734.56	  370.82
     47.0700	  528.00	  500.27	-1703.27	  370.72
     47.1700	  536.00	  502.78	-1697.78	  370.62
     47.2700	  479.00	  506.65	-1758.65	  370.52
     47.3700	  524.00	  512.57	-1719.57	  370.43
     47.4700	  505.00	  521.28	-1747.28	  370.33
     47.5700	  551.00	  533.18	-1713.18	  370.24
     47.6700	  553.00	  547.87	-1725.87	  370.15
     47.7700	  586.00	  563.64	-1708.64	  370.07
     47.8700	  553.00	  577.17	-1755.17	  369.98
     47.9700	  547.00	  584.20	-1768.20	  369.90
     48.0700	  554.00	  582.12	-1759.12	  369.82
     48.1700	  526.00	  572.61	-1777.61	  369.74
     48.2700	  551.00	  560.14	-1740.14	  369.66
     48.3700	  516.00	  548.55	-1763.55	  369.58
     48.4700	  529.00	  540.30	-1742.30	  369.51
     48.5700	  541.00	  535.29	-1725.29	  369.43
     48.6700	  494.00	  533.73	-1770.73	  369.36
     48.7700	  485.00	  535.05	-1781.05	  369.30
     48.8700	  499.00	  538.74	-1770.74	  369.23
     48.9700	  544.00	  544.54	-1731.54	  369.16
     49.0700	  523.00	  552.64	-1760.64	  369.10
     49.1700	  541.00	  563.89	-1753.89	  369.04
     49.2700	  568.00	  580.23	-1743.23	  368.98
     49.3700	  579.00	  605.51	-1757.51	  368.92
     49.4700	  627.00	  646.55	-1750.55	  368.87
     49.5700	  665.00	  713.92	-1779.92	  368.81
     49.6700	  722.00	  821.48	-1830.48	  368.76
     49.7700	  898.00	  983.44	-1816.44	  368.71
     49.8700	 1129.00	 1208.14	-1810.14	  368.66
     49.9700	 1424.00	 1489.72	-1796.72	  368.62
     50.0700	 1838.00	 1798.96	-1691.96	  368.57
     50.1700	 2230.00	 2076.16	-1577.16	  368.53
     50.2700	 2347.00	 2237.78	-1621.78	  368.49
     50.3700	 2314.00	 2216.98	-1633.98	  368.45
     50.4700	 2047.00	 2021.86	-1705.86	  368.41
     50.5700	 1729.00	 1730.38	-1732.38	  368.37
     50.6700	 1387.00	 1426.24	-1770.24	  368.34
     50.7700	 1106.00	 1162.27	-1787.27	  368.31
     50.8700	  850.00	  960.87	-1841.87	  368.28
     50.9700	  761.00	  822.67	-1792.67	  368.25
     51.0700	  686.00	  735.59	-1780.59	  368.22
     51.1700	  619.00	  683.08	-1795.08	  368.19
     51.2700	  636.00	  649.08	-1744.08	  368.17
     51.3700	  575.00	  623.68	-1779.68	  368.15
     51.4700	  586.00	  602.49	-1747.49	  368.13
     51.5700	  567.00	  584.52	-1748.52	  368.11
     51.6700	  546.00	  569.81	-1754.81	  368.09
     51.7700	  533.00	  558.38	-1756.38	  368.08
     51.8700	  575.00	  550.03	-1706.03	  368.06
     51.9700	  538.00	  544.30	-1737.30	  368.05
     52.0700	  506.00	  540.71	-1765.71	  368.04
     52.1700	  538.00	  538.81	-1731.81	  368.03
     52.2700	  633.00	  538.35	-1636.35	  368.03
     52.3700	  548.00	  539.28	-1722.28	  368.02
     52.4700	  525.00	  541.88	-1747.88	  368.02
     52.5700	  563.00	  546.92	-1714.92	  368.02
     52.6700	  589.00	  555.94	-1697.94	  368.02
     52.7700	  570.00	  571.57	-1732.57	  368.02
     52.8700	  623.00	  597.74	-1705.74	  368.02
     52.9700	  660.00	  639.36	-1710.36	  368.03
     53.0700	  710.00	  701.23	-1722.23	  368.03
     53.1700	  821.00	  785.88	-1695.88	  368.04
     53.2700	  852.00	  890.98	-1769.98	  368.05
     53.3700	 1048.00	 1006.44	-1689.44	  368.06
     53.4700	 1120.00	 1112.37	-1723.37	  368.07
     53.5700	 1181.00	 1180.45	-1730.45	  368.09
     53.6700	 1191.00	 1185.58	-1725.58	  368.10
     53.7700	 1100.00	 1125.24	-1756.24	  368.12
     53.8700	  956.00	 1022.46	-1797.46	  368.14
     53.9700	  870.00	  906.85	-1767.85	  368.16
     54.0700	  771.00	  799.92	-1759.92	  368.18
     54.1700	  739.00	  712.81	-1704.81	  368.20
     54.2700	  678.00	  648.65	-1701.65	  368.23
     54.3700	  618.00	  605.33	-1718.33	  368.25
     54.4700	  581.00	  578.17	-1728.17	  368.28
     54.5700	  571.00	  562.13	-1722.13	  368.31
     54.6700	  588.00	  553.11	-1696.11	  368.34
     54.7700	  597.00	  548.28	-1682.28	  368.37
     54.8700	  564.00	  545.99	-1712.99	  368.41
     54.9700	  619.00	  545.34	-1657.34	  368.44
     55.0700	  571.00	  545.92	-1705.92	  368.48
     55.1700	  585.00	  547.57	-1693.57	  368.52
     55.2700	  577.00	  550.25	-1704.25	  368.56
     55.3700	  599.00	  554.04	-1686.04	  368.60
     55.4700	  536.00	  559.11	-1754.11	  368.64
     55.5700	  566.00	  565.75	-1730.75	  368.68
     55.6700	  566.00	  574.57	-1739.57	  368.73
     55.7700	  545.00	  586.68	-1772.68	  368.77
     55.8700	  585.00	  604.23	-1750.23	  368.82
     55.9700	  610.00	  631.06	-1752.06	  368.87
     56.0700	  662.00	  673.66	-1742.66	  368.92
     56.1700	  707.00	  741.54	-1765.54	  368.97
     56.2700	  796.00	  847.02	-1782.02	  369.03
     56.3700	  941.00	 1003.05	-1793.05	  369.08
     56.4700	 1183.00	 1219.08	-1767.08	  369.13
     56.5700	 1438.00	 1495.02	-1788.02	  369.19
     56.6700	 1797.00	 1815.08	-1749.08	  369.25
     56.7700	 2061.00	 2141.88	-1811.88	  369.31
     56.8700	 2386.00	 2413.70	-1758.70	  369.37
     56.9700	 2527.00	 2555.38	-1759.38	  369.43
     57.0700	 2437.00	 2516.29	-1810.29	  369.49
     57.1700	 2320.00	 2311.12	-1722.12	  369.56
     57.2700	 1953.00	 2007.83	-1785.83	  369.62
     57.3700	 1698.00	 1679.88	-1712.88	  369.69
     57.4700	 1379.00	 1378.71	-1730.71	  369.76
     57.5700	 1110.00	 1131.72	-1752.72	  369.83
     57.6700	  947.00	  947.20	-1731.20	  369.90
     57.7700	  823.00	  820.65	-1728.65	  369.97
     57.8700	  748.00	  741.18	-1724.18	  370.04
     57.9700	  743.00	  696.80	-1684.80	  370.12
     58.0700	  700.00	  677.91	-1708.91	  370.19
     58.1700	  675.00	  678.42	-1734.42	  370.27
     58.2700	  692.00	  695.39	-1734.39	  370.34
     58.3700	  729.00	  727.80	-1729.80	  370.42
     58.4700	  813.00	  775.15	-1693.15	  370.50
     58.5700	  855.00	  835.95	-1711.95	  370.58
     58.6700	  936.00	  906.41	-1701.41	  370.66
     58.7700	 1049.00	  979.82	-1661.82	  370.75
     58.8700	 1150.00	 1048.37	-1629.37	  370.83
     58.9700	 1192.00	 1106.48	-1645.48	  370.91
     59.0700	 1308.00	 1150.91	-1573.91	  371.00
     59.1700	 1256.00	 1177.51	-1652.51	  371.09
     59.2700	 1359.00	 1182.45	-1554.45	  371.17
     59.3700	 1314.00	 1168.40	-1585.40	  371.26
     59.4700	 1251.00	 1145.48	-1625.48	  371.35
     59.5700	 1244.00	 1124.64	-1611.64	  371.44
     59.6700	 1242.00	 1113.45	-1602.45	  371.53
     59.7700	 1175.00	 1117.98	-1673.98	  371.62
     59.8700	 1210.00	 1144.71	-1665.71	  371.72
     59.9700	 1286.00	 1197.61	-1642.61	  371.81
     60.0700	 1312.00	 1273.04	-1692.04	  371.91
     60.1700	 1383.00	 1357.29	-1705.29	  372.00
     60.2700	 1470.00	 1426.72	-1687.72	  372.10
     60.3700	 1523.00	 1453.26	-1661.26	  372.20
     60.4700	 1475.00	 1418.50	-1674.50	  372.30
     60.5700	 1321.00	 1326.77	-1736.77	  372.40
     60.6700	 1193.00	 1200.72	-1738.72	  372.50
     60.7700	 1119.00	 1065.66	-1677.66	  372.60
     60.8700	  967.00	  940.46	-1704.46	  372.70
     60.9700	  802.00	  836.19	-1765.19	  372.80
     61.0700	  731.00	  757.62	-1757.62	  372.90
     61.1700	  647.00	  705.15	-1789.15	  373.01
     61.2700	  625.00	  677.05	-1783.05	  373.11
     61.3700	  638.00	  671.47	-1764.47	  373.22
     61.4700	  658.00	  687.81	-1760.81	  373.33
     61.5700	  741.00	  726.97	-1716.97	  373.43
     61.6700	  777.00	  790.48	-1744.48	  373.54
     61.7700	  889.00	  878.92	-1720.92	  373.65
     61.8700	  984.00	  989.69	-1736.69	  373.76
     61.9700	 1045.00	 1115.19	-1801.19	  373.87
     62.0700	 1249.00	 1241.16	-1723.16	  373.98
     62.1700	 1312.00	 1346.05	-1765.05	  374.09
     62.2700	 1334.00	 1404.46	-1801.46	  374.20
     62.3700	 1290.00	 1398.13	-1839.13	  374.32
     62.4700	 1242.00	 1328.49	-1817.49	  374.43
     62.5700	 1186.00	 1215.69	-1760.69	  374.54
     62.6700	  985.00	 1085.12	-1831.12	  374.66
     62.7700	  840.00	  957.16	-1848.16	  374.77
     62.8700	  798.00	  844.76	-1777.76	  374.89
     62.9700	  721.00	  754.11	-1764.11	  375.00
     63.0700	  583.00	  686.22	-1834.22	  375.12
     63.1700	  623.00	  638.67	-1746.67	  375.24
     63.2700	  578.00	  607.35	-1760.35	  375.35
     63.3700	  585.00	  588.02	-1734.02	  375.47
     63.4700	  606.00	  577.13	-1702.13	  375.59
     63.5700	  603.00	  572.41	-1700.41	  375.71
     63.6700	  584.00	  572.84	-1719.84	  375.83
     63.7700	  578.00	  578.45	-1731.45	  375.95
     63.8700	  591.00	  590.21	-1730.21	  376.07
     63.9700	  594.00	  609.57	-1746.57	  376.19
     64.0700	  694.00	  638.09	-1675.09	  376.31
     64.1700	  729.00	  676.83	-1678.83	  376.43
     64.2700	  781.00	  725.53	-1675.53	  376.56
     64.3700	  779.00	  782.18	-1734.18	  376.68
     64.4700	  917.00	  842.25	-1656.25	  376.80
     64.5700	  936.00	  898.42	-1693.42	  376.92
     64.6700	 1017.00	  941.43	-1655.43	  377.05
     64.7700	  974.00	  963.02	-1720.02	  377.17
     64.8700	 1001.00	  959.70	-1689.70	  377.29
     64.9700	 1015.00	  933.77	-1649.77	  377.42
     65.0700	  921.00	  891.25	-1701.25	  377.54
     65.1700	  832.00	  841.23	-1740.23	  377.67
     65.2700	  842.00	  790.59	-1679.59	  377.79
     65.3700	  729.00	  744.20	-1746.20	  377.92
     65.4700	  675.00	  703.78	-1759.78	  378.05
     65.5700	  687.00	  669.60	-1713.60	  378.17
     65.6700	  640.00	  641.19	-1732.19	  378.30
     65.7700	  582.00	  618.18	-1767.18	  378.42
     65.8700	  595.00	  600.14	-1736.14	  378.55
     65.9700	  558.00	  586.52	-1759.52	  378.68
     66.0700	  599.00	  576.73	-1708.73	  378.80
     66.1700	  538.00	  570.21	-1763.21	  378.93
     66.2700	  589.00	  566.47	-1708.47	  379.06
     66.3700	  562.00	  565.13	-1734.13	  379.18
     66.4700	  564.00	  565.87	-1732.87	  379.31
     66.5700	  561.00	  568.67	-1738.67	  379.44
     66.6700	  574.00	  573.37	-1730.37	  379.57
     66.7700	  605.00	  580.54	-1706.54	  379.69
     66.8700	  579.00	  591.34	-1743.34	  379.82
     66.9700	  581.00	  607.29	-1757.29	  379.95
     67.0700	  623.00	  631.50	-1739.50	  380.08
     67.1700	  622.00	  668.35	-1777.35	  380.21
     67.2700	  681.00	  723.74	-1773.74	  380.33
     67.3700	  748.00	  804.69	-1787.69	  380.46
     67.4700	  917.00	  918.42	-1732.42	  380.59
     67.5700	 1067.00	 1070.34	-1734.34	  380.72
     67.6700	 1293.00	 1262.17	-1700.17	  380.84
     67.7700	 1491.00	 1489.30	-1729.30	  380.97
     67.8700	 1738.00	 1738.79	-1731.79	  381.10
     67.9700	 2040.00	 1987.58	-1678.58	  381.23
     68.0700	 2204.00	 2202.23	-1729.23	  381.35
     68.1700	 2316.00	 2342.67	-1757.67	  381.48
     68.2700	 2399.00	 2375.28	-1707.28	  381.61
     68.3700	 2337.00	 2291.19	-1685.19	  381.73
     68.4700	 2082.00	 2112.42	-1761.42	  381.86
     68.5700	 1922.00	 1877.85	-1686.85	  381.99
     68.6700	 1638.00	 1625.62	-1718.62	  382.11
     68.7700	 1391.00	 1384.49	-1724.49	  382.24
     68.8700	 1130.00	 1172.75	-1773.75	  382.37
     68.9700	  982.00	  999.40	-1748.40	  382.49
     69.0700	  796.00	  865.86	-1800.86	  382.62
     69.1700	  746.00	  768.43	-1753.43	  382.74
     69.2700	  695.00	  700.40	-1736.40	  382.87
     69.3700	  632.00	  654.78	-1753.78	  382.99
     69.4700	  600.00	  624.84	-1755.84	  383.12
     69.5700	  621.00	  605.31	-1715.31	  383.24
     69.6700	  601.00	  592.48	-1722.48	  383.36
     69.7700	  583.00	  583.86	-1731.86	  383.49
     69.8700	  580.00	  577.96	-1728.96	  383.61
     69.9700	  592.00	  573.89	-1712.89	  383.73
     70.0700	  545.00	  571.19	-1757.19	  383.86
     70.1700	  595.00	  569.61	-1705.61	  383.98
     70.2700	  634.00	  569.03	-1666.03	  384.10
     70.3700	  545.00	  569.49	-1755.49	  384.22
     70.4700	  554.00	  571.08	-1748.08	  384.34
     70.5700	  539.00	  574.12	-1766.12	  384.46
     70.6700	  538.00	  579.14	-1772.14	  384.58
     70.7700	  617.00	  588.00	-1702.00	  384.70
     70.8700	  601.00	  600.37	-1730.37	  384.82
     70.9700	  620.00	  619.43	-1730.43	  384.94
     71.0700	  646.00	  648.32	-1733.32	  385.06
     71.1700	  711.00	  691.04	-1711.04	  385.18
     71.2700	  745.00	  752.11	-1738.11	  385.29
     71.3700	  790.00	  835.96	-1776.96	  385.41
     71.4700	  937.00	  945.78	-1739.78	  385.53
     71.5700	 1082.00	 1082.34	-1731.34	  385.64
     71.6700	 1235.00	 1242.55	-1738.55	  385.76
     71.7700	 1456.00	 1418.35	-1693.35	  385.87
     71.8700	 1565.00	 1596.00	-1762.00	  385.99
     71.9700	 1773.00	 1755.59	-1713.59	  386.10
     72.0700	 1849.00	 1872.73	-1754.73	  386.21
     72.1700	 1882.00	 1924.15	-1773.15	  386.33
     72.2700	 1792.00	 1897.90	-1836.90	  386.44
     72.3700	 1756.00	 1800.26	-1775.26	  386.55
     72.4700	 1620.00	 1651.97	-1762.97	  386.66
     72.5700	 1480.00	 1477.93	-1728.93	  386.77
     72.6700	 1356.00	 1299.78	-1674.78	  386.88
     72.7700	 1131.00	 1133.26	-1733.26	  386.99
     72.8700	 1007.00	  988.03	-1712.03	  387.09
     72.9700	  924.00	  868.65	-1675.65	  387.20
     73.0700	  872.00	  775.42	-1634.42	  387.31
     73.1700	  767.00	  705.86	-1669.86	  387.41
     73.2700	  714.00	  655.91	-1672.91	  387.52
     73.3700	  623.00	  621.09	-1729.09	  387.62
     73.4700	  694.00	  597.27	-1634.27	  387.72
     73.5700	  624.00	  580.59	-1687.59	  387.83
     73.6700	  640.00	  569.55	-1660.55	  387.93
     73.7700	  585.00	  561.95	-1707.95	  388.03
     73.8700	  583.00	  556.71	-1704.71	  388.13
     73.9700	  622.00	  553.15	-1662.15	  388.23
     74.0700	  603.00	  550.88	-1678.88	  388.33
     74.1700	  557.00	  549.61	-1723.61	  388.42
     74.2700	  572.00	  549.13	-1708.12	  388.52
     74.3700	  590.00	  549.21	-1690.21	  388.62
     74.4700	  622.00	  549.60	-1658.60	  388.71
     74.5700	  635.00	  550.01	-1646.01	  388.81
     74.6700	  617.00	  550.11	-1664.11	  388.90
     74.7700	  621.00	  549.61	-1659.61	  388.99
     74.8700	  620.00	  548.38	-1659.38	  389.08
     74.9700	  664.00	  546.51	-1613.51	  389.17
     75.0700	  596.00	  544.30	-1679.30	  389.26
     75.1700	  632.00	  542.09	-1641.09	  389.35
     75.2700	  579.00	  540.28	-1692.28	  389.44
     75.3700	  598.00	  539.24	-1672.24	  389.52
     75.4700	  577.00	  539.37	-1693.37	  389.61
     75.5700	  566.00	  541.09	-1706.09	  389.69
     75.6700	  597.00	  544.82	-1678.82	  389.78
     75.7700	  545.00	  550.94	-1736.94	  389.86
     75.8700	  549.00	  559.93	-1741.93	  389.94
     75.9700	  609.00	  571.95	-1693.95	  390.02
     76.0700	  599.00	  587.00	-1719.00	  390.10
     76.1700	  609.00	  604.68	-1726.68	  390.18
     76.2700	  664.00	  624.18	-1691.18	  390.26
     76.3700	  675.00	  644.06	-1700.06	  390.33
     76.4700	  695.00	  662.65	-1698.65	  390.41
     76.5700	  654.00	  677.53	-1754.53	  390.48
     76.6700	  695.00	  686.30	-1722.30	  390.55
     76.7700	  690.00	  687.22	-1728.22	  390.63
     76.8700	  684.00	  680.05	-1727.05	  390.70
     76.9700	  659.00	  666.13	-1738.13	  390.77
     77.0700	  641.00	  647.84	-1737.84	  390.83
     77.1700	  572.00	  627.52	-1786.52	  390.90
     77.2700	  622.00	  607.17	-1716.17	  390.97
     77.3700	  573.00	  588.24	-1746.24	  391.03
     77.4700	  589.00	  571.66	-1713.66	  391.10
     77.5700	  502.00	  557.86	-1786.86	  391.16
     77.6700	  550.00	  546.90	-1727.90	  391.22
     77.7700	  477.00	  538.56	-1792.56	  391.28
     77.8700	  473.00	  532.25	-1790.25	  391.34
     77.9700	  506.00	  527.90	-1752.90	  391.40
     78.0700	  505.00	  524.90	-1750.90	  391.45
     78.1700	  511.00	  522.84	-1742.84	  391.51
     78.2700	  501.00	  521.45	-1751.45	  391.56
     78.3700	  520.00	  520.51	-1731.51	  391.61
     78.4700	  500.00	  519.88	-1750.88	  391.66
     78.5700	  526.00	  519.46	-1724.46	  391.71
     78.6700	  466.00	  519.21	-1784.21	  391.76
     78.7700	  523.00	  519.09	-1727.09	  391.81
     78.8700	  521.00	  519.11	-1729.11	  391.86
     78.9700	  562.00	  519.26	-1688.26	  391.90
     79.0700	  486.00	  519.57	-1764.57	  391.94
     79.1700	  519.00	  520.06	-1732.06	  391.98
     79.2700	  518.00	  520.76	-1733.76	  392.03
     79.3700	  516.00	  521.72	-1736.72	  392.06
     79.4700	  533.00	  522.97	-1720.97	  392.10
     79.5700	  533.00	  524.56	-1722.56	  392.14
     79.6700	  483.00	  526.55	-1774.55	  392.17
     79.7700	  528.00	  529.02	-1732.02	  392.21
     79.8700	  514.00	  532.05	-1749.05	  392.24
     79.9700	  540.00	  535.76	-1726.76	  392.27
     80.0700	  498.00	  540.27	-1773.27	  392.30
     80.1700	  539.00	  545.78	-1737.78	  392.33
     80.2700	  523.00	  552.49	-1760.49	  392.35
     80.3700	  494.00	  560.47	-1797.47	  392.38
     80.4700	  566.00	  570.40	-1735.40	  392.40
     80.5700	  556.00	  582.27	-1757.27	  392.42
     80.6700	  579.00	  596.13	-1748.13	  392.45
     80.7700	  640.00	  611.76	-1702.76	  392.46
     80.8700	  618.00	  628.68	-1741.68	  392.48
     80.9700	  685.00	  646.09	-1692.09	  392.50
     81.0700	  666.00	  662.96	-1727.96	  392.51
     81.1700	  673.00	  678.19	-1736.19	  392.53
     81.2700	  691.00	  690.78	-1730.78	  392.54
     81.3700	  766.00	  700.01	-1665.01	  392.55
     81.4700	  688.00	  705.36	-1748.36	  392.56
     81.5700	  777.00	  706.57	-1660.57	  392.56
     81.6700	  749.00	  703.64	-1685.64	  392.57
     81.7700	  695.00	  696.80	-1732.80	  392.57
     81.8700	  696.00	  686.41	-1721.41	  392.58
     81.9700	  703.00	  673.11	-1701.11	  392.58
     82.0700	  675.00	  657.76	-1713.76	  392.58
     82.1700	  686.00	  641.43	-1686.43	  392.58
     82.2700	  664.00	  625.10	-1692.10	  392.57
     82.3700	  628.00	  609.50	-1712.50	  392.57
     82.4700	  606.00	  595.11	-1720.11	  392.56
     82.5700	  598.00	  582.19	-1715.19	  392.55
     82.6700	  589.00	  570.89	-1712.89	  392.54
     82.7700	  538.00	  561.33	-1754.33	  392.53
     82.8700	  551.00	  553.55	-1733.55	  392.52
     82.9700	  559.00	  547.54	-1719.54	  392.50
     83.0700	  492.00	  543.26	-1782.26	  392.48
     83.1700	  571.00	  540.61	-1700.61	  392.47
     83.2700	  582.00	  539.48	-1688.48	  392.45
     83.3700	  530.00	  539.75	-1740.75	  392.43
     83.4700	  506.00	  541.17	-1766.17	  392.40
     83.5700	  549.00	  543.66	-1725.66	  392.38
     83.6700	  511.00	  546.90	-1766.90	  392.35
     83.7700	  532.00	  550.52	-1749.52	  392.32
     83.8700	  545.00	  554.20	-1740.20	  392.29
     83.9700	  525.00	  557.44	-1763.44	  392.26
     84.0700	  553.00	  559.76	-1737.76	  392.23
     84.1700	  515.00	  560.76	-1776.76	  392.19
     84.2700	  531.00	  560.19	-1760.19	  392.16
     84.3700	  563.00	  558.08	-1726.08	  392.12
     84.4700	  558.00	  554.70	-1727.70	  392.08
     84.5700	  547.00	  550.46	-1734.46	  392.04
     84.6700	  567.00	  545.78	-1709.78	  392.00
     84.7700	  525.00	  541.03	-1747.03	  391.95
     84.8700	  551.00	  536.49	-1716.49	  391.91
     84.9700	  529.00	  532.38	-1734.38	  391.86
     85.0700	  504.00	  528.81	-1755.81	  391.81
     85.1700	  553.00	  525.86	-1703.86	  391.76
     85.2700	  527.00	  523.52	-1727.52	  391.70
     85.3700	  511.00	  521.75	-1741.75	  391.65
     85.4700	  519.00	  520.50	-1732.50	  391.59
     85.5700	  539.00	  519.70	-1711.70	  391.53
     85.6700	  513.00	  519.29	-1737.29	  391.47
     85.7700	  503.00	  519.24	-1747.24	  391.41
     85.8700	  501.00	  519.52	-1749.52	  391.35
     85.9700	  501.00	  520.17	-1750.17	  391.28
     86.0700	  529.00	  521.24	-1723.24	  391.21
     86.1700	  511.00	  522.82	-1742.82	  391.15
     86.2700	  513.00	  525.02	-1743.02	  391.07
     86.3700	  552.00	  528.00	-1707.00	  391.00
     86.4700	  575.00	  531.90	-1687.90	  390.93
     86.5700	  524.00	  536.87	-1743.87	  390.85
     86.6700	  544.00	  543.03	-1730.03	  390.77
     86.7700	  543.00	  550.43	-1738.43	  390.70
     86.8700	  507.00	  559.03	-1783.03	  390.61
     86.9700	  545.00	  568.66	-1754.66	  390.53
     87.0700	  556.00	  579.04	-1754.04	  390.45
     87.1700	  565.00	  589.70	-1755.70	  390.36
     87.2700	  584.00	  600.02	-1747.02	  390.27
     87.3700	  549.00	  609.24	-1791.24	  390.18
     87.4700	  640.00	  616.52	-1707.52	  390.09
     87.5700	  662.00	  621.05	-1690.05	  390.00
     87.6700	  666.00	  622.31	-1687.31	  389.90
     87.7700	  635.00	  620.20	-1716.20	  389.81
     87.8700	  597.00	  615.13	-1749.13	  389.71
     87.9700	  613.00	  607.86	-1725.86	  389.61
     88.0700	  593.00	  599.31	-1737.31	  389.50
     88.1700	  586.00	  590.01	-1735.01	  389.40
     88.2700	  626.00	  581.54	-1686.54	  389.29
     88.3700	  613.00	  574.17	-1692.17	  389.19
     88.4700	  542.00	  568.43	-1757.43	  389.08
     88.5700	  554.00	  564.66	-1741.66	  388.97
     88.6700	  566.00	  563.01	-1728.01	  388.85
     88.7700	  557.00	  563.49	-1737.49	  388.74
     88.8700	  599.00	  565.93	-1697.93	  388.62
     88.9700	  565.00	  570.02	-1736.02	  388.51
     89.0700	  618.00	  575.33	-1688.33	  388.39
     89.1700	  593.00	  581.30	-1719.30	  388.26
     89.2700	  610.00	  587.29	-1708.29	  388.14
     89.3700	  620.00	  592.60	-1703.60	  388.02
     89.4700	  600.00	  596.51	-1727.51	  387.89
     89.5700	  594.00	  598.42	-1735.42	  387.76
     89.6700	  599.00	  597.96	-1729.96	  387.63
     89.7700	  591.00	  595.12	-1735.12	  387.50
     89.8700	  601.00	  590.19	-1720.19	  387.36
     89.9700	  529.00	  583.70	-1785.70	  387.23
     90.0700	  610.00	  576.25	-1697.25	  387.09
     90.1700	  533.00	  568.40	-1766.40	  386.95
     90.2700	  533.00	  560.61	-1758.61	  386.81
     90.3700	  523.00	  553.26	-1761.26	  386.67
     90.4700	  544.00	  546.62	-1733.62	  386.53
     90.5700	  524.00	  540.84	-1747.84	  386.38
     90.6700	  502.00	  536.01	-1765.01	  386.23
     90.7700	  533.00	  532.13	-1730.13	  386.08
     90.8700	  537.00	  529.14	-1723.14	  385.93
     90.9700	  553.00	  526.96	-1704.96	  385.78
     91.0700	  484.00	  525.50	-1772.50	  385.62
     91.1700	  503.00	  524.66	-1752.66	  385.47
     91.2700	  533.00	  524.38	-1722.38	  385.31
     91.3700	  501.00	  524.61	-1754.61	  385.15
     91.4700	  530.00	  525.36	-1726.36	  384.99
     91.5700	  509.00	  526.64	-1748.64	  384.83
     91.6700	  474.00	  528.54	-1785.54	  384.66
     91.7700	  484.00	  531.17	-1778.17	  384.50
     91.8700	  511.00	  534.66	-1754.66	  384.33
     91.9700	  516.00	  539.19	-1754.19	  384.16
     92.0700	  534.00	  544.93	-1741.93	  383.99
     92.1700	  504.00	  552.04	-1779.04	  383.81
     92.2700	  535.00	  560.68	-1756.68	  383.64
     92.3700	  545.00	  570.95	-1756.95	  383.46
     92.4700	  596.00	  582.88	-1717.88	  383.29
     92.5700	  511.00	  596.41	-1816.41	  383.11
     92.6700	  589.00	  611.39	-1753.39	  382.92
     92.7700	  579.00	  627.55	-1779.55	  382.74
     92.8700	  646.00	  644.49	-1729.49	  382.56
     92.9700	  654.00	  661.68	-1738.68	  382.37
     93.0700	  694.00	  678.52	-1715.52	  382.18
     93.1700	  681.00	  694.35	-1744.35	  381.99
     93.2700	  733.00	  708.65	-1706.65	  381.80
     93.3700	  713.00	  720.84	-1738.84	  381.61
     93.4700	  741.00	  731.55	-1721.55	  381.42
     93.5700	  740.00	  740.83	-1731.83	  381.22
     93.6700	  827.00	  749.15	-1653.15	  381.02
     93.7700	  755.00	  756.96	-1732.96	  380.83
     93.8700	  839.00	  764.64	-1656.64	  380.63
     93.9700	  793.00	  772.52	-1710.52	  380.42
     94.0700	  842.00	  780.93	-1669.93	  380.22
     94.1700	  804.00	  790.22	-1717.22	  380.02
     94.2700	  845.00	  800.77	-1686.77	  379.81
     94.3700	  822.00	  812.76	-1721.76	  379.60
     94.4700	  830.00	  826.10	-1727.10	  379.39
     94.5700	  847.00	  840.31	-1724.31	  379.18
     94.6700	  886.00	  854.50	-1699.50	  378.97
     94.7700	  863.00	  867.39	-1735.39	  378.76
     94.8700	  899.00	  877.43	-1709.43	  378.54
     94.9700	  874.00	  883.04	-1740.04	  378.32
     95.0700	  884.00	  882.87	-1729.87	  378.11
     95.1700	  839.00	  876.20	-1768.20	  377.89
     95.2700	  907.00	  863.18	-1687.18	  377.66
     95.3700	  850.00	  844.76	-1725.76	  377.44
     95.4700	  858.00	  822.49	-1695.49	  377.22
     95.5700	  746.00	  798.16	-1783.16	  376.99
     95.6700	  790.00	  773.60	-1714.60	  376.77
     95.7700	  780.00	  750.55	-1701.55	  376.54
     95.8700	  683.00	  730.61	-1778.61	  376.31
     95.9700	  697.00	  715.20	-1749.20	  376.08
     96.0700	  743.00	  705.61	-1693.61	  375.85
     96.1700	  645.00	  702.94	-1788.94	  375.61
     96.2700	  683.00	  708.15	-1756.15	  375.38
     96.3700	  730.00	  722.01	-1723.01	  375.14
     96.4700	  770.00	  745.07	-1706.07	  374.90
     96.5700	  756.00	  777.64	-1752.64	  374.67
     96.6700	  800.00	  819.68	-1750.68	  374.43
     96.7700	  837.00	  870.80	-1764.80	  374.19
     96.8700	  925.00	  930.16	-1736.16	  373.94
     96.9700	  953.00	  996.38	-1774.38	  373.70
     97.0700	 1071.00	 1067.53	-1727.53	  373.45
     97.1700	 1098.00	 1141.06	-1774.06	  373.21
     97.2700	 1172.00	 1213.86	-1772.86	  372.96
     97.3700	 1279.00	 1282.25	-1734.25	  372.71
     97.4700	 1283.00	 1342.15	-1790.15	  372.46
     97.5700	 1404.00	 1389.43	-1716.43	  372.21
     97.6700	 1394.00	 1420.43	-1757.43	  371.96
     97.7700	 1483.00	 1432.74	-1680.74	  371.71
     97.8700	 1424.00	 1425.64	-1732.64	  371.45
     97.9700	 1378.00	 1400.33	-1753.33	  371.20
     98.0700	 1365.00	 1359.52	-1725.52	  370.94
     98.1700	 1274.00	 1306.82	-1763.82	  370.69
     98.2700	 1208.00	 1246.16	-1769.16	  370.43
     98.3700	 1177.00	 1181.40	-1735.40	  370.17
     98.4700	 1026.00	 1116.13	-1821.13	  369.91
     98.5700	 1070.00	 1053.53	-1714.53	  369.65
     98.6700	 1036.00	  996.32	-1691.32	  369.38
     98.7700	  910.00	  946.78	-1767.78	  369.12
     98.8700	  909.00	  906.76	-1728.76	  368.86
     98.9700	  877.00	  877.73	-1731.73	  368.59
     99.0700	  836.00	  860.81	-1755.81	  368.32
     99.1700	  820.00	  856.77	-1767.77	  368.06
     99.2700	  826.00	  866.15	-1771.15	  367.79
     99.3700	  909.00	  889.22	-1711.22	  367.52
     99.4700	  909.00	  925.99	-1747.99	  367.25
     99.5700	  943.00	  976.21	-1764.21	  366.98
     99.6700	 1035.00	 1039.38	-1735.38	  366.71
     99.7700	 1090.00	 1114.56	-1755.56	  366.44
     99.8700	 1172.00	 1200.43	-1759.43	  366.16
     99.9700	 1320.00	 1295.09	-1706.09	  365.89
    100.0700	 1411.00	 1396.12	-1716.12	  365.61
    100.1700	 1534.00	 1500.42	-1697.42	  365.34
    100.2700	 1612.00	 1604.33	-1723.33	  365.06
    100.3700	 1721.00	 1703.83	-1713.83	  364.79
    100.4700	 1883.00	 1794.78	-1642.78	  364.51
    100.5700	 1896.00	 1873.49	-1708.49	  364.23
    100.6700	 1988.00	 1936.99	-1679.99	  363.95
    100.7700	 1926.00	 1983.18	-1788.18	  363.67
    100.8700	 2012.00	 2010.73	-1729.73	  363.39
    100.9700	 2034.00	 2018.81	-1715.81	  363.11
    101.0700	 2004.00	 2007.10	-1734.10	  362.83
    101.1700	 2056.00	 1975.98	-1650.98	  362.55
    101.2700	 1918.00	 1926.89	-1739.89	  362.27
    101.3700	 1898.00	 1862.56	-1695.56	  361.98
    101.4700	 1694.00	 1786.86	-1823.86	  361.70
    101.5700	 1700.00	 1704.33	-1735.33	  361.42
    101.6700	 1642.00	 1619.57	-1708.57	  361.13
    101.7700	 1495.00	 1536.73	-1772.73	  360.85
    101.8700	 1496.00	 1459.15	-1694.15	  360.56
    101.9700	 1440.00	 1389.33	-1680.33	  360.28
    102.0700	 1278.00	 1328.72	-1781.72	  359.99
    102.1700	 1329.00	 1277.93	-1679.93	  359.71
    102.2700	 1238.00	 1236.69	-1729.69	  359.42
    102.3700	 1188.00	 1203.91	-1746.91	  359.13
    102.4700	 1186.00	 1177.92	-1722.92	  358.85
    102.5700	 1194.00	 1156.48	-1693.48	  358.56
    102.6700	 1143.00	 1137.16	-1725.16	  358.27
    102.7700	 1104.00	 1117.52	-1744.52	  357.98
    102.8700	 1065.00	 1095.48	-1761.48	  357.70
    102.9700	 1117.00	 1069.64	-1683.64	  357.41
    103.0700	  992.00	 1039.40	-1778.40	  357.12
    103.1700	  949.00	 1004.93	-1786.93	  356.83
    103.2700	  970.00	  966.96	-1727.96	  356.55
    103.3700	  916.00	  926.56	-1741.56	  356.26
    103.4700	  921.00	  884.92	-1694.92	  355.97
    103.5700	  882.00	  843.22	-1692.22	  355.68
    103.6700	  825.00	  802.51	-1708.51	  355.39
    103.7700	  781.00	  763.71	-1713.71	  355.10
    103.8700	  718.00	  727.53	-1740.53	  354.82
    103.9700	  684.00	  694.52	-1741.52	  354.53
    104.0700	  678.00	  665.03	-1718.03	  354.24
    104.1700	  623.00	  639.20	-1747.20	  353.95
    104.2700	  657.00	  617.03	-1691.03	  353.67
    104.3700	  625.00	  598.38	-1704.38	  353.38
    104.4700	  625.00	  583.01	-1689.01	  353.09
    104.5700	  610.00	  570.61	-1691.61	  352.80
    104.6700	  553.00	  560.83	-1738.83	  352.52
    104.7700	  538.00	  553.31	-1746.31	  352.23
    104.8700	  517.00	  547.70	-1761.70	  351.95
    104.9700	  557.00	  543.70	-1717.70	  351.66
    105.0700	  534.00	  541.01	-1738.01	  351.38
    105.1700	  546.00	  539.41	-1724.41	  351.09
    105.2700	  548.00	  538.71	-1721.71	  350.81
    105.3700	  589.00	  538.74	-1680.74	  350.52
    105.4700	  514.00	  539.42	-1756.42	  350.24
    105.5700	  530.00	  540.66	-1741.66	  349.96
    105.6700	  524.00	  542.43	-1749.43	  349.67
    105.7700	  529.00	  544.73	-1746.73	  349.39
    105.8700	  535.00	  547.62	-1743.62	  349.11
    105.9700	  571.00	  551.14	-1711.14	  348.83
    106.0700	  534.00	  555.37	-1752.37	  348.55
    106.1700	  528.00	  560.36	-1763.36	  348.27
    106.2700	  564.00	  566.20	-1733.20	  348.00
    106.3700	  578.00	  572.89	-1725.89	  347.72
    106.4700	  580.00	  580.43	-1731.43	  347.44
    106.5700	  586.00	  588.74	-1733.74	  347.17
    106.6700	  593.00	  597.69	-1735.69	  346.89
    106.7700	  599.00	  607.11	-1739.11	  346.62
    106.8700	  602.00	  616.81	-1745.81	  346.35
    106.9700	  623.00	  626.48	-1734.48	  346.07
    107.0700	  624.00	  635.83	-1742.83	  345.80
    107.1700	  664.00	  644.51	-1711.51	  345.53
    107.2700	  643.00	  652.19	-1740.19	  345.26
    107.3700	  679.00	  658.60	-1710.60	  345.00
    107.4700	  673.00	  663.52	-1721.52	  344.73
    107.5700	  640.00	  666.89	-1757.89	  344.46
    107.6700	  667.00	  668.80	-1732.80	  344.20
    107.7700	  674.00	  669.48	-1726.48	  343.94
    107.8700	  676.00	  669.26	-1724.26	  343.67
    107.9700	  711.00	  668.53	-1688.53	  343.41
    108.0700	  672.00	  667.63	-1726.63	  343.16
    108.1700	  675.00	  666.91	-1722.91	  342.90
    108.2700	  668.00	  666.59	-1729.59	  342.64
    108.3700	  685.00	  666.82	-1712.82	  342.39
    108.4700	  641.00	  667.65	-1757.65	  342.13
    108.5700	  671.00	  669.01	-1729.01	  341.88
    108.6700	  662.00	  670.75	-1739.75	  341.63
    108.7700	  675.00	  672.61	-1728.61	  341.38
    108.8700	  675.00	  674.27	-1730.27	  341.14
    108.9700	  700.00	  675.35	-1706.35	  340.89
    109.0700	  696.00	  675.45	-1710.45	  340.65
    109.1700	  668.00	  674.23	-1737.23	  340.40
    109.2700	  655.00	  671.44	-1747.44	  340.16
    109.3700	  689.00	  666.95	-1708.95	  339.93
    109.4700	  651.00	  660.78	-1740.78	  339.69
    109.5700	  691.00	  653.11	-1693.11	  339.45
    109.6700	  652.00	  644.19	-1723.19	  339.22
    109.7700	  606.00	  634.34	-1759.34	  338.99
    109.8700	  683.00	  623.90	-1671.90	  338.76
    109.9700	  632.00	  613.20	-1712.20	  338.54
    110.0700	  595.00	  602.53	-1738.53	  338.31
    110.1700	  605.00	  592.18	-1718.18	  338.09
    110.2700	  597.00	  582.35	-1716.35	  337.87
    110.3700	  540.00	  573.24	-1764.24	  337.65
    110.4700	  564.00	  564.98	-1731.98	  337.43
    110.5700	  560.00	  557.67	-1728.67	  337.22
    110.6700	  550.00	  551.34	-1732.34	  337.01
    110.7700	  563.00	  546.02	-1714.02	  336.80
    110.8700	  557.00	  541.68	-1715.68	  336.59
    110.9700	  544.00	  538.29	-1725.29	  336.39
    111.0700	  529.00	  535.78	-1737.78	  336.19
    111.1700	  587.00	  534.08	-1678.08	  335.99
    111.2700	  556.00	  533.09	-1708.09	  335.79
    111.3700	  535.00	  532.75	-1728.75	  335.60
    111.4700	  544.00	  532.97	-1719.97	  335.41
    111.5700	  540.00	  533.67	-1724.67	  335.22
    111.6700	  529.00	  534.78	-1736.78	  335.03
    111.7700	  566.00	  536.26	-1701.26	  334.85
    111.8700	  620.00	  538.05	-1649.05	  334.67
    111.9700	  561.00	  540.12	-1710.12	  334.49
    112.0700	  520.00	  542.43	-1753.43	  334.32
    112.1700	  552.00	  544.97	-1723.97	  334.15
    112.2700	  535.00	  547.74	-1743.74	  333.98
    112.3700	  516.00	  550.75	-1765.75	  333.81
    112.4700	  573.00	  554.00	-1712.00	  333.65
    112.5700	  555.00	  557.54	-1733.54	  333.49
    112.6700	  569.00	  561.39	-1723.39	  333.34
    112.7700	  560.00	  565.61	-1736.61	  333.18
    112.8700	  605.00	  570.27	-1696.27	  333.04
    112.9700	  583.00	  575.45	-1723.45	  332.89
    113.0700	  627.00	  581.26	-1685.26	  332.75
    113.1700	  606.00	  587.84	-1712.84	  332.61
    113.2700	  603.00	  595.36	-1723.36	  332.47
    113.3700	  584.00	  604.05	-1751.05	  332.34
    113.4700	  600.00	  614.19	-1745.19	  332.21
    113.5700	  636.00	  626.14	-1721.14	  332.09
    113.6700	  637.00	  640.37	-1734.37	  331.96
    113.7700	  691.00	  657.43	-1697.43	  331.85
    113.8700	  698.00	  678.03	-1711.03	  331.73
    113.9700	  655.00	  703.01	-1779.01	  331.62
    114.0700	  715.00	  733.38	-1749.38	  331.52
    114.1700	  815.00	  770.33	-1686.33	  331.41
    114.2700	  801.00	  815.28	-1745.28	  331.32
    114.3700	  903.00	  869.80	-1697.80	  331.22
    114.4700	  927.00	  935.66	-1739.66	  331.13
    114.5700	 1089.00	 1014.79	-1656.79	  331.05
    114.6700	 1195.00	 1109.27	-1645.27	  330.96
    114.7700	 1228.00	 1221.25	-1724.25	  330.89
    114.8700	 1355.00	 1352.86	-1728.86	  330.81
    114.9700	 1538.00	 1506.14	-1699.14	  330.74
    115.0700	 1788.00	 1682.95	-1625.95	  330.68
    115.1700	 1899.00	 1884.81	-1716.81	  330.62
    115.2700	 2241.00	 2112.83	-1602.83	  330.56
    115.3700	 2552.00	 2367.45	-1546.45	  330.51
    115.4700	 2711.00	 2648.40	-1668.40	  330.46
    115.5700	 3023.00	 2954.52	-1662.52	  330.42
    115.6700	 3357.00	 3283.77	-1657.77	  330.38
    115.7700	 3690.00	 3633.10	-1674.10	  330.35
    115.8700	 4089.00	 3998.25	-1640.25	  330.32
    115.9700	 4243.00	 4373.86	-1861.86	  330.30
    116.0700	 4779.00	 4753.43	-1705.43	  330.28
    116.1700	 5136.00	 5129.46	-1724.46	  330.27
    116.2700	 5222.00	 5493.44	-2002.44	  330.26
    116.3700	 5668.00	 5835.89	-1898.89	  330.26
    116.4700	 6065.00	 6146.76	-1812.76	  330.26
    116.5700	 6339.00	 6415.74	-1807.74	  330.27
    116.6700	 6633.00	 6632.97	-1730.97	  330.28
    116.7700	 6721.00	 6789.71	-1799.71	  330.30
    116.8700	 6770.00	 6879.16	-1840.16	  330.32
    116.9700	 6924.00	 6897.37	-1704.37	  330.35
    117.0700	 6712.00	 6843.73	-1862.73	  330.38
    117.1700	 6547.00	 6721.03	-1905.03	  330.42
    117.2700	 6504.00	 6535.05	-1762.05	  330.47
    117.3700	 6217.00	 6293.90	-1807.90	  330.52
    117.4700	 5920.00	 6007.12	-1818.12	  330.58
    117.5700	 5579.00	 5684.92	-1836.92	  330.64
    117.6700	 5145.00	 5337.32	-1923.32	  330.71
    117.7700	 4986.00	 4973.84	-1718.84	  330.78
    117.8700	 4569.00	 4603.30	-1765.30	  330.86
    117.9700	 4432.00	 4233.49	-1532.49	  330.95
    118.0700	 4082.00	 3871.17	-1520.17	  331.04
    118.1700	 3586.00	 3521.85	-1666.85	  331.14
    118.2700	 3340.00	 3189.93	-1580.93	  331.24
    118.3700	 2922.00	 2878.85	-1687.85	  331.35
    118.4700	 2678.00	 2590.93	-1643.93	  331.47
    118.5700	 2421.00	 2327.63	-1637.63	  331.59
    118.6700	 2170.00	 2089.47	-1650.47	  331.72
    118.7700	 1874.00	 1876.26	-1733.26	  331.86
    118.8700	 1683.00	 1687.31	-1735.31	  332.00
    118.9700	 1514.00	 1521.41	-1738.41	  332.15
    119.0700	 1347.00	 1377.01	-1761.01	  332.30
    119.1700	 1261.00	 1252.30	-1722.30	  332.47
    119.2700	 1153.00	 1145.34	-1723.34	  332.64
    119.3700	 1032.00	 1054.18	-1753.18	  332.81
    119.4700	 1043.00	  976.89	-1664.89	  333.00
    119.5700	  874.00	  911.65	-1768.65	  333.19
    119.6700	  840.00	  856.73	-1747.73	  333.38
    119.7700	  783.00	  810.60	-1758.60	  333.59
    119.8700	  766.00	  771.90	-1736.90	  333.80
    119.9700	  698.00	  739.44	-1772.44	  334.02
    120.0700	  685.00	  712.20	-1758.20	  334.24
    120.1700	  683.00	  689.32	-1737.32	  334.48
    120.2700	  643.00	  670.06	-1758.06	  334.72
    120.3700	  654.00	  653.85	-1730.85	  334.97
    120.4700	  574.00	  640.18	-1797.18	  335.22
    120.5700	  591.00	  628.67	-1768.67	  335.49
    120.6700	  608.00	  619.00	-1742.00	  335.76
    120.7700	  580.00	  610.90	-1761.90	  336.04
    120.8700	  593.00	  604.17	-1742.17	  336.33
    120.9700	  570.00	  598.64	-1759.64	  336.62
    121.0700	  587.00	  594.20	-1738.20	  336.93
    121.1700	  542.00	  590.72	-1779.72	  337.24
    121.2700	  552.00	  588.13	-1767.13	  337.56
    121.3700	  549.00	  586.35	-1768.35	  337.88
    121.4700	  561.00	  585.32	-1755.32	  338.22
    121.5700	  534.00	  584.98	-1781.98	  338.56
    121.6700	  594.00	  585.28	-1722.28	  338.92
    121.7700	  583.00	  586.17	-1734.17	  339.28
    121.8700	  580.00	  587.59	-1738.59	  339.65
    121.9700	  565.00	  589.47	-1755.47	  340.03
    122.0700	  633.00	  591.76	-1689.76	  340.41
    122.1700	  592.00	  594.38	-1733.38	  340.81
    122.2700	  607.00	  597.25	-1721.25	  341.22
    122.3700	  627.00	  600.29	-1704.29	  341.63
    122.4700	  587.00	  603.41	-1747.41	  342.05
    122.5700	  634.00	  606.51	-1703.51	  342.48
    122.6700	  668.00	  609.50	-1672.50	  342.93
    122.7700	  649.00	  612.25	-1694.25	  343.38
    122.8700	  622.00	  614.69	-1723.69	  343.84
    122.9700	  581.00	  616.71	-1766.71	  344.31
    123.0700	  571.00	  618.25	-1778.25	  344.78
    123.1700	  586.00	  619.23	-1764.23	  345.27
    123.2700	  657.00	  619.63	-1693.63	  345.77
    123.3700	  610.00	  619.42	-1740.42	  346.28
    123.4700	  630.00	  618.64	-1719.64	  346.79
    123.5700	  602.00	  617.31	-1746.31	  347.32
    123.6700	  622.00	  615.49	-1724.49	  347.86
    123.7700	  619.00	  613.24	-1725.24	  348.40
    123.8700	  626.00	  610.61	-1715.61	  348.96
    123.9700	  651.00	  607.69	-1687.69	  349.53
    124.0700	  580.00	  604.55	-1755.55	  350.11
    124.1700	  602.00	  601.26	-1730.26	  350.69
    124.2700	  642.00	  597.88	-1686.88	  351.29
    124.3700	  555.00	  594.48	-1770.48	  351.90
    124.4700	  620.00	  591.10	-1702.10	  352.52
    124.5700	  590.00	  587.82	-1728.82	  353.15
    124.6700	  581.00	  584.67	-1734.67	  353.79
    124.7700	  624.00	  581.68	-1688.68	  354.44
    124.8700	  595.00	  578.88	-1714.88	  355.10
    124.9700	  628.00	  465.86	-1568.86	  355.78
    125.0700	  613.00	  466.55	-1731.00	  356.46
    125.1700	  534.00	  467.24	-1731.00	  357.16
    125.2700	  589.00	  467.95	-1731.00	  357.86
    125.3700	  568.00	  468.67	-1731.00	  358.58
    125.4700	  567.00	  469.39	-1731.00	  359.31
    125.5700	  554.00	  470.13	-1731.00	  360.05
    125.6700	  542.00	  470.89	-1731.00	  360.80
    125.7700	  588.00	  471.65	-1731.00	  361.56
    125.8700	  605.00	  472.43	-1731.00	  362.34
    125.9700	  553.00	  473.21	-1731.00	  363.13
    126.0700	  562.00	  474.01	-1731.00	  363.93
    126.1700	  559.00	  474.82	-1731.00	  364.74
    126.2700	  581.00	  475.65	-1731.00	  365.56
    126.3700	  571.00	  476.48	-1731.00	  366.39
    126.4700	  552.00	  477.33	-1731.00	  367.24
    126.5700	  549.00	  478.19	-1731.00	  368.10
    126.6700	  603.00	  479.06	-1731.00	  368.97
    126.7700	  559.00	  479.94	-1731.00	  369.86
    126.8700	  562.00	  480.84	-1731.00	  370.75
    126.9700	  608.00	  481.75	-1731.00	  371.66
    127.0700	  573.00	  482.67	-1731.00	  372.59
    127.1700	  574.00	  483.61	-1731.00	  373.52
    127.2700	  605.00	  484.56	-1731.00	  374.47
    127.3700	  628.00	  485.52	-1731.00	  375.43
    127.4700	  560.00	  486.49	-1731.00	  376.41
    127.5700	  615.00	  487.48	-1731.00	  377.39
    127.6700	  655.00	  488.48	-1731.00	  378.39
    127.7700	  629.00	  489.49	-1731.00	  379.41
    127.8700	  624.00	  490.52	-1731.00	  380.43
    127.9700	  672.00	  491.56	-1731.00	  381.48
    128.0700	  675.00	  492.62	-1731.00	  382.53
    128.1700	  696.00	  493.69	-1731.00	  383.60
    128.2700	  682.00	  494.77	-1731.00	  384.68
    128.3700	  713.00	  495.86	-1731.00	  385.78
    128.4700	  731.00	  496.97	-1731.00	  386.89
    128.5700	    0.00	  498.10	-1731.00	  388.01
    128.6700	    0.00	  499.24	-1731.00	  389.15
     12.3289	        	        	        	        	       0	(  0  0  2)	  0  1
     24.9287	        	        	        	        	       0	(  0  0  4)	  0  1
     28.3815	        	        	        	        	       0	(  1  0  0)	  0  1
     29.0795	        	        	        	        	       0	(  1  0  1)	  0  1
     31.0881	        	        	        	        	       0	(  1  0  2)	  0  1
     34.2003	        	        	        	        	       0	(  1  0  3)	  0  1
     37.8457	        	        	        	        	       0	(  0  0  6)	  0  1
     38.1825	        	        	        	        	       0	(  1  0  4)	  0  1
     42.8389	        	        	        	        	       0	(  1  0  5)	  0  1
     48.0302	        	        	        	        	       0	(  1  0  6)	  0  1
     50.3556	        	        	        	        	       0	(  1  1  0)	  0  1
     51.2872	        	        	        	        	       0	(  0  0  8)	  0  1
     52.0811	        	        	        	        	       0	(  1  1  2)	  0  1
     53.6691	        	        	        	        	       0	(  1  0  7)	  0  1
     57.0362	        	        	        	        	       0	(  1  1  4)	  0  1
     58.8687	        	        	        	        	       0	(  2  0  0)	  0  1
     59.2609	        	        	        	        	       0	(  2  0  1)	  0  1
     59.7091	        	        	        	        	       0	(  1  0  8)	  0  1
     60.4281	        	        	        	        	       0	(  2  0  2)	  0  1
     62.3444	        	        	        	        	       0	(  2  0  3)	  0  1
     64.7433	        	        	        	        	       0	(  1  1  6)	  0  1
     64.9728	        	        	        	        	       0	(  2  0  4)	  0  1
     65.5398	        	        	        	        	       0	(  0  0 10)	  0  1
     66.1363	        	        	        	        	       0	(  1  0  9)	  0  1
     68.2727	        	        	        	        	       0	(  2  0  5)	  0  1
     72.2073	        	        	        	        	       0	(  2  0  6)	  0  1
     72.9650	        	        	        	        	       0	(  1  0 10)	  0  1
     74.7992	        	        	        	        	       0	(  1  1  8)	  0  1
     76.7502	        	        	        	        	       0	(  2  0  7)	  0  1
     80.2373	        	        	        	        	       0	(  1  0 11)	  0  1
     81.0503	        	        	        	        	       0	(  0  0 12)	  0  1
     81.1601	        	        	        	        	       0	(  2  1  0)	  0  1
     81.5007	        	        	        	        	       0	(  2  1  1)	  0  1
     81.8912	        	        	        	        	       0	(  2  0  8)	  0  1
     82.5207	        	        	        	        	       0	(  2  1  2)	  0  1
     84.2158	        	        	        	        	       0	(  2  1  3)	  0  1
     86.5809	        	        	        	        	       0	(  2  1  4)	  0  1
     87.0971	        	        	        	        	       0	(  1  1 10)	  0  1
     87.6424	        	        	        	        	       0	(  2  0  9)	  0  1
     88.0292	        	        	        	        	       0	(  1  0 12)	  0  1
     89.6141	        	        	        	        	       0	(  2  1  5)	  0  1
     93.3212	        	        	        	        	       0	(  2  1  6)	  0  1
     94.0462	        	        	        	        	       0	(  2  0 10)	  0  1
     95.0895	        	        	        	        	       0	(  3  0  0)	  0  1
     95.4278	        	        	        	        	       0	(  3  0  1)	  0  1
     96.4439	        	        	        	        	       0	(  3  0  2)	  0  1
     96.4645	        	        	        	        	       0	(  1  0 13)	  0  1
     97.7222	        	        	        	        	       0	(  2  1  7)	  0  1
     98.1423	        	        	        	        	       0	(  3  0  3)	  0  1
     98.6338	        	        	        	        	       0	(  0  0 14)	  0  1
    100.5327	        	        	        	        	       0	(  3  0  4)	  0  1
    101.1890	        	        	        	        	       0	(  2  0 11)	  0  1
    102.0086	        	        	        	        	       0	(  1  1 12)	  0  1
    102.8608	        	        	        	        	       0	(  2  1  8)	  0  1
    103.6345	        	        	        	        	       0	(  3  0  5)	  0  1
    105.7461	        	        	        	        	       0	(  1  0 14)	  0  1
    107.4834	        	        	        	        	       0	(  3  0  6)	  0  1
    108.8190	        	        	        	        	       0	(  2  1  9)	  0  1
    109.2282	        	        	        	        	       0	(  2  0 12)	  0  1
    112.1424	        	        	        	        	       0	(  3  0  7)	  0  1
    115.7451	        	        	        	        	       0	(  2  1 10)	  0  1
    116.2310	        	        	        	        	       0	(  1  0 15)	  0  1
    116.9065	        	        	        	        	       0	(  2  2  0)	  0  1
    117.7215	        	        	        	        	       0	(  3  0  8)	  0  1
    118.4294	        	        	        	        	       0	(  2  2  2)	  0  1
    118.4526	        	        	        	        	       0	(  2  0 13)	  0  1
    120.2050	        	        	        	        	       0	(  0  0 16)	  0  1
    120.9305	        	        	        	        	       0	(  1  1 14)	  0  1
    123.1414	        	        	        	        	       0	(  2  2  4)	  0  1
    123.9154	        	        	        	        	       0	(  2  1 11)	  0  1
    124.4188	        	        	        	        	       0	(  3  0  9)	  0  1
    125.0220	        	        	        	        	       0	(  3  1  0)	  0  1
    125.4349	        	        	        	        	       0	(  3  1  1)	  0  1
    126.6868	        	        	        	        	       0	(  3  1  2)	  0  1
    128.6435	        	        	        	        	       0	(  1  0 16)	  0  1
    128.8204	        	        	        	        	       0	(  3  1  3)	  0  1
    129.4482	        	        	        	        	       0	(  2  0 14)	  0  1
    131.6416	        	        	        	        	       0	(  2  2  6)	  0  1
    131.9210	        	        	        	        	       0	(  3  1  4)	  0  1
    132.6189	        	        	        	        	       0	(  3  0 10)	  0  1
    133.9004	        	        	        	        	       0	(  2  1 12)	  0  1
    136.1471	        	        	        	        	       0	(  3  1  5)	  0  1
    141.8079	        	        	        	        	       0	(  3  1  6)	  0  1
    143.2121	        	        	        	        	       0	(  3  0 11)	  0  1
    143.7301	        	        	        	        	       0	(  2  0 15)	  0  1
    144.9751	        	        	        	        	       0	(  1  0 17)	  0  1
    146.0441	        	        	        	        	       0	(  2  2  8)	  0  1
    147.2193	        	        	        	        	       0	(  2  1 13)	  0  1
    149.6099	        	        	        	        	       0	(  3  1  7)	  0  1
    150.1663	        	        	        	        	       0	(  1  1 16)	  0  1
    154.6566	        	        	        	        	       0	(  0  0 18)	  0  1
    159.4864	        	        	        	        	       0	(  3  0 12)	  0  1
    159.8000	        	        	        	        	       0	(  4  0  0)	  0  1
    160.8052	        	        	        	        	       0	(  4  0  1)	  0  1
    162.0258	        	        	        	        	       0	(  3  1  8)	  0  1
    164.1880	        	        	        	        	       0	(  4  0  2)	  0  1
    171.6569	        	        	        	        	       0	(  2  0 16)	  0  1
    172.6844	        	        	        	        	       0	(  4  0  3)	  0  1
