MSG Master    CELL:    5.91976   5.91976  23.28155   90.0000   90.0000  120.0000   SPGR: P 63/m m c             TEMP:   1074.85
  1   1280     2.52000     0.00000    -0.12856     0.00000     0.00000    0
    99     0     2
       0.00000      10.00000
     125.00000     130.00000
 2Theta	Yobs	Ycal	Yobs-Ycal	Backg	Posr	(hkl)	K
      0.7700	    0.00	  535.56	-1731.25	  416.09
      0.8700	    0.00	  536.42	-1731.25	  416.94
      0.9700	   45.00	  537.26	-1731.25	  417.79
      1.0700	   42.00	  538.09	-1731.25	  418.62
      1.1700	   46.00	  538.91	-1731.25	  419.44
      1.2700	   52.00	  539.72	-1731.25	  420.25
      1.3700	   49.00	  540.52	-1731.25	  421.04
      1.4700	  117.00	  541.30	-1731.25	  421.83
      1.5700	  290.00	  542.08	-1731.25	  422.60
      1.6700	  479.00	  542.84	-1731.25	  423.36
      1.7700	  589.00	  543.59	-1731.25	  424.11
      1.8700	  646.00	  544.33	-1731.25	  424.85
      1.9700	  715.00	  545.05	-1731.25	  425.58
      2.0700	  767.00	  545.77	-1731.25	  426.30
      2.1700	  829.00	  546.48	-1731.25	  427.00
      2.2700	  798.00	  547.17	-1731.25	  427.70
      2.3700	  741.00	  547.85	-1731.25	  428.38
      2.4700	  743.00	  548.53	-1731.25	  429.05
      2.5700	  664.00	  549.19	-1731.25	  429.71
      2.6700	  689.00	  549.84	-1731.25	  430.36
      2.7700	  676.00	  550.48	-1731.25	  431.00
      2.8700	  666.00	  551.11	-1731.25	  431.63
      2.9700	  618.00	  551.73	-1731.25	  432.25
      3.0700	  575.00	  552.33	-1731.25	  432.86
      3.1700	  630.00	  552.93	-1731.25	  433.46
      3.2700	  630.00	  553.52	-1731.25	  434.04
      3.3700	  682.00	  554.10	-1731.25	  434.62
      3.4700	  751.00	  554.66	-1731.25	  435.19
      3.5700	  808.00	  555.22	-1731.25	  435.75
      3.6700	  894.00	  555.77	-1731.25	  436.29
      3.7700	  975.00	  556.31	-1731.25	  436.83
      3.8700	  970.00	  556.83	-1731.25	  437.36
      3.9700	  977.00	  557.35	-1731.25	  437.88
      4.0700	 1102.00	  557.86	-1731.25	  438.38
      4.1700	 1093.00	  558.36	-1731.25	  438.88
      4.2700	 1089.00	  558.84	-1731.25	  439.37
      4.3700	 1109.00	  559.32	-1731.25	  439.85
      4.4700	 1104.00	  559.79	-1731.25	  440.32
      4.5700	  991.00	  560.25	-1731.25	  440.78
      4.6700	 1103.00	  560.70	-1731.25	  441.23
      4.7700	  980.00	  561.15	-1731.25	  441.67
      4.8700	  990.00	  561.58	-1731.25	  442.10
      4.9700	  881.00	  562.00	-1731.25	  442.53
      5.0700	  928.00	  562.42	-1731.25	  442.94
      5.1700	  922.00	  562.82	-1731.25	  443.35
      5.2700	  889.00	  563.22	-1731.25	  443.75
      5.3700	  892.00	  563.61	-1731.25	  444.13
      5.4700	  863.00	  563.99	-1731.25	  444.51
      5.5700	  827.00	  564.36	-1731.25	  444.88
      5.6700	  758.00	  564.72	-1731.25	  445.24
      5.7700	  750.00	  565.07	-1731.25	  445.60
      5.8700	  830.00	  565.42	-1731.25	  445.94
      5.9700	  813.00	  565.75	-1731.25	  446.28
      6.0700	  755.00	  566.08	-1731.25	  446.61
      6.1700	  772.00	  566.40	-1731.25	  446.93
      6.2700	  766.00	  566.71	-1731.25	  447.24
      6.3700	  771.00	  567.02	-1731.25	  447.54
      6.4700	  727.00	  567.31	-1731.25	  447.84
      6.5700	  748.00	  567.60	-1731.25	  448.12
      6.6700	  768.00	  567.88	-1731.25	  448.40
      6.7700	  735.00	  568.15	-1731.25	  448.68
      6.8700	  704.00	  568.41	-1731.25	  448.94
      6.9700	  717.00	  568.67	-1731.25	  449.20
      7.0700	  691.00	  568.92	-1731.25	  449.44
      7.1700	  718.00	  569.16	-1731.25	  449.68
      7.2700	  669.00	  569.39	-1731.25	  449.92
      7.3700	  666.00	  569.62	-1731.25	  450.14
      7.4700	  648.00	  569.84	-1731.25	  450.36
      7.5700	  656.00	  570.05	-1731.25	  450.57
      7.6700	  667.00	  570.25	-1731.25	  450.78
      7.7700	  698.00	  570.45	-1731.25	  450.97
      7.8700	  673.00	  570.63	-1731.25	  451.16
      7.9700	  670.00	  570.82	-1731.25	  451.34
      8.0700	  632.00	  570.99	-1731.25	  451.52
      8.1700	  646.00	  571.16	-1731.25	  451.69
      8.2700	  684.00	  571.32	-1731.25	  451.85
      8.3700	  647.00	  571.47	-1731.25	  452.00
      8.4700	  623.00	  571.62	-1731.25	  452.15
      8.5700	  667.00	  571.76	-1731.25	  452.29
      8.6700	  600.00	  571.90	-1731.25	  452.42
      8.7700	  635.00	  572.02	-1731.25	  452.55
      8.8700	  626.00	  572.14	-1731.25	  452.67
      8.9700	  644.00	  572.26	-1731.25	  452.78
      9.0700	  573.00	  572.37	-1731.25	  452.89
      9.1700	  631.00	  572.47	-1731.25	  452.99
      9.2700	  584.00	  572.56	-1731.25	  453.09
      9.3700	  625.00	  572.65	-1731.25	  453.18
      9.4700	  667.00	  572.73	-1731.25	  453.26
      9.5700	  621.00	  572.81	-1731.25	  453.33
      9.6700	  606.00	  572.88	-1731.25	  453.40
      9.7700	  609.00	  572.94	-1731.25	  453.47
      9.8700	  606.00	  573.00	-1731.25	  453.53
      9.9700	  595.00	  573.05	-1731.25	  453.58
     10.0700	  570.00	  574.20	-1735.45	  453.62
     10.1700	  553.00	  574.37	-1752.62	  453.66
     10.2700	  605.00	  574.56	-1700.81	  453.70
     10.3700	  586.00	  574.80	-1720.05	  453.73
     10.4700	  623.00	  575.11	-1683.36	  453.75
     10.5700	  567.00	  575.57	-1739.82	  453.77
     10.6700	  564.00	  576.28	-1743.53	  453.78
     10.7700	  613.00	  577.34	-1695.59	  453.79
     10.8700	  589.00	  578.84	-1721.09	  453.79
     10.9700	  607.00	  580.77	-1705.02	  453.78
     11.0700	  589.00	  583.09	-1725.34	  453.77
     11.1700	  583.00	  585.82	-1734.07	  453.76
     11.2700	  612.00	  589.00	-1708.25	  453.74
     11.3700	  547.00	  592.72	-1776.97	  453.71
     11.4700	  594.00	  597.14	-1734.39	  453.68
     11.5700	  632.00	  602.50	-1701.75	  453.65
     11.6700	  594.00	  609.22	-1746.47	  453.61
     11.7700	  637.00	  617.95	-1712.20	  453.56
     11.8700	  653.00	  629.49	-1707.74	  453.51
     11.9700	  656.00	  643.96	-1719.21	  453.45
     12.0700	  716.00	  659.03	-1674.28	  453.39
     12.1700	  698.00	  668.36	-1701.61	  453.33
     12.2700	  672.00	  663.02	-1722.27	  453.26
     12.3700	  643.00	  641.58	-1729.83	  453.19
     12.4700	  636.00	  616.36	-1711.61	  453.11
     12.5700	  624.00	  597.45	-1704.70	  453.02
     12.6700	  612.00	  586.40	-1705.65	  452.93
     12.7700	  601.00	  580.87	-1711.12	  452.84
     12.8700	  608.00	  578.15	-1701.40	  452.75
     12.9700	  546.00	  576.64	-1761.89	  452.64
     13.0700	  545.00	  575.64	-1761.89	  452.54
     13.1700	  579.00	  574.90	-1727.15	  452.43
     13.2700	  554.00	  574.31	-1751.56	  452.31
     13.3700	  582.00	  573.83	-1723.08	  452.20
     13.4700	  501.00	  573.42	-1803.67	  452.07
     13.5700	  564.00	  573.07	-1740.32	  451.95
     13.6700	  559.00	  572.75	-1745.00	  451.82
     13.7700	  565.00	  572.46	-1738.71	  451.68
     13.8700	  562.00	  572.19	-1741.44	  451.54
     13.9700	  565.00	  571.94	-1738.19	  451.40
     14.0700	  557.00	  571.71	-1745.96	  451.26
     14.1700	  553.00	  571.48	-1749.73	  451.11
     14.2700	  546.00	  571.26	-1756.51	  450.95
     14.3700	  580.00	  571.04	-1722.29	  450.79
     14.4700	  539.00	  570.83	-1763.08	  450.63
     14.5700	  595.00	  570.62	-1706.87	  450.47
     14.6700	  537.00	  570.41	-1764.66	  450.30
     14.7700	  554.00	  570.20	-1747.45	  450.13
     14.8700	  552.00	  569.99	-1749.24	  449.95
     14.9700	  590.00	  569.78	-1711.03	  449.78
     15.0700	  566.00	  569.58	-1734.83	  449.59
     15.1700	  600.00	  569.37	-1700.62	  449.41
     15.2700	  578.00	  569.16	-1722.41	  449.22
     15.3700	  549.00	  568.95	-1751.20	  449.03
     15.4700	  534.00	  568.76	-1766.01	  448.83
     15.5700	  605.00	  568.55	-1694.80	  448.63
     15.6700	  567.00	  568.33	-1732.58	  448.43
     15.7700	  559.00	  568.11	-1740.36	  448.23
     15.8700	  574.00	  567.89	-1725.14	  448.02
     15.9700	  571.00	  567.67	-1727.92	  447.81
     16.0700	  571.00	  567.45	-1727.70	  447.60
     16.1700	  528.00	  567.22	-1770.47	  447.38
     16.2700	  559.00	  566.99	-1739.24	  447.16
     16.3700	  583.00	  566.77	-1715.02	  446.94
     16.4700	  567.00	  566.53	-1730.78	  446.71
     16.5700	  533.00	  566.30	-1764.55	  446.49
     16.6700	  502.00	  566.06	-1795.31	  446.26
     16.7700	  577.00	  565.82	-1720.07	  446.02
     16.8700	  561.00	  565.58	-1735.83	  445.79
     16.9700	  597.00	  565.34	-1699.59	  445.55
     17.0700	  589.00	  565.10	-1707.35	  445.31
     17.1700	  572.00	  564.85	-1724.10	  445.07
     17.2700	  591.00	  564.60	-1704.85	  444.82
     17.3700	  556.00	  564.35	-1739.60	  444.57
     17.4700	  551.00	  564.09	-1744.34	  444.32
     17.5700	  520.00	  563.84	-1775.09	  444.07
     17.6700	  566.00	  563.58	-1728.83	  443.81
     17.7700	  541.00	  563.32	-1753.57	  443.56
     17.8700	  567.00	  563.06	-1727.31	  443.30
     17.9700	  595.00	  562.80	-1699.05	  443.03
     18.0700	  576.00	  562.53	-1717.78	  442.77
     18.1700	  529.00	  562.37	-1764.62	  442.50
     18.2700	  531.00	  562.10	-1762.35	  442.24
     18.3700	  537.00	  561.83	-1756.08	  441.97
     18.4700	  548.00	  561.56	-1744.81	  441.69
     18.5700	  540.00	  561.29	-1752.54	  441.42
     18.6700	  562.00	  561.01	-1730.26	  441.14
     18.7700	  567.00	  560.74	-1724.99	  440.86
     18.8700	  580.00	  560.54	-1711.79	  440.58
     18.9700	  548.00	  560.26	-1743.51	  440.30
     19.0700	  588.00	  559.98	-1703.23	  440.02
     19.1700	  535.00	  559.70	-1755.95	  439.73
     19.2700	  594.00	  559.42	-1696.67	  439.45
     19.3700	  565.00	  559.14	-1725.39	  439.16
     19.4700	  539.00	  558.85	-1751.10	  438.87
     19.5700	  521.00	  558.57	-1768.82	  438.58
     19.6700	  577.00	  558.28	-1712.53	  438.28
     19.7700	  592.00	  558.00	-1697.25	  437.99
     19.8700	  526.00	  557.71	-1762.96	  437.69
     19.9700	  534.00	  557.42	-1754.67	  437.39
     20.0700	  543.00	  557.13	-1745.38	  437.09
     20.1700	  570.00	  556.84	-1718.09	  436.79
     20.2700	  551.00	  556.54	-1736.79	  436.49
     20.3700	  545.00	  556.25	-1742.50	  436.19
     20.4700	  555.00	  555.96	-1732.21	  435.88
     20.5700	  536.00	  555.66	-1750.91	  435.58
     20.6700	  545.00	  555.37	-1741.62	  435.27
     20.7700	  574.00	  555.11	-1712.36	  434.96
     20.8700	  529.00	  554.81	-1757.06	  434.65
     20.9700	  522.00	  554.52	-1763.77	  434.34
     21.0700	  580.00	  554.22	-1705.47	  434.03
     21.1700	  520.00	  553.93	-1765.18	  433.71
     21.2700	  562.00	  553.59	-1722.84	  433.40
     21.3700	  540.00	  553.30	-1744.55	  433.08
     21.4700	  541.00	  553.01	-1743.26	  432.77
     21.5700	  508.00	  552.71	-1775.96	  432.45
     21.6700	  595.00	  552.42	-1688.67	  432.13
     21.7700	  541.00	  552.13	-1742.38	  431.81
     21.8700	  551.00	  551.84	-1732.09	  431.49
     21.9700	  550.00	  551.56	-1732.81	  431.17
     22.0700	  539.00	  551.27	-1743.52	  430.85
     22.1700	  540.00	  550.99	-1742.24	  430.53
     22.2700	  536.00	  550.71	-1745.96	  430.20
     22.3700	  552.00	  550.43	-1729.68	  429.88
     22.4700	  555.00	  550.16	-1726.41	  429.56
     22.5700	  587.00	  549.90	-1694.15	  429.23
     22.6700	  532.00	  549.63	-1748.88	  428.90
     22.7700	  570.00	  549.38	-1710.63	  428.58
     22.8700	  547.00	  549.14	-1733.39	  428.25
     22.9700	  513.00	  548.91	-1767.16	  427.92
     23.0700	  559.00	  548.69	-1720.94	  427.60
     23.1700	  512.00	  548.49	-1767.74	  427.27
     23.2700	  569.00	  548.31	-1710.56	  426.94
     23.3700	  576.00	  548.16	-1703.41	  426.61
     23.4700	  535.00	  548.20	-1744.45	  426.28
     23.5700	  540.00	  548.15	-1739.40	  425.95
     23.6700	  510.00	  548.18	-1769.43	  425.62
     23.7700	  527.00	  548.34	-1752.59	  425.29
     23.8700	  544.00	  548.75	-1736.00	  424.95
     23.9700	  593.00	  549.62	-1687.87	  424.62
     24.0700	  557.00	  551.35	-1725.60	  424.29
     24.1700	  536.00	  554.50	-1749.75	  423.96
     24.2700	  565.00	  559.78	-1726.03	  423.63
     24.3700	  588.00	  567.93	-1711.18	  423.29
     24.4700	  637.00	  579.53	-1673.78	  422.96
     24.5700	  586.00	  594.13	-1739.38	  422.63
     24.6700	  589.00	  608.89	-1751.14	  422.29
     24.7700	  562.00	  617.62	-1786.87	  421.96
     24.8700	  665.00	  613.09	-1679.34	  421.63
     24.9700	  636.00	  596.02	-1691.27	  421.29
     25.0700	  617.00	  576.54	-1690.79	  420.96
     25.1700	  575.00	  561.79	-1718.04	  420.63
     25.2700	  598.00	  552.94	-1686.19	  420.30
     25.3700	  531.00	  548.35	-1748.60	  419.96
     25.4700	  563.00	  546.04	-1714.29	  419.63
     25.5700	  569.00	  544.75	-1707.00	  419.30
     25.6700	  527.00	  543.90	-1748.15	  418.96
     25.7700	  558.00	  543.28	-1716.53	  418.63
     25.8700	  543.00	  542.81	-1731.06	  418.30
     25.9700	  530.00	  542.45	-1743.70	  417.97
     26.0700	  520.00	  542.17	-1753.42	  417.63
     26.1700	  560.00	  541.98	-1713.23	  417.30
     26.2700	  588.00	  541.86	-1685.11	  416.97
     26.3700	  566.00	  541.83	-1707.08	  416.64
     26.4700	  554.00	  541.87	-1719.12	  416.31
     26.5700	  576.00	  542.02	-1697.27	  415.98
     26.6700	  490.00	  542.28	-1783.53	  415.65
     26.7700	  571.00	  542.67	-1702.92	  415.32
     26.8700	  509.00	  543.24	-1765.49	  414.99
     26.9700	  609.00	  544.03	-1666.28	  414.66
     27.0700	  552.00	  545.12	-1724.37	  414.33
     27.1700	  555.00	  546.65	-1722.90	  414.00
     27.2700	  558.00	  548.87	-1722.12	  413.67
     27.3700	  592.00	  552.31	-1691.56	  413.35
     27.4700	  554.00	  558.00	-1735.25	  413.02
     27.5700	  588.00	  567.83	-1711.08	  412.69
     27.6700	  620.00	  584.78	-1696.03	  412.37
     27.7700	  571.00	  612.72	-1772.97	  412.04
     27.8700	  609.00	  655.02	-1777.27	  411.72
     27.9700	  686.00	  711.82	-1757.07	  411.39
     28.0700	  806.00	  776.28	-1701.53	  411.07
     28.1700	  895.00	  831.38	-1667.63	  410.75
     28.2700	  961.00	  851.91	-1622.16	  410.43
     28.3700	  874.00	  824.29	-1681.54	  410.11
     28.4700	  770.00	  773.46	-1734.71	  409.78
     28.5700	  685.00	  736.97	-1783.22	  409.47
     28.6700	  702.00	  730.77	-1760.02	  409.15
     28.7700	  723.00	  749.39	-1757.64	  408.83
     28.8700	  794.00	  772.84	-1710.09	  408.51
     28.9700	  820.00	  774.42	-1685.67	  408.19
     29.0700	  726.00	  738.71	-1743.96	  407.88
     29.1700	  725.00	  681.25	-1687.50	  407.56
     29.2700	  595.00	  627.61	-1763.86	  407.25
     29.3700	  600.00	  589.34	-1720.59	  406.93
     29.4700	  570.00	  566.34	-1727.59	  406.62
     29.5700	  562.00	  553.92	-1723.17	  406.31
     29.6700	  584.00	  547.32	-1694.57	  406.00
     29.7700	  558.00	  543.55	-1716.80	  405.69
     29.8700	  566.00	  541.19	-1706.44	  405.38
     29.9700	  558.00	  539.69	-1712.94	  405.07
     30.0700	  575.00	  538.96	-1695.21	  404.77
     30.1700	  556.00	  539.15	-1714.40	  404.46
     30.2700	  570.00	  540.79	-1702.04	  404.15
     30.3700	  597.00	  544.83	-1679.08	  403.85
     30.4700	  593.00	  552.71	-1690.96	  403.55
     30.5700	  544.00	  565.81	-1753.06	  403.25
     30.6700	  612.00	  584.33	-1703.58	  402.94
     30.7700	  669.00	  605.66	-1667.91	  402.64
     30.8700	  598.00	  623.56	-1756.81	  402.35
     30.9700	  595.00	  628.84	-1765.09	  402.05
     31.0700	  636.00	  615.93	-1711.18	  401.75
     31.1700	  579.00	  591.72	-1743.97	  401.46
     31.2700	  574.00	  567.92	-1725.17	  401.16
     31.3700	  540.00	  550.40	-1741.65	  400.87
     31.4700	  539.00	  539.67	-1731.92	  400.58
     31.5700	  526.00	  533.85	-1739.10	  400.29
     31.6700	  563.00	  530.81	-1699.06	  400.00
     31.7700	  516.00	  529.11	-1744.36	  399.71
     31.8700	  543.00	  528.05	-1716.30	  399.42
     31.9700	  531.00	  527.34	-1727.59	  399.14
     32.0700	  565.00	  526.85	-1693.10	  398.85
     32.1700	  534.00	  526.55	-1723.80	  398.57
     32.2700	  536.00	  526.42	-1721.67	  398.29
     32.3700	  566.00	  526.44	-1691.69	  398.01
     32.4700	  525.00	  526.64	-1732.89	  397.73
     32.5700	  559.00	  527.04	-1699.29	  397.45
     32.6700	  533.00	  527.66	-1725.91	  397.17
     32.7700	  555.00	  528.57	-1704.82	  396.90
     32.8700	  575.00	  529.85	-1686.10	  396.62
     32.9700	  536.00	  531.65	-1726.90	  396.35
     33.0700	  589.00	  534.23	-1676.48	  396.08
     33.1700	  572.00	  538.20	-1697.45	  395.81
     33.2700	  508.00	  544.82	-1768.07	  395.54
     33.3700	  517.00	  556.76	-1771.01	  395.27
     33.4700	  602.00	  578.90	-1708.15	  395.01
     33.5700	  568.00	  618.48	-1781.73	  394.74
     33.6700	  670.00	  683.07	-1744.32	  394.48
     33.7700	  822.00	  774.64	-1683.89	  394.22
     33.8700	  855.00	  881.65	-1757.90	  393.96
     33.9700	 1080.00	  974.42	-1625.67	  393.70
     34.0700	 1108.00	 1009.87	-1633.12	  393.44
     34.1700	 1063.00	  959.92	-1628.17	  393.18
     34.2700	  884.00	  851.06	-1698.31	  392.93
     34.3700	  716.00	  736.85	-1752.10	  392.68
     34.4700	  656.00	  648.49	-1723.74	  392.43
     34.5700	  559.00	  592.07	-1764.32	  392.18
     34.6700	  546.00	  560.65	-1745.90	  391.93
     34.7700	  549.00	  544.33	-1726.58	  391.68
     34.8700	  536.00	  535.57	-1730.82	  391.44
     34.9700	  516.00	  530.28	-1745.53	  391.19
     35.0700	  548.00	  526.62	-1709.87	  390.95
     35.1700	  501.00	  523.87	-1754.12	  390.71
     35.2700	  541.00	  521.69	-1711.94	  390.47
     35.3700	  481.00	  519.93	-1770.18	  390.23
     35.4700	  528.00	  518.46	-1721.71	  390.00
     35.5700	  506.00	  517.23	-1742.48	  389.77
     35.6700	  580.00	  516.17	-1667.42	  389.53
     35.7700	  502.00	  515.26	-1744.51	  389.30
     35.8700	  562.00	  514.46	-1683.71	  389.07
     35.9700	  535.00	  513.75	-1710.00	  388.84
     36.0700	  521.00	  513.12	-1723.37	  388.62
     36.1700	  480.00	  513.00	-1764.25	  388.39
     36.2700	  519.00	  512.50	-1724.75	  388.17
     36.3700	  507.00	  512.04	-1736.29	  387.95
     36.4700	  523.00	  511.63	-1719.88	  387.73
     36.5700	  483.00	  511.27	-1759.52	  387.51
     36.6700	  537.00	  510.96	-1705.21	  387.30
     36.7700	  537.00	  510.70	-1704.95	  387.08
     36.8700	  524.00	  510.54	-1717.79	  386.87
     36.9700	  476.00	  510.54	-1765.79	  386.66
     37.0700	  490.00	  510.85	-1752.10	  386.45
     37.1700	  508.00	  511.71	-1734.96	  386.24
     37.2700	  553.00	  513.43	-1691.68	  386.04
     37.3700	  496.00	  516.18	-1751.43	  385.83
     37.4700	  491.00	  519.79	-1760.04	  385.63
     37.5700	  497.00	  523.46	-1757.71	  385.43
     37.6700	  547.00	  525.78	-1710.03	  385.23
     37.7700	  503.00	  525.42	-1753.67	  385.03
     37.8700	  532.00	  522.46	-1721.71	  384.84
     37.9700	  481.00	  518.42	-1768.67	  384.64
     38.0700	  507.00	  514.62	-1738.87	  384.45
     38.1700	  485.00	  511.58	-1757.83	  384.26
     38.2700	  509.00	  509.38	-1731.63	  384.07
     38.3700	  488.00	  507.90	-1751.15	  383.89
     38.4700	  518.00	  506.93	-1720.18	  383.70
     38.5700	  502.00	  506.19	-1735.44	  383.52
     38.6700	  541.00	  505.73	-1695.98	  383.34
     38.7700	  497.00	  505.38	-1739.63	  383.16
     38.8700	  515.00	  505.09	-1721.34	  382.98
     38.9700	  503.00	  504.83	-1733.08	  382.80
     39.0700	  504.00	  504.75	-1732.00	  382.63
     39.1700	  549.00	  504.54	-1686.79	  382.46
     39.2700	  491.00	  504.27	-1744.52	  382.29
     39.3700	  475.00	  504.09	-1760.34	  382.12
     39.4700	  508.00	  503.92	-1727.17	  381.95
     39.5700	  540.00	  503.76	-1695.01	  381.79
     39.6700	  527.00	  503.61	-1707.86	  381.62
     39.7700	  496.00	  503.47	-1738.72	  381.46
     39.8700	  469.00	  503.34	-1765.59	  381.30
     39.9700	  483.00	  503.22	-1751.47	  381.14
     40.0700	  493.00	  503.11	-1741.36	  380.99
     40.1700	  505.00	  503.01	-1729.26	  380.83
     40.2700	  482.00	  502.92	-1752.17	  380.68
     40.3700	  526.00	  502.85	-1708.10	  380.53
     40.4700	  432.00	  502.78	-1802.03	  380.38
     40.5700	  501.00	  502.74	-1732.99	  380.23
     40.6700	  497.00	  502.71	-1736.96	  380.09
     40.7700	  535.00	  502.70	-1698.95	  379.94
     40.8700	  525.00	  502.72	-1708.97	  379.80
     40.9700	  470.00	  502.76	-1764.01	  379.66
     41.0700	  518.00	  502.84	-1716.09	  379.52
     41.1700	  500.00	  502.96	-1734.21	  379.39
     41.2700	  475.00	  503.14	-1759.39	  379.25
     41.3700	  507.00	  503.83	-1728.08	  379.12
     41.4700	  516.00	  504.14	-1719.39	  378.99
     41.5700	  474.00	  504.62	-1761.86	  378.86
     41.6700	  507.00	  505.29	-1729.54	  378.73
     41.7700	  487.00	  506.31	-1750.56	  378.61
     41.8700	  469.00	  508.04	-1770.29	  378.48
     41.9700	  512.00	  511.17	-1730.42	  378.36
     42.0700	  547.00	  516.99	-1701.24	  378.24
     42.1700	  552.00	  527.29	-1706.54	  378.12
     42.2700	  557.00	  543.92	-1718.17	  378.01
     42.3700	  553.00	  567.51	-1745.76	  377.89
     42.4700	  603.00	  595.82	-1724.07	  377.78
     42.5700	  578.00	  622.25	-1775.50	  377.67
     42.6700	  578.00	  637.06	-1790.31	  377.56
     42.7700	  582.00	  632.28	-1781.53	  377.46
     42.8700	  584.00	  610.02	-1757.27	  377.35
     42.9700	  575.00	  580.68	-1736.93	  377.25
     43.0700	  507.00	  553.66	-1777.91	  377.15
     43.1700	  531.00	  533.32	-1733.57	  377.05
     43.2700	  501.00	  520.12	-1750.37	  376.95
     43.3700	  500.00	  512.48	-1743.73	  376.85
     43.4700	  492.00	  508.40	-1747.65	  376.76
     43.5700	  502.00	  506.16	-1735.41	  376.67
     43.6700	  525.00	  505.03	-1711.28	  376.58
     43.7700	  474.00	  504.17	-1761.42	  376.49
     43.8700	  513.00	  503.55	-1721.80	  376.40
     43.9700	  529.00	  503.08	-1705.33	  376.31
     44.0700	  511.00	  502.71	-1722.96	  376.23
     44.1700	  537.00	  502.42	-1696.67	  376.15
     44.2700	  511.00	  502.20	-1722.45	  376.07
     44.3700	  497.00	  502.03	-1736.28	  375.99
     44.4700	  492.00	  501.91	-1741.16	  375.92
     44.5700	  536.00	  501.82	-1697.07	  375.84
     44.6700	  496.00	  501.76	-1737.01	  375.77
     44.7700	  495.00	  501.73	-1737.98	  375.70
     44.8700	  500.00	  501.58	-1732.83	  375.63
     44.9700	  535.00	  501.61	-1697.86	  375.56
     45.0700	  477.00	  501.66	-1755.91	  375.50
     45.1700	  519.00	  501.91	-1714.16	  375.43
     45.2700	  490.00	  502.01	-1743.26	  375.37
     45.3700	  515.00	  502.13	-1718.38	  375.31
     45.4700	  489.00	  502.27	-1744.52	  375.25
     45.5700	  496.00	  502.44	-1737.69	  375.20
     45.6700	  490.00	  502.63	-1743.88	  375.14
     45.7700	  548.00	  502.85	-1686.10	  375.09
     45.8700	  494.00	  503.10	-1740.35	  375.04
     45.9700	  490.00	  503.39	-1744.64	  374.99
     46.0700	  494.00	  503.71	-1740.96	  374.94
     46.1700	  492.00	  504.08	-1743.33	  374.90
     46.2700	  512.00	  504.50	-1723.75	  374.85
     46.3700	  525.00	  504.97	-1711.22	  374.81
     46.4700	  508.00	  505.51	-1728.76	  374.77
     46.5700	  487.00	  506.13	-1750.38	  374.73
     46.6700	  521.00	  506.86	-1717.11	  374.69
     46.7700	  497.00	  507.73	-1741.98	  374.66
     46.8700	  568.00	  508.84	-1672.09	  374.62
     46.9700	  538.00	  510.42	-1703.67	  374.59
     47.0700	  497.00	  512.69	-1746.94	  374.56
     47.1700	  517.00	  516.35	-1730.60	  374.53
     47.2700	  491.00	  522.39	-1762.64	  374.51
     47.3700	  506.00	  531.98	-1757.23	  374.48
     47.4700	  586.00	  545.98	-1691.23	  374.46
     47.5700	  588.00	  564.18	-1707.43	  374.44
     47.6700	  606.00	  584.45	-1709.70	  374.42
     47.7700	  540.00	  602.32	-1793.57	  374.40
     47.8700	  572.00	  611.72	-1770.97	  374.38
     47.9700	  577.00	  608.76	-1763.01	  374.37
     48.0700	  570.00	  595.51	-1756.76	  374.35
     48.1700	  586.00	  578.16	-1723.41	  374.34
     48.2700	  575.00	  562.11	-1718.36	  374.33
     48.3700	  568.00	  550.25	-1713.50	  374.32
     48.4700	  528.00	  543.31	-1746.56	  374.32
     48.5700	  497.00	  540.72	-1774.97	  374.31
     48.6700	  494.00	  541.42	-1778.67	  374.31
     48.7700	  537.00	  544.52	-1738.77	  374.30
     48.8700	  593.00	  549.56	-1687.81	  374.30
     48.9700	  521.00	  556.55	-1766.80	  374.31
     49.0700	  562.00	  566.14	-1735.39	  374.31
     49.1700	  594.00	  579.94	-1717.19	  374.31
     49.2700	  587.00	  601.78	-1746.03	  374.32
     49.3700	  645.00	  637.73	-1723.98	  374.33
     49.4700	  669.00	  699.64	-1761.89	  374.34
     49.5700	  766.00	  804.08	-1769.33	  374.35
     49.6700	  867.00	  969.95	-1834.20	  374.36
     49.7700	 1168.00	 1211.04	-1774.29	  374.37
     49.8700	 1477.00	 1524.58	-1778.83	  374.39
     49.9700	 1826.00	 1879.02	-1784.27	  374.41
     50.0700	 2291.00	 2205.09	-1645.34	  374.42
     50.1700	 2512.00	 2403.10	-1622.35	  374.44
     50.2700	 2455.00	 2389.44	-1665.69	  374.47
     50.3700	 2243.00	 2168.56	-1656.81	  374.49
     50.4700	 1832.00	 1832.32	-1731.57	  374.51
     50.5700	 1430.00	 1482.34	-1783.59	  374.54
     50.6700	  955.00	 1183.37	-1959.62	  374.57
     50.7700	  835.00	  961.83	-1858.08	  374.60
     50.8700	  687.00	  816.29	-1860.54	  374.63
     50.9700	  715.00	  729.56	-1745.81	  374.66
     51.0700	  647.00	  679.97	-1764.22	  374.69
     51.1700	  616.00	  649.00	-1764.25	  374.73
     51.2700	  562.00	  625.36	-1794.61	  374.76
     51.3700	  621.00	  604.91	-1715.16	  374.80
     51.4700	  550.00	  587.24	-1768.49	  374.84
     51.5700	  566.00	  572.81	-1738.06	  374.88
     51.6700	  531.00	  561.85	-1762.10	  374.93
     51.7700	  532.00	  554.08	-1753.33	  374.97
     51.8700	  566.00	  548.92	-1714.17	  375.01
     51.9700	  575.00	  545.97	-1702.22	  375.06
     52.0700	  512.00	  544.23	-1763.48	  375.11
     52.1700	  486.00	  543.65	-1788.90	  375.16
     52.2700	  582.00	  544.14	-1693.39	  375.21
     52.3700	  549.00	  545.90	-1728.15	  375.26
     52.4700	  549.00	  549.55	-1731.80	  375.31
     52.5700	  578.00	  556.48	-1709.73	  375.37
     52.6700	  592.00	  569.34	-1708.59	  375.42
     52.7700	  598.00	  592.53	-1725.78	  375.48
     52.8700	  637.00	  632.17	-1726.42	  375.54
     52.9700	  716.00	  694.88	-1710.13	  375.60
     53.0700	  844.00	  784.98	-1672.23	  375.66
     53.1700	  963.00	  900.61	-1668.86	  375.73
     53.2700	 1079.00	 1029.76	-1682.01	  375.79
     53.3700	 1226.00	 1148.05	-1653.30	  375.85
     53.4700	 1165.00	 1221.47	-1787.72	  375.92
     53.5700	 1180.00	 1221.37	-1772.62	  375.99
     53.6700	 1134.00	 1147.31	-1744.56	  376.06
     53.7700	  967.00	 1028.27	-1792.52	  376.13
     53.8700	  865.00	  899.02	-1765.27	  376.20
     53.9700	  806.00	  783.95	-1709.20	  376.27
     54.0700	  649.00	  694.78	-1777.03	  376.35
     54.1700	  664.00	  633.16	-1700.41	  376.42
     54.2700	  609.00	  594.58	-1716.83	  376.50
     54.3700	  582.00	  572.33	-1721.58	  376.58
     54.4700	  567.00	  560.25	-1724.50	  376.65
     54.5700	  557.00	  553.97	-1728.22	  376.73
     54.6700	  576.00	  550.86	-1706.11	  376.82
     54.7700	  568.00	  549.56	-1712.81	  376.90
     54.8700	  566.00	  549.45	-1714.70	  376.98
     54.9700	  557.00	  550.19	-1724.44	  377.07
     55.0700	  583.00	  551.79	-1700.04	  377.15
     55.1700	  547.00	  554.20	-1738.45	  377.24
     55.2700	  597.00	  557.51	-1691.76	  377.33
     55.3700	  607.00	  561.85	-1686.10	  377.42
     55.4700	  565.00	  567.45	-1733.70	  377.51
     55.5700	  595.00	  574.79	-1711.04	  377.60
     55.6700	  615.00	  584.79	-1701.04	  377.69
     55.7700	  561.00	  599.34	-1769.59	  377.78
     55.8700	  629.00	  622.15	-1724.40	  377.88
     55.9700	  630.00	  659.91	-1761.16	  377.97
     56.0700	  657.00	  723.38	-1797.63	  378.07
     56.1700	  761.00	  827.55	-1797.80	  378.17
     56.2700	  896.00	  989.40	-1824.65	  378.27
     56.3700	 1176.00	 1222.46	-1777.71	  378.36
     56.4700	 1532.00	 1528.49	-1727.74	  378.47
     56.5700	 1833.00	 1888.60	-1786.85	  378.57
     56.6700	 2130.00	 2256.20	-1857.45	  378.67
     56.7700	 2505.00	 2555.67	-1781.92	  378.77
     56.8700	 2603.00	 2698.43	-1826.68	  378.88
     56.9700	 2575.00	 2630.82	-1787.07	  378.98
     57.0700	 2328.00	 2378.91	-1782.16	  379.09
     57.1700	 2129.00	 2026.64	-1628.89	  379.20
     57.2700	 1664.00	 1658.78	-1726.03	  379.30
     57.3700	 1282.00	 1332.74	-1781.99	  379.41
     57.4700	 1084.00	 1076.64	-1723.89	  379.52
     57.5700	  882.00	  895.15	-1744.40	  379.63
     57.6700	  799.00	  778.21	-1710.46	  379.75
     57.7700	  748.00	  709.98	-1693.23	  379.86
     57.8700	  673.00	  675.65	-1733.90	  379.97
     57.9700	  665.00	  664.83	-1731.08	  380.09
     58.0700	  710.00	  672.03	-1693.28	  380.20
     58.1700	  696.00	  695.40	-1730.65	  380.32
     58.2700	  752.00	  734.98	-1714.23	  380.43
     58.3700	  788.00	  790.81	-1734.06	  380.55
     58.4700	  994.00	  861.30	-1598.55	  380.67
     58.5700	 1037.00	  941.79	-1636.04	  380.79
     58.6700	 1117.00	 1024.14	-1638.39	  380.91
     58.7700	 1281.00	 1099.23	-1549.48	  381.03
     58.8700	 1358.00	 1161.11	-1534.36	  381.15
     58.9700	 1381.00	 1206.45	-1556.70	  381.27
     59.0700	 1469.00	 1230.54	-1492.79	  381.40
     59.1700	 1359.00	 1229.55	-1601.80	  381.52
     59.2700	 1427.00	 1207.67	-1511.92	  381.64
     59.3700	 1359.00	 1176.86	-1549.11	  381.77
     59.4700	 1263.00	 1149.01	-1617.26	  381.89
     59.5700	 1179.00	 1132.69	-1684.94	  382.02
     59.6700	 1178.00	 1136.12	-1689.37	  382.15
     59.7700	 1217.00	 1168.20	-1682.45	  382.27
     59.8700	 1271.00	 1233.34	-1693.59	  382.40
     59.9700	 1367.00	 1325.61	-1689.86	  382.53
     60.0700	 1543.00	 1426.50	-1614.75	  382.66
     60.1700	 1487.00	 1506.08	-1750.33	  382.79
     60.2700	 1606.00	 1531.01	-1656.26	  382.92
     60.3700	 1545.00	 1482.59	-1668.84	  383.05
     60.4700	 1405.00	 1370.32	-1696.57	  383.18
     60.5700	 1250.00	 1222.98	-1704.23	  383.32
     60.6700	 1138.00	 1070.05	-1663.30	  383.45
     60.7700	  950.00	  932.58	-1713.83	  383.58
     60.8700	  831.00	  822.12	-1722.37	  383.72
     60.9700	  695.00	  742.37	-1778.62	  383.85
     61.0700	  675.00	  691.85	-1748.10	  383.99
     61.1700	  635.00	  667.11	-1763.36	  384.12
     61.2700	  647.00	  665.41	-1749.66	  384.26
     61.3700	  656.00	  686.39	-1761.64	  384.39
     61.4700	  724.00	  731.97	-1739.22	  384.53
     61.5700	  771.00	  805.12	-1765.37	  384.67
     61.6700	  830.00	  907.29	-1808.54	  384.81
     61.7700	  945.00	 1035.51	-1821.76	  384.94
     61.8700	 1145.00	 1179.82	-1766.07	  385.08
     61.9700	 1259.00	 1321.66	-1793.91	  385.22
     62.0700	 1376.00	 1434.06	-1789.31	  385.36
     62.1700	 1395.00	 1487.43	-1823.68	  385.50
     62.2700	 1372.00	 1464.10	-1823.35	  385.64
     62.3700	 1294.00	 1371.32	-1808.57	  385.78
     62.4700	 1140.00	 1235.66	-1826.91	  385.92
     62.5700	 1009.00	 1086.52	-1808.77	  386.06
     62.6700	  882.00	  946.21	-1795.46	  386.20
     62.7700	  701.00	  827.99	-1858.24	  386.35
     62.8700	  656.00	  737.05	-1812.30	  386.49
     62.9700	  658.00	  672.45	-1745.70	  386.63
     63.0700	  616.00	  629.74	-1744.99	  386.77
     63.1700	  578.00	  603.23	-1756.48	  386.92
     63.2700	  578.00	  587.81	-1741.06	  387.06
     63.3700	  581.00	  579.73	-1729.98	  387.20
     63.4700	  605.00	  576.85	-1703.10	  387.35
     63.5700	  626.00	  578.48	-1683.73	  387.49
     63.6700	  599.00	  585.15	-1717.40	  387.63
     63.7700	  643.00	  598.35	-1686.60	  387.78
     63.8700	  612.00	  620.12	-1739.37	  387.92
     63.9700	  694.00	  652.48	-1689.73	  388.07
     64.0700	  744.00	  696.65	-1683.90	  388.21
     64.1700	  814.00	  752.14	-1669.39	  388.36
     64.2700	  818.00	  815.79	-1729.04	  388.50
     64.3700	  961.00	  881.29	-1651.54	  388.65
     64.4700	 1074.00	  938.63	-1595.88	  388.79
     64.5700	 1014.00	  977.78	-1695.03	  388.94
     64.6700	 1019.00	  990.19	-1702.44	  389.08
     64.7700	  969.00	  974.55	-1736.80	  389.23
     64.8700	  973.00	  935.98	-1694.23	  389.38
     64.9700	  899.00	  883.15	-1715.40	  389.52
     65.0700	  866.00	  825.60	-1690.85	  389.67
     65.1700	  799.00	  770.88	-1703.13	  389.81
     65.2700	  718.00	  723.24	-1736.49	  389.96
     65.3700	  713.00	  683.84	-1702.09	  390.10
     65.4700	  645.00	  652.15	-1738.40	  390.25
     65.5700	  616.00	  627.15	-1742.40	  390.40
     65.6700	  558.00	  607.87	-1781.12	  390.54
     65.7700	  524.00	  593.41	-1800.66	  390.69
     65.8700	  537.00	  582.94	-1777.19	  390.83
     65.9700	  546.00	  575.78	-1761.03	  390.98
     66.0700	  543.00	  571.35	-1759.60	  391.13
     66.1700	  514.00	  569.16	-1786.41	  391.27
     66.2700	  588.00	  568.83	-1712.08	  391.42
     66.3700	  511.00	  570.20	-1790.45	  391.56
     66.4700	  586.00	  572.91	-1718.16	  391.71
     66.5700	  562.00	  577.18	-1746.43	  391.85
     66.6700	  581.00	  583.49	-1733.74	  392.00
     66.7700	  585.00	  592.88	-1739.13	  392.14
     66.8700	  628.00	  607.27	-1710.52	  392.29
     66.9700	  602.00	  629.93	-1759.18	  392.43
     67.0700	  601.00	  665.86	-1796.11	  392.58
     67.1700	  678.00	  722.00	-1775.25	  392.72
     67.2700	  773.00	  806.80	-1765.05	  392.86
     67.3700	  876.00	  929.06	-1784.31	  393.01
     67.4700	 1134.00	 1095.10	-1692.35	  393.15
     67.5700	 1315.00	 1306.43	-1722.68	  393.29
     67.6700	 1569.00	 1555.95	-1718.20	  393.44
     67.7700	 1871.00	 1825.66	-1685.91	  393.58
     67.8700	 2135.00	 2085.64	-1681.89	  393.72
     67.9700	 2414.00	 2295.01	-1612.26	  393.87
     68.0700	 2391.00	 2409.34	-1749.59	  394.01
     68.1700	 2351.00	 2398.75	-1779.00	  394.15
     68.2700	 2265.00	 2266.48	-1732.73	  394.29
     68.3700	 1992.00	 2046.02	-1785.27	  394.43
     68.4700	 1789.00	 1782.27	-1724.52	  394.57
     68.5700	 1547.00	 1514.46	-1698.71	  394.71
     68.6700	 1285.00	 1270.73	-1716.98	  394.85
     68.7700	 1102.00	 1067.11	-1696.36	  394.99
     68.8700	  911.00	  909.02	-1729.27	  395.13
     68.9700	  764.00	  794.08	-1761.33	  395.27
     69.0700	  726.00	  715.13	-1720.38	  395.41
     69.1700	  660.00	  663.38	-1734.63	  395.55
     69.2700	  628.00	  630.57	-1733.82	  395.68
     69.3700	  596.00	  610.06	-1745.31	  395.82
     69.4700	  579.00	  597.15	-1749.40	  395.96
     69.5700	  550.00	  588.80	-1770.05	  396.09
     69.6700	  571.00	  583.20	-1743.45	  396.23
     69.7700	  576.00	  579.34	-1734.59	  396.37
     69.8700	  595.00	  576.70	-1712.95	  396.50
     69.9700	  581.00	  575.02	-1725.27	  396.63
     70.0700	  594.00	  574.12	-1711.37	  396.77
     70.1700	  620.00	  573.99	-1685.24	  396.90
     70.2700	  637.00	  574.66	-1668.91	  397.03
     70.3700	  544.00	  576.27	-1763.52	  397.17
     70.4700	  597.00	  579.11	-1713.36	  397.30
     70.5700	  613.00	  583.74	-1701.99	  397.43
     70.6700	  548.00	  591.17	-1774.42	  397.56
     70.7700	  584.00	  603.10	-1750.35	  397.69
     70.8700	  613.00	  622.10	-1740.35	  397.82
     70.9700	  653.00	  651.90	-1730.15	  397.95
     71.0700	  717.00	  697.30	-1711.55	  398.08
     71.1700	  767.00	  763.80	-1728.05	  398.20
     71.2700	  789.00	  856.66	-1798.91	  398.33
     71.3700	  957.00	  979.36	-1753.61	  398.46
     71.4700	 1118.00	 1131.91	-1745.16	  398.58
     71.5700	 1315.00	 1309.15	-1725.40	  398.71
     71.6700	 1506.00	 1499.48	-1724.73	  398.83
     71.7700	 1599.00	 1685.05	-1817.30	  398.96
     71.8700	 1753.00	 1839.39	-1817.64	  399.08
     71.9700	 1949.00	 1935.69	-1717.94	  399.20
     72.0700	 1866.00	 1952.66	-1817.91	  399.32
     72.1700	 1867.00	 1886.18	-1750.43	  399.44
     72.2700	 1723.00	 1751.85	-1760.10	  399.56
     72.3700	 1601.00	 1576.17	-1706.42	  399.68
     72.4700	 1400.00	 1385.79	-1717.04	  399.80
     72.5700	 1319.00	 1201.42	-1613.67	  399.92
     72.6700	 1128.00	 1038.18	-1641.43	  400.04
     72.7700	  987.00	  903.16	-1647.41	  400.15
     72.8700	  889.00	  798.14	-1640.39	  400.27
     72.9700	  795.00	  720.76	-1657.01	  400.38
     73.0700	  779.00	  666.34	-1618.59	  400.50
     73.1700	  728.00	  629.45	-1632.70	  400.61
     73.2700	  696.00	  605.05	-1640.30	  400.72
     73.3700	  658.00	  589.04	-1662.29	  400.83
     73.4700	  588.00	  578.45	-1721.70	  400.94
     73.5700	  641.00	  571.28	-1661.53	  401.05
     73.6700	  591.00	  566.31	-1706.56	  401.16
     73.7700	  631.00	  562.82	-1663.07	  401.27
     73.8700	  575.00	  560.39	-1716.64	  401.37
     73.9700	  570.00	  558.77	-1720.02	  401.48
     74.0700	  655.00	  557.79	-1634.04	  401.59
     74.1700	  585.00	  557.31	-1703.56	  401.69
     74.2700	  631.00	  557.17	-1657.42	  401.79
     74.3700	  638.00	  557.18	-1650.43	  401.90
     74.4700	  637.00	  557.15	-1651.40	  402.00
     74.5700	  608.00	  556.86	-1680.11	  402.10
     74.6700	  641.00	  556.18	-1646.43	  402.20
     74.7700	  638.00	  555.12	-1648.37	  402.30
     74.8700	  639.00	  553.80	-1646.05	  402.39
     74.9700	  600.00	  552.44	-1683.69	  402.49
     75.0700	  579.00	  551.27	-1703.52	  402.58
     75.1700	  603.00	  550.66	-1678.91	  402.68
     75.2700	  582.00	  550.90	-1700.15	  402.77
     75.3700	  609.00	  552.37	-1674.62	  402.86
     75.4700	  578.00	  555.53	-1708.78	  402.96
     75.5700	  592.00	  560.81	-1700.06	  403.05
     75.6700	  589.00	  568.90	-1711.15	  403.14
     75.7700	  588.00	  580.14	-1723.39	  403.22
     75.8700	  613.00	  594.85	-1713.10	  403.31
     75.9700	  538.00	  612.85	-1806.10	  403.40
     76.0700	  636.00	  633.50	-1728.75	  403.48
     76.1700	  650.00	  655.56	-1736.81	  403.57
     76.2700	  626.00	  677.15	-1782.40	  403.65
     76.3700	  712.00	  695.79	-1715.04	  403.73
     76.4700	  684.00	  708.72	-1755.97	  403.81
     76.5700	  699.00	  713.55	-1745.80	  403.89
     76.6700	  720.00	  709.24	-1720.49	  403.97
     76.7700	  668.00	  696.68	-1759.93	  404.05
     76.8700	  668.00	  678.16	-1741.41	  404.12
     76.9700	  643.00	  656.25	-1744.50	  404.20
     77.0700	  616.00	  633.85	-1749.10	  404.27
     77.1700	  564.00	  612.67	-1779.92	  404.34
     77.2700	  598.00	  594.01	-1727.26	  404.41
     77.3700	  589.00	  578.54	-1720.79	  404.48
     77.4700	  568.00	  566.38	-1729.63	  404.55
     77.5700	  550.00	  557.29	-1738.54	  404.62
     77.6700	  521.00	  550.79	-1761.04	  404.69
     77.7700	  527.00	  546.31	-1750.56	  404.75
     77.8700	  506.00	  543.32	-1768.57	  404.82
     77.9700	  515.00	  541.36	-1757.61	  404.88
     78.0700	  491.00	  540.09	-1780.34	  404.94
     78.1700	  522.00	  539.27	-1748.52	  405.00
     78.2700	  522.00	  538.74	-1747.99	  405.06
     78.3700	  529.00	  538.41	-1740.66	  405.12
     78.4700	  551.00	  538.22	-1718.47	  405.18
     78.5700	  519.00	  538.15	-1750.40	  405.23
     78.6700	  516.00	  538.20	-1753.45	  405.28
     78.7700	  542.00	  538.38	-1727.63	  405.34
     78.8700	  511.00	  538.73	-1758.98	  405.39
     78.9700	  479.00	  539.27	-1791.52	  405.44
     79.0700	  495.00	  540.05	-1776.30	  405.49
     79.1700	  509.00	  541.13	-1763.38	  405.53
     79.2700	  573.00	  542.54	-1700.79	  405.58
     79.3700	  490.00	  544.34	-1785.59	  405.63
     79.4700	  552.00	  546.39	-1725.64	  405.67
     79.5700	  514.00	  549.09	-1766.34	  405.71
     79.6700	  500.00	  552.29	-1783.54	  405.75
     79.7700	  541.00	  556.05	-1746.30	  405.79
     79.8700	  537.00	  560.45	-1754.70	  405.83
     79.9700	  567.00	  565.62	-1729.87	  405.87
     80.0700	  557.00	  571.77	-1746.02	  405.90
     80.1700	  539.00	  579.21	-1771.46	  405.94
     80.2700	  511.00	  588.30	-1808.55	  405.97
     80.3700	  518.00	  599.40	-1812.65	  406.00
     80.4700	  627.00	  612.70	-1716.95	  406.03
     80.5700	  611.00	  628.15	-1748.40	  406.06
     80.6700	  641.00	  645.36	-1735.61	  406.09
     80.7700	  631.00	  663.55	-1763.80	  406.11
     80.8700	  684.00	  681.61	-1728.86	  406.14
     80.9700	  691.00	  698.22	-1738.47	  406.16
     81.0700	  695.00	  712.13	-1748.38	  406.18
     81.1700	  758.00	  722.26	-1695.51	  406.20
     81.2700	  712.00	  727.88	-1747.13	  406.22
     81.3700	  797.00	  728.56	-1662.81	  406.23
     81.4700	  694.00	  724.33	-1761.58	  406.25
     81.5700	  770.00	  715.62	-1676.87	  406.26
     81.6700	  791.00	  703.11	-1643.36	  406.28
     81.7700	  801.00	  687.66	-1617.91	  406.29
     81.8700	  728.00	  670.35	-1673.60	  406.30
     81.9700	  704.00	  652.35	-1679.60	  406.31
     82.0700	  704.00	  634.74	-1661.99	  406.31
     82.1700	  657.00	  618.35	-1692.60	  406.32
     82.2700	  649.00	  603.68	-1685.93	  406.32
     82.3700	  662.00	  590.94	-1660.19	  406.33
     82.4700	  597.00	  580.33	-1714.58	  406.33
     82.5700	  583.00	  571.77	-1720.02	  406.33
     82.6700	  473.00	  565.20	-1823.45	  406.32
     82.7700	  591.00	  560.48	-1700.73	  406.32
     82.8700	  568.00	  557.56	-1720.81	  406.32
     82.9700	  547.00	  556.31	-1740.56	  406.31
     83.0700	  594.00	  556.61	-1693.86	  406.30
     83.1700	  591.00	  558.38	-1698.63	  406.29
     83.2700	  500.00	  561.47	-1792.72	  406.28
     83.3700	  527.00	  565.70	-1769.95	  406.27
     83.4700	  562.00	  570.79	-1740.04	  406.25
     83.5700	  581.00	  576.37	-1726.62	  406.24
     83.6700	  619.00	  581.97	-1694.22	  406.22
     83.7700	  525.00	  587.03	-1793.28	  406.20
     83.8700	  556.00	  590.91	-1766.16	  406.18
     83.9700	  538.00	  593.03	-1786.28	  406.16
     84.0700	  584.00	  593.02	-1740.27	  406.14
     84.1700	  560.00	  590.84	-1762.09	  406.11
     84.2700	  621.00	  586.79	-1697.04	  406.08
     84.3700	  551.00	  581.41	-1761.66	  406.06
     84.4700	  614.00	  575.28	-1692.53	  406.03
     84.5700	  575.00	  568.95	-1725.20	  406.00
     84.6700	  608.00	  562.85	-1686.10	  405.96
     84.7700	  558.00	  557.30	-1730.55	  405.93
     84.8700	  511.00	  552.50	-1772.75	  405.89
     84.9700	  517.00	  548.53	-1762.78	  405.86
     85.0700	  520.00	  545.41	-1756.66	  405.82
     85.1700	  553.00	  543.05	-1721.30	  405.78
     85.2700	  506.00	  541.38	-1766.63	  405.74
     85.3700	  527.00	  540.27	-1744.52	  405.69
     85.4700	  568.00	  539.64	-1702.89	  405.65
     85.5700	  531.00	  539.40	-1739.65	  405.60
     85.6700	  515.00	  539.52	-1755.77	  405.55
     85.7700	  554.00	  540.00	-1717.25	  405.50
     85.8700	  561.00	  540.88	-1711.13	  405.45
     85.9700	  560.00	  542.25	-1713.50	  405.40
     86.0700	  469.00	  544.23	-1806.48	  405.34
     86.1700	  539.00	  547.00	-1739.25	  405.29
     86.2700	  571.00	  550.75	-1711.00	  405.23
     86.3700	  532.00	  555.67	-1754.92	  405.17
     86.4700	  581.00	  561.93	-1712.18	  405.11
     86.5700	  540.00	  569.64	-1760.89	  405.05
     86.6700	  630.00	  578.81	-1680.06	  404.98
     86.7700	  631.00	  589.27	-1689.52	  404.92
     86.8700	  627.00	  600.71	-1704.96	  404.85
     86.9700	  593.00	  612.58	-1750.83	  404.78
     87.0700	  623.00	  623.84	-1732.09	  404.71
     87.1700	  620.00	  634.27	-1745.52	  404.64
     87.2700	  667.00	  642.53	-1706.78	  404.57
     87.3700	  672.00	  647.68	-1706.93	  404.49
     87.4700	  702.00	  649.07	-1678.32	  404.42
     87.5700	  668.00	  646.52	-1709.77	  404.34
     87.6700	  639.00	  640.47	-1732.72	  404.26
     87.7700	  654.00	  631.76	-1709.01	  404.18
     87.8700	  632.00	  621.42	-1720.67	  404.09
     87.9700	  632.00	  610.49	-1709.74	  404.01
     88.0700	  609.00	  599.89	-1722.14	  403.92
     88.1700	  599.00	  590.37	-1722.62	  403.84
     88.2700	  549.00	  582.49	-1764.74	  403.75
     88.3700	  620.00	  576.60	-1687.85	  403.66
     88.4700	  585.00	  572.87	-1719.12	  403.56
     88.5700	  603.00	  571.27	-1699.52	  403.47
     88.6700	  611.00	  571.62	-1691.87	  403.38
     88.7700	  659.00	  573.61	-1645.86	  403.28
     88.8700	  604.00	  576.83	-1704.08	  403.18
     88.9700	  636.00	  580.79	-1676.04	  403.08
     89.0700	  581.00	  584.94	-1735.19	  402.98
     89.1700	  579.00	  588.72	-1740.97	  402.88
     89.2700	  631.00	  591.56	-1691.81	  402.77
     89.3700	  593.00	  593.00	-1731.25	  402.67
     89.4700	  597.00	  592.73	-1726.98	  402.56
     89.5700	  587.00	  590.73	-1734.98	  402.45
     89.6700	  570.00	  587.20	-1748.45	  402.34
     89.7700	  533.00	  582.54	-1780.79	  402.23
     89.8700	  552.00	  577.17	-1756.42	  402.11
     89.9700	  560.00	  571.52	-1742.77	  402.00
     90.0700	  556.00	  565.94	-1741.19	  401.88
     90.1700	  533.00	  560.73	-1758.98	  401.76
     90.2700	  548.00	  556.06	-1739.31	  401.64
     90.3700	  551.00	  552.08	-1732.33	  401.52
     90.4700	  524.00	  548.81	-1756.06	  401.40
     90.5700	  542.00	  546.25	-1735.50	  401.28
     90.6700	  494.00	  544.35	-1781.60	  401.15
     90.7700	  513.00	  543.04	-1761.29	  401.02
     90.8700	  563.00	  542.24	-1710.49	  400.89
     90.9700	  486.00	  541.88	-1787.13	  400.76
     91.0700	  518.00	  541.92	-1755.17	  400.63
     91.1700	  522.00	  542.35	-1751.60	  400.50
     91.2700	  503.00	  543.18	-1771.43	  400.36
     91.3700	  523.00	  544.47	-1752.72	  400.23
     91.4700	  511.00	  546.33	-1766.58	  400.09
     91.5700	  514.00	  548.88	-1766.13	  399.95
     91.6700	  525.00	  552.31	-1758.56	  399.81
     91.7700	  542.00	  556.83	-1746.08	  399.67
     91.8700	  538.00	  562.65	-1755.90	  399.53
     91.9700	  555.00	  569.98	-1746.23	  399.38
     92.0700	  568.00	  579.02	-1742.27	  399.24
     92.1700	  607.00	  589.88	-1714.13	  399.09
     92.2700	  565.00	  602.39	-1768.64	  398.94
     92.3700	  601.00	  616.95	-1747.20	  398.79
     92.4700	  619.00	  633.14	-1745.39	  398.64
     92.5700	  623.00	  650.61	-1758.86	  398.49
     92.6700	  686.00	  668.88	-1714.13	  398.33
     92.7700	  719.00	  687.34	-1699.59	  398.18
     92.8700	  651.00	  705.25	-1785.50	  398.02
     92.9700	  763.00	  721.86	-1690.11	  397.86
     93.0700	  724.00	  736.56	-1743.81	  397.70
     93.1700	  726.00	  749.03	-1754.28	  397.54
     93.2700	  792.00	  759.34	-1698.59	  397.38
     93.3700	  865.00	  767.90	-1634.15	  397.21
     93.4700	  814.00	  775.28	-1692.53	  397.05
     93.5700	  849.00	  782.06	-1664.31	  396.88
     93.6700	  819.00	  788.78	-1701.03	  396.72
     93.7700	  818.00	  795.92	-1709.17	  396.55
     93.8700	  877.00	  803.98	-1658.23	  396.38
     93.9700	  828.00	  813.44	-1716.69	  396.21
     94.0700	  843.00	  824.76	-1713.01	  396.03
     94.1700	  859.00	  838.11	-1710.36	  395.86
     94.2700	  863.00	  853.30	-1721.55	  395.68
     94.3700	  888.00	  869.68	-1712.93	  395.51
     94.4700	  870.00	  886.12	-1747.37	  395.33
     94.5700	  930.00	  901.08	-1702.33	  395.15
     94.6700	  951.00	  912.76	-1693.01	  394.97
     94.7700	  934.00	  919.30	-1716.55	  394.79
     94.8700	  888.00	  919.19	-1762.44	  394.61
     94.9700	  918.00	  911.66	-1724.91	  394.42
     95.0700	  923.00	  896.89	-1705.14	  394.24
     95.1700	  830.00	  875.99	-1777.24	  394.05
     95.2700	  888.00	  850.67	-1693.92	  393.87
     95.3700	  819.00	  822.95	-1735.20	  393.68
     95.4700	  762.00	  794.85	-1764.10	  393.49
     95.5700	  816.00	  768.32	-1683.57	  393.30
     95.6700	  715.00	  745.13	-1761.38	  393.11
     95.7700	  691.00	  726.87	-1767.12	  392.91
     95.8700	  680.00	  714.98	-1766.23	  392.72
     95.9700	  682.00	  710.66	-1759.91	  392.52
     96.0700	  723.00	  714.99	-1723.24	  392.33
     96.1700	  692.00	  728.79	-1768.04	  392.13
     96.2700	  714.00	  752.69	-1769.94	  391.93
     96.3700	  765.00	  787.04	-1753.29	  391.73
     96.4700	  783.00	  831.83	-1780.08	  391.53
     96.5700	  862.00	  886.60	-1755.85	  391.33
     96.6700	  986.00	  950.33	-1695.58	  391.13
     96.7700	  952.00	 1021.38	-1800.63	  390.93
     96.8700	 1127.00	 1097.46	-1701.71	  390.72
     96.9700	 1126.00	 1175.53	-1780.78	  390.52
     97.0700	 1268.00	 1251.96	-1715.21	  390.31
     97.1700	 1346.00	 1322.50	-1707.75	  390.11
     97.2700	 1413.00	 1382.61	-1700.86	  389.90
     97.3700	 1458.00	 1427.83	-1701.08	  389.69
     97.4700	 1418.00	 1454.48	-1767.73	  389.48
     97.5700	 1467.00	 1460.39	-1724.64	  389.27
     97.6700	 1434.00	 1445.42	-1742.67	  389.06
     97.7700	 1343.00	 1411.45	-1799.70	  388.85
     97.8700	 1324.00	 1361.84	-1769.09	  388.64
     97.9700	 1235.00	 1300.78	-1797.03	  388.42
     98.0700	 1260.00	 1232.61	-1703.86	  388.21
     98.1700	 1159.00	 1161.55	-1733.80	  387.99
     98.2700	 1110.00	 1091.39	-1712.64	  387.78
     98.3700	 1015.00	 1025.38	-1741.63	  387.56
     98.4700	  980.00	  966.35	-1717.60	  387.34
     98.5700	  902.00	  916.45	-1745.70	  387.12
     98.6700	  820.00	  877.44	-1788.69	  386.91
     98.7700	  829.00	  850.61	-1752.86	  386.69
     98.8700	  782.00	  836.88	-1786.13	  386.47
     98.9700	  842.00	  836.90	-1726.15	  386.24
     99.0700	  765.00	  851.07	-1817.32	  386.02
     99.1700	  878.00	  879.56	-1732.81	  385.80
     99.2700	  875.00	  922.34	-1778.59	  385.58
     99.3700	  966.00	  979.12	-1744.37	  385.35
     99.4700	 1038.00	 1049.26	-1742.51	  385.13
     99.5700	 1121.00	 1131.72	-1741.97	  384.91
     99.6700	 1232.00	 1224.96	-1724.21	  384.68
     99.7700	 1394.00	 1326.81	-1664.06	  384.46
     99.8700	 1405.00	 1434.43	-1760.68	  384.23
     99.9700	 1627.00	 1544.29	-1648.54	  384.00
    100.0700	 1671.00	 1652.26	-1712.51	  383.78
    100.1700	 1699.00	 1753.83	-1786.08	  383.55
    100.2700	 1850.00	 1844.55	-1725.80	  383.32
    100.3700	 1917.00	 1920.54	-1734.79	  383.09
    100.4700	 1891.00	 1978.81	-1819.06	  382.86
    100.5700	 1999.00	 2017.39	-1749.64	  382.63
    100.6700	 2103.00	 2035.07	-1663.32	  382.40
    100.7700	 2076.00	 2031.30	-1686.55	  382.17
    100.8700	 2078.00	 2006.21	-1659.46	  381.94
    100.9700	 2020.00	 1960.89	-1672.14	  381.71
    101.0700	 1966.00	 1897.70	-1662.95	  381.48
    101.1700	 1805.00	 1820.30	-1746.55	  381.25
    101.2700	 1700.00	 1733.38	-1764.63	  381.02
    101.3700	 1672.00	 1641.95	-1701.20	  380.79
    101.4700	 1615.00	 1550.83	-1667.08	  380.56
    101.5700	 1472.00	 1464.12	-1723.37	  380.33
    101.6700	 1345.00	 1385.04	-1771.29	  380.09
    101.7700	 1340.00	 1315.80	-1707.05	  379.86
    101.8700	 1255.00	 1257.51	-1733.76	  379.63
    101.9700	 1190.00	 1210.32	-1751.57	  379.40
    102.0700	 1161.00	 1173.44	-1743.69	  379.16
    102.1700	 1109.00	 1145.31	-1767.56	  378.93
    102.2700	 1064.00	 1123.79	-1791.04	  378.70
    102.3700	 1058.00	 1106.28	-1779.53	  378.47
    102.4700	 1070.00	 1090.09	-1751.34	  378.23
    102.5700	 1071.00	 1072.73	-1732.98	  378.00
    102.6700	 1121.00	 1052.28	-1662.53	  377.77
    102.7700	 1089.00	 1027.58	-1669.83	  377.54
    102.8700	  951.00	  998.32	-1778.57	  377.30
    102.9700	  982.00	  964.93	-1714.18	  377.07
    103.0700	  944.00	  928.30	-1715.55	  376.84
    103.1700	  886.00	  889.61	-1734.86	  376.61
    103.2700	  812.00	  850.07	-1769.32	  376.38
    103.3700	  833.00	  810.88	-1709.13	  376.14
    103.4700	  764.00	  773.09	-1740.34	  375.91
    103.5700	  709.00	  737.58	-1759.83	  375.68
    103.6700	  738.00	  705.01	-1698.26	  375.45
    103.7700	  705.00	  675.83	-1702.08	  375.22
    103.8700	  658.00	  650.28	-1723.53	  374.99
    103.9700	  620.00	  628.41	-1739.66	  374.76
    104.0700	  680.00	  610.11	-1661.36	  374.53
    104.1700	  615.00	  595.13	-1711.38	  374.30
    104.2700	  567.00	  583.15	-1747.40	  374.07
    104.3700	  589.00	  573.82	-1716.07	  373.84
    104.4700	  533.00	  566.75	-1765.00	  373.62
    104.5700	  550.00	  561.57	-1742.82	  373.39
    104.6700	  585.00	  557.97	-1704.22	  373.16
    104.7700	  539.00	  555.62	-1747.87	  372.94
    104.8700	  583.00	  554.30	-1702.55	  372.71
    104.9700	  562.00	  553.82	-1723.07	  372.49
    105.0700	  566.00	  554.01	-1719.26	  372.26
    105.1700	  498.00	  554.76	-1788.01	  372.04
    105.2700	  547.00	  556.04	-1740.29	  371.81
    105.3700	  554.00	  557.79	-1735.04	  371.59
    105.4700	  542.00	  560.03	-1749.28	  371.37
    105.5700	  529.00	  562.84	-1765.08	  371.15
    105.6700	  538.00	  566.26	-1759.51	  370.93
    105.7700	  596.00	  570.41	-1705.66	  370.71
    105.8700	  548.00	  575.37	-1758.62	  370.49
    105.9700	  602.00	  581.24	-1710.49	  370.28
    106.0700	  544.00	  588.05	-1775.30	  370.06
    106.1700	  583.00	  595.82	-1744.07	  369.84
    106.2700	  618.00	  604.48	-1717.73	  369.63
    106.3700	  585.00	  613.93	-1760.18	  369.42
    106.4700	  670.00	  623.98	-1685.23	  369.20
    106.5700	  623.00	  634.39	-1742.64	  368.99
    106.6700	  653.00	  644.87	-1723.12	  368.78
    106.7700	  658.00	  655.07	-1728.32	  368.57
    106.8700	  672.00	  664.62	-1723.87	  368.36
    106.9700	  665.00	  673.13	-1739.38	  368.16
    107.0700	  665.00	  680.25	-1746.50	  367.95
    107.1700	  680.00	  685.73	-1736.98	  367.75
    107.2700	  713.00	  689.44	-1707.69	  367.54
    107.3700	  721.00	  691.42	-1701.67	  367.34
    107.4700	  706.00	  691.87	-1717.12	  367.14
    107.5700	  657.00	  691.12	-1765.37	  366.94
    107.6700	  706.00	  689.61	-1714.86	  366.74
    107.7700	  711.00	  687.74	-1707.99	  366.55
    107.8700	  700.00	  685.92	-1717.17	  366.35
    107.9700	  678.00	  684.45	-1737.70	  366.16
    108.0700	  687.00	  683.54	-1727.79	  365.96
    108.1700	  702.00	  683.31	-1712.56	  365.77
    108.2700	  691.00	  683.74	-1723.99	  365.58
    108.3700	  668.00	  684.70	-1747.95	  365.40
    108.4700	  723.00	  685.96	-1694.21	  365.21
    108.5700	  678.00	  687.20	-1740.45	  365.03
    108.6700	  668.00	  688.05	-1751.30	  364.85
    108.7700	  688.00	  688.10	-1731.35	  364.66
    108.8700	  672.00	  686.97	-1746.22	  364.49
    108.9700	  684.00	  684.36	-1731.61	  364.31
    109.0700	  676.00	  680.14	-1735.39	  364.13
    109.1700	  686.00	  674.27	-1719.52	  363.96
    109.2700	  651.00	  666.88	-1747.13	  363.79
    109.3700	  704.00	  658.21	-1685.46	  363.62
    109.4700	  649.00	  648.58	-1730.83	  363.45
    109.5700	  650.00	  638.30	-1719.55	  363.29
    109.6700	  608.00	  627.73	-1750.98	  363.12
    109.7700	  666.00	  617.16	-1682.41	  362.96
    109.8700	  611.00	  606.90	-1727.15	  362.80
    109.9700	  594.00	  597.16	-1734.41	  362.65
    110.0700	  570.00	  588.15	-1749.40	  362.49
    110.1700	  626.00	  580.01	-1685.26	  362.34
    110.2700	  587.00	  572.83	-1717.08	  362.19
    110.3700	  563.00	  566.65	-1734.90	  362.04
    110.4700	  575.00	  561.49	-1717.74	  361.90
    110.5700	  536.00	  557.30	-1752.55	  361.75
    110.6700	  498.00	  554.04	-1787.29	  361.61
    110.7700	  571.00	  551.63	-1711.88	  361.47
    110.8700	  561.00	  549.98	-1720.23	  361.34
    110.9700	  573.00	  549.01	-1707.26	  361.20
    111.0700	  508.00	  548.62	-1771.87	  361.07
    111.1700	  536.00	  548.74	-1743.99	  360.95
    111.2700	  568.00	  549.29	-1712.54	  360.82
    111.3700	  548.00	  550.20	-1733.45	  360.70
    111.4700	  531.00	  551.42	-1751.67	  360.58
    111.5700	  549.00	  552.91	-1735.16	  360.46
    111.6700	  570.00	  554.63	-1715.88	  360.35
    111.7700	  559.00	  556.56	-1728.81	  360.23
    111.8700	  521.00	  558.69	-1768.94	  360.13
    111.9700	  583.00	  561.01	-1709.26	  360.02
    112.0700	  562.00	  563.52	-1732.77	  359.92
    112.1700	  525.00	  566.24	-1772.49	  359.82
    112.2700	  559.00	  569.19	-1741.44	  359.72
    112.3700	  549.00	  572.39	-1754.64	  359.63
    112.4700	  590.00	  575.89	-1717.14	  359.54
    112.5700	  582.00	  579.74	-1728.99	  359.45
    112.6700	  612.00	  584.00	-1703.25	  359.37
    112.7700	  608.00	  588.76	-1712.01	  359.29
    112.8700	  621.00	  594.12	-1704.37	  359.21
    112.9700	  616.00	  600.23	-1715.48	  359.13
    113.0700	  584.00	  607.28	-1754.53	  359.06
    113.1700	  654.00	  615.51	-1692.76	  359.00
    113.2700	  727.00	  625.24	-1629.49	  358.93
    113.3700	  641.00	  636.88	-1727.13	  358.87
    113.4700	  699.00	  650.92	-1683.17	  358.82
    113.5700	  680.00	  668.03	-1719.28	  358.76
    113.6700	  778.00	  688.98	-1642.23	  358.71
    113.7700	  838.00	  714.77	-1608.02	  358.67
    113.8700	  866.00	  746.57	-1611.82	  358.63
    113.9700	  874.00	  785.76	-1643.01	  358.59
    114.0700	  922.00	  833.96	-1643.21	  358.55
    114.1700	  916.00	  892.97	-1708.22	  358.52
    114.2700	 1046.00	  964.86	-1650.11	  358.50
    114.3700	 1171.00	 1051.83	-1612.08	  358.47
    114.4700	 1328.00	 1156.22	-1559.47	  358.46
    114.5700	 1383.00	 1280.42	-1628.67	  358.44
    114.6700	 1541.00	 1426.72	-1616.97	  358.43
    114.7700	 1744.00	 1597.30	-1584.55	  358.42
    114.8700	 1905.00	 1794.05	-1620.30	  358.42
    114.9700	 2164.00	 2018.31	-1585.56	  358.42
    115.0700	 2375.00	 2270.84	-1627.09	  358.43
    115.1700	 2546.00	 2551.56	-1736.81	  358.44
    115.2700	 2836.00	 2859.52	-1754.77	  358.46
    115.3700	 3202.00	 3192.73	-1721.98	  358.48
    115.4700	 3505.00	 3547.93	-1774.18	  358.50
    115.5700	 3821.00	 3920.65	-1830.90	  358.53
    115.6700	 4115.00	 4305.14	-1921.39	  358.56
    115.7700	 4592.00	 4694.49	-1833.74	  358.60
    115.8700	 4759.00	 5080.65	-2052.90	  358.64
    115.9700	 5382.00	 5454.34	-1803.59	  358.69
    116.0700	 5663.00	 5805.49	-1873.74	  358.74
    116.1700	 6039.00	 6123.40	-1815.65	  358.80
    116.2700	 6327.00	 6397.31	-1801.56	  358.86
    116.3700	 6625.00	 6616.93	-1723.18	  358.93
    116.4700	 6654.00	 6773.20	-1850.45	  359.00
    116.5700	 6807.00	 6859.29	-1783.54	  359.08
    116.6700	 6925.00	 6871.37	-1677.62	  359.16
    116.7700	 6855.00	 6809.18	-1685.43	  359.25
    116.8700	 6792.00	 6675.93	-1615.18	  359.34
    116.9700	 6452.00	 6477.96	-1757.21	  359.44
    117.0700	 6282.00	 6223.96	-1673.21	  359.54
    117.1700	 5876.00	 5924.07	-1779.32	  359.65
    117.2700	 5559.00	 5588.92	-1761.17	  359.76
    117.3700	 5156.00	 5229.07	-1804.32	  359.88
    117.4700	 4761.00	 4854.63	-1824.88	  360.01
    117.5700	 4496.00	 4474.79	-1710.04	  360.14
    117.6700	 4238.00	 4097.76	-1591.01	  360.27
    117.7700	 3818.00	 3730.44	-1643.69	  360.41
    117.8700	 3482.00	 3378.50	-1627.75	  360.56
    117.9700	 3177.00	 3046.48	-1600.73	  360.71
    118.0700	 2834.00	 2737.66	-1634.91	  360.87
    118.1700	 2526.00	 2454.23	-1659.48	  361.04
    118.2700	 2128.00	 2197.25	-1800.50	  361.21
    118.3700	 1966.00	 1966.93	-1732.18	  361.38
    118.4700	 1689.00	 1762.78	-1805.03	  361.57
    118.5700	 1559.00	 1583.68	-1755.93	  361.75
    118.6700	 1460.00	 1428.08	-1699.33	  361.95
    118.7700	 1215.00	 1294.06	-1810.31	  362.15
    118.8700	 1085.00	 1179.52	-1825.77	  362.36
    118.9700	 1103.00	 1082.34	-1710.59	  362.57
    119.0700	  963.00	 1000.37	-1768.62	  362.79
    119.1700	  899.00	  931.58	-1763.83	  363.02
    119.2700	  781.00	  874.07	-1824.32	  363.25
    119.3700	  817.00	  826.11	-1740.36	  363.49
    119.4700	  756.00	  786.19	-1761.44	  363.74
    119.5700	  734.00	  752.98	-1750.23	  363.99
    119.6700	  657.00	  725.34	-1799.59	  364.25
    119.7700	  646.00	  702.33	-1787.58	  364.52
    119.8700	  657.00	  683.14	-1757.39	  364.79
    119.9700	  640.00	  667.12	-1758.37	  365.07
    120.0700	  641.00	  653.72	-1743.97	  365.36
    120.1700	  629.00	  642.51	-1744.76	  365.65
    120.2700	  582.00	  633.14	-1782.39	  365.95
    120.3700	  584.00	  625.33	-1772.58	  366.26
    120.4700	  604.00	  618.85	-1746.10	  366.58
    120.5700	  585.00	  613.53	-1759.78	  366.90
    120.6700	  611.00	  609.21	-1729.46	  367.23
    120.7700	  610.00	  605.80	-1727.05	  367.57
    120.8700	  559.00	  603.20	-1775.45	  367.91
    120.9700	  616.00	  601.33	-1716.58	  368.27
    121.0700	  569.00	  600.16	-1762.41	  368.63
    121.1700	  567.00	  599.61	-1763.86	  368.99
    121.2700	  587.00	  599.65	-1743.90	  369.37
    121.3700	  572.00	  600.24	-1759.49	  369.75
    121.4700	  611.00	  601.33	-1721.58	  370.14
    121.5700	  573.00	  602.88	-1761.13	  370.54
    121.6700	  572.00	  604.82	-1764.07	  370.95
    121.7700	  582.00	  607.12	-1756.37	  371.37
    121.8700	  590.00	  609.69	-1750.94	  371.79
    121.9700	  620.00	  612.48	-1723.73	  372.22
    122.0700	  636.00	  615.38	-1710.63	  372.66
    122.1700	  649.00	  618.35	-1700.60	  373.11
    122.2700	  621.00	  621.28	-1731.53	  373.56
    122.3700	  679.00	  624.09	-1676.34	  374.03
    122.4700	  638.00	  626.67	-1719.92	  374.50
    122.5700	  645.00	  628.95	-1715.20	  374.98
    122.6700	  666.00	  630.85	-1696.10	  375.47
    122.7700	  629.00	  632.29	-1734.54	  375.97
    122.8700	  565.00	  633.25	-1799.50	  376.48
    122.9700	  613.00	  633.68	-1751.93	  377.00
    123.0700	  653.00	  633.58	-1711.83	  377.52
    123.1700	  689.00	  633.00	-1675.25	  378.06
    123.2700	  630.00	  631.94	-1733.19	  378.60
    123.3700	  658.00	  630.46	-1703.71	  379.15
    123.4700	  615.00	  628.61	-1744.86	  379.72
    123.5700	  653.00	  626.45	-1704.70	  380.29
    123.6700	  659.00	  624.04	-1696.29	  380.87
    123.7700	  671.00	  621.45	-1681.70	  381.46
    123.8700	  623.00	  618.73	-1726.98	  382.06
    123.9700	  632.00	  615.94	-1715.19	  382.66
    124.0700	  611.00	  613.14	-1733.39	  383.28
    124.1700	  625.00	  610.37	-1716.62	  383.91
    124.2700	  584.00	  607.67	-1754.92	  384.55
    124.3700	  610.00	  605.08	-1726.33	  385.19
    124.4700	  584.00	  602.63	-1749.88	  385.85
    124.5700	  650.00	  600.34	-1681.59	  386.52
    124.6700	  586.00	  598.23	-1743.48	  387.20
    124.7700	  587.00	  596.32	-1740.57	  387.88
    124.8700	  598.00	  594.63	-1727.88	  388.58
    124.9700	  619.00	  508.76	-1621.01	  389.29
    125.0700	  557.00	  509.48	-1731.25	  390.00
    125.1700	  602.00	  510.21	-1731.25	  390.73
    125.2700	  584.00	  510.95	-1731.25	  391.47
    125.3700	  553.00	  511.69	-1731.25	  392.22
    125.4700	  574.00	  512.45	-1731.25	  392.98
    125.5700	  540.00	  513.22	-1731.25	  393.75
    125.6700	  582.00	  514.01	-1731.25	  394.53
    125.7700	  563.00	  514.80	-1731.25	  395.32
    125.8700	  533.00	  515.60	-1731.25	  396.13
    125.9700	  572.00	  516.41	-1731.25	  396.94
    126.0700	  601.00	  517.24	-1731.25	  397.76
    126.1700	  587.00	  518.07	-1731.25	  398.60
    126.2700	  624.00	  518.92	-1731.25	  399.45
    126.3700	  595.00	  519.78	-1731.25	  400.31
    126.4700	  613.00	  520.65	-1731.25	  401.18
    126.5700	  555.00	  521.53	-1731.25	  402.06
    126.6700	  625.00	  522.42	-1731.25	  402.95
    126.7700	  596.00	  523.33	-1731.25	  403.85
    126.8700	  632.00	  524.24	-1731.25	  404.77
    126.9700	  602.00	  525.17	-1731.25	  405.70
    127.0700	  632.00	  526.11	-1731.25	  406.64
    127.1700	  625.00	  527.06	-1731.25	  407.59
    127.2700	  662.00	  528.02	-1731.25	  408.55
    127.3700	  678.00	  529.00	-1731.25	  409.53
    127.4700	  668.00	  529.99	-1731.25	  410.51
    127.5700	  669.00	  530.99	-1731.25	  411.51
    127.6700	  700.00	  532.00	-1731.25	  412.52
    127.7700	  699.00	  533.02	-1731.25	  413.55
    127.8700	  735.00	  534.06	-1731.25	  414.58
    127.9700	  705.00	  535.11	-1731.25	  415.63
    128.0700	  731.00	  536.17	-1731.25	  416.70
    128.1700	  756.00	  537.24	-1731.25	  417.77
    128.2700	  832.00	  538.33	-1731.25	  418.86
    128.3700	  792.00	  539.43	-1731.25	  419.96
    128.4700	  830.00	  540.54	-1731.25	  421.07
    128.5700	    0.00	  541.67	-1731.25	  422.20
    128.6700	    0.00	  542.81	-1731.25	  423.34
     12.2992	        	        	        	        	       0	(  0  0  2)	  0  1
     24.8762	        	        	        	        	       0	(  0  0  4)	  0  1
     28.3267	        	        	        	        	       0	(  1  0  0)	  0  1
     29.0233	        	        	        	        	       0	(  1  0  1)	  0  1
     31.0279	        	        	        	        	       0	(  1  0  2)	  0  1
     34.1338	        	        	        	        	       0	(  1  0  3)	  0  1
     37.7688	        	        	        	        	       0	(  0  0  6)	  0  1
     38.1080	        	        	        	        	       0	(  1  0  4)	  0  1
     42.7548	        	        	        	        	       0	(  1  0  5)	  0  1
     47.9352	        	        	        	        	       0	(  1  0  6)	  0  1
     50.2606	        	        	        	        	       0	(  1  1  0)	  0  1
     51.1827	        	        	        	        	       0	(  0  0  8)	  0  1
     51.9822	        	        	        	        	       0	(  1  1  2)	  0  1
     53.5618	        	        	        	        	       0	(  1  0  7)	  0  1
     56.9259	        	        	        	        	       0	(  1  1  4)	  0  1
     58.7563	        	        	        	        	       0	(  2  0  0)	  0  1
     59.1476	        	        	        	        	       0	(  2  0  1)	  0  1
     59.5879	        	        	        	        	       0	(  1  0  8)	  0  1
     60.3119	        	        	        	        	       0	(  2  0  2)	  0  1
     62.2235	        	        	        	        	       0	(  2  0  3)	  0  1
     64.6143	        	        	        	        	       0	(  1  1  6)	  0  1
     64.8453	        	        	        	        	       0	(  2  0  4)	  0  1
     65.4024	        	        	        	        	       0	(  0  0 10)	  0  1
     65.9995	        	        	        	        	       0	(  1  0  9)	  0  1
     68.1367	        	        	        	        	       0	(  2  0  5)	  0  1
     72.0608	        	        	        	        	       0	(  2  0  6)	  0  1
     72.8103	        	        	        	        	       0	(  1  0 10)	  0  1
     74.6436	        	        	        	        	       0	(  1  1  8)	  0  1
     76.5910	        	        	        	        	       0	(  2  0  7)	  0  1
     80.0619	        	        	        	        	       0	(  1  0 11)	  0  1
     80.8705	        	        	        	        	       0	(  0  0 12)	  0  1
     80.9936	        	        	        	        	       0	(  2  1  0)	  0  1
     81.3332	        	        	        	        	       0	(  2  1  1)	  0  1
     81.7166	        	        	        	        	       0	(  2  0  8)	  0  1
     82.3501	        	        	        	        	       0	(  2  1  2)	  0  1
     84.0398	        	        	        	        	       0	(  2  1  3)	  0  1
     86.3972	        	        	        	        	       0	(  2  1  4)	  0  1
     86.9038	        	        	        	        	       0	(  1  1 10)	  0  1
     87.4492	        	        	        	        	       0	(  2  0  9)	  0  1
     87.8289	        	        	        	        	       0	(  1  0 12)	  0  1
     89.4200	        	        	        	        	       0	(  2  1  5)	  0  1
     93.1138	        	        	        	        	       0	(  2  1  6)	  0  1
     93.8302	        	        	        	        	       0	(  2  0 10)	  0  1
     94.8793	        	        	        	        	       0	(  3  0  0)	  0  1
     95.2163	        	        	        	        	       0	(  3  0  1)	  0  1
     96.2334	        	        	        	        	       0	(  1  0 13)	  0  1
     96.2285	        	        	        	        	       0	(  3  0  2)	  0  1
     97.4978	        	        	        	        	       0	(  2  1  7)	  0  1
     97.9201	        	        	        	        	       0	(  3  0  3)	  0  1
     98.3920	        	        	        	        	       0	(  0  0 14)	  0  1
    100.3006	        	        	        	        	       0	(  3  0  4)	  0  1
    100.9443	        	        	        	        	       0	(  2  0 11)	  0  1
    101.7583	        	        	        	        	       0	(  1  1 12)	  0  1
    102.6147	        	        	        	        	       0	(  2  1  8)	  0  1
    103.3889	        	        	        	        	       0	(  3  0  5)	  0  1
    105.4747	        	        	        	        	       0	(  1  0 14)	  0  1
    107.2197	        	        	        	        	       0	(  3  0  6)	  0  1
    108.5445	        	        	        	        	       0	(  2  1  9)	  0  1
    108.9455	        	        	        	        	       0	(  2  0 12)	  0  1
    111.8546	        	        	        	        	       0	(  3  0  7)	  0  1
    115.4323	        	        	        	        	       0	(  2  1 10)	  0  1
    115.9023	        	        	        	        	       0	(  1  0 15)	  0  1
    116.5974	        	        	        	        	       0	(  2  2  0)	  0  1
    117.4008	        	        	        	        	       0	(  3  0  8)	  0  1
    118.1162	        	        	        	        	       0	(  2  0 13)	  0  1
    118.1107	        	        	        	        	       0	(  2  2  2)	  0  1
    119.8478	        	        	        	        	       0	(  0  0 16)	  0  1
    120.5749	        	        	        	        	       0	(  1  1 14)	  0  1
    122.7903	        	        	        	        	       0	(  2  2  4)	  0  1
    123.5468	        	        	        	        	       0	(  2  1 11)	  0  1
    124.0510	        	        	        	        	       0	(  3  0  9)	  0  1
    124.6589	        	        	        	        	       0	(  3  1  0)	  0  1
    125.0686	        	        	        	        	       0	(  3  1  1)	  0  1
    126.3103	        	        	        	        	       0	(  3  1  2)	  0  1
    128.2207	        	        	        	        	       0	(  1  0 16)	  0  1
    128.4257	        	        	        	        	       0	(  3  1  3)	  0  1
    129.0253	        	        	        	        	       0	(  2  0 14)	  0  1
    131.2179	        	        	        	        	       0	(  2  2  6)	  0  1
    131.4971	        	        	        	        	       0	(  3  1  4)	  0  1
    132.1775	        	        	        	        	       0	(  3  0 10)	  0  1
    133.4399	        	        	        	        	       0	(  2  1 12)	  0  1
    135.6774	        	        	        	        	       0	(  3  1  5)	  0  1
    141.2623	        	        	        	        	       0	(  3  1  6)	  0  1
    142.6315	        	        	        	        	       0	(  3  0 11)	  0  1
    143.1245	        	        	        	        	       0	(  2  0 15)	  0  1
    144.3370	        	        	        	        	       0	(  1  0 17)	  0  1
    145.4228	        	        	        	        	       0	(  2  2  8)	  0  1
    146.5572	        	        	        	        	       0	(  2  1 13)	  0  1
    148.9168	        	        	        	        	       0	(  3  1  7)	  0  1
    149.4216	        	        	        	        	       0	(  1  1 16)	  0  1
    153.7659	        	        	        	        	       0	(  0  0 18)	  0  1
    158.4378	        	        	        	        	       0	(  3  0 12)	  0  1
    158.7732	        	        	        	        	       0	(  4  0  0)	  0  1
    159.7262	        	        	        	        	       0	(  4  0  1)	  0  1
    160.8584	        	        	        	        	       0	(  3  1  8)	  0  1
    162.8894	        	        	        	        	       0	(  4  0  2)	  0  1
    169.2554	        	        	        	        	       0	(  2  0 16)	  0  1
    170.1656	        	        	        	        	       0	(  4  0  3)	  0  1
    173.5064	        	        	        	        	       0	(  2  1 14)	  0  1
