MSG Master    CELL:    5.89614   5.89614  23.17055   90.0000   90.0000  120.0000   SPGR: P 63/m m c             TEMP:    733.05
  1   1280     2.52000     0.00000    -0.12231     0.00000     0.00000    0
    96     0     2
       0.00000      10.00000
     125.00000     130.00000
 2Theta	Yobs	Ycal	Yobs-Ycal	Backg	Posr	(hkl)	K
      0.7700	    0.00	  460.48	-1799.18	  345.36
      0.8700	    0.00	  463.12	-1799.18	  348.00
      0.9700	   43.00	  465.74	-1799.18	  350.62
      1.0700	   39.00	  468.33	-1799.18	  353.21
      1.1700	   52.00	  470.89	-1799.18	  355.77
      1.2700	   44.00	  473.43	-1799.18	  358.31
      1.3700	   54.00	  475.94	-1799.18	  360.82
      1.4700	   95.00	  478.43	-1799.18	  363.31
      1.5700	  268.00	  480.89	-1799.18	  365.77
      1.6700	  429.00	  483.33	-1799.18	  368.21
      1.7700	  575.00	  485.74	-1799.18	  370.62
      1.8700	  685.00	  488.12	-1799.18	  373.00
      1.9700	  701.00	  490.48	-1799.18	  375.36
      2.0700	  754.00	  492.82	-1799.18	  377.70
      2.1700	  806.00	  495.13	-1799.18	  380.01
      2.2700	  763.00	  497.42	-1799.18	  382.30
      2.3700	  692.00	  499.68	-1799.18	  384.56
      2.4700	  679.00	  501.92	-1799.18	  386.80
      2.5700	  688.00	  504.14	-1799.18	  389.02
      2.6700	  624.00	  506.33	-1799.18	  391.21
      2.7700	  700.00	  508.50	-1799.18	  393.38
      2.8700	  631.00	  510.64	-1799.18	  395.52
      2.9700	  656.00	  512.76	-1799.18	  397.64
      3.0700	  638.00	  514.86	-1799.18	  399.74
      3.1700	  601.00	  516.94	-1799.18	  401.81
      3.2700	  697.00	  518.99	-1799.18	  403.87
      3.3700	  862.00	  521.02	-1799.18	  405.90
      3.4700	 1003.00	  523.02	-1799.18	  407.90
      3.5700	 1173.00	  525.01	-1799.18	  409.89
      3.6700	 1287.00	  526.97	-1799.18	  411.85
      3.7700	 1365.00	  528.91	-1799.18	  413.79
      3.8700	 1416.00	  530.82	-1799.18	  415.70
      3.9700	 1478.00	  532.72	-1799.18	  417.60
      4.0700	 1545.00	  534.59	-1799.18	  419.47
      4.1700	 1638.00	  536.44	-1799.18	  421.32
      4.2700	 1605.00	  538.27	-1799.18	  423.15
      4.3700	 1488.00	  540.08	-1799.18	  424.96
      4.4700	 1478.00	  541.87	-1799.18	  426.75
      4.5700	 1513.00	  543.64	-1799.18	  428.51
      4.6700	 1395.00	  545.38	-1799.18	  430.26
      4.7700	 1386.00	  547.10	-1799.18	  431.98
      4.8700	 1331.00	  548.81	-1799.18	  433.69
      4.9700	 1304.00	  550.49	-1799.18	  435.37
      5.0700	 1248.00	  552.15	-1799.18	  437.03
      5.1700	 1187.00	  553.79	-1799.18	  438.67
      5.2700	 1148.00	  555.42	-1799.18	  440.30
      5.3700	 1171.00	  557.02	-1799.18	  441.90
      5.4700	 1152.00	  558.60	-1799.18	  443.48
      5.5700	 1080.00	  560.16	-1799.18	  445.04
      5.6700	 1015.00	  561.70	-1799.18	  446.58
      5.7700	 1060.00	  563.22	-1799.18	  448.10
      5.8700	 1032.00	  564.73	-1799.18	  449.61
      5.9700	 1035.00	  566.21	-1799.18	  451.09
      6.0700	 1043.00	  567.67	-1799.18	  452.55
      6.1700	  955.00	  569.12	-1799.18	  454.00
      6.2700	  906.00	  570.55	-1799.18	  455.43
      6.3700	  950.00	  571.95	-1799.18	  456.83
      6.4700	  917.00	  573.34	-1799.18	  458.22
      6.5700	  840.00	  574.71	-1799.18	  459.59
      6.6700	  850.00	  576.06	-1799.18	  460.94
      6.7700	  853.00	  577.40	-1799.18	  462.28
      6.8700	  828.00	  578.71	-1799.18	  463.59
      6.9700	  806.00	  580.01	-1799.18	  464.89
      7.0700	  781.00	  581.29	-1799.18	  466.17
      7.1700	  792.00	  582.55	-1799.18	  467.43
      7.2700	  811.00	  583.79	-1799.18	  468.67
      7.3700	  774.00	  585.02	-1799.18	  469.89
      7.4700	  776.00	  586.22	-1799.18	  471.10
      7.5700	  794.00	  587.41	-1799.18	  472.29
      7.6700	  814.00	  588.59	-1799.18	  473.47
      7.7700	  745.00	  589.74	-1799.18	  474.62
      7.8700	  766.00	  590.88	-1799.18	  475.76
      7.9700	  739.00	  592.00	-1799.18	  476.88
      8.0700	  660.00	  593.11	-1799.18	  477.99
      8.1700	  703.00	  594.20	-1799.18	  479.08
      8.2700	  749.00	  595.27	-1799.18	  480.15
      8.3700	  757.00	  596.33	-1799.18	  481.21
      8.4700	  709.00	  597.37	-1799.18	  482.25
      8.5700	  721.00	  598.39	-1799.18	  483.27
      8.6700	  742.00	  599.40	-1799.18	  484.28
      8.7700	  723.00	  600.39	-1799.18	  485.27
      8.8700	  718.00	  601.36	-1799.18	  486.24
      8.9700	  691.00	  602.32	-1799.18	  487.20
      9.0700	  739.00	  603.27	-1799.18	  488.15
      9.1700	  699.00	  604.19	-1799.18	  489.07
      9.2700	  718.00	  605.11	-1799.18	  489.99
      9.3700	  699.00	  606.00	-1799.18	  490.88
      9.4700	  666.00	  606.89	-1799.18	  491.77
      9.5700	  694.00	  607.75	-1799.18	  492.63
      9.6700	  649.00	  608.61	-1799.18	  493.49
      9.7700	  635.00	  609.44	-1799.18	  494.32
      9.8700	  698.00	  610.27	-1799.18	  495.15
      9.9700	  606.00	  611.07	-1799.18	  495.95
     10.0700	  706.00	  614.30	-1707.48	  496.75
     10.1700	  667.00	  615.36	-1747.54	  497.53
     10.2700	  685.00	  616.47	-1730.65	  498.29
     10.3700	  657.00	  617.65	-1759.83	  499.04
     10.4700	  696.00	  618.95	-1722.12	  499.78
     10.5700	  667.00	  620.41	-1752.59	  500.50
     10.6700	  703.00	  622.14	-1718.32	  501.21
     10.7700	  665.00	  624.24	-1758.41	  501.90
     10.8700	  638.00	  626.81	-1787.98	  502.58
     10.9700	  656.00	  629.91	-1773.09	  503.25
     11.0700	  649.00	  633.57	-1783.75	  503.90
     11.1700	  647.00	  637.81	-1789.98	  504.54
     11.2700	  665.00	  642.66	-1776.83	  505.17
     11.3700	  703.00	  648.21	-1744.38	  505.79
     11.4700	  673.00	  654.61	-1780.78	  506.39
     11.5700	  696.00	  662.09	-1765.27	  506.97
     11.6700	  687.00	  670.99	-1783.16	  507.55
     11.7700	  700.00	  681.65	-1780.82	  508.11
     11.8700	  764.00	  694.30	-1729.48	  508.66
     11.9700	  728.00	  708.62	-1779.79	  509.20
     12.0700	  788.00	  723.10	-1734.28	  509.72
     12.1700	  708.00	  734.41	-1825.59	  510.24
     12.2700	  766.00	  737.17	-1770.35	  510.74
     12.3700	  759.00	  726.87	-1767.05	  511.22
     12.4700	  714.00	  706.43	-1791.60	  511.70
     12.5700	  692.00	  684.60	-1791.77	  512.16
     12.6700	  652.00	  667.06	-1814.23	  512.61
     12.7700	  638.00	  654.92	-1816.09	  513.05
     12.8700	  645.00	  647.29	-1801.47	  513.48
     12.9700	  628.00	  642.70	-1813.88	  513.90
     13.0700	  633.00	  639.97	-1806.15	  514.31
     13.1700	  601.00	  638.30	-1836.48	  514.70
     13.2700	  683.00	  637.23	-1753.40	  515.08
     13.3700	  602.00	  636.51	-1833.68	  515.45
     13.4700	  619.00	  636.02	-1816.20	  515.81
     13.5700	  624.00	  635.70	-1810.88	  516.16
     13.6700	  592.00	  635.50	-1842.67	  516.50
     13.7700	  588.00	  635.38	-1846.55	  516.83
     13.8700	  610.00	  635.32	-1824.50	  517.15
     13.9700	  622.00	  635.32	-1812.50	  517.45
     14.0700	  621.00	  635.35	-1813.53	  517.75
     14.1700	  614.00	  635.41	-1820.59	  518.03
     14.2700	  624.00	  635.49	-1810.67	  518.31
     14.3700	  600.00	  635.59	-1834.76	  518.57
     14.4700	  616.00	  635.70	-1818.87	  518.83
     14.5700	  621.00	  635.81	-1813.99	  519.07
     14.6700	  608.00	  635.93	-1827.11	  519.30
     14.7700	  598.00	  636.06	-1837.23	  519.53
     14.8700	  681.00	  636.18	-1754.36	  519.74
     14.9700	  630.00	  636.30	-1805.48	  519.95
     15.0700	  581.00	  636.43	-1854.60	  520.14
     15.1700	  606.00	  636.55	-1829.72	  520.33
     15.2700	  587.00	  636.67	-1848.84	  520.50
     15.3700	  626.00	  636.78	-1809.95	  520.67
     15.4700	  584.00	  636.89	-1852.06	  520.83
     15.5700	  602.00	  636.99	-1834.17	  520.98
     15.6700	  638.00	  637.09	-1798.27	  521.12
     15.7700	  594.00	  637.18	-1842.36	  521.25
     15.8700	  601.00	  637.27	-1835.45	  521.37
     15.9700	  634.00	  637.35	-1802.53	  521.48
     16.0700	  638.00	  637.43	-1798.60	  521.58
     16.1700	  662.00	  637.50	-1774.67	  521.68
     16.2700	  677.00	  637.56	-1759.73	  521.76
     16.3700	  656.00	  637.61	-1780.79	  521.84
     16.4700	  626.00	  637.66	-1810.84	  521.91
     16.5700	  588.00	  637.70	-1848.88	  521.97
     16.6700	  614.00	  637.74	-1822.91	  522.02
     16.7700	  683.00	  637.77	-1753.94	  522.06
     16.8700	  581.00	  637.79	-1855.96	  522.10
     16.9700	  646.00	  637.80	-1790.98	  522.13
     17.0700	  591.00	  637.81	-1845.98	  522.15
     17.1700	  636.00	  637.81	-1800.98	  522.16
     17.2700	  603.00	  637.80	-1833.98	  522.16
     17.3700	  606.00	  637.79	-1830.96	  522.16
     17.4700	  608.00	  637.77	-1828.94	  522.15
     17.5700	  582.00	  637.97	-1855.15	  522.13
     17.6700	  608.00	  637.94	-1829.12	  522.10
     17.7700	  572.00	  637.90	-1865.08	  522.07
     17.8700	  630.00	  638.02	-1807.19	  522.03
     17.9700	  586.00	  637.97	-1851.15	  521.98
     18.0700	  657.00	  637.92	-1780.09	  521.92
     18.1700	  594.00	  637.86	-1843.03	  521.86
     18.2700	  576.00	  637.79	-1860.97	  521.79
     18.3700	  638.00	  637.72	-1798.90	  521.71
     18.4700	  593.00	  637.64	-1843.82	  521.63
     18.5700	  631.00	  637.56	-1805.73	  521.54
     18.6700	  604.00	  637.47	-1832.64	  521.44
     18.7700	  615.00	  637.37	-1821.55	  521.34
     18.8700	  685.00	  637.27	-1751.45	  521.23
     18.9700	  608.00	  637.16	-1828.34	  521.11
     19.0700	  624.00	  637.05	-1812.23	  520.99
     19.1700	  614.00	  636.93	-1822.11	  520.86
     19.2700	  659.00	  636.81	-1776.98	  520.72
     19.3700	  599.00	  636.73	-1836.91	  520.58
     19.4700	  608.00	  636.60	-1827.78	  520.43
     19.5700	  588.00	  636.46	-1847.64	  520.27
     19.6700	  607.00	  636.32	-1828.49	  520.11
     19.7700	  618.00	  636.17	-1817.34	  519.95
     19.8700	  590.00	  636.01	-1845.19	  519.77
     19.9700	  562.00	  635.86	-1873.03	  519.60
     20.0700	  604.00	  635.69	-1830.87	  519.41
     20.1700	  613.00	  635.53	-1821.70	  519.22
     20.2700	  624.00	  635.35	-1810.53	  519.03
     20.3700	  603.00	  635.18	-1831.35	  518.82
     20.4700	  567.00	  635.00	-1867.17	  518.62
     20.5700	  545.00	  634.82	-1888.99	  518.41
     20.6700	  558.00	  634.63	-1875.80	  518.19
     20.7700	  590.00	  634.44	-1843.61	  517.97
     20.8700	  652.00	  634.24	-1781.42	  517.74
     20.9700	  618.00	  634.05	-1815.22	  517.50
     21.0700	  608.00	  633.85	-1825.02	  517.27
     21.1700	  647.00	  633.64	-1785.82	  517.02
     21.2700	  626.00	  633.44	-1806.62	  516.78
     21.3700	  607.00	  633.23	-1825.41	  516.52
     21.4700	  585.00	  633.02	-1847.20	  516.26
     21.5700	  571.00	  632.82	-1860.99	  516.00
     21.6700	  634.00	  632.61	-1797.78	  515.73
     21.7700	  596.00	  632.53	-1835.71	  515.46
     21.8700	  582.00	  632.32	-1849.50	  515.19
     21.9700	  612.00	  632.12	-1819.29	  514.91
     22.0700	  646.00	  631.91	-1785.08	  514.62
     22.1700	  643.00	  631.71	-1787.88	  514.33
     22.2700	  574.00	  631.50	-1856.68	  514.04
     22.3700	  619.00	  631.31	-1811.48	  513.74
     22.4700	  656.00	  631.12	-1774.29	  513.44
     22.5700	  604.00	  630.93	-1826.11	  513.13
     22.6700	  616.00	  630.76	-1813.93	  512.82
     22.7700	  625.00	  630.60	-1804.77	  512.50
     22.8700	  588.00	  630.45	-1841.62	  512.18
     22.9700	  615.00	  630.31	-1814.49	  511.86
     23.0700	  633.00	  630.20	-1796.38	  511.54
     23.1700	  626.00	  630.12	-1803.30	  511.20
     23.2700	  675.00	  630.07	-1754.25	  510.87
     23.3700	  601.00	  630.07	-1828.25	  510.53
     23.4700	  616.00	  630.13	-1813.30	  510.19
     23.5700	  609.00	  630.26	-1820.44	  509.85
     23.6700	  642.00	  630.51	-1787.68	  509.50
     23.7700	  632.00	  630.91	-1798.09	  509.15
     23.8700	  625.00	  631.56	-1805.73	  508.79
     23.9700	  601.00	  632.60	-1830.77	  508.43
     24.0700	  594.00	  634.21	-1839.38	  508.07
     24.1700	  648.00	  636.86	-1788.03	  507.71
     24.2700	  661.00	  640.98	-1779.15	  507.34
     24.3700	  616.00	  647.09	-1830.27	  506.97
     24.4700	  632.00	  655.58	-1822.76	  506.59
     24.5700	  684.00	  666.40	-1781.58	  506.22
     24.6700	  732.00	  678.73	-1745.91	  505.84
     24.7700	  698.00	  690.54	-1791.71	  505.45
     24.8700	  697.00	  698.20	-1800.38	  505.07
     24.9700	  731.00	  697.34	-1765.52	  504.68
     25.0700	  695.00	  686.91	-1791.09	  504.29
     25.1700	  686.00	  671.78	-1784.95	  503.89
     25.2700	  633.00	  657.53	-1823.70	  503.49
     25.3700	  620.00	  646.57	-1825.74	  503.10
     25.4700	  645.00	  639.05	-1793.23	  502.69
     25.5700	  689.00	  634.26	-1744.43	  502.29
     25.6700	  668.00	  631.30	-1762.48	  501.88
     25.7700	  666.00	  629.47	-1762.64	  501.47
     25.8700	  672.00	  628.29	-1755.47	  501.06
     25.9700	  657.00	  627.53	-1769.70	  500.65
     26.0700	  708.00	  627.04	-1718.21	  500.23
     26.1700	  638.00	  626.77	-1787.94	  499.81
     26.2700	  701.00	  626.69	-1724.86	  499.39
     26.3700	  691.00	  626.79	-1734.97	  498.97
     26.4700	  672.00	  627.08	-1754.26	  498.55
     26.5700	  707.00	  627.57	-1719.74	  498.12
     26.6700	  639.00	  628.28	-1788.46	  497.69
     26.7700	  668.00	  629.26	-1760.44	  497.26
     26.8700	  647.00	  630.57	-1782.74	  496.83
     26.9700	  666.00	  632.27	-1765.45	  496.39
     27.0700	  709.00	  634.50	-1724.67	  495.96
     27.1700	  702.00	  637.42	-1734.60	  495.52
     27.2700	  758.00	  641.34	-1682.52	  495.08
     27.3700	  797.00	  646.80	-1648.98	  494.64
     27.4700	  774.00	  654.86	-1680.04	  494.20
     27.5700	  770.00	  667.50	-1696.67	  493.75
     27.6700	  805.00	  688.16	-1682.34	  493.31
     27.7700	  790.00	  722.24	-1731.41	  492.86
     27.8700	  769.00	  776.60	-1806.77	  492.41
     27.9700	  927.00	  857.14	-1729.32	  491.96
     28.0700	  985.00	  964.16	-1778.34	  491.51
     28.1700	 1136.00	 1086.80	-1749.97	  491.06
     28.2700	 1285.00	 1197.99	-1712.17	  490.61
     28.3700	 1352.00	 1255.08	-1702.26	  490.15
     28.4700	 1372.00	 1225.25	-1652.43	  489.70
     28.5700	 1264.00	 1136.03	-1671.21	  489.24
     28.6700	 1072.00	 1053.60	-1780.77	  488.78
     28.7700	 1102.00	 1015.53	-1712.70	  488.32
     28.8700	 1165.00	 1021.48	-1655.66	  487.86
     28.9700	 1162.00	 1046.36	-1683.54	  487.40
     29.0700	 1187.00	 1051.75	-1663.93	  486.94
     29.1700	 1104.00	 1007.05	-1702.22	  486.48
     29.2700	 1094.00	  921.04	-1626.22	  486.02
     29.3700	  897.00	  829.59	-1731.77	  485.55
     29.4700	  902.00	  755.94	-1653.12	  485.09
     29.5700	  796.00	  705.27	-1708.45	  484.62
     29.6700	  787.00	  673.85	-1686.02	  484.15
     29.7700	  754.00	  655.38	-1700.55	  483.69
     29.8700	  736.00	  644.47	-1707.65	  483.22
     29.9700	  760.00	  637.73	-1676.91	  482.75
     30.0700	  759.00	  633.46	-1673.64	  482.28
     30.1700	  719.00	  631.01	-1711.19	  481.81
     30.2700	  739.00	  630.39	-1690.56	  481.34
     30.3700	  654.00	  632.08	-1777.26	  480.87
     30.4700	  738.00	  637.10	-1698.28	  480.40
     30.5700	  637.00	  646.85	-1809.03	  479.93
     30.6700	  688.00	  662.59	-1773.76	  479.46
     30.7700	  652.00	  684.36	-1831.54	  478.99
     30.8700	  705.00	  709.79	-1803.97	  478.52
     30.9700	  725.00	  733.09	-1807.26	  478.05
     31.0700	  734.00	  745.09	-1810.27	  477.58
     31.1700	  734.00	  737.44	-1802.62	  477.10
     31.2700	  693.00	  712.23	-1818.41	  476.63
     31.3700	  712.00	  681.48	-1768.66	  476.16
     31.4700	  687.00	  654.69	-1766.87	  475.69
     31.5700	  639.00	  635.07	-1795.25	  475.22
     31.6700	  616.00	  622.20	-1805.38	  474.74
     31.7700	  638.00	  614.30	-1775.47	  474.27
     31.8700	  607.00	  609.50	-1801.67	  473.80
     31.9700	  577.00	  606.45	-1828.63	  473.33
     32.0700	  615.00	  604.37	-1788.55	  472.86
     32.1700	  615.00	  602.87	-1787.05	  472.39
     32.2700	  671.00	  601.76	-1729.94	  471.91
     32.3700	  641.00	  600.96	-1759.14	  471.44
     32.4700	  615.00	  600.43	-1784.61	  470.97
     32.5700	  648.00	  600.21	-1751.38	  470.50
     32.6700	  626.00	  600.19	-1773.37	  470.03
     32.7700	  609.00	  600.47	-1790.64	  469.56
     32.8700	  657.00	  601.08	-1743.26	  469.09
     32.9700	  614.00	  602.11	-1787.29	  468.63
     33.0700	  590.00	  603.69	-1812.87	  468.16
     33.1700	  620.00	  606.09	-1785.27	  467.69
     33.2700	  597.00	  609.78	-1811.95	  467.22
     33.3700	  654.00	  615.67	-1760.85	  466.76
     33.4700	  616.00	  625.39	-1808.57	  466.29
     33.5700	  643.00	  641.51	-1797.69	  465.82
     33.6700	  648.00	  667.50	-1818.68	  465.36
     33.7700	  677.00	  706.78	-1828.96	  464.90
     33.8700	  765.00	  760.58	-1794.76	  464.43
     33.9700	  887.00	  824.86	-1737.04	  463.97
     34.0700	  969.00	  887.68	-1717.86	  463.51
     34.1700	 1040.00	  928.91	-1688.09	  463.05
     34.2700	 1039.00	  927.15	-1687.32	  462.59
     34.3700	  943.00	  879.61	-1735.78	  462.13
     34.4700	  841.00	  809.42	-1767.59	  461.67
     34.5700	  745.00	  741.67	-1795.85	  461.21
     34.6700	  694.00	  688.20	-1793.37	  460.75
     34.7700	  622.00	  650.92	-1828.09	  460.30
     34.8700	  629.00	  627.00	-1797.17	  459.84
     34.9700	  648.00	  612.31	-1763.49	  459.39
     35.0700	  631.00	  603.21	-1771.39	  458.93
     35.1700	  612.00	  597.24	-1784.41	  458.48
     35.2700	  605.00	  592.98	-1787.15	  458.03
     35.3700	  602.00	  589.71	-1786.89	  457.58
     35.4700	  582.00	  587.09	-1804.27	  457.13
     35.5700	  551.00	  584.92	-1833.09	  456.68
     35.6700	  571.00	  583.57	-1811.75	  456.24
     35.7700	  548.00	  581.99	-1833.17	  455.79
     35.8700	  570.00	  580.62	-1809.79	  455.35
     35.9700	  506.00	  579.40	-1872.58	  454.91
     36.0700	  567.00	  578.33	-1810.50	  454.46
     36.1700	  540.00	  577.36	-1836.54	  454.02
     36.2700	  569.00	  576.49	-1806.67	  453.58
     36.3700	  530.00	  575.72	-1844.89	  453.15
     36.4700	  577.00	  575.02	-1797.19	  452.71
     36.5700	  561.00	  574.40	-1812.57	  452.27
     36.6700	  567.00	  573.86	-1806.04	  451.84
     36.7700	  542.00	  573.60	-1830.78	  451.41
     36.8700	  546.00	  573.28	-1826.46	  450.98
     36.9700	  550.00	  573.13	-1822.31	  450.55
     37.0700	  582.00	  573.25	-1790.42	  450.12
     37.1700	  539.00	  573.74	-1833.92	  449.69
     37.2700	  565.00	  574.90	-1809.08	  449.26
     37.3700	  570.00	  576.93	-1806.11	  448.84
     37.4700	  571.00	  580.03	-1808.21	  448.42
     37.5700	  562.00	  584.22	-1821.39	  448.00
     37.6700	  584.00	  589.10	-1804.28	  447.58
     37.7700	  564.00	  593.75	-1828.92	  447.16
     37.8700	  540.00	  596.69	-1855.87	  446.74
     37.9700	  572.00	  596.65	-1823.82	  446.33
     38.0700	  541.00	  593.64	-1851.81	  445.92
     38.1700	  588.00	  588.93	-1800.10	  445.50
     38.2700	  571.00	  583.64	-1811.81	  445.09
     38.3700	  574.00	  578.49	-1803.67	  444.69
     38.4700	  553.00	  573.93	-1820.11	  444.28
     38.5700	  540.00	  570.29	-1829.47	  443.87
     38.6700	  560.00	  567.57	-1806.75	  443.47
     38.7700	  545.00	  565.60	-1819.77	  443.07
     38.8700	  507.00	  564.15	-1856.33	  442.67
     38.9700	  557.00	  563.07	-1805.24	  442.27
     39.0700	  538.00	  562.21	-1823.38	  441.88
     39.1700	  559.00	  561.49	-1801.66	  441.48
     39.2700	  540.00	  560.85	-1820.03	  441.09
     39.3700	  506.00	  560.06	-1853.23	  440.70
     39.4700	  566.00	  559.53	-1792.70	  440.31
     39.5700	  541.00	  559.03	-1817.21	  439.92
     39.6700	  587.00	  558.57	-1770.74	  439.54
     39.7700	  546.00	  558.12	-1811.30	  439.15
     39.8700	  509.00	  557.70	-1847.88	  438.77
     39.9700	  569.00	  557.87	-1788.04	  438.39
     40.0700	  546.00	  557.49	-1810.66	  438.02
     40.1700	  554.00	  557.12	-1802.30	  437.64
     40.2700	  545.00	  556.77	-1810.95	  437.27
     40.3700	  541.00	  556.44	-1814.62	  436.90
     40.4700	  552.00	  556.12	-1803.30	  436.53
     40.5700	  509.00	  555.68	-1845.85	  436.16
     40.6700	  512.00	  555.39	-1842.57	  435.79
     40.7700	  503.00	  555.13	-1851.31	  435.43
     40.8700	  574.00	  554.89	-1780.07	  435.07
     40.9700	  539.00	  554.68	-1814.85	  434.71
     41.0700	  541.00	  554.49	-1812.66	  434.35
     41.1700	  508.00	  554.40	-1845.57	  433.99
     41.2700	  493.00	  554.28	-1860.45	  433.64
     41.3700	  523.00	  554.20	-1830.38	  433.29
     41.4700	  572.00	  554.19	-1781.36	  432.94
     41.5700	  572.00	  554.24	-1781.42	  432.59
     41.6700	  520.00	  554.40	-1833.57	  432.24
     41.7700	  538.00	  554.70	-1815.88	  431.90
     41.8700	  531.00	  555.23	-1823.40	  431.56
     41.9700	  510.00	  556.19	-1845.36	  431.22
     42.0700	  575.00	  557.83	-1782.00	  430.88
     42.1700	  545.00	  560.44	-1814.62	  430.55
     42.2700	  528.00	  564.67	-1835.85	  430.21
     42.3700	  535.00	  571.11	-1835.29	  429.88
     42.4700	  589.00	  580.19	-1790.36	  429.56
     42.5700	  578.00	  591.75	-1812.92	  429.23
     42.6700	  619.00	  604.64	-1784.81	  428.90
     42.7700	  619.00	  616.47	-1796.64	  428.58
     42.8700	  620.00	  622.97	-1802.15	  428.26
     42.9700	  614.00	  621.23	-1806.41	  427.94
     43.0700	  576.00	  611.72	-1834.90	  427.63
     43.1700	  596.00	  598.43	-1801.61	  427.32
     43.2700	  579.00	  585.15	-1805.32	  427.01
     43.3700	  572.00	  573.94	-1801.12	  426.70
     43.4700	  577.00	  565.46	-1787.64	  426.39
     43.5700	  531.00	  559.54	-1827.71	  426.09
     43.6700	  565.00	  555.61	-1789.79	  425.78
     43.7700	  538.00	  553.07	-1814.25	  425.48
     43.8700	  516.00	  551.40	-1834.57	  425.19
     43.9700	  528.00	  550.46	-1821.64	  424.89
     44.0700	  538.00	  549.60	-1810.78	  424.60
     44.1700	  556.00	  548.93	-1792.11	  424.31
     44.2700	  535.00	  548.38	-1812.56	  424.02
     44.3700	  591.00	  547.93	-1756.10	  423.73
     44.4700	  552.00	  547.54	-1794.72	  423.45
     44.5700	  567.00	  547.21	-1779.39	  423.17
     44.6700	  524.00	  546.94	-1822.11	  422.89
     44.7700	  517.00	  546.71	-1828.88	  422.61
     44.8700	  562.00	  546.51	-1783.69	  422.33
     44.9700	  580.00	  546.35	-1765.53	  422.06
     45.0700	  581.00	  546.25	-1764.42	  421.79
     45.1700	  554.00	  546.23	-1791.41	  421.52
     45.2700	  511.00	  546.18	-1834.35	  421.26
     45.3700	  532.00	  546.15	-1813.32	  420.99
     45.4700	  547.00	  546.16	-1798.33	  420.73
     45.5700	  541.00	  546.20	-1804.37	  420.47
     45.6700	  554.00	  546.33	-1791.50	  420.22
     45.7700	  562.00	  546.45	-1783.62	  419.96
     45.8700	  556.00	  546.61	-1789.79	  419.71
     45.9700	  549.00	  546.82	-1797.00	  419.46
     46.0700	  569.00	  547.08	-1777.26	  419.22
     46.1700	  541.00	  547.41	-1805.58	  418.97
     46.2700	  585.00	  547.80	-1761.97	  418.73
     46.3700	  588.00	  548.27	-1759.45	  418.49
     46.4700	  548.00	  548.84	-1800.01	  418.25
     46.5700	  538.00	  549.52	-1810.69	  418.01
     46.6700	  582.00	  550.33	-1767.51	  417.78
     46.7700	  561.00	  551.32	-1789.50	  417.55
     46.8700	  551.00	  552.42	-1800.60	  417.32
     46.9700	  519.00	  554.00	-1834.18	  417.10
     47.0700	  543.00	  556.11	-1812.29	  416.87
     47.1700	  552.00	  559.09	-1806.27	  416.65
     47.2700	  581.00	  563.47	-1781.65	  416.43
     47.3700	  566.00	  570.01	-1803.18	  416.21
     47.4700	  577.00	  579.64	-1801.82	  416.00
     47.5700	  537.00	  593.30	-1855.47	  415.79
     47.6700	  597.00	  611.50	-1813.68	  415.58
     47.7700	  626.00	  634.36	-1807.54	  415.37
     47.8700	  647.00	  659.08	-1811.26	  415.16
     47.9700	  635.00	  682.02	-1846.19	  414.96
     48.0700	  691.00	  697.12	-1805.30	  414.76
     48.1700	  641.00	  699.01	-1857.19	  414.56
     48.2700	  641.00	  687.40	-1845.58	  414.37
     48.3700	  646.00	  667.66	-1820.84	  414.17
     48.4700	  644.00	  646.27	-1801.44	  413.98
     48.5700	  578.00	  627.53	-1848.70	  413.79
     48.6700	  584.00	  613.43	-1828.61	  413.61
     48.7700	  556.00	  604.44	-1847.62	  413.42
     48.8700	  581.00	  600.16	-1818.34	  413.24
     48.9700	  611.00	  599.87	-1788.04	  413.06
     49.0700	  580.00	  602.92	-1822.10	  412.88
     49.1700	  612.00	  609.05	-1796.23	  412.71
     49.2700	  586.00	  618.66	-1831.84	  412.54
     49.3700	  577.00	  633.23	-1855.40	  412.37
     49.4700	  611.00	  656.01	-1844.18	  412.20
     49.5700	  664.00	  693.08	-1828.26	  412.03
     49.6700	  666.00	  754.29	-1887.46	  411.87
     49.7700	  786.00	  853.16	-1866.33	  411.71
     49.8700	  887.00	 1004.61	-1916.78	  411.55
     49.9700	 1148.00	 1219.48	-1870.65	  411.39
     50.0700	 1347.00	 1496.46	-1948.63	  411.24
     50.1700	 1841.00	 1812.73	-1770.91	  411.08
     50.2700	 2206.00	 2116.03	-1709.20	  410.93
     50.3700	 2379.00	 2324.09	-1744.26	  410.79
     50.4700	 2379.00	 2357.47	-1777.65	  410.64
     50.5700	 2274.00	 2199.83	-1725.01	  410.50
     50.6700	 2027.00	 1917.21	-1689.38	  410.36
     50.7700	 1555.00	 1599.78	-1843.96	  410.22
     50.8700	 1207.00	 1311.52	-1903.69	  410.08
     50.9700	  976.00	 1083.41	-1906.59	  409.95
     51.0700	  808.00	  921.69	-1912.87	  409.81
     51.1700	  717.00	  817.21	-1899.39	  409.69
     51.2700	  717.00	  753.92	-1836.09	  409.56
     51.3700	  673.00	  715.40	-1841.58	  409.43
     51.4700	  674.00	  689.11	-1814.28	  409.31
     51.5700	  649.00	  668.02	-1818.20	  409.19
     51.6700	  662.00	  649.75	-1786.92	  409.07
     51.7700	  606.00	  634.02	-1827.20	  408.95
     51.8700	  630.00	  621.02	-1790.20	  408.84
     51.9700	  598.00	  610.82	-1812.00	  408.73
     52.0700	  641.00	  603.29	-1761.46	  408.62
     52.1700	  596.00	  598.13	-1801.30	  408.51
     52.2700	  647.00	  595.03	-1747.20	  408.40
     52.3700	  605.00	  593.74	-1787.92	  408.30
     52.4700	  600.00	  594.18	-1793.35	  408.20
     52.5700	  588.00	  596.51	-1807.68	  408.10
     52.6700	  614.00	  601.29	-1786.47	  408.00
     52.7700	  607.00	  609.61	-1801.79	  407.90
     52.8700	  622.00	  623.25	-1800.43	  407.81
     52.9700	  670.00	  644.74	-1773.92	  407.72
     53.0700	  710.00	  677.18	-1766.36	  407.63
     53.1700	  758.00	  723.56	-1764.73	  407.54
     53.2700	  800.00	  785.91	-1785.08	  407.46
     53.3700	  913.00	  863.86	-1750.04	  407.38
     53.4700	  986.00	  952.99	-1766.17	  407.30
     53.5700	 1131.00	 1043.00	-1711.17	  407.22
     53.6700	 1183.00	 1116.50	-1732.67	  407.14
     53.7700	 1142.00	 1152.39	-1809.57	  407.07
     53.8700	 1245.00	 1137.40	-1691.57	  406.99
     53.9700	 1129.00	 1077.13	-1747.31	  406.92
     54.0700	 1013.00	  991.50	-1777.68	  406.86
     54.1700	  890.00	  900.70	-1809.87	  406.79
     54.2700	  853.00	  817.95	-1764.13	  406.73
     54.3700	  795.00	  749.77	-1753.94	  406.66
     54.4700	  772.00	  697.88	-1725.05	  406.60
     54.5700	  670.00	  661.03	-1790.20	  406.54
     54.6700	  641.00	  636.42	-1794.59	  406.49
     54.7700	  636.00	  620.86	-1784.03	  406.43
     54.8700	  667.00	  611.55	-1743.72	  406.38
     54.9700	  653.00	  606.38	-1752.55	  406.33
     55.0700	  687.00	  603.97	-1716.14	  406.28
     55.1700	  616.00	  603.49	-1786.67	  406.23
     55.2700	  641.00	  604.54	-1762.71	  406.19
     55.3700	  648.00	  606.92	-1758.10	  406.14
     55.4700	  640.00	  610.65	-1769.82	  406.10
     55.5700	  627.00	  615.84	-1788.01	  406.06
     55.6700	  592.00	  622.78	-1829.96	  406.03
     55.7700	  645.00	  632.04	-1786.22	  405.99
     55.8700	  672.00	  644.64	-1771.82	  405.96
     55.9700	  603.00	  662.46	-1858.63	  405.92
     56.0700	  700.00	  688.77	-1787.94	  405.89
     56.1700	  710.00	  728.77	-1817.94	  405.87
     56.2700	  763.00	  790.17	-1826.35	  405.84
     56.3700	  838.00	  882.99	-1844.16	  405.81
     56.4700	  946.00	 1018.20	-1871.37	  405.79
     56.5700	 1076.00	 1204.91	-1928.09	  405.77
     56.6700	 1362.00	 1446.44	-1883.61	  405.75
     56.7700	 1719.00	 1735.19	-1815.36	  405.73
     56.8700	 2021.00	 2047.72	-1825.90	  405.72
     56.9700	 2311.00	 2339.85	-1828.03	  405.70
     57.0700	 2511.00	 2547.50	-1835.67	  405.69
     57.1700	 2653.00	 2607.34	-1753.51	  405.68
     57.2700	 2473.00	 2497.53	-1823.70	  405.67
     57.3700	 2255.00	 2256.77	-1800.95	  405.66
     57.4700	 1862.00	 1953.55	-1890.72	  405.65
     57.5700	 1598.00	 1647.25	-1848.43	  405.65
     57.6700	 1273.00	 1375.05	-1901.23	  405.65
     57.7700	 1041.00	 1154.83	-1913.00	  405.65
     57.8700	  909.00	  990.31	-1880.48	  405.65
     57.9700	  803.00	  876.32	-1872.50	  405.65
     58.0700	  799.00	  803.59	-1803.77	  405.65
     58.1700	  712.00	  762.49	-1849.67	  405.66
     58.2700	  723.00	  745.36	-1821.54	  405.66
     58.3700	  708.00	  747.32	-1838.49	  405.67
     58.4700	  826.00	  765.77	-1738.94	  405.68
     58.5700	  842.00	  799.38	-1756.56	  405.69
     58.6700	  898.00	  846.82	-1747.99	  405.71
     58.7700	  929.00	  905.38	-1775.56	  405.72
     58.8700	 1019.00	  970.02	-1750.19	  405.74
     58.9700	 1061.00	 1033.65	-1771.83	  405.75
     59.0700	 1105.00	 1089.94	-1784.11	  405.77
     59.1700	 1118.00	 1135.63	-1816.81	  405.79
     59.2700	 1270.00	 1168.51	-1697.68	  405.81
     59.3700	 1298.00	 1185.53	-1686.70	  405.84
     59.4700	 1265.00	 1186.18	-1720.36	  405.86
     59.5700	 1215.00	 1176.76	-1760.93	  405.89
     59.6700	 1207.00	 1167.45	-1759.63	  405.91
     59.7700	 1192.00	 1166.45	-1773.62	  405.94
     59.8700	 1103.00	 1178.37	-1874.55	  405.97
     59.9700	 1186.00	 1206.83	-1820.01	  406.00
     60.0700	 1341.00	 1255.52	-1713.69	  406.04
     60.1700	 1323.00	 1325.06	-1801.23	  406.07
     60.2700	 1398.00	 1408.48	-1809.66	  406.11
     60.3700	 1573.00	 1489.00	-1715.18	  406.14
     60.4700	 1566.00	 1541.42	-1774.60	  406.18
     60.5700	 1654.00	 1540.86	-1686.03	  406.22
     60.6700	 1559.00	 1478.14	-1718.32	  406.26
     60.7700	 1395.00	 1366.74	-1770.91	  406.30
     60.8700	 1323.00	 1231.80	-1707.98	  406.34
     60.9700	 1177.00	 1096.31	-1718.48	  406.39
     61.0700	 1015.00	  975.71	-1759.89	  406.43
     61.1700	  896.00	  878.34	-1781.52	  406.48
     61.2700	  777.00	  807.29	-1829.46	  406.53
     61.3700	  796.00	  762.29	-1765.46	  406.57
     61.4700	  803.00	  741.72	-1737.90	  406.62
     61.5700	  752.00	  744.24	-1791.41	  406.68
     61.6700	  753.00	  769.60	-1815.77	  406.73
     61.7700	  821.00	  818.56	-1796.74	  406.78
     61.8700	  888.00	  891.88	-1803.05	  406.83
     61.9700	  957.00	  988.63	-1830.81	  406.89
     62.0700	 1158.00	 1104.53	-1745.71	  406.95
     62.1700	 1135.00	 1230.13	-1894.30	  407.00
     62.2700	 1314.00	 1349.42	-1834.60	  407.06
     62.3700	 1346.00	 1439.96	-1893.14	  407.12
     62.4700	 1395.00	 1478.06	-1882.23	  407.18
     62.5700	 1341.00	 1451.33	-1909.50	  407.24
     62.6700	 1313.00	 1367.57	-1853.75	  407.30
     62.7700	 1187.00	 1249.06	-1861.23	  407.37
     62.8700	 1019.00	 1119.26	-1899.43	  407.43
     62.9700	  918.00	  995.60	-1876.78	  407.49
     63.0700	  781.00	  888.51	-1906.68	  407.56
     63.1700	  784.00	  802.59	-1817.77	  407.63
     63.2700	  696.00	  738.18	-1841.36	  407.69
     63.3700	  695.00	  692.81	-1796.99	  407.76
     63.4700	  626.00	  662.80	-1835.97	  407.83
     63.5700	  654.00	  644.37	-1789.54	  407.90
     63.6700	  646.00	  634.52	-1787.69	  407.97
     63.7700	  655.00	  631.34	-1775.51	  408.04
     63.8700	  665.00	  634.02	-1768.20	  408.12
     63.9700	  674.00	  642.90	-1768.07	  408.19
     64.0700	  684.00	  658.88	-1774.05	  408.26
     64.1700	  693.00	  683.33	-1789.51	  408.34
     64.2700	  766.00	  717.61	-1750.79	  408.41
     64.3700	  799.00	  762.32	-1762.49	  408.49
     64.4700	  894.00	  817.17	-1722.34	  408.57
     64.5700	  913.00	  879.47	-1765.64	  408.64
     64.6700	 1035.00	  944.58	-1708.75	  408.72
     64.7700	 1040.00	 1004.87	-1764.05	  408.80
     64.8700	 1064.00	 1050.89	-1786.07	  408.88
     64.9700	 1143.00	 1074.29	-1730.47	  408.96
     65.0700	 1067.00	 1071.29	-1803.46	  409.04
     65.1700	 1049.00	 1043.86	-1794.04	  409.12
     65.2700	 1045.00	  998.74	-1752.92	  409.20
     65.3700	  972.00	  943.79	-1770.96	  409.29
     65.4700	  973.00	  888.01	-1714.18	  409.37
     65.5700	  848.00	  836.12	-1787.29	  409.45
     65.6700	  811.00	  790.46	-1778.63	  409.54
     65.7700	  727.00	  751.43	-1823.60	  409.62
     65.8700	  706.00	  718.68	-1811.86	  409.70
     65.9700	  657.00	  691.82	-1834.00	  409.79
     66.0700	  688.00	  670.57	-1781.75	  409.87
     66.1700	  608.00	  654.15	-1845.32	  409.96
     66.2700	  642.00	  642.02	-1799.20	  410.05
     66.3700	  615.00	  633.72	-1817.90	  410.13
     66.4700	  588.00	  628.45	-1839.63	  410.22
     66.5700	  638.00	  625.98	-1787.15	  410.31
     66.6700	  631.00	  626.07	-1794.25	  410.40
     66.7700	  604.00	  628.67	-1823.85	  410.48
     66.8700	  648.00	  634.00	-1785.17	  410.57
     66.9700	  670.00	  642.66	-1771.83	  410.66
     67.0700	  598.00	  655.86	-1857.04	  410.75
     67.1700	  672.00	  675.65	-1802.83	  410.84
     67.2700	  691.00	  705.17	-1813.34	  410.93
     67.3700	  773.00	  748.73	-1774.91	  411.02
     67.4700	  771.00	  811.79	-1839.97	  411.11
     67.5700	  913.00	  900.40	-1786.58	  411.20
     67.6700	 1023.00	 1020.27	-1796.44	  411.29
     67.7700	 1158.00	 1175.17	-1816.34	  411.38
     67.8700	 1357.00	 1365.26	-1807.44	  411.47
     67.9700	 1550.00	 1585.21	-1834.38	  411.56
     68.0700	 1819.00	 1822.37	-1802.55	  411.65
     68.1700	 2136.00	 2055.42	-1718.59	  411.74
     68.2700	 2262.00	 2253.60	-1790.78	  411.84
     68.3700	 2282.00	 2380.50	-1897.68	  411.93
     68.4700	 2446.00	 2406.35	-1759.53	  412.02
     68.5700	 2321.00	 2324.37	-1802.54	  412.11
     68.6700	 2091.00	 2155.26	-1863.44	  412.20
     68.7700	 1927.00	 1934.41	-1806.58	  412.29
     68.8700	 1665.00	 1696.15	-1830.33	  412.38
     68.9700	 1386.00	 1466.38	-1879.56	  412.48
     69.0700	 1172.00	 1261.65	-1888.82	  412.57
     69.1700	 1047.00	 1090.41	-1842.58	  412.66
     69.2700	  980.00	  954.82	-1774.00	  412.75
     69.3700	  832.00	  852.59	-1819.77	  412.84
     69.4700	  779.00	  778.68	-1798.86	  412.93
     69.5700	  730.00	  727.05	-1796.22	  413.02
     69.6700	  723.00	  691.82	-1767.99	  413.11
     69.7700	  683.00	  668.06	-1784.23	  413.21
     69.8700	  720.00	  652.03	-1731.21	  413.30
     69.9700	  642.00	  641.12	-1798.30	  413.39
     70.0700	  633.00	  633.61	-1799.78	  413.48
     70.1700	  597.00	  628.43	-1830.61	  413.57
     70.2700	  602.00	  625.01	-1822.18	  413.66
     70.3700	  639.00	  622.99	-1783.17	  413.75
     70.4700	  612.00	  622.27	-1809.44	  413.84
     70.5700	  594.00	  622.83	-1828.01	  413.92
     70.6700	  652.00	  624.85	-1772.03	  414.01
     70.7700	  651.00	  629.63	-1777.80	  414.10
     70.8700	  624.00	  635.69	-1810.87	  414.19
     70.9700	  623.00	  645.40	-1821.58	  414.28
     71.0700	  649.00	  660.12	-1810.30	  414.37
     71.1700	  704.00	  682.05	-1777.23	  414.45
     71.2700	  642.00	  714.09	-1871.27	  414.54
     71.3700	  787.00	  759.75	-1771.92	  414.63
     71.4700	  794.00	  822.79	-1827.97	  414.71
     71.5700	  882.00	  906.71	-1823.89	  414.80
     71.6700	  976.00	 1013.88	-1837.05	  414.88
     71.7700	 1080.00	 1144.54	-1863.72	  414.97
     71.8700	 1297.00	 1295.86	-1798.04	  415.05
     71.9700	 1408.00	 1460.95	-1852.13	  415.14
     72.0700	 1526.00	 1628.12	-1901.30	  415.22
     72.1700	 1683.00	 1780.28	-1896.46	  415.30
     72.2700	 1829.00	 1895.76	-1865.94	  415.38
     72.3700	 1865.00	 1953.01	-1887.18	  415.47
     72.4700	 1867.00	 1939.27	-1871.45	  415.55
     72.5700	 1855.00	 1857.72	-1801.90	  415.63
     72.6700	 1626.00	 1725.49	-1898.67	  415.71
     72.7700	 1558.00	 1565.04	-1806.21	  415.79
     72.8700	 1383.00	 1396.55	-1812.72	  415.87
     72.9700	 1222.00	 1235.06	-1812.23	  415.95
     73.0700	 1081.00	 1090.26	-1808.43	  416.02
     73.1700	  985.00	  967.29	-1781.47	  416.10
     73.2700	  903.00	  867.69	-1763.87	  416.18
     73.3700	  857.00	  790.31	-1732.48	  416.25
     73.4700	  763.00	  732.30	-1768.48	  416.33
     73.5700	  734.00	  690.05	-1755.23	  416.40
     73.6700	  655.00	  659.88	-1804.06	  416.47
     73.7700	  703.00	  638.54	-1734.71	  416.55
     73.8700	  664.00	  623.41	-1758.58	  416.62
     73.9700	  627.00	  612.54	-1784.71	  416.69
     74.0700	  619.00	  604.58	-1784.76	  416.76
     74.1700	  590.00	  598.63	-1807.81	  416.83
     74.2700	  610.00	  594.12	-1783.29	  416.90
     74.3700	  623.00	  590.66	-1766.84	  416.97
     74.4700	  640.00	  588.01	-1747.19	  417.03
     74.5700	  642.00	  585.43	-1742.60	  417.10
     74.6700	  618.00	  583.86	-1765.04	  417.17
     74.7700	  669.00	  582.59	-1712.77	  417.23
     74.8700	  677.00	  581.47	-1703.65	  417.30
     74.9700	  701.00	  580.35	-1678.53	  417.36
     75.0700	  715.00	  579.15	-1663.33	  417.42
     75.1700	  645.00	  577.88	-1732.06	  417.48
     75.2700	  658.00	  576.65	-1717.83	  417.54
     75.3700	  697.00	  575.64	-1677.82	  417.60
     75.4700	  626.00	  575.07	-1748.25	  417.66
     75.5700	  632.00	  575.20	-1742.38	  417.72
     75.6700	  650.00	  576.32	-1725.49	  417.77
     75.7700	  605.00	  578.75	-1772.93	  417.83
     75.8700	  668.00	  582.86	-1714.04	  417.88
     75.9700	  680.00	  589.01	-1708.19	  417.93
     76.0700	  599.00	  597.52	-1797.69	  417.99
     76.1700	  595.00	  608.53	-1812.71	  418.04
     76.2700	  688.00	  622.17	-1733.34	  418.09
     76.3700	  651.00	  638.12	-1786.30	  418.14
     76.4700	  697.00	  655.80	-1757.98	  418.18
     76.5700	  691.00	  674.19	-1782.37	  418.23
     76.6700	  714.00	  691.82	-1777.00	  418.28
     76.7700	  751.00	  706.77	-1754.95	  418.32
     76.8700	  759.00	  716.80	-1756.98	  418.36
     76.9700	  754.00	  720.24	-1765.41	  418.40
     77.0700	  748.00	  716.26	-1767.43	  418.45
     77.1700	  715.00	  705.58	-1789.75	  418.49
     77.2700	  761.00	  690.02	-1728.20	  418.52
     77.3700	  766.00	  671.74	-1704.91	  418.56
     77.4700	  656.00	  652.64	-1795.82	  418.60
     77.5700	  659.00	  634.19	-1774.37	  418.63
     77.6700	  605.00	  617.40	-1811.57	  418.67
     77.7700	  607.00	  602.83	-1795.00	  418.70
     77.8700	  611.00	  590.72	-1778.89	  418.73
     77.9700	  613.00	  581.04	-1767.21	  418.76
     78.0700	  560.00	  573.55	-1812.73	  418.79
     78.1700	  551.00	  567.94	-1816.12	  418.81
     78.2700	  557.00	  563.83	-1806.01	  418.84
     78.3700	  540.00	  560.87	-1820.04	  418.86
     78.4700	  563.00	  558.53	-1794.71	  418.89
     78.5700	  563.00	  557.03	-1793.20	  418.91
     78.6700	  540.00	  555.88	-1815.06	  418.93
     78.7700	  557.00	  555.11	-1797.29	  418.95
     78.8700	  550.00	  554.56	-1803.73	  418.97
     78.9700	  530.00	  554.18	-1823.36	  418.98
     79.0700	  550.00	  553.95	-1803.12	  419.00
     79.1700	  587.00	  553.85	-1766.02	  419.01
     79.2700	  540.00	  553.88	-1813.06	  419.02
     79.3700	  513.00	  554.06	-1840.24	  419.03
     79.4700	  575.00	  554.39	-1778.57	  419.04
     79.5700	  531.00	  554.88	-1823.06	  419.05
     79.6700	  618.00	  555.55	-1736.73	  419.06
     79.7700	  558.00	  556.40	-1797.58	  419.06
     79.8700	  545.00	  557.44	-1811.61	  419.06
     79.9700	  588.00	  558.67	-1769.84	  419.07
     80.0700	  544.00	  560.09	-1815.26	  419.07
     80.1700	  600.00	  561.70	-1760.88	  419.07
     80.2700	  614.00	  563.51	-1748.69	  419.06
     80.3700	  605.00	  565.55	-1759.73	  419.06
     80.4700	  619.00	  567.89	-1748.06	  419.05
     80.5700	  631.00	  570.65	-1738.83	  419.04
     80.6700	  626.00	  574.07	-1747.24	  419.04
     80.7700	  635.00	  578.43	-1742.61	  419.03
     80.8700	  614.00	  584.09	-1769.27	  419.01
     80.9700	  683.00	  591.36	-1707.54	  419.00
     81.0700	  736.00	  600.52	-1663.70	  418.98
     81.1700	  699.00	  611.52	-1711.70	  418.97
     81.2700	  758.00	  624.83	-1666.01	  418.95
     81.3700	  753.00	  640.09	-1686.27	  418.93
     81.4700	  766.00	  656.93	-1690.11	  418.91
     81.5700	  766.00	  674.77	-1707.95	  418.88
     81.6700	  807.00	  692.82	-1685.00	  418.86
     81.7700	  792.00	  710.11	-1717.29	  418.83
     81.8700	  812.00	  725.55	-1712.73	  418.80
     81.9700	  871.00	  737.98	-1666.16	  418.77
     82.0700	  773.00	  746.28	-1772.46	  418.74
     82.1700	  748.00	  749.65	-1800.82	  418.71
     82.2700	  770.00	  747.91	-1777.08	  418.67
     82.3700	  756.00	  741.61	-1784.79	  418.63
     82.4700	  694.00	  731.72	-1836.90	  418.60
     82.5700	  653.00	  719.22	-1865.40	  418.56
     82.6700	  677.00	  704.89	-1827.07	  418.51
     82.7700	  648.00	  689.37	-1840.54	  418.47
     82.8700	  651.00	  673.29	-1821.46	  418.42
     82.9700	  591.00	  657.39	-1865.57	  418.38
     83.0700	  587.00	  642.47	-1854.64	  418.33
     83.1700	  635.00	  629.19	-1793.37	  418.28
     83.2700	  593.00	  618.09	-1824.26	  418.22
     83.3700	  538.00	  609.47	-1870.65	  418.17
     83.4700	  556.00	  603.50	-1846.68	  418.11
     83.5700	  547.00	  600.16	-1852.34	  418.06
     83.6700	  591.00	  599.32	-1807.49	  418.00
     83.7700	  602.00	  600.68	-1797.86	  417.93
     83.8700	  575.00	  603.85	-1828.03	  417.87
     83.9700	  582.00	  608.31	-1825.48	  417.81
     84.0700	  516.00	  613.41	-1896.59	  417.74
     84.1700	  559.00	  618.42	-1858.60	  417.67
     84.2700	  561.00	  622.53	-1860.71	  417.60
     84.3700	  579.00	  624.97	-1845.14	  417.53
     84.4700	  606.00	  625.15	-1818.33	  417.45
     84.5700	  609.00	  622.89	-1813.07	  417.38
     84.6700	  600.00	  618.41	-1817.58	  417.30
     84.7700	  649.00	  612.11	-1762.28	  417.22
     84.8700	  591.00	  604.91	-1813.09	  417.14
     84.9700	  552.00	  597.32	-1844.49	  417.05
     85.0700	  576.00	  589.85	-1813.03	  416.97
     85.1700	  552.00	  582.91	-1830.09	  416.88
     85.2700	  595.00	  576.78	-1780.95	  416.79
     85.3700	  546.00	  571.62	-1824.79	  416.70
     85.4700	  555.00	  567.51	-1811.68	  416.61
     85.5700	  509.00	  564.46	-1854.63	  416.51
     85.6700	  549.00	  562.42	-1812.59	  416.42
     85.7700	  598.00	  561.32	-1762.50	  416.32
     85.8700	  517.00	  561.09	-1843.27	  416.22
     85.9700	  582.00	  561.66	-1778.83	  416.12
     86.0700	  588.00	  562.97	-1774.15	  416.01
     86.1700	  552.00	  565.00	-1812.18	  415.90
     86.2700	  555.00	  567.73	-1811.91	  415.80
     86.3700	  555.00	  571.19	-1815.36	  415.69
     86.4700	  591.00	  575.36	-1783.54	  415.57
     86.5700	  544.00	  580.34	-1835.51	  415.46
     86.6700	  525.00	  586.11	-1860.29	  415.35
     86.7700	  586.00	  592.73	-1805.90	  415.23
     86.8700	  588.00	  600.21	-1811.38	  415.11
     86.9700	  559.00	  608.61	-1848.78	  414.99
     87.0700	  555.00	  617.97	-1862.15	  414.86
     87.1700	  619.00	  628.30	-1808.47	  414.74
     87.2700	  623.00	  639.48	-1815.65	  414.61
     87.3700	  587.00	  651.24	-1863.42	  414.48
     87.4700	  646.00	  663.14	-1816.31	  414.35
     87.5700	  661.00	  674.50	-1812.68	  414.22
     87.6700	  677.00	  684.48	-1806.66	  414.08
     87.7700	  640.00	  692.12	-1851.29	  413.95
     87.8700	  649.00	  696.50	-1846.68	  413.81
     87.9700	  694.00	  697.03	-1802.20	  413.67
     88.0700	  677.00	  693.62	-1815.79	  413.52
     88.1700	  682.00	  686.77	-1803.95	  413.38
     88.2700	  676.00	  677.40	-1800.58	  413.23
     88.3700	  624.00	  666.58	-1841.76	  413.08
     88.4700	  686.00	  655.37	-1768.54	  412.93
     88.5700	  643.00	  644.70	-1800.87	  412.78
     88.6700	  594.00	  635.35	-1840.52	  412.63
     88.7700	  593.00	  627.90	-1834.07	  412.47
     88.8700	  615.00	  622.75	-1806.92	  412.31
     88.9700	  585.00	  620.09	-1834.27	  412.15
     89.0700	  597.00	  619.94	-1822.12	  411.99
     89.1700	  646.00	  622.10	-1775.28	  411.83
     89.2700	  552.00	  625.77	-1872.94	  411.66
     89.3700	  610.00	  631.31	-1820.49	  411.49
     89.4700	  606.00	  637.63	-1830.81	  411.33
     89.5700	  643.00	  643.94	-1800.12	  411.15
     89.6700	  624.00	  649.39	-1824.56	  410.98
     89.7700	  590.00	  653.12	-1862.29	  410.81
     89.8700	  637.00	  654.43	-1816.61	  410.63
     89.9700	  631.00	  652.94	-1821.12	  410.45
     90.0700	  565.00	  648.69	-1882.86	  410.27
     90.1700	  594.00	  642.07	-1847.24	  410.09
     90.2700	  592.00	  633.72	-1840.90	  409.90
     90.3700	  537.00	  624.34	-1886.51	  409.71
     90.4700	  585.00	  614.56	-1828.74	  409.53
     90.5700	  571.00	  604.93	-1833.10	  409.34
     90.6700	  582.00	  595.84	-1813.01	  409.14
     90.7700	  549.00	  587.60	-1837.77	  408.95
     90.8700	  534.00	  580.38	-1845.56	  408.75
     90.9700	  553.00	  574.28	-1820.46	  408.56
     91.0700	  555.00	  569.30	-1813.48	  408.36
     91.1700	  583.00	  565.39	-1781.56	  408.15
     91.2700	  540.00	  562.44	-1821.62	  407.95
     91.3700	  546.00	  560.37	-1813.54	  407.75
     91.4700	  533.00	  559.05	-1825.23	  407.54
     91.5700	  546.00	  558.40	-1811.58	  407.33
     91.6700	  540.00	  558.37	-1817.54	  407.12
     91.7700	  520.00	  558.91	-1838.09	  406.91
     91.8700	  518.00	  560.04	-1841.22	  406.69
     91.9700	  573.00	  561.81	-1787.98	  406.48
     92.0700	  534.00	  564.28	-1829.46	  406.26
     92.1700	  572.00	  567.57	-1794.75	  406.04
     92.2700	  568.00	  571.80	-1802.98	  405.82
     92.3700	  567.00	  577.11	-1809.28	  405.59
     92.4700	  614.00	  583.63	-1768.80	  405.37
     92.5700	  559.00	  591.48	-1831.65	  405.14
     92.6700	  577.00	  600.75	-1822.93	  404.91
     92.7700	  623.00	  611.49	-1787.67	  404.68
     92.8700	  594.00	  623.69	-1828.86	  404.45
     92.9700	  629.00	  637.26	-1807.44	  404.22
     93.0700	  605.00	  652.05	-1846.23	  403.98
     93.1700	  674.00	  667.79	-1792.97	  403.75
     93.2700	  636.00	  684.13	-1847.31	  403.51
     93.3700	  676.00	  700.64	-1823.82	  403.27
     93.4700	  706.00	  716.86	-1810.03	  403.03
     93.5700	  749.00	  732.41	-1782.58	  402.78
     93.6700	  793.00	  747.10	-1753.27	  402.54
     93.7700	  729.00	  760.97	-1831.15	  402.29
     93.8700	  773.00	  774.28	-1800.45	  402.04
     93.9700	  732.00	  787.31	-1854.49	  401.79
     94.0700	  829.00	  800.32	-1770.50	  401.54
     94.1700	  853.00	  813.41	-1759.59	  401.28
     94.2700	  832.00	  826.55	-1793.72	  401.03
     94.3700	  892.00	  839.65	-1746.82	  400.77
     94.4700	  855.00	  852.67	-1796.85	  400.51
     94.5700	  827.00	  865.69	-1837.87	  400.25
     94.6700	  837.00	  878.46	-1840.64	  399.99
     94.7700	  902.00	  891.64	-1788.82	  399.73
     94.8700	  984.00	  904.63	-1719.80	  399.47
     94.9700	  935.00	  916.80	-1780.98	  399.20
     95.0700	  994.00	  927.19	-1732.37	  398.93
     95.1700	  992.00	  934.56	-1741.73	  398.66
     95.2700	  963.00	  937.56	-1773.74	  398.39
     95.3700	  946.00	  935.09	-1788.27	  398.12
     95.4700	  950.00	  926.59	-1775.77	  397.85
     95.5700	  968.00	  912.26	-1743.44	  397.57
     95.6700	  887.00	  893.06	-1805.24	  397.30
     95.7700	  799.00	  870.48	-1870.65	  397.02
     95.8700	  865.00	  846.23	-1780.41	  396.74
     95.9700	  826.00	  822.11	-1795.29	  396.46
     96.0700	  801.00	  799.81	-1797.98	  396.18
     96.1700	  731.00	  780.87	-1849.04	  395.89
     96.2700	  779.00	  766.71	-1786.89	  395.61
     96.3700	  761.00	  758.58	-1796.76	  395.32
     96.4700	  740.00	  757.56	-1816.74	  395.04
     96.5700	  775.00	  764.54	-1788.71	  394.75
     96.6700	  771.00	  780.23	-1808.40	  394.46
     96.7700	  795.00	  805.12	-1809.30	  394.17
     96.8700	  826.00	  839.46	-1812.63	  393.88
     96.9700	  854.00	  883.17	-1828.35	  393.58
     97.0700	  884.00	  935.83	-1851.00	  393.29
     97.1700	  951.00	  996.60	-1844.78	  392.99
     97.2700	 1089.00	 1064.21	-1774.38	  392.70
     97.3700	 1131.00	 1136.80	-1804.97	  392.40
     97.4700	 1195.00	 1212.00	-1816.18	  392.10
     97.5700	 1240.00	 1286.85	-1846.02	  391.80
     97.6700	 1301.00	 1357.81	-1855.99	  391.50
     97.7700	 1364.00	 1420.91	-1856.09	  391.19
     97.8700	 1427.00	 1471.96	-1844.13	  390.89
     97.9700	 1525.00	 1507.09	-1781.27	  390.59
     98.0700	 1522.00	 1523.47	-1800.65	  390.28
     98.1700	 1456.00	 1519.94	-1863.11	  389.97
     98.2700	 1496.00	 1497.28	-1800.45	  389.67
     98.3700	 1402.00	 1458.02	-1855.20	  389.36
     98.4700	 1364.00	 1405.82	-1841.00	  389.05
     98.5700	 1466.00	 1344.79	-1677.97	  388.74
     98.6700	 1309.00	 1278.96	-1769.14	  388.43
     98.7700	 1265.00	 1212.02	-1746.19	  388.12
     98.8700	 1138.00	 1147.19	-1808.37	  387.80
     98.9700	 1132.00	 1087.22	-1754.39	  387.49
     99.0700	 1006.00	 1034.37	-1827.54	  387.17
     99.1700	 1024.00	  990.48	-1765.66	  386.86
     99.2700	  949.00	  957.01	-1807.18	  386.54
     99.3700	  860.00	  935.08	-1874.25	  386.22
     99.4700	  919.00	  925.49	-1805.67	  385.91
     99.5700	  894.00	  928.77	-1833.95	  385.59
     99.6700	  925.00	  945.16	-1819.33	  385.27
     99.7700	  976.00	  974.63	-1797.80	  384.95
     99.8700	 1011.00	 1016.89	-1805.07	  384.63
     99.9700	 1122.00	 1071.37	-1748.54	  384.31
    100.0700	 1110.00	 1137.18	-1826.35	  383.99
    100.1700	 1226.00	 1213.07	-1786.24	  383.66
    100.2700	 1316.00	 1297.35	-1780.53	  383.34
    100.3700	 1331.00	 1387.88	-1856.05	  383.02
    100.4700	 1519.00	 1481.97	-1762.15	  382.69
    100.5700	 1659.00	 1576.50	-1716.68	  382.37
    100.6700	 1700.00	 1667.99	-1767.16	  382.04
    100.7700	 1778.00	 1752.84	-1774.02	  381.72
    100.8700	 1839.00	 1827.78	-1787.96	  381.39
    100.9700	 1916.00	 1890.14	-1773.32	  381.07
    101.0700	 1941.00	 1938.23	-1796.40	  380.74
    101.1700	 2109.00	 1970.93	-1661.10	  380.42
    101.2700	 1981.00	 1987.64	-1805.81	  380.09
    101.3700	 1945.00	 1987.99	-1842.16	  379.76
    101.4700	 2010.00	 1971.89	-1761.07	  379.43
    101.5700	 2000.00	 1939.82	-1738.99	  379.11
    101.6700	 1893.00	 1893.09	-1799.26	  378.78
    101.7700	 1834.00	 1834.11	-1799.28	  378.45
    101.8700	 1874.00	 1766.19	-1691.37	  378.12
    101.9700	 1699.00	 1693.16	-1793.33	  377.80
    102.0700	 1635.00	 1618.78	-1782.96	  377.47
    102.1700	 1556.00	 1546.40	-1789.58	  377.14
    102.2700	 1518.00	 1478.68	-1759.85	  376.81
    102.3700	 1405.00	 1417.47	-1811.65	  376.48
    102.4700	 1348.00	 1363.87	-1815.05	  376.15
    102.5700	 1329.00	 1318.17	-1788.35	  375.83
    102.6700	 1287.00	 1280.00	-1792.17	  375.50
    102.7700	 1216.00	 1248.39	-1831.56	  375.17
    102.8700	 1245.00	 1221.84	-1776.01	  374.84
    102.9700	 1191.00	 1198.49	-1806.67	  374.52
    103.0700	 1161.00	 1176.32	-1814.50	  374.19
    103.1700	 1115.00	 1153.37	-1837.55	  373.86
    103.2700	 1163.00	 1128.09	-1764.26	  373.54
    103.3700	 1131.00	 1099.49	-1767.67	  373.21
    103.4700	 1085.00	 1067.31	-1781.48	  372.88
    103.5700	 1059.00	 1031.84	-1772.02	  372.56
    103.6700	  975.00	  993.81	-1817.99	  372.23
    103.7700	  958.00	  954.17	-1795.34	  371.91
    103.8700	  955.00	  913.88	-1758.06	  371.58
    103.9700	  870.00	  873.90	-1803.07	  371.26
    104.0700	  800.00	  835.03	-1834.21	  370.94
    104.1700	  835.00	  797.97	-1762.15	  370.62
    104.2700	  794.00	  763.29	-1768.46	  370.29
    104.3700	  783.00	  731.40	-1747.58	  369.97
    104.4700	  708.00	  702.58	-1793.76	  369.65
    104.5700	  698.00	  676.97	-1778.14	  369.33
    104.6700	  646.00	  654.56	-1807.74	  369.01
    104.7700	  607.00	  635.27	-1827.45	  368.70
    104.8700	  664.00	  618.92	-1754.10	  368.38
    104.9700	  646.00	  605.28	-1758.45	  368.06
    105.0700	  621.00	  594.06	-1772.24	  367.75
    105.1700	  617.00	  585.00	-1767.18	  367.43
    105.2700	  613.00	  577.82	-1763.99	  367.12
    105.3700	  578.00	  572.26	-1793.43	  366.81
    105.4700	  585.00	  568.11	-1782.28	  366.50
    105.5700	  552.00	  565.17	-1812.35	  366.19
    105.6700	  556.00	  563.31	-1806.49	  365.88
    105.7700	  582.00	  562.41	-1779.59	  365.57
    105.8700	  606.00	  562.40	-1755.58	  365.26
    105.9700	  568.00	  563.24	-1794.41	  364.96
    106.0700	  645.00	  564.90	-1719.08	  364.65
    106.1700	  592.00	  567.41	-1774.58	  364.35
    106.2700	  611.00	  570.77	-1758.94	  364.05
    106.3700	  561.00	  575.02	-1813.20	  363.75
    106.4700	  619.00	  580.19	-1760.37	  363.45
    106.5700	  592.00	  586.31	-1793.49	  363.15
    106.6700	  622.00	  593.37	-1770.54	  362.86
    106.7700	  594.00	  601.33	-1806.51	  362.57
    106.8700	  593.00	  610.15	-1816.32	  362.27
    106.9700	  643.00	  619.69	-1775.87	  361.98
    107.0700	  619.00	  629.81	-1809.98	  361.69
    107.1700	  659.00	  640.29	-1780.47	  361.41
    107.2700	  670.00	  650.89	-1780.07	  361.12
    107.3700	  694.00	  661.30	-1766.48	  360.84
    107.4700	  694.00	  671.19	-1776.36	  360.56
    107.5700	  691.00	  680.19	-1788.37	  360.28
    107.6700	  728.00	  687.97	-1759.14	  360.00
    107.7700	  677.00	  694.20	-1816.38	  359.73
    107.8700	  707.00	  698.70	-1790.88	  359.45
    107.9700	  730.00	  701.39	-1770.56	  359.18
    108.0700	  667.00	  702.35	-1834.53	  358.91
    108.1700	  710.00	  701.84	-1791.01	  358.65
    108.2700	  741.00	  700.18	-1758.35	  358.38
    108.3700	  685.00	  697.72	-1811.90	  358.12
    108.4700	  659.00	  694.95	-1835.12	  357.86
    108.5700	  718.00	  692.15	-1773.32	  357.60
    108.6700	  699.00	  689.60	-1789.78	  357.35
    108.7700	  696.00	  687.52	-1790.69	  357.09
    108.8700	  705.00	  686.00	-1780.17	  356.84
    108.9700	  695.00	  685.07	-1789.24	  356.60
    109.0700	  708.00	  684.66	-1775.84	  356.35
    109.1700	  708.00	  684.62	-1775.80	  356.11
    109.2700	  775.00	  684.74	-1708.91	  355.87
    109.3700	  706.00	  684.71	-1777.89	  355.63
    109.4700	  709.00	  684.24	-1774.42	  355.40
    109.5700	  746.00	  683.03	-1736.20	  355.17
    109.6700	  699.00	  680.80	-1780.98	  354.94
    109.7700	  712.00	  677.42	-1764.59	  354.72
    109.8700	  688.00	  672.83	-1784.00	  354.49
    109.9700	  709.00	  667.10	-1757.27	  354.28
    110.0700	  687.00	  660.40	-1772.57	  354.06
    110.1700	  718.00	  652.96	-1734.14	  353.85
    110.2700	  733.00	  645.05	-1711.22	  353.64
    110.3700	  670.00	  636.93	-1766.11	  353.43
    110.4700	  662.00	  628.86	-1766.04	  353.23
    110.5700	  639.00	  621.07	-1781.25	  353.03
    110.6700	  630.00	  613.77	-1782.94	  352.84
    110.7700	  636.00	  607.12	-1770.29	  352.64
    110.8700	  637.00	  601.25	-1763.42	  352.46
    110.9700	  609.00	  596.29	-1786.47	  352.27
    111.0700	  575.00	  592.30	-1816.48	  352.09
    111.1700	  591.00	  589.33	-1797.50	  351.91
    111.2700	  607.00	  587.36	-1779.54	  351.74
    111.3700	  588.00	  586.39	-1797.56	  351.57
    111.4700	  635.00	  586.36	-1750.53	  351.40
    111.5700	  584.00	  587.19	-1802.37	  351.24
    111.6700	  586.00	  588.80	-1801.98	  351.08
    111.7700	  584.00	  591.08	-1806.26	  350.93
    111.8700	  592.00	  593.90	-1801.08	  350.78
    111.9700	  611.00	  597.14	-1785.31	  350.63
    112.0700	  591.00	  600.65	-1808.83	  350.49
    112.1700	  584.00	  604.30	-1819.48	  350.35
    112.2700	  566.00	  607.96	-1841.13	  350.22
    112.3700	  526.00	  611.49	-1884.66	  350.09
    112.4700	  549.00	  614.79	-1864.96	  349.97
    112.5700	  569.00	  617.78	-1847.96	  349.85
    112.6700	  525.00	  620.45	-1894.62	  349.74
    112.7700	  577.00	  622.78	-1844.95	  349.63
    112.8700	  613.00	  624.83	-1811.01	  349.52
    112.9700	  628.00	  626.71	-1797.88	  349.42
    113.0700	  612.00	  628.51	-1815.69	  349.33
    113.1700	  593.00	  630.39	-1836.56	  349.23
    113.2700	  590.00	  632.48	-1841.66	  349.15
    113.3700	  587.00	  634.97	-1847.15	  349.07
    113.4700	  601.00	  638.03	-1836.20	  348.99
    113.5700	  613.00	  641.85	-1828.03	  348.92
    113.6700	  608.00	  646.68	-1837.85	  348.86
    113.7700	  632.00	  652.76	-1819.93	  348.80
    113.8700	  638.00	  660.41	-1821.58	  348.74
    113.9700	  664.00	  670.01	-1805.18	  348.69
    114.0700	  673.00	  682.01	-1808.19	  348.65
    114.1700	  635.00	  696.98	-1861.16	  348.61
    114.2700	  661.00	  715.59	-1853.76	  348.58
    114.3700	  706.00	  738.66	-1831.83	  348.55
    114.4700	  738.00	  767.17	-1828.34	  348.53
    114.5700	  847.00	  802.29	-1754.47	  348.52
    114.6700	  797.00	  845.37	-1847.55	  348.51
    114.7700	  892.00	  897.95	-1805.13	  348.51
    114.8700	  955.00	  961.79	-1805.97	  348.51
    114.9700	 1068.00	 1038.79	-1769.96	  348.52
    115.0700	 1088.00	 1131.02	-1842.20	  348.53
    115.1700	 1234.00	 1240.65	-1805.82	  348.55
    115.2700	 1488.00	 1369.82	-1681.00	  348.58
    115.3700	 1588.00	 1520.71	-1731.88	  348.61
    115.4700	 1746.00	 1695.21	-1748.39	  348.66
    115.5700	 1985.00	 1895.06	-1709.24	  348.70
    115.6700	 2264.00	 2121.48	-1656.65	  348.76
    115.7700	 2481.00	 2375.12	-1693.30	  348.82
    115.8700	 2702.00	 2656.08	-1753.25	  348.88
    115.9700	 3071.00	 2963.44	-1691.62	  348.96
    116.0700	 3289.00	 3295.56	-1805.73	  349.04
    116.1700	 3784.00	 3649.60	-1664.78	  349.12
    116.2700	 4136.00	 4021.64	-1684.82	  349.22
    116.3700	 4355.00	 4406.79	-1850.97	  349.32
    116.4700	 4726.00	 4798.80	-1871.97	  349.43
    116.5700	 5067.00	 5190.50	-1922.68	  349.54
    116.6700	 5537.00	 5573.53	-1835.71	  349.67
    116.7700	 5882.00	 5938.54	-1855.71	  349.80
    116.8700	 6144.00	 6275.68	-1930.85	  349.94
    116.9700	 6558.00	 6574.42	-1815.60	  350.08
    117.0700	 6872.00	 6824.54	-1751.71	  350.24
    117.1700	 6998.00	 7016.46	-1817.64	  350.40
    117.2700	 7056.00	 7142.30	-1885.47	  350.56
    117.3700	 7060.00	 7196.70	-1935.88	  350.74
    117.4700	 7125.00	 7177.43	-1851.60	  350.93
    117.5700	 6983.00	 7085.70	-1901.88	  351.12
    117.6700	 6990.00	 6926.04	-1735.22	  351.32
    117.7700	 6608.00	 6705.70	-1896.87	  351.53
    117.8700	 6286.00	 6433.68	-1946.85	  351.74
    117.9700	 5985.00	 6120.16	-1934.34	  351.97
    118.0700	 5647.00	 5775.38	-1927.56	  352.20
    118.1700	 5383.00	 5409.43	-1825.60	  352.44
    118.2700	 4980.00	 5031.72	-1850.90	  352.70
    118.3700	 4655.00	 4650.57	-1794.75	  352.95
    118.4700	 4370.00	 4273.49	-1702.66	  353.22
    118.5700	 4060.00	 3906.62	-1645.79	  353.50
    118.6700	 3731.00	 3555.14	-1623.31	  353.78
    118.7700	 3353.00	 3223.10	-1669.28	  354.08
    118.8700	 2938.00	 2913.31	-1774.49	  354.38
    118.9700	 2698.00	 2627.78	-1728.96	  354.70
    119.0700	 2453.00	 2367.41	-1713.59	  355.02
    119.1700	 2128.00	 2132.53	-1803.71	  355.35
    119.2700	 1936.00	 1922.72	-1785.89	  355.69
    119.3700	 1779.00	 1736.95	-1757.12	  356.04
    119.4700	 1550.00	 1573.91	-1823.09	  356.40
    119.5700	 1411.00	 1431.91	-1820.08	  356.77
    119.6700	 1394.00	 1309.10	-1714.27	  357.15
    119.7700	 1207.00	 1203.56	-1795.74	  357.54
    119.8700	 1093.00	 1113.31	-1819.49	  357.94
    119.9700	 1043.00	 1036.48	-1792.66	  358.34
    120.0700	 1023.00	  971.26	-1747.43	  358.76
    120.1700	  897.00	  916.01	-1818.18	  359.19
    120.2700	  850.00	  869.26	-1818.43	  359.63
    120.3700	  865.00	  829.70	-1763.87	  360.08
    120.4700	  805.00	  796.20	-1790.37	  360.54
    120.5700	  806.00	  767.80	-1760.97	  361.01
    120.6700	  758.00	  743.68	-1784.85	  361.49
    120.7700	  787.00	  723.17	-1735.35	  361.98
    120.8700	  659.00	  705.72	-1845.89	  362.49
    120.9700	  678.00	  690.86	-1812.03	  363.00
    121.0700	  680.00	  678.23	-1797.40	  363.52
    121.1700	  647.00	  667.52	-1819.69	  364.06
    121.2700	  656.00	  658.49	-1801.66	  364.60
    121.3700	  631.00	  650.95	-1819.12	  365.16
    121.4700	  610.00	  644.73	-1833.90	  365.73
    121.5700	  633.00	  639.70	-1805.87	  366.31
    121.6700	  615.00	  635.74	-1819.92	  366.90
    121.7700	  625.00	  632.77	-1806.95	  367.51
    121.8700	  647.00	  630.71	-1782.88	  368.12
    121.9700	  606.00	  629.46	-1822.64	  368.75
    122.0700	  630.00	  628.98	-1798.15	  369.39
    122.1700	  595.00	  629.18	-1833.36	  370.04
    122.2700	  643.00	  630.01	-1786.18	  370.70
    122.3700	  605.00	  631.40	-1825.57	  371.38
    122.4700	  632.00	  633.27	-1800.45	  372.07
    122.5700	  633.00	  635.57	-1801.75	  372.77
    122.6700	  644.00	  638.21	-1793.38	  373.48
    122.7700	  660.00	  641.11	-1780.29	  374.20
    122.8700	  615.00	  644.19	-1828.37	  374.94
    122.9700	  606.00	  647.37	-1840.54	  375.69
    123.0700	  656.00	  650.53	-1793.71	  376.46
    123.1700	  666.00	  653.60	-1786.78	  377.23
    123.2700	  667.00	  656.48	-1788.66	  378.02
    123.3700	  642.00	  659.08	-1816.25	  378.82
    123.4700	  688.00	  661.30	-1772.48	  379.64
    123.5700	  627.00	  663.10	-1835.27	  380.47
    123.6700	  681.00	  664.40	-1782.58	  381.31
    123.7700	  716.00	  665.20	-1748.38	  382.17
    123.8700	  679.00	  665.49	-1785.66	  383.04
    123.9700	  643.00	  665.28	-1821.46	  383.92
    124.0700	  656.00	  664.63	-1807.80	  384.82
    124.1700	  621.00	  663.59	-1841.76	  385.73
    124.2700	  674.00	  662.22	-1787.40	  386.66
    124.3700	  628.00	  660.60	-1831.78	  387.60
    124.4700	  643.00	  658.81	-1814.98	  388.55
    124.5700	  699.00	  656.89	-1757.07	  389.52
    124.6700	  647.00	  654.93	-1807.10	  390.50
    124.7700	  656.00	  652.94	-1796.12	  391.50
    124.8700	  703.00	  651.02	-1747.20	  392.51
    124.9700	  618.00	  508.66	-1689.84	  393.54
    125.0700	  650.00	  509.70	-1799.18	  394.58
    125.1700	  648.00	  510.76	-1799.18	  395.64
    125.2700	  611.00	  511.83	-1799.18	  396.71
    125.3700	  636.00	  512.92	-1799.18	  397.80
    125.4700	  651.00	  514.02	-1799.18	  398.90
    125.5700	  590.00	  515.14	-1799.18	  400.02
    125.6700	  630.00	  516.28	-1799.18	  401.16
    125.7700	  600.00	  517.43	-1799.18	  402.31
    125.8700	  605.00	  518.59	-1799.18	  403.47
    125.9700	  579.00	  519.78	-1799.18	  404.66
    126.0700	  628.00	  520.97	-1799.18	  405.85
    126.1700	  593.00	  522.19	-1799.18	  407.07
    126.2700	  608.00	  523.42	-1799.18	  408.30
    126.3700	  592.00	  524.67	-1799.18	  409.54
    126.4700	  594.00	  525.93	-1799.18	  410.81
    126.5700	  547.00	  527.21	-1799.18	  412.09
    126.6700	  604.00	  528.51	-1799.18	  413.38
    126.7700	  643.00	  529.82	-1799.18	  414.70
    126.8700	  549.00	  531.15	-1799.18	  416.03
    126.9700	  589.00	  532.50	-1799.18	  417.38
    127.0700	  610.00	  533.86	-1799.18	  418.74
    127.1700	  548.00	  535.24	-1799.18	  420.12
    127.2700	  559.00	  536.64	-1799.18	  421.52
    127.3700	  594.00	  538.06	-1799.18	  422.94
    127.4700	  598.00	  539.50	-1799.18	  424.38
    127.5700	  597.00	  540.95	-1799.18	  425.83
    127.6700	  565.00	  542.42	-1799.18	  427.30
    127.7700	  540.00	  543.91	-1799.18	  428.79
    127.8700	  589.00	  545.41	-1799.18	  430.29
    127.9700	  649.00	  546.94	-1799.18	  431.82
    128.0700	  639.00	  548.48	-1799.18	  433.36
    128.1700	  649.00	  550.05	-1799.18	  434.92
    128.2700	  648.00	  551.63	-1799.18	  436.51
    128.3700	  661.00	  553.23	-1799.18	  438.10
    128.4700	  668.00	  554.84	-1799.18	  439.72
    128.5700	    0.00	  556.48	-1799.18	  441.36
    128.6700	    0.00	  558.14	-1799.18	  443.02
     12.3652	        	        	        	        	       0	(  0  0  2)	  0  1
     25.0042	        	        	        	        	       0	(  0  0  4)	  0  1
     28.4492	        	        	        	        	       0	(  1  0  0)	  0  1
     29.1499	        	        	        	        	       0	(  1  0  1)	  0  1
     31.1661	        	        	        	        	       0	(  1  0  2)	  0  1
     34.2900	        	        	        	        	       0	(  1  0  3)	  0  1
     37.9635	        	        	        	        	       0	(  0  0  6)	  0  1
     38.2870	        	        	        	        	       0	(  1  0  4)	  0  1
     42.9607	        	        	        	        	       0	(  1  0  5)	  0  1
     48.1717	        	        	        	        	       0	(  1  0  6)	  0  1
     50.4828	        	        	        	        	       0	(  1  1  0)	  0  1
     51.4527	        	        	        	        	       0	(  0  0  8)	  0  1
     52.2155	        	        	        	        	       0	(  1  1  2)	  0  1
     53.8325	        	        	        	        	       0	(  1  0  7)	  0  1
     57.1917	        	        	        	        	       0	(  1  1  4)	  0  1
     59.0217	        	        	        	        	       0	(  2  0  0)	  0  1
     59.4156	        	        	        	        	       0	(  2  0  1)	  0  1
     59.8969	        	        	        	        	       0	(  1  0  8)	  0  1
     60.5880	        	        	        	        	       0	(  2  0  2)	  0  1
     62.5129	        	        	        	        	       0	(  2  0  3)	  0  1
     64.9326	        	        	        	        	       0	(  1  1  6)	  0  1
     65.1533	        	        	        	        	       0	(  2  0  4)	  0  1
     65.7622	        	        	        	        	       0	(  0  0 10)	  0  1
     66.3515	        	        	        	        	       0	(  1  0  9)	  0  1
     68.4685	        	        	        	        	       0	(  2  0  5)	  0  1
     72.4219	        	        	        	        	       0	(  2  0  6)	  0  1
     73.2114	        	        	        	        	       0	(  1  0 10)	  0  1
     75.0359	        	        	        	        	       0	(  1  1  8)	  0  1
     76.9874	        	        	        	        	       0	(  2  0  7)	  0  1
     80.5200	        	        	        	        	       0	(  1  0 11)	  0  1
     81.3464	        	        	        	        	       0	(  0  0 12)	  0  1
     81.3931	        	        	        	        	       0	(  2  1  0)	  0  1
     81.7356	        	        	        	        	       0	(  2  1  1)	  0  1
     82.1554	        	        	        	        	       0	(  2  0  8)	  0  1
     82.7612	        	        	        	        	       0	(  2  1  2)	  0  1
     84.4658	        	        	        	        	       0	(  2  1  3)	  0  1
     86.8444	        	        	        	        	       0	(  2  1  4)	  0  1
     87.3996	        	        	        	        	       0	(  1  1 10)	  0  1
     87.9391	        	        	        	        	       0	(  2  0  9)	  0  1
     88.3551	        	        	        	        	       0	(  1  0 12)	  0  1
     89.8956	        	        	        	        	       0	(  2  1  5)	  0  1
     93.6257	        	        	        	        	       0	(  2  1  6)	  0  1
     94.3824	        	        	        	        	       0	(  2  0 10)	  0  1
     95.3875	        	        	        	        	       0	(  3  0  0)	  0  1
     95.7280	        	        	        	        	       0	(  3  0  1)	  0  1
     96.7509	        	        	        	        	       0	(  3  0  2)	  0  1
     96.8439	        	        	        	        	       0	(  1  0 13)	  0  1
     98.0560	        	        	        	        	       0	(  2  1  7)	  0  1
     98.4608	        	        	        	        	       0	(  3  0  3)	  0  1
     99.0376	        	        	        	        	       0	(  0  0 14)	  0  1
    100.8680	        	        	        	        	       0	(  3  0  4)	  0  1
    101.5749	        	        	        	        	       0	(  2  0 11)	  0  1
    102.4099	        	        	        	        	       0	(  1  1 12)	  0  1
    103.2317	        	        	        	        	       0	(  2  1  8)	  0  1
    103.9928	        	        	        	        	       0	(  3  0  5)	  0  1
    106.1958	        	        	        	        	       0	(  1  0 14)	  0  1
    107.8723	        	        	        	        	       0	(  3  0  6)	  0  1
    109.2381	        	        	        	        	       0	(  2  1  9)	  0  1
    109.6795	        	        	        	        	       0	(  2  0 12)	  0  1
    112.5719	        	        	        	        	       0	(  3  0  7)	  0  1
    116.2294	        	        	        	        	       0	(  2  1 10)	  0  1
    116.7807	        	        	        	        	       0	(  1  0 15)	  0  1
    117.3522	        	        	        	        	       0	(  2  2  0)	  0  1
    118.2062	        	        	        	        	       0	(  3  0  8)	  0  1
    118.8909	        	        	        	        	       0	(  2  2  2)	  0  1
    118.9966	        	        	        	        	       0	(  2  0 13)	  0  1
    120.8113	        	        	        	        	       0	(  0  0 16)	  0  1
    121.5142	        	        	        	        	       0	(  1  1 14)	  0  1
    123.6561	        	        	        	        	       0	(  2  2  4)	  0  1
    124.4940	        	        	        	        	       0	(  2  1 11)	  0  1
    124.9821	        	        	        	        	       0	(  3  0  9)	  0  1
    125.5489	        	        	        	        	       0	(  3  1  0)	  0  1
    125.9672	        	        	        	        	       0	(  3  1  1)	  0  1
    127.2355	        	        	        	        	       0	(  3  1  2)	  0  1
    129.3587	        	        	        	        	       0	(  1  0 16)	  0  1
    129.3987	        	        	        	        	       0	(  3  1  3)	  0  1
    130.1415	        	        	        	        	       0	(  2  0 14)	  0  1
    132.2749	        	        	        	        	       0	(  2  2  6)	  0  1
    132.5466	        	        	        	        	       0	(  3  1  4)	  0  1
    133.3054	        	        	        	        	       0	(  3  0 10)	  0  1
    134.6351	        	        	        	        	       0	(  2  1 12)	  0  1
    136.8471	        	        	        	        	       0	(  3  1  5)	  0  1
    142.6319	        	        	        	        	       0	(  3  1  6)	  0  1
    144.1340	        	        	        	        	       0	(  3  0 11)	  0  1
    144.7449	        	        	        	        	       0	(  2  0 15)	  0  1
    146.0786	        	        	        	        	       0	(  1  0 17)	  0  1
    147.0036	        	        	        	        	       0	(  2  2  8)	  0  1
    148.3034	        	        	        	        	       0	(  2  1 13)	  0  1
    150.6787	        	        	        	        	       0	(  3  1  7)	  0  1
    151.4456	        	        	        	        	       0	(  1  1 16)	  0  1
    156.2561	        	        	        	        	       0	(  0  0 18)	  0  1
    161.2592	        	        	        	        	       0	(  3  0 12)	  0  1
    161.4045	        	        	        	        	       0	(  4  0  0)	  0  1
    162.5057	        	        	        	        	       0	(  4  0  1)	  0  1
    163.9575	        	        	        	        	       0	(  3  1  8)	  0  1
    166.3187	        	        	        	        	       0	(  4  0  2)	  0  1
