MSG Master    CELL:    5.91925   5.91925  23.27623   90.0000   90.0000  120.0000   SPGR: P 63/m m c             TEMP:   1074.85
  1   1280     2.52000     0.00000    -0.12567     0.00000     0.00000    0
    99     0     2
       0.00000      10.00000
     125.00000     130.00000
 2Theta	Yobs	Ycal	Yobs-Ycal	Backg	Posr	(hkl)	K
      0.7700	    0.00	  531.67	-1757.25	  414.09
      0.8700	    0.00	  532.60	-1757.25	  415.01
      0.9700	   40.00	  533.51	-1757.25	  415.92
      1.0700	   43.00	  534.41	-1757.25	  416.82
      1.1700	   33.00	  535.29	-1757.25	  417.71
      1.2700	   39.00	  536.17	-1757.25	  418.58
      1.3700	   50.00	  537.03	-1757.25	  419.44
      1.4700	   87.00	  537.88	-1757.25	  420.29
      1.5700	  307.00	  538.71	-1757.25	  421.13
      1.6700	  418.00	  539.54	-1757.25	  421.96
      1.7700	  576.00	  540.35	-1757.25	  422.77
      1.8700	  638.00	  541.16	-1757.25	  423.57
      1.9700	  734.00	  541.95	-1757.25	  424.36
      2.0700	  790.00	  542.72	-1757.25	  425.14
      2.1700	  819.00	  543.49	-1757.25	  425.91
      2.2700	  713.00	  544.25	-1757.25	  426.66
      2.3700	  712.00	  544.99	-1757.25	  427.41
      2.4700	  711.00	  545.72	-1757.25	  428.14
      2.5700	  669.00	  546.44	-1757.25	  428.86
      2.6700	  665.00	  547.15	-1757.25	  429.57
      2.7700	  686.00	  547.85	-1757.25	  430.27
      2.8700	  640.00	  548.54	-1757.25	  430.96
      2.9700	  685.00	  549.22	-1757.25	  431.63
      3.0700	  583.00	  549.88	-1757.25	  432.30
      3.1700	  587.00	  550.54	-1757.25	  432.95
      3.2700	  643.00	  551.18	-1757.25	  433.60
      3.3700	  690.00	  551.82	-1757.25	  434.23
      3.4700	  717.00	  552.44	-1757.25	  434.86
      3.5700	  848.00	  553.05	-1757.25	  435.47
      3.6700	  892.00	  553.65	-1757.25	  436.07
      3.7700	  904.00	  554.25	-1757.25	  436.66
      3.8700	  917.00	  554.83	-1757.25	  437.24
      3.9700	 1052.00	  555.40	-1757.25	  437.82
      4.0700	 1035.00	  555.96	-1757.25	  438.38
      4.1700	 1104.00	  556.51	-1757.25	  438.93
      4.2700	 1113.00	  557.05	-1757.25	  439.47
      4.3700	 1089.00	  557.58	-1757.25	  440.00
      4.4700	 1031.00	  558.11	-1757.25	  440.52
      4.5700	 1044.00	  558.62	-1757.25	  441.03
      4.6700	 1001.00	  559.12	-1757.25	  441.54
      4.7700	 1031.00	  559.61	-1757.25	  442.03
      4.8700	  938.00	  560.09	-1757.25	  442.51
      4.9700	  981.00	  560.57	-1757.25	  442.98
      5.0700	  934.00	  561.03	-1757.25	  443.45
      5.1700	  955.00	  561.49	-1757.25	  443.90
      5.2700	  955.00	  561.93	-1757.25	  444.35
      5.3700	  913.00	  562.37	-1757.25	  444.78
      5.4700	  890.00	  562.79	-1757.25	  445.21
      5.5700	  842.00	  563.21	-1757.25	  445.63
      5.6700	  852.00	  563.62	-1757.25	  446.04
      5.7700	  801.00	  564.02	-1757.25	  446.44
      5.8700	  855.00	  564.41	-1757.25	  446.83
      5.9700	  761.00	  564.79	-1757.25	  447.21
      6.0700	  772.00	  565.17	-1757.25	  447.58
      6.1700	  765.00	  565.53	-1757.25	  447.95
      6.2700	  813.00	  565.89	-1757.25	  448.31
      6.3700	  782.00	  566.24	-1757.25	  448.65
      6.4700	  763.00	  566.58	-1757.25	  448.99
      6.5700	  760.00	  566.91	-1757.25	  449.32
      6.6700	  749.00	  567.23	-1757.25	  449.65
      6.7700	  755.00	  567.55	-1757.25	  449.96
      6.8700	  757.00	  567.85	-1757.25	  450.27
      6.9700	  726.00	  568.15	-1757.25	  450.57
      7.0700	  681.00	  568.44	-1757.25	  450.86
      7.1700	  663.00	  568.72	-1757.25	  451.14
      7.2700	  633.00	  569.00	-1757.25	  451.41
      7.3700	  645.00	  569.26	-1757.25	  451.68
      7.4700	  666.00	  569.52	-1757.25	  451.94
      7.5700	  626.00	  569.77	-1757.25	  452.19
      7.6700	  634.00	  570.02	-1757.25	  452.43
      7.7700	  648.00	  570.25	-1757.25	  452.67
      7.8700	  624.00	  570.48	-1757.25	  452.90
      7.9700	  622.00	  570.70	-1757.25	  453.12
      8.0700	  645.00	  570.91	-1757.25	  453.33
      8.1700	  615.00	  571.12	-1757.25	  453.54
      8.2700	  633.00	  571.32	-1757.25	  453.73
      8.3700	  639.00	  571.51	-1757.25	  453.93
      8.4700	  568.00	  571.69	-1757.25	  454.11
      8.5700	  618.00	  571.87	-1757.25	  454.29
      8.6700	  621.00	  572.04	-1757.25	  454.46
      8.7700	  637.00	  572.20	-1757.25	  454.62
      8.8700	  640.00	  572.36	-1757.25	  454.78
      8.9700	  613.00	  572.51	-1757.25	  454.93
      9.0700	  596.00	  572.65	-1757.25	  455.07
      9.1700	  607.00	  572.79	-1757.25	  455.20
      9.2700	  570.00	  572.92	-1757.25	  455.33
      9.3700	  576.00	  573.04	-1757.25	  455.46
      9.4700	  663.00	  573.16	-1757.25	  455.57
      9.5700	  579.00	  573.27	-1757.25	  455.68
      9.6700	  591.00	  573.37	-1757.25	  455.79
      9.7700	  594.00	  573.47	-1757.25	  455.88
      9.8700	  619.00	  573.56	-1757.25	  455.97
      9.9700	  552.00	  573.64	-1757.25	  456.06
     10.0700	  601.00	  574.60	-1730.85	  456.13
     10.1700	  633.00	  574.76	-1699.01	  456.21
     10.2700	  583.00	  574.95	-1749.20	  456.27
     10.3700	  585.00	  575.16	-1747.41	  456.33
     10.4700	  586.00	  575.43	-1746.68	  456.39
     10.5700	  626.00	  575.82	-1707.07	  456.43
     10.6700	  547.00	  576.41	-1786.66	  456.48
     10.7700	  610.00	  577.32	-1724.57	  456.51
     10.8700	  573.00	  578.60	-1762.85	  456.54
     10.9700	  598.00	  580.26	-1739.51	  456.57
     11.0700	  593.00	  582.27	-1746.52	  456.59
     11.1700	  594.00	  584.62	-1747.87	  456.60
     11.2700	  603.00	  587.34	-1741.59	  456.61
     11.3700	  618.00	  590.53	-1729.78	  456.61
     11.4700	  594.00	  594.30	-1757.55	  456.61
     11.5700	  595.00	  598.87	-1761.12	  456.60
     11.6700	  597.00	  604.58	-1764.83	  456.59
     11.7700	  638.00	  612.03	-1731.28	  456.57
     11.8700	  617.00	  622.05	-1762.30	  456.54
     11.9700	  645.00	  635.06	-1747.31	  456.51
     12.0700	  679.00	  649.33	-1727.58	  456.48
     12.1700	  707.00	  659.03	-1709.28	  456.44
     12.2700	  712.00	  655.35	-1700.60	  456.40
     12.3700	  665.00	  635.93	-1728.18	  456.35
     12.4700	  577.00	  612.37	-1792.62	  456.29
     12.5700	  615.00	  594.87	-1737.12	  456.23
     12.6700	  604.00	  585.05	-1738.30	  456.17
     12.7700	  538.00	  580.40	-1799.65	  456.10
     12.8700	  573.00	  578.24	-1762.49	  456.03
     12.9700	  619.00	  577.07	-1715.32	  455.95
     13.0700	  545.00	  576.29	-1788.54	  455.87
     13.1700	  563.00	  575.72	-1769.97	  455.78
     13.2700	  584.00	  575.26	-1748.51	  455.69
     13.3700	  566.00	  574.88	-1766.13	  455.59
     13.4700	  540.00	  574.56	-1791.81	  455.49
     13.5700	  504.00	  574.28	-1827.53	  455.39
     13.6700	  543.00	  574.03	-1788.28	  455.28
     13.7700	  556.00	  573.79	-1775.04	  455.17
     13.8700	  574.00	  573.58	-1756.83	  455.05
     13.9700	  592.00	  573.38	-1738.62	  454.93
     14.0700	  555.00	  573.18	-1775.43	  454.80
     14.1700	  535.00	  572.99	-1795.24	  454.67
     14.2700	  581.00	  572.80	-1749.05	  454.54
     14.3700	  522.00	  572.62	-1807.87	  454.40
     14.4700	  599.00	  572.44	-1730.69	  454.26
     14.5700	  524.00	  572.26	-1805.51	  454.12
     14.6700	  534.00	  572.08	-1795.33	  453.97
     14.7700	  591.00	  571.90	-1738.15	  453.81
     14.8700	  589.00	  571.72	-1739.97	  453.66
     14.9700	  548.00	  571.54	-1780.79	  453.50
     15.0700	  562.00	  571.35	-1766.60	  453.33
     15.1700	  542.00	  571.17	-1786.42	  453.17
     15.2700	  542.00	  570.98	-1786.23	  453.00
     15.3700	  575.00	  570.79	-1753.04	  452.82
     15.4700	  530.00	  570.60	-1797.85	  452.64
     15.5700	  582.00	  570.41	-1745.66	  452.46
     15.6700	  594.00	  570.21	-1733.46	  452.28
     15.7700	  555.00	  570.01	-1772.26	  452.09
     15.8700	  629.00	  569.84	-1698.09	  451.90
     15.9700	  571.00	  569.64	-1755.89	  451.71
     16.0700	  586.00	  569.44	-1740.69	  451.51
     16.1700	  523.00	  569.23	-1803.48	  451.31
     16.2700	  591.00	  569.02	-1735.27	  451.10
     16.3700	  562.00	  568.81	-1764.06	  450.90
     16.4700	  560.00	  568.59	-1765.84	  450.69
     16.5700	  556.00	  568.37	-1769.62	  450.47
     16.6700	  614.00	  568.15	-1711.40	  450.26
     16.7700	  555.00	  567.93	-1770.18	  450.04
     16.8700	  577.00	  567.71	-1747.96	  449.82
     16.9700	  590.00	  567.48	-1734.73	  449.60
     17.0700	  541.00	  567.25	-1783.50	  449.37
     17.1700	  610.00	  567.02	-1714.27	  449.14
     17.2700	  567.00	  566.78	-1757.03	  448.91
     17.3700	  561.00	  566.54	-1762.79	  448.67
     17.4700	  556.00	  566.31	-1767.56	  448.43
     17.5700	  567.00	  566.06	-1756.31	  448.19
     17.6700	  566.00	  565.82	-1757.07	  447.95
     17.7700	  508.00	  565.57	-1814.82	  447.71
     17.8700	  566.00	  565.32	-1756.57	  447.46
     17.9700	  596.00	  565.18	-1726.43	  447.21
     18.0700	  510.00	  564.93	-1812.18	  446.96
     18.1700	  505.00	  564.67	-1816.92	  446.70
     18.2700	  554.00	  564.42	-1767.67	  446.45
     18.3700	  592.00	  564.16	-1729.41	  446.19
     18.4700	  549.00	  563.90	-1772.15	  445.93
     18.5700	  545.00	  563.64	-1775.89	  445.66
     18.6700	  566.00	  563.38	-1754.63	  445.40
     18.7700	  543.00	  563.19	-1777.44	  445.13
     18.8700	  536.00	  562.93	-1784.18	  444.86
     18.9700	  527.00	  562.66	-1792.91	  444.59
     19.0700	  588.00	  562.39	-1731.64	  444.31
     19.1700	  554.00	  562.12	-1765.37	  444.04
     19.2700	  573.00	  561.85	-1746.10	  443.76
     19.3700	  555.00	  561.58	-1763.83	  443.48
     19.4700	  529.00	  561.31	-1789.56	  443.20
     19.5700	  526.00	  561.03	-1792.28	  442.92
     19.6700	  533.00	  560.75	-1785.00	  442.63
     19.7700	  572.00	  560.48	-1745.73	  442.35
     19.8700	  589.00	  560.20	-1728.45	  442.06
     19.9700	  556.00	  559.92	-1761.17	  441.77
     20.0700	  565.00	  559.63	-1751.88	  441.48
     20.1700	  570.00	  559.35	-1746.60	  441.18
     20.2700	  559.00	  559.07	-1757.32	  440.89
     20.3700	  519.00	  558.78	-1797.03	  440.59
     20.4700	  544.00	  558.50	-1771.75	  440.30
     20.5700	  542.00	  558.21	-1773.46	  440.00
     20.6700	  599.00	  557.92	-1716.17	  439.70
     20.7700	  535.00	  557.67	-1779.92	  439.40
     20.8700	  553.00	  557.38	-1761.63	  439.09
     20.9700	  548.00	  557.06	-1766.31	  438.79
     21.0700	  536.00	  556.77	-1778.02	  438.48
     21.1700	  557.00	  556.49	-1756.74	  438.18
     21.2700	  572.00	  556.20	-1741.45	  437.87
     21.3700	  522.00	  555.91	-1791.16	  437.56
     21.4700	  574.00	  555.62	-1738.87	  437.25
     21.5700	  549.00	  555.34	-1763.59	  436.94
     21.6700	  555.00	  555.05	-1757.30	  436.62
     21.7700	  509.00	  554.77	-1803.02	  436.31
     21.8700	  565.00	  554.48	-1746.73	  436.00
     21.9700	  568.00	  554.20	-1743.45	  435.68
     22.0700	  519.00	  553.92	-1792.17	  435.36
     22.1700	  552.00	  553.65	-1758.90	  435.05
     22.2700	  549.00	  553.37	-1761.62	  434.73
     22.3700	  549.00	  553.10	-1761.35	  434.41
     22.4700	  530.00	  552.83	-1780.08	  434.09
     22.5700	  559.00	  552.57	-1750.82	  433.77
     22.6700	  551.00	  552.32	-1758.57	  433.45
     22.7700	  572.00	  552.07	-1737.32	  433.12
     22.8700	  543.00	  551.83	-1766.08	  432.80
     22.9700	  520.00	  551.60	-1788.85	  432.48
     23.0700	  549.00	  551.39	-1759.64	  432.15
     23.1700	  557.00	  551.19	-1751.44	  431.83
     23.2700	  593.00	  551.02	-1715.27	  431.50
     23.3700	  518.00	  550.87	-1790.12	  431.17
     23.4700	  585.00	  550.77	-1723.02	  430.85
     23.5700	  583.00	  550.85	-1725.10	  430.52
     23.6700	  564.00	  550.88	-1744.13	  430.19
     23.7700	  545.00	  551.04	-1763.29	  429.86
     23.8700	  575.00	  551.44	-1733.69	  429.53
     23.9700	  532.00	  552.32	-1777.57	  429.20
     24.0700	  546.00	  554.13	-1765.38	  428.87
     24.1700	  543.00	  557.52	-1771.77	  428.54
     24.2700	  527.00	  563.34	-1793.59	  428.21
     24.3700	  577.00	  572.54	-1752.79	  427.88
     24.4700	  588.00	  586.00	-1755.25	  427.55
     24.5700	  623.00	  603.66	-1737.91	  427.22
     24.6700	  631.00	  622.47	-1748.72	  426.89
     24.7700	  670.00	  634.83	-1722.08	  426.56
     24.8700	  668.00	  631.03	-1720.28	  426.23
     24.9700	  599.00	  610.50	-1768.75	  425.89
     25.0700	  622.00	  586.03	-1721.28	  425.56
     25.1700	  566.00	  567.54	-1758.79	  425.23
     25.2700	  545.00	  556.78	-1769.03	  424.90
     25.3700	  537.00	  551.49	-1771.74	  424.56
     25.4700	  564.00	  548.98	-1742.23	  424.23
     25.5700	  565.00	  547.63	-1739.88	  423.90
     25.6700	  564.00	  546.75	-1740.00	  423.57
     25.7700	  564.00	  546.11	-1739.36	  423.23
     25.8700	  531.00	  545.62	-1771.87	  422.90
     25.9700	  580.00	  545.25	-1722.50	  422.57
     26.0700	  556.00	  544.97	-1746.22	  422.24
     26.1700	  566.00	  544.77	-1736.02	  421.91
     26.2700	  579.00	  544.66	-1722.91	  421.57
     26.3700	  566.00	  544.62	-1735.87	  421.24
     26.4700	  582.00	  544.67	-1719.92	  420.91
     26.5700	  622.00	  544.81	-1680.06	  420.58
     26.6700	  536.00	  545.07	-1766.32	  420.25
     26.7700	  567.00	  545.47	-1735.72	  419.92
     26.8700	  530.00	  546.04	-1773.29	  419.59
     26.9700	  537.00	  546.84	-1767.09	  419.26
     27.0700	  603.00	  547.94	-1702.19	  418.93
     27.1700	  523.00	  549.47	-1783.72	  418.60
     27.2700	  544.00	  551.69	-1764.94	  418.27
     27.3700	  562.00	  555.10	-1750.35	  417.94
     27.4700	  571.00	  560.66	-1746.91	  417.61
     27.5700	  568.00	  570.13	-1759.38	  417.28
     27.6700	  619.00	  586.25	-1724.50	  416.96
     27.7700	  582.00	  612.54	-1787.79	  416.63
     27.8700	  609.00	  652.03	-1800.28	  416.30
     27.9700	  664.00	  704.78	-1798.03	  415.98
     28.0700	  747.00	  764.72	-1774.97	  415.65
     28.1700	  901.00	  816.81	-1673.06	  415.33
     28.2700	  968.00	  838.53	-1627.78	  415.00
     28.3700	  868.00	  816.65	-1705.90	  414.68
     28.4700	  793.00	  772.22	-1736.47	  414.36
     28.5700	  718.00	  739.98	-1779.23	  414.03
     28.6700	  711.00	  735.80	-1782.05	  413.71
     28.7700	  716.00	  755.33	-1796.58	  413.39
     28.8700	  759.00	  779.90	-1778.15	  413.07
     28.9700	  829.00	  783.37	-1711.62	  412.75
     29.0700	  777.00	  749.17	-1729.42	  412.43
     29.1700	  659.00	  691.36	-1789.61	  412.12
     29.2700	  639.00	  636.09	-1754.34	  411.80
     29.3700	  636.00	  595.94	-1717.19	  411.48
     29.4700	  655.00	  571.41	-1673.66	  411.17
     29.5700	  579.00	  557.96	-1736.21	  410.85
     29.6700	  599.00	  550.76	-1709.01	  410.54
     29.7700	  601.00	  546.63	-1702.88	  410.22
     29.8700	  593.00	  544.02	-1708.27	  409.91
     29.9700	  605.00	  542.31	-1694.56	  409.60
     30.0700	  565.00	  541.35	-1733.60	  409.29
     30.1700	  575.00	  541.25	-1723.50	  408.98
     30.2700	  557.00	  542.44	-1742.69	  408.67
     30.3700	  556.00	  545.76	-1747.01	  408.36
     30.4700	  561.00	  552.47	-1748.72	  408.06
     30.5700	  545.00	  563.88	-1776.13	  407.75
     30.6700	  580.00	  580.25	-1757.50	  407.44
     30.7700	  589.00	  599.49	-1767.74	  407.14
     30.8700	  636.00	  616.16	-1737.41	  406.84
     30.9700	  640.00	  621.87	-1739.12	  406.54
     31.0700	  585.00	  611.08	-1783.33	  406.24
     31.1700	  565.00	  589.33	-1781.58	  405.94
     31.2700	  553.00	  567.41	-1771.66	  405.64
     31.3700	  522.00	  551.06	-1786.31	  405.34
     31.4700	  529.00	  540.96	-1769.21	  405.04
     31.5700	  552.00	  535.44	-1740.69	  404.75
     31.6700	  534.00	  532.54	-1755.79	  404.45
     31.7700	  558.00	  530.91	-1730.16	  404.16
     31.8700	  502.00	  529.88	-1785.13	  403.87
     31.9700	  542.00	  529.17	-1744.42	  403.58
     32.0700	  543.00	  528.66	-1742.91	  403.29
     32.1700	  521.00	  528.33	-1764.58	  403.00
     32.2700	  573.00	  528.14	-1712.39	  402.71
     32.3700	  538.00	  528.09	-1747.34	  402.43
     32.4700	  549.00	  528.20	-1736.45	  402.14
     32.5700	  538.00	  528.48	-1747.73	  401.86
     32.6700	  543.00	  528.95	-1743.20	  401.58
     32.7700	  557.00	  529.67	-1729.92	  401.30
     32.8700	  539.00	  530.71	-1748.96	  401.02
     32.9700	  585.00	  532.18	-1704.44	  400.74
     33.0700	  510.00	  534.33	-1781.58	  400.46
     33.1700	  564.00	  537.61	-1730.86	  400.19
     33.2700	  534.00	  543.11	-1766.36	  399.91
     33.3700	  557.00	  553.09	-1753.34	  399.64
     33.4700	  554.00	  571.81	-1775.06	  399.37
     33.5700	  572.00	  605.87	-1791.12	  399.10
     33.6700	  657.00	  662.53	-1762.78	  398.83
     33.7700	  756.00	  744.64	-1745.89	  398.56
     33.8700	  891.00	  842.86	-1709.11	  398.30
     33.9700	  987.00	  931.01	-1701.26	  398.03
     34.0700	 1041.00	  969.31	-1685.56	  397.77
     34.1700	 1004.00	  928.84	-1682.09	  397.51
     34.2700	  846.00	  830.38	-1741.63	  397.25
     34.3700	  740.00	  724.10	-1741.35	  396.99
     34.4700	  648.00	  641.01	-1750.26	  396.73
     34.5700	  646.00	  587.87	-1699.12	  396.48
     34.6700	  544.00	  558.45	-1771.70	  396.22
     34.7700	  568.00	  543.32	-1732.57	  395.97
     34.8700	  546.00	  535.32	-1746.57	  395.72
     34.9700	  449.00	  530.55	-1838.80	  395.47
     35.0700	  557.00	  527.25	-1727.50	  395.22
     35.1700	  504.00	  524.76	-1778.01	  394.97
     35.2700	  522.00	  522.79	-1758.04	  394.73
     35.3700	  509.00	  521.19	-1769.44	  394.48
     35.4700	  497.00	  519.86	-1780.11	  394.24
     35.5700	  495.00	  518.74	-1780.99	  394.00
     35.6700	  529.00	  517.77	-1746.02	  393.76
     35.7700	  536.00	  516.93	-1738.18	  393.53
     35.8700	  532.00	  516.19	-1741.44	  393.29
     35.9700	  505.00	  515.99	-1768.24	  393.06
     36.0700	  514.00	  515.41	-1758.66	  392.82
     36.1700	  530.00	  514.88	-1742.13	  392.59
     36.2700	  539.00	  514.41	-1732.66	  392.36
     36.3700	  525.00	  513.97	-1746.22	  392.14
     36.4700	  521.00	  513.58	-1749.83	  391.91
     36.5700	  518.00	  513.24	-1752.49	  391.69
     36.6700	  506.00	  512.93	-1764.18	  391.46
     36.7700	  498.00	  512.68	-1771.93	  391.24
     36.8700	  548.00	  512.51	-1721.76	  391.02
     36.9700	  505.00	  512.48	-1764.73	  390.80
     37.0700	  521.00	  512.75	-1749.00	  390.59
     37.1700	  500.00	  513.56	-1770.81	  390.37
     37.2700	  506.00	  515.29	-1766.54	  390.16
     37.3700	  522.00	  518.23	-1753.48	  389.95
     37.4700	  541.00	  522.28	-1738.53	  389.74
     37.5700	  526.00	  526.61	-1757.86	  389.53
     37.6700	  517.00	  529.62	-1769.86	  389.33
     37.7700	  565.00	  529.61	-1721.86	  389.12
     37.8700	  517.00	  526.42	-1766.67	  388.92
     37.9700	  512.00	  521.80	-1767.05	  388.72
     38.0700	  494.00	  517.41	-1780.66	  388.52
     38.1700	  525.00	  513.97	-1746.22	  388.32
     38.2700	  529.00	  511.57	-1739.82	  388.13
     38.3700	  500.00	  510.00	-1767.25	  387.94
     38.4700	  507.00	  509.01	-1759.26	  387.74
     38.5700	  540.00	  508.35	-1725.60	  387.55
     38.6700	  504.00	  507.79	-1761.04	  387.36
     38.7700	  497.00	  507.44	-1767.69	  387.18
     38.8700	  510.00	  507.15	-1754.40	  386.99
     38.9700	  524.00	  506.89	-1740.14	  386.81
     39.0700	  520.00	  506.66	-1743.91	  386.63
     39.1700	  510.00	  506.37	-1753.62	  386.45
     39.2700	  527.00	  506.17	-1736.42	  386.27
     39.3700	  495.00	  506.13	-1768.38	  386.09
     39.4700	  533.00	  505.96	-1730.21	  385.92
     39.5700	  554.00	  505.79	-1709.04	  385.75
     39.6700	  546.00	  505.64	-1716.89	  385.58
     39.7700	  523.00	  505.50	-1739.75	  385.41
     39.8700	  538.00	  505.36	-1724.61	  385.24
     39.9700	  493.00	  505.24	-1769.49	  385.08
     40.0700	  479.00	  505.12	-1783.37	  384.91
     40.1700	  538.00	  505.02	-1724.27	  384.75
     40.2700	  550.00	  504.93	-1712.18	  384.59
     40.3700	  513.00	  504.85	-1749.10	  384.43
     40.4700	  547.00	  504.78	-1715.03	  384.28
     40.5700	  502.00	  504.73	-1759.98	  384.12
     40.6700	  484.00	  504.70	-1777.95	  383.97
     40.7700	  480.00	  504.69	-1781.94	  383.82
     40.8700	  525.00	  504.70	-1736.95	  383.67
     40.9700	  478.00	  504.74	-1783.99	  383.52
     41.0700	  526.00	  504.81	-1736.06	  383.38
     41.1700	  456.00	  504.93	-1806.18	  383.23
     41.2700	  497.00	  505.07	-1765.32	  383.09
     41.3700	  506.00	  505.32	-1756.57	  382.95
     41.4700	  489.00	  506.09	-1774.34	  382.81
     41.5700	  483.00	  506.55	-1780.80	  382.68
     41.6700	  447.00	  507.21	-1817.46	  382.54
     41.7700	  527.00	  508.20	-1738.45	  382.41
     41.8700	  494.00	  509.86	-1773.11	  382.28
     41.9700	  489.00	  512.91	-1781.16	  382.15
     42.0700	  511.00	  518.70	-1764.95	  382.02
     42.1700	  538.00	  529.29	-1748.54	  381.90
     42.2700	  519.00	  547.01	-1785.26	  381.78
     42.3700	  585.00	  572.88	-1745.13	  381.65
     42.4700	  603.00	  604.87	-1759.12	  381.53
     42.5700	  569.00	  635.99	-1824.24	  381.42
     42.6700	  586.00	  655.14	-1826.39	  381.30
     42.7700	  615.00	  652.13	-1794.38	  381.19
     42.8700	  596.00	  627.98	-1789.23	  381.07
     42.9700	  512.00	  594.52	-1839.77	  380.96
     43.0700	  541.00	  563.12	-1779.37	  380.86
     43.1700	  521.00	  539.37	-1775.62	  380.75
     43.2700	  482.00	  524.05	-1799.30	  380.64
     43.3700	  526.00	  515.31	-1746.56	  380.54
     43.4700	  485.00	  510.69	-1782.94	  380.44
     43.5700	  516.00	  508.24	-1749.49	  380.34
     43.6700	  479.00	  507.01	-1785.26	  380.24
     43.7700	  526.00	  506.13	-1737.38	  380.15
     43.8700	  483.00	  505.46	-1779.71	  380.05
     43.9700	  494.00	  504.96	-1768.21	  379.96
     44.0700	  508.00	  504.57	-1753.82	  379.87
     44.1700	  503.00	  504.26	-1758.51	  379.78
     44.2700	  479.00	  504.02	-1782.27	  379.69
     44.3700	  487.00	  503.83	-1774.08	  379.61
     44.4700	  525.00	  503.69	-1735.94	  379.53
     44.5700	  478.00	  503.59	-1782.84	  379.44
     44.6700	  544.00	  503.39	-1716.64	  379.37
     44.7700	  490.00	  503.35	-1770.60	  379.29
     44.8700	  508.00	  503.34	-1752.59	  379.21
     44.9700	  480.00	  503.35	-1780.60	  379.14
     45.0700	  503.00	  503.57	-1757.82	  379.07
     45.1700	  471.00	  503.63	-1789.88	  378.99
     45.2700	  504.00	  503.71	-1756.96	  378.93
     45.3700	  495.00	  503.82	-1766.07	  378.86
     45.4700	  516.00	  503.95	-1745.20	  378.79
     45.5700	  468.00	  504.10	-1793.35	  378.73
     45.6700	  543.00	  504.28	-1718.53	  378.67
     45.7700	  515.00	  504.49	-1746.74	  378.61
     45.8700	  505.00	  504.72	-1756.97	  378.55
     45.9700	  480.00	  504.99	-1782.24	  378.50
     46.0700	  500.00	  505.29	-1762.54	  378.44
     46.1700	  500.00	  505.63	-1762.88	  378.39
     46.2700	  520.00	  506.02	-1743.27	  378.34
     46.3700	  510.00	  506.46	-1753.71	  378.29
     46.4700	  466.00	  506.95	-1798.20	  378.24
     46.5700	  498.00	  507.53	-1766.78	  378.20
     46.6700	  517.00	  508.19	-1748.44	  378.15
     46.7700	  497.00	  508.97	-1769.22	  378.11
     46.8700	  519.00	  509.93	-1748.18	  378.07
     46.9700	  531.00	  511.21	-1737.46	  378.03
     47.0700	  483.00	  513.16	-1787.41	  377.99
     47.1700	  536.00	  516.16	-1737.41	  377.96
     47.2700	  529.00	  521.15	-1749.40	  377.92
     47.3700	  504.00	  529.26	-1782.51	  377.89
     47.4700	  502.00	  541.42	-1796.67	  377.86
     47.5700	  546.00	  557.70	-1768.95	  377.83
     47.6700	  565.00	  576.43	-1768.68	  377.81
     47.7700	  603.00	  593.59	-1747.84	  377.78
     47.8700	  600.00	  603.67	-1760.92	  377.76
     47.9700	  591.00	  602.52	-1768.77	  377.74
     48.0700	  594.00	  591.36	-1754.61	  377.72
     48.1700	  573.00	  575.76	-1760.01	  377.70
     48.2700	  563.00	  561.05	-1755.30	  377.68
     48.3700	  541.00	  550.18	-1766.43	  377.67
     48.4700	  529.00	  544.00	-1772.25	  377.66
     48.5700	  563.00	  541.98	-1736.23	  377.64
     48.6700	  508.00	  543.15	-1792.40	  377.63
     48.7700	  553.00	  546.64	-1750.89	  377.63
     48.8700	  512.00	  552.03	-1797.28	  377.62
     48.9700	  545.00	  559.37	-1771.62	  377.61
     49.0700	  567.00	  569.34	-1759.59	  377.61
     49.1700	  580.00	  583.56	-1760.81	  377.61
     49.2700	  571.00	  605.48	-1791.73	  377.61
     49.3700	  672.00	  641.92	-1727.17	  377.61
     49.4700	  730.00	  703.11	-1730.36	  377.61
     49.5700	  751.00	  804.88	-1811.13	  377.62
     49.6700	  900.00	  964.79	-1822.04	  377.62
     49.7700	 1118.00	 1195.73	-1834.98	  377.63
     49.8700	 1434.00	 1495.76	-1819.01	  377.64
     49.9700	 1863.00	 1836.58	-1730.83	  377.65
     50.0700	 2204.00	 2155.02	-1708.27	  377.67
     50.1700	 2410.00	 2357.45	-1704.70	  377.68
     50.2700	 2361.00	 2360.73	-1756.98	  377.70
     50.3700	 2259.00	 2161.35	-1659.60	  377.71
     50.4700	 1877.00	 1842.67	-1722.92	  377.73
     50.5700	 1398.00	 1502.93	-1862.18	  377.75
     50.6700	 1031.00	 1206.98	-1933.23	  377.77
     50.7700	  786.00	  983.06	-1954.31	  377.80
     50.8700	  713.00	  832.45	-1876.70	  377.82
     50.9700	  679.00	  740.55	-1818.80	  377.85
     51.0700	  619.00	  687.17	-1825.42	  377.88
     51.1700	  639.00	  654.07	-1772.32	  377.91
     51.2700	  625.00	  629.39	-1761.64	  377.94
     51.3700	  587.00	  608.28	-1778.53	  377.97
     51.4700	  576.00	  590.06	-1771.31	  378.00
     51.5700	  609.00	  575.13	-1723.38	  378.04
     51.6700	  577.00	  563.73	-1743.98	  378.08
     51.7700	  559.00	  555.61	-1753.86	  378.11
     51.8700	  543.00	  550.15	-1764.40	  378.15
     51.9700	  566.00	  546.66	-1737.91	  378.19
     52.0700	  599.00	  544.84	-1703.09	  378.24
     52.1700	  564.00	  543.88	-1737.13	  378.28
     52.2700	  516.00	  543.91	-1785.16	  378.33
     52.3700	  544.00	  545.06	-1758.31	  378.37
     52.4700	  540.00	  547.81	-1765.06	  378.42
     52.5700	  546.00	  553.34	-1764.59	  378.47
     52.6700	  604.00	  564.01	-1717.26	  378.52
     52.7700	  650.00	  583.97	-1691.22	  378.57
     52.8700	  722.00	  619.40	-1654.65	  378.63
     52.9700	  693.00	  677.53	-1741.78	  378.68
     53.0700	  778.00	  763.94	-1743.19	  378.74
     53.1700	  890.00	  878.39	-1745.64	  378.80
     53.2700	 1065.00	 1010.26	-1702.51	  378.85
     53.3700	 1137.00	 1135.84	-1756.09	  378.91
     53.4700	 1183.00	 1220.39	-1794.64	  378.98
     53.5700	 1194.00	 1231.71	-1794.96	  379.04
     53.6700	 1117.00	 1164.34	-1804.59	  379.10
     53.7700	  971.00	 1045.51	-1831.76	  379.17
     53.8700	  892.00	  912.16	-1777.41	  379.24
     53.9700	  740.00	  791.68	-1808.93	  379.30
     54.0700	  701.00	  697.93	-1754.18	  379.37
     54.1700	  619.00	  633.35	-1771.60	  379.44
     54.2700	  609.00	  593.34	-1741.59	  379.51
     54.3700	  586.00	  570.65	-1741.90	  379.59
     54.4700	  636.00	  558.61	-1679.86	  379.66
     54.5700	  568.00	  552.51	-1741.76	  379.74
     54.6700	  547.00	  549.55	-1759.80	  379.81
     54.7700	  572.00	  548.37	-1733.62	  379.89
     54.8700	  543.00	  548.31	-1762.56	  379.97
     54.9700	  564.00	  549.11	-1742.36	  380.05
     55.0700	  572.00	  550.71	-1735.96	  380.13
     55.1700	  567.00	  553.06	-1743.31	  380.21
     55.2700	  561.00	  556.25	-1752.50	  380.30
     55.3700	  533.00	  560.41	-1784.66	  380.38
     55.4700	  531.00	  565.76	-1792.01	  380.47
     55.5700	  582.00	  572.72	-1747.97	  380.55
     55.6700	  591.00	  582.13	-1748.38	  380.64
     55.7700	  641.00	  595.69	-1711.94	  380.73
     55.8700	  624.00	  616.79	-1750.04	  380.82
     55.9700	  635.00	  651.67	-1773.92	  380.91
     56.0700	  650.00	  710.54	-1817.79	  381.01
     56.1700	  756.00	  807.96	-1809.21	  381.10
     56.2700	  891.00	  960.97	-1827.22	  381.19
     56.3700	 1115.00	 1183.99	-1826.24	  381.29
     56.4700	 1460.00	 1480.62	-1777.87	  381.38
     56.5700	 1714.00	 1834.66	-1877.91	  381.48
     56.6700	 2124.00	 2202.68	-1835.93	  381.58
     56.7700	 2313.00	 2511.84	-1956.09	  381.68
     56.8700	 2610.00	 2673.45	-1820.70	  381.78
     56.9700	 2682.00	 2627.73	-1702.98	  381.88
     57.0700	 2398.00	 2392.33	-1751.58	  381.98
     57.1700	 1950.00	 2047.77	-1855.02	  382.09
     57.2700	 1622.00	 1680.49	-1815.74	  382.19
     57.3700	 1333.00	 1350.92	-1775.17	  382.30
     57.4700	 1059.00	 1089.80	-1788.05	  382.40
     57.5700	  902.00	  903.62	-1758.87	  382.51
     57.6700	  764.00	  783.18	-1776.43	  382.62
     57.7700	  743.00	  712.78	-1727.03	  382.73
     57.8700	  742.00	  677.27	-1692.52	  382.84
     57.9700	  707.00	  665.84	-1716.09	  382.95
     58.0700	  663.00	  672.58	-1766.83	  383.06
     58.1700	  740.00	  695.41	-1712.66	  383.17
     58.2700	  752.00	  734.26	-1739.51	  383.29
     58.3700	  851.00	  789.22	-1695.47	  383.40
     58.4700	  924.00	  858.99	-1692.24	  383.51
     58.5700	 1089.00	  939.32	-1607.57	  383.63
     58.6700	 1113.00	 1022.46	-1666.71	  383.75
     58.7700	 1366.00	 1099.33	-1490.58	  383.86
     58.8700	 1375.00	 1163.62	-1545.87	  383.98
     58.9700	 1508.00	 1211.82	-1461.07	  384.10
     59.0700	 1474.00	 1239.17	-1522.42	  384.22
     59.1700	 1417.00	 1241.26	-1581.51	  384.34
     59.2700	 1362.00	 1221.31	-1616.56	  384.46
     59.3700	 1334.00	 1190.83	-1614.08	  384.58
     59.4700	 1262.00	 1161.73	-1656.98	  384.71
     59.5700	 1201.00	 1142.18	-1698.43	  384.83
     59.6700	 1134.00	 1139.44	-1762.69	  384.95
     59.7700	 1117.00	 1162.03	-1802.28	  385.08
     59.8700	 1230.00	 1215.44	-1742.69	  385.20
     59.9700	 1316.00	 1295.85	-1737.10	  385.33
     60.0700	 1424.00	 1387.48	-1720.73	  385.45
     60.1700	 1624.00	 1462.99	-1596.24	  385.58
     60.2700	 1511.00	 1490.46	-1736.71	  385.71
     60.3700	 1603.00	 1449.84	-1604.09	  385.84
     60.4700	 1380.00	 1347.39	-1724.64	  385.97
     60.5700	 1363.00	 1209.17	-1603.42	  386.10
     60.6700	 1082.00	 1063.38	-1738.63	  386.23
     60.7700	  894.00	  930.67	-1793.92	  386.36
     60.8700	  774.00	  822.74	-1805.99	  386.49
     60.9700	  694.00	  743.82	-1807.07	  386.62
     61.0700	  646.00	  693.01	-1804.26	  386.75
     61.1700	  637.00	  667.28	-1787.53	  386.89
     61.2700	  655.00	  664.12	-1766.37	  387.02
     61.3700	  648.00	  683.12	-1792.37	  387.15
     61.4700	  692.00	  726.18	-1791.43	  387.29
     61.5700	  775.00	  796.30	-1778.55	  387.42
     61.6700	  831.00	  895.18	-1821.43	  387.56
     61.7700	  964.00	 1020.42	-1813.67	  387.69
     61.8700	 1116.00	 1162.92	-1804.17	  387.83
     61.9700	 1239.00	 1305.10	-1823.35	  387.96
     62.0700	 1383.00	 1420.93	-1795.18	  388.10
     62.1700	 1354.00	 1480.81	-1884.06	  388.24
     62.2700	 1469.00	 1465.28	-1753.53	  388.38
     62.3700	 1280.00	 1378.96	-1856.21	  388.52
     62.4700	 1168.00	 1247.05	-1836.30	  388.65
     62.5700	 1028.00	 1099.05	-1828.30	  388.79
     62.6700	  862.00	  957.96	-1853.21	  388.93
     62.7700	  767.00	  837.80	-1828.05	  389.07
     62.8700	  650.00	  744.45	-1851.70	  389.21
     62.9700	  623.00	  677.54	-1811.79	  389.35
     63.0700	  633.00	  632.87	-1757.12	  389.49
     63.1700	  660.00	  604.87	-1702.12	  389.63
     63.2700	  568.00	  588.33	-1777.58	  389.77
     63.3700	  598.00	  579.35	-1738.60	  389.92
     63.4700	  575.00	  575.60	-1757.85	  390.06
     63.5700	  555.00	  576.21	-1778.46	  390.20
     63.6700	  565.00	  581.54	-1773.79	  390.34
     63.7700	  619.00	  592.92	-1731.17	  390.48
     63.8700	  663.00	  612.29	-1706.54	  390.63
     63.9700	  692.00	  641.69	-1706.94	  390.77
     64.0700	  742.00	  682.46	-1697.71	  390.91
     64.1700	  739.00	  734.32	-1752.57	  391.05
     64.2700	  837.00	  794.54	-1714.79	  391.20
     64.3700	  951.00	  857.24	-1663.49	  391.34
     64.4700	  990.00	  912.99	-1680.24	  391.49
     64.5700	 1005.00	  952.18	-1704.43	  391.63
     64.6700	 1014.00	  966.00	-1709.25	  391.77
     64.7700	  964.00	  952.74	-1745.99	  391.92
     64.8700	  984.00	  917.22	-1690.47	  392.06
     64.9700	  921.00	  867.90	-1704.15	  392.20
     65.0700	  813.00	  813.96	-1758.21	  392.35
     65.1700	  823.00	  762.71	-1696.96	  392.49
     65.2700	  724.00	  718.20	-1751.45	  392.64
     65.3700	  658.00	  681.42	-1780.67	  392.78
     65.4700	  628.00	  651.59	-1780.84	  392.93
     65.5700	  649.00	  627.59	-1735.84	  393.07
     65.6700	  560.00	  608.55	-1805.80	  393.21
     65.7700	  554.00	  593.82	-1797.07	  393.36
     65.8700	  544.00	  582.84	-1796.09	  393.50
     65.9700	  547.00	  575.13	-1785.38	  393.65
     66.0700	  516.00	  570.22	-1811.47	  393.79
     66.1700	  576.00	  567.67	-1748.92	  393.94
     66.2700	  544.00	  567.09	-1780.34	  394.08
     66.3700	  538.00	  568.14	-1787.39	  394.22
     66.4700	  539.00	  570.75	-1789.00	  394.37
     66.5700	  553.00	  574.75	-1779.00	  394.51
     66.6700	  604.00	  580.63	-1733.88	  394.66
     66.7700	  571.00	  589.31	-1775.56	  394.80
     66.8700	  571.00	  602.55	-1788.80	  394.94
     66.9700	  583.00	  623.40	-1797.65	  395.09
     67.0700	  675.00	  656.57	-1738.82	  395.23
     67.1700	  695.00	  708.77	-1771.02	  395.37
     67.2700	  765.00	  788.35	-1780.60	  395.51
     67.3700	  848.00	  904.29	-1813.54	  395.66
     67.4700	 1025.00	 1063.51	-1795.76	  395.80
     67.5700	 1255.00	 1268.38	-1770.63	  395.94
     67.6700	 1484.00	 1513.16	-1786.41	  396.08
     67.7700	 1833.00	 1781.35	-1705.60	  396.23
     67.8700	 2150.00	 2044.17	-1651.42	  396.37
     67.9700	 2279.00	 2262.00	-1740.25	  396.51
     68.0700	 2479.00	 2390.02	-1668.27	  396.65
     68.1700	 2354.00	 2395.49	-1798.74	  396.79
     68.2700	 2337.00	 2276.98	-1697.23	  396.93
     68.3700	 2101.00	 2065.07	-1721.32	  397.07
     68.4700	 1791.00	 1804.46	-1770.71	  397.21
     68.5700	 1565.00	 1535.86	-1728.11	  397.35
     68.6700	 1324.00	 1288.89	-1722.14	  397.49
     68.7700	 1026.00	 1080.86	-1812.11	  397.63
     68.8700	  887.00	  918.44	-1788.69	  397.76
     68.9700	  765.00	  799.84	-1792.09	  397.90
     69.0700	  701.00	  718.19	-1774.44	  398.04
     69.1700	  697.00	  664.64	-1724.89	  398.18
     69.2700	  660.00	  630.73	-1727.98	  398.31
     69.3700	  618.00	  609.62	-1748.87	  398.45
     69.4700	  662.00	  596.40	-1691.65	  398.59
     69.5700	  560.00	  587.91	-1785.16	  398.72
     69.6700	  612.00	  582.24	-1727.49	  398.86
     69.7700	  563.00	  578.35	-1772.60	  398.99
     69.8700	  557.00	  575.67	-1775.93	  399.12
     69.9700	  554.00	  573.93	-1777.18	  399.26
     70.0700	  507.00	  572.98	-1823.23	  399.39
     70.1700	  581.00	  572.76	-1749.01	  399.52
     70.2700	  571.00	  573.30	-1759.55	  399.66
     70.3700	  607.00	  574.72	-1724.97	  399.79
     70.4700	  593.00	  577.27	-1741.52	  399.92
     70.5700	  566.00	  581.45	-1772.70	  400.05
     70.6700	  563.00	  588.19	-1782.44	  400.18
     70.7700	  632.00	  599.03	-1724.28	  400.31
     70.8700	  615.00	  616.43	-1758.68	  400.44
     70.9700	  631.00	  644.00	-1770.25	  400.56
     71.0700	  659.00	  686.48	-1784.73	  400.69
     71.1700	  716.00	  749.43	-1790.68	  400.82
     71.2700	  807.00	  838.40	-1788.65	  400.94
     71.3700	  953.00	  957.48	-1761.73	  401.07
     71.4700	 1062.00	 1108.26	-1803.51	  401.19
     71.5700	 1239.00	 1284.73	-1802.98	  401.32
     71.6700	 1463.00	 1476.82	-1771.07	  401.44
     71.7700	 1638.00	 1666.58	-1785.83	  401.56
     71.8700	 1753.00	 1829.33	-1833.58	  401.69
     71.9700	 1898.00	 1937.01	-1796.26	  401.81
     72.0700	 1957.00	 1966.33	-1766.58	  401.93
     72.1700	 1838.00	 1910.26	-1829.51	  402.05
     72.2700	 1747.00	 1782.28	-1792.53	  402.17
     72.3700	 1652.00	 1608.43	-1713.68	  402.29
     72.4700	 1507.00	 1415.86	-1666.11	  402.40
     72.5700	 1361.00	 1227.96	-1624.21	  402.52
     72.6700	 1119.00	 1059.79	-1698.04	  402.64
     72.7700	 1057.00	  919.78	-1620.03	  402.75
     72.8700	  934.00	  810.30	-1633.55	  402.87
     72.9700	  875.00	  729.30	-1611.55	  402.98
     73.0700	  794.00	  672.14	-1635.39	  403.09
     73.1700	  740.00	  633.32	-1650.57	  403.21
     73.2700	  715.00	  607.60	-1649.85	  403.32
     73.3700	  700.00	  590.75	-1648.00	  403.43
     73.4700	  660.00	  579.67	-1676.92	  403.54
     73.5700	  613.00	  572.28	-1716.53	  403.65
     73.6700	  661.00	  567.30	-1663.55	  403.75
     73.7700	  597.00	  564.01	-1724.26	  403.86
     73.8700	  548.00	  561.96	-1771.21	  403.97
     73.9700	  555.00	  560.93	-1763.18	  404.07
     74.0700	  549.00	  560.72	-1768.97	  404.18
     74.1700	  608.00	  561.15	-1710.40	  404.28
     74.2700	  613.00	  561.99	-1706.24	  404.38
     74.3700	  660.00	  562.98	-1660.23	  404.48
     74.4700	  620.00	  563.77	-1701.02	  404.58
     74.5700	  650.00	  564.04	-1671.29	  404.68
     74.6700	  605.00	  563.53	-1715.78	  404.78
     74.7700	  601.00	  562.18	-1718.43	  404.88
     74.8700	  626.00	  560.19	-1691.44	  404.98
     74.9700	  649.00	  557.87	-1666.12	  405.07
     75.0700	  567.00	  555.60	-1745.85	  405.17
     75.1700	  568.00	  553.73	-1742.98	  405.26
     75.2700	  607.00	  552.73	-1702.98	  405.35
     75.3700	  598.00	  552.94	-1712.19	  405.44
     75.4700	  566.00	  554.74	-1745.99	  405.53
     75.5700	  600.00	  558.60	-1715.85	  405.62
     75.6700	  576.00	  565.13	-1746.38	  405.71
     75.7700	  627.00	  574.66	-1704.91	  405.80
     75.8700	  592.00	  587.43	-1752.68	  405.88
     75.9700	  668.00	  603.38	-1692.62	  405.97
     76.0700	  650.00	  621.98	-1729.23	  406.05
     76.1700	  666.00	  642.17	-1733.42	  406.14
     76.2700	  638.00	  662.27	-1781.52	  406.22
     76.3700	  671.00	  680.05	-1766.30	  406.30
     76.4700	  704.00	  692.97	-1746.22	  406.38
     76.5700	  689.00	  698.69	-1766.94	  406.46
     76.6700	  751.00	  696.03	-1702.28	  406.53
     76.7700	  647.00	  685.50	-1795.75	  406.61
     76.8700	  635.00	  669.08	-1791.33	  406.68
     76.9700	  637.00	  649.14	-1769.39	  406.76
     77.0700	  598.00	  628.44	-1787.69	  406.83
     77.1700	  612.00	  608.67	-1753.92	  406.90
     77.2700	  523.00	  591.13	-1825.38	  406.97
     77.3700	  548.00	  576.50	-1785.75	  407.04
     77.4700	  508.00	  564.97	-1814.22	  407.11
     77.5700	  558.00	  556.34	-1755.59	  407.17
     77.6700	  521.00	  550.17	-1786.42	  407.24
     77.7700	  526.00	  545.92	-1777.17	  407.30
     77.8700	  504.00	  543.11	-1796.36	  407.37
     77.9700	  529.00	  541.28	-1769.53	  407.43
     78.0700	  520.00	  540.11	-1777.36	  407.49
     78.1700	  524.00	  539.36	-1772.61	  407.55
     78.2700	  503.00	  538.89	-1793.14	  407.60
     78.3700	  545.00	  538.60	-1750.85	  407.66
     78.4700	  531.00	  538.44	-1764.69	  407.72
     78.5700	  478.00	  538.39	-1817.64	  407.77
     78.6700	  495.00	  538.43	-1800.68	  407.82
     78.7700	  504.00	  538.59	-1791.84	  407.87
     78.8700	  469.00	  538.87	-1827.12	  407.92
     78.9700	  523.00	  539.31	-1773.56	  407.97
     79.0700	  548.00	  539.95	-1749.20	  408.02
     79.1700	  501.00	  540.83	-1797.08	  408.06
     79.2700	  535.00	  542.01	-1764.26	  408.11
     79.3700	  547.00	  543.35	-1753.60	  408.15
     79.4700	  543.00	  545.28	-1759.53	  408.19
     79.5700	  541.00	  547.68	-1763.93	  408.23
     79.6700	  539.00	  550.63	-1768.88	  408.27
     79.7700	  575.00	  554.23	-1736.48	  408.31
     79.8700	  548.00	  558.62	-1767.87	  408.34
     79.9700	  551.00	  563.96	-1770.21	  408.38
     80.0700	  546.00	  570.49	-1781.74	  408.41
     80.1700	  579.00	  578.52	-1756.77	  408.44
     80.2700	  576.00	  588.39	-1769.64	  408.47
     80.3700	  583.00	  600.43	-1774.68	  408.50
     80.4700	  606.00	  614.78	-1766.03	  408.53
     80.5700	  593.00	  631.38	-1795.63	  408.56
     80.6700	  663.00	  649.79	-1744.04	  408.58
     80.7700	  659.00	  669.24	-1767.49	  408.61
     80.8700	  664.00	  688.56	-1781.81	  408.63
     80.9700	  678.00	  706.38	-1785.63	  408.65
     81.0700	  693.00	  721.35	-1785.60	  408.67
     81.1700	  679.00	  732.37	-1810.62	  408.68
     81.2700	  741.00	  738.62	-1754.87	  408.70
     81.3700	  816.00	  739.63	-1680.88	  408.71
     81.4700	  831.00	  735.42	-1661.67	  408.73
     81.5700	  749.00	  726.44	-1734.69	  408.74
     81.6700	  790.00	  713.40	-1680.65	  408.75
     81.7700	  791.00	  697.20	-1663.45	  408.76
     81.8700	  723.00	  678.95	-1713.20	  408.76
     81.9700	  700.00	  659.84	-1717.09	  408.77
     82.0700	  688.00	  641.04	-1710.29	  408.77
     82.1700	  637.00	  623.40	-1743.65	  408.78
     82.2700	  611.00	  607.62	-1753.87	  408.78
     82.3700	  615.00	  593.94	-1736.19	  408.78
     82.4700	  590.00	  582.49	-1749.74	  408.77
     82.5700	  596.00	  573.24	-1734.49	  408.77
     82.6700	  580.00	  566.07	-1743.32	  408.76
     82.7700	  572.00	  560.88	-1746.13	  408.76
     82.8700	  580.00	  557.47	-1734.72	  408.75
     82.9700	  551.00	  555.73	-1761.98	  408.74
     83.0700	  554.00	  555.48	-1758.73	  408.73
     83.1700	  562.00	  556.61	-1751.86	  408.72
     83.2700	  547.00	  558.96	-1769.21	  408.70
     83.3700	  548.00	  562.37	-1771.62	  408.68
     83.4700	  566.00	  566.59	-1757.84	  408.67
     83.5700	  526.00	  571.29	-1802.54	  408.65
     83.6700	  545.00	  576.09	-1788.34	  408.63
     83.7700	  563.00	  580.48	-1774.73	  408.60
     83.8700	  545.00	  583.94	-1796.19	  408.58
     83.9700	  547.00	  585.94	-1796.19	  408.55
     84.0700	  573.00	  586.13	-1770.38	  408.53
     84.1700	  540.00	  584.42	-1801.67	  408.50
     84.2700	  582.00	  581.06	-1756.31	  408.47
     84.3700	  538.00	  576.48	-1795.73	  408.43
     84.4700	  547.00	  571.20	-1781.45	  408.40
     84.5700	  557.00	  565.68	-1765.93	  408.37
     84.6700	  522.00	  560.32	-1795.57	  408.33
     84.7700	  537.00	  555.40	-1775.65	  408.29
     84.8700	  505.00	  551.10	-1803.35	  408.25
     84.9700	  523.00	  547.53	-1781.78	  408.21
     85.0700	  521.00	  544.68	-1780.93	  408.16
     85.1700	  519.00	  542.52	-1780.77	  408.12
     85.2700	  544.00	  540.95	-1754.20	  408.07
     85.3700	  550.00	  539.89	-1747.14	  408.02
     85.4700	  536.00	  539.24	-1760.49	  407.97
     85.5700	  536.00	  538.94	-1760.19	  407.92
     85.6700	  493.00	  538.94	-1803.19	  407.87
     85.7700	  543.00	  539.24	-1753.49	  407.81
     85.8700	  528.00	  539.84	-1769.09	  407.76
     85.9700	  560.00	  540.82	-1738.07	  407.70
     86.0700	  569.00	  542.27	-1730.52	  407.64
     86.1700	  513.00	  544.32	-1788.57	  407.58
     86.2700	  558.00	  547.12	-1746.37	  407.52
     86.3700	  518.00	  550.84	-1790.09	  407.45
     86.4700	  491.00	  555.63	-1821.88	  407.38
     86.5700	  525.00	  561.61	-1793.86	  407.32
     86.6700	  566.00	  568.81	-1760.06	  407.25
     86.7700	  614.00	  577.15	-1720.40	  407.18
     86.8700	  623.00	  586.06	-1720.31	  407.10
     86.9700	  625.00	  595.80	-1728.05	  407.03
     87.0700	  646.00	  605.47	-1716.72	  406.95
     87.1700	  676.00	  614.38	-1695.63	  406.87
     87.2700	  618.00	  621.70	-1760.95	  406.79
     87.3700	  610.00	  626.63	-1773.88	  406.71
     87.4700	  678.00	  628.57	-1707.82	  406.63
     87.5700	  672.00	  627.29	-1712.54	  406.55
     87.6700	  600.00	  623.04	-1780.29	  406.46
     87.7700	  626.00	  616.46	-1747.71	  406.37
     87.8700	  619.00	  608.39	-1746.64	  406.28
     87.9700	  604.00	  599.72	-1752.97	  406.19
     88.0700	  653.00	  591.26	-1695.51	  406.10
     88.1700	  590.00	  583.70	-1750.95	  406.00
     88.2700	  591.00	  577.57	-1743.82	  405.91
     88.3700	  608.00	  573.23	-1722.48	  405.81
     88.4700	  588.00	  570.86	-1740.11	  405.71
     88.5700	  528.00	  570.48	-1799.73	  405.61
     88.6700	  554.00	  571.95	-1775.20	  405.51
     88.7700	  565.00	  575.00	-1767.25	  405.40
     88.8700	  613.00	  579.23	-1723.48	  405.30
     88.9700	  604.00	  584.17	-1737.42	  405.19
     89.0700	  605.00	  589.27	-1741.52	  405.08
     89.1700	  600.00	  593.91	-1751.16	  404.97
     89.2700	  640.00	  597.51	-1714.76	  404.86
     89.3700	  591.00	  599.53	-1765.78	  404.74
     89.4700	  653.00	  599.63	-1703.88	  404.63
     89.5700	  606.00	  597.72	-1748.97	  404.51
     89.6700	  571.00	  594.02	-1780.27	  404.39
     89.7700	  579.00	  588.95	-1767.20	  404.27
     89.8700	  569.00	  583.00	-1771.25	  404.15
     89.9700	  539.00	  576.65	-1794.90	  404.02
     90.0700	  505.00	  570.32	-1822.57	  403.90
     90.1700	  557.00	  564.34	-1764.59	  403.77
     90.2700	  485.00	  558.95	-1831.20	  403.64
     90.3700	  523.00	  554.30	-1788.55	  403.51
     90.4700	  516.00	  550.46	-1791.71	  403.38
     90.5700	  588.00	  547.41	-1716.66	  403.25
     90.6700	  494.00	  545.10	-1808.35	  403.11
     90.7700	  601.00	  543.46	-1699.71	  402.98
     90.8700	  514.00	  542.38	-1785.63	  402.84
     90.9700	  523.00	  541.80	-1776.05	  402.70
     91.0700	  550.00	  541.63	-1748.88	  402.56
     91.1700	  565.00	  541.86	-1734.11	  402.41
     91.2700	  494.00	  542.48	-1805.73	  402.27
     91.3700	  500.00	  543.53	-1800.78	  402.12
     91.4700	  533.00	  545.08	-1769.33	  401.98
     91.5700	  578.00	  547.25	-1726.50	  401.83
     91.6700	  563.00	  550.20	-1744.45	  401.68
     91.7700	  546.00	  554.11	-1765.36	  401.53
     91.8700	  577.00	  559.16	-1739.41	  401.37
     91.9700	  533.00	  565.57	-1789.82	  401.22
     92.0700	  572.00	  573.26	-1758.51	  401.06
     92.1700	  534.00	  582.85	-1806.10	  400.90
     92.2700	  584.00	  594.14	-1767.39	  400.74
     92.3700	  625.00	  607.11	-1739.36	  400.58
     92.4700	  607.00	  621.61	-1771.86	  400.42
     92.5700	  580.00	  637.35	-1814.60	  400.25
     92.6700	  636.00	  653.94	-1775.19	  400.09
     92.7700	  638.00	  670.84	-1790.09	  399.92
     92.8700	  712.00	  687.42	-1732.67	  399.75
     92.9700	  739.00	  703.02	-1721.27	  399.58
     93.0700	  721.00	  717.08	-1753.33	  399.41
     93.1700	  774.00	  729.28	-1712.53	  399.24
     93.2700	  780.00	  739.66	-1716.91	  399.06
     93.3700	  793.00	  748.59	-1712.84	  398.89
     93.4700	  797.00	  756.59	-1716.84	  398.71
     93.5700	  820.00	  764.23	-1701.48	  398.53
     93.6700	  848.00	  772.03	-1681.28	  398.35
     93.7700	  852.00	  780.43	-1685.68	  398.17
     93.8700	  870.00	  789.86	-1677.11	  397.98
     93.9700	  845.00	  800.73	-1712.98	  397.80
     94.0700	  880.00	  813.40	-1690.65	  397.61
     94.1700	  876.00	  828.03	-1709.28	  397.43
     94.2700	  825.00	  844.41	-1776.66	  397.24
     94.3700	  874.00	  861.95	-1745.20	  397.05
     94.4700	  916.00	  879.56	-1720.81	  396.86
     94.5700	  916.00	  895.78	-1737.03	  396.66
     94.6700	  893.00	  908.82	-1773.07	  396.47
     94.7700	  973.00	  916.83	-1701.08	  396.27
     94.8700	  898.00	  918.27	-1777.52	  396.08
     94.9700	  949.00	  912.23	-1720.48	  395.88
     95.0700	  950.00	  898.78	-1706.03	  395.68
     95.1700	  869.00	  878.93	-1767.18	  395.48
     95.2700	  864.00	  854.33	-1747.58	  395.28
     95.3700	  793.00	  826.95	-1791.20	  395.07
     95.4700	  776.00	  798.84	-1780.09	  394.87
     95.5700	  762.00	  771.91	-1767.16	  394.66
     95.6700	  720.00	  747.97	-1785.22	  394.46
     95.7700	  746.00	  728.62	-1739.87	  394.25
     95.8700	  689.00	  715.29	-1783.54	  394.04
     95.9700	  656.00	  709.27	-1810.52	  393.83
     96.0700	  716.00	  711.63	-1752.88	  393.61
     96.1700	  701.00	  723.30	-1779.55	  393.40
     96.2700	  739.00	  744.96	-1763.21	  393.19
     96.3700	  761.00	  777.05	-1773.30	  392.97
     96.4700	  822.00	  819.65	-1754.90	  392.76
     96.5700	  792.00	  872.41	-1837.66	  392.54
     96.6700	  911.00	  934.44	-1780.69	  392.32
     96.7700	 1000.00	 1004.23	-1761.48	  392.10
     96.8700	 1093.00	 1079.57	-1743.82	  391.88
     96.9700	 1125.00	 1157.55	-1789.80	  391.66
     97.0700	 1169.00	 1234.60	-1822.85	  391.43
     97.1700	 1296.00	 1306.58	-1767.83	  391.21
     97.2700	 1375.00	 1368.93	-1751.18	  390.98
     97.3700	 1395.00	 1417.14	-1779.39	  390.76
     97.4700	 1469.00	 1447.30	-1735.55	  390.53
     97.5700	 1490.00	 1456.93	-1724.18	  390.30
     97.6700	 1427.00	 1445.48	-1775.73	  390.07
     97.7700	 1384.00	 1414.49	-1787.74	  389.84
     97.8700	 1343.00	 1367.12	-1781.37	  389.61
     97.9700	 1283.00	 1307.50	-1781.75	  389.38
     98.0700	 1207.00	 1240.02	-1790.27	  389.14
     98.1700	 1212.00	 1168.92	-1714.17	  388.91
     98.2700	 1100.00	 1098.19	-1755.44	  388.67
     98.3700	  989.00	 1031.21	-1799.46	  388.44
     98.4700	 1002.00	  970.85	-1726.10	  388.20
     98.5700	  895.00	  919.40	-1781.65	  387.96
     98.6700	  844.00	  878.63	-1791.88	  387.72
     98.7700	  768.00	  849.90	-1839.15	  387.48
     98.8700	  840.00	  834.18	-1751.43	  387.24
     98.9700	  805.00	  832.14	-1784.39	  387.00
     99.0700	  827.00	  844.17	-1774.42	  386.76
     99.1700	  942.00	  870.49	-1685.74	  386.51
     99.2700	  894.00	  911.10	-1774.35	  386.27
     99.3700	  977.00	  965.80	-1746.05	  386.03
     99.4700	  966.00	 1034.03	-1825.28	  385.78
     99.5700	 1091.00	 1114.89	-1781.14	  385.53
     99.6700	 1214.00	 1206.98	-1750.23	  385.29
     99.7700	 1292.00	 1308.31	-1773.56	  385.04
     99.8700	 1371.00	 1416.26	-1802.51	  384.79
     99.9700	 1510.00	 1527.44	-1774.69	  384.54
    100.0700	 1635.00	 1637.85	-1760.10	  384.29
    100.1700	 1730.00	 1743.01	-1770.26	  384.04
    100.2700	 1901.00	 1838.40	-1694.65	  383.79
    100.3700	 1961.00	 1919.96	-1716.21	  383.54
    100.4700	 2086.00	 1984.43	-1655.68	  383.29
    100.5700	 2120.00	 2029.57	-1666.82	  383.04
    100.6700	 2121.00	 2053.94	-1690.19	  382.78
    100.7700	 2108.00	 2056.72	-1705.97	  382.53
    100.8700	 2064.00	 2037.74	-1730.99	  382.28
    100.9700	 1991.00	 1997.68	-1763.93	  382.02
    101.0700	 1922.00	 1938.51	-1773.76	  381.77
    101.1700	 1853.00	 1863.56	-1767.81	  381.51
    101.2700	 1716.00	 1777.32	-1818.57	  381.26
    101.3700	 1673.00	 1684.86	-1769.11	  381.00
    101.4700	 1674.00	 1591.23	-1674.48	  380.74
    101.5700	 1495.00	 1500.89	-1763.14	  380.49
    101.6700	 1460.00	 1417.47	-1714.72	  380.23
    101.7700	 1378.00	 1343.53	-1722.78	  379.97
    101.8700	 1326.00	 1280.57	-1711.82	  379.71
    101.9700	 1227.00	 1229.06	-1759.31	  379.45
    102.0700	 1163.00	 1188.44	-1782.69	  379.19
    102.1700	 1185.00	 1157.33	-1729.58	  378.94
    102.2700	 1158.00	 1133.65	-1732.90	  378.68
    102.3700	 1143.00	 1114.81	-1729.06	  378.42
    102.4700	 1082.00	 1098.05	-1773.30	  378.16
    102.5700	 1095.00	 1080.74	-1742.99	  377.90
    102.6700	 1014.00	 1060.73	-1803.98	  377.64
    102.7700	 1044.00	 1036.62	-1749.87	  377.38
    102.8700	 1060.00	 1007.90	-1705.15	  377.12
    102.9700	  932.00	  974.83	-1800.08	  376.86
    103.0700	  907.00	  938.23	-1788.48	  376.60
    103.1700	  859.00	  899.25	-1797.50	  376.34
    103.2700	  829.00	  859.14	-1787.39	  376.08
    103.3700	  810.00	  819.13	-1766.38	  375.82
    103.4700	  786.00	  780.36	-1751.61	  375.56
    103.5700	  730.00	  743.74	-1770.99	  375.29
    103.6700	  709.00	  710.03	-1758.28	  375.03
    103.7700	  680.00	  679.74	-1756.99	  374.77
    103.8700	  599.00	  653.16	-1811.41	  374.51
    103.9700	  613.00	  630.38	-1774.63	  374.25
    104.0700	  587.00	  611.29	-1781.54	  373.99
    104.1700	  606.00	  595.69	-1746.94	  373.74
    104.2700	  584.00	  583.25	-1756.50	  373.48
    104.3700	  561.00	  573.60	-1769.85	  373.22
    104.4700	  532.00	  566.37	-1791.62	  372.96
    104.5700	  572.00	  561.15	-1746.40	  372.70
    104.6700	  551.00	  557.60	-1763.85	  372.44
    104.7700	  525.00	  555.40	-1787.65	  372.18
    104.8700	  522.00	  554.27	-1789.52	  371.93
    104.9700	  564.00	  554.02	-1747.27	  371.67
    105.0700	  570.00	  554.45	-1741.70	  371.41
    105.1700	  587.00	  555.43	-1725.68	  371.15
    105.2700	  584.00	  556.85	-1730.10	  370.90
    105.3700	  526.00	  558.71	-1789.96	  370.64
    105.4700	  545.00	  560.98	-1773.23	  370.39
    105.5700	  537.00	  563.69	-1783.94	  370.13
    105.6700	  545.00	  566.90	-1779.15	  369.88
    105.7700	  559.00	  570.73	-1768.98	  369.63
    105.8700	  538.00	  575.26	-1794.51	  369.38
    105.9700	  589.00	  580.61	-1748.86	  369.12
    106.0700	  540.00	  586.84	-1804.09	  368.87
    106.1700	  597.00	  593.98	-1754.23	  368.62
    106.2700	  582.00	  602.01	-1777.26	  368.37
    106.3700	  559.00	  610.84	-1809.09	  368.12
    106.4700	  576.00	  620.31	-1801.56	  367.87
    106.5700	  578.00	  630.22	-1809.47	  367.63
    106.6700	  617.00	  640.27	-1780.52	  367.38
    106.7700	  598.00	  650.15	-1809.40	  367.13
    106.8700	  644.00	  659.48	-1772.73	  366.89
    106.9700	  672.00	  667.89	-1753.14	  366.65
    107.0700	  661.00	  675.03	-1771.28	  366.40
    107.1700	  714.00	  680.61	-1723.86	  366.16
    107.2700	  654.00	  684.48	-1787.73	  365.92
    107.3700	  672.00	  686.65	-1771.90	  365.68
    107.4700	  680.00	  687.30	-1764.55	  365.44
    107.5700	  691.00	  686.74	-1752.99	  365.20
    107.6700	  698.00	  685.38	-1744.63	  364.97
    107.7700	  706.00	  683.66	-1734.91	  364.73
    107.8700	  679.00	  681.97	-1760.22	  364.50
    107.9700	  722.00	  680.64	-1715.89	  364.26
    108.0700	  663.00	  679.92	-1774.17	  364.03
    108.1700	  670.00	  679.91	-1767.16	  363.80
    108.2700	  665.00	  680.62	-1772.87	  363.57
    108.3700	  706.00	  681.95	-1733.20	  363.35
    108.4700	  722.00	  683.66	-1718.91	  363.12
    108.5700	  660.00	  685.45	-1782.70	  362.90
    108.6700	  692.00	  686.92	-1752.17	  362.67
    108.7700	  722.00	  687.65	-1722.90	  362.45
    108.8700	  710.00	  687.23	-1734.48	  362.23
    108.9700	  685.00	  685.35	-1757.60	  362.01
    109.0700	  694.00	  681.77	-1745.02	  361.79
    109.1700	  665.00	  676.45	-1768.70	  361.58
    109.2700	  688.00	  669.46	-1738.71	  361.36
    109.3700	  672.00	  661.04	-1746.29	  361.15
    109.4700	  653.00	  651.48	-1755.73	  360.94
    109.5700	  663.00	  641.12	-1735.37	  360.73
    109.6700	  656.00	  630.32	-1731.57	  360.53
    109.7700	  588.00	  619.43	-1788.68	  360.32
    109.8700	  618.00	  608.74	-1747.99	  360.12
    109.9700	  601.00	  598.54	-1754.79	  359.92
    110.0700	  587.00	  589.04	-1759.29	  359.72
    110.1700	  536.00	  580.40	-1801.65	  359.52
    110.2700	  567.00	  572.74	-1762.99	  359.32
    110.3700	  545.00	  566.12	-1778.37	  359.13
    110.4700	  525.00	  560.55	-1792.80	  358.94
    110.5700	  577.00	  556.01	-1736.26	  358.75
    110.6700	  514.00	  552.45	-1795.70	  358.56
    110.7700	  551.00	  549.79	-1756.04	  358.38
    110.8700	  548.00	  547.94	-1757.19	  358.19
    110.9700	  547.00	  546.81	-1757.06	  358.01
    111.0700	  547.00	  546.30	-1756.55	  357.84
    111.1700	  575.00	  546.34	-1728.59	  357.66
    111.2700	  523.00	  546.84	-1781.09	  357.49
    111.3700	  579.00	  547.73	-1725.98	  357.32
    111.4700	  543.00	  548.96	-1763.21	  357.15
    111.5700	  549.00	  550.48	-1758.73	  356.98
    111.6700	  534.00	  552.26	-1775.51	  356.82
    111.7700	  547.00	  554.27	-1764.52	  356.66
    111.8700	  544.00	  556.50	-1769.75	  356.50
    111.9700	  564.00	  558.94	-1752.19	  356.34
    112.0700	  578.00	  561.60	-1740.85	  356.19
    112.1700	  564.00	  564.48	-1757.73	  356.04
    112.2700	  553.00	  567.61	-1771.86	  355.89
    112.3700	  570.00	  571.02	-1758.27	  355.75
    112.4700	  592.00	  574.74	-1739.99	  355.61
    112.5700	  566.00	  578.83	-1770.08	  355.47
    112.6700	  588.00	  583.35	-1752.60	  355.33
    112.7700	  608.00	  588.38	-1737.63	  355.20
    112.8700	  639.00	  594.04	-1712.29	  355.07
    112.9700	  626.00	  600.47	-1731.72	  354.94
    113.0700	  696.00	  607.86	-1669.11	  354.82
    113.1700	  728.00	  616.46	-1645.71	  354.70
    113.2700	  669.00	  626.58	-1714.83	  354.58
    113.3700	  745.00	  638.61	-1650.86	  354.46
    113.4700	  784.00	  653.09	-1626.34	  354.35
    113.5700	  869.00	  670.64	-1558.89	  354.25
    113.6700	  773.00	  692.05	-1676.30	  354.14
    113.7700	  892.00	  718.28	-1583.53	  354.04
    113.8700	  945.00	  750.48	-1562.73	  353.94
    113.9700	  933.00	  790.00	-1614.25	  353.85
    114.0700	  978.00	  838.42	-1617.67	  353.76
    114.1700	 1054.00	  897.52	-1600.77	  353.67
    114.2700	 1094.00	  969.28	-1632.53	  353.59
    114.3700	 1161.00	 1055.87	-1652.12	  353.51
    114.4700	 1272.00	 1159.53	-1644.78	  353.43
    114.5700	 1415.00	 1282.61	-1624.86	  353.36
    114.6700	 1528.00	 1427.37	-1656.62	  353.29
    114.7700	 1717.00	 1595.90	-1636.15	  353.23
    114.8700	 1853.00	 1790.06	-1694.31	  353.17
    114.9700	 2141.00	 2011.18	-1627.43	  353.11
    115.0700	 2352.00	 2260.10	-1665.35	  353.06
    115.1700	 2557.00	 2536.83	-1737.08	  353.01
    115.2700	 2828.00	 2840.45	-1769.70	  352.96
    115.3700	 3054.00	 3169.18	-1872.43	  352.92
    115.4700	 3442.00	 3519.92	-1835.17	  352.89
    115.5700	 3755.00	 3888.58	-1890.83	  352.85
    115.6700	 4139.00	 4269.70	-1887.95	  352.83
    115.7700	 4474.00	 4656.60	-1939.85	  352.80
    115.8700	 4867.00	 5041.61	-1931.86	  352.78
    115.9700	 5258.00	 5415.73	-1914.98	  352.77
    116.0700	 5672.00	 5769.30	-1854.55	  352.76
    116.1700	 5962.00	 6091.80	-1887.05	  352.75
    116.2700	 6184.00	 6372.49	-1945.74	  352.75
    116.3700	 6491.00	 6601.07	-1867.32	  352.75
    116.4700	 6682.00	 6768.22	-1843.47	  352.76
    116.5700	 6818.00	 6866.72	-1805.97	  352.77
    116.6700	 6893.00	 6892.15	-1756.40	  352.79
    116.7700	 6753.00	 6843.53	-1847.78	  352.81
    116.8700	 7029.00	 6723.43	-1451.68	  352.84
    116.9700	 6572.00	 6537.66	-1722.91	  352.87
    117.0700	 6277.00	 6294.42	-1774.67	  352.91
    117.1700	 5951.00	 6003.54	-1809.79	  352.95
    117.2700	 5664.00	 5675.62	-1768.87	  353.00
    117.3700	 5329.00	 5321.11	-1749.36	  353.05
    117.4700	 5014.00	 4950.18	-1693.43	  353.11
    117.5700	 4606.00	 4571.98	-1723.23	  353.17
    117.6700	 4390.00	 4194.81	-1562.06	  353.24
    117.7700	 3920.00	 3825.84	-1663.09	  353.31
    117.8700	 3597.00	 3470.84	-1631.09	  353.39
    117.9700	 3346.00	 3134.62	-1545.87	  353.47
    118.0700	 2854.00	 2820.57	-1723.82	  353.56
    118.1700	 2505.00	 2531.12	-1783.37	  353.66
    118.2700	 2242.00	 2267.67	-1782.92	  353.76
    118.3700	 2074.00	 2030.58	-1713.83	  353.86
    118.4700	 1777.00	 1819.61	-1799.86	  353.98
    118.5700	 1536.00	 1633.75	-1855.00	  354.09
    118.6700	 1353.00	 1471.63	-1875.88	  354.22
    118.7700	 1227.00	 1331.47	-1861.72	  354.35
    118.8700	 1108.00	 1211.24	-1860.49	  354.48
    118.9700	 1048.00	 1108.90	-1818.15	  354.62
    119.0700	  948.00	 1022.29	-1831.54	  354.77
    119.1700	  869.00	  949.39	-1837.64	  354.92
    119.2700	  942.00	  888.30	-1703.55	  355.08
    119.3700	  780.00	  837.25	-1814.50	  355.25
    119.4700	  787.00	  794.69	-1764.94	  355.42
    119.5700	  696.00	  759.24	-1820.49	  355.60
    119.6700	  692.00	  729.71	-1794.96	  355.78
    119.7700	  620.00	  705.11	-1842.36	  355.97
    119.8700	  622.00	  684.58	-1819.83	  356.17
    119.9700	  648.00	  667.43	-1776.68	  356.37
    120.0700	  635.00	  653.10	-1775.35	  356.59
    120.1700	  579.00	  641.11	-1819.36	  356.80
    120.2700	  590.00	  631.09	-1798.34	  357.03
    120.3700	  561.00	  622.73	-1818.98	  357.26
    120.4700	  575.00	  615.82	-1798.07	  357.50
    120.5700	  571.00	  610.14	-1796.39	  357.74
    120.6700	  557.00	  605.56	-1805.81	  357.99
    120.7700	  566.00	  601.96	-1793.21	  358.25
    120.8700	  579.00	  599.24	-1777.49	  358.52
    120.9700	  588.00	  597.33	-1766.58	  358.79
    121.0700	  612.00	  596.17	-1741.42	  359.07
    121.1700	  554.00	  595.70	-1798.95	  359.36
    121.2700	  576.00	  595.87	-1777.12	  359.65
    121.3700	  523.00	  596.64	-1830.89	  359.95
    121.4700	  559.00	  597.96	-1796.21	  360.26
    121.5700	  609.00	  599.78	-1748.03	  360.58
    121.6700	  615.00	  602.03	-1744.28	  360.90
    121.7700	  662.00	  604.65	-1699.90	  361.24
    121.8700	  629.00	  607.56	-1735.81	  361.57
    121.9700	  585.00	  610.68	-1782.93	  361.92
    122.0700	  588.00	  613.94	-1783.19	  362.28
    122.1700	  649.00	  617.23	-1725.48	  362.64
    122.2700	  643.00	  620.46	-1734.71	  363.01
    122.3700	  614.00	  623.52	-1766.77	  363.39
    122.4700	  672.00	  626.30	-1711.55	  363.78
    122.5700	  608.00	  628.70	-1777.95	  364.18
    122.6700	  645.00	  630.63	-1742.88	  364.58
    122.7700	  637.00	  632.04	-1752.29	  364.99
    122.8700	  658.00	  632.86	-1732.11	  365.41
    122.9700	  597.00	  633.07	-1793.32	  365.84
    123.0700	  640.00	  632.66	-1749.91	  366.28
    123.1700	  630.00	  631.66	-1758.91	  366.72
    123.2700	  698.00	  630.11	-1689.36	  367.18
    123.3700	  658.00	  628.08	-1727.33	  367.64
    123.4700	  620.00	  625.63	-1762.88	  368.11
    123.5700	  664.00	  622.83	-1716.08	  368.59
    123.6700	  663.00	  619.77	-1714.02	  369.08
    123.7700	  626.00	  616.51	-1747.76	  369.58
    123.8700	  682.00	  613.14	-1688.39	  370.09
    123.9700	  625.00	  609.70	-1741.95	  370.61
    124.0700	  607.00	  606.27	-1756.52	  371.13
    124.1700	  598.00	  602.90	-1762.15	  371.67
    124.2700	  576.00	  599.62	-1780.87	  372.21
    124.3700	  582.00	  596.49	-1771.74	  372.77
    124.4700	  619.00	  593.52	-1731.77	  373.33
    124.5700	  660.00	  590.74	-1687.99	  373.90
    124.6700	  517.00	  588.16	-1828.41	  374.48
    124.7700	  604.00	  585.81	-1739.06	  375.08
    124.8700	  618.00	  583.68	-1722.93	  375.68
    124.9700	  597.00	  493.87	-1654.12	  376.29
    125.0700	  596.00	  494.49	-1757.25	  376.91
    125.1700	  577.00	  495.13	-1757.25	  377.54
    125.2700	  585.00	  495.77	-1757.25	  378.18
    125.3700	  627.00	  496.42	-1757.25	  378.84
    125.4700	  591.00	  497.08	-1757.25	  379.50
    125.5700	  538.00	  497.75	-1757.25	  380.17
    125.6700	  523.00	  498.43	-1757.25	  380.85
    125.7700	  557.00	  499.13	-1757.25	  381.54
    125.8700	  613.00	  499.83	-1757.25	  382.25
    125.9700	  586.00	  500.54	-1757.25	  382.96
    126.0700	  568.00	  501.27	-1757.25	  383.68
    126.1700	  611.00	  502.00	-1757.25	  384.42
    126.2700	  564.00	  502.75	-1757.25	  385.16
    126.3700	  593.00	  503.50	-1757.25	  385.92
    126.4700	  580.00	  504.27	-1757.25	  386.69
    126.5700	  612.00	  505.05	-1757.25	  387.47
    126.6700	  641.00	  505.84	-1757.25	  388.26
    126.7700	  608.00	  506.64	-1757.25	  389.06
    126.8700	  606.00	  507.45	-1757.25	  389.87
    126.9700	  622.00	  508.27	-1757.25	  390.69
    127.0700	  688.00	  509.11	-1757.25	  391.52
    127.1700	  658.00	  509.95	-1757.25	  392.37
    127.2700	  669.00	  510.81	-1757.25	  393.23
    127.3700	  644.00	  511.68	-1757.25	  394.10
    127.4700	  695.00	  512.56	-1757.25	  394.98
    127.5700	  718.00	  513.45	-1757.25	  395.87
    127.6700	  735.00	  514.36	-1757.25	  396.77
    127.7700	  654.00	  515.27	-1757.25	  397.69
    127.8700	  720.00	  516.20	-1757.25	  398.62
    127.9700	  767.00	  517.14	-1757.25	  399.56
    128.0700	  742.00	  518.09	-1757.25	  400.51
    128.1700	  763.00	  519.06	-1757.25	  401.47
    128.2700	  743.00	  520.03	-1757.25	  402.45
    128.3700	  862.00	  521.02	-1757.25	  403.44
    128.4700	  846.00	  522.03	-1757.25	  404.44
    128.5700	    0.00	  523.04	-1757.25	  405.46
    128.6700	    0.00	  524.07	-1757.25	  406.48
     12.3050	        	        	        	        	       0	(  0  0  2)	  0  1
     24.8850	        	        	        	        	       0	(  0  0  4)	  0  1
     28.3320	        	        	        	        	       0	(  1  0  0)	  0  1
     29.0289	        	        	        	        	       0	(  1  0  1)	  0  1
     31.0343	        	        	        	        	       0	(  1  0  2)	  0  1
     34.1413	        	        	        	        	       0	(  1  0  3)	  0  1
     37.7808	        	        	        	        	       0	(  0  0  6)	  0  1
     38.1168	        	        	        	        	       0	(  1  0  4)	  0  1
     42.7652	        	        	        	        	       0	(  1  0  5)	  0  1
     47.9473	        	        	        	        	       0	(  1  0  6)	  0  1
     50.2682	        	        	        	        	       0	(  1  1  0)	  0  1
     51.1984	        	        	        	        	       0	(  0  0  8)	  0  1
     51.9904	        	        	        	        	       0	(  1  1  2)	  0  1
     53.5757	        	        	        	        	       0	(  1  0  7)	  0  1
     56.9360	        	        	        	        	       0	(  1  1  4)	  0  1
     58.7648	        	        	        	        	       0	(  2  0  0)	  0  1
     59.1562	        	        	        	        	       0	(  2  0  1)	  0  1
     59.6038	        	        	        	        	       0	(  1  0  8)	  0  1
     60.3210	        	        	        	        	       0	(  2  0  2)	  0  1
     62.2333	        	        	        	        	       0	(  2  0  3)	  0  1
     64.6273	        	        	        	        	       0	(  1  1  6)	  0  1
     64.8562	        	        	        	        	       0	(  2  0  4)	  0  1
     65.4224	        	        	        	        	       0	(  0  0 10)	  0  1
     66.0175	        	        	        	        	       0	(  1  0  9)	  0  1
     68.1489	        	        	        	        	       0	(  2  0  5)	  0  1
     72.0746	        	        	        	        	       0	(  2  0  6)	  0  1
     72.8308	        	        	        	        	       0	(  1  0 10)	  0  1
     74.6605	        	        	        	        	       0	(  1  1  8)	  0  1
     76.6066	        	        	        	        	       0	(  2  0  7)	  0  1
     80.0851	        	        	        	        	       0	(  1  0 11)	  0  1
     80.8961	        	        	        	        	       0	(  0  0 12)	  0  1
     81.0049	        	        	        	        	       0	(  2  1  0)	  0  1
     81.3446	        	        	        	        	       0	(  2  1  1)	  0  1
     81.7344	        	        	        	        	       0	(  2  0  8)	  0  1
     82.3620	        	        	        	        	       0	(  2  1  2)	  0  1
     84.0524	        	        	        	        	       0	(  2  1  3)	  0  1
     86.4109	        	        	        	        	       0	(  2  1  4)	  0  1
     86.9259	        	        	        	        	       0	(  1  1 10)	  0  1
     87.4695	        	        	        	        	       0	(  2  0  9)	  0  1
     87.8555	        	        	        	        	       0	(  1  0 12)	  0  1
     89.4351	        	        	        	        	       0	(  2  1  5)	  0  1
     93.1306	        	        	        	        	       0	(  2  1  6)	  0  1
     93.8535	        	        	        	        	       0	(  2  0 10)	  0  1
     94.8929	        	        	        	        	       0	(  3  0  0)	  0  1
     95.2301	        	        	        	        	       0	(  3  0  1)	  0  1
     96.2428	        	        	        	        	       0	(  3  0  2)	  0  1
     96.2640	        	        	        	        	       0	(  1  0 13)	  0  1
     97.5168	        	        	        	        	       0	(  2  1  7)	  0  1
     97.9352	        	        	        	        	       0	(  3  0  3)	  0  1
     98.4258	        	        	        	        	       0	(  0  0 14)	  0  1
    100.3169	        	        	        	        	       0	(  3  0  4)	  0  1
    100.9712	        	        	        	        	       0	(  2  0 11)	  0  1
    101.7878	        	        	        	        	       0	(  1  1 12)	  0  1
    102.6363	        	        	        	        	       0	(  2  1  8)	  0  1
    103.4068	        	        	        	        	       0	(  3  0  5)	  0  1
    105.5106	        	        	        	        	       0	(  1  0 14)	  0  1
    107.2397	        	        	        	        	       0	(  3  0  6)	  0  1
    108.5695	        	        	        	        	       0	(  2  1  9)	  0  1
    108.9772	        	        	        	        	       0	(  2  0 12)	  0  1
    111.8772	        	        	        	        	       0	(  3  0  7)	  0  1
    115.4617	        	        	        	        	       0	(  2  1 10)	  0  1
    115.9456	        	        	        	        	       0	(  1  0 15)	  0  1
    116.6162	        	        	        	        	       0	(  2  2  0)	  0  1
    117.4270	        	        	        	        	       0	(  3  0  8)	  0  1
    118.1305	        	        	        	        	       0	(  2  2  2)	  0  1
    118.1545	        	        	        	        	       0	(  2  0 13)	  0  1
    119.8968	        	        	        	        	       0	(  0  0 16)	  0  1
    120.6175	        	        	        	        	       0	(  1  1 14)	  0  1
    122.8131	        	        	        	        	       0	(  2  2  4)	  0  1
    123.5824	        	        	        	        	       0	(  2  1 11)	  0  1
    124.0821	        	        	        	        	       0	(  3  0  9)	  0  1
    124.6805	        	        	        	        	       0	(  3  1  0)	  0  1
    125.0905	        	        	        	        	       0	(  3  1  1)	  0  1
    126.3332	        	        	        	        	       0	(  3  1  2)	  0  1
    128.2760	        	        	        	        	       0	(  1  0 16)	  0  1
    128.4501	        	        	        	        	       0	(  3  1  3)	  0  1
    129.0738	        	        	        	        	       0	(  2  0 14)	  0  1
    131.2472	        	        	        	        	       0	(  2  2  6)	  0  1
    131.5240	        	        	        	        	       0	(  3  1  4)	  0  1
    132.2159	        	        	        	        	       0	(  3  0 10)	  0  1
    133.4853	        	        	        	        	       0	(  2  1 12)	  0  1
    135.7080	        	        	        	        	       0	(  3  1  5)	  0  1
    141.2989	        	        	        	        	       0	(  3  1  6)	  0  1
    142.6832	        	        	        	        	       0	(  3  0 11)	  0  1
    143.1942	        	        	        	        	       0	(  2  0 15)	  0  1
    144.4196	        	        	        	        	       0	(  1  0 17)	  0  1
    145.4686	        	        	        	        	       0	(  2  2  8)	  0  1
    146.6233	        	        	        	        	       0	(  2  1 13)	  0  1
    148.9646	        	        	        	        	       0	(  3  1  7)	  0  1
    149.5105	        	        	        	        	       0	(  1  1 16)	  0  1
    153.8840	        	        	        	        	       0	(  0  0 18)	  0  1
    158.5316	        	        	        	        	       0	(  3  0 12)	  0  1
    158.8289	        	        	        	        	       0	(  4  0  0)	  0  1
    159.7847	        	        	        	        	       0	(  4  0  1)	  0  1
    160.9395	        	        	        	        	       0	(  3  1  8)	  0  1
    162.9596	        	        	        	        	       0	(  4  0  2)	  0  1
    169.5038	        	        	        	        	       0	(  2  0 16)	  0  1
    170.2902	        	        	        	        	       0	(  4  0  3)	  0  1
    173.8706	        	        	        	        	       0	(  2  1 14)	  0  1
