MSG Master    CELL:    5.91918   5.91918  23.27133   90.0000   90.0000  120.0000   SPGR: P 63/m m c             TEMP:   1074.75
  1   1280     2.52000     0.00000    -0.13144     0.00000     0.00000    0
    99     0     2
       0.00000      10.00000
     125.00000     130.00000
 2Theta	Yobs	Ycal	Yobs-Ycal	Backg	Posr	(hkl)	K
      0.7700	    0.00	  561.34	-1771.50	  442.61
      0.8700	    0.00	  561.87	-1771.50	  443.14
      0.9700	   42.00	  562.40	-1771.50	  443.66
      1.0700	   57.00	  562.91	-1771.50	  444.18
      1.1700	   42.00	  563.41	-1771.50	  444.68
      1.2700	   40.00	  563.91	-1771.50	  445.18
      1.3700	   44.00	  564.40	-1771.50	  445.67
      1.4700	   97.00	  564.87	-1771.50	  446.14
      1.5700	  256.00	  565.34	-1771.50	  446.61
      1.6700	  468.00	  565.80	-1771.50	  447.07
      1.7700	  614.00	  566.25	-1771.50	  447.52
      1.8700	  631.00	  566.70	-1771.50	  447.96
      1.9700	  736.00	  567.13	-1771.50	  448.40
      2.0700	  772.00	  567.55	-1771.50	  448.82
      2.1700	  802.00	  567.97	-1771.50	  449.24
      2.2700	  752.00	  568.38	-1771.50	  449.65
      2.3700	  739.00	  568.77	-1771.50	  450.04
      2.4700	  692.00	  569.17	-1771.50	  450.43
      2.5700	  659.00	  569.55	-1771.50	  450.82
      2.6700	  619.00	  569.92	-1771.50	  451.19
      2.7700	  680.00	  570.29	-1771.50	  451.56
      2.8700	  657.00	  570.64	-1771.50	  451.91
      2.9700	  628.00	  570.99	-1771.50	  452.26
      3.0700	  598.00	  571.33	-1771.50	  452.60
      3.1700	  621.00	  571.67	-1771.50	  452.94
      3.2700	  597.00	  571.99	-1771.50	  453.26
      3.3700	  656.00	  572.31	-1771.50	  453.58
      3.4700	  760.00	  572.62	-1771.50	  453.89
      3.5700	  792.00	  572.92	-1771.50	  454.19
      3.6700	  854.00	  573.21	-1771.50	  454.48
      3.7700	  948.00	  573.50	-1771.50	  454.77
      3.8700	  954.00	  573.78	-1771.50	  455.05
      3.9700	 1006.00	  574.05	-1771.50	  455.32
      4.0700	 1076.00	  574.31	-1771.50	  455.58
      4.1700	 1147.00	  574.57	-1771.50	  455.84
      4.2700	 1097.00	  574.82	-1771.50	  456.09
      4.3700	  999.00	  575.06	-1771.50	  456.33
      4.4700	 1127.00	  575.29	-1771.50	  456.56
      4.5700	 1034.00	  575.52	-1771.50	  456.79
      4.6700	 1037.00	  575.74	-1771.50	  457.01
      4.7700	  982.00	  575.95	-1771.50	  457.22
      4.8700	  947.00	  576.16	-1771.50	  457.43
      4.9700	  948.00	  576.36	-1771.50	  457.63
      5.0700	  944.00	  576.55	-1771.50	  457.82
      5.1700	  893.00	  576.73	-1771.50	  458.00
      5.2700	  887.00	  576.91	-1771.50	  458.18
      5.3700	  840.00	  577.08	-1771.50	  458.35
      5.4700	  901.00	  577.25	-1771.50	  458.52
      5.5700	  840.00	  577.41	-1771.50	  458.67
      5.6700	  832.00	  577.56	-1771.50	  458.83
      5.7700	  854.00	  577.70	-1771.50	  458.97
      5.8700	  835.00	  577.84	-1771.50	  459.11
      5.9700	  796.00	  577.97	-1771.50	  459.24
      6.0700	  777.00	  578.10	-1771.50	  459.37
      6.1700	  787.00	  578.22	-1771.50	  459.49
      6.2700	  736.00	  578.33	-1771.50	  459.60
      6.3700	  795.00	  578.44	-1771.50	  459.71
      6.4700	  735.00	  578.54	-1771.50	  459.81
      6.5700	  743.00	  578.64	-1771.50	  459.90
      6.6700	  741.00	  578.72	-1771.50	  459.99
      6.7700	  709.00	  578.81	-1771.50	  460.08
      6.8700	  725.00	  578.88	-1771.50	  460.15
      6.9700	  774.00	  578.95	-1771.50	  460.22
      7.0700	  651.00	  579.02	-1771.50	  460.29
      7.1700	  669.00	  579.08	-1771.50	  460.35
      7.2700	  650.00	  579.13	-1771.50	  460.40
      7.3700	  704.00	  579.18	-1771.50	  460.45
      7.4700	  683.00	  579.22	-1771.50	  460.49
      7.5700	  631.00	  579.26	-1771.50	  460.53
      7.6700	  677.00	  579.29	-1771.50	  460.56
      7.7700	  701.00	  579.32	-1771.50	  460.59
      7.8700	  617.00	  579.34	-1771.50	  460.61
      7.9700	  608.00	  579.35	-1771.50	  460.62
      8.0700	  636.00	  579.36	-1771.50	  460.63
      8.1700	  645.00	  579.37	-1771.50	  460.64
      8.2700	  643.00	  579.37	-1771.50	  460.64
      8.3700	  606.00	  579.36	-1771.50	  460.63
      8.4700	  625.00	  579.35	-1771.50	  460.62
      8.5700	  642.00	  579.33	-1771.50	  460.60
      8.6700	  666.00	  579.31	-1771.50	  460.58
      8.7700	  599.00	  579.29	-1771.50	  460.56
      8.8700	  615.00	  579.26	-1771.50	  460.53
      8.9700	  615.00	  579.22	-1771.50	  460.49
      9.0700	  626.00	  579.18	-1771.50	  460.45
      9.1700	  646.00	  579.13	-1771.50	  460.40
      9.2700	  601.00	  579.08	-1771.50	  460.35
      9.3700	  618.00	  579.03	-1771.50	  460.30
      9.4700	  633.00	  578.97	-1771.50	  460.24
      9.5700	  593.00	  578.91	-1771.50	  460.17
      9.6700	  654.00	  578.84	-1771.50	  460.11
      9.7700	  579.00	  578.76	-1771.50	  460.03
      9.8700	  608.00	  578.69	-1771.50	  459.96
      9.9700	  629.00	  578.60	-1771.50	  459.87
     10.0700	  626.00	  579.39	-1724.89	  459.79
     10.1700	  573.00	  579.40	-1777.90	  459.70
     10.2700	  601.00	  579.42	-1749.92	  459.60
     10.3700	  595.00	  579.48	-1755.98	  459.50
     10.4700	  553.00	  579.59	-1798.09	  459.40
     10.5700	  599.00	  579.83	-1752.33	  459.29
     10.6700	  599.00	  580.29	-1752.79	  459.18
     10.7700	  580.00	  581.07	-1772.57	  459.06
     10.8700	  545.00	  582.23	-1808.73	  458.94
     10.9700	  547.00	  583.78	-1808.28	  458.82
     11.0700	  568.00	  585.68	-1789.18	  458.69
     11.1700	  613.00	  587.93	-1746.43	  458.56
     11.2700	  599.00	  590.57	-1763.07	  458.43
     11.3700	  569.00	  593.68	-1796.18	  458.29
     11.4700	  573.00	  597.39	-1795.89	  458.14
     11.5700	  633.00	  601.92	-1740.42	  458.00
     11.6700	  593.00	  607.63	-1786.13	  457.85
     11.7700	  670.00	  615.13	-1716.63	  457.69
     11.8700	  626.00	  625.28	-1770.78	  457.53
     11.9700	  686.00	  638.51	-1724.01	  457.37
     12.0700	  677.00	  652.93	-1747.43	  457.21
     12.1700	  694.00	  662.46	-1739.96	  457.04
     12.2700	  722.00	  658.04	-1707.54	  456.87
     12.3700	  671.00	  637.69	-1738.19	  456.69
     12.4700	  601.00	  613.58	-1784.08	  456.52
     12.5700	  628.00	  595.89	-1739.39	  456.34
     12.6700	  587.00	  586.01	-1770.51	  456.15
     12.7700	  586.00	  581.32	-1766.82	  455.96
     12.8700	  578.00	  579.09	-1772.59	  455.77
     12.9700	  584.00	  577.82	-1765.32	  455.58
     13.0700	  594.00	  576.93	-1754.43	  455.38
     13.1700	  555.00	  576.25	-1792.75	  455.18
     13.2700	  590.00	  575.68	-1757.18	  454.98
     13.3700	  557.00	  575.19	-1789.69	  454.77
     13.4700	  530.00	  574.76	-1816.26	  454.56
     13.5700	  588.00	  574.37	-1757.87	  454.35
     13.6700	  598.00	  574.01	-1747.51	  454.13
     13.7700	  606.00	  573.68	-1739.18	  453.92
     13.8700	  519.00	  573.36	-1825.86	  453.69
     13.9700	  570.00	  573.05	-1774.55	  453.47
     14.0700	  566.00	  572.76	-1778.26	  453.25
     14.1700	  531.00	  572.47	-1812.97	  453.02
     14.2700	  588.00	  572.19	-1755.69	  452.79
     14.3700	  564.00	  571.91	-1779.41	  452.55
     14.4700	  548.00	  571.63	-1795.13	  452.31
     14.5700	  547.00	  571.36	-1795.86	  452.08
     14.6700	  533.00	  571.08	-1809.58	  451.83
     14.7700	  515.00	  570.81	-1827.31	  451.59
     14.8700	  599.00	  570.54	-1743.04	  451.34
     14.9700	  562.00	  570.27	-1779.77	  451.09
     15.0700	  557.00	  570.00	-1784.50	  450.84
     15.1700	  595.00	  569.73	-1746.23	  450.59
     15.2700	  562.00	  569.46	-1778.96	  450.33
     15.3700	  596.00	  569.18	-1744.68	  450.08
     15.4700	  574.00	  568.91	-1766.41	  449.82
     15.5700	  564.00	  568.64	-1776.14	  449.55
     15.6700	  544.00	  568.36	-1795.86	  449.29
     15.7700	  544.00	  568.08	-1795.58	  449.02
     15.8700	  593.00	  567.80	-1746.30	  448.75
     15.9700	  573.00	  567.56	-1766.06	  448.48
     16.0700	  576.00	  567.27	-1762.77	  448.21
     16.1700	  526.00	  566.99	-1812.49	  447.94
     16.2700	  521.00	  566.71	-1817.21	  447.66
     16.3700	  562.00	  566.43	-1775.93	  447.38
     16.4700	  532.00	  566.14	-1805.64	  447.10
     16.5700	  588.00	  565.85	-1749.35	  446.82
     16.6700	  576.00	  565.57	-1761.07	  446.53
     16.7700	  559.00	  565.28	-1777.78	  446.25
     16.8700	  551.00	  564.98	-1785.48	  445.96
     16.9700	  562.00	  564.69	-1774.19	  445.67
     17.0700	  556.00	  564.40	-1779.90	  445.38
     17.1700	  566.00	  564.10	-1769.60	  445.09
     17.2700	  552.00	  563.81	-1783.31	  444.79
     17.3700	  585.00	  563.51	-1750.01	  444.50
     17.4700	  559.00	  563.21	-1775.71	  444.20
     17.5700	  558.00	  562.91	-1776.41	  443.90
     17.6700	  575.00	  562.61	-1759.11	  443.60
     17.7700	  549.00	  562.30	-1784.80	  443.30
     17.8700	  546.00	  562.00	-1787.50	  443.00
     17.9700	  533.00	  561.70	-1800.20	  442.69
     18.0700	  548.00	  561.49	-1784.99	  442.39
     18.1700	  542.00	  561.18	-1790.68	  442.08
     18.2700	  535.00	  560.88	-1797.38	  441.77
     18.3700	  565.00	  560.57	-1767.07	  441.46
     18.4700	  537.00	  560.26	-1794.76	  441.15
     18.5700	  496.00	  559.95	-1835.45	  440.84
     18.6700	  597.00	  559.64	-1734.14	  440.53
     18.7700	  582.00	  559.33	-1748.83	  440.21
     18.8700	  582.00	  559.01	-1748.51	  439.90
     18.9700	  516.00	  558.79	-1814.29	  439.58
     19.0700	  569.00	  558.48	-1760.98	  439.26
     19.1700	  577.00	  558.16	-1752.66	  438.94
     19.2700	  558.00	  557.85	-1771.35	  438.62
     19.3700	  542.00	  557.54	-1787.04	  438.30
     19.4700	  562.00	  557.22	-1766.72	  437.98
     19.5700	  548.00	  556.91	-1780.41	  437.66
     19.6700	  575.00	  556.59	-1753.09	  437.33
     19.7700	  559.00	  556.27	-1768.77	  437.01
     19.8700	  564.00	  555.96	-1763.46	  436.68
     19.9700	  555.00	  555.64	-1772.14	  436.36
     20.0700	  548.00	  555.32	-1778.82	  436.03
     20.1700	  534.00	  555.00	-1792.50	  435.70
     20.2700	  549.00	  554.69	-1777.19	  435.38
     20.3700	  601.00	  554.37	-1724.87	  435.05
     20.4700	  568.00	  554.05	-1757.55	  434.72
     20.5700	  563.00	  553.73	-1762.23	  434.39
     20.6700	  576.00	  553.42	-1748.92	  434.06
     20.7700	  547.00	  553.10	-1777.60	  433.72
     20.8700	  536.00	  552.78	-1788.28	  433.39
     20.9700	  553.00	  552.47	-1770.97	  433.06
     21.0700	  554.00	  552.15	-1769.65	  432.73
     21.1700	  491.00	  551.84	-1832.34	  432.39
     21.2700	  549.00	  551.52	-1774.02	  432.06
     21.3700	  538.00	  551.21	-1784.71	  431.72
     21.4700	  503.00	  550.90	-1819.40	  431.39
     21.5700	  524.00	  550.59	-1798.09	  431.05
     21.6700	  537.00	  550.28	-1784.78	  430.72
     21.7700	  572.00	  549.97	-1749.47	  430.38
     21.8700	  553.00	  549.67	-1768.17	  430.04
     21.9700	  555.00	  549.37	-1765.87	  429.71
     22.0700	  560.00	  549.07	-1760.57	  429.37
     22.1700	  580.00	  548.77	-1740.27	  429.03
     22.2700	  614.00	  548.48	-1705.98	  428.69
     22.3700	  534.00	  548.19	-1785.69	  428.36
     22.4700	  559.00	  547.90	-1760.40	  428.02
     22.5700	  545.00	  547.63	-1774.13	  427.68
     22.6700	  562.00	  547.35	-1756.85	  427.34
     22.7700	  558.00	  547.09	-1760.59	  427.00
     22.8700	  520.00	  546.84	-1798.34	  426.66
     22.9700	  555.00	  546.60	-1763.10	  426.33
     23.0700	  541.00	  546.37	-1776.87	  425.99
     23.1700	  523.00	  546.16	-1794.66	  425.65
     23.2700	  553.00	  545.98	-1764.48	  425.31
     23.3700	  518.00	  545.83	-1799.33	  424.97
     23.4700	  539.00	  545.72	-1778.22	  424.63
     23.5700	  556.00	  545.66	-1761.16	  424.29
     23.6700	  548.00	  545.82	-1769.32	  423.95
     23.7700	  539.00	  545.98	-1778.48	  423.62
     23.8700	  551.00	  546.39	-1766.89	  423.28
     23.9700	  528.00	  547.30	-1790.80	  422.94
     24.0700	  568.00	  549.17	-1752.68	  422.60
     24.1700	  552.00	  552.70	-1772.20	  422.26
     24.2700	  585.00	  558.77	-1745.27	  421.92
     24.3700	  607.00	  568.35	-1732.85	  421.59
     24.4700	  595.00	  582.39	-1758.89	  421.25
     24.5700	  612.00	  600.85	-1760.35	  420.91
     24.6700	  625.00	  620.52	-1767.02	  420.58
     24.7700	  625.00	  633.43	-1779.93	  420.24
     24.8700	  661.00	  629.37	-1739.87	  419.90
     24.9700	  605.00	  607.81	-1774.31	  419.57
     25.0700	  605.00	  582.24	-1748.74	  419.23
     25.1700	  578.00	  563.00	-1756.50	  418.90
     25.2700	  592.00	  551.87	-1731.37	  418.56
     25.3700	  583.00	  546.42	-1734.92	  418.23
     25.4700	  575.00	  543.85	-1740.35	  417.89
     25.5700	  524.00	  542.47	-1789.97	  417.56
     25.6700	  584.00	  541.57	-1729.07	  417.23
     25.7700	  532.00	  540.91	-1780.41	  416.89
     25.8700	  545.00	  540.41	-1766.91	  416.56
     25.9700	  564.00	  540.03	-1747.53	  416.23
     26.0700	  548.00	  539.74	-1763.24	  415.90
     26.1700	  562.00	  539.54	-1749.04	  415.57
     26.2700	  541.00	  539.41	-1769.91	  415.24
     26.3700	  506.00	  539.37	-1804.87	  414.91
     26.4700	  517.00	  539.41	-1793.91	  414.58
     26.5700	  591.00	  539.54	-1720.04	  414.25
     26.6700	  549.00	  539.79	-1762.29	  413.93
     26.7700	  550.00	  540.18	-1761.68	  413.60
     26.8700	  545.00	  540.73	-1767.23	  413.27
     26.9700	  536.00	  541.51	-1777.01	  412.95
     27.0700	  560.00	  542.59	-1754.09	  412.62
     27.1700	  508.00	  544.09	-1807.59	  412.30
     27.2700	  503.00	  546.26	-1814.76	  411.98
     27.3700	  523.00	  549.62	-1798.12	  411.65
     27.4700	  597.00	  555.15	-1729.65	  411.33
     27.5700	  568.00	  564.63	-1768.13	  411.01
     27.6700	  569.00	  580.88	-1783.38	  410.69
     27.7700	  573.00	  607.50	-1806.00	  410.37
     27.8700	  582.00	  647.60	-1837.10	  410.05
     27.9700	  670.00	  701.22	-1802.72	  409.73
     28.0700	  727.00	  761.94	-1806.44	  409.42
     28.1700	  905.00	  813.99	-1680.49	  409.10
     28.2700	  941.00	  834.23	-1664.73	  408.79
     28.3700	  910.00	  810.55	-1672.05	  408.47
     28.4700	  845.00	  766.68	-1693.18	  408.16
     28.5700	  734.00	  738.04	-1775.54	  407.85
     28.6700	  680.00	  739.62	-1831.12	  407.53
     28.7700	  723.00	  765.46	-1813.96	  407.22
     28.8700	  804.00	  794.41	-1761.91	  406.91
     28.9700	  800.00	  797.70	-1769.20	  406.61
     29.0700	  804.00	  758.58	-1726.08	  406.30
     29.1700	  680.00	  694.69	-1786.19	  405.99
     29.2700	  640.00	  634.92	-1766.42	  405.69
     29.3700	  606.00	  592.34	-1757.84	  405.38
     29.4700	  581.00	  566.88	-1757.38	  405.08
     29.5700	  578.00	  553.21	-1746.71	  404.78
     29.6700	  628.00	  545.99	-1689.49	  404.47
     29.7700	  586.00	  541.86	-1727.36	  404.17
     29.8700	  524.00	  539.25	-1786.75	  403.88
     29.9700	  574.00	  537.56	-1735.06	  403.58
     30.0700	  597.00	  536.63	-1711.13	  403.28
     30.1700	  539.00	  536.59	-1769.09	  402.98
     30.2700	  555.00	  537.91	-1754.41	  402.69
     30.3700	  548.00	  541.51	-1765.01	  402.40
     30.4700	  546.00	  548.74	-1774.24	  402.10
     30.5700	  619.00	  561.00	-1713.50	  401.81
     30.6700	  568.00	  578.57	-1782.07	  401.52
     30.7700	  575.00	  599.12	-1795.62	  401.23
     30.8700	  593.00	  616.60	-1795.10	  400.95
     30.9700	  579.00	  622.09	-1814.59	  400.66
     31.0700	  608.00	  609.87	-1773.37	  400.38
     31.1700	  530.00	  586.47	-1827.97	  400.09
     31.2700	  578.00	  563.40	-1756.90	  399.81
     31.3700	  504.00	  546.49	-1813.99	  399.53
     31.4700	  552.00	  536.23	-1755.73	  399.25
     31.5700	  560.00	  530.72	-1742.22	  398.97
     31.6700	  524.00	  527.86	-1775.36	  398.69
     31.7700	  530.00	  526.26	-1767.76	  398.41
     31.8700	  563.00	  525.24	-1733.74	  398.14
     31.9700	  556.00	  524.54	-1740.04	  397.87
     32.0700	  537.00	  524.04	-1758.54	  397.59
     32.1700	  519.00	  523.71	-1776.21	  397.32
     32.2700	  570.00	  523.53	-1725.03	  397.05
     32.3700	  552.00	  523.49	-1742.99	  396.79
     32.4700	  560.00	  523.60	-1735.10	  396.52
     32.5700	  555.00	  523.88	-1740.38	  396.25
     32.6700	  530.00	  524.35	-1765.85	  395.99
     32.7700	  482.00	  525.07	-1814.57	  395.73
     32.8700	  539.00	  526.10	-1758.60	  395.46
     32.9700	  529.00	  527.56	-1770.06	  395.21
     33.0700	  511.00	  529.68	-1790.18	  394.95
     33.1700	  541.00	  532.93	-1763.43	  394.69
     33.2700	  564.00	  538.41	-1745.91	  394.43
     33.3700	  555.00	  548.41	-1764.91	  394.18
     33.4700	  600.00	  567.29	-1738.79	  393.93
     33.5700	  600.00	  601.81	-1773.31	  393.68
     33.6700	  652.00	  659.44	-1778.94	  393.43
     33.7700	  803.00	  743.00	-1711.50	  393.18
     33.8700	  825.00	  842.67	-1789.17	  392.93
     33.9700	 1048.00	  931.26	-1654.76	  392.69
     34.0700	 1101.00	  967.92	-1638.42	  392.44
     34.1700	 1010.00	  924.22	-1685.72	  392.20
     34.2700	  874.00	  823.19	-1720.69	  391.96
     34.3700	  763.00	  716.02	-1724.52	  391.72
     34.4700	  628.00	  633.31	-1776.81	  391.48
     34.5700	  588.00	  581.13	-1764.63	  391.25
     34.6700	  554.00	  552.65	-1770.15	  391.01
     34.7700	  526.00	  538.18	-1783.68	  390.78
     34.8700	  557.00	  530.56	-1745.06	  390.55
     34.9700	  556.00	  525.98	-1741.48	  390.32
     35.0700	  531.00	  522.83	-1763.33	  390.09
     35.1700	  514.00	  520.44	-1777.94	  389.86
     35.2700	  533.00	  518.55	-1757.05	  389.64
     35.3700	  503.00	  517.01	-1785.51	  389.41
     35.4700	  538.00	  515.74	-1749.24	  389.19
     35.5700	  500.00	  514.66	-1786.16	  388.97
     35.6700	  520.00	  513.74	-1765.24	  388.75
     35.7700	  487.00	  512.94	-1797.44	  388.53
     35.8700	  487.00	  512.23	-1796.73	  388.32
     35.9700	  494.00	  511.61	-1789.11	  388.10
     36.0700	  507.00	  511.51	-1776.01	  387.89
     36.1700	  480.00	  511.02	-1802.52	  387.68
     36.2700	  520.00	  510.57	-1762.07	  387.47
     36.3700	  533.00	  510.17	-1748.67	  387.26
     36.4700	  510.00	  509.81	-1771.31	  387.06
     36.5700	  509.00	  509.49	-1771.99	  386.85
     36.6700	  482.00	  509.22	-1798.72	  386.65
     36.7700	  524.00	  509.00	-1756.50	  386.45
     36.8700	  544.00	  508.86	-1736.36	  386.25
     36.9700	  507.00	  508.86	-1773.36	  386.05
     37.0700	  542.00	  509.17	-1738.67	  385.85
     37.1700	  544.00	  510.05	-1737.55	  385.66
     37.2700	  503.00	  511.89	-1780.39	  385.47
     37.3700	  482.00	  515.01	-1804.51	  385.28
     37.4700	  505.00	  519.35	-1785.85	  385.09
     37.5700	  523.00	  524.07	-1772.57	  384.90
     37.6700	  523.00	  527.54	-1776.04	  384.71
     37.7700	  525.00	  527.97	-1774.47	  384.53
     37.8700	  548.00	  525.06	-1748.56	  384.35
     37.9700	  530.00	  520.52	-1762.02	  384.16
     38.0700	  484.00	  516.00	-1803.50	  383.98
     38.1700	  506.00	  512.21	-1777.71	  383.81
     38.2700	  502.00	  509.36	-1778.86	  383.63
     38.3700	  506.00	  507.39	-1772.89	  383.46
     38.4700	  498.00	  506.11	-1779.61	  383.28
     38.5700	  493.00	  505.28	-1783.78	  383.11
     38.6700	  546.00	  504.64	-1730.14	  382.94
     38.7700	  476.00	  504.25	-1799.75	  382.78
     38.8700	  496.00	  503.96	-1779.46	  382.61
     38.9700	  497.00	  503.70	-1778.20	  382.45
     39.0700	  488.00	  503.48	-1786.98	  382.28
     39.1700	  503.00	  503.28	-1771.78	  382.12
     39.2700	  505.00	  503.01	-1769.51	  381.96
     39.3700	  500.00	  502.98	-1774.48	  381.81
     39.4700	  558.00	  502.82	-1716.32	  381.65
     39.5700	  465.00	  502.67	-1809.17	  381.50
     39.6700	  465.00	  502.53	-1809.03	  381.35
     39.7700	  537.00	  502.41	-1736.91	  381.20
     39.8700	  453.00	  502.29	-1820.79	  381.05
     39.9700	  481.00	  502.18	-1792.68	  380.90
     40.0700	  528.00	  502.09	-1745.59	  380.76
     40.1700	  482.00	  502.00	-1791.50	  380.61
     40.2700	  534.00	  501.93	-1739.43	  380.47
     40.3700	  508.00	  501.86	-1765.36	  380.33
     40.4700	  483.00	  501.81	-1790.31	  380.19
     40.5700	  501.00	  501.78	-1772.28	  380.06
     40.6700	  514.00	  501.77	-1759.27	  379.92
     40.7700	  501.00	  501.77	-1772.27	  379.79
     40.8700	  539.00	  501.80	-1734.30	  379.66
     40.9700	  485.00	  501.86	-1788.36	  379.53
     41.0700	  480.00	  501.96	-1793.46	  379.40
     41.1700	  492.00	  502.09	-1781.59	  379.27
     41.2700	  502.00	  502.26	-1771.76	  379.15
     41.3700	  477.00	  502.52	-1797.02	  379.03
     41.4700	  474.00	  502.87	-1800.37	  378.91
     41.5700	  508.00	  503.79	-1767.29	  378.79
     41.6700	  513.00	  504.47	-1762.97	  378.67
     41.7700	  535.00	  505.49	-1741.99	  378.55
     41.8700	  509.00	  507.19	-1769.69	  378.44
     41.9700	  463.00	  510.32	-1818.82	  378.33
     42.0700	  537.00	  516.27	-1750.77	  378.22
     42.1700	  528.00	  527.19	-1770.69	  378.11
     42.2700	  524.00	  545.50	-1793.00	  378.00
     42.3700	  581.00	  572.42	-1762.92	  377.89
     42.4700	  583.00	  605.83	-1794.33	  377.79
     42.5700	  638.00	  638.30	-1771.80	  377.69
     42.6700	  567.00	  658.14	-1862.64	  377.59
     42.7700	  587.00	  654.99	-1839.49	  377.49
     42.8700	  590.00	  629.70	-1811.20	  377.39
     42.9700	  568.00	  594.79	-1798.29	  377.30
     43.0700	  590.00	  562.15	-1743.65	  377.21
     43.1700	  498.00	  537.57	-1811.07	  377.11
     43.2700	  493.00	  521.82	-1800.32	  377.02
     43.3700	  450.00	  512.91	-1834.41	  376.94
     43.4700	  481.00	  508.24	-1798.74	  376.85
     43.5700	  515.00	  505.78	-1762.28	  376.76
     43.6700	  496.00	  504.37	-1779.87	  376.68
     43.7700	  512.00	  503.63	-1763.13	  376.60
     43.8700	  502.00	  503.01	-1772.51	  376.52
     43.9700	  469.00	  502.51	-1805.01	  376.44
     44.0700	  476.00	  502.13	-1797.63	  376.37
     44.1700	  524.00	  501.83	-1749.33	  376.29
     44.2700	  457.00	  501.60	-1816.10	  376.22
     44.3700	  506.00	  501.42	-1766.92	  376.15
     44.4700	  524.00	  501.28	-1748.78	  376.08
     44.5700	  476.00	  501.19	-1796.69	  376.01
     44.6700	  498.00	  501.13	-1774.63	  375.94
     44.7700	  487.00	  500.97	-1785.47	  375.88
     44.8700	  510.00	  500.97	-1762.47	  375.82
     44.9700	  481.00	  500.99	-1791.49	  375.76
     45.0700	  532.00	  501.03	-1740.53	  375.70
     45.1700	  516.00	  501.28	-1756.78	  375.64
     45.2700	  524.00	  501.37	-1748.87	  375.58
     45.3700	  522.00	  501.48	-1750.98	  375.53
     45.4700	  497.00	  501.62	-1776.12	  375.47
     45.5700	  471.00	  501.78	-1802.28	  375.42
     45.6700	  568.00	  501.96	-1705.46	  375.37
     45.7700	  492.00	  502.17	-1781.67	  375.33
     45.8700	  504.00	  502.41	-1769.91	  375.28
     45.9700	  473.00	  502.68	-1801.18	  375.23
     46.0700	  509.00	  502.98	-1765.48	  375.19
     46.1700	  538.00	  503.33	-1736.83	  375.15
     46.2700	  519.00	  503.71	-1756.21	  375.11
     46.3700	  472.00	  504.15	-1803.65	  375.07
     46.4700	  514.00	  504.64	-1762.14	  375.03
     46.5700	  499.00	  505.21	-1777.71	  375.00
     46.6700	  489.00	  505.86	-1788.36	  374.97
     46.7700	  487.00	  506.63	-1791.13	  374.93
     46.8700	  506.00	  507.58	-1773.08	  374.90
     46.9700	  547.00	  508.82	-1733.32	  374.88
     47.0700	  488.00	  510.64	-1794.14	  374.85
     47.1700	  528.00	  513.63	-1757.13	  374.82
     47.2700	  513.00	  518.50	-1777.00	  374.80
     47.3700	  514.00	  526.42	-1783.92	  374.78
     47.4700	  560.00	  538.38	-1749.88	  374.76
     47.5700	  508.00	  554.45	-1817.95	  374.74
     47.6700	  569.00	  572.99	-1775.49	  374.72
     47.7700	  612.00	  590.08	-1749.58	  374.70
     47.8700	  598.00	  600.21	-1773.71	  374.69
     47.9700	  628.00	  599.19	-1742.69	  374.68
     48.0700	  587.00	  588.19	-1772.69	  374.66
     48.1700	  544.00	  572.75	-1800.25	  374.65
     48.2700	  590.00	  558.14	-1739.64	  374.65
     48.3700	  537.00	  547.35	-1781.85	  374.64
     48.4700	  548.00	  541.23	-1764.73	  374.63
     48.5700	  551.00	  539.27	-1759.77	  374.63
     48.6700	  508.00	  540.46	-1803.96	  374.63
     48.7700	  517.00	  543.95	-1798.45	  374.63
     48.8700	  531.00	  549.31	-1789.81	  374.63
     48.9700	  581.00	  556.61	-1747.11	  374.63
     49.0700	  543.00	  566.51	-1795.01	  374.63
     49.1700	  566.00	  580.69	-1786.19	  374.64
     49.2700	  591.00	  602.66	-1783.16	  374.64
     49.3700	  596.00	  639.18	-1814.68	  374.65
     49.4700	  694.00	  702.02	-1779.52	  374.66
     49.5700	  723.00	  806.96	-1855.46	  374.67
     49.6700	  868.00	  972.98	-1876.48	  374.68
     49.7700	 1164.00	 1213.69	-1821.19	  374.70
     49.8700	 1473.00	 1526.61	-1825.11	  374.71
     49.9700	 1844.00	 1880.78	-1808.28	  374.73
     50.0700	 2240.00	 2208.20	-1739.70	  374.75
     50.1700	 2454.00	 2409.94	-1727.44	  374.77
     50.2700	 2386.00	 2401.50	-1787.00	  374.79
     50.3700	 2331.00	 2184.71	-1625.21	  374.81
     50.4700	 1836.00	 1849.84	-1785.34	  374.83
     50.5700	 1351.00	 1498.57	-1919.07	  374.86
     50.6700	 1036.00	 1196.53	-1932.03	  374.89
     50.7700	  784.00	  971.22	-1958.72	  374.91
     50.8700	  725.00	  822.19	-1868.69	  374.94
     50.9700	  669.00	  733.10	-1835.60	  374.97
     51.0700	  601.00	  682.45	-1852.95	  375.01
     51.1700	  599.00	  651.35	-1823.85	  375.04
     51.2700	  608.00	  627.72	-1791.22	  375.07
     51.3700	  595.00	  606.84	-1783.34	  375.11
     51.4700	  592.00	  588.38	-1767.88	  375.15
     51.5700	  575.00	  573.05	-1769.55	  375.18
     51.6700	  541.00	  561.29	-1791.79	  375.22
     51.7700	  577.00	  552.90	-1747.40	  375.27
     51.8700	  557.00	  547.28	-1761.78	  375.31
     51.9700	  541.00	  543.72	-1774.22	  375.35
     52.0700	  599.00	  541.62	-1714.12	  375.40
     52.1700	  598.00	  540.86	-1714.36	  375.44
     52.2700	  572.00	  540.84	-1740.34	  375.49
     52.3700	  556.00	  541.91	-1757.41	  375.54
     52.4700	  569.00	  544.50	-1747.00	  375.59
     52.5700	  564.00	  549.72	-1757.22	  375.64
     52.6700	  618.00	  559.86	-1713.36	  375.69
     52.7700	  583.00	  578.93	-1767.43	  375.75
     52.8700	  641.00	  613.00	-1743.50	  375.80
     52.9700	  699.00	  669.28	-1741.78	  375.86
     53.0700	  806.00	  753.53	-1719.03	  375.91
     53.1700	  912.00	  865.79	-1725.29	  375.97
     53.2700	 1069.00	  995.97	-1698.47	  376.03
     53.3700	 1073.00	 1120.90	-1819.40	  376.09
     53.4700	 1191.00	 1206.29	-1786.79	  376.16
     53.5700	 1211.00	 1219.82	-1780.32	  376.22
     53.6700	 1131.00	 1155.07	-1795.57	  376.28
     53.7700	  969.00	 1038.34	-1840.84	  376.35
     53.8700	  882.00	  906.41	-1795.91	  376.42
     53.9700	  770.00	  786.82	-1788.32	  376.48
     54.0700	  664.00	  693.61	-1801.11	  376.55
     54.1700	  656.00	  629.45	-1744.95	  376.62
     54.2700	  614.00	  589.77	-1747.27	  376.69
     54.3700	  579.00	  567.33	-1759.83	  376.77
     54.4700	  564.00	  555.48	-1762.98	  376.84
     54.5700	  544.00	  549.51	-1777.01	  376.91
     54.6700	  546.00	  546.64	-1772.14	  376.99
     54.7700	  550.00	  545.52	-1767.02	  377.07
     54.8700	  527.00	  545.50	-1790.00	  377.14
     54.9700	  550.00	  546.32	-1767.82	  377.22
     55.0700	  538.00	  547.90	-1781.40	  377.30
     55.1700	  573.00	  550.26	-1748.76	  377.38
     55.2700	  553.00	  553.43	-1771.93	  377.46
     55.3700	  551.00	  557.55	-1778.05	  377.55
     55.4700	  567.00	  562.85	-1767.35	  377.63
     55.5700	  598.00	  569.74	-1743.24	  377.72
     55.6700	  531.00	  579.05	-1819.55	  377.80
     55.7700	  587.00	  592.50	-1777.00	  377.89
     55.8700	  615.00	  613.53	-1770.03	  377.98
     55.9700	  628.00	  648.47	-1791.97	  378.06
     56.0700	  671.00	  707.85	-1808.35	  378.15
     56.1700	  782.00	  806.72	-1796.22	  378.24
     56.2700	  932.00	  962.82	-1802.32	  378.34
     56.3700	 1076.00	 1191.10	-1886.60	  378.43
     56.4700	 1415.00	 1495.40	-1851.90	  378.52
     56.5700	 1763.00	 1858.58	-1867.08	  378.62
     56.6700	 2183.00	 2235.21	-1823.71	  378.71
     56.7700	 2496.00	 2549.54	-1825.04	  378.81
     56.8700	 2653.00	 2710.26	-1828.76	  378.90
     56.9700	 2590.00	 2657.50	-1839.00	  379.00
     57.0700	 2393.00	 2411.65	-1790.15	  379.10
     57.1700	 2131.00	 2056.53	-1697.03	  379.20
     57.2700	 1572.00	 1680.67	-1880.17	  379.30
     57.3700	 1297.00	 1345.53	-1820.03	  379.40
     57.4700	  995.00	 1081.72	-1858.22	  379.50
     57.5700	  872.00	  895.08	-1794.58	  379.60
     57.6700	  756.00	  775.38	-1790.88	  379.71
     57.7700	  690.00	  706.07	-1787.57	  379.81
     57.8700	  703.00	  671.63	-1740.13	  379.92
     57.9700	  644.00	  661.12	-1788.62	  380.02
     58.0700	  725.00	  668.77	-1715.27	  380.13
     58.1700	  708.00	  692.67	-1756.17	  380.24
     58.2700	  740.00	  732.90	-1764.40	  380.35
     58.3700	  827.00	  789.61	-1734.11	  380.45
     58.4700	  938.00	  861.37	-1694.87	  380.56
     58.5700	 1119.00	  943.63	-1596.13	  380.67
     58.6700	 1147.00	 1028.24	-1652.74	  380.79
     58.7700	 1332.00	 1105.82	-1545.32	  380.90
     58.8700	 1449.00	 1169.98	-1492.48	  381.01
     58.9700	 1509.00	 1217.05	-1479.55	  381.12
     59.0700	 1576.00	 1242.02	-1437.52	  381.24
     59.1700	 1542.00	 1240.72	-1470.22	  381.35
     59.2700	 1349.00	 1217.27	-1639.77	  381.47
     59.3700	 1360.00	 1184.12	-1595.62	  381.58
     59.4700	 1161.00	 1153.76	-1764.26	  381.70
     59.5700	 1205.00	 1134.49	-1700.99	  381.81
     59.6700	 1167.00	 1133.33	-1737.83	  381.93
     59.7700	 1199.00	 1158.32	-1730.82	  382.05
     59.8700	 1260.00	 1214.41	-1725.91	  382.17
     59.9700	 1312.00	 1297.26	-1756.76	  382.29
     60.0700	 1379.00	 1390.25	-1782.75	  382.41
     60.1700	 1552.00	 1465.35	-1684.85	  382.53
     60.2700	 1567.00	 1490.31	-1694.81	  382.65
     60.3700	 1574.00	 1445.85	-1643.35	  382.77
     60.4700	 1384.00	 1339.62	-1727.12	  382.89
     60.5700	 1337.00	 1198.63	-1633.13	  383.02
     60.6700	 1088.00	 1051.31	-1734.81	  383.14
     60.7700	  863.00	  918.28	-1826.78	  383.26
     60.8700	  775.00	  810.99	-1807.49	  383.39
     60.9700	  723.00	  733.20	-1781.70	  383.51
     61.0700	  659.00	  683.67	-1796.17	  383.64
     61.1700	  668.00	  659.03	-1762.53	  383.76
     61.2700	  650.00	  656.66	-1778.16	  383.89
     61.3700	  654.00	  676.18	-1793.68	  384.01
     61.4700	  711.00	  719.64	-1780.14	  384.14
     61.5700	  751.00	  790.22	-1810.72	  384.27
     61.6700	  821.00	  889.73	-1840.23	  384.40
     61.7700	  978.00	 1015.71	-1809.21	  384.52
     61.8700	 1082.00	 1158.75	-1848.25	  384.65
     61.9700	 1235.00	 1300.87	-1837.37	  384.78
     62.0700	 1389.00	 1415.57	-1798.07	  384.91
     62.1700	 1450.00	 1473.12	-1794.62	  385.04
     62.2700	 1353.00	 1454.66	-1873.16	  385.17
     62.3700	 1269.00	 1365.83	-1868.33	  385.30
     62.4700	 1142.00	 1232.47	-1861.97	  385.43
     62.5700	  967.00	 1084.12	-1888.62	  385.56
     62.6700	  906.00	  943.68	-1809.18	  385.69
     62.7700	  735.00	  824.89	-1861.39	  385.82
     62.8700	  670.00	  733.32	-1834.82	  385.96
     62.9700	  648.00	  668.22	-1791.72	  386.09
     63.0700	  676.00	  625.15	-1720.65	  386.22
     63.1700	  519.00	  598.41	-1850.91	  386.35
     63.2700	  599.00	  582.76	-1755.26	  386.49
     63.3700	  580.00	  574.36	-1765.86	  386.62
     63.4700	  583.00	  570.95	-1759.45	  386.75
     63.5700	  611.00	  571.73	-1732.23	  386.88
     63.6700	  582.00	  577.11	-1766.61	  387.02
     63.7700	  585.00	  588.48	-1774.98	  387.15
     63.8700	  610.00	  607.85	-1769.35	  387.29
     63.9700	  666.00	  637.34	-1742.84	  387.42
     64.0700	  693.00	  678.37	-1756.87	  387.56
     64.1700	  768.00	  730.77	-1734.27	  387.69
     64.2700	  807.00	  791.80	-1756.30	  387.82
     64.3700	  967.00	  855.60	-1660.10	  387.96
     64.4700	  950.00	  912.57	-1734.07	  388.09
     64.5700	  948.00	  952.86	-1776.36	  388.23
     64.6700	 1012.00	  967.52	-1727.02	  388.36
     64.7700	 1047.00	  954.62	-1679.12	  388.50
     64.8700	  961.00	  918.79	-1729.29	  388.63
     64.9700	  970.00	  868.68	-1670.18	  388.77
     65.0700	  898.00	  813.77	-1687.27	  388.91
     65.1700	  765.00	  761.63	-1768.13	  389.04
     65.2700	  785.00	  716.48	-1702.98	  389.18
     65.3700	  676.00	  679.37	-1774.87	  389.31
     65.4700	  654.00	  649.43	-1766.93	  389.45
     65.5700	  624.00	  625.38	-1772.88	  389.58
     65.6700	  624.00	  606.27	-1753.77	  389.72
     65.7700	  612.00	  591.40	-1750.90	  389.85
     65.8700	  538.00	  580.24	-1813.74	  389.99
     65.9700	  541.00	  572.32	-1802.82	  390.13
     66.0700	  533.00	  567.20	-1805.70	  390.26
     66.1700	  546.00	  564.48	-1789.98	  390.40
     66.2700	  602.00	  563.74	-1733.24	  390.53
     66.3700	  525.00	  564.67	-1811.17	  390.67
     66.4700	  536.00	  567.05	-1802.55	  390.80
     66.5700	  528.00	  571.04	-1814.54	  390.94
     66.6700	  530.00	  576.78	-1818.28	  391.07
     66.7700	  594.00	  585.30	-1762.80	  391.21
     66.8700	  549.00	  598.35	-1820.85	  391.34
     66.9700	  589.00	  618.99	-1801.49	  391.48
     67.0700	  595.00	  652.02	-1828.52	  391.61
     67.1700	  714.00	  704.25	-1761.75	  391.75
     67.2700	  743.00	  784.29	-1812.79	  391.88
     67.3700	  873.00	  901.27	-1799.77	  392.01
     67.4700	 1093.00	 1062.70	-1741.20	  392.15
     67.5700	 1334.00	 1270.82	-1708.32	  392.28
     67.6700	 1494.00	 1519.83	-1797.33	  392.42
     67.7700	 1841.00	 1792.77	-1723.27	  392.55
     67.8700	 1989.00	 2060.03	-1842.53	  392.68
     67.9700	 2321.00	 2280.93	-1731.43	  392.81
     68.0700	 2488.00	 2409.73	-1693.23	  392.95
     68.1700	 2392.00	 2413.37	-1792.87	  393.08
     68.2700	 2317.00	 2290.79	-1745.29	  393.21
     68.3700	 2024.00	 2073.92	-1821.42	  393.34
     68.4700	 1843.00	 1808.12	-1736.62	  393.47
     68.5700	 1509.00	 1535.00	-1797.50	  393.61
     68.6700	 1348.00	 1284.62	-1708.12	  393.74
     68.7700	 1011.00	 1074.60	-1835.10	  393.87
     68.8700	  917.00	  911.32	-1765.82	  394.00
     68.9700	  795.00	  792.68	-1769.18	  394.13
     69.0700	  677.00	  711.46	-1805.96	  394.26
     69.1700	  621.00	  658.51	-1809.01	  394.39
     69.2700	  628.00	  625.17	-1768.67	  394.52
     69.3700	  638.00	  604.51	-1738.01	  394.64
     69.4700	  583.00	  591.61	-1780.11	  394.77
     69.5700	  547.00	  583.34	-1807.84	  394.90
     69.6700	  627.00	  577.81	-1722.31	  395.03
     69.7700	  607.00	  574.00	-1738.50	  395.15
     69.8700	  579.00	  571.37	-1763.87	  395.28
     69.9700	  558.00	  569.63	-1783.13	  395.41
     70.0700	  576.00	  568.66	-1764.16	  395.53
     70.1700	  599.00	  568.43	-1740.93	  395.66
     70.2700	  575.00	  568.91	-1765.41	  395.78
     70.3700	  578.00	  570.24	-1763.74	  395.91
     70.4700	  598.00	  572.66	-1746.16	  396.03
     70.5700	  577.00	  576.66	-1771.16	  396.15
     70.6700	  601.00	  583.13	-1753.63	  396.28
     70.7700	  558.00	  593.59	-1807.09	  396.40
     70.8700	  581.00	  610.47	-1800.97	  396.52
     70.9700	  598.00	  637.35	-1810.85	  396.64
     71.0700	  642.00	  678.94	-1808.44	  396.76
     71.1700	  737.00	  740.91	-1775.41	  396.88
     71.2700	  807.00	  828.83	-1793.33	  397.00
     71.3700	  890.00	  946.91	-1828.41	  397.12
     71.4700	 1074.00	 1096.00	-1793.50	  397.24
     71.5700	 1189.00	 1271.84	-1854.34	  397.36
     71.6700	 1448.00	 1464.40	-1787.90	  397.47
     71.7700	 1637.00	 1653.99	-1788.49	  397.59
     71.8700	 1816.00	 1816.72	-1772.22	  397.71
     71.9700	 1963.00	 1924.41	-1732.91	  397.82
     72.0700	 1876.00	 1953.82	-1849.32	  397.94
     72.1700	 1846.00	 1897.90	-1823.40	  398.05
     72.2700	 1740.00	 1770.07	-1801.57	  398.17
     72.3700	 1658.00	 1596.48	-1709.98	  398.28
     72.4700	 1533.00	 1404.35	-1642.85	  398.39
     72.5700	 1315.00	 1217.06	-1673.56	  398.50
     72.6700	 1127.00	 1049.68	-1694.18	  398.61
     72.7700	 1046.00	  910.65	-1636.15	  398.72
     72.8700	  896.00	  802.24	-1677.74	  398.83
     72.9700	  769.00	  722.26	-1724.76	  398.94
     73.0700	  780.00	  665.98	-1657.48	  399.05
     73.1700	  729.00	  627.82	-1670.32	  399.16
     73.2700	  688.00	  602.58	-1686.08	  399.26
     73.3700	  658.00	  586.05	-1699.55	  399.37
     73.4700	  624.00	  575.16	-1722.66	  399.47
     73.5700	  614.00	  567.89	-1725.39	  399.58
     73.6700	  599.00	  562.98	-1735.48	  399.68
     73.7700	  594.00	  559.71	-1737.21	  399.79
     73.8700	  591.00	  557.68	-1738.18	  399.89
     73.9700	  577.00	  556.65	-1751.15	  399.99
     74.0700	  591.00	  556.42	-1736.92	  400.09
     74.1700	  625.00	  556.83	-1703.33	  400.19
     74.2700	  628.00	  557.67	-1701.17	  400.29
     74.3700	  628.00	  558.64	-1702.14	  400.39
     74.4700	  632.00	  559.45	-1698.95	  400.48
     74.5700	  631.00	  559.75	-1700.25	  400.58
     74.6700	  642.00	  559.29	-1688.79	  400.67
     74.7700	  650.00	  558.02	-1679.52	  400.77
     74.8700	  599.00	  556.10	-1728.60	  400.86
     74.9700	  620.00	  553.85	-1705.35	  400.96
     75.0700	  568.00	  551.65	-1755.15	  401.05
     75.1700	  591.00	  549.81	-1730.31	  401.14
     75.2700	  507.00	  548.82	-1813.32	  401.23
     75.3700	  549.00	  549.02	-1771.52	  401.32
     75.4700	  535.00	  550.78	-1787.28	  401.41
     75.5700	  582.00	  554.58	-1744.08	  401.49
     75.6700	  610.00	  561.03	-1722.53	  401.58
     75.7700	  601.00	  570.47	-1740.97	  401.67
     75.8700	  601.00	  583.17	-1753.67	  401.75
     75.9700	  604.00	  599.07	-1766.57	  401.83
     76.0700	  621.00	  617.68	-1768.18	  401.92
     76.1700	  625.00	  637.92	-1784.42	  402.00
     76.2700	  640.00	  658.11	-1789.61	  402.08
     76.3700	  736.00	  676.04	-1711.54	  402.16
     76.4700	  722.00	  689.12	-1738.62	  402.24
     76.5700	  712.00	  695.02	-1754.52	  402.31
     76.6700	  658.00	  692.50	-1806.00	  402.39
     76.7700	  676.00	  682.06	-1777.56	  402.47
     76.8700	  655.00	  665.67	-1782.17	  402.54
     76.9700	  584.00	  645.71	-1833.21	  402.62
     77.0700	  582.00	  624.95	-1814.45	  402.69
     77.1700	  562.00	  605.12	-1814.62	  402.76
     77.2700	  559.00	  587.53	-1800.03	  402.83
     77.3700	  587.00	  572.87	-1757.37	  402.90
     77.4700	  525.00	  561.35	-1807.84	  402.97
     77.5700	  524.00	  552.73	-1800.23	  403.03
     77.6700	  551.00	  546.59	-1767.09	  403.10
     77.7700	  500.00	  542.38	-1813.88	  403.17
     77.8700	  513.00	  539.60	-1798.10	  403.23
     77.9700	  515.00	  537.80	-1794.30	  403.29
     78.0700	  478.00	  536.65	-1830.15	  403.35
     78.1700	  545.00	  535.93	-1762.43	  403.42
     78.2700	  510.00	  535.47	-1796.97	  403.48
     78.3700	  525.00	  535.19	-1781.69	  403.53
     78.4700	  514.00	  535.04	-1792.54	  403.59
     78.5700	  507.00	  534.99	-1799.49	  403.65
     78.6700	  530.00	  535.03	-1776.53	  403.70
     78.7700	  549.00	  535.18	-1757.68	  403.76
     78.8700	  545.00	  535.45	-1761.95	  403.81
     78.9700	  522.00	  535.87	-1785.37	  403.86
     79.0700	  534.00	  536.49	-1773.99	  403.91
     79.1700	  521.00	  537.34	-1787.84	  403.96
     79.2700	  523.00	  538.48	-1786.98	  404.01
     79.3700	  511.00	  539.79	-1800.29	  404.05
     79.4700	  531.00	  541.68	-1782.18	  404.10
     79.5700	  554.00	  544.05	-1761.55	  404.15
     79.6700	  563.00	  546.99	-1755.49	  404.19
     79.7700	  531.00	  550.61	-1791.11	  404.23
     79.8700	  547.00	  555.04	-1779.54	  404.27
     79.9700	  534.00	  560.46	-1797.96	  404.31
     80.0700	  512.00	  567.13	-1826.63	  404.35
     80.1700	  567.00	  575.32	-1779.82	  404.39
     80.2700	  553.00	  585.38	-1803.88	  404.42
     80.3700	  560.00	  597.59	-1809.09	  404.46
     80.4700	  542.00	  612.10	-1841.60	  404.49
     80.5700	  625.00	  628.78	-1775.28	  404.52
     80.6700	  644.00	  647.21	-1774.71	  404.55
     80.7700	  661.00	  666.54	-1777.04	  404.58
     80.8700	  685.00	  685.63	-1772.13	  404.61
     80.9700	  705.00	  703.11	-1769.61	  404.64
     81.0700	  697.00	  717.71	-1792.21	  404.66
     81.1700	  664.00	  728.41	-1835.91	  404.69
     81.2700	  750.00	  734.51	-1756.01	  404.71
     81.3700	  753.00	  735.64	-1754.14	  404.73
     81.4700	  738.00	  731.85	-1765.35	  404.75
     81.5700	  779.00	  723.52	-1716.02	  404.77
     81.6700	  759.00	  711.26	-1723.76	  404.79
     81.7700	  751.00	  695.82	-1716.32	  404.81
     81.8700	  752.00	  678.21	-1697.71	  404.82
     81.9700	  725.00	  659.57	-1706.07	  404.84
     82.0700	  727.00	  641.03	-1685.53	  404.85
     82.1700	  701.00	  623.47	-1693.97	  404.86
     82.2700	  632.00	  607.60	-1747.10	  404.87
     82.3700	  615.00	  593.72	-1750.22	  404.88
     82.4700	  606.00	  581.95	-1747.45	  404.89
     82.5700	  593.00	  572.34	-1750.84	  404.89
     82.6700	  565.00	  564.80	-1771.30	  404.90
     82.7700	  578.00	  559.25	-1752.75	  404.90
     82.8700	  568.00	  555.56	-1759.06	  404.90
     82.9700	  556.00	  553.57	-1769.07	  404.90
     83.0700	  575.00	  553.16	-1749.66	  404.90
     83.1700	  535.00	  554.18	-1790.68	  404.90
     83.2700	  547.00	  556.50	-1781.00	  404.90
     83.3700	  557.00	  559.93	-1774.43	  404.89
     83.4700	  559.00	  564.21	-1776.71	  404.89
     83.5700	  559.00	  569.00	-1781.50	  404.88
     83.6700	  575.00	  573.88	-1770.38	  404.87
     83.7700	  550.00	  578.35	-1799.85	  404.86
     83.8700	  563.00	  581.85	-1790.35	  404.85
     83.9700	  561.00	  583.84	-1794.34	  404.83
     84.0700	  511.00	  583.97	-1844.47	  404.82
     84.1700	  581.00	  582.17	-1772.67	  404.80
     84.2700	  530.00	  578.69	-1820.19	  404.78
     84.3700	  567.00	  573.98	-1778.48	  404.77
     84.4700	  507.00	  568.56	-1833.06	  404.74
     84.5700	  518.00	  562.93	-1816.43	  404.72
     84.6700	  555.00	  557.47	-1773.97	  404.70
     84.7700	  505.00	  552.47	-1818.97	  404.68
     84.8700	  553.00	  548.13	-1766.63	  404.65
     84.9700	  514.00	  544.52	-1802.02	  404.62
     85.0700	  544.00	  541.65	-1769.15	  404.59
     85.1700	  557.00	  539.46	-1753.96	  404.56
     85.2700	  587.00	  537.87	-1722.37	  404.53
     85.3700	  565.00	  536.77	-1743.27	  404.50
     85.4700	  502.00	  536.08	-1805.58	  404.46
     85.5700	  548.00	  535.70	-1759.20	  404.43
     85.6700	  505.00	  535.61	-1802.11	  404.39
     85.7700	  508.00	  535.78	-1799.28	  404.35
     85.8700	  534.00	  536.25	-1773.75	  404.31
     85.9700	  526.00	  537.06	-1782.56	  404.27
     86.0700	  493.00	  538.31	-1816.81	  404.23
     86.1700	  537.00	  540.15	-1774.65	  404.18
     86.2700	  511.00	  542.71	-1803.21	  404.14
     86.3700	  541.00	  546.18	-1776.68	  404.09
     86.4700	  517.00	  550.71	-1805.21	  404.04
     86.5700	  544.00	  556.40	-1783.90	  403.99
     86.6700	  579.00	  563.29	-1755.79	  403.94
     86.7700	  543.00	  571.29	-1799.79	  403.88
     86.8700	  573.00	  579.87	-1778.37	  403.83
     86.9700	  611.00	  589.27	-1749.77	  403.77
     87.0700	  611.00	  598.64	-1759.14	  403.71
     87.1700	  597.00	  607.30	-1781.80	  403.66
     87.2700	  620.00	  614.46	-1765.96	  403.59
     87.3700	  613.00	  619.37	-1777.87	  403.53
     87.4700	  616.00	  621.41	-1776.91	  403.47
     87.5700	  604.00	  620.37	-1787.87	  403.40
     87.6700	  644.00	  616.45	-1743.95	  403.34
     87.7700	  610.00	  610.27	-1771.77	  403.27
     87.8700	  632.00	  602.62	-1742.12	  403.20
     87.9700	  609.00	  594.36	-1756.86	  403.13
     88.0700	  566.00	  586.26	-1791.76	  403.06
     88.1700	  570.00	  579.00	-1780.50	  402.98
     88.2700	  624.00	  573.10	-1720.60	  402.91
     88.3700	  564.00	  568.89	-1776.39	  402.83
     88.4700	  609.00	  566.57	-1729.07	  402.75
     88.5700	  547.00	  566.14	-1790.64	  402.68
     88.6700	  557.00	  567.49	-1781.99	  402.59
     88.7700	  579.00	  570.34	-1762.84	  402.51
     88.8700	  610.00	  574.33	-1735.83	  402.43
     88.9700	  576.00	  578.99	-1774.49	  402.34
     89.0700	  583.00	  583.81	-1772.31	  402.26
     89.1700	  583.00	  588.20	-1776.70	  402.17
     89.2700	  628.00	  591.60	-1735.10	  402.08
     89.3700	  595.00	  593.51	-1770.01	  401.99
     89.4700	  596.00	  593.60	-1769.10	  401.90
     89.5700	  576.00	  591.79	-1787.29	  401.80
     89.6700	  553.00	  588.31	-1806.81	  401.71
     89.7700	  563.00	  583.53	-1792.03	  401.61
     89.8700	  503.00	  577.93	-1846.43	  401.51
     89.9700	  550.00	  571.96	-1793.46	  401.41
     90.0700	  589.00	  566.03	-1748.53	  401.31
     90.1700	  574.00	  560.43	-1757.93	  401.21
     90.2700	  549.00	  555.40	-1777.90	  401.10
     90.3700	  524.00	  551.08	-1798.58	  401.00
     90.4700	  557.00	  547.52	-1762.02	  400.89
     90.5700	  529.00	  544.72	-1787.22	  400.78
     90.6700	  532.00	  542.61	-1782.11	  400.68
     90.7700	  514.00	  541.13	-1798.63	  400.56
     90.8700	  487.00	  540.19	-1824.69	  400.45
     90.9700	  550.00	  539.71	-1761.21	  400.34
     91.0700	  503.00	  539.63	-1808.13	  400.22
     91.1700	  480.00	  539.93	-1831.43	  400.11
     91.2700	  511.00	  540.60	-1801.10	  399.99
     91.3700	  541.00	  541.69	-1772.19	  399.87
     91.4700	  546.00	  543.28	-1768.78	  399.75
     91.5700	  557.00	  545.50	-1760.00	  399.63
     91.6700	  521.00	  548.50	-1799.00	  399.50
     91.7700	  567.00	  552.47	-1756.97	  399.38
     91.8700	  522.00	  557.61	-1807.11	  399.25
     91.9700	  549.00	  564.13	-1786.63	  399.13
     92.0700	  537.00	  571.98	-1806.48	  399.00
     92.1700	  572.00	  581.75	-1781.25	  398.87
     92.2700	  625.00	  593.26	-1739.76	  398.74
     92.3700	  592.00	  606.48	-1785.98	  398.60
     92.4700	  616.00	  621.24	-1776.74	  398.47
     92.5700	  631.00	  637.26	-1777.76	  398.33
     92.6700	  639.00	  654.12	-1786.62	  398.20
     92.7700	  691.00	  671.26	-1751.76	  398.06
     92.8700	  718.00	  688.04	-1741.54	  397.92
     92.9700	  752.00	  703.77	-1723.27	  397.78
     93.0700	  750.00	  717.90	-1739.40	  397.64
     93.1700	  765.00	  730.10	-1736.60	  397.49
     93.2700	  749.00	  740.44	-1762.94	  397.35
     93.3700	  802.00	  749.30	-1718.80	  397.20
     93.4700	  789.00	  757.25	-1739.75	  397.05
     93.5700	  870.00	  764.91	-1666.41	  396.91
     93.6700	  808.00	  772.82	-1736.32	  396.76
     93.7700	  798.00	  781.45	-1754.95	  396.60
     93.8700	  860.00	  791.22	-1702.72	  396.45
     93.9700	  812.00	  802.55	-1762.05	  396.30
     94.0700	  866.00	  815.77	-1721.27	  396.14
     94.1700	  824.00	  831.01	-1778.51	  395.99
     94.2700	  832.00	  848.07	-1787.57	  395.83
     94.3700	  895.00	  866.27	-1742.77	  395.67
     94.4700	  905.00	  884.50	-1751.00	  395.51
     94.5700	  933.00	  901.23	-1739.73	  395.35
     94.6700	  895.00	  914.63	-1791.13	  395.19
     94.7700	  919.00	  922.82	-1775.32	  395.02
     94.8700	  929.00	  924.21	-1766.71	  394.86
     94.9700	  900.00	  917.92	-1789.42	  394.69
     95.0700	  918.00	  904.05	-1757.55	  394.53
     95.1700	  927.00	  883.61	-1728.11	  394.36
     95.2700	  882.00	  858.30	-1747.80	  394.19
     95.3700	  840.00	  830.12	-1761.62	  394.02
     95.4700	  769.00	  801.16	-1803.66	  393.85
     95.5700	  748.00	  773.38	-1796.88	  393.67
     95.6700	  707.00	  748.61	-1813.11	  393.50
     95.7700	  728.00	  728.47	-1771.97	  393.33
     95.8700	  754.00	  714.45	-1731.95	  393.15
     95.9700	  703.00	  707.81	-1776.31	  392.97
     96.0700	  702.00	  709.66	-1779.16	  392.79
     96.1700	  657.00	  720.91	-1835.41	  392.61
     96.2700	  734.00	  742.26	-1779.76	  392.43
     96.3700	  775.00	  774.17	-1770.67	  392.25
     96.4700	  818.00	  816.70	-1770.20	  392.07
     96.5700	  936.00	  869.54	-1705.04	  391.89
     96.6700	  935.00	  931.78	-1768.28	  391.70
     96.7700	  971.00	 1001.89	-1802.39	  391.52
     96.8700	 1048.00	 1077.68	-1801.18	  391.33
     96.9700	 1138.00	 1156.18	-1789.68	  391.14
     97.0700	 1176.00	 1233.82	-1829.32	  390.95
     97.1700	 1253.00	 1306.36	-1824.86	  390.76
     97.2700	 1362.00	 1369.21	-1778.71	  390.57
     97.3700	 1368.00	 1417.81	-1821.31	  390.38
     97.4700	 1447.00	 1448.20	-1772.70	  390.19
     97.5700	 1440.00	 1457.84	-1789.34	  389.99
     97.6700	 1428.00	 1446.15	-1789.65	  389.80
     97.7700	 1387.00	 1414.69	-1799.19	  389.60
     97.8700	 1330.00	 1366.66	-1808.16	  389.41
     97.9700	 1270.00	 1306.23	-1807.73	  389.21
     98.0700	 1229.00	 1237.87	-1780.37	  389.01
     98.1700	 1185.00	 1165.93	-1752.43	  388.81
     98.2700	 1072.00	 1094.46	-1793.96	  388.61
     98.3700	 1084.00	 1026.87	-1714.37	  388.41
     98.4700	  960.00	  966.05	-1777.55	  388.21
     98.5700	  852.00	  914.29	-1833.79	  388.01
     98.6700	  849.00	  873.39	-1795.89	  387.80
     98.7700	  838.00	  844.64	-1778.14	  387.60
     98.8700	  818.00	  828.98	-1782.48	  387.40
     98.9700	  783.00	  827.04	-1815.54	  387.19
     99.0700	  827.00	  839.19	-1783.69	  386.98
     99.1700	  826.00	  865.62	-1811.12	  386.78
     99.2700	  877.00	  906.31	-1800.81	  386.57
     99.3700	  998.00	  961.00	-1734.50	  386.36
     99.4700	 1044.00	 1029.15	-1756.65	  386.15
     99.5700	 1075.00	 1109.83	-1806.33	  385.94
     99.6700	 1181.00	 1201.63	-1792.13	  385.73
     99.7700	 1267.00	 1302.58	-1807.08	  385.52
     99.8700	 1460.00	 1410.03	-1721.53	  385.31
     99.9700	 1584.00	 1520.63	-1708.13	  385.09
    100.0700	 1713.00	 1630.42	-1688.92	  384.88
    100.1700	 1668.00	 1734.96	-1838.46	  384.67
    100.2700	 1820.00	 1829.81	-1781.31	  384.45
    100.3700	 1893.00	 1910.97	-1789.47	  384.23
    100.4700	 1933.00	 1975.31	-1813.81	  384.02
    100.5700	 2074.00	 2020.62	-1718.12	  383.80
    100.6700	 2060.00	 2045.53	-1757.03	  383.59
    100.7700	 2063.00	 2049.25	-1757.75	  383.37
    100.8700	 2005.00	 2031.56	-1798.06	  383.15
    100.9700	 2061.00	 1993.02	-1703.52	  382.93
    101.0700	 1978.00	 1935.41	-1728.91	  382.71
    101.1700	 1927.00	 1861.85	-1706.35	  382.49
    101.2700	 1776.00	 1776.68	-1772.18	  382.27
    101.3700	 1690.00	 1684.90	-1766.40	  382.05
    101.4700	 1665.00	 1591.52	-1698.02	  381.83
    101.5700	 1518.00	 1501.02	-1754.52	  381.61
    101.6700	 1409.00	 1417.09	-1779.59	  381.39
    101.7700	 1343.00	 1342.36	-1770.86	  381.17
    101.8700	 1290.00	 1278.43	-1759.93	  380.94
    101.9700	 1225.00	 1225.83	-1772.33	  380.72
    102.0700	 1208.00	 1184.12	-1747.62	  380.50
    102.1700	 1133.00	 1151.98	-1790.48	  380.27
    102.2700	 1103.00	 1127.40	-1795.90	  380.05
    102.3700	 1128.00	 1107.86	-1751.36	  379.83
    102.4700	 1098.00	 1090.64	-1764.14	  379.60
    102.5700	 1100.00	 1073.11	-1744.61	  379.38
    102.6700	  986.00	 1053.11	-1838.61	  379.15
    102.7700	 1002.00	 1029.23	-1798.73	  378.93
    102.8700	 1021.00	 1000.90	-1751.40	  378.70
    102.9700	  988.00	  968.32	-1751.82	  378.48
    103.0700	  925.00	  932.29	-1778.79	  378.25
    103.1700	  903.00	  893.91	-1762.41	  378.03
    103.2700	  838.00	  854.41	-1787.91	  377.80
    103.3700	  804.00	  815.00	-1782.50	  377.57
    103.4700	  744.00	  776.79	-1804.29	  377.35
    103.5700	  736.00	  740.73	-1776.23	  377.12
    103.6700	  680.00	  707.54	-1799.04	  376.90
    103.7700	  660.00	  677.73	-1789.23	  376.67
    103.8700	  669.00	  651.59	-1754.09	  376.44
    103.9700	  632.00	  629.20	-1768.70	  376.22
    104.0700	  591.00	  610.47	-1790.97	  375.99
    104.1700	  555.00	  595.17	-1811.67	  375.76
    104.2700	  603.00	  582.99	-1751.49	  375.54
    104.3700	  570.00	  573.56	-1775.06	  375.31
    104.4700	  573.00	  566.49	-1764.99	  375.09
    104.5700	  550.00	  561.42	-1782.92	  374.86
    104.6700	  532.00	  557.97	-1797.47	  374.64
    104.7700	  535.00	  555.86	-1792.36	  374.41
    104.8700	  518.00	  554.80	-1808.30	  374.18
    104.9700	  532.00	  554.60	-1794.10	  373.96
    105.0700	  523.00	  555.08	-1803.58	  373.74
    105.1700	  571.00	  556.11	-1756.61	  373.51
    105.2700	  525.00	  557.59	-1804.09	  373.29
    105.3700	  547.00	  559.52	-1784.02	  373.06
    105.4700	  567.00	  561.86	-1766.36	  372.84
    105.5700	  523.00	  564.65	-1813.15	  372.62
    105.6700	  559.00	  567.96	-1780.46	  372.39
    105.7700	  583.00	  571.86	-1760.36	  372.17
    105.8700	  564.00	  576.48	-1783.98	  371.95
    105.9700	  614.00	  581.90	-1739.40	  371.73
    106.0700	  577.00	  588.20	-1782.70	  371.51
    106.1700	  613.00	  595.40	-1753.90	  371.29
    106.2700	  600.00	  603.47	-1774.97	  371.07
    106.3700	  622.00	  612.33	-1761.83	  370.85
    106.4700	  611.00	  621.82	-1782.32	  370.63
    106.5700	  595.00	  631.73	-1808.23	  370.41
    106.6700	  661.00	  641.76	-1752.26	  370.19
    106.7700	  626.00	  651.58	-1797.08	  369.97
    106.8700	  632.00	  660.83	-1800.33	  369.76
    106.9700	  654.00	  669.13	-1786.63	  369.54
    107.0700	  711.00	  676.11	-1736.61	  369.32
    107.1700	  683.00	  681.49	-1769.99	  369.11
    107.2700	  650.00	  685.11	-1806.61	  368.90
    107.3700	  666.00	  686.98	-1792.48	  368.68
    107.4700	  625.00	  687.28	-1833.78	  368.47
    107.5700	  685.00	  686.31	-1772.81	  368.26
    107.6700	  677.00	  684.49	-1778.99	  368.05
    107.7700	  662.00	  682.27	-1791.77	  367.84
    107.8700	  732.00	  680.05	-1719.55	  367.63
    107.9700	  697.00	  678.17	-1752.67	  367.42
    108.0700	  671.00	  676.90	-1777.40	  367.21
    108.1700	  697.00	  676.37	-1750.87	  367.01
    108.2700	  626.00	  676.60	-1822.10	  366.80
    108.3700	  650.00	  677.51	-1799.01	  366.60
    108.4700	  693.00	  678.90	-1757.40	  366.40
    108.5700	  717.00	  680.47	-1734.97	  366.19
    108.6700	  679.00	  681.85	-1774.35	  365.99
    108.7700	  698.00	  682.63	-1756.13	  365.79
    108.8700	  670.00	  682.41	-1783.91	  365.60
    108.9700	  671.00	  680.85	-1781.35	  365.40
    109.0700	  694.00	  677.72	-1755.22	  365.20
    109.1700	  674.00	  672.94	-1770.44	  365.01
    109.2700	  687.00	  666.56	-1751.06	  364.81
    109.3700	  655.00	  658.76	-1775.26	  364.62
    109.4700	  655.00	  649.83	-1766.33	  364.43
    109.5700	  664.00	  640.08	-1747.58	  364.24
    109.6700	  655.00	  629.87	-1746.37	  364.05
    109.7700	  634.00	  619.52	-1757.02	  363.86
    109.8700	  555.00	  609.33	-1825.83	  363.68
    109.9700	  616.00	  599.57	-1755.07	  363.50
    110.0700	  588.00	  590.45	-1773.95	  363.31
    110.1700	  589.00	  582.15	-1764.65	  363.13
    110.2700	  603.00	  574.78	-1743.28	  362.95
    110.3700	  539.00	  568.40	-1800.90	  362.77
    110.4700	  592.00	  563.03	-1742.53	  362.60
    110.5700	  553.00	  558.66	-1777.16	  362.42
    110.6700	  557.00	  555.25	-1769.75	  362.25
    110.7700	  575.00	  552.71	-1749.21	  362.08
    110.8700	  557.00	  550.96	-1765.46	  361.91
    110.9700	  562.00	  549.92	-1759.42	  361.74
    111.0700	  524.00	  549.49	-1796.99	  361.58
    111.1700	  559.00	  549.60	-1762.10	  361.41
    111.2700	  544.00	  550.15	-1777.65	  361.25
    111.3700	  541.00	  551.08	-1781.58	  361.09
    111.4700	  549.00	  552.33	-1774.83	  360.93
    111.5700	  542.00	  553.86	-1783.36	  360.78
    111.6700	  530.00	  555.62	-1797.12	  360.62
    111.7700	  578.00	  557.60	-1751.10	  360.47
    111.8700	  595.00	  559.78	-1736.28	  360.32
    111.9700	  555.00	  562.14	-1778.64	  360.17
    112.0700	  526.00	  564.70	-1810.20	  360.02
    112.1700	  528.00	  567.47	-1810.97	  359.88
    112.2700	  584.00	  570.45	-1757.95	  359.74
    112.3700	  554.00	  573.70	-1791.20	  359.60
    112.4700	  638.00	  577.23	-1710.73	  359.46
    112.5700	  577.00	  581.11	-1775.61	  359.33
    112.6700	  647.00	  585.40	-1709.90	  359.19
    112.7700	  578.00	  590.19	-1783.69	  359.06
    112.8700	  691.00	  595.58	-1676.08	  358.93
    112.9700	  672.00	  601.72	-1701.22	  358.81
    113.0700	  668.00	  608.80	-1712.30	  358.69
    113.1700	  636.00	  617.05	-1752.55	  358.57
    113.2700	  736.00	  626.79	-1662.29	  358.45
    113.3700	  710.00	  638.41	-1699.91	  358.33
    113.4700	  757.00	  652.44	-1666.94	  358.22
    113.5700	  800.00	  669.49	-1640.99	  358.11
    113.6700	  829.00	  690.37	-1632.87	  358.00
    113.7700	  855.00	  716.03	-1632.53	  357.90
    113.8700	  887.00	  747.64	-1632.14	  357.79
    113.9700	  881.00	  786.56	-1677.06	  357.69
    114.0700	  982.00	  834.40	-1623.90	  357.60
    114.1700	 1024.00	  892.97	-1640.47	  357.50
    114.2700	 1123.00	  964.29	-1612.79	  357.41
    114.3700	 1206.00	 1050.59	-1616.09	  357.33
    114.4700	 1307.00	 1154.16	-1618.66	  357.24
    114.5700	 1446.00	 1277.44	-1602.94	  357.16
    114.6700	 1492.00	 1422.75	-1702.25	  357.08
    114.7700	 1738.00	 1592.26	-1625.76	  357.00
    114.8700	 1929.00	 1787.92	-1630.42	  356.93
    114.9700	 2187.00	 2011.10	-1595.60	  356.86
    115.0700	 2294.00	 2262.72	-1740.22	  356.80
    115.1700	 2556.00	 2542.79	-1758.29	  356.73
    115.2700	 2831.00	 2850.42	-1790.92	  356.67
    115.3700	 3175.00	 3183.78	-1780.28	  356.62
    115.4700	 3410.00	 3539.68	-1901.18	  356.56
    115.5700	 3800.00	 3913.93	-1885.43	  356.51
    115.6700	 4146.00	 4300.90	-1926.40	  356.47
    115.7700	 4519.00	 4693.73	-1946.23	  356.42
    115.8700	 4769.00	 5084.50	-2087.00	  356.38
    115.9700	 5292.00	 5463.99	-1943.49	  356.35
    116.0700	 5616.00	 5822.29	-1977.79	  356.32
    116.1700	 5944.00	 6148.63	-1976.13	  356.29
    116.2700	 6325.00	 6432.07	-1878.57	  356.26
    116.3700	 6544.00	 6662.16	-1889.66	  356.24
    116.4700	 6729.00	 6829.45	-1871.95	  356.22
    116.5700	 6806.00	 6926.71	-1892.21	  356.21
    116.6700	 6976.00	 6949.57	-1745.07	  356.20
    116.7700	 7086.00	 6897.19	-1582.69	  356.19
    116.8700	 6792.00	 6772.32	-1751.82	  356.19
    116.9700	 6686.00	 6580.98	-1666.48	  356.19
    117.0700	 6412.00	 6331.60	-1691.10	  356.20
    117.1700	 6225.00	 6034.23	-1580.73	  356.21
    117.2700	 5694.00	 5699.71	-1777.21	  356.22
    117.3700	 5393.00	 5338.66	-1717.16	  356.24
    117.4700	 4899.00	 4961.46	-1833.96	  356.26
    117.5700	 4659.00	 4577.42	-1689.92	  356.29
    117.6700	 4356.00	 4195.00	-1610.50	  356.32
    117.7700	 4008.00	 3821.46	-1584.96	  356.36
    117.8700	 3630.00	 3462.66	-1604.16	  356.40
    117.9700	 3168.00	 3123.43	-1726.93	  356.44
    118.0700	 2906.00	 2807.17	-1672.67	  356.49
    118.1700	 2516.00	 2516.27	-1771.77	  356.54
    118.2700	 2249.00	 2252.04	-1774.54	  356.60
    118.3700	 2006.00	 2014.78	-1780.28	  356.66
    118.4700	 1725.00	 1804.12	-1850.62	  356.73
    118.5700	 1513.00	 1618.96	-1877.46	  356.80
    118.6700	 1443.00	 1457.81	-1786.31	  356.87
    118.7700	 1258.00	 1318.80	-1832.30	  356.95
    118.8700	 1084.00	 1199.84	-1887.34	  357.04
    118.9700	 1032.00	 1098.77	-1838.27	  357.13
    119.0700	  953.00	 1013.41	-1831.91	  357.22
    119.1700	  872.00	  941.70	-1841.20	  357.33
    119.2700	  852.00	  881.69	-1801.19	  357.43
    119.3700	  753.00	  831.62	-1850.12	  357.54
    119.4700	  731.00	  789.91	-1830.41	  357.66
    119.5700	  726.00	  755.20	-1800.70	  357.78
    119.6700	  684.00	  726.30	-1813.80	  357.90
    119.7700	  645.00	  702.22	-1828.72	  358.03
    119.8700	  615.00	  682.13	-1838.63	  358.17
    119.9700	  627.00	  665.35	-1809.85	  358.31
    120.0700	  603.00	  651.32	-1819.82	  358.46
    120.1700	  546.00	  639.59	-1865.09	  358.61
    120.2700	  557.00	  629.79	-1844.29	  358.77
    120.3700	  600.00	  621.64	-1793.14	  358.93
    120.4700	  581.00	  614.90	-1805.40	  359.10
    120.5700	  576.00	  609.40	-1804.90	  359.27
    120.6700	  582.00	  604.99	-1794.49	  359.45
    120.7700	  551.00	  601.56	-1822.06	  359.64
    120.8700	  565.00	  599.03	-1805.53	  359.83
    120.9700	  586.00	  597.31	-1782.81	  360.02
    121.0700	  534.00	  596.35	-1833.85	  360.23
    121.1700	  557.00	  596.10	-1810.60	  360.44
    121.2700	  532.00	  596.51	-1836.01	  360.65
    121.3700	  580.00	  597.53	-1789.03	  360.87
    121.4700	  561.00	  599.10	-1809.60	  361.10
    121.5700	  567.00	  601.19	-1805.69	  361.33
    121.6700	  631.00	  603.71	-1744.21	  361.57
    121.7700	  592.00	  606.61	-1786.11	  361.82
    121.8700	  611.00	  609.81	-1770.31	  362.07
    121.9700	  615.00	  613.20	-1769.70	  362.33
    122.0700	  605.00	  616.72	-1783.22	  362.59
    122.1700	  636.00	  620.26	-1755.76	  362.86
    122.2700	  592.00	  623.71	-1803.21	  363.14
    122.3700	  648.00	  626.96	-1750.46	  363.42
    122.4700	  660.00	  629.89	-1741.39	  363.71
    122.5700	  673.00	  632.41	-1730.91	  364.01
    122.6700	  649.00	  634.41	-1756.91	  364.32
    122.7700	  644.00	  635.83	-1763.33	  364.63
    122.8700	  605.00	  636.61	-1803.11	  364.94
    122.9700	  674.00	  636.73	-1734.23	  365.27
    123.0700	  633.00	  636.18	-1774.68	  365.60
    123.1700	  618.00	  634.99	-1788.49	  365.94
    123.2700	  642.00	  633.21	-1762.71	  366.28
    123.3700	  644.00	  630.91	-1758.41	  366.64
    123.4700	  667.00	  628.15	-1732.65	  367.00
    123.5700	  655.00	  625.03	-1741.53	  367.36
    123.6700	  610.00	  621.62	-1783.12	  367.74
    123.7700	  637.00	  618.00	-1752.50	  368.12
    123.8700	  607.00	  614.25	-1778.75	  368.51
    123.9700	  620.00	  610.44	-1761.94	  368.90
    124.0700	  668.00	  606.63	-1710.13	  369.31
    124.1700	  642.00	  602.88	-1732.38	  369.72
    124.2700	  645.00	  599.24	-1725.74	  370.14
    124.3700	  663.00	  595.75	-1704.25	  370.56
    124.4700	  589.00	  592.44	-1774.94	  371.00
    124.5700	  612.00	  589.32	-1748.82	  371.44
    124.6700	  593.00	  586.43	-1764.93	  371.89
    124.7700	  611.00	  583.77	-1744.27	  372.35
    124.8700	  591.00	  581.36	-1761.86	  372.81
    124.9700	  599.00	  492.02	-1664.52	  373.28
    125.0700	  601.00	  492.50	-1771.50	  373.77
    125.1700	  594.00	  492.99	-1771.50	  374.26
    125.2700	  588.00	  493.48	-1771.50	  374.75
    125.3700	  549.00	  493.99	-1771.50	  375.26
    125.4700	  569.00	  494.51	-1771.50	  375.77
    125.5700	  564.00	  495.03	-1771.50	  376.30
    125.6700	  563.00	  495.56	-1771.50	  376.83
    125.7700	  585.00	  496.10	-1771.50	  377.37
    125.8700	  563.00	  496.65	-1771.50	  377.92
    125.9700	  586.00	  497.21	-1771.50	  378.47
    126.0700	  574.00	  497.77	-1771.50	  379.04
    126.1700	  584.00	  498.35	-1771.50	  379.61
    126.2700	  571.00	  498.93	-1771.50	  380.20
    126.3700	  578.00	  499.52	-1771.50	  380.79
    126.4700	  614.00	  500.12	-1771.50	  381.39
    126.5700	  615.00	  500.73	-1771.50	  382.00
    126.6700	  642.00	  501.35	-1771.50	  382.62
    126.7700	  634.00	  501.98	-1771.50	  383.25
    126.8700	  630.00	  502.62	-1771.50	  383.89
    126.9700	  632.00	  503.26	-1771.50	  384.53
    127.0700	  637.00	  503.92	-1771.50	  385.19
    127.1700	  660.00	  504.58	-1771.50	  385.85
    127.2700	  679.00	  505.26	-1771.50	  386.53
    127.3700	  629.00	  505.94	-1771.50	  387.21
    127.4700	  622.00	  506.64	-1771.50	  387.91
    127.5700	  688.00	  507.34	-1771.50	  388.61
    127.6700	  662.00	  508.05	-1771.50	  389.32
    127.7700	  700.00	  508.78	-1771.50	  390.05
    127.8700	  734.00	  509.51	-1771.50	  390.78
    127.9700	  816.00	  510.25	-1771.50	  391.52
    128.0700	  730.00	  511.00	-1771.50	  392.27
    128.1700	  792.00	  511.77	-1771.50	  393.04
    128.2700	  787.00	  512.54	-1771.50	  393.81
    128.3700	  723.00	  513.32	-1771.50	  394.59
    128.4700	  767.00	  514.12	-1771.50	  395.39
    128.5700	    0.00	  514.92	-1771.50	  396.19
    128.6700	    0.00	  515.73	-1771.50	  397.00
     12.3018	        	        	        	        	       0	(  0  0  2)	  0  1
     24.8845	        	        	        	        	       0	(  0  0  4)	  0  1
     28.3266	        	        	        	        	       0	(  1  0  0)	  0  1
     29.0237	        	        	        	        	       0	(  1  0  1)	  0  1
     31.0298	        	        	        	        	       0	(  1  0  2)	  0  1
     34.1380	        	        	        	        	       0	(  1  0  3)	  0  1
     37.7831	        	        	        	        	       0	(  0  0  6)	  0  1
     38.1149	        	        	        	        	       0	(  1  0  4)	  0  1
     42.7647	        	        	        	        	       0	(  1  0  5)	  0  1
     47.9484	        	        	        	        	       0	(  1  0  6)	  0  1
     50.2629	        	        	        	        	       0	(  1  1  0)	  0  1
     51.2039	        	        	        	        	       0	(  0  0  8)	  0  1
     51.9858	        	        	        	        	       0	(  1  1  2)	  0  1
     53.5785	        	        	        	        	       0	(  1  0  7)	  0  1
     56.9334	        	        	        	        	       0	(  1  1  4)	  0  1
     58.7596	        	        	        	        	       0	(  2  0  0)	  0  1
     59.1512	        	        	        	        	       0	(  2  0  1)	  0  1
     59.6084	        	        	        	        	       0	(  1  0  8)	  0  1
     60.3165	        	        	        	        	       0	(  2  0  2)	  0  1
     62.2296	        	        	        	        	       0	(  2  0  3)	  0  1
     64.6275	        	        	        	        	       0	(  1  1  6)	  0  1
     64.8535	        	        	        	        	       0	(  2  0  4)	  0  1
     65.4318	        	        	        	        	       0	(  0  0 10)	  0  1
     66.0241	        	        	        	        	       0	(  1  0  9)	  0  1
     68.1475	        	        	        	        	       0	(  2  0  5)	  0  1
     72.0746	        	        	        	        	       0	(  2  0  6)	  0  1
     72.8396	        	        	        	        	       0	(  1  0 10)	  0  1
     74.6643	        	        	        	        	       0	(  1  1  8)	  0  1
     76.6083	        	        	        	        	       0	(  2  0  7)	  0  1
     80.0965	        	        	        	        	       0	(  1  0 11)	  0  1
     80.9105	        	        	        	        	       0	(  0  0 12)	  0  1
     81.0001	        	        	        	        	       0	(  2  1  0)	  0  1
     81.3400	        	        	        	        	       0	(  2  1  1)	  0  1
     81.7381	        	        	        	        	       0	(  2  0  8)	  0  1
     82.3577	        	        	        	        	       0	(  2  1  2)	  0  1
     84.0489	        	        	        	        	       0	(  2  1  3)	  0  1
     86.4083	        	        	        	        	       0	(  2  1  4)	  0  1
     86.9344	        	        	        	        	       0	(  1  1 10)	  0  1
     87.4755	        	        	        	        	       0	(  2  0  9)	  0  1
     87.8698	        	        	        	        	       0	(  1  0 12)	  0  1
     89.4338	        	        	        	        	       0	(  2  1  5)	  0  1
     93.1308	        	        	        	        	       0	(  2  1  6)	  0  1
     93.8622	        	        	        	        	       0	(  2  0 10)	  0  1
     94.8884	        	        	        	        	       0	(  3  0  0)	  0  1
     95.2257	        	        	        	        	       0	(  3  0  1)	  0  1
     96.2388	        	        	        	        	       0	(  3  0  2)	  0  1
     96.2819	        	        	        	        	       0	(  1  0 13)	  0  1
     97.5188	        	        	        	        	       0	(  2  1  7)	  0  1
     97.9320	        	        	        	        	       0	(  3  0  3)	  0  1
     98.4474	        	        	        	        	       0	(  0  0 14)	  0  1
    100.3147	        	        	        	        	       0	(  3  0  4)	  0  1
    100.9831	        	        	        	        	       0	(  2  0 11)	  0  1
    101.8028	        	        	        	        	       0	(  1  1 12)	  0  1
    102.6406	        	        	        	        	       0	(  2  1  8)	  0  1
    103.4059	        	        	        	        	       0	(  3  0  5)	  0  1
    105.5331	        	        	        	        	       0	(  1  0 14)	  0  1
    107.2405	        	        	        	        	       0	(  3  0  6)	  0  1
    108.5766	        	        	        	        	       0	(  2  1  9)	  0  1
    108.9931	        	        	        	        	       0	(  2  0 12)	  0  1
    111.8801	        	        	        	        	       0	(  3  0  7)	  0  1
    115.4723	        	        	        	        	       0	(  2  1 10)	  0  1
    115.9746	        	        	        	        	       0	(  1  0 15)	  0  1
    116.6123	        	        	        	        	       0	(  2  2  0)	  0  1
    117.4326	        	        	        	        	       0	(  3  0  8)	  0  1
    118.1273	        	        	        	        	       0	(  2  2  2)	  0  1
    118.1758	        	        	        	        	       0	(  2  0 13)	  0  1
    119.9319	        	        	        	        	       0	(  0  0 16)	  0  1
    120.6437	        	        	        	        	       0	(  1  1 14)	  0  1
    122.8120	        	        	        	        	       0	(  2  2  4)	  0  1
    123.5979	        	        	        	        	       0	(  2  1 11)	  0  1
    124.0914	        	        	        	        	       0	(  3  0  9)	  0  1
    124.6770	        	        	        	        	       0	(  3  1  0)	  0  1
    125.0871	        	        	        	        	       0	(  3  1  1)	  0  1
    126.3303	        	        	        	        	       0	(  3  1  2)	  0  1
    128.3156	        	        	        	        	       0	(  1  0 16)	  0  1
    128.4482	        	        	        	        	       0	(  3  1  3)	  0  1
    129.1037	        	        	        	        	       0	(  2  0 14)	  0  1
    131.2503	        	        	        	        	       0	(  2  2  6)	  0  1
    131.5236	        	        	        	        	       0	(  3  1  4)	  0  1
    132.2305	        	        	        	        	       0	(  3  0 10)	  0  1
    133.5084	        	        	        	        	       0	(  2  1 12)	  0  1
    135.7098	        	        	        	        	       0	(  3  1  5)	  0  1
    141.3040	        	        	        	        	       0	(  3  1  6)	  0  1
    142.7072	        	        	        	        	       0	(  3  0 11)	  0  1
    143.2414	        	        	        	        	       0	(  2  0 15)	  0  1
    144.4830	        	        	        	        	       0	(  1  0 17)	  0  1
    145.4814	        	        	        	        	       0	(  2  2  8)	  0  1
    146.6619	        	        	        	        	       0	(  2  1 13)	  0  1
    148.9755	        	        	        	        	       0	(  3  1  7)	  0  1
    149.5756	        	        	        	        	       0	(  1  1 16)	  0  1
    153.9806	        	        	        	        	       0	(  0  0 18)	  0  1
    158.5840	        	        	        	        	       0	(  3  0 12)	  0  1
    158.8293	        	        	        	        	       0	(  4  0  0)	  0  1
    159.7858	        	        	        	        	       0	(  4  0  1)	  0  1
    160.9665	        	        	        	        	       0	(  3  1  8)	  0  1
    162.9633	        	        	        	        	       0	(  4  0  2)	  0  1
    169.6996	        	        	        	        	       0	(  2  0 16)	  0  1
    170.3052	        	        	        	        	       0	(  4  0  3)	  0  1
    174.1392	        	        	        	        	       0	(  2  1 14)	  0  1
