MSG Master    CELL:    5.91988   5.91988  23.28103   90.0000   90.0000  120.0000   SPGR: P 63/m m c             TEMP:   1074.85
  1   1280     2.52000     0.00000    -0.12360     0.00000     0.00000    0
    99     0     2
       0.00000      10.00000
     125.00000     130.00000
 2Theta	Yobs	Ycal	Yobs-Ycal	Backg	Posr	(hkl)	K
      0.7700	    0.00	  544.06	-1727.00	  425.31
      0.8700	    0.00	  544.75	-1727.00	  425.99
      0.9700	   50.00	  545.42	-1727.00	  426.66
      1.0700	   42.00	  546.08	-1727.00	  427.32
      1.1700	   41.00	  546.73	-1727.00	  427.97
      1.2700	   54.00	  547.36	-1727.00	  428.61
      1.3700	   35.00	  547.99	-1727.00	  429.24
      1.4700	  104.00	  548.61	-1727.00	  429.86
      1.5700	  313.00	  549.22	-1727.00	  430.47
      1.6700	  459.00	  549.82	-1727.00	  431.07
      1.7700	  561.00	  550.41	-1727.00	  431.66
      1.8700	  639.00	  550.99	-1727.00	  432.24
      1.9700	  708.00	  551.56	-1727.00	  432.81
      2.0700	  734.00	  552.12	-1727.00	  433.37
      2.1700	  786.00	  552.67	-1727.00	  433.92
      2.2700	  784.00	  553.21	-1727.00	  434.46
      2.3700	  769.00	  553.74	-1727.00	  434.99
      2.4700	  755.00	  554.26	-1727.00	  435.51
      2.5700	  682.00	  554.77	-1727.00	  436.02
      2.6700	  662.00	  555.28	-1727.00	  436.52
      2.7700	  675.00	  555.77	-1727.00	  437.02
      2.8700	  651.00	  556.25	-1727.00	  437.50
      2.9700	  568.00	  556.73	-1727.00	  437.98
      3.0700	  567.00	  557.20	-1727.00	  438.44
      3.1700	  561.00	  557.65	-1727.00	  438.90
      3.2700	  616.00	  558.10	-1727.00	  439.35
      3.3700	  654.00	  558.54	-1727.00	  439.79
      3.4700	  739.00	  558.97	-1727.00	  440.22
      3.5700	  788.00	  559.40	-1727.00	  440.64
      3.6700	  891.00	  559.81	-1727.00	  441.06
      3.7700	  932.00	  560.21	-1727.00	  441.46
      3.8700	 1031.00	  560.61	-1727.00	  441.86
      3.9700	  976.00	  561.00	-1727.00	  442.25
      4.0700	 1095.00	  561.38	-1727.00	  442.63
      4.1700	 1022.00	  561.75	-1727.00	  443.00
      4.2700	 1097.00	  562.11	-1727.00	  443.36
      4.3700	 1058.00	  562.47	-1727.00	  443.72
      4.4700	 1054.00	  562.81	-1727.00	  444.06
      4.5700	 1075.00	  563.15	-1727.00	  444.40
      4.6700	  969.00	  563.48	-1727.00	  444.73
      4.7700	  986.00	  563.81	-1727.00	  445.06
      4.8700	  999.00	  564.12	-1727.00	  445.37
      4.9700	  946.00	  564.43	-1727.00	  445.68
      5.0700	  899.00	  564.73	-1727.00	  445.98
      5.1700	  891.00	  565.02	-1727.00	  446.27
      5.2700	  907.00	  565.30	-1727.00	  446.55
      5.3700	  903.00	  565.58	-1727.00	  446.83
      5.4700	  893.00	  565.85	-1727.00	  447.10
      5.5700	  873.00	  566.11	-1727.00	  447.36
      5.6700	  823.00	  566.37	-1727.00	  447.61
      5.7700	  848.00	  566.61	-1727.00	  447.86
      5.8700	  819.00	  566.85	-1727.00	  448.10
      5.9700	  785.00	  567.08	-1727.00	  448.33
      6.0700	  791.00	  567.31	-1727.00	  448.56
      6.1700	  747.00	  567.53	-1727.00	  448.78
      6.2700	  795.00	  567.74	-1727.00	  448.99
      6.3700	  750.00	  567.94	-1727.00	  449.19
      6.4700	  784.00	  568.14	-1727.00	  449.39
      6.5700	  722.00	  568.33	-1727.00	  449.58
      6.6700	  784.00	  568.51	-1727.00	  449.76
      6.7700	  730.00	  568.69	-1727.00	  449.94
      6.8700	  687.00	  568.86	-1727.00	  450.11
      6.9700	  720.00	  569.02	-1727.00	  450.27
      7.0700	  697.00	  569.18	-1727.00	  450.43
      7.1700	  701.00	  569.33	-1727.00	  450.58
      7.2700	  699.00	  569.48	-1727.00	  450.72
      7.3700	  650.00	  569.61	-1727.00	  450.86
      7.4700	  685.00	  569.74	-1727.00	  450.99
      7.5700	  739.00	  569.87	-1727.00	  451.12
      7.6700	  640.00	  569.99	-1727.00	  451.24
      7.7700	  628.00	  570.10	-1727.00	  451.35
      7.8700	  645.00	  570.21	-1727.00	  451.45
      7.9700	  726.00	  570.31	-1727.00	  451.55
      8.0700	  611.00	  570.40	-1727.00	  451.65
      8.1700	  648.00	  570.49	-1727.00	  451.74
      8.2700	  658.00	  570.57	-1727.00	  451.82
      8.3700	  631.00	  570.65	-1727.00	  451.90
      8.4700	  662.00	  570.72	-1727.00	  451.97
      8.5700	  638.00	  570.78	-1727.00	  452.03
      8.6700	  611.00	  570.84	-1727.00	  452.09
      8.7700	  642.00	  570.90	-1727.00	  452.14
      8.8700	  591.00	  570.94	-1727.00	  452.19
      8.9700	  663.00	  570.99	-1727.00	  452.23
      9.0700	  631.00	  571.02	-1727.00	  452.27
      9.1700	  657.00	  571.05	-1727.00	  452.30
      9.2700	  625.00	  571.08	-1727.00	  452.33
      9.3700	  597.00	  571.10	-1727.00	  452.35
      9.4700	  595.00	  571.12	-1727.00	  452.37
      9.5700	  629.00	  571.13	-1727.00	  452.38
      9.6700	  560.00	  571.13	-1727.00	  452.38
      9.7700	  599.00	  571.13	-1727.00	  452.38
      9.8700	  591.00	  571.13	-1727.00	  452.37
      9.9700	  631.00	  571.12	-1727.00	  452.36
     10.0700	  571.00	  572.10	-1728.10	  452.35
     10.1700	  571.00	  572.19	-1728.19	  452.33
     10.2700	  574.00	  572.30	-1725.30	  452.30
     10.3700	  614.00	  572.46	-1685.46	  452.27
     10.4700	  588.00	  572.68	-1711.68	  452.24
     10.5700	  579.00	  573.03	-1721.03	  452.20
     10.6700	  568.00	  573.60	-1732.60	  452.16
     10.7700	  560.00	  574.51	-1741.51	  452.11
     10.8700	  556.00	  575.81	-1746.81	  452.05
     10.9700	  608.00	  577.51	-1696.51	  452.00
     11.0700	  578.00	  579.59	-1728.59	  451.93
     11.1700	  550.00	  582.03	-1759.03	  451.87
     11.2700	  573.00	  584.89	-1738.89	  451.80
     11.3700	  604.00	  588.24	-1711.24	  451.72
     11.4700	  596.00	  592.23	-1723.23	  451.64
     11.5700	  560.00	  597.07	-1764.07	  451.56
     11.6700	  647.00	  603.15	-1683.15	  451.47
     11.7700	  596.00	  611.05	-1742.05	  451.38
     11.8700	  628.00	  621.58	-1720.58	  451.28
     11.9700	  693.00	  634.95	-1668.95	  451.18
     12.0700	  738.00	  649.22	-1638.22	  451.07
     12.1700	  720.00	  658.56	-1665.56	  450.96
     12.2700	  655.00	  654.44	-1726.44	  450.85
     12.3700	  610.00	  634.76	-1751.76	  450.73
     12.4700	  630.00	  610.84	-1707.84	  450.61
     12.5700	  630.00	  592.71	-1689.71	  450.49
     12.6700	  580.00	  582.12	-1729.12	  450.36
     12.7700	  582.00	  576.84	-1721.84	  450.23
     12.8700	  575.00	  574.27	-1726.27	  450.09
     12.9700	  559.00	  572.83	-1740.83	  449.96
     13.0700	  579.00	  571.87	-1719.87	  449.81
     13.1700	  539.00	  571.15	-1759.15	  449.67
     13.2700	  555.00	  570.57	-1742.57	  449.52
     13.3700	  574.00	  570.08	-1723.08	  449.36
     13.4700	  556.00	  569.66	-1740.66	  449.21
     13.5700	  518.00	  569.30	-1778.30	  449.05
     13.6700	  597.00	  568.96	-1698.96	  448.88
     13.7700	  554.00	  568.66	-1741.66	  448.72
     13.8700	  575.00	  568.37	-1720.37	  448.55
     13.9700	  530.00	  568.10	-1765.10	  448.37
     14.0700	  583.00	  567.84	-1711.84	  448.20
     14.1700	  557.00	  567.59	-1737.59	  448.02
     14.2700	  526.00	  567.35	-1768.35	  447.83
     14.3700	  558.00	  567.11	-1736.11	  447.65
     14.4700	  563.00	  566.87	-1730.87	  447.46
     14.5700	  612.00	  566.64	-1681.64	  447.27
     14.6700	  566.00	  566.41	-1727.41	  447.07
     14.7700	  541.00	  566.18	-1752.18	  446.88
     14.8700	  550.00	  565.95	-1742.95	  446.68
     14.9700	  548.00	  565.72	-1744.72	  446.47
     15.0700	  594.00	  565.49	-1698.49	  446.27
     15.1700	  529.00	  565.26	-1763.26	  446.06
     15.2700	  574.00	  565.03	-1718.03	  445.85
     15.3700	  552.00	  564.80	-1739.80	  445.63
     15.4700	  559.00	  564.57	-1732.57	  445.42
     15.5700	  592.00	  564.36	-1699.36	  445.20
     15.6700	  538.00	  564.13	-1753.13	  444.98
     15.7700	  561.00	  563.89	-1729.89	  444.75
     15.8700	  562.00	  563.65	-1728.65	  444.53
     15.9700	  551.00	  563.41	-1739.41	  444.30
     16.0700	  558.00	  563.17	-1732.17	  444.06
     16.1700	  558.00	  562.93	-1731.93	  443.83
     16.2700	  578.00	  562.69	-1711.69	  443.59
     16.3700	  529.00	  562.44	-1760.44	  443.36
     16.4700	  581.00	  562.19	-1708.19	  443.12
     16.5700	  582.00	  561.95	-1706.95	  442.87
     16.6700	  577.00	  561.70	-1711.70	  442.63
     16.7700	  507.00	  561.44	-1781.44	  442.38
     16.8700	  548.00	  561.19	-1740.19	  442.13
     16.9700	  544.00	  560.93	-1743.93	  441.88
     17.0700	  568.00	  560.68	-1719.68	  441.63
     17.1700	  571.00	  560.42	-1716.42	  441.37
     17.2700	  517.00	  560.16	-1770.16	  441.11
     17.3700	  582.00	  559.90	-1704.90	  440.85
     17.4700	  577.00	  559.63	-1709.63	  440.59
     17.5700	  576.00	  559.37	-1710.37	  440.33
     17.6700	  585.00	  559.10	-1701.10	  440.06
     17.7700	  563.00	  558.83	-1722.83	  439.80
     17.8700	  533.00	  558.56	-1752.56	  439.53
     17.9700	  555.00	  558.29	-1730.29	  439.26
     18.0700	  564.00	  558.12	-1721.12	  438.99
     18.1700	  572.00	  557.85	-1712.85	  438.71
     18.2700	  547.00	  557.58	-1737.58	  438.44
     18.3700	  530.00	  557.30	-1754.30	  438.16
     18.4700	  569.00	  557.03	-1715.03	  437.88
     18.5700	  581.00	  556.75	-1702.75	  437.60
     18.6700	  592.00	  556.47	-1691.47	  437.32
     18.7700	  561.00	  556.19	-1722.19	  437.04
     18.8700	  534.00	  555.99	-1748.99	  436.75
     18.9700	  545.00	  555.71	-1737.71	  436.47
     19.0700	  563.00	  555.43	-1719.43	  436.18
     19.1700	  569.00	  555.15	-1713.15	  435.89
     19.2700	  550.00	  554.86	-1731.86	  435.60
     19.3700	  592.00	  554.58	-1689.58	  435.31
     19.4700	  535.00	  554.29	-1746.29	  435.02
     19.5700	  517.00	  554.01	-1764.01	  434.73
     19.6700	  554.00	  553.72	-1726.72	  434.43
     19.7700	  510.00	  553.43	-1770.43	  434.14
     19.8700	  526.00	  553.15	-1754.15	  433.84
     19.9700	  523.00	  552.86	-1756.86	  433.54
     20.0700	  534.00	  552.57	-1745.57	  433.24
     20.1700	  519.00	  552.28	-1760.28	  432.94
     20.2700	  537.00	  551.99	-1741.99	  432.64
     20.3700	  567.00	  551.70	-1711.70	  432.34
     20.4700	  515.00	  551.41	-1763.41	  432.04
     20.5700	  554.00	  551.11	-1724.11	  431.73
     20.6700	  542.00	  550.86	-1735.86	  431.43
     20.7700	  533.00	  550.57	-1744.57	  431.12
     20.8700	  541.00	  550.27	-1736.27	  430.81
     20.9700	  575.00	  549.98	-1701.98	  430.51
     21.0700	  549.00	  549.69	-1727.69	  430.20
     21.1700	  511.00	  549.37	-1765.37	  429.89
     21.2700	  556.00	  549.08	-1720.08	  429.58
     21.3700	  538.00	  548.79	-1737.79	  429.27
     21.4700	  552.00	  548.51	-1723.51	  428.96
     21.5700	  577.00	  548.22	-1698.22	  428.65
     21.6700	  549.00	  547.93	-1725.93	  428.33
     21.7700	  534.00	  547.65	-1740.65	  428.02
     21.8700	  550.00	  547.37	-1724.37	  427.71
     21.9700	  546.00	  547.09	-1728.09	  427.39
     22.0700	  570.00	  546.81	-1703.81	  427.08
     22.1700	  595.00	  546.54	-1678.54	  426.76
     22.2700	  587.00	  546.27	-1686.27	  426.45
     22.3700	  511.00	  546.00	-1762.00	  426.13
     22.4700	  564.00	  545.74	-1708.74	  425.82
     22.5700	  517.00	  545.48	-1755.48	  425.50
     22.6700	  526.00	  545.23	-1746.23	  425.18
     22.7700	  542.00	  544.99	-1729.99	  424.86
     22.8700	  568.00	  544.76	-1703.76	  424.55
     22.9700	  558.00	  544.54	-1713.54	  424.23
     23.0700	  569.00	  544.33	-1702.33	  423.91
     23.1700	  561.00	  544.14	-1710.14	  423.59
     23.2700	  537.00	  543.98	-1733.98	  423.27
     23.3700	  517.00	  543.84	-1753.84	  422.95
     23.4700	  507.00	  543.89	-1763.89	  422.63
     23.5700	  554.00	  543.85	-1716.85	  422.31
     23.6700	  576.00	  543.89	-1694.89	  422.00
     23.7700	  546.00	  544.06	-1725.06	  421.68
     23.8700	  516.00	  544.48	-1755.48	  421.36
     23.9700	  576.00	  545.35	-1696.35	  421.04
     24.0700	  531.00	  547.09	-1743.09	  420.72
     24.1700	  554.00	  550.27	-1723.27	  420.40
     24.2700	  565.00	  555.64	-1717.64	  420.08
     24.3700	  574.00	  564.00	-1717.00	  419.76
     24.4700	  597.00	  576.01	-1706.01	  419.44
     24.5700	  617.00	  591.39	-1701.39	  419.12
     24.6700	  620.00	  607.32	-1714.32	  418.80
     24.7700	  607.00	  617.37	-1737.37	  418.48
     24.8700	  592.00	  613.58	-1748.58	  418.16
     24.9700	  557.00	  595.90	-1765.90	  417.84
     25.0700	  606.00	  575.05	-1696.05	  417.52
     25.1700	  539.00	  559.10	-1747.10	  417.20
     25.2700	  574.00	  549.53	-1702.53	  416.88
     25.3700	  585.00	  544.63	-1686.63	  416.57
     25.4700	  543.00	  542.21	-1726.21	  416.25
     25.5700	  574.00	  540.90	-1693.90	  415.93
     25.6700	  561.00	  540.05	-1706.05	  415.61
     25.7700	  552.00	  539.44	-1714.44	  415.29
     25.8700	  557.00	  538.98	-1708.98	  414.98
     25.9700	  553.00	  538.64	-1712.64	  414.66
     26.0700	  584.00	  538.39	-1681.39	  414.35
     26.1700	  511.00	  538.23	-1754.23	  414.03
     26.2700	  542.00	  538.15	-1723.15	  413.71
     26.3700	  562.00	  538.14	-1703.14	  413.40
     26.4700	  553.00	  538.23	-1712.23	  413.09
     26.5700	  562.00	  538.42	-1703.42	  412.77
     26.6700	  497.00	  538.72	-1768.72	  412.46
     26.7700	  563.00	  539.18	-1703.18	  412.15
     26.8700	  529.00	  539.81	-1737.81	  411.83
     26.9700	  543.00	  540.67	-1724.67	  411.52
     27.0700	  518.00	  541.85	-1750.85	  411.21
     27.1700	  552.00	  543.47	-1718.47	  410.90
     27.2700	  530.00	  545.82	-1742.82	  410.59
     27.3700	  557.00	  549.40	-1719.40	  410.28
     27.4700	  528.00	  555.25	-1754.25	  409.97
     27.5700	  565.00	  565.24	-1727.24	  409.66
     27.6700	  522.00	  582.29	-1787.29	  409.36
     27.7700	  550.00	  610.23	-1787.23	  409.05
     27.8700	  611.00	  652.35	-1768.35	  408.74
     27.9700	  684.00	  708.83	-1751.83	  408.44
     28.0700	  782.00	  773.14	-1718.14	  408.13
     28.1700	  904.00	  828.99	-1651.99	  407.83
     28.2700	  924.00	  851.94	-1654.94	  407.53
     28.3700	  960.00	  827.79	-1594.79	  407.22
     28.4700	  796.00	  779.68	-1710.68	  406.92
     28.5700	  713.00	  745.08	-1759.08	  406.62
     28.6700	  725.00	  740.78	-1742.78	  406.32
     28.7700	  726.00	  761.83	-1762.83	  406.02
     28.8700	  797.00	  788.04	-1718.04	  405.72
     28.9700	  806.00	  791.51	-1712.51	  405.43
     29.0700	  777.00	  754.94	-1704.94	  405.13
     29.1700	  698.00	  693.69	-1722.69	  404.83
     29.2700	  616.00	  635.39	-1746.39	  404.54
     29.3700	  645.00	  593.19	-1675.19	  404.25
     29.4700	  569.00	  567.51	-1725.51	  403.95
     29.5700	  571.00	  553.49	-1709.49	  403.66
     29.6700	  604.00	  546.02	-1669.02	  403.37
     29.7700	  569.00	  541.77	-1699.77	  403.08
     29.8700	  528.00	  539.12	-1738.12	  402.79
     29.9700	  613.00	  537.43	-1651.43	  402.50
     30.0700	  557.00	  536.55	-1706.55	  402.22
     30.1700	  545.00	  536.63	-1718.63	  401.93
     30.2700	  523.00	  538.16	-1742.16	  401.65
     30.3700	  575.00	  542.09	-1694.09	  401.36
     30.4700	  563.00	  549.82	-1713.82	  401.08
     30.5700	  529.00	  562.77	-1760.77	  400.80
     30.6700	  576.00	  581.18	-1732.18	  400.52
     30.7700	  607.00	  602.59	-1722.59	  400.24
     30.8700	  631.00	  620.90	-1716.90	  399.96
     30.9700	  548.00	  626.94	-1805.94	  399.68
     31.0700	  581.00	  614.75	-1760.75	  399.41
     31.1700	  566.00	  590.67	-1751.67	  399.13
     31.2700	  557.00	  566.53	-1736.53	  398.86
     31.3700	  590.00	  548.55	-1685.55	  398.59
     31.4700	  552.00	  537.42	-1712.42	  398.32
     31.5700	  551.00	  531.33	-1707.33	  398.05
     31.6700	  554.00	  528.14	-1701.14	  397.78
     31.7700	  550.00	  526.37	-1703.37	  397.51
     31.8700	  550.00	  525.27	-1702.27	  397.24
     31.9700	  552.00	  524.52	-1699.52	  396.98
     32.0700	  519.00	  524.02	-1732.02	  396.72
     32.1700	  538.00	  523.70	-1712.70	  396.45
     32.2700	  551.00	  523.54	-1699.54	  396.19
     32.3700	  539.00	  523.55	-1711.55	  395.93
     32.4700	  546.00	  523.72	-1704.72	  395.67
     32.5700	  541.00	  524.09	-1710.09	  395.42
     32.6700	  540.00	  524.67	-1711.67	  395.16
     32.7700	  532.00	  525.53	-1720.53	  394.91
     32.8700	  550.00	  526.74	-1703.74	  394.65
     32.9700	  544.00	  528.44	-1711.44	  394.40
     33.0700	  530.00	  530.89	-1727.89	  394.15
     33.1700	  563.00	  534.62	-1698.62	  393.90
     33.2700	  518.00	  540.83	-1749.83	  393.65
     33.3700	  590.00	  552.00	-1689.00	  393.41
     33.4700	  556.00	  572.69	-1743.69	  393.16
     33.5700	  617.00	  609.79	-1719.79	  392.92
     33.6700	  608.00	  670.66	-1789.66	  392.68
     33.7700	  734.00	  757.63	-1750.63	  392.44
     33.8700	  935.00	  860.32	-1652.32	  392.20
     33.9700	  984.00	  951.05	-1694.05	  391.96
     34.0700	 1108.00	  988.64	-1607.64	  391.72
     34.1700	  998.00	  944.36	-1673.36	  391.49
     34.2700	  914.00	  841.14	-1654.14	  391.25
     34.3700	  681.00	  730.70	-1776.70	  391.02
     34.4700	  642.00	  644.30	-1729.30	  390.79
     34.5700	  586.00	  588.69	-1729.69	  390.56
     34.6700	  583.00	  557.57	-1701.57	  390.33
     34.7700	  517.00	  541.38	-1751.39	  390.11
     34.8700	  571.00	  532.73	-1688.73	  389.88
     34.9700	  543.00	  527.54	-1711.54	  389.66
     35.0700	  555.00	  523.98	-1695.98	  389.44
     35.1700	  541.00	  521.31	-1707.31	  389.22
     35.2700	  545.00	  519.20	-1701.20	  389.00
     35.3700	  503.00	  517.49	-1741.49	  388.78
     35.4700	  545.00	  516.08	-1698.08	  388.57
     35.5700	  513.00	  514.90	-1728.90	  388.36
     35.6700	  547.00	  513.89	-1693.89	  388.14
     35.7700	  517.00	  513.01	-1723.01	  387.93
     35.8700	  501.00	  512.24	-1738.24	  387.72
     35.9700	  517.00	  511.57	-1721.57	  387.52
     36.0700	  504.00	  511.43	-1734.43	  387.31
     36.1700	  510.00	  510.90	-1727.90	  387.11
     36.2700	  536.00	  510.42	-1701.42	  386.90
     36.3700	  496.00	  509.99	-1740.99	  386.70
     36.4700	  503.00	  509.60	-1733.60	  386.50
     36.5700	  478.00	  509.26	-1758.26	  386.30
     36.6700	  536.00	  508.97	-1699.97	  386.11
     36.7700	  513.00	  508.73	-1722.73	  385.91
     36.8700	  548.00	  508.58	-1687.58	  385.72
     36.9700	  547.00	  508.58	-1688.58	  385.53
     37.0700	  506.00	  508.87	-1729.87	  385.34
     37.1700	  538.00	  509.69	-1698.69	  385.15
     37.2700	  497.00	  511.33	-1741.33	  384.96
     37.3700	  450.00	  514.04	-1791.04	  384.78
     37.4700	  521.00	  517.64	-1723.64	  384.60
     37.5700	  541.00	  521.39	-1707.39	  384.41
     37.6700	  500.00	  523.91	-1750.91	  384.23
     37.7700	  492.00	  523.80	-1758.80	  384.06
     37.8700	  527.00	  521.03	-1721.03	  383.88
     37.9700	  511.00	  517.08	-1733.08	  383.70
     38.0700	  508.00	  513.29	-1732.29	  383.53
     38.1700	  520.00	  510.21	-1717.21	  383.36
     38.2700	  527.00	  507.96	-1707.96	  383.19
     38.3700	  455.00	  506.43	-1778.43	  383.02
     38.4700	  511.00	  505.42	-1721.42	  382.86
     38.5700	  485.00	  504.66	-1746.66	  382.69
     38.6700	  507.00	  504.20	-1724.20	  382.53
     38.7700	  480.00	  503.86	-1750.86	  382.37
     38.8700	  469.00	  503.58	-1761.58	  382.21
     38.9700	  504.00	  503.35	-1726.35	  382.05
     39.0700	  488.00	  503.28	-1742.28	  381.89
     39.1700	  539.00	  503.09	-1691.09	  381.74
     39.2700	  501.00	  502.83	-1728.83	  381.58
     39.3700	  526.00	  502.67	-1703.67	  381.43
     39.4700	  538.00	  502.51	-1691.51	  381.28
     39.5700	  508.00	  502.37	-1721.37	  381.14
     39.6700	  555.00	  502.24	-1674.24	  380.99
     39.7700	  496.00	  502.12	-1733.12	  380.85
     39.8700	  479.00	  502.00	-1750.00	  380.70
     39.9700	  548.00	  501.90	-1680.90	  380.56
     40.0700	  526.00	  501.81	-1702.81	  380.42
     40.1700	  511.00	  501.72	-1717.72	  380.28
     40.2700	  476.00	  501.65	-1752.65	  380.15
     40.3700	  496.00	  501.59	-1732.59	  380.02
     40.4700	  476.00	  501.54	-1752.54	  379.88
     40.5700	  518.00	  501.51	-1710.51	  379.75
     40.6700	  487.00	  501.49	-1741.49	  379.62
     40.7700	  500.00	  501.50	-1728.50	  379.50
     40.8700	  469.00	  501.53	-1759.53	  379.37
     40.9700	  496.00	  501.58	-1732.58	  379.25
     41.0700	  460.00	  501.67	-1768.67	  379.12
     41.1700	  499.00	  501.81	-1729.81	  379.00
     41.2700	  496.00	  501.99	-1732.99	  378.89
     41.3700	  509.00	  502.65	-1720.65	  378.77
     41.4700	  500.00	  503.00	-1730.00	  378.65
     41.5700	  519.00	  503.46	-1711.46	  378.54
     41.6700	  520.00	  504.12	-1711.12	  378.43
     41.7700	  503.00	  505.11	-1729.11	  378.32
     41.8700	  522.00	  506.76	-1711.76	  378.21
     41.9700	  506.00	  509.75	-1730.75	  378.10
     42.0700	  509.00	  515.29	-1733.29	  378.00
     42.1700	  493.00	  525.19	-1759.19	  377.90
     42.2700	  519.00	  541.30	-1749.30	  377.80
     42.3700	  516.00	  564.45	-1775.45	  377.70
     42.4700	  595.00	  592.42	-1724.42	  377.60
     42.5700	  577.00	  619.05	-1769.05	  377.50
     42.6700	  577.00	  634.64	-1784.64	  377.41
     42.7700	  598.00	  631.04	-1760.04	  377.31
     42.8700	  570.00	  609.48	-1766.48	  377.22
     42.9700	  505.00	  580.41	-1802.41	  377.13
     43.0700	  524.00	  553.33	-1756.33	  377.05
     43.1700	  516.00	  532.80	-1743.80	  376.96
     43.2700	  529.00	  519.45	-1717.45	  376.88
     43.3700	  498.00	  511.73	-1740.73	  376.79
     43.4700	  537.00	  507.57	-1697.57	  376.71
     43.5700	  517.00	  505.37	-1715.37	  376.63
     43.6700	  497.00	  504.27	-1734.27	  376.56
     43.7700	  478.00	  503.42	-1752.42	  376.48
     43.8700	  505.00	  502.82	-1724.82	  376.41
     43.9700	  549.00	  502.37	-1680.37	  376.34
     44.0700	  469.00	  502.02	-1760.02	  376.27
     44.1700	  521.00	  501.76	-1707.76	  376.20
     44.2700	  531.00	  501.55	-1697.55	  376.13
     44.3700	  474.00	  501.40	-1754.40	  376.06
     44.4700	  505.00	  501.29	-1723.29	  376.00
     44.5700	  503.00	  501.22	-1725.22	  375.94
     44.6700	  477.00	  501.18	-1751.18	  375.88
     44.7700	  506.00	  501.16	-1722.16	  375.82
     44.8700	  526.00	  501.04	-1702.04	  375.76
     44.9700	  493.00	  501.08	-1735.08	  375.71
     45.0700	  499.00	  501.32	-1729.32	  375.65
     45.1700	  489.00	  501.41	-1739.41	  375.60
     45.2700	  524.00	  501.52	-1704.52	  375.55
     45.3700	  493.00	  501.66	-1735.66	  375.50
     45.4700	  517.00	  501.81	-1711.81	  375.45
     45.5700	  514.00	  501.99	-1714.99	  375.41
     45.6700	  489.00	  502.20	-1740.20	  375.36
     45.7700	  504.00	  502.43	-1725.43	  375.32
     45.8700	  516.00	  502.70	-1713.70	  375.28
     45.9700	  476.00	  503.00	-1754.00	  375.24
     46.0700	  513.00	  503.33	-1717.33	  375.21
     46.1700	  474.00	  503.71	-1756.71	  375.17
     46.2700	  516.00	  504.14	-1715.14	  375.14
     46.3700	  540.00	  504.62	-1691.62	  375.10
     46.4700	  504.00	  505.17	-1728.17	  375.07
     46.5700	  498.00	  505.80	-1734.80	  375.04
     46.6700	  545.00	  506.53	-1688.53	  375.02
     46.7700	  495.00	  507.40	-1739.40	  374.99
     46.8700	  517.00	  508.48	-1718.48	  374.97
     46.9700	  496.00	  510.03	-1741.03	  374.94
     47.0700	  488.00	  512.20	-1751.20	  374.92
     47.1700	  507.00	  515.70	-1735.70	  374.90
     47.2700	  530.00	  521.47	-1718.47	  374.88
     47.3700	  523.00	  530.67	-1734.67	  374.87
     47.4700	  516.00	  544.20	-1755.20	  374.85
     47.5700	  591.00	  561.96	-1697.96	  374.84
     47.6700	  564.00	  582.00	-1745.00	  374.83
     47.7700	  594.00	  599.91	-1732.91	  374.82
     47.8700	  590.00	  609.84	-1746.84	  374.81
     47.9700	  589.00	  607.65	-1745.65	  374.80
     48.0700	  608.00	  595.08	-1714.08	  374.80
     48.1700	  560.00	  578.13	-1745.13	  374.79
     48.2700	  525.00	  562.30	-1764.30	  374.79
     48.3700	  546.00	  550.54	-1731.54	  374.79
     48.4700	  524.00	  543.68	-1746.68	  374.79
     48.5700	  506.00	  541.17	-1762.17	  374.79
     48.6700	  535.00	  541.98	-1733.98	  374.79
     48.7700	  550.00	  545.21	-1722.21	  374.80
     48.8700	  506.00	  550.40	-1771.40	  374.81
     48.9700	  547.00	  557.59	-1737.59	  374.81
     49.0700	  533.00	  567.41	-1761.41	  374.82
     49.1700	  555.00	  581.50	-1753.50	  374.83
     49.2700	  576.00	  603.67	-1754.67	  374.85
     49.3700	  665.00	  639.87	-1701.87	  374.86
     49.4700	  677.00	  701.63	-1751.63	  374.88
     49.5700	  744.00	  804.93	-1787.93	  374.89
     49.6700	  908.00	  967.88	-1786.88	  374.91
     49.7700	 1139.00	 1203.76	-1791.76	  374.93
     49.8700	 1515.00	 1510.11	-1722.11	  374.95
     49.9700	 1870.00	 1857.14	-1714.14	  374.97
     50.0700	 2237.00	 2178.92	-1668.92	  375.00
     50.1700	 2440.00	 2378.99	-1665.99	  375.02
     50.2700	 2494.00	 2374.17	-1607.17	  375.05
     50.3700	 2237.00	 2164.75	-1654.75	  375.08
     50.4700	 1745.00	 1838.11	-1820.11	  375.11
     50.5700	 1412.00	 1493.91	-1808.91	  375.14
     50.6700	 1053.00	 1196.92	-1870.92	  375.17
     50.7700	  829.00	  974.39	-1872.39	  375.21
     50.8700	  724.00	  826.37	-1829.37	  375.24
     50.9700	  727.00	  737.03	-1737.03	  375.28
     51.0700	  671.00	  685.43	-1741.43	  375.31
     51.1700	  658.00	  653.20	-1722.20	  375.35
     51.2700	  557.00	  628.75	-1798.75	  375.39
     51.3700	  609.00	  607.64	-1725.64	  375.44
     51.4700	  591.00	  589.39	-1725.39	  375.48
     51.5700	  539.00	  574.45	-1762.45	  375.52
     51.6700	  563.00	  563.06	-1727.06	  375.57
     51.7700	  556.00	  554.94	-1725.94	  375.62
     51.8700	  545.00	  549.52	-1731.52	  375.66
     51.9700	  555.00	  546.36	-1718.36	  375.71
     52.0700	  543.00	  544.43	-1728.43	  375.76
     52.1700	  511.00	  543.67	-1759.67	  375.82
     52.2700	  544.00	  543.95	-1726.95	  375.87
     52.3700	  612.00	  545.46	-1660.46	  375.92
     52.4700	  569.00	  548.76	-1706.76	  375.98
     52.5700	  639.00	  555.13	-1643.13	  376.04
     52.6700	  586.00	  567.10	-1708.10	  376.10
     52.7700	  600.00	  588.91	-1715.91	  376.16
     52.8700	  677.00	  626.57	-1676.57	  376.22
     52.9700	  666.00	  686.74	-1747.74	  376.28
     53.0700	  814.00	  774.06	-1687.06	  376.34
     53.1700	  986.00	  887.23	-1628.23	  376.41
     53.2700	 1069.00	 1014.98	-1672.98	  376.47
     53.3700	 1201.00	 1133.74	-1659.74	  376.54
     53.4700	 1219.00	 1209.97	-1717.97	  376.61
     53.5700	 1161.00	 1214.26	-1780.26	  376.67
     53.6700	 1053.00	 1144.24	-1818.24	  376.74
     53.7700	  976.00	 1027.65	-1778.65	  376.82
     53.8700	  844.00	  899.36	-1782.36	  376.89
     53.9700	  744.00	  784.30	-1767.30	  376.96
     54.0700	  706.00	  694.79	-1715.79	  377.04
     54.1700	  653.00	  632.80	-1706.80	  377.11
     54.2700	  609.00	  594.00	-1712.00	  377.19
     54.3700	  553.00	  571.66	-1745.66	  377.27
     54.4700	  576.00	  559.59	-1710.59	  377.35
     54.5700	  549.00	  553.36	-1731.36	  377.43
     54.6700	  551.00	  550.30	-1726.30	  377.51
     54.7700	  567.00	  549.04	-1709.04	  377.59
     54.8700	  553.00	  548.93	-1722.93	  377.67
     54.9700	  568.00	  549.73	-1708.73	  377.76
     55.0700	  568.00	  551.33	-1710.33	  377.84
     55.1700	  568.00	  553.74	-1712.74	  377.93
     55.2700	  575.00	  557.04	-1709.04	  378.02
     55.3700	  587.00	  561.35	-1701.35	  378.10
     55.4700	  524.00	  566.90	-1769.90	  378.19
     55.5700	  586.00	  574.15	-1715.15	  378.28
     55.6700	  575.00	  584.00	-1736.00	  378.37
     55.7700	  603.00	  598.29	-1722.29	  378.47
     55.8700	  605.00	  620.59	-1742.59	  378.56
     55.9700	  633.00	  657.38	-1751.38	  378.65
     56.0700	  632.00	  719.14	-1814.14	  378.75
     56.1700	  775.00	  820.47	-1772.47	  378.85
     56.2700	  906.00	  978.09	-1799.09	  378.94
     56.3700	 1135.00	 1205.51	-1797.51	  379.04
     56.4700	 1404.00	 1505.07	-1828.07	  379.14
     56.5700	 1732.00	 1859.13	-1854.13	  379.24
     56.6700	 2212.00	 2222.90	-1737.90	  379.34
     56.7700	 2448.00	 2523.02	-1802.02	  379.44
     56.8700	 2601.00	 2671.89	-1797.89	  379.54
     56.9700	 2524.00	 2614.03	-1817.03	  379.64
     57.0700	 2371.00	 2371.71	-1727.71	  379.75
     57.1700	 2151.00	 2026.55	-1602.55	  379.85
     57.2700	 1646.00	 1662.76	-1743.76	  379.96
     57.3700	 1295.00	 1338.34	-1770.34	  380.07
     57.4700	 1048.00	 1082.11	-1761.11	  380.17
     57.5700	  856.00	  899.56	-1770.56	  380.28
     57.6700	  797.00	  781.36	-1711.36	  380.39
     57.7700	  685.00	  712.02	-1754.02	  380.50
     57.8700	  738.00	  676.85	-1665.85	  380.61
     57.9700	  706.00	  665.33	-1686.33	  380.72
     58.0700	  661.00	  671.79	-1737.79	  380.83
     58.1700	  761.00	  694.20	-1660.20	  380.94
     58.2700	  779.00	  732.45	-1680.45	  381.06
     58.3700	  832.00	  786.57	-1681.57	  381.17
     58.4700	  843.00	  855.09	-1739.09	  381.28
     58.5700	 1063.00	  933.61	-1597.61	  381.40
     58.6700	 1196.00	 1014.35	-1545.35	  381.52
     58.7700	 1235.00	 1088.48	-1580.48	  381.63
     58.8700	 1290.00	 1150.11	-1587.11	  381.75
     58.9700	 1462.00	 1196.00	-1461.00	  381.87
     59.0700	 1534.00	 1221.63	-1414.63	  381.99
     59.1700	 1387.00	 1223.07	-1563.07	  382.11
     59.2700	 1346.00	 1204.00	-1585.00	  382.23
     59.3700	 1340.00	 1175.85	-1562.85	  382.35
     59.4700	 1249.00	 1150.16	-1628.16	  382.47
     59.5700	 1220.00	 1135.08	-1642.08	  382.59
     59.6700	 1178.00	 1138.31	-1687.31	  382.71
     59.7700	 1188.00	 1168.63	-1707.63	  382.83
     59.8700	 1269.00	 1230.83	-1688.83	  382.96
     59.9700	 1366.00	 1319.87	-1680.87	  383.08
     60.0700	 1489.00	 1418.31	-1656.31	  383.20
     60.1700	 1523.00	 1497.15	-1701.15	  383.33
     60.2700	 1584.00	 1523.53	-1666.53	  383.45
     60.3700	 1495.00	 1478.11	-1710.11	  383.58
     60.4700	 1414.00	 1369.15	-1682.15	  383.71
     60.5700	 1274.00	 1224.50	-1677.50	  383.83
     60.6700	 1043.00	 1073.33	-1757.33	  383.96
     60.7700	  980.00	  936.60	-1683.60	  384.09
     60.8700	  754.00	  826.03	-1799.03	  384.22
     60.9700	  693.00	  745.56	-1779.56	  384.35
     61.0700	  706.00	  693.99	-1714.99	  384.48
     61.1700	  678.00	  668.01	-1717.01	  384.60
     61.2700	  657.00	  664.92	-1734.92	  384.73
     61.3700	  679.00	  684.13	-1732.13	  384.87
     61.4700	  700.00	  727.32	-1754.32	  385.00
     61.5700	  759.00	  797.24	-1765.24	  385.13
     61.6700	  884.00	  895.27	-1738.27	  385.26
     61.7700	 1031.00	 1018.65	-1714.65	  385.39
     61.8700	 1032.00	 1158.03	-1853.03	  385.52
     61.9700	 1201.00	 1295.75	-1821.75	  385.66
     62.0700	 1355.00	 1406.04	-1778.04	  385.79
     62.1700	 1329.00	 1460.21	-1858.21	  385.92
     62.2700	 1357.00	 1440.42	-1810.42	  386.06
     62.3700	 1229.00	 1352.70	-1850.70	  386.19
     62.4700	 1211.00	 1222.36	-1738.36	  386.32
     62.5700	 1024.00	 1077.91	-1780.91	  386.46
     62.6700	  837.00	  941.22	-1831.22	  386.59
     62.7700	  767.00	  825.44	-1785.44	  386.73
     62.8700	  748.00	  735.86	-1714.86	  386.86
     62.9700	  657.00	  671.88	-1741.88	  387.00
     63.0700	  638.00	  629.30	-1718.30	  387.13
     63.1700	  656.00	  602.70	-1673.70	  387.27
     63.2700	  552.00	  587.09	-1762.09	  387.41
     63.3700	  586.00	  578.78	-1719.78	  387.54
     63.4700	  637.00	  575.61	-1665.61	  387.68
     63.5700	  580.00	  576.83	-1723.83	  387.81
     63.6700	  629.00	  582.90	-1680.90	  387.95
     63.7700	  567.00	  595.20	-1755.20	  388.09
     63.8700	  646.00	  615.67	-1696.67	  388.23
     63.9700	  670.00	  646.28	-1703.28	  388.36
     64.0700	  718.00	  688.26	-1697.26	  388.50
     64.1700	  751.00	  741.23	-1717.23	  388.64
     64.2700	  865.00	  802.28	-1664.28	  388.77
     64.3700	  971.00	  865.48	-1621.48	  388.91
     64.4700	  999.00	  921.33	-1649.33	  389.05
     64.5700	  999.00	  960.21	-1688.21	  389.19
     64.6700	 1012.00	  973.75	-1688.75	  389.33
     64.7700	  991.00	  960.27	-1696.27	  389.46
     64.8700	  992.00	  924.50	-1659.50	  389.60
     64.9700	  933.00	  874.78	-1668.78	  389.74
     65.0700	  833.00	  820.22	-1714.22	  389.88
     65.1700	  759.00	  768.14	-1736.14	  390.01
     65.2700	  704.00	  722.61	-1745.61	  390.15
     65.3700	  630.00	  684.69	-1781.69	  390.29
     65.4700	  644.00	  653.83	-1736.83	  390.43
     65.5700	  659.00	  629.06	-1697.06	  390.57
     65.6700	  616.00	  609.60	-1720.60	  390.70
     65.7700	  592.00	  594.73	-1729.73	  390.84
     65.8700	  564.00	  583.79	-1746.79	  390.98
     65.9700	  570.00	  576.19	-1733.19	  391.12
     66.0700	  531.00	  571.42	-1767.42	  391.25
     66.1700	  553.00	  568.99	-1742.99	  391.39
     66.2700	  544.00	  568.64	-1751.64	  391.53
     66.3700	  567.00	  569.81	-1729.81	  391.66
     66.4700	  532.00	  572.49	-1767.49	  391.80
     66.5700	  512.00	  576.77	-1791.77	  391.94
     66.6700	  572.00	  583.08	-1738.08	  392.07
     66.7700	  568.00	  592.45	-1751.45	  392.21
     66.8700	  565.00	  606.79	-1768.79	  392.35
     66.9700	  606.00	  629.32	-1750.32	  392.48
     67.0700	  638.00	  665.02	-1754.02	  392.62
     67.1700	  729.00	  720.79	-1718.79	  392.75
     67.2700	  787.00	  805.07	-1745.07	  392.89
     67.3700	  915.00	  926.74	-1738.74	  393.02
     67.4700	 1099.00	 1092.29	-1720.29	  393.16
     67.5700	 1290.00	 1303.46	-1740.46	  393.29
     67.6700	 1643.00	 1553.50	-1637.50	  393.43
     67.7700	 1745.00	 1824.79	-1806.79	  393.56
     67.8700	 2110.00	 2087.70	-1704.70	  393.70
     67.9700	 2317.00	 2301.49	-1711.49	  393.83
     68.0700	 2436.00	 2421.16	-1712.16	  393.96
     68.1700	 2449.00	 2416.02	-1694.02	  394.10
     68.2700	 2244.00	 2287.38	-1770.38	  394.23
     68.3700	 2064.00	 2068.19	-1731.19	  394.36
     68.4700	 1822.00	 1803.56	-1708.56	  394.49
     68.5700	 1603.00	 1533.37	-1657.37	  394.62
     68.6700	 1316.00	 1286.41	-1697.41	  394.76
     68.7700	 1023.00	 1079.33	-1783.33	  394.89
     68.8700	  867.00	  917.99	-1777.99	  395.02
     68.9700	  799.00	  800.28	-1728.28	  395.15
     69.0700	  784.00	  719.17	-1662.17	  395.28
     69.1700	  698.00	  665.86	-1694.86	  395.41
     69.2700	  605.00	  631.98	-1753.98	  395.53
     69.3700	  582.00	  610.77	-1755.77	  395.66
     69.4700	  583.00	  597.40	-1741.40	  395.79
     69.5700	  612.00	  588.74	-1703.74	  395.92
     69.6700	  535.00	  582.93	-1774.93	  396.04
     69.7700	  613.00	  578.92	-1692.92	  396.17
     69.8700	  561.00	  576.15	-1742.15	  396.30
     69.9700	  571.00	  574.35	-1730.35	  396.42
     70.0700	  545.00	  573.35	-1755.35	  396.55
     70.1700	  552.00	  573.12	-1748.12	  396.67
     70.2700	  624.00	  573.68	-1676.68	  396.80
     70.3700	  573.00	  575.18	-1729.18	  396.92
     70.4700	  568.00	  577.88	-1736.88	  397.04
     70.5700	  535.00	  582.33	-1774.33	  397.16
     70.6700	  549.00	  589.50	-1767.50	  397.29
     70.7700	  631.00	  601.05	-1697.05	  397.41
     70.8700	  625.00	  619.47	-1721.47	  397.53
     70.9700	  648.00	  648.39	-1727.39	  397.65
     71.0700	  652.00	  692.56	-1767.56	  397.77
     71.1700	  769.00	  757.38	-1715.38	  397.89
     71.2700	  819.00	  848.07	-1756.07	  398.00
     71.3700	  996.00	  968.25	-1699.25	  398.12
     71.4700	 1113.00	 1118.06	-1732.06	  398.24
     71.5700	 1239.00	 1293.49	-1781.49	  398.35
     71.6700	 1434.00	 1481.69	-1774.69	  398.47
     71.7700	 1663.00	 1665.29	-1729.29	  398.58
     71.8700	 1769.00	 1819.94	-1777.94	  398.70
     71.9700	 1847.00	 1918.25	-1798.25	  398.81
     72.0700	 1873.00	 1938.64	-1792.64	  398.92
     72.1700	 1919.00	 1876.13	-1684.13	  399.04
     72.2700	 1725.00	 1745.51	-1747.51	  399.15
     72.3700	 1637.00	 1572.73	-1662.73	  399.26
     72.4700	 1452.00	 1384.33	-1659.33	  399.37
     72.5700	 1328.00	 1201.11	-1600.11	  399.48
     72.6700	 1088.00	 1038.37	-1677.37	  399.59
     72.7700	  981.00	  903.40	-1649.40	  399.69
     72.8700	  843.00	  798.12	-1682.12	  399.80
     72.9700	  775.00	  720.40	-1672.40	  399.91
     73.0700	  754.00	  665.64	-1638.64	  400.01
     73.1700	  728.00	  628.48	-1627.48	  400.12
     73.2700	  632.00	  603.89	-1698.89	  400.22
     73.3700	  653.00	  587.76	-1661.76	  400.32
     73.4700	  615.00	  577.11	-1689.11	  400.42
     73.5700	  620.00	  569.92	-1676.92	  400.53
     73.6700	  587.00	  564.95	-1704.95	  400.63
     73.7700	  643.00	  561.48	-1645.48	  400.73
     73.8700	  569.00	  559.09	-1717.09	  400.82
     73.9700	  551.00	  557.52	-1733.52	  400.92
     74.0700	  563.00	  556.62	-1720.62	  401.02
     74.1700	  594.00	  556.23	-1689.23	  401.11
     74.2700	  599.00	  556.19	-1684.19	  401.21
     74.3700	  625.00	  556.30	-1658.30	  401.30
     74.4700	  639.00	  556.34	-1644.34	  401.40
     74.5700	  646.00	  556.11	-1637.11	  401.49
     74.6700	  571.00	  555.45	-1711.45	  401.58
     74.7700	  615.00	  554.34	-1666.34	  401.67
     74.8700	  617.00	  552.93	-1662.93	  401.76
     74.9700	  631.00	  551.44	-1647.44	  401.85
     75.0700	  570.00	  550.15	-1707.15	  401.94
     75.1700	  609.00	  549.29	-1667.29	  402.02
     75.2700	  598.00	  549.29	-1678.29	  402.11
     75.3700	  594.00	  550.48	-1683.48	  402.19
     75.4700	  569.00	  553.29	-1711.29	  402.28
     75.5700	  549.00	  558.12	-1736.12	  402.36
     75.6700	  568.00	  565.61	-1724.61	  402.44
     75.7700	  577.00	  576.20	-1726.20	  402.52
     75.8700	  576.00	  590.07	-1741.07	  402.60
     75.9700	  636.00	  607.11	-1698.11	  402.68
     76.0700	  619.00	  626.75	-1734.75	  402.76
     76.1700	  624.00	  647.82	-1750.82	  402.83
     76.2700	  665.00	  668.52	-1730.52	  402.91
     76.3700	  669.00	  686.52	-1744.52	  402.98
     76.4700	  685.00	  699.18	-1741.18	  403.06
     76.5700	  730.00	  704.17	-1701.17	  403.13
     76.6700	  662.00	  700.43	-1765.43	  403.20
     76.7700	  646.00	  688.71	-1769.71	  403.27
     76.8700	  643.00	  671.18	-1755.18	  403.34
     76.9700	  616.00	  650.28	-1761.28	  403.41
     77.0700	  627.00	  628.81	-1728.81	  403.47
     77.1700	  601.00	  608.46	-1734.46	  403.54
     77.2700	  553.00	  590.48	-1764.48	  403.60
     77.3700	  587.00	  575.53	-1715.53	  403.66
     77.4700	  522.00	  563.76	-1768.76	  403.73
     77.5700	  544.00	  554.94	-1737.94	  403.79
     77.6700	  498.00	  548.62	-1777.62	  403.85
     77.7700	  521.00	  544.26	-1750.26	  403.91
     77.8700	  502.00	  541.34	-1766.34	  403.96
     77.9700	  542.00	  539.43	-1724.43	  404.02
     78.0700	  519.00	  538.19	-1746.19	  404.07
     78.1700	  540.00	  537.39	-1724.39	  404.13
     78.2700	  543.00	  536.86	-1720.86	  404.18
     78.3700	  498.00	  536.53	-1765.53	  404.23
     78.4700	  550.00	  536.34	-1713.34	  404.28
     78.5700	  516.00	  536.25	-1747.25	  404.33
     78.6700	  517.00	  536.28	-1746.28	  404.38
     78.7700	  545.00	  536.44	-1718.44	  404.43
     78.8700	  517.00	  536.73	-1746.73	  404.47
     78.9700	  476.00	  537.21	-1788.21	  404.52
     79.0700	  516.00	  537.90	-1748.90	  404.56
     79.1700	  586.00	  538.87	-1679.87	  404.60
     79.2700	  506.00	  540.15	-1761.15	  404.64
     79.3700	  532.00	  541.60	-1736.60	  404.68
     79.4700	  496.00	  543.65	-1774.65	  404.72
     79.5700	  522.00	  546.13	-1751.13	  404.75
     79.6700	  515.00	  549.10	-1761.10	  404.79
     79.7700	  524.00	  552.61	-1755.61	  404.82
     79.8700	  558.00	  556.74	-1725.74	  404.85
     79.9700	  540.00	  561.60	-1748.60	  404.89
     80.0700	  571.00	  567.39	-1723.39	  404.92
     80.1700	  580.00	  574.37	-1721.37	  404.94
     80.2700	  583.00	  582.87	-1726.88	  404.97
     80.3700	  586.00	  593.21	-1734.21	  405.00
     80.4700	  581.00	  605.55	-1751.55	  405.02
     80.5700	  630.00	  619.84	-1716.84	  405.05
     80.6700	  636.00	  635.74	-1726.74	  405.07
     80.7700	  662.00	  652.56	-1717.56	  405.09
     80.8700	  633.00	  669.30	-1763.30	  405.11
     80.9700	  634.00	  684.80	-1777.80	  405.13
     81.0700	  730.00	  697.91	-1694.91	  405.14
     81.1700	  737.00	  707.72	-1697.72	  405.16
     81.2700	  689.00	  713.58	-1751.58	  405.17
     81.3700	  729.00	  715.10	-1713.10	  405.18
     81.4700	  693.00	  712.26	-1746.26	  405.20
     81.5700	  726.00	  705.33	-1706.33	  405.20
     81.6700	  725.00	  694.83	-1696.83	  405.21
     81.7700	  734.00	  681.43	-1674.43	  405.22
     81.8700	  729.00	  666.04	-1664.04	  405.23
     81.9700	  713.00	  649.71	-1663.71	  405.23
     82.0700	  673.00	  633.48	-1687.48	  405.23
     82.1700	  661.00	  618.13	-1684.12	  405.23
     82.2700	  633.00	  604.16	-1698.16	  405.23
     82.3700	  654.00	  591.79	-1664.79	  405.23
     82.4700	  573.00	  581.27	-1735.27	  405.23
     82.5700	  625.00	  572.59	-1674.59	  405.23
     82.6700	  607.00	  565.74	-1685.74	  405.22
     82.7700	  562.00	  560.65	-1725.65	  405.21
     82.8700	  585.00	  557.31	-1699.31	  405.20
     82.9700	  564.00	  555.61	-1718.61	  405.19
     83.0700	  548.00	  555.47	-1734.47	  405.18
     83.1700	  590.00	  556.80	-1693.80	  405.17
     83.2700	  580.00	  559.48	-1706.48	  405.16
     83.3700	  549.00	  563.32	-1741.32	  405.14
     83.4700	  576.00	  568.04	-1719.04	  405.12
     83.5700	  566.00	  573.28	-1734.28	  405.10
     83.6700	  555.00	  578.59	-1750.59	  405.08
     83.7700	  588.00	  583.42	-1722.42	  405.06
     83.8700	  543.00	  587.15	-1771.15	  405.04
     83.9700	  532.00	  589.21	-1784.21	  405.01
     84.0700	  595.00	  589.24	-1721.24	  404.99
     84.1700	  559.00	  587.18	-1755.18	  404.96
     84.2700	  547.00	  583.31	-1763.31	  404.93
     84.3700	  534.00	  578.14	-1771.14	  404.90
     84.4700	  523.00	  572.23	-1776.23	  404.87
     84.5700	  511.00	  566.12	-1782.12	  404.84
     84.6700	  545.00	  560.21	-1742.21	  404.80
     84.7700	  567.00	  554.81	-1714.81	  404.76
     84.8700	  511.00	  550.12	-1766.12	  404.73
     84.9700	  533.00	  546.23	-1740.23	  404.69
     85.0700	  540.00	  543.14	-1730.14	  404.65
     85.1700	  550.00	  540.78	-1717.78	  404.60
     85.2700	  549.00	  539.07	-1717.07	  404.56
     85.3700	  536.00	  537.91	-1728.91	  404.52
     85.4700	  536.00	  537.18	-1728.18	  404.47
     85.5700	  570.00	  536.82	-1693.82	  404.42
     85.6700	  571.00	  536.79	-1692.79	  404.37
     85.7700	  582.00	  537.07	-1682.07	  404.32
     85.8700	  525.00	  537.71	-1739.71	  404.27
     85.9700	  556.00	  538.79	-1709.79	  404.21
     86.0700	  550.00	  540.41	-1717.41	  404.16
     86.1700	  510.00	  542.75	-1759.75	  404.10
     86.2700	  588.00	  545.97	-1684.97	  404.04
     86.3700	  561.00	  550.25	-1716.25	  403.98
     86.4700	  590.00	  555.77	-1692.77	  403.92
     86.5700	  571.00	  562.61	-1718.61	  403.86
     86.6700	  585.00	  570.79	-1712.79	  403.79
     86.7700	  599.00	  580.16	-1708.16	  403.73
     86.8700	  627.00	  590.44	-1690.44	  403.66
     86.9700	  570.00	  601.15	-1758.15	  403.59
     87.0700	  629.00	  611.33	-1709.33	  403.52
     87.1700	  623.00	  620.84	-1724.84	  403.45
     87.2700	  664.00	  628.47	-1691.47	  403.37
     87.3700	  647.00	  633.36	-1713.36	  403.30
     87.4700	  665.00	  634.91	-1696.91	  403.22
     87.5700	  694.00	  632.94	-1665.94	  403.14
     87.6700	  641.00	  627.81	-1713.81	  403.06
     87.7700	  644.00	  620.27	-1703.27	  402.98
     87.8700	  599.00	  611.24	-1739.24	  402.90
     87.9700	  631.00	  601.67	-1697.67	  402.81
     88.0700	  626.00	  592.40	-1693.40	  402.73
     88.1700	  592.00	  584.13	-1719.13	  402.64
     88.2700	  585.00	  577.40	-1719.40	  402.55
     88.3700	  591.00	  572.53	-1708.53	  402.46
     88.4700	  607.00	  569.70	-1689.70	  402.37
     88.5700	  589.00	  568.89	-1706.89	  402.28
     88.6700	  598.00	  569.95	-1698.95	  402.18
     88.7700	  582.00	  572.58	-1717.58	  402.09
     88.8700	  591.00	  576.37	-1712.37	  401.99
     88.9700	  631.00	  580.86	-1676.86	  401.89
     89.0700	  598.00	  585.48	-1714.48	  401.79
     89.1700	  579.00	  589.67	-1737.67	  401.69
     89.2700	  581.00	  592.84	-1738.84	  401.58
     89.3700	  579.00	  594.49	-1742.49	  401.48
     89.4700	  577.00	  594.32	-1744.32	  401.37
     89.5700	  539.00	  592.29	-1780.29	  401.27
     89.6700	  593.00	  588.63	-1722.63	  401.16
     89.7700	  557.00	  583.72	-1753.72	  401.05
     89.8700	  506.00	  578.06	-1799.06	  400.93
     89.9700	  552.00	  572.07	-1747.07	  400.82
     90.0700	  530.00	  566.14	-1763.14	  400.70
     90.1700	  537.00	  560.58	-1750.58	  400.59
     90.2700	  557.00	  555.60	-1725.60	  400.47
     90.3700	  491.00	  551.33	-1787.33	  400.35
     90.4700	  506.00	  547.82	-1768.82	  400.23
     90.5700	  510.00	  545.06	-1762.06	  400.11
     90.6700	  560.00	  542.99	-1709.99	  399.98
     90.7700	  519.00	  541.55	-1749.55	  399.86
     90.8700	  546.00	  540.65	-1721.65	  399.73
     90.9700	  488.00	  540.22	-1779.22	  399.60
     91.0700	  556.00	  540.21	-1711.21	  399.47
     91.1700	  486.00	  540.59	-1781.59	  399.34
     91.2700	  550.00	  541.37	-1718.37	  399.21
     91.3700	  506.00	  542.62	-1763.62	  399.08
     91.4700	  515.00	  544.42	-1756.42	  398.94
     91.5700	  561.00	  546.91	-1712.91	  398.81
     91.6700	  554.00	  550.26	-1723.26	  398.67
     91.7700	  532.00	  554.67	-1749.67	  398.53
     91.8700	  546.00	  560.35	-1741.35	  398.39
     91.9700	  580.00	  567.51	-1714.51	  398.25
     92.0700	  535.00	  576.33	-1768.33	  398.10
     92.1700	  536.00	  586.94	-1777.94	  397.96
     92.2700	  567.00	  599.17	-1759.17	  397.81
     92.3700	  627.00	  613.41	-1713.41	  397.67
     92.4700	  595.00	  629.27	-1761.27	  397.52
     92.5700	  616.00	  646.42	-1757.42	  397.37
     92.6700	  613.00	  664.39	-1778.40	  397.22
     92.7700	  691.00	  682.60	-1718.60	  397.06
     92.8700	  738.00	  700.33	-1689.33	  396.91
     92.9700	  749.00	  716.85	-1694.85	  396.76
     93.0700	  748.00	  731.56	-1710.56	  396.60
     93.1700	  819.00	  744.14	-1652.14	  396.44
     93.2700	  806.00	  754.64	-1675.64	  396.28
     93.3700	  785.00	  763.44	-1705.44	  396.12
     93.4700	  785.00	  771.09	-1713.09	  395.96
     93.5700	  762.00	  778.14	-1743.14	  395.80
     93.6700	  829.00	  785.10	-1683.10	  395.63
     93.7700	  840.00	  792.42	-1679.42	  395.47
     93.8700	  820.00	  800.55	-1707.55	  395.30
     93.9700	  835.00	  809.99	-1701.99	  395.13
     94.0700	  871.00	  821.14	-1677.14	  394.96
     94.1700	  849.00	  834.21	-1712.21	  394.79
     94.2700	  839.00	  849.03	-1737.03	  394.62
     94.3700	  846.00	  865.00	-1746.00	  394.45
     94.4700	  877.00	  881.04	-1731.04	  394.28
     94.5700	  873.00	  895.69	-1749.69	  394.10
     94.6700	  896.00	  907.16	-1738.16	  393.92
     94.7700	  948.00	  913.67	-1692.67	  393.75
     94.8700	  863.00	  913.71	-1777.71	  393.57
     94.9700	  879.00	  906.50	-1754.50	  393.39
     95.0700	  858.00	  892.20	-1761.20	  393.21
     95.1700	  852.00	  871.86	-1746.86	  393.03
     95.2700	  849.00	  847.17	-1725.17	  392.84
     95.3700	  811.00	  820.06	-1736.06	  392.66
     95.4700	  749.00	  792.53	-1770.53	  392.47
     95.5700	  769.00	  766.48	-1724.48	  392.29
     95.6700	  737.00	  743.66	-1733.66	  392.10
     95.7700	  712.00	  725.64	-1740.64	  391.91
     95.8700	  676.00	  713.84	-1764.84	  391.72
     95.9700	  699.00	  709.47	-1737.47	  391.53
     96.0700	  668.00	  713.57	-1772.57	  391.34
     96.1700	  710.00	  727.02	-1744.02	  391.15
     96.2700	  746.00	  750.45	-1731.45	  390.95
     96.3700	  694.00	  784.24	-1817.24	  390.76
     96.4700	  868.00	  828.38	-1687.38	  390.56
     96.5700	  887.00	  882.43	-1722.43	  390.36
     96.6700	  950.00	  945.43	-1722.44	  390.17
     96.7700	 1009.00	 1015.80	-1733.80	  389.97
     96.8700	 1036.00	 1091.24	-1782.24	  389.77
     96.9700	 1153.00	 1168.80	-1742.80	  389.57
     97.0700	 1238.00	 1244.85	-1733.85	  389.37
     97.1700	 1334.00	 1315.20	-1708.20	  389.16
     97.2700	 1347.00	 1375.36	-1755.36	  388.96
     97.3700	 1415.00	 1420.87	-1732.87	  388.76
     97.4700	 1455.00	 1448.02	-1720.02	  388.55
     97.5700	 1483.00	 1454.59	-1698.59	  388.34
     97.6700	 1396.00	 1440.38	-1771.38	  388.14
     97.7700	 1364.00	 1407.15	-1770.15	  387.93
     97.8700	 1339.00	 1358.25	-1746.25	  387.72
     97.9700	 1305.00	 1297.78	-1719.78	  387.51
     98.0700	 1265.00	 1230.13	-1692.13	  387.30
     98.1700	 1180.00	 1159.45	-1706.45	  387.09
     98.2700	 1045.00	 1089.53	-1771.53	  386.88
     98.3700	 1007.00	 1023.65	-1743.65	  386.67
     98.4700	  895.00	  964.59	-1796.59	  386.45
     98.5700	  908.00	  914.57	-1733.57	  386.24
     98.6700	  895.00	  875.27	-1707.27	  386.02
     98.7700	  821.00	  848.00	-1754.00	  385.81
     98.8700	  792.00	  833.67	-1768.67	  385.59
     98.9700	  808.00	  832.90	-1751.90	  385.38
     99.0700	  836.00	  846.10	-1737.10	  385.16
     99.1700	  867.00	  873.43	-1733.43	  384.94
     99.2700	  910.00	  914.85	-1731.85	  384.72
     99.3700	  974.00	  970.08	-1723.08	  384.50
     99.4700	 1007.00	 1038.51	-1758.51	  384.28
     99.5700	 1126.00	 1119.16	-1720.16	  384.06
     99.6700	 1172.00	 1210.55	-1765.55	  383.84
     99.7700	 1265.00	 1310.60	-1772.60	  383.62
     99.8700	 1444.00	 1416.57	-1699.57	  383.40
     99.9700	 1619.00	 1525.01	-1633.01	  383.17
    100.0700	 1667.00	 1631.93	-1691.93	  382.95
    100.1700	 1723.00	 1732.90	-1736.90	  382.73
    100.2700	 1864.00	 1823.51	-1686.51	  382.50
    100.3700	 1875.00	 1899.94	-1751.94	  382.28
    100.4700	 1952.00	 1959.16	-1734.16	  382.05
    100.5700	 1953.00	 1999.15	-1773.15	  381.82
    100.6700	 2057.00	 2018.65	-1688.65	  381.60
    100.7700	 2042.00	 2017.01	-1702.01	  381.37
    100.8700	 1971.00	 1994.25	-1750.25	  381.15
    100.9700	 2044.00	 1951.33	-1634.33	  380.92
    101.0700	 1882.00	 1890.45	-1735.45	  380.69
    101.1700	 1857.00	 1815.14	-1685.14	  380.46
    101.2700	 1765.00	 1729.99	-1691.99	  380.23
    101.3700	 1719.00	 1639.98	-1647.98	  380.01
    101.4700	 1589.00	 1549.91	-1687.91	  379.78
    101.5700	 1464.00	 1463.95	-1726.95	  379.55
    101.6700	 1412.00	 1385.33	-1700.33	  379.32
    101.7700	 1315.00	 1316.35	-1728.35	  379.09
    101.8700	 1355.00	 1258.18	-1630.18	  378.86
    101.9700	 1227.00	 1211.04	-1711.04	  378.63
    102.0700	 1155.00	 1174.19	-1746.19	  378.40
    102.1700	 1140.00	 1146.11	-1733.11	  378.17
    102.2700	 1150.00	 1124.67	-1701.67	  377.94
    102.3700	 1092.00	 1107.28	-1742.28	  377.71
    102.4700	 1052.00	 1091.26	-1766.26	  377.48
    102.5700	 1054.00	 1074.08	-1747.08	  377.25
    102.6700	 1066.00	 1053.81	-1714.81	  377.02
    102.7700	 1037.00	 1029.24	-1719.24	  376.79
    102.8700	  934.00	 1000.04	-1793.04	  376.55
    102.9700	 1002.00	  966.63	-1691.63	  376.32
    103.0700	  899.00	  929.90	-1757.90	  376.09
    103.1700	  861.00	  891.03	-1757.03	  375.86
    103.2700	  851.00	  851.26	-1727.26	  375.63
    103.3700	  817.00	  811.80	-1721.80	  375.40
    103.4700	  781.00	  773.71	-1719.71	  375.17
    103.5700	  769.00	  737.89	-1695.89	  374.94
    103.6700	  721.00	  705.02	-1711.02	  374.71
    103.7700	  672.00	  675.56	-1730.56	  374.48
    103.8700	  658.00	  649.75	-1718.75	  374.25
    103.9700	  627.00	  627.64	-1727.64	  374.02
    104.0700	  607.00	  609.12	-1729.12	  373.79
    104.1700	  591.00	  593.96	-1729.96	  373.57
    104.2700	  575.00	  581.83	-1733.83	  373.34
    104.3700	  573.00	  572.36	-1726.36	  373.11
    104.4700	  517.00	  565.17	-1775.17	  372.88
    104.5700	  587.00	  559.89	-1699.89	  372.65
    104.6700	  553.00	  556.19	-1730.19	  372.43
    104.7700	  554.00	  553.76	-1726.76	  372.20
    104.8700	  562.00	  552.36	-1717.36	  371.97
    104.9700	  596.00	  551.80	-1682.80	  371.75
    105.0700	  560.00	  551.92	-1718.92	  371.52
    105.1700	  553.00	  552.61	-1726.61	  371.30
    105.2700	  523.00	  553.80	-1757.80	  371.07
    105.3700	  583.00	  555.47	-1699.47	  370.85
    105.4700	  513.00	  557.64	-1771.64	  370.63
    105.5700	  493.00	  560.36	-1794.35	  370.40
    105.6700	  577.00	  563.68	-1713.68	  370.18
    105.7700	  541.00	  567.70	-1753.70	  369.96
    105.8700	  583.00	  572.52	-1716.52	  369.74
    105.9700	  571.00	  578.20	-1734.20	  369.52
    106.0700	  567.00	  584.81	-1744.81	  369.30
    106.1700	  549.00	  592.33	-1770.33	  369.08
    106.2700	  590.00	  600.73	-1737.73	  368.86
    106.3700	  657.00	  609.89	-1679.89	  368.65
    106.4700	  607.00	  619.65	-1739.65	  368.43
    106.5700	  592.00	  629.76	-1764.76	  368.22
    106.6700	  662.00	  639.96	-1704.96	  368.00
    106.7700	  662.00	  649.90	-1714.90	  367.79
    106.8700	  670.00	  659.24	-1716.24	  367.58
    106.9700	  640.00	  667.60	-1754.60	  367.37
    107.0700	  615.00	  674.67	-1786.67	  367.16
    107.1700	  676.00	  680.17	-1731.17	  366.95
    107.2700	  641.00	  684.00	-1770.00	  366.74
    107.3700	  680.00	  686.20	-1733.20	  366.53
    107.4700	  659.00	  686.96	-1754.96	  366.32
    107.5700	  654.00	  686.61	-1759.61	  366.12
    107.6700	  682.00	  685.57	-1730.57	  365.92
    107.7700	  738.00	  684.23	-1673.23	  365.71
    107.8700	  680.00	  682.99	-1729.99	  365.51
    107.9700	  712.00	  682.14	-1697.14	  365.31
    108.0700	  667.00	  681.88	-1741.88	  365.11
    108.1700	  703.00	  682.30	-1706.30	  364.92
    108.2700	  696.00	  683.38	-1714.38	  364.72
    108.3700	  679.00	  684.98	-1732.98	  364.52
    108.4700	  695.00	  686.86	-1718.86	  364.33
    108.5700	  682.00	  688.69	-1733.69	  364.14
    108.6700	  700.00	  690.06	-1717.06	  363.95
    108.7700	  702.00	  690.58	-1715.58	  363.76
    108.8700	  663.00	  689.84	-1753.84	  363.57
    108.9700	  691.00	  687.55	-1723.55	  363.39
    109.0700	  670.00	  683.54	-1740.54	  363.20
    109.1700	  665.00	  677.78	-1739.78	  363.02
    109.2700	  696.00	  670.42	-1701.42	  362.84
    109.3700	  674.00	  661.69	-1714.69	  362.66
    109.4700	  669.00	  651.91	-1709.91	  362.48
    109.5700	  633.00	  641.44	-1735.44	  362.30
    109.6700	  618.00	  630.62	-1739.62	  362.13
    109.7700	  582.00	  619.79	-1764.79	  361.96
    109.8700	  608.00	  609.25	-1728.25	  361.79
    109.9700	  639.00	  599.24	-1687.24	  361.62
    110.0700	  615.00	  589.97	-1701.97	  361.45
    110.1700	  573.00	  581.59	-1735.59	  361.29
    110.2700	  579.00	  574.21	-1722.21	  361.12
    110.3700	  549.00	  567.87	-1745.87	  360.96
    110.4700	  575.00	  562.58	-1714.58	  360.80
    110.5700	  588.00	  558.31	-1697.31	  360.65
    110.6700	  591.00	  555.01	-1691.01	  360.49
    110.7700	  589.00	  552.59	-1690.59	  360.34
    110.8700	  578.00	  550.97	-1699.97	  360.19
    110.9700	  558.00	  550.05	-1719.05	  360.04
    111.0700	  446.00	  549.75	-1830.75	  359.90
    111.1700	  535.00	  549.97	-1741.97	  359.75
    111.2700	  549.00	  550.63	-1728.63	  359.61
    111.3700	  518.00	  551.66	-1760.66	  359.47
    111.4700	  562.00	  553.00	-1718.00	  359.34
    111.5700	  569.00	  554.61	-1712.61	  359.20
    111.6700	  569.00	  556.44	-1714.44	  359.07
    111.7700	  605.00	  558.47	-1680.47	  358.94
    111.8700	  612.00	  560.68	-1675.68	  358.81
    111.9700	  541.00	  563.07	-1749.07	  358.69
    112.0700	  566.00	  565.64	-1726.64	  358.57
    112.1700	  593.00	  568.41	-1702.41	  358.45
    112.2700	  620.00	  571.39	-1678.39	  358.33
    112.3700	  596.00	  574.63	-1705.63	  358.22
    112.4700	  574.00	  578.16	-1731.16	  358.11
    112.5700	  622.00	  582.04	-1687.04	  358.00
    112.6700	  561.00	  586.34	-1752.34	  357.90
    112.7700	  626.00	  591.15	-1692.15	  357.79
    112.8700	  614.00	  596.58	-1709.58	  357.69
    112.9700	  646.00	  602.79	-1683.79	  357.60
    113.0700	  633.00	  609.97	-1703.97	  357.50
    113.1700	  683.00	  618.37	-1662.37	  357.41
    113.2700	  730.00	  628.31	-1625.31	  357.33
    113.3700	  728.00	  640.19	-1639.19	  357.24
    113.4700	  734.00	  654.55	-1647.55	  357.16
    113.5700	  723.00	  672.01	-1676.01	  357.08
    113.6700	  797.00	  693.41	-1623.41	  357.01
    113.7700	  783.00	  719.70	-1663.70	  356.94
    113.8700	  772.00	  752.08	-1707.08	  356.87
    113.9700	  902.00	  791.92	-1616.92	  356.80
    114.0700	  985.00	  840.82	-1582.82	  356.74
    114.1700	 1012.00	  900.61	-1615.61	  356.69
    114.2700	 1010.00	  973.30	-1690.30	  356.63
    114.3700	 1162.00	 1061.11	-1626.11	  356.58
    114.4700	 1286.00	 1166.33	-1607.33	  356.53
    114.5700	 1324.00	 1291.32	-1694.32	  356.49
    114.6700	 1580.00	 1438.33	-1585.33	  356.45
    114.7700	 1738.00	 1609.50	-1598.50	  356.41
    114.8700	 1907.00	 1806.66	-1626.66	  356.38
    114.9700	 2170.00	 2031.14	-1588.14	  356.35
    115.0700	 2297.00	 2283.63	-1713.63	  356.32
    115.1700	 2599.00	 2564.03	-1692.03	  356.30
    115.2700	 2921.00	 2871.39	-1677.39	  356.29
    115.3700	 3125.00	 3203.70	-1805.70	  356.27
    115.4700	 3491.00	 3557.72	-1793.72	  356.26
    115.5700	 3930.00	 3929.05	-1726.05	  356.26
    115.6700	 4174.00	 4311.98	-1864.98	  356.25
    115.7700	 4492.00	 4699.67	-1934.67	  356.26
    115.8700	 4884.00	 5084.16	-1927.16	  356.26
    115.9700	 5128.00	 5456.27	-2055.27	  356.27
    116.0700	 5600.00	 5806.01	-1933.01	  356.29
    116.1700	 6006.00	 6122.75	-1843.75	  356.31
    116.2700	 6539.00	 6395.81	-1583.81	  356.33
    116.3700	 6657.00	 6614.94	-1684.94	  356.36
    116.4700	 6908.00	 6771.08	-1590.08	  356.39
    116.5700	 6772.00	 6857.41	-1812.41	  356.43
    116.6700	 6885.00	 6870.08	-1712.08	  356.47
    116.7700	 6860.00	 6808.80	-1675.80	  356.52
    116.8700	 6757.00	 6676.72	-1646.72	  356.57
    116.9700	 6586.00	 6480.14	-1621.14	  356.62
    117.0700	 6135.00	 6227.69	-1819.69	  356.68
    117.1700	 5944.00	 5929.45	-1712.45	  356.75
    117.2700	 5427.00	 5596.00	-1896.00	  356.82
    117.3700	 5192.00	 5237.82	-1772.82	  356.89
    117.4700	 4867.00	 4864.94	-1724.94	  356.97
    117.5700	 4529.00	 4486.50	-1684.50	  357.06
    117.6700	 4267.00	 4110.64	-1570.64	  357.15
    117.7700	 3880.00	 3744.21	-1591.21	  357.24
    117.8700	 3390.00	 3392.86	-1729.86	  357.34
    117.9700	 3198.00	 3061.11	-1590.11	  357.44
    118.0700	 2890.00	 2752.25	-1589.25	  357.55
    118.1700	 2467.00	 2468.48	-1728.48	  357.67
    118.2700	 2231.00	 2210.91	-1706.91	  357.79
    118.3700	 1933.00	 1979.78	-1773.78	  357.91
    118.4700	 1732.00	 1774.67	-1769.67	  358.04
    118.5700	 1597.00	 1594.49	-1724.49	  358.18
    118.6700	 1360.00	 1437.75	-1804.75	  358.32
    118.7700	 1272.00	 1302.56	-1757.56	  358.47
    118.8700	 1130.00	 1186.87	-1783.87	  358.62
    118.9700	 1019.00	 1088.59	-1796.59	  358.78
    119.0700	  951.00	 1005.58	-1781.58	  358.95
    119.1700	  900.00	  935.84	-1762.84	  359.12
    119.2700	  827.00	  877.46	-1777.46	  359.29
    119.3700	  779.00	  828.72	-1776.72	  359.47
    119.4700	  736.00	  788.11	-1779.11	  359.66
    119.5700	  702.00	  754.29	-1779.29	  359.86
    119.6700	  668.00	  726.13	-1785.13	  360.05
    119.7700	  645.00	  702.65	-1784.65	  360.26
    119.8700	  655.00	  683.05	-1755.05	  360.47
    119.9700	  648.00	  666.66	-1745.66	  360.69
    120.0700	  603.00	  652.94	-1776.94	  360.91
    120.1700	  613.00	  641.46	-1755.46	  361.14
    120.2700	  591.00	  631.85	-1767.85	  361.38
    120.3700	  562.00	  623.82	-1788.82	  361.62
    120.4700	  595.00	  617.17	-1749.17	  361.87
    120.5700	  570.00	  611.69	-1768.69	  362.13
    120.6700	  559.00	  607.27	-1775.27	  362.39
    120.7700	  584.00	  603.77	-1746.77	  362.66
    120.8700	  575.00	  601.11	-1753.11	  362.94
    120.9700	  644.00	  599.23	-1682.23	  363.22
    121.0700	  538.00	  598.06	-1787.06	  363.51
    121.1700	  572.00	  597.55	-1752.55	  363.81
    121.2700	  622.00	  597.66	-1702.66	  364.11
    121.3700	  582.00	  598.33	-1743.33	  364.42
    121.4700	  597.00	  599.53	-1729.53	  364.74
    121.5700	  578.00	  601.19	-1750.19	  365.06
    121.6700	  607.00	  603.28	-1723.28	  365.39
    121.7700	  611.00	  605.71	-1721.71	  365.73
    121.8700	  592.00	  608.43	-1743.43	  366.08
    121.9700	  589.00	  611.35	-1749.35	  366.43
    122.0700	  647.00	  614.39	-1694.39	  366.79
    122.1700	  598.00	  617.47	-1746.47	  367.16
    122.2700	  622.00	  620.50	-1725.50	  367.53
    122.3700	  614.00	  623.37	-1736.37	  367.91
    122.4700	  613.00	  625.98	-1739.98	  368.30
    122.5700	  608.00	  628.25	-1747.25	  368.70
    122.6700	  622.00	  630.09	-1735.09	  369.11
    122.7700	  634.00	  631.43	-1724.43	  369.52
    122.8700	  601.00	  632.24	-1758.24	  369.94
    122.9700	  679.00	  632.46	-1680.46	  370.37
    123.0700	  641.00	  632.13	-1718.13	  370.81
    123.1700	  664.00	  631.26	-1694.26	  371.25
    123.2700	  630.00	  629.88	-1726.88	  371.71
    123.3700	  631.00	  628.05	-1724.05	  372.17
    123.4700	  672.00	  625.82	-1680.82	  372.64
    123.5700	  733.00	  623.27	-1617.27	  373.11
    123.6700	  671.00	  620.47	-1676.47	  373.60
    123.7700	  609.00	  617.48	-1735.48	  374.10
    123.8700	  634.00	  614.36	-1707.36	  374.60
    123.9700	  623.00	  611.18	-1715.18	  375.11
    124.0700	  603.00	  608.00	-1732.00	  375.63
    124.1700	  626.00	  604.86	-1705.86	  376.16
    124.2700	  605.00	  601.81	-1723.81	  376.70
    124.3700	  620.00	  598.89	-1705.89	  377.24
    124.4700	  636.00	  596.12	-1687.12	  377.80
    124.5700	  611.00	  593.53	-1709.53	  378.36
    124.6700	  549.00	  591.14	-1769.14	  378.93
    124.7700	  592.00	  588.97	-1723.97	  379.51
    124.8700	  581.00	  587.02	-1733.02	  380.11
    124.9700	  597.00	  499.46	-1629.46	  380.71
    125.0700	  572.00	  500.07	-1727.00	  381.31
    125.1700	  605.00	  500.68	-1727.00	  381.93
    125.2700	  558.00	  501.31	-1727.00	  382.56
    125.3700	  579.00	  501.95	-1727.00	  383.20
    125.4700	  574.00	  502.60	-1727.00	  383.84
    125.5700	  568.00	  503.25	-1727.00	  384.50
    125.6700	  581.00	  503.92	-1727.00	  385.17
    125.7700	  582.00	  504.59	-1727.00	  385.84
    125.8700	  601.00	  505.28	-1727.00	  386.53
    125.9700	  569.00	  505.97	-1727.00	  387.22
    126.0700	  551.00	  506.68	-1727.00	  387.93
    126.1700	  630.00	  507.39	-1727.00	  388.64
    126.2700	  623.00	  508.12	-1727.00	  389.37
    126.3700	  592.00	  508.86	-1727.00	  390.10
    126.4700	  590.00	  509.60	-1727.00	  390.85
    126.5700	  562.00	  510.36	-1727.00	  391.60
    126.6700	  610.00	  511.12	-1727.00	  392.37
    126.7700	  614.00	  511.90	-1727.00	  393.15
    126.8700	  615.00	  512.68	-1727.00	  393.93
    126.9700	  624.00	  513.48	-1727.00	  394.73
    127.0700	  619.00	  514.29	-1727.00	  395.54
    127.1700	  632.00	  515.11	-1727.00	  396.36
    127.2700	  677.00	  515.94	-1727.00	  397.19
    127.3700	  674.00	  516.78	-1727.00	  398.03
    127.4700	  662.00	  517.63	-1727.00	  398.88
    127.5700	  702.00	  518.49	-1727.00	  399.74
    127.6700	  700.00	  519.36	-1727.00	  400.61
    127.7700	  689.00	  520.25	-1727.00	  401.50
    127.8700	  716.00	  521.14	-1727.00	  402.39
    127.9700	  721.00	  522.05	-1727.00	  403.30
    128.0700	  755.00	  522.97	-1727.00	  404.22
    128.1700	  805.00	  523.90	-1727.00	  405.15
    128.2700	  856.00	  524.84	-1727.00	  406.09
    128.3700	  802.00	  525.79	-1727.00	  407.04
    128.4700	  778.00	  526.75	-1727.00	  408.00
    128.5700	    0.00	  527.73	-1727.00	  408.98
    128.6700	    0.00	  528.72	-1727.00	  409.96
     12.3045	        	        	        	        	       0	(  0  0  2)	  0  1
     24.8818	        	        	        	        	       0	(  0  0  4)	  0  1
     28.3310	        	        	        	        	       0	(  1  0  0)	  0  1
     29.0277	        	        	        	        	       0	(  1  0  1)	  0  1
     31.0324	        	        	        	        	       0	(  1  0  2)	  0  1
     34.1385	        	        	        	        	       0	(  1  0  3)	  0  1
     37.7746	        	        	        	        	       0	(  0  0  6)	  0  1
     38.1129	        	        	        	        	       0	(  1  0  4)	  0  1
     42.7599	        	        	        	        	       0	(  1  0  5)	  0  1
     47.9406	        	        	        	        	       0	(  1  0  6)	  0  1
     50.2644	        	        	        	        	       0	(  1  1  0)	  0  1
     51.1889	        	        	        	        	       0	(  0  0  8)	  0  1
     51.9861	        	        	        	        	       0	(  1  1  2)	  0  1
     53.5673	        	        	        	        	       0	(  1  0  7)	  0  1
     56.9301	        	        	        	        	       0	(  1  1  4)	  0  1
     58.7599	        	        	        	        	       0	(  2  0  0)	  0  1
     59.1512	        	        	        	        	       0	(  2  0  1)	  0  1
     59.5937	        	        	        	        	       0	(  1  0  8)	  0  1
     60.3156	        	        	        	        	       0	(  2  0  2)	  0  1
     62.2273	        	        	        	        	       0	(  2  0  3)	  0  1
     64.6189	        	        	        	        	       0	(  1  1  6)	  0  1
     64.8492	        	        	        	        	       0	(  2  0  4)	  0  1
     65.4090	        	        	        	        	       0	(  0  0 10)	  0  1
     66.0055	        	        	        	        	       0	(  1  0  9)	  0  1
     68.1408	        	        	        	        	       0	(  2  0  5)	  0  1
     72.0651	        	        	        	        	       0	(  2  0  6)	  0  1
     72.8166	        	        	        	        	       0	(  1  0 10)	  0  1
     74.6486	        	        	        	        	       0	(  1  1  8)	  0  1
     76.5955	        	        	        	        	       0	(  2  0  7)	  0  1
     80.0684	        	        	        	        	       0	(  1  0 11)	  0  1
     80.8777	        	        	        	        	       0	(  0  0 12)	  0  1
     80.9965	        	        	        	        	       0	(  2  1  0)	  0  1
     81.3360	        	        	        	        	       0	(  2  1  1)	  0  1
     81.7214	        	        	        	        	       0	(  2  0  8)	  0  1
     82.3530	        	        	        	        	       0	(  2  1  2)	  0  1
     84.0428	        	        	        	        	       0	(  2  1  3)	  0  1
     86.4003	        	        	        	        	       0	(  2  1  4)	  0  1
     86.9095	        	        	        	        	       0	(  1  1 10)	  0  1
     87.4543	        	        	        	        	       0	(  2  0  9)	  0  1
     87.8358	        	        	        	        	       0	(  1  0 12)	  0  1
     89.4233	        	        	        	        	       0	(  2  1  5)	  0  1
     93.1172	        	        	        	        	       0	(  2  1  6)	  0  1
     93.8355	        	        	        	        	       0	(  2  0 10)	  0  1
     94.8816	        	        	        	        	       0	(  3  0  0)	  0  1
     95.2186	        	        	        	        	       0	(  3  0  1)	  0  1
     96.2308	        	        	        	        	       0	(  3  0  2)	  0  1
     96.2407	        	        	        	        	       0	(  1  0 13)	  0  1
     97.5014	        	        	        	        	       0	(  2  1  7)	  0  1
     97.9225	        	        	        	        	       0	(  3  0  3)	  0  1
     98.4000	        	        	        	        	       0	(  0  0 14)	  0  1
    100.3031	        	        	        	        	       0	(  3  0  4)	  0  1
    100.9499	        	        	        	        	       0	(  2  0 11)	  0  1
    101.7646	        	        	        	        	       0	(  1  1 12)	  0  1
    102.6185	        	        	        	        	       0	(  2  1  8)	  0  1
    103.3915	        	        	        	        	       0	(  3  0  5)	  0  1
    105.4825	        	        	        	        	       0	(  1  0 14)	  0  1
    107.2225	        	        	        	        	       0	(  3  0  6)	  0  1
    108.5486	        	        	        	        	       0	(  2  1  9)	  0  1
    108.9516	        	        	        	        	       0	(  2  0 12)	  0  1
    111.8574	        	        	        	        	       0	(  3  0  7)	  0  1
    115.4367	        	        	        	        	       0	(  2  1 10)	  0  1
    115.9109	        	        	        	        	       0	(  1  0 15)	  0  1
    116.5983	        	        	        	        	       0	(  2  2  0)	  0  1
    117.4038	        	        	        	        	       0	(  3  0  8)	  0  1
    118.1117	        	        	        	        	       0	(  2  2  2)	  0  1
    118.1228	        	        	        	        	       0	(  2  0 13)	  0  1
    119.8574	        	        	        	        	       0	(  0  0 16)	  0  1
    120.5824	        	        	        	        	       0	(  1  1 14)	  0  1
    122.7913	        	        	        	        	       0	(  2  2  4)	  0  1
    123.5516	        	        	        	        	       0	(  2  1 11)	  0  1
    124.0543	        	        	        	        	       0	(  3  0  9)	  0  1
    124.6591	        	        	        	        	       0	(  3  1  0)	  0  1
    125.0688	        	        	        	        	       0	(  3  1  1)	  0  1
    126.3106	        	        	        	        	       0	(  3  1  2)	  0  1
    128.2303	        	        	        	        	       0	(  1  0 16)	  0  1
    128.4259	        	        	        	        	       0	(  3  1  3)	  0  1
    129.0326	        	        	        	        	       0	(  2  0 14)	  0  1
    131.2188	        	        	        	        	       0	(  2  2  6)	  0  1
    131.4972	        	        	        	        	       0	(  3  1  4)	  0  1
    132.1809	        	        	        	        	       0	(  3  0 10)	  0  1
    133.4451	        	        	        	        	       0	(  2  1 12)	  0  1
    135.6773	        	        	        	        	       0	(  3  1  5)	  0  1
    141.2619	        	        	        	        	       0	(  3  1  6)	  0  1
    142.6351	        	        	        	        	       0	(  3  0 11)	  0  1
    143.1334	        	        	        	        	       0	(  2  0 15)	  0  1
    144.3492	        	        	        	        	       0	(  1  0 17)	  0  1
    145.4232	        	        	        	        	       0	(  2  2  8)	  0  1
    146.5631	        	        	        	        	       0	(  2  1 13)	  0  1
    148.9157	        	        	        	        	       0	(  3  1  7)	  0  1
    149.4327	        	        	        	        	       0	(  1  1 16)	  0  1
    153.7823	        	        	        	        	       0	(  0  0 18)	  0  1
    158.4415	        	        	        	        	       0	(  3  0 12)	  0  1
    158.7649	        	        	        	        	       0	(  4  0  0)	  0  1
    159.7173	        	        	        	        	       0	(  4  0  1)	  0  1
    160.8545	        	        	        	        	       0	(  3  1  8)	  0  1
    162.8782	        	        	        	        	       0	(  4  0  2)	  0  1
    169.2755	        	        	        	        	       0	(  2  0 16)	  0  1
    170.1431	        	        	        	        	       0	(  4  0  3)	  0  1
    173.5200	        	        	        	        	       0	(  2  1 14)	  0  1
