MSG Master    CELL:    5.91746   5.91746  23.27095   90.0000   90.0000  120.0000   SPGR: P 63/m m c             TEMP:   1037.35
  1   1280     2.52000     0.00000    -0.13048     0.00000     0.00000    0
    99     0     2
       0.00000      10.00000
     125.00000     130.00000
 2Theta	Yobs	Ycal	Yobs-Ycal	Backg	Posr	(hkl)	K
      0.7700	    0.00	  529.06	-1748.25	  412.16
      0.8700	    0.00	  529.97	-1748.25	  413.07
      0.9700	   43.00	  530.87	-1748.25	  413.97
      1.0700	   52.00	  531.76	-1748.25	  414.85
      1.1700	   40.00	  532.63	-1748.25	  415.73
      1.2700	   43.00	  533.49	-1748.25	  416.59
      1.3700	   47.00	  534.34	-1748.25	  417.44
      1.4700	  103.00	  535.18	-1748.25	  418.28
      1.5700	  265.00	  536.00	-1748.25	  419.10
      1.6700	  445.00	  536.82	-1748.25	  419.91
      1.7700	  583.00	  537.62	-1748.25	  420.71
      1.8700	  656.00	  538.41	-1748.25	  421.50
      1.9700	  667.00	  539.18	-1748.25	  422.28
      2.0700	  722.00	  539.95	-1748.25	  423.05
      2.1700	  788.00	  540.70	-1748.25	  423.80
      2.2700	  751.00	  541.45	-1748.25	  424.54
      2.3700	  704.00	  542.18	-1748.25	  425.28
      2.4700	  727.00	  542.90	-1748.25	  426.00
      2.5700	  697.00	  543.61	-1748.25	  426.71
      2.6700	  663.00	  544.31	-1748.25	  427.40
      2.7700	  646.00	  544.99	-1748.25	  428.09
      2.8700	  633.00	  545.67	-1748.25	  428.77
      2.9700	  637.00	  546.33	-1748.25	  429.43
      3.0700	  574.00	  546.99	-1748.25	  430.09
      3.1700	  561.00	  547.63	-1748.25	  430.73
      3.2700	  585.00	  548.26	-1748.25	  431.36
      3.3700	  724.00	  548.89	-1748.25	  431.98
      3.4700	  746.00	  549.50	-1748.25	  432.59
      3.5700	  835.00	  550.10	-1748.25	  433.20
      3.6700	  880.00	  550.69	-1748.25	  433.79
      3.7700	  960.00	  551.27	-1748.25	  434.37
      3.8700	  975.00	  551.84	-1748.25	  434.94
      3.9700	 1103.00	  552.40	-1748.25	  435.50
      4.0700	 1074.00	  552.95	-1748.25	  436.05
      4.1700	 1167.00	  553.49	-1748.25	  436.59
      4.2700	 1207.00	  554.02	-1748.25	  437.12
      4.3700	 1143.00	  554.54	-1748.25	  437.64
      4.4700	 1088.00	  555.05	-1748.25	  438.15
      4.5700	 1072.00	  555.55	-1748.25	  438.65
      4.6700	 1057.00	  556.04	-1748.25	  439.14
      4.7700	 1055.00	  556.52	-1748.25	  439.62
      4.8700	  990.00	  556.99	-1748.25	  440.09
      4.9700	  978.00	  557.45	-1748.25	  440.55
      5.0700	  959.00	  557.91	-1748.25	  441.00
      5.1700	  935.00	  558.35	-1748.25	  441.45
      5.2700	  851.00	  558.79	-1748.25	  441.88
      5.3700	  885.00	  559.21	-1748.25	  442.31
      5.4700	  853.00	  559.63	-1748.25	  442.72
      5.5700	  865.00	  560.03	-1748.25	  443.13
      5.6700	  869.00	  560.43	-1748.25	  443.53
      5.7700	  858.00	  560.82	-1748.25	  443.92
      5.8700	  859.00	  561.20	-1748.25	  444.30
      5.9700	  819.00	  561.57	-1748.25	  444.67
      6.0700	  816.00	  561.94	-1748.25	  445.03
      6.1700	  784.00	  562.29	-1748.25	  445.39
      6.2700	  770.00	  562.64	-1748.25	  445.73
      6.3700	  775.00	  562.97	-1748.25	  446.07
      6.4700	  780.00	  563.30	-1748.25	  446.40
      6.5700	  755.00	  563.62	-1748.25	  446.72
      6.6700	  778.00	  563.94	-1748.25	  447.03
      6.7700	  734.00	  564.24	-1748.25	  447.34
      6.8700	  723.00	  564.54	-1748.25	  447.63
      6.9700	  734.00	  564.83	-1748.25	  447.92
      7.0700	  667.00	  565.11	-1748.25	  448.20
      7.1700	  610.00	  565.38	-1748.25	  448.48
      7.2700	  673.00	  565.64	-1748.25	  448.74
      7.3700	  684.00	  565.90	-1748.25	  449.00
      7.4700	  684.00	  566.15	-1748.25	  449.24
      7.5700	  670.00	  566.39	-1748.25	  449.49
      7.6700	  627.00	  566.62	-1748.25	  449.72
      7.7700	  670.00	  566.85	-1748.25	  449.95
      7.8700	  658.00	  567.07	-1748.25	  450.16
      7.9700	  633.00	  567.28	-1748.25	  450.37
      8.0700	  618.00	  567.48	-1748.25	  450.58
      8.1700	  629.00	  567.68	-1748.25	  450.77
      8.2700	  612.00	  567.87	-1748.25	  450.96
      8.3700	  635.00	  568.05	-1748.25	  451.15
      8.4700	  648.00	  568.22	-1748.25	  451.32
      8.5700	  637.00	  568.39	-1748.25	  451.49
      8.6700	  641.00	  568.55	-1748.25	  451.65
      8.7700	  637.00	  568.71	-1748.25	  451.80
      8.8700	  640.00	  568.85	-1748.25	  451.95
      8.9700	  633.00	  568.99	-1748.25	  452.09
      9.0700	  601.00	  569.13	-1748.25	  452.22
      9.1700	  599.00	  569.25	-1748.25	  452.35
      9.2700	  632.00	  569.37	-1748.25	  452.47
      9.3700	  559.00	  569.49	-1748.25	  452.58
      9.4700	  656.00	  569.59	-1748.25	  452.69
      9.5700	  612.00	  569.69	-1748.25	  452.79
      9.6700	  604.00	  569.79	-1748.25	  452.89
      9.7700	  615.00	  569.88	-1748.25	  452.97
      9.8700	  618.00	  569.96	-1748.25	  453.06
      9.9700	  587.00	  570.03	-1748.25	  453.13
     10.0700	  603.00	  571.29	-1716.54	  453.20
     10.1700	  636.00	  571.49	-1683.74	  453.26
     10.2700	  605.00	  571.72	-1714.97	  453.32
     10.3700	  604.00	  571.99	-1716.24	  453.37
     10.4700	  574.00	  572.33	-1746.58	  453.42
     10.5700	  606.00	  572.82	-1715.07	  453.46
     10.6700	  624.00	  573.54	-1697.79	  453.49
     10.7700	  592.00	  574.58	-1730.83	  453.52
     10.8700	  584.00	  576.02	-1740.27	  453.54
     10.9700	  519.00	  577.84	-1807.09	  453.56
     11.0700	  572.00	  580.05	-1756.30	  453.57
     11.1700	  562.00	  582.65	-1768.90	  453.57
     11.2700	  580.00	  585.66	-1753.91	  453.57
     11.3700	  586.00	  589.19	-1751.44	  453.57
     11.4700	  593.00	  593.37	-1748.62	  453.56
     11.5700	  580.00	  598.43	-1766.68	  453.54
     11.6700	  630.00	  604.74	-1722.99	  453.52
     11.7700	  616.00	  612.85	-1745.10	  453.49
     11.8700	  639.00	  623.34	-1732.59	  453.46
     11.9700	  666.00	  636.10	-1718.35	  453.42
     12.0700	  660.00	  649.04	-1737.29	  453.38
     12.1700	  688.00	  656.96	-1717.21	  453.34
     12.2700	  683.00	  652.63	-1717.88	  453.28
     12.3700	  635.00	  634.60	-1747.85	  453.23
     12.4700	  616.00	  612.68	-1744.93	  453.16
     12.5700	  617.00	  595.52	-1726.77	  453.10
     12.6700	  558.00	  584.89	-1775.14	  453.03
     12.7700	  575.00	  579.19	-1752.44	  452.95
     12.8700	  584.00	  576.25	-1740.50	  452.87
     12.9700	  566.00	  574.60	-1756.85	  452.79
     13.0700	  551.00	  573.54	-1770.79	  452.70
     13.1700	  611.00	  572.75	-1710.00	  452.60
     13.2700	  569.00	  572.14	-1751.39	  452.50
     13.3700	  578.00	  571.65	-1741.90	  452.40
     13.4700	  576.00	  571.23	-1743.48	  452.29
     13.5700	  515.00	  570.87	-1804.12	  452.18
     13.6700	  547.00	  570.55	-1771.80	  452.07
     13.7700	  546.00	  570.27	-1772.52	  451.95
     13.8700	  598.00	  570.00	-1720.25	  451.82
     13.9700	  526.00	  569.76	-1792.01	  451.69
     14.0700	  553.00	  569.53	-1764.78	  451.56
     14.1700	  544.00	  569.30	-1773.55	  451.43
     14.2700	  545.00	  569.09	-1772.34	  451.29
     14.3700	  584.00	  568.88	-1733.13	  451.14
     14.4700	  608.00	  568.68	-1708.93	  450.99
     14.5700	  570.00	  568.48	-1746.73	  450.84
     14.6700	  550.00	  568.28	-1766.53	  450.69
     14.7700	  575.00	  568.08	-1741.33	  450.53
     14.8700	  548.00	  567.88	-1768.13	  450.36
     14.9700	  533.00	  567.68	-1782.93	  450.20
     15.0700	  582.00	  567.51	-1733.76	  450.03
     15.1700	  550.00	  567.32	-1765.57	  449.85
     15.2700	  569.00	  567.12	-1746.37	  449.68
     15.3700	  573.00	  566.92	-1742.17	  449.50
     15.4700	  548.00	  566.71	-1766.96	  449.31
     15.5700	  523.00	  566.51	-1791.76	  449.13
     15.6700	  554.00	  566.30	-1760.55	  448.93
     15.7700	  596.00	  566.10	-1718.35	  448.74
     15.8700	  561.00	  565.89	-1753.14	  448.54
     15.9700	  562.00	  565.67	-1751.92	  448.34
     16.0700	  508.00	  565.46	-1805.71	  448.14
     16.1700	  537.00	  565.24	-1776.49	  447.93
     16.2700	  561.00	  565.03	-1752.28	  447.72
     16.3700	  546.00	  564.80	-1767.05	  447.51
     16.4700	  573.00	  564.58	-1739.83	  447.30
     16.5700	  525.00	  564.36	-1787.61	  447.08
     16.6700	  579.00	  564.13	-1733.38	  446.86
     16.7700	  538.00	  563.90	-1774.15	  446.63
     16.8700	  536.00	  563.67	-1775.92	  446.41
     16.9700	  574.00	  563.43	-1737.68	  446.18
     17.0700	  551.00	  563.19	-1760.44	  445.94
     17.1700	  565.00	  562.96	-1746.21	  445.71
     17.2700	  575.00	  562.71	-1735.96	  445.47
     17.3700	  571.00	  562.47	-1739.72	  445.23
     17.4700	  591.00	  562.22	-1719.47	  444.99
     17.5700	  527.00	  561.98	-1783.23	  444.74
     17.6700	  537.00	  561.73	-1772.98	  444.49
     17.7700	  502.00	  561.47	-1807.72	  444.24
     17.8700	  562.00	  561.22	-1747.47	  443.99
     17.9700	  540.00	  560.96	-1769.21	  443.74
     18.0700	  554.00	  560.70	-1754.95	  443.48
     18.1700	  547.00	  560.54	-1761.79	  443.22
     18.2700	  567.00	  560.28	-1741.53	  442.96
     18.3700	  575.00	  560.02	-1733.27	  442.69
     18.4700	  515.00	  559.75	-1793.00	  442.43
     18.5700	  562.00	  559.49	-1745.74	  442.16
     18.6700	  565.00	  559.22	-1742.47	  441.89
     18.7700	  587.00	  559.03	-1720.28	  441.62
     18.8700	  560.00	  558.76	-1747.01	  441.34
     18.9700	  568.00	  558.49	-1738.74	  441.07
     19.0700	  522.00	  558.22	-1784.47	  440.79
     19.1700	  555.00	  557.94	-1751.19	  440.51
     19.2700	  567.00	  557.67	-1738.92	  440.23
     19.3700	  519.00	  557.39	-1786.64	  439.94
     19.4700	  584.00	  557.11	-1721.36	  439.66
     19.5700	  572.00	  556.83	-1733.08	  439.37
     19.6700	  539.00	  556.55	-1765.80	  439.08
     19.7700	  588.00	  556.27	-1716.52	  438.79
     19.8700	  561.00	  555.98	-1743.23	  438.50
     19.9700	  549.00	  555.70	-1754.95	  438.20
     20.0700	  540.00	  555.41	-1763.66	  437.91
     20.1700	  533.00	  555.12	-1770.37	  437.61
     20.2700	  550.00	  554.84	-1753.09	  437.31
     20.3700	  535.00	  554.55	-1767.80	  437.01
     20.4700	  520.00	  554.29	-1782.54	  436.71
     20.5700	  593.00	  554.00	-1709.25	  436.41
     20.6700	  542.00	  553.71	-1759.96	  436.10
     20.7700	  561.00	  553.42	-1740.67	  435.79
     20.8700	  562.00	  553.13	-1739.38	  435.49
     20.9700	  554.00	  552.84	-1747.09	  435.18
     21.0700	  583.00	  552.55	-1717.80	  434.87
     21.1700	  563.00	  552.26	-1737.51	  434.56
     21.2700	  579.00	  551.97	-1721.22	  434.25
     21.3700	  577.00	  551.68	-1722.93	  433.93
     21.4700	  530.00	  551.39	-1769.64	  433.62
     21.5700	  549.00	  551.10	-1750.35	  433.30
     21.6700	  573.00	  550.81	-1726.06	  432.99
     21.7700	  543.00	  550.49	-1755.74	  432.67
     21.8700	  527.00	  550.21	-1771.46	  432.35
     21.9700	  580.00	  549.92	-1718.17	  432.03
     22.0700	  557.00	  549.64	-1740.89	  431.71
     22.1700	  545.00	  549.37	-1752.62	  431.39
     22.2700	  557.00	  549.09	-1740.34	  431.07
     22.3700	  564.00	  548.82	-1733.07	  430.75
     22.4700	  551.00	  548.56	-1745.81	  430.42
     22.5700	  571.00	  548.30	-1725.55	  430.10
     22.6700	  544.00	  548.05	-1752.30	  429.77
     22.7700	  534.00	  547.81	-1762.06	  429.45
     22.8700	  535.00	  547.57	-1760.82	  429.12
     22.9700	  576.00	  547.35	-1719.60	  428.79
     23.0700	  585.00	  547.15	-1710.40	  428.46
     23.1700	  564.00	  547.11	-1731.36	  428.13
     23.2700	  537.00	  546.96	-1758.21	  427.80
     23.3700	  586.00	  546.84	-1709.09	  427.48
     23.4700	  533.00	  546.76	-1762.01	  427.14
     23.5700	  564.00	  546.75	-1731.00	  426.81
     23.6700	  541.00	  546.83	-1754.08	  426.48
     23.7700	  533.00	  547.06	-1762.31	  426.15
     23.8700	  553.00	  547.55	-1742.80	  425.82
     23.9700	  524.00	  548.53	-1772.78	  425.49
     24.0700	  561.00	  550.37	-1737.62	  425.15
     24.1700	  532.00	  553.62	-1769.87	  424.82
     24.2700	  594.00	  558.97	-1713.22	  424.49
     24.3700	  594.00	  567.11	-1721.36	  424.15
     24.4700	  571.00	  578.49	-1755.74	  423.82
     24.5700	  623.00	  592.60	-1717.85	  423.48
     24.6700	  649.00	  606.86	-1706.11	  423.15
     24.7700	  672.00	  615.81	-1692.06	  422.81
     24.8700	  603.00	  612.76	-1758.01	  422.48
     24.9700	  585.00	  597.36	-1760.61	  422.14
     25.0700	  540.00	  578.49	-1786.74	  421.81
     25.1700	  545.00	  563.34	-1766.59	  421.47
     25.2700	  537.00	  553.63	-1764.88	  421.14
     25.3700	  573.00	  548.22	-1723.47	  420.80
     25.4700	  561.00	  545.36	-1732.61	  420.47
     25.5700	  527.00	  543.76	-1765.01	  420.13
     25.6700	  540.00	  542.74	-1750.99	  419.80
     25.7700	  554.00	  542.00	-1736.25	  419.46
     25.8700	  588.00	  541.44	-1701.69	  419.13
     25.9700	  583.00	  541.01	-1706.26	  418.79
     26.0700	  554.00	  540.68	-1734.93	  418.46
     26.1700	  543.00	  540.44	-1745.69	  418.12
     26.2700	  547.00	  540.28	-1741.53	  417.79
     26.3700	  528.00	  540.21	-1760.46	  417.45
     26.4700	  535.00	  540.22	-1753.47	  417.12
     26.5700	  525.00	  540.32	-1763.57	  416.79
     26.6700	  538.00	  540.53	-1750.78	  416.45
     26.7700	  563.00	  540.88	-1726.13	  416.12
     26.8700	  542.00	  541.39	-1747.64	  415.79
     26.9700	  522.00	  542.11	-1768.36	  415.45
     27.0700	  546.00	  543.11	-1745.36	  415.12
     27.1700	  548.00	  544.51	-1744.76	  414.79
     27.2700	  502.00	  546.54	-1792.79	  414.46
     27.3700	  608.00	  549.66	-1689.91	  414.13
     27.4700	  570.00	  554.78	-1733.03	  413.80
     27.5700	  566.00	  563.55	-1745.80	  413.47
     27.6700	  554.00	  578.61	-1772.86	  413.14
     27.7700	  572.00	  603.47	-1779.72	  412.81
     27.8700	  598.00	  641.31	-1791.56	  412.48
     27.9700	  672.00	  692.62	-1768.87	  412.15
     28.0700	  814.00	  751.89	-1686.14	  411.82
     28.1700	  878.00	  804.62	-1674.87	  411.49
     28.2700	  868.00	  828.40	-1708.65	  411.17
     28.3700	  863.00	  808.96	-1694.21	  410.84
     28.4700	  792.00	  766.23	-1722.48	  410.52
     28.5700	  724.00	  735.42	-1759.67	  410.19
     28.6700	  708.00	  733.07	-1773.32	  409.87
     28.7700	  672.00	  754.98	-1831.23	  409.54
     28.8700	  795.00	  782.24	-1735.49	  409.22
     28.9700	  798.00	  788.08	-1738.33	  408.90
     29.0700	  786.00	  754.74	-1716.99	  408.58
     29.1700	  676.00	  695.66	-1767.91	  408.26
     29.2700	  667.00	  638.09	-1719.34	  407.94
     29.3700	  624.00	  595.75	-1720.00	  407.62
     29.4700	  589.00	  569.62	-1728.87	  407.30
     29.5700	  554.00	  555.21	-1749.46	  406.98
     29.6700	  597.00	  547.52	-1698.77	  406.67
     29.7700	  595.00	  543.18	-1696.43	  406.35
     29.8700	  581.00	  540.50	-1707.75	  406.04
     29.9700	  605.00	  538.81	-1682.06	  405.72
     30.0700	  552.00	  537.94	-1734.19	  405.41
     30.1700	  569.00	  538.03	-1717.28	  405.10
     30.2700	  554.00	  539.58	-1733.83	  404.79
     30.3700	  527.00	  543.41	-1764.66	  404.48
     30.4700	  560.00	  550.91	-1739.16	  404.17
     30.5700	  546.00	  563.38	-1765.63	  403.86
     30.6700	  604.00	  581.06	-1725.31	  403.55
     30.7700	  564.00	  601.73	-1785.98	  403.25
     30.8700	  659.00	  619.73	-1708.98	  402.94
     30.9700	  587.00	  626.44	-1787.69	  402.64
     31.0700	  542.00	  615.74	-1821.99	  402.34
     31.1700	  559.00	  592.89	-1782.14	  402.03
     31.2700	  573.00	  569.23	-1744.48	  401.73
     31.3700	  531.00	  551.12	-1768.37	  401.43
     31.4700	  548.00	  539.60	-1739.85	  401.14
     31.5700	  524.00	  533.11	-1757.36	  400.84
     31.6700	  490.00	  529.65	-1787.90	  400.54
     31.7700	  540.00	  527.71	-1735.96	  400.25
     31.8700	  514.00	  526.51	-1760.76	  399.95
     31.9700	  528.00	  525.71	-1745.96	  399.66
     32.0700	  518.00	  525.15	-1755.40	  399.37
     32.1700	  558.00	  524.80	-1715.05	  399.08
     32.2700	  533.00	  524.62	-1739.87	  398.79
     32.3700	  504.00	  524.61	-1768.86	  398.50
     32.4700	  553.00	  524.77	-1720.02	  398.21
     32.5700	  527.00	  525.13	-1746.38	  397.93
     32.6700	  538.00	  525.71	-1735.96	  397.64
     32.7700	  534.00	  526.58	-1740.83	  397.36
     32.8700	  520.00	  527.81	-1756.06	  397.08
     32.9700	  572.00	  529.54	-1705.79	  396.80
     33.0700	  569.00	  532.03	-1711.28	  396.52
     33.1700	  534.00	  535.81	-1750.06	  396.24
     33.2700	  530.00	  542.04	-1760.29	  395.97
     33.3700	  567.00	  553.03	-1734.28	  395.69
     33.4700	  560.00	  572.96	-1761.21	  395.42
     33.5700	  566.00	  607.98	-1790.23	  395.15
     33.6700	  607.00	  664.62	-1805.87	  394.87
     33.7700	  754.00	  744.91	-1739.16	  394.61
     33.8700	  863.00	  839.93	-1725.18	  394.34
     33.9700	 1067.00	  925.49	-1606.74	  394.07
     34.0700	 1073.00	  964.84	-1640.09	  393.81
     34.1700	  979.00	  929.86	-1699.11	  393.54
     34.2700	  858.00	  837.38	-1727.63	  393.28
     34.3700	  776.00	  734.01	-1706.26	  393.02
     34.4700	  656.00	  650.31	-1742.56	  392.76
     34.5700	  618.00	  594.38	-1724.63	  392.50
     34.6700	  536.00	  561.74	-1773.99	  392.24
     34.7700	  558.00	  544.15	-1734.40	  391.99
     34.8700	  544.00	  534.59	-1738.84	  391.74
     34.9700	  523.00	  528.87	-1754.12	  391.48
     35.0700	  506.00	  525.00	-1767.25	  391.23
     35.1700	  531.00	  522.12	-1739.37	  390.98
     35.2700	  520.00	  519.86	-1748.11	  390.74
     35.3700	  503.00	  518.03	-1763.28	  390.49
     35.4700	  528.00	  516.51	-1736.76	  390.25
     35.5700	  517.00	  515.24	-1746.49	  390.00
     35.6700	  507.00	  514.15	-1755.40	  389.76
     35.7700	  508.00	  513.21	-1753.46	  389.52
     35.8700	  554.00	  512.38	-1706.63	  389.29
     35.9700	  543.00	  511.66	-1716.91	  389.05
     36.0700	  490.00	  511.01	-1769.26	  388.81
     36.1700	  505.00	  510.88	-1754.13	  388.58
     36.2700	  517.00	  510.37	-1741.62	  388.35
     36.3700	  521.00	  509.91	-1737.16	  388.12
     36.4700	  499.00	  509.51	-1758.76	  387.89
     36.5700	  537.00	  509.15	-1720.40	  387.66
     36.6700	  525.00	  508.86	-1732.11	  387.44
     36.7700	  560.00	  508.63	-1696.88	  387.22
     36.8700	  490.00	  508.53	-1766.78	  386.99
     36.9700	  483.00	  508.61	-1773.86	  386.77
     37.0700	  497.00	  509.05	-1760.30	  386.55
     37.1700	  529.00	  510.09	-1729.34	  386.34
     37.2700	  537.00	  512.05	-1723.30	  386.12
     37.3700	  538.00	  515.16	-1725.41	  385.91
     37.4700	  542.00	  519.25	-1725.50	  385.70
     37.5700	  521.00	  523.55	-1750.80	  385.49
     37.6700	  564.00	  526.63	-1710.88	  385.28
     37.7700	  516.00	  526.92	-1759.17	  385.07
     37.8700	  496.00	  524.19	-1776.44	  384.87
     37.9700	  512.00	  519.88	-1756.13	  384.66
     38.0700	  502.00	  515.50	-1761.75	  384.46
     38.1700	  496.00	  511.72	-1763.97	  384.26
     38.2700	  521.00	  508.79	-1736.04	  384.06
     38.3700	  504.00	  506.71	-1750.96	  383.87
     38.4700	  502.00	  505.30	-1751.55	  383.67
     38.5700	  492.00	  504.37	-1760.62	  383.48
     38.6700	  507.00	  503.79	-1745.04	  383.29
     38.7700	  524.00	  503.33	-1727.58	  383.10
     38.8700	  505.00	  502.97	-1746.22	  382.91
     38.9700	  489.00	  502.67	-1761.92	  382.73
     39.0700	  458.00	  502.40	-1792.65	  382.54
     39.1700	  437.00	  502.16	-1813.41	  382.36
     39.2700	  468.00	  501.94	-1782.19	  382.18
     39.3700	  480.00	  501.66	-1769.91	  382.00
     39.4700	  560.00	  501.47	-1689.72	  381.82
     39.5700	  535.00	  501.30	-1714.55	  381.65
     39.6700	  506.00	  501.13	-1743.38	  381.47
     39.7700	  549.00	  500.98	-1700.23	  381.30
     39.8700	  502.00	  500.84	-1747.09	  381.13
     39.9700	  539.00	  500.72	-1709.97	  380.96
     40.0700	  454.00	  500.60	-1794.85	  380.80
     40.1700	  499.00	  500.50	-1749.75	  380.63
     40.2700	  514.00	  500.41	-1734.66	  380.47
     40.3700	  507.00	  500.33	-1741.58	  380.31
     40.4700	  505.00	  500.27	-1743.52	  380.15
     40.5700	  516.00	  500.23	-1732.48	  379.99
     40.6700	  505.00	  500.21	-1743.46	  379.83
     40.7700	  503.00	  500.21	-1745.46	  379.68
     40.8700	  442.00	  500.24	-1806.49	  379.53
     40.9700	  496.00	  500.30	-1752.55	  379.38
     41.0700	  489.00	  500.41	-1759.66	  379.23
     41.1700	  506.00	  501.02	-1743.27	  379.08
     41.2700	  488.00	  501.25	-1761.50	  378.94
     41.3700	  507.00	  501.55	-1742.80	  378.79
     41.4700	  526.00	  501.96	-1724.21	  378.65
     41.5700	  472.00	  502.51	-1778.76	  378.51
     41.6700	  514.00	  503.26	-1737.51	  378.37
     41.7700	  522.00	  504.43	-1730.68	  378.24
     41.8700	  461.00	  506.36	-1793.61	  378.10
     41.9700	  497.00	  509.75	-1761.00	  377.97
     42.0700	  549.00	  515.84	-1715.09	  377.84
     42.1700	  546.00	  526.40	-1728.65	  377.71
     42.2700	  519.00	  543.23	-1772.48	  377.58
     42.3700	  517.00	  567.10	-1798.35	  377.46
     42.4700	  571.00	  596.18	-1773.43	  377.34
     42.5700	  610.00	  624.48	-1762.73	  377.21
     42.6700	  612.00	  642.48	-1778.73	  377.09
     42.7700	  629.00	  641.30	-1760.55	  376.98
     42.8700	  575.00	  620.76	-1794.01	  376.86
     42.9700	  540.00	  590.82	-1799.07	  376.75
     43.0700	  552.00	  561.71	-1757.96	  376.63
     43.1700	  554.00	  538.66	-1732.91	  376.52
     43.2700	  530.00	  522.92	-1741.17	  376.41
     43.3700	  539.00	  513.33	-1722.58	  376.31
     43.4700	  499.00	  507.90	-1757.15	  376.20
     43.5700	  512.00	  505.08	-1741.33	  376.10
     43.6700	  479.00	  503.31	-1772.56	  376.00
     43.7700	  491.00	  502.17	-1759.42	  375.90
     43.8700	  500.00	  501.35	-1749.60	  375.80
     43.9700	  509.00	  500.74	-1739.99	  375.70
     44.0700	  490.00	  500.26	-1758.51	  375.61
     44.1700	  518.00	  499.88	-1730.13	  375.51
     44.2700	  531.00	  499.58	-1716.83	  375.42
     44.3700	  509.00	  499.34	-1738.59	  375.33
     44.4700	  506.00	  499.16	-1741.41	  375.25
     44.5700	  539.00	  499.02	-1708.27	  375.16
     44.6700	  494.00	  498.92	-1753.17	  375.08
     44.7700	  487.00	  498.85	-1760.10	  374.99
     44.8700	  501.00	  498.81	-1746.06	  374.91
     44.9700	  546.00	  498.99	-1701.24	  374.83
     45.0700	  501.00	  499.01	-1746.26	  374.76
     45.1700	  473.00	  498.92	-1774.17	  374.68
     45.2700	  551.00	  498.99	-1696.24	  374.61
     45.3700	  534.00	  499.09	-1713.34	  374.54
     45.4700	  516.00	  499.21	-1731.46	  374.47
     45.5700	  539.00	  499.37	-1708.62	  374.40
     45.6700	  490.00	  499.54	-1757.79	  374.33
     45.7700	  480.00	  499.75	-1768.00	  374.27
     45.8700	  480.00	  499.99	-1768.24	  374.21
     45.9700	  502.00	  500.27	-1746.52	  374.14
     46.0700	  477.00	  500.59	-1771.84	  374.09
     46.1700	  495.00	  500.95	-1754.20	  374.03
     46.2700	  487.00	  501.36	-1762.61	  373.97
     46.3700	  516.00	  501.84	-1734.09	  373.92
     46.4700	  452.00	  502.39	-1798.64	  373.86
     46.5700	  524.00	  503.02	-1727.27	  373.81
     46.6700	  539.00	  503.83	-1713.08	  373.76
     46.7700	  506.00	  504.80	-1747.05	  373.72
     46.8700	  514.00	  505.95	-1740.20	  373.67
     46.9700	  489.00	  507.51	-1766.76	  373.63
     47.0700	  529.00	  509.83	-1729.08	  373.59
     47.1700	  523.00	  513.53	-1738.78	  373.54
     47.2700	  515.00	  519.50	-1752.75	  373.51
     47.3700	  527.00	  528.84	-1750.09	  373.47
     47.4700	  520.00	  542.42	-1770.67	  373.43
     47.5700	  531.00	  560.20	-1777.45	  373.40
     47.6700	  548.00	  580.44	-1780.69	  373.37
     47.7700	  633.00	  599.16	-1714.41	  373.34
     47.8700	  612.00	  610.62	-1746.87	  373.31
     47.9700	  609.00	  610.17	-1749.42	  373.28
     48.0700	  614.00	  598.56	-1732.81	  373.25
     48.1700	  577.00	  581.47	-1752.72	  373.23
     48.2700	  557.00	  564.61	-1755.86	  373.21
     48.3700	  526.00	  551.33	-1773.58	  373.19
     48.4700	  562.00	  542.80	-1729.05	  373.17
     48.5700	  530.00	  538.76	-1757.01	  373.15
     48.6700	  529.00	  538.31	-1757.56	  373.13
     48.7700	  532.00	  540.53	-1756.78	  373.12
     48.8700	  538.00	  544.84	-1755.09	  373.11
     48.9700	  526.00	  551.12	-1773.37	  373.09
     49.0700	  590.00	  560.18	-1718.43	  373.09
     49.1700	  574.00	  572.65	-1746.90	  373.08
     49.2700	  573.00	  591.83	-1767.08	  373.07
     49.3700	  578.00	  623.53	-1793.78	  373.07
     49.4700	  587.00	  677.86	-1839.11	  373.06
     49.5700	  748.00	  769.76	-1770.01	  373.06
     49.6700	  804.00	  917.11	-1861.36	  373.06
     49.7700	 1019.00	 1134.40	-1863.65	  373.06
     49.8700	 1376.00	 1422.64	-1794.89	  373.06
     49.9700	 1808.00	 1757.61	-1697.86	  373.07
     50.0700	 2159.00	 2080.37	-1669.62	  373.07
     50.1700	 2346.00	 2299.77	-1702.02	  373.08
     50.2700	 2350.00	 2327.93	-1726.18	  373.09
     50.3700	 2227.00	 2149.91	-1671.16	  373.10
     50.4700	 1907.00	 1842.16	-1683.41	  373.11
     50.5700	 1491.00	 1504.70	-1761.95	  373.13
     50.6700	 1076.00	 1206.47	-1878.72	  373.14
     50.7700	  797.00	  979.02	-1930.27	  373.16
     50.8700	  715.00	  825.40	-1858.65	  373.18
     50.9700	  707.00	  731.67	-1772.92	  373.20
     51.0700	  631.00	  677.73	-1794.98	  373.22
     51.1700	  593.00	  645.18	-1800.43	  373.24
     51.2700	  598.00	  621.78	-1772.03	  373.26
     51.3700	  600.00	  602.15	-1750.40	  373.29
     51.4700	  606.00	  585.21	-1727.46	  373.31
     51.5700	  544.00	  571.16	-1775.41	  373.34
     51.6700	  556.00	  560.47	-1752.72	  373.37
     51.7700	  558.00	  552.51	-1742.76	  373.40
     51.8700	  524.00	  547.10	-1771.35	  373.43
     51.9700	  546.00	  543.71	-1745.96	  373.47
     52.0700	  562.00	  541.88	-1728.13	  373.50
     52.1700	  578.00	  541.28	-1711.53	  373.54
     52.2700	  517.00	  541.83	-1773.08	  373.57
     52.3700	  523.00	  543.68	-1768.93	  373.61
     52.4700	  544.00	  547.39	-1751.64	  373.65
     52.5700	  594.00	  554.21	-1708.46	  373.69
     52.6700	  598.00	  566.46	-1716.71	  373.74
     52.7700	  608.00	  587.96	-1728.21	  373.78
     52.8700	  642.00	  623.97	-1730.22	  373.83
     52.9700	  738.00	  680.32	-1690.57	  373.87
     53.0700	  748.00	  761.14	-1761.39	  373.92
     53.1700	  900.00	  865.79	-1714.04	  373.97
     53.2700	  998.00	  985.38	-1735.63	  374.02
     53.3700	 1098.00	 1100.29	-1750.54	  374.07
     53.4700	 1161.00	 1180.87	-1768.12	  374.13
     53.5700	 1217.00	 1197.92	-1729.17	  374.18
     53.6700	 1097.00	 1143.76	-1795.01	  374.24
     53.7700	 1017.00	 1040.13	-1771.38	  374.29
     53.8700	  879.00	  919.42	-1788.67	  374.35
     53.9700	  798.00	  806.58	-1756.83	  374.41
     54.0700	  694.00	  715.04	-1769.29	  374.47
     54.1700	  632.00	  648.66	-1764.91	  374.53
     54.2700	  596.00	  604.97	-1757.22	  374.60
     54.3700	  604.00	  578.46	-1722.71	  374.66
     54.4700	  576.00	  563.39	-1735.64	  374.72
     54.5700	  539.00	  555.24	-1764.49	  374.79
     54.6700	  559.00	  550.99	-1740.24	  374.86
     54.7700	  580.00	  549.00	-1717.25	  374.93
     54.8700	  596.00	  548.44	-1700.69	  375.00
     54.9700	  550.00	  548.92	-1747.17	  375.07
     55.0700	  566.00	  550.31	-1732.56	  375.14
     55.1700	  578.00	  552.58	-1722.83	  375.21
     55.2700	  566.00	  555.77	-1738.02	  375.29
     55.3700	  590.00	  559.98	-1718.23	  375.36
     55.4700	  548.00	  565.51	-1765.76	  375.44
     55.5700	  606.00	  572.76	-1715.01	  375.52
     55.6700	  580.00	  582.58	-1750.83	  375.59
     55.7700	  596.00	  596.66	-1748.91	  375.67
     55.8700	  600.00	  618.31	-1766.56	  375.75
     55.9700	  650.00	  653.42	-1751.67	  375.84
     56.0700	  709.00	  711.55	-1750.80	  375.92
     56.1700	  736.00	  806.09	-1818.34	  376.00
     56.2700	  897.00	  952.63	-1803.88	  376.09
     56.3700	 1111.00	 1164.51	-1801.76	  376.17
     56.4700	 1278.00	 1445.72	-1915.97	  376.26
     56.5700	 1761.00	 1782.88	-1770.13	  376.35
     56.6700	 2135.00	 2138.21	-1751.46	  376.43
     56.7700	 2364.00	 2446.21	-1830.46	  376.52
     56.8700	 2603.00	 2623.17	-1768.42	  376.61
     56.9700	 2660.00	 2605.78	-1694.03	  376.70
     57.0700	 2467.00	 2400.48	-1681.73	  376.80
     57.1700	 2082.00	 2078.82	-1745.07	  376.89
     57.2700	 1731.00	 1724.37	-1741.62	  376.98
     57.3700	 1367.00	 1397.93	-1779.18	  377.08
     57.4700	 1104.00	 1132.40	-1776.65	  377.17
     57.5700	  898.00	  937.40	-1787.65	  377.27
     57.6700	  777.00	  806.91	-1778.16	  377.37
     57.7700	  727.00	  727.30	-1748.55	  377.47
     57.8700	  675.00	  684.21	-1757.46	  377.57
     57.9700	  721.00	  666.61	-1693.86	  377.67
     58.0700	  680.00	  667.96	-1736.21	  377.77
     58.1700	  706.00	  685.53	-1727.78	  377.87
     58.2700	  725.00	  718.80	-1742.05	  377.97
     58.3700	  747.00	  767.78	-1769.03	  378.07
     58.4700	  844.00	  831.38	-1735.63	  378.18
     58.5700	  929.00	  905.93	-1725.18	  378.28
     58.6700	 1062.00	  984.51	-1670.76	  378.39
     58.7700	 1158.00	 1058.54	-1648.79	  378.49
     58.8700	 1294.00	 1121.75	-1576.00	  378.60
     58.9700	 1359.00	 1171.01	-1560.26	  378.71
     59.0700	 1419.00	 1202.55	-1531.80	  378.81
     59.1700	 1348.00	 1212.04	-1612.29	  378.92
     59.2700	 1389.00	 1201.19	-1560.44	  379.03
     59.3700	 1286.00	 1179.73	-1641.98	  379.14
     59.4700	 1279.00	 1158.74	-1627.99	  379.25
     59.5700	 1206.00	 1146.01	-1688.26	  379.37
     59.6700	 1184.00	 1148.35	-1712.60	  379.48
     59.7700	 1238.00	 1174.28	-1684.53	  379.59
     59.8700	 1300.00	 1230.09	-1678.34	  379.70
     59.9700	 1353.00	 1313.38	-1708.63	  379.82
     60.0700	 1445.00	 1409.64	-1712.89	  379.93
     60.1700	 1553.00	 1492.43	-1687.68	  380.05
     60.2700	 1553.00	 1529.06	-1724.31	  380.16
     60.3700	 1457.00	 1496.35	-1787.60	  380.28
     60.4700	 1456.00	 1397.06	-1689.31	  380.40
     60.5700	 1333.00	 1256.53	-1671.78	  380.51
     60.6700	 1087.00	 1104.44	-1765.69	  380.63
     60.7700	  925.00	  963.42	-1786.67	  380.75
     60.8700	  824.00	  846.78	-1771.03	  380.87
     60.9700	  730.00	  759.83	-1778.08	  380.99
     61.0700	  709.00	  702.23	-1741.48	  381.11
     61.1700	  632.00	  670.92	-1787.18	  381.23
     61.2700	  660.00	  662.92	-1751.17	  381.35
     61.3700	  637.00	  677.01	-1788.26	  381.47
     61.4700	  692.00	  714.29	-1770.54	  381.59
     61.5700	  726.00	  777.09	-1799.34	  381.71
     61.6700	  858.00	  867.05	-1757.30	  381.84
     61.7700	  962.00	  982.40	-1768.65	  381.96
     61.8700	 1101.00	 1115.49	-1762.74	  382.08
     61.9700	 1236.00	 1251.12	-1763.37	  382.21
     62.0700	 1325.00	 1365.96	-1789.21	  382.33
     62.1700	 1299.00	 1432.07	-1881.32	  382.45
     62.2700	 1385.00	 1428.64	-1791.89	  382.58
     62.3700	 1287.00	 1356.21	-1817.46	  382.70
     62.4700	 1217.00	 1236.38	-1767.63	  382.83
     62.5700	  991.00	 1097.11	-1854.36	  382.96
     62.6700	  875.00	  961.23	-1834.48	  383.08
     62.7700	  755.00	  843.18	-1836.43	  383.21
     62.8700	  685.00	  749.69	-1812.94	  383.33
     62.9700	  654.00	  681.37	-1775.62	  383.46
     63.0700	  668.00	  634.89	-1715.14	  383.59
     63.1700	  582.00	  605.26	-1771.51	  383.72
     63.2700	  580.00	  587.50	-1755.75	  383.84
     63.3700	  557.00	  577.74	-1768.99	  383.97
     63.4700	  547.00	  573.55	-1774.80	  384.10
     63.5700	  597.00	  573.87	-1725.12	  384.23
     63.6700	  569.00	  578.85	-1758.10	  384.36
     63.7700	  581.00	  589.57	-1756.82	  384.48
     63.8700	  643.00	  607.68	-1712.93	  384.61
     63.9700	  665.00	  635.00	-1718.25	  384.74
     64.0700	  703.00	  672.77	-1718.02	  384.87
     64.1700	  763.00	  720.96	-1706.21	  385.00
     64.2700	  835.00	  777.49	-1690.74	  385.13
     64.3700	  888.00	  837.62	-1697.87	  385.26
     64.4700	  929.00	  893.55	-1712.80	  385.39
     64.5700	 1008.00	  935.18	-1675.43	  385.52
     64.6700	 1034.00	  954.92	-1669.17	  385.65
     64.7700	  952.00	  949.23	-1745.48	  385.78
     64.8700	  969.00	  921.00	-1700.25	  385.91
     64.9700	  910.00	  877.37	-1715.62	  386.04
     65.0700	  852.00	  826.84	-1723.09	  386.17
     65.1700	  741.00	  776.80	-1784.05	  386.30
     65.2700	  775.00	  731.83	-1705.08	  386.43
     65.3700	  643.00	  693.55	-1798.80	  386.56
     65.4700	  665.00	  661.78	-1745.03	  386.69
     65.5700	  622.00	  635.76	-1762.01	  386.81
     65.6700	  600.00	  614.91	-1763.16	  386.94
     65.7700	  578.00	  598.65	-1768.90	  387.07
     65.8700	  585.00	  586.41	-1749.66	  387.20
     65.9700	  533.00	  577.64	-1792.89	  387.33
     66.0700	  550.00	  571.96	-1770.21	  387.46
     66.1700	  557.00	  568.70	-1759.95	  387.59
     66.2700	  546.00	  567.56	-1769.81	  387.72
     66.3700	  576.00	  568.26	-1740.51	  387.85
     66.4700	  534.00	  570.60	-1784.85	  387.98
     66.5700	  591.00	  574.63	-1731.88	  388.11
     66.6700	  562.00	  580.72	-1766.97	  388.24
     66.7700	  529.00	  589.75	-1809.00	  388.37
     66.8700	  576.00	  603.42	-1775.67	  388.49
     66.9700	  612.00	  624.61	-1760.86	  388.62
     67.0700	  664.00	  657.79	-1742.04	  388.75
     67.1700	  692.00	  709.30	-1765.55	  388.88
     67.2700	  780.00	  786.75	-1755.00	  389.00
     67.3700	  934.00	  898.47	-1712.72	  389.13
     67.4700	 1023.00	 1051.41	-1776.66	  389.26
     67.5700	 1275.00	 1247.87	-1721.12	  389.39
     67.6700	 1518.00	 1483.45	-1713.70	  389.51
     67.7700	 1723.00	 1743.97	-1769.22	  389.64
     67.8700	 2016.00	 2003.91	-1736.16	  389.76
     67.9700	 2305.00	 2226.59	-1669.84	  389.89
     68.0700	 2330.00	 2368.86	-1787.11	  390.02
     68.1700	 2373.00	 2395.72	-1770.97	  390.14
     68.2700	 2299.00	 2299.59	-1748.84	  390.26
     68.3700	 2085.00	 2105.94	-1769.19	  390.39
     68.4700	 1848.00	 1857.00	-1757.25	  390.51
     68.5700	 1616.00	 1593.18	-1725.43	  390.64
     68.6700	 1318.00	 1345.13	-1775.38	  390.76
     68.7700	 1133.00	 1131.49	-1746.74	  390.88
     68.8700	  956.00	  960.68	-1752.93	  391.00
     68.9700	  805.00	  832.76	-1776.01	  391.13
     69.0700	  751.00	  742.34	-1739.59	  391.25
     69.1700	  721.00	  681.48	-1708.73	  391.37
     69.2700	  654.00	  641.97	-1736.22	  391.49
     69.3700	  632.00	  616.88	-1733.13	  391.61
     69.4700	  637.00	  600.96	-1712.21	  391.73
     69.5700	  579.00	  590.68	-1759.93	  391.85
     69.6700	  557.00	  583.85	-1775.10	  391.97
     69.7700	  577.00	  579.19	-1750.44	  392.09
     69.8700	  598.00	  575.98	-1726.23	  392.20
     69.9700	  554.00	  573.87	-1768.12	  392.32
     70.0700	  564.00	  572.67	-1756.92	  392.44
     70.1700	  512.00	  572.32	-1808.57	  392.55
     70.2700	  571.00	  572.85	-1750.10	  392.67
     70.3700	  558.00	  574.34	-1764.59	  392.79
     70.4700	  573.00	  577.06	-1752.31	  392.90
     70.5700	  577.00	  581.56	-1752.81	  393.01
     70.6700	  569.00	  588.69	-1767.94	  393.13
     70.7700	  637.00	  599.98	-1711.23	  393.24
     70.8700	  644.00	  617.79	-1722.04	  393.35
     70.9700	  624.00	  645.50	-1769.75	  393.46
     71.0700	  674.00	  687.52	-1761.77	  393.57
     71.1700	  774.00	  749.03	-1723.28	  393.68
     71.2700	  838.00	  835.13	-1745.38	  393.79
     71.3700	 1007.00	  949.71	-1690.96	  393.90
     71.4700	 1145.00	 1093.73	-1696.98	  394.01
     71.5700	 1214.00	 1263.67	-1797.92	  394.12
     71.6700	 1394.00	 1450.96	-1805.21	  394.23
     71.7700	 1665.00	 1638.01	-1721.26	  394.33
     71.8700	 1740.00	 1803.12	-1811.37	  394.44
     71.9700	 1831.00	 1919.37	-1836.62	  394.54
     72.0700	 1903.00	 1962.67	-1807.92	  394.65
     72.1700	 1939.00	 1922.63	-1731.88	  394.75
     72.2700	 1840.00	 1808.92	-1717.17	  394.85
     72.3700	 1604.00	 1645.37	-1789.62	  394.95
     72.4700	 1528.00	 1458.92	-1679.17	  395.05
     72.5700	 1345.00	 1272.21	-1675.46	  395.15
     72.6700	 1176.00	 1101.41	-1673.66	  395.25
     72.7700	 1014.00	  956.03	-1690.28	  395.35
     72.8700	  898.00	  839.23	-1689.48	  395.45
     72.9700	  772.00	  751.08	-1727.33	  395.55
     73.0700	  784.00	  687.39	-1651.64	  395.64
     73.1700	  708.00	  643.15	-1683.40	  395.74
     73.2700	  701.00	  613.28	-1660.53	  395.83
     73.3700	  637.00	  593.39	-1704.64	  395.93
     73.4700	  618.00	  580.12	-1710.37	  396.02
     73.5700	  657.00	  571.10	-1662.35	  396.11
     73.6700	  566.00	  564.81	-1747.06	  396.20
     73.7700	  600.00	  560.32	-1708.57	  396.29
     73.8700	  584.00	  557.07	-1721.32	  396.38
     73.9700	  551.00	  554.74	-1751.99	  396.47
     74.0700	  588.00	  553.12	-1713.37	  396.56
     74.1700	  571.00	  552.05	-1729.30	  396.64
     74.2700	  591.00	  551.39	-1708.64	  396.73
     74.3700	  601.00	  550.97	-1698.22	  396.81
     74.4700	  616.00	  550.63	-1682.88	  396.90
     74.5700	  641.00	  550.19	-1657.44	  396.98
     74.6700	  602.00	  549.50	-1695.75	  397.06
     74.7700	  616.00	  548.52	-1680.77	  397.14
     74.8700	  612.00	  547.33	-1683.58	  397.22
     74.9700	  613.00	  546.09	-1681.34	  397.30
     75.0700	  599.00	  545.04	-1694.29	  397.38
     75.1700	  560.00	  544.37	-1732.62	  397.45
     75.2700	  631.00	  544.47	-1661.72	  397.53
     75.3700	  596.00	  545.64	-1697.89	  397.60
     75.4700	  531.00	  548.28	-1765.53	  397.68
     75.5700	  548.00	  552.87	-1753.12	  397.75
     75.6700	  602.00	  559.82	-1706.07	  397.82
     75.7700	  573.00	  569.72	-1744.97	  397.89
     75.8700	  592.00	  582.79	-1739.04	  397.96
     75.9700	  605.00	  599.00	-1742.25	  398.03
     76.0700	  625.00	  617.92	-1741.17	  398.09
     76.1700	  666.00	  638.53	-1720.78	  398.16
     76.2700	  659.00	  659.38	-1748.63	  398.22
     76.3700	  687.00	  678.28	-1739.53	  398.29
     76.4700	  720.00	  692.69	-1720.94	  398.35
     76.5700	  684.00	  700.13	-1764.38	  398.41
     76.6700	  700.00	  699.08	-1747.33	  398.47
     76.7700	  671.00	  689.72	-1766.97	  398.53
     76.8700	  668.00	  673.84	-1754.09	  398.59
     76.9700	  619.00	  653.98	-1783.23	  398.64
     77.0700	  631.00	  632.64	-1749.89	  398.70
     77.1700	  604.00	  611.63	-1755.88	  398.75
     77.2700	  594.00	  592.75	-1747.00	  398.81
     77.3700	  552.00	  576.64	-1772.89	  398.86
     77.4700	  583.00	  563.62	-1728.87	  398.91
     77.5700	  539.00	  553.60	-1762.85	  398.96
     77.6700	  495.00	  546.22	-1799.47	  399.01
     77.7700	  541.00	  541.00	-1748.25	  399.05
     77.8700	  511.00	  537.41	-1774.66	  399.10
     77.9700	  552.00	  535.00	-1731.25	  399.15
     78.0700	  524.00	  533.41	-1757.66	  399.19
     78.1700	  485.00	  532.35	-1795.60	  399.23
     78.2700	  481.00	  531.65	-1798.90	  399.27
     78.3700	  538.00	  531.19	-1741.44	  399.31
     78.4700	  528.00	  530.90	-1751.15	  399.35
     78.5700	  526.00	  530.74	-1752.99	  399.39
     78.6700	  486.00	  530.70	-1792.95	  399.42
     78.7700	  522.00	  530.79	-1757.04	  399.46
     78.8700	  519.00	  531.02	-1760.27	  399.49
     78.9700	  548.00	  531.41	-1731.66	  399.52
     79.0700	  513.00	  532.01	-1767.26	  399.55
     79.1700	  550.00	  532.85	-1731.10	  399.58
     79.2700	  488.00	  533.97	-1794.22	  399.61
     79.3700	  524.00	  535.42	-1759.67	  399.64
     79.4700	  506.00	  537.25	-1779.50	  399.66
     79.5700	  510.00	  539.51	-1777.76	  399.68
     79.6700	  478.00	  542.06	-1812.31	  399.71
     79.7700	  534.00	  545.36	-1759.61	  399.73
     79.8700	  574.00	  549.33	-1723.58	  399.75
     79.9700	  528.00	  554.10	-1774.35	  399.77
     80.0700	  548.00	  559.88	-1760.13	  399.78
     80.1700	  501.00	  566.95	-1814.20	  399.80
     80.2700	  550.00	  575.64	-1773.89	  399.81
     80.3700	  546.00	  586.30	-1788.55	  399.83
     80.4700	  628.00	  599.16	-1719.41	  399.84
     80.5700	  588.00	  614.23	-1774.48	  399.85
     80.6700	  589.00	  631.24	-1790.49	  399.86
     80.7700	  658.00	  649.55	-1739.80	  399.86
     80.8700	  644.00	  668.18	-1772.43	  399.87
     80.9700	  694.00	  685.88	-1740.13	  399.87
     81.0700	  712.00	  701.38	-1737.63	  399.88
     81.1700	  737.00	  713.59	-1724.84	  399.88
     81.2700	  767.00	  721.68	-1702.93	  399.88
     81.3700	  741.00	  725.13	-1732.38	  399.88
     81.4700	  715.00	  723.77	-1757.02	  399.87
     81.5700	  760.00	  717.78	-1706.03	  399.87
     81.6700	  717.00	  707.63	-1738.88	  399.86
     81.7700	  688.00	  693.96	-1754.21	  399.86
     81.8700	  690.00	  677.67	-1735.92	  399.85
     81.9700	  745.00	  659.90	-1663.15	  399.84
     82.0700	  651.00	  641.82	-1739.07	  399.83
     82.1700	  655.00	  624.42	-1717.67	  399.82
     82.2700	  647.00	  608.38	-1709.63	  399.80
     82.3700	  613.00	  594.12	-1729.37	  399.78
     82.4700	  599.00	  581.81	-1731.06	  399.77
     82.5700	  581.00	  571.55	-1738.80	  399.75
     82.6700	  572.00	  563.31	-1739.56	  399.73
     82.7700	  562.00	  556.98	-1743.23	  399.71
     82.8700	  557.00	  552.59	-1743.84	  399.68
     82.9700	  544.00	  549.96	-1754.21	  399.66
     83.0700	  539.00	  548.96	-1758.21	  399.63
     83.1700	  554.00	  549.51	-1743.76	  399.60
     83.2700	  564.00	  551.46	-1735.71	  399.58
     83.3700	  562.00	  554.62	-1740.87	  399.54
     83.4700	  567.00	  558.76	-1740.01	  399.51
     83.5700	  555.00	  563.54	-1756.79	  399.48
     83.6700	  568.00	  568.54	-1748.79	  399.44
     83.7700	  565.00	  573.30	-1756.55	  399.41
     83.8700	  584.00	  577.23	-1741.48	  399.37
     83.9700	  554.00	  579.76	-1774.01	  399.33
     84.0700	  578.00	  580.46	-1750.71	  399.29
     84.1700	  561.00	  579.15	-1766.40	  399.24
     84.2700	  529.00	  576.00	-1795.25	  399.20
     84.3700	  527.00	  571.43	-1792.68	  399.15
     84.4700	  556.00	  565.98	-1758.23	  399.11
     84.5700	  575.00	  560.16	-1733.41	  399.06
     84.6700	  540.00	  554.41	-1762.66	  399.01
     84.7700	  524.00	  549.05	-1773.30	  398.95
     84.8700	  522.00	  544.31	-1770.56	  398.90
     84.9700	  526.00	  540.30	-1762.55	  398.85
     85.0700	  522.00	  537.06	-1763.31	  398.79
     85.1700	  557.00	  534.56	-1725.81	  398.73
     85.2700	  524.00	  532.71	-1756.96	  398.67
     85.3700	  491.00	  531.42	-1788.67	  398.61
     85.4700	  524.00	  530.60	-1754.85	  398.55
     85.5700	  494.00	  530.17	-1784.42	  398.48
     85.6700	  529.00	  530.08	-1749.33	  398.42
     85.7700	  515.00	  530.34	-1763.59	  398.35
     85.8700	  505.00	  530.96	-1774.21	  398.28
     85.9700	  504.00	  532.02	-1776.27	  398.21
     86.0700	  524.00	  533.64	-1757.89	  398.14
     86.1700	  516.00	  535.97	-1768.22	  398.06
     86.2700	  496.00	  539.19	-1791.44	  397.99
     86.3700	  542.00	  543.49	-1749.74	  397.91
     86.4700	  569.00	  549.03	-1728.28	  397.83
     86.5700	  522.00	  555.93	-1782.18	  397.75
     86.6700	  579.00	  564.23	-1733.48	  397.67
     86.7700	  603.00	  573.83	-1719.08	  397.59
     86.8700	  572.00	  584.49	-1760.74	  397.50
     86.9700	  564.00	  595.78	-1780.03	  397.42
     87.0700	  598.00	  607.10	-1757.35	  397.33
     87.1700	  626.00	  617.69	-1739.94	  397.24
     87.2700	  635.00	  626.65	-1739.90	  397.15
     87.3700	  668.00	  632.70	-1712.95	  397.06
     87.4700	  582.00	  635.78	-1802.03	  396.97
     87.5700	  621.00	  635.14	-1762.39	  396.87
     87.6700	  623.00	  630.95	-1756.20	  396.77
     87.7700	  643.00	  623.84	-1729.09	  396.68
     87.8700	  621.00	  614.72	-1741.97	  396.58
     87.9700	  643.00	  604.57	-1709.82	  396.47
     88.0700	  681.00	  594.29	-1661.54	  396.37
     88.1700	  596.00	  584.66	-1736.91	  396.27
     88.2700	  585.00	  576.27	-1739.52	  396.16
     88.3700	  527.00	  569.56	-1790.81	  396.05
     88.4700	  587.00	  564.76	-1726.01	  395.94
     88.5700	  560.00	  561.94	-1750.19	  395.83
     88.6700	  595.00	  561.01	-1714.26	  395.72
     88.7700	  579.00	  561.75	-1731.00	  395.61
     88.8700	  542.00	  563.83	-1770.08	  395.49
     88.9700	  579.00	  566.83	-1736.08	  395.38
     89.0700	  591.00	  570.29	-1727.54	  395.26
     89.1700	  598.00	  573.69	-1723.94	  395.14
     89.2700	  588.00	  576.51	-1736.76	  395.02
     89.3700	  601.00	  578.28	-1725.53	  394.90
     89.4700	  616.00	  578.64	-1710.89	  394.77
     89.5700	  613.00	  577.46	-1712.71	  394.65
     89.6700	  574.00	  574.82	-1749.07	  394.52
     89.7700	  539.00	  571.02	-1780.27	  394.39
     89.8700	  536.00	  566.42	-1778.67	  394.26
     89.9700	  564.00	  561.42	-1745.67	  394.13
     90.0700	  546.00	  556.35	-1758.60	  394.00
     90.1700	  521.00	  551.51	-1778.76	  393.86
     90.2700	  517.00	  547.09	-1778.34	  393.73
     90.3700	  543.00	  543.23	-1748.48	  393.59
     90.4700	  542.00	  540.01	-1746.26	  393.45
     90.5700	  537.00	  537.43	-1748.68	  393.31
     90.6700	  570.00	  535.48	-1713.73	  393.17
     90.7700	  504.00	  534.11	-1778.36	  393.03
     90.8700	  462.00	  533.24	-1819.49	  392.88
     90.9700	  513.00	  532.82	-1768.07	  392.74
     91.0700	  514.00	  532.81	-1767.06	  392.59
     91.1700	  552.00	  533.19	-1729.44	  392.44
     91.2700	  518.00	  533.99	-1764.24	  392.29
     91.3700	  516.00	  535.24	-1767.49	  392.14
     91.4700	  517.00	  537.06	-1768.31	  391.99
     91.5700	  498.00	  539.57	-1789.82	  391.83
     91.6700	  507.00	  542.94	-1784.19	  391.68
     91.7700	  533.00	  547.38	-1762.63	  391.52
     91.8700	  555.00	  553.12	-1746.37	  391.36
     91.9700	  539.00	  560.38	-1769.63	  391.20
     92.0700	  557.00	  569.37	-1760.62	  391.04
     92.1700	  586.00	  580.24	-1742.49	  390.88
     92.2700	  596.00	  593.08	-1745.33	  390.72
     92.3700	  608.00	  607.86	-1748.11	  390.55
     92.4700	  612.00	  624.43	-1760.68	  390.39
     92.5700	  695.00	  642.23	-1695.48	  390.22
     92.6700	  642.00	  661.34	-1767.59	  390.05
     92.7700	  690.00	  680.87	-1739.12	  389.88
     92.8700	  731.00	  700.09	-1717.34	  389.71
     92.9700	  730.00	  718.16	-1736.41	  389.54
     93.0700	  725.00	  734.35	-1757.60	  389.36
     93.1700	  766.00	  748.13	-1730.38	  389.19
     93.2700	  770.00	  759.39	-1737.64	  389.01
     93.3700	  745.00	  768.40	-1771.65	  388.83
     93.4700	  790.00	  775.72	-1733.97	  388.65
     93.5700	  821.00	  781.96	-1709.21	  388.47
     93.6700	  812.00	  787.72	-1723.97	  388.29
     93.7700	  856.00	  793.50	-1685.75	  388.11
     93.8700	  828.00	  799.77	-1720.02	  387.93
     93.9700	  796.00	  807.06	-1759.31	  387.74
     94.0700	  819.00	  815.87	-1745.12	  387.56
     94.1700	  874.00	  826.57	-1700.82	  387.37
     94.2700	  892.00	  839.23	-1695.48	  387.18
     94.3700	  900.00	  853.47	-1701.72	  386.99
     94.4700	  853.00	  868.46	-1763.71	  386.80
     94.5700	  873.00	  882.93	-1758.18	  386.61
     94.6700	  892.00	  895.25	-1751.50	  386.41
     94.7700	  868.00	  903.63	-1783.88	  386.22
     94.8700	  917.00	  906.40	-1737.65	  386.03
     94.9700	  919.00	  902.41	-1731.66	  385.83
     95.0700	  958.00	  891.38	-1681.63	  385.63
     95.1700	  854.00	  873.93	-1768.18	  385.43
     95.2700	  839.00	  851.44	-1760.69	  385.23
     95.3700	  815.00	  825.71	-1758.96	  385.03
     95.4700	  790.00	  798.70	-1756.95	  384.83
     95.5700	  784.00	  772.36	-1736.61	  384.63
     95.6700	  770.00	  748.48	-1726.73	  384.43
     95.7700	  712.00	  728.74	-1764.99	  384.22
     95.8700	  682.00	  714.63	-1780.88	  384.02
     95.9700	  699.00	  707.45	-1756.70	  383.81
     96.0700	  651.00	  708.33	-1805.58	  383.60
     96.1700	  755.00	  718.22	-1711.47	  383.39
     96.2700	  762.00	  737.82	-1724.07	  383.18
     96.3700	  777.00	  767.61	-1738.86	  382.97
     96.4700	  808.00	  807.73	-1747.98	  382.76
     96.5700	  864.00	  857.92	-1742.17	  382.55
     96.6700	  915.00	  917.44	-1750.69	  382.34
     96.7700	  988.00	  984.96	-1745.21	  382.12
     96.8700	 1046.00	 1058.54	-1760.79	  381.91
     96.9700	 1111.00	 1135.55	-1772.80	  381.69
     97.0700	 1177.00	 1212.72	-1783.97	  381.48
     97.1700	 1278.00	 1286.15	-1756.40	  381.26
     97.2700	 1340.00	 1351.46	-1759.71	  381.04
     97.3700	 1373.00	 1404.17	-1779.42	  380.82
     97.4700	 1429.00	 1440.16	-1759.41	  380.61
     97.5700	 1432.00	 1456.43	-1772.68	  380.39
     97.6700	 1431.00	 1451.82	-1769.07	  380.16
     97.7700	 1478.00	 1427.23	-1697.48	  379.94
     97.8700	 1412.00	 1385.38	-1721.63	  379.72
     97.9700	 1304.00	 1330.10	-1774.35	  379.50
     98.0700	 1250.00	 1265.68	-1763.93	  379.27
     98.1700	 1205.00	 1196.38	-1739.63	  379.05
     98.2700	 1118.00	 1126.16	-1756.41	  378.82
     98.3700	 1052.00	 1058.44	-1754.69	  378.60
     98.4700	  989.00	  996.20	-1755.45	  378.37
     98.5700	  920.00	  941.83	-1770.08	  378.15
     98.6700	  902.00	  897.29	-1743.54	  377.92
     98.7700	  824.00	  864.04	-1788.29	  377.69
     98.8700	  837.00	  843.23	-1754.48	  377.46
     98.9700	  788.00	  835.64	-1795.89	  377.23
     99.0700	  825.00	  841.77	-1765.02	  377.00
     99.1700	  868.00	  861.91	-1742.16	  376.77
     99.2700	  888.00	  896.15	-1756.40	  376.54
     99.3700	  922.00	  944.31	-1770.56	  376.31
     99.4700	  974.00	 1005.94	-1780.19	  376.08
     99.5700	 1129.00	 1080.25	-1699.50	  375.85
     99.6700	 1059.00	 1166.00	-1855.25	  375.62
     99.7700	 1247.00	 1261.40	-1762.65	  375.38
     99.8700	 1310.00	 1364.07	-1802.32	  375.15
     99.9700	 1488.00	 1470.95	-1731.20	  374.92
    100.0700	 1650.00	 1578.34	-1676.59	  374.68
    100.1700	 1718.00	 1682.06	-1712.31	  374.45
    100.2700	 1771.00	 1777.78	-1755.03	  374.22
    100.3700	 1798.00	 1861.43	-1811.68	  373.98
    100.4700	 2004.00	 1929.64	-1673.89	  373.75
    100.5700	 1883.00	 1979.99	-1845.24	  373.51
    100.6700	 2043.00	 2010.90	-1716.15	  373.28
    100.7700	 1985.00	 2021.44	-1784.69	  373.04
    100.8700	 2026.00	 2011.20	-1733.45	  372.81
    100.9700	 1994.00	 1980.53	-1734.78	  372.57
    101.0700	 1988.00	 1930.89	-1691.14	  372.34
    101.1700	 1840.00	 1865.06	-1773.31	  372.10
    101.2700	 1845.00	 1787.06	-1690.31	  371.86
    101.3700	 1692.00	 1701.65	-1757.90	  371.63
    101.4700	 1572.00	 1613.73	-1789.98	  371.39
    101.5700	 1510.00	 1527.75	-1766.00	  371.16
    101.6700	 1481.00	 1447.37	-1714.62	  370.92
    101.7700	 1383.00	 1375.27	-1740.52	  370.68
    101.8700	 1278.00	 1313.15	-1783.40	  370.45
    101.9700	 1245.00	 1261.68	-1764.93	  370.21
    102.0700	 1208.00	 1220.58	-1760.83	  369.98
    102.1700	 1207.00	 1188.74	-1729.99	  369.74
    102.2700	 1210.00	 1164.32	-1702.57	  369.51
    102.3700	 1172.00	 1144.99	-1721.24	  369.27
    102.4700	 1112.00	 1128.09	-1764.34	  369.03
    102.5700	 1069.00	 1111.00	-1790.25	  368.80
    102.6700	 1033.00	 1091.44	-1806.69	  368.56
    102.7700	 1022.00	 1067.81	-1794.06	  368.33
    102.8700	 1073.00	 1039.40	-1714.65	  368.10
    102.9700	  978.00	 1006.29	-1776.54	  367.86
    103.0700	  976.00	  969.22	-1741.47	  367.63
    103.1700	  891.00	  929.30	-1786.55	  367.40
    103.2700	  853.00	  887.80	-1783.05	  367.16
    103.3700	  863.00	  845.99	-1731.24	  366.93
    103.4700	  876.00	  805.05	-1677.30	  366.70
    103.5700	  789.00	  765.98	-1725.23	  366.47
    103.6700	  736.00	  729.60	-1741.85	  366.24
    103.7700	  675.00	  696.49	-1769.74	  366.00
    103.8700	  693.00	  667.03	-1722.28	  365.77
    103.9700	  673.00	  641.38	-1716.63	  365.54
    104.0700	  680.00	  619.52	-1687.77	  365.32
    104.1700	  614.00	  601.29	-1735.54	  365.09
    104.2700	  636.00	  586.40	-1698.65	  364.86
    104.3700	  590.00	  574.50	-1732.75	  364.63
    104.4700	  591.00	  565.22	-1722.47	  364.41
    104.5700	  564.00	  558.16	-1742.41	  364.18
    104.6700	  513.00	  552.96	-1788.21	  363.96
    104.7700	  569.00	  549.29	-1728.54	  363.73
    104.8700	  596.00	  546.86	-1699.11	  363.51
    104.9700	  562.00	  545.44	-1731.69	  363.29
    105.0700	  534.00	  544.84	-1759.09	  363.06
    105.1700	  521.00	  544.92	-1772.17	  362.84
    105.2700	  549.00	  545.58	-1744.83	  362.62
    105.3700	  567.00	  546.75	-1728.00	  362.40
    105.4700	  524.00	  548.44	-1772.69	  362.19
    105.5700	  556.00	  550.65	-1742.90	  361.97
    105.6700	  542.00	  553.44	-1759.69	  361.75
    105.7700	  521.00	  556.87	-1784.12	  361.54
    105.8700	  560.00	  561.01	-1749.26	  361.32
    105.9700	  548.00	  565.98	-1766.23	  361.11
    106.0700	  563.00	  571.80	-1757.05	  360.90
    106.1700	  620.00	  578.52	-1706.77	  360.69
    106.2700	  598.00	  586.11	-1736.36	  360.48
    106.3700	  579.00	  594.51	-1763.76	  360.27
    106.4700	  568.00	  603.58	-1783.83	  360.07
    106.5700	  580.00	  613.15	-1781.40	  359.86
    106.6700	  602.00	  622.98	-1769.23	  359.66
    106.7700	  634.00	  632.80	-1747.05	  359.45
    106.8700	  676.00	  642.29	-1714.54	  359.25
    106.9700	  646.00	  651.11	-1753.36	  359.05
    107.0700	  659.00	  658.94	-1748.19	  358.85
    107.1700	  679.00	  665.51	-1734.76	  358.66
    107.2700	  645.00	  670.62	-1773.87	  358.46
    107.3700	  727.00	  674.24	-1695.49	  358.27
    107.4700	  644.00	  676.46	-1780.71	  358.08
    107.5700	  650.00	  677.56	-1775.81	  357.88
    107.6700	  694.00	  677.86	-1732.11	  357.70
    107.7700	  668.00	  677.78	-1758.03	  357.51
    107.8700	  672.00	  677.67	-1753.92	  357.32
    107.9700	  712.00	  677.85	-1714.10	  357.14
    108.0700	  669.00	  678.55	-1757.80	  356.96
    108.1700	  662.00	  679.91	-1766.16	  356.78
    108.2700	  677.00	  681.93	-1753.18	  356.60
    108.3700	  688.00	  684.51	-1744.76	  356.42
    108.4700	  695.00	  687.44	-1740.69	  356.25
    108.5700	  671.00	  690.41	-1767.66	  356.07
    108.6700	  652.00	  693.04	-1789.29	  355.90
    108.7700	  649.00	  694.89	-1794.14	  355.73
    108.8700	  770.00	  695.52	-1673.77	  355.57
    108.9700	  722.00	  694.56	-1720.81	  355.40
    109.0700	  698.00	  691.74	-1741.99	  355.24
    109.1700	  711.00	  686.95	-1724.20	  355.08
    109.2700	  656.00	  680.26	-1772.51	  354.92
    109.3700	  654.00	  671.88	-1766.13	  354.77
    109.4700	  643.00	  662.10	-1767.35	  354.61
    109.5700	  687.00	  651.30	-1712.55	  354.46
    109.6700	  669.00	  639.86	-1719.11	  354.31
    109.7700	  645.00	  628.16	-1731.41	  354.17
    109.8700	  604.00	  616.53	-1760.78	  354.02
    109.9700	  613.00	  605.28	-1740.53	  353.88
    110.0700	  637.00	  594.66	-1705.91	  353.74
    110.1700	  614.00	  584.85	-1719.10	  353.61
    110.2700	  578.00	  576.01	-1746.26	  353.47
    110.3700	  553.00	  568.23	-1763.48	  353.34
    110.4700	  565.00	  561.55	-1744.80	  353.21
    110.5700	  526.00	  555.96	-1778.21	  353.09
    110.6700	  577.00	  551.43	-1722.68	  352.96
    110.7700	  520.00	  547.90	-1776.15	  352.84
    110.8700	  573.00	  545.29	-1720.54	  352.73
    110.9700	  558.00	  543.49	-1733.74	  352.61
    111.0700	  536.00	  542.42	-1754.67	  352.50
    111.1700	  558.00	  541.99	-1732.24	  352.39
    111.2700	  564.00	  542.08	-1726.33	  352.28
    111.3700	  560.00	  542.64	-1730.89	  352.18
    111.4700	  526.00	  543.58	-1765.83	  352.08
    111.5700	  526.00	  544.85	-1767.10	  351.99
    111.6700	  509.00	  546.39	-1785.64	  351.89
    111.7700	  513.00	  548.16	-1783.41	  351.80
    111.8700	  554.00	  550.15	-1744.40	  351.71
    111.9700	  568.00	  552.33	-1732.58	  351.63
    112.0700	  543.00	  554.70	-1759.95	  351.55
    112.1700	  553.00	  557.26	-1752.51	  351.47
    112.2700	  548.00	  560.03	-1760.28	  351.40
    112.3700	  532.00	  563.03	-1779.28	  351.33
    112.4700	  566.00	  566.29	-1748.54	  351.26
    112.5700	  570.00	  569.87	-1748.12	  351.20
    112.6700	  526.00	  573.81	-1796.06	  351.14
    112.7700	  575.00	  578.20	-1751.45	  351.08
    112.8700	  589.00	  583.12	-1742.37	  351.03
    112.9700	  611.00	  588.70	-1725.95	  350.98
    113.0700	  631.00	  595.09	-1712.34	  350.94
    113.1700	  592.00	  602.51	-1758.76	  350.90
    113.2700	  646.00	  611.22	-1713.47	  350.86
    113.3700	  692.00	  621.56	-1677.81	  350.83
    113.4700	  691.00	  633.97	-1691.22	  350.80
    113.5700	  677.00	  649.01	-1720.26	  350.77
    113.6700	  698.00	  667.36	-1717.61	  350.75
    113.7700	  748.00	  689.89	-1690.14	  350.73
    113.8700	  759.00	  717.61	-1706.86	  350.72
    113.9700	  776.00	  751.77	-1724.02	  350.71
    114.0700	  869.00	  793.80	-1673.05	  350.71
    114.1700	  870.00	  845.43	-1723.68	  350.71
    114.2700	  965.00	  908.50	-1691.75	  350.71
    114.3700	 1058.00	  985.12	-1675.37	  350.72
    114.4700	 1173.00	 1077.50	-1652.75	  350.73
    114.5700	 1220.00	 1188.00	-1716.25	  350.75
    114.6700	 1429.00	 1318.98	-1638.23	  350.77
    114.7700	 1655.00	 1472.70	-1565.95	  350.80
    114.8700	 1821.00	 1651.21	-1578.46	  350.83
    114.9700	 1957.00	 1856.16	-1647.41	  350.86
    115.0700	 2231.00	 2088.75	-1606.00	  350.90
    115.1700	 2396.00	 2349.53	-1701.78	  350.95
    115.2700	 2616.00	 2638.14	-1770.39	  351.00
    115.3700	 2945.00	 2953.27	-1756.52	  351.05
    115.4700	 3375.00	 3292.48	-1665.73	  351.11
    115.5700	 3647.00	 3652.25	-1753.50	  351.18
    115.6700	 3975.00	 4027.82	-1801.07	  351.25
    115.7700	 4285.00	 4413.11	-1876.36	  351.32
    115.8700	 4624.00	 4800.84	-1925.09	  351.40
    115.9700	 5057.00	 5182.56	-1873.81	  351.49
    116.0700	 5403.00	 5548.92	-1894.17	  351.58
    116.1700	 5844.00	 5889.77	-1794.02	  351.67
    116.2700	 6038.00	 6194.36	-1904.61	  351.77
    116.3700	 6284.00	 6452.04	-1916.29	  351.88
    116.4700	 6585.00	 6652.84	-1816.09	  351.99
    116.5700	 6737.00	 6788.40	-1799.65	  352.11
    116.6700	 6804.00	 6852.78	-1797.03	  352.23
    116.7700	 6993.00	 6843.16	-1598.41	  352.36
    116.8700	 6676.00	 6760.31	-1832.56	  352.49
    116.9700	 6706.00	 6608.44	-1650.69	  352.63
    117.0700	 6264.00	 6394.63	-1878.88	  352.78
    117.1700	 6175.00	 6127.92	-1701.17	  352.93
    117.2700	 5668.00	 5818.63	-1898.88	  353.08
    117.3700	 5375.00	 5477.36	-1850.61	  353.25
    117.4700	 5043.00	 5114.58	-1819.83	  353.42
    117.5700	 4797.00	 4739.96	-1691.21	  353.59
    117.6700	 4457.00	 4362.28	-1653.53	  353.77
    117.7700	 4145.00	 3989.34	-1592.59	  353.96
    117.8700	 3771.00	 3627.67	-1604.92	  354.15
    117.9700	 3386.00	 3282.66	-1644.91	  354.35
    118.0700	 3161.00	 2958.34	-1545.59	  354.56
    118.1700	 2709.00	 2657.60	-1696.85	  354.77
    118.2700	 2399.00	 2382.33	-1731.58	  354.99
    118.3700	 2125.00	 2133.40	-1756.65	  355.21
    118.4700	 1995.00	 1910.85	-1664.10	  355.45
    118.5700	 1726.00	 1713.99	-1736.24	  355.68
    118.6700	 1620.00	 1541.54	-1669.79	  355.93
    118.7700	 1347.00	 1391.92	-1793.17	  356.18
    118.8700	 1238.00	 1263.18	-1773.43	  356.44
    118.9700	 1077.00	 1153.28	-1824.53	  356.70
    119.0700	 1026.00	 1060.05	-1782.30	  356.98
    119.1700	  911.00	  981.41	-1818.66	  357.26
    119.2700	  871.00	  915.38	-1792.63	  357.54
    119.3700	  787.00	  860.11	-1821.36	  357.83
    119.4700	  823.00	  813.98	-1739.23	  358.14
    119.5700	  711.00	  775.51	-1812.76	  358.44
    119.6700	  687.00	  743.42	-1804.67	  358.76
    119.7700	  664.00	  716.66	-1800.91	  359.08
    119.8700	  656.00	  694.30	-1786.55	  359.41
    119.9700	  693.00	  675.61	-1730.86	  359.75
    120.0700	  606.00	  659.95	-1802.20	  360.09
    120.1700	  602.00	  646.83	-1793.08	  360.44
    120.2700	  575.00	  635.84	-1809.09	  360.80
    120.3700	  570.00	  626.65	-1804.90	  361.17
    120.4700	  623.00	  619.01	-1744.26	  361.55
    120.5700	  580.00	  612.69	-1780.94	  361.93
    120.6700	  603.00	  607.54	-1752.79	  362.32
    120.7700	  603.00	  603.42	-1748.67	  362.72
    120.8700	  560.00	  600.22	-1788.47	  363.13
    120.9700	  571.00	  597.87	-1775.12	  363.54
    121.0700	  558.00	  596.29	-1786.54	  363.96
    121.1700	  633.00	  595.42	-1710.67	  364.40
    121.2700	  593.00	  595.21	-1750.46	  364.84
    121.3700	  513.00	  595.60	-1830.85	  365.28
    121.4700	  582.00	  596.55	-1762.80	  365.74
    121.5700	  576.00	  598.01	-1770.26	  366.20
    121.6700	  575.00	  599.93	-1773.18	  366.68
    121.7700	  595.00	  602.23	-1755.48	  367.16
    121.8700	  605.00	  604.87	-1748.12	  367.65
    121.9700	  605.00	  607.76	-1751.01	  368.15
    122.0700	  650.00	  610.84	-1709.09	  368.66
    122.1700	  594.00	  614.01	-1768.26	  369.18
    122.2700	  612.00	  617.19	-1753.44	  369.70
    122.3700	  648.00	  620.28	-1720.53	  370.24
    122.4700	  654.00	  623.18	-1717.43	  370.78
    122.5700	  642.00	  625.82	-1732.07	  371.34
    122.6700	  655.00	  628.10	-1721.35	  371.90
    122.7700	  648.00	  629.95	-1730.20	  372.47
    122.8700	  641.00	  631.30	-1738.55	  373.05
    122.9700	  643.00	  632.13	-1737.38	  373.64
    123.0700	  694.00	  632.40	-1686.65	  374.24
    123.1700	  664.00	  632.13	-1716.38	  374.85
    123.2700	  676.00	  631.34	-1703.59	  375.47
    123.3700	  591.00	  630.09	-1787.34	  376.10
    123.4700	  607.00	  628.43	-1769.68	  376.74
    123.5700	  633.00	  626.40	-1741.65	  377.39
    123.6700	  650.00	  624.10	-1722.35	  378.05
    123.7700	  629.00	  621.58	-1740.83	  378.72
    123.8700	  614.00	  618.91	-1753.16	  379.40
    123.9700	  662.00	  616.14	-1702.39	  380.08
    124.0700	  618.00	  613.34	-1743.59	  380.78
    124.1700	  564.00	  610.56	-1794.81	  381.49
    124.2700	  611.00	  607.84	-1745.09	  382.21
    124.3700	  607.00	  605.22	-1746.47	  382.94
    124.4700	  651.00	  602.73	-1699.98	  383.68
    124.5700	  623.00	  600.40	-1725.65	  384.44
    124.6700	  601.00	  598.25	-1745.50	  385.20
    124.7700	  598.00	  596.29	-1746.54	  385.97
    124.8700	  620.00	  594.55	-1722.80	  386.76
    124.9700	  537.00	  504.45	-1715.70	  387.55
    125.0700	  560.00	  505.26	-1748.25	  388.36
    125.1700	  568.00	  506.07	-1748.25	  389.17
    125.2700	  595.00	  506.90	-1748.25	  390.00
    125.3700	  533.00	  507.74	-1748.25	  390.84
    125.4700	  545.00	  508.59	-1748.25	  391.69
    125.5700	  582.00	  509.45	-1748.25	  392.55
    125.6700	  550.00	  510.33	-1748.25	  393.42
    125.7700	  557.00	  511.21	-1748.25	  394.31
    125.8700	  631.00	  512.11	-1748.25	  395.21
    125.9700	  570.00	  513.02	-1748.25	  396.11
    126.0700	  546.00	  513.94	-1748.25	  397.03
    126.1700	  587.00	  514.87	-1748.25	  397.96
    126.2700	  573.00	  515.81	-1748.25	  398.91
    126.3700	  626.00	  516.77	-1748.25	  399.86
    126.4700	  560.00	  517.73	-1748.25	  400.83
    126.5700	  603.00	  518.71	-1748.25	  401.81
    126.6700	  618.00	  519.70	-1748.25	  402.80
    126.7700	  634.00	  520.71	-1748.25	  403.81
    126.8700	  611.00	  521.73	-1748.25	  404.82
    126.9700	  656.00	  522.75	-1748.25	  405.85
    127.0700	  619.00	  523.80	-1748.25	  406.89
    127.1700	  632.00	  524.85	-1748.25	  407.95
    127.2700	  651.00	  525.92	-1748.25	  409.02
    127.3700	  653.00	  527.00	-1748.25	  410.09
    127.4700	  690.00	  528.09	-1748.25	  411.19
    127.5700	  646.00	  529.20	-1748.25	  412.29
    127.6700	  712.00	  530.31	-1748.25	  413.41
    127.7700	  755.00	  531.45	-1748.25	  414.54
    127.8700	  698.00	  532.59	-1748.25	  415.69
    127.9700	  702.00	  533.75	-1748.25	  416.85
    128.0700	  770.00	  534.92	-1748.25	  418.02
    128.1700	  782.00	  536.11	-1748.25	  419.20
    128.2700	  756.00	  537.31	-1748.25	  420.40
    128.3700	  770.00	  538.52	-1748.25	  421.62
    128.4700	  821.00	  539.74	-1748.25	  422.84
    128.5700	    0.00	  540.98	-1748.25	  424.08
    128.6700	    0.00	  542.24	-1748.25	  425.34
     12.3030	        	        	        	        	       0	(  0  0  2)	  0  1
     24.8859	        	        	        	        	       0	(  0  0  4)	  0  1
     28.3360	        	        	        	        	       0	(  1  0  0)	  0  1
     29.0330	        	        	        	        	       0	(  1  0  1)	  0  1
     31.0387	        	        	        	        	       0	(  1  0  2)	  0  1
     34.1463	        	        	        	        	       0	(  1  0  3)	  0  1
     37.7848	        	        	        	        	       0	(  0  0  6)	  0  1
     38.1226	        	        	        	        	       0	(  1  0  4)	  0  1
     42.7720	        	        	        	        	       0	(  1  0  5)	  0  1
     47.9553	        	        	        	        	       0	(  1  0  6)	  0  1
     50.2796	        	        	        	        	       0	(  1  1  0)	  0  1
     51.2058	        	        	        	        	       0	(  0  0  8)	  0  1
     52.0022	        	        	        	        	       0	(  1  1  2)	  0  1
     53.5851	        	        	        	        	       0	(  1  0  7)	  0  1
     56.9489	        	        	        	        	       0	(  1  1  4)	  0  1
     58.7794	        	        	        	        	       0	(  2  0  0)	  0  1
     59.1709	        	        	        	        	       0	(  2  0  1)	  0  1
     59.6149	        	        	        	        	       0	(  1  0  8)	  0  1
     60.3360	        	        	        	        	       0	(  2  0  2)	  0  1
     62.2489	        	        	        	        	       0	(  2  0  3)	  0  1
     64.6423	        	        	        	        	       0	(  1  1  6)	  0  1
     64.8724	        	        	        	        	       0	(  2  0  4)	  0  1
     65.4340	        	        	        	        	       0	(  0  0 10)	  0  1
     66.0305	        	        	        	        	       0	(  1  0  9)	  0  1
     68.1661	        	        	        	        	       0	(  2  0  5)	  0  1
     72.0930	        	        	        	        	       0	(  2  0  6)	  0  1
     72.8460	        	        	        	        	       0	(  1  0 10)	  0  1
     74.6786	        	        	        	        	       0	(  1  1  8)	  0  1
     76.6264	        	        	        	        	       0	(  2  0  7)	  0  1
     80.1029	        	        	        	        	       0	(  1  0 11)	  0  1
     80.9131	        	        	        	        	       0	(  0  0 12)	  0  1
     81.0296	        	        	        	        	       0	(  2  1  0)	  0  1
     81.3694	        	        	        	        	       0	(  2  1  1)	  0  1
     81.7561	        	        	        	        	       0	(  2  0  8)	  0  1
     82.3872	        	        	        	        	       0	(  2  1  2)	  0  1
     84.0783	        	        	        	        	       0	(  2  1  3)	  0  1
     86.4377	        	        	        	        	       0	(  2  1  4)	  0  1
     86.9486	        	        	        	        	       0	(  1  1 10)	  0  1
     87.4935	        	        	        	        	       0	(  2  0  9)	  0  1
     87.8764	        	        	        	        	       0	(  1  0 12)	  0  1
     89.4632	        	        	        	        	       0	(  2  1  5)	  0  1
     93.1604	        	        	        	        	       0	(  2  1  6)	  0  1
     93.8804	        	        	        	        	       0	(  2  0 10)	  0  1
     94.9257	        	        	        	        	       0	(  3  0  0)	  0  1
     95.2631	        	        	        	        	       0	(  3  0  1)	  0  1
     96.2888	        	        	        	        	       0	(  1  0 13)	  0  1
     96.2763	        	        	        	        	       0	(  3  0  2)	  0  1
     97.5488	        	        	        	        	       0	(  2  1  7)	  0  1
     97.9696	        	        	        	        	       0	(  3  0  3)	  0  1
     98.4507	        	        	        	        	       0	(  0  0 14)	  0  1
    100.3527	        	        	        	        	       0	(  3  0  4)	  0  1
    101.0019	        	        	        	        	       0	(  2  0 11)	  0  1
    101.8178	        	        	        	        	       0	(  1  1 12)	  0  1
    102.6713	        	        	        	        	       0	(  2  1  8)	  0  1
    103.4444	        	        	        	        	       0	(  3  0  5)	  0  1
    105.5406	        	        	        	        	       0	(  1  0 14)	  0  1
    107.2798	        	        	        	        	       0	(  3  0  6)	  0  1
    108.6083	        	        	        	        	       0	(  2  1  9)	  0  1
    109.0129	        	        	        	        	       0	(  2  0 12)	  0  1
    111.9208	        	        	        	        	       0	(  3  0  7)	  0  1
    115.5058	        	        	        	        	       0	(  2  1 10)	  0  1
    115.9830	        	        	        	        	       0	(  1  0 15)	  0  1
    116.6674	        	        	        	        	       0	(  2  2  0)	  0  1
    117.4753	        	        	        	        	       0	(  3  0  8)	  0  1
    118.1973	        	        	        	        	       0	(  2  0 13)	  0  1
    118.1831	        	        	        	        	       0	(  2  2  2)	  0  1
    119.9363	        	        	        	        	       0	(  0  0 16)	  0  1
    120.6614	        	        	        	        	       0	(  1  1 14)	  0  1
    122.8708	        	        	        	        	       0	(  2  2  4)	  0  1
    123.6345	        	        	        	        	       0	(  2  1 11)	  0  1
    124.1373	        	        	        	        	       0	(  3  0  9)	  0  1
    124.7417	        	        	        	        	       0	(  3  1  0)	  0  1
    125.1522	        	        	        	        	       0	(  3  1  1)	  0  1
    126.3965	        	        	        	        	       0	(  3  1  2)	  0  1
    128.3255	        	        	        	        	       0	(  1  0 16)	  0  1
    128.5163	        	        	        	        	       0	(  3  1  3)	  0  1
    129.1284	        	        	        	        	       0	(  2  0 14)	  0  1
    131.3162	        	        	        	        	       0	(  2  2  6)	  0  1
    131.5949	        	        	        	        	       0	(  3  1  4)	  0  1
    132.2821	        	        	        	        	       0	(  3  0 10)	  0  1
    133.5506	        	        	        	        	       0	(  2  1 12)	  0  1
    135.7863	        	        	        	        	       0	(  3  1  5)	  0  1
    141.3897	        	        	        	        	       0	(  3  1  6)	  0  1
    142.7705	        	        	        	        	       0	(  3  0 11)	  0  1
    143.2737	        	        	        	        	       0	(  2  0 15)	  0  1
    144.4967	        	        	        	        	       0	(  1  0 17)	  0  1
    145.5693	        	        	        	        	       0	(  2  2  8)	  0  1
    146.7179	        	        	        	        	       0	(  2  1 13)	  0  1
    149.0796	        	        	        	        	       0	(  3  1  7)	  0  1
    149.6064	        	        	        	        	       0	(  1  1 16)	  0  1
    153.9901	        	        	        	        	       0	(  0  0 18)	  0  1
    158.6896	        	        	        	        	       0	(  3  0 12)	  0  1
    159.0104	        	        	        	        	       0	(  4  0  0)	  0  1
    159.9752	        	        	        	        	       0	(  4  0  1)	  0  1
    161.1320	        	        	        	        	       0	(  3  1  8)	  0  1
    163.1874	        	        	        	        	       0	(  4  0  2)	  0  1
    169.8090	        	        	        	        	       0	(  2  0 16)	  0  1
    170.7027	        	        	        	        	       0	(  4  0  3)	  0  1
    174.4537	        	        	        	        	       0	(  2  1 14)	  0  1
