MSG Master    CELL:    5.91599   5.91599  23.25157   90.0000   90.0000  120.0000   SPGR: P 63/m m c             TEMP:   1012.35
  1   1280     2.52000     0.00000    -0.12359     0.00000     0.00000    0
    99     0     2
       0.00000      10.00000
     125.00000     130.00000
 2Theta	Yobs	Ycal	Yobs-Ycal	Backg	Posr	(hkl)	K
      0.7700	    0.00	  563.69	-1819.00	  449.52
      0.8700	    0.00	  564.24	-1819.00	  450.07
      0.9700	   38.00	  564.78	-1819.00	  450.61
      1.0700	   46.00	  565.31	-1819.00	  451.14
      1.1700	   36.00	  565.83	-1819.00	  451.66
      1.2700	   51.00	  566.34	-1819.00	  452.17
      1.3700	   46.00	  566.84	-1819.00	  452.67
      1.4700	  102.00	  567.34	-1819.00	  453.16
      1.5700	  289.00	  567.82	-1819.00	  453.65
      1.6700	  447.00	  568.29	-1819.00	  454.12
      1.7700	  615.00	  568.76	-1819.00	  454.58
      1.8700	  682.00	  569.21	-1819.00	  455.04
      1.9700	  773.00	  569.66	-1819.00	  455.49
      2.0700	  754.00	  570.10	-1819.00	  455.92
      2.1700	  788.00	  570.52	-1819.00	  456.35
      2.2700	  787.00	  570.94	-1819.00	  456.77
      2.3700	  725.00	  571.35	-1819.00	  457.18
      2.4700	  737.00	  571.76	-1819.00	  457.58
      2.5700	  710.00	  572.15	-1819.00	  457.98
      2.6700	  695.00	  572.53	-1819.00	  458.36
      2.7700	  627.00	  572.91	-1819.00	  458.74
      2.8700	  681.00	  573.28	-1819.00	  459.11
      2.9700	  607.00	  573.64	-1819.00	  459.46
      3.0700	  600.00	  573.99	-1819.00	  459.82
      3.1700	  580.00	  574.33	-1819.00	  460.16
      3.2700	  604.00	  574.66	-1819.00	  460.49
      3.3700	  694.00	  574.99	-1819.00	  460.82
      3.4700	  763.00	  575.31	-1819.00	  461.14
      3.5700	  806.00	  575.62	-1819.00	  461.45
      3.6700	  858.00	  575.92	-1819.00	  461.75
      3.7700	  906.00	  576.22	-1819.00	  462.04
      3.8700	  966.00	  576.50	-1819.00	  462.33
      3.9700	 1006.00	  576.78	-1819.00	  462.61
      4.0700	 1019.00	  577.05	-1819.00	  462.88
      4.1700	 1067.00	  577.31	-1819.00	  463.14
      4.2700	 1097.00	  577.57	-1819.00	  463.40
      4.3700	 1089.00	  577.82	-1819.00	  463.65
      4.4700	 1139.00	  578.06	-1819.00	  463.89
      4.5700	 1043.00	  578.29	-1819.00	  464.12
      4.6700	 1024.00	  578.52	-1819.00	  464.34
      4.7700	  969.00	  578.73	-1819.00	  464.56
      4.8700	  963.00	  578.95	-1819.00	  464.77
      4.9700	  944.00	  579.15	-1819.00	  464.98
      5.0700	  961.00	  579.35	-1819.00	  465.17
      5.1700	  946.00	  579.53	-1819.00	  465.36
      5.2700	  908.00	  579.72	-1819.00	  465.55
      5.3700	  862.00	  579.89	-1819.00	  465.72
      5.4700	  877.00	  580.06	-1819.00	  465.89
      5.5700	  850.00	  580.22	-1819.00	  466.05
      5.6700	  845.00	  580.38	-1819.00	  466.21
      5.7700	  819.00	  580.53	-1819.00	  466.35
      5.8700	  797.00	  580.67	-1819.00	  466.50
      5.9700	  850.00	  580.80	-1819.00	  466.63
      6.0700	  822.00	  580.93	-1819.00	  466.76
      6.1700	  819.00	  581.05	-1819.00	  466.88
      6.2700	  779.00	  581.17	-1819.00	  467.00
      6.3700	  725.00	  581.28	-1819.00	  467.10
      6.4700	  731.00	  581.38	-1819.00	  467.21
      6.5700	  734.00	  581.48	-1819.00	  467.30
      6.6700	  764.00	  581.57	-1819.00	  467.39
      6.7700	  796.00	  581.65	-1819.00	  467.48
      6.8700	  728.00	  581.73	-1819.00	  467.55
      6.9700	  703.00	  581.80	-1819.00	  467.63
      7.0700	  705.00	  581.86	-1819.00	  467.69
      7.1700	  660.00	  581.92	-1819.00	  467.75
      7.2700	  689.00	  581.98	-1819.00	  467.80
      7.3700	  667.00	  582.02	-1819.00	  467.85
      7.4700	  638.00	  582.07	-1819.00	  467.89
      7.5700	  606.00	  582.10	-1819.00	  467.93
      7.6700	  645.00	  582.13	-1819.00	  467.96
      7.7700	  630.00	  582.16	-1819.00	  467.98
      7.8700	  606.00	  582.18	-1819.00	  468.00
      7.9700	  614.00	  582.19	-1819.00	  468.02
      8.0700	  632.00	  582.20	-1819.00	  468.02
      8.1700	  612.00	  582.20	-1819.00	  468.03
      8.2700	  673.00	  582.20	-1819.00	  468.02
      8.3700	  605.00	  582.19	-1819.00	  468.02
      8.4700	  612.00	  582.17	-1819.00	  468.00
      8.5700	  605.00	  582.15	-1819.00	  467.98
      8.6700	  606.00	  582.13	-1819.00	  467.96
      8.7700	  639.00	  582.10	-1819.00	  467.93
      8.8700	  638.00	  582.07	-1819.00	  467.89
      8.9700	  650.00	  582.03	-1819.00	  467.86
      9.0700	  612.00	  581.98	-1819.00	  467.81
      9.1700	  665.00	  581.93	-1819.00	  467.76
      9.2700	  620.00	  581.88	-1819.00	  467.71
      9.3700	  611.00	  581.82	-1819.00	  467.65
      9.4700	  632.00	  581.76	-1819.00	  467.58
      9.5700	  604.00	  581.69	-1819.00	  467.51
      9.6700	  634.00	  581.61	-1819.00	  467.44
      9.7700	  646.00	  581.53	-1819.00	  467.36
      9.8700	  627.00	  581.45	-1819.00	  467.28
      9.9700	  589.00	  581.36	-1819.00	  467.19
     10.0700	  648.00	  582.18	-1753.18	  467.10
     10.1700	  600.00	  582.18	-1801.18	  467.00
     10.2700	  566.00	  582.19	-1835.19	  466.90
     10.3700	  596.00	  582.22	-1805.22	  466.80
     10.4700	  597.00	  582.32	-1804.32	  466.69
     10.5700	  595.00	  582.51	-1806.51	  466.57
     10.6700	  578.00	  582.90	-1823.90	  466.46
     10.7700	  594.00	  583.58	-1808.58	  466.33
     10.8700	  573.00	  584.65	-1830.65	  466.21
     10.9700	  566.00	  586.09	-1839.09	  466.07
     11.0700	  592.00	  587.89	-1814.89	  465.94
     11.1700	  572.00	  590.03	-1837.03	  465.80
     11.2700	  597.00	  592.55	-1814.55	  465.66
     11.3700	  644.00	  595.51	-1770.51	  465.51
     11.4700	  555.00	  599.04	-1863.04	  465.36
     11.5700	  591.00	  603.33	-1831.33	  465.21
     11.6700	  588.00	  608.69	-1839.69	  465.05
     11.7700	  636.00	  615.70	-1798.70	  464.88
     11.8700	  671.00	  625.16	-1773.16	  464.72
     11.9700	  626.00	  637.68	-1830.68	  464.55
     12.0700	  632.00	  652.02	-1839.02	  464.38
     12.1700	  692.00	  662.98	-1789.98	  464.20
     12.2700	  689.00	  661.73	-1791.73	  464.02
     12.3700	  676.00	  643.92	-1786.92	  463.83
     12.4700	  618.00	  619.74	-1820.74	  463.65
     12.5700	  646.00	  600.78	-1773.78	  463.46
     12.6700	  561.00	  589.75	-1847.75	  463.26
     12.7700	  606.00	  584.40	-1797.40	  463.06
     12.8700	  610.00	  581.89	-1790.89	  462.86
     12.9700	  548.00	  580.51	-1851.51	  462.66
     13.0700	  568.00	  579.58	-1830.58	  462.45
     13.1700	  577.00	  578.86	-1820.86	  462.24
     13.2700	  522.00	  578.27	-1875.27	  462.03
     13.3700	  567.00	  577.76	-1829.76	  461.81
     13.4700	  538.00	  577.31	-1858.31	  461.59
     13.5700	  571.00	  576.91	-1824.91	  461.37
     13.6700	  584.00	  576.54	-1811.54	  461.14
     13.7700	  607.00	  576.19	-1788.19	  460.91
     13.8700	  546.00	  575.86	-1848.86	  460.68
     13.9700	  601.00	  575.54	-1793.54	  460.45
     14.0700	  566.00	  575.23	-1828.23	  460.21
     14.1700	  563.00	  574.93	-1830.93	  459.97
     14.2700	  567.00	  574.63	-1826.63	  459.72
     14.3700	  573.00	  574.34	-1820.34	  459.48
     14.4700	  520.00	  574.05	-1873.05	  459.23
     14.5700	  569.00	  573.77	-1823.77	  458.98
     14.6700	  556.00	  573.48	-1836.48	  458.72
     14.7700	  550.00	  573.20	-1842.20	  458.47
     14.8700	  571.00	  572.92	-1820.92	  458.21
     14.9700	  548.00	  572.63	-1843.63	  457.95
     15.0700	  579.00	  572.35	-1812.35	  457.68
     15.1700	  553.00	  572.06	-1838.06	  457.42
     15.2700	  618.00	  571.78	-1772.78	  457.15
     15.3700	  589.00	  571.49	-1801.49	  456.88
     15.4700	  576.00	  571.21	-1814.21	  456.61
     15.5700	  593.00	  570.92	-1796.92	  456.33
     15.6700	  538.00	  570.63	-1851.63	  456.05
     15.7700	  570.00	  570.34	-1819.34	  455.77
     15.8700	  554.00	  570.05	-1835.05	  455.49
     15.9700	  544.00	  569.78	-1844.78	  455.21
     16.0700	  575.00	  569.49	-1813.49	  454.92
     16.1700	  550.00	  569.19	-1838.19	  454.63
     16.2700	  587.00	  568.90	-1800.90	  454.34
     16.3700	  536.00	  568.60	-1851.60	  454.05
     16.4700	  580.00	  568.30	-1807.30	  453.75
     16.5700	  547.00	  568.00	-1840.00	  453.46
     16.6700	  545.00	  567.70	-1841.70	  453.16
     16.7700	  554.00	  567.39	-1832.39	  452.86
     16.8700	  526.00	  567.09	-1860.09	  452.56
     16.9700	  590.00	  566.78	-1795.78	  452.25
     17.0700	  548.00	  566.47	-1837.47	  451.95
     17.1700	  575.00	  566.16	-1810.16	  451.64
     17.2700	  588.00	  565.85	-1796.85	  451.33
     17.3700	  566.00	  565.54	-1818.54	  451.02
     17.4700	  561.00	  565.22	-1823.22	  450.71
     17.5700	  614.00	  564.91	-1769.91	  450.40
     17.6700	  566.00	  564.59	-1817.59	  450.08
     17.7700	  589.00	  564.27	-1794.27	  449.76
     17.8700	  575.00	  563.95	-1807.95	  449.45
     17.9700	  551.00	  563.73	-1831.73	  449.13
     18.0700	  544.00	  563.41	-1838.41	  448.80
     18.1700	  527.00	  563.09	-1855.09	  448.48
     18.2700	  552.00	  562.77	-1829.77	  448.16
     18.3700	  552.00	  562.44	-1829.44	  447.83
     18.4700	  542.00	  562.12	-1839.12	  447.51
     18.5700	  611.00	  561.79	-1769.79	  447.18
     18.6700	  581.00	  561.47	-1799.47	  446.85
     18.7700	  573.00	  561.14	-1807.14	  446.52
     18.8700	  541.00	  560.91	-1838.91	  446.19
     18.9700	  567.00	  560.58	-1812.58	  445.85
     19.0700	  568.00	  560.25	-1811.25	  445.52
     19.1700	  589.00	  559.92	-1789.92	  445.19
     19.2700	  574.00	  559.59	-1804.59	  444.85
     19.3700	  564.00	  559.26	-1814.26	  444.51
     19.4700	  528.00	  558.93	-1849.93	  444.17
     19.5700	  556.00	  558.60	-1821.60	  443.84
     19.6700	  579.00	  558.27	-1798.27	  443.50
     19.7700	  581.00	  557.94	-1795.94	  443.15
     19.8700	  540.00	  557.60	-1836.60	  442.81
     19.9700	  594.00	  557.27	-1782.27	  442.47
     20.0700	  578.00	  556.93	-1797.93	  442.13
     20.1700	  499.00	  556.60	-1876.60	  441.78
     20.2700	  552.00	  556.27	-1823.27	  441.44
     20.3700	  561.00	  555.93	-1813.93	  441.09
     20.4700	  566.00	  555.56	-1808.56	  440.74
     20.5700	  533.00	  555.23	-1841.23	  440.40
     20.6700	  552.00	  554.89	-1821.89	  440.05
     20.7700	  550.00	  554.59	-1823.59	  439.70
     20.8700	  540.00	  554.26	-1833.26	  439.35
     20.9700	  541.00	  553.93	-1831.93	  439.00
     21.0700	  564.00	  553.59	-1808.59	  438.65
     21.1700	  570.00	  553.26	-1802.26	  438.30
     21.2700	  529.00	  552.93	-1842.93	  437.95
     21.3700	  569.00	  552.60	-1802.60	  437.59
     21.4700	  585.00	  552.27	-1786.27	  437.24
     21.5700	  534.00	  551.94	-1836.94	  436.89
     21.6700	  504.00	  551.61	-1866.61	  436.54
     21.7700	  565.00	  551.29	-1805.29	  436.18
     21.8700	  552.00	  550.96	-1817.96	  435.83
     21.9700	  559.00	  550.64	-1810.64	  435.47
     22.0700	  554.00	  550.32	-1815.32	  435.12
     22.1700	  547.00	  550.00	-1822.00	  434.76
     22.2700	  543.00	  549.69	-1825.69	  434.41
     22.3700	  563.00	  549.38	-1805.38	  434.05
     22.4700	  583.00	  549.07	-1785.07	  433.70
     22.5700	  589.00	  548.77	-1778.77	  433.34
     22.6700	  544.00	  548.48	-1823.48	  432.98
     22.7700	  537.00	  548.19	-1830.19	  432.63
     22.8700	  553.00	  547.91	-1813.91	  432.27
     22.9700	  525.00	  547.64	-1841.64	  431.91
     23.0700	  598.00	  547.38	-1768.38	  431.56
     23.1700	  511.00	  547.13	-1855.13	  431.20
     23.2700	  548.00	  546.91	-1817.91	  430.84
     23.3700	  496.00	  546.71	-1869.71	  430.49
     23.4700	  508.00	  546.55	-1857.55	  430.13
     23.5700	  520.00	  546.56	-1845.56	  429.77
     23.6700	  574.00	  546.50	-1791.50	  429.41
     23.7700	  576.00	  546.55	-1789.55	  429.06
     23.8700	  569.00	  546.77	-1796.77	  428.70
     23.9700	  561.00	  547.34	-1805.34	  428.34
     24.0700	  535.00	  548.60	-1832.60	  427.99
     24.1700	  526.00	  551.10	-1844.10	  427.63
     24.2700	  577.00	  555.56	-1797.56	  427.28
     24.3700	  587.00	  562.81	-1794.81	  426.92
     24.4700	  602.00	  573.74	-1790.74	  426.56
     24.5700	  504.00	  588.71	-1903.71	  426.21
     24.6700	  577.00	  606.01	-1848.01	  425.85
     24.7700	  634.00	  619.94	-1804.94	  425.50
     24.8700	  616.00	  621.50	-1824.50	  425.14
     24.9700	  612.00	  606.36	-1813.36	  424.79
     25.0700	  590.00	  583.80	-1812.80	  424.43
     25.1700	  559.00	  564.93	-1824.93	  424.08
     25.2700	  513.00	  553.24	-1859.24	  423.73
     25.3700	  591.00	  547.28	-1775.28	  423.37
     25.4700	  513.00	  544.48	-1850.48	  423.02
     25.5700	  544.00	  543.03	-1818.03	  422.67
     25.6700	  526.00	  542.13	-1835.13	  422.32
     25.7700	  548.00	  541.48	-1812.48	  421.97
     25.8700	  521.00	  540.99	-1838.99	  421.62
     25.9700	  546.00	  540.62	-1813.62	  421.27
     26.0700	  552.00	  540.34	-1807.34	  420.92
     26.1700	  523.00	  540.13	-1836.13	  420.57
     26.2700	  569.00	  540.01	-1790.01	  420.22
     26.3700	  572.00	  539.97	-1786.97	  419.87
     26.4700	  562.00	  540.01	-1797.01	  419.52
     26.5700	  547.00	  540.14	-1812.14	  419.18
     26.6700	  539.00	  540.38	-1820.38	  418.83
     26.7700	  529.00	  540.76	-1830.76	  418.48
     26.8700	  586.00	  541.31	-1774.31	  418.14
     26.9700	  585.00	  542.06	-1776.06	  417.80
     27.0700	  539.00	  543.11	-1823.11	  417.45
     27.1700	  574.00	  544.56	-1789.56	  417.11
     27.2700	  579.00	  546.62	-1786.62	  416.77
     27.3700	  578.00	  549.73	-1790.73	  416.43
     27.4700	  494.00	  554.74	-1879.74	  416.09
     27.5700	  593.00	  563.19	-1789.19	  415.75
     27.6700	  549.00	  577.56	-1847.56	  415.41
     27.7700	  584.00	  601.19	-1836.19	  415.07
     27.8700	  565.00	  637.30	-1891.30	  414.73
     27.9700	  708.00	  686.70	-1797.70	  414.40
     28.0700	  752.00	  744.90	-1811.90	  414.06
     28.1700	  883.00	  799.16	-1735.16	  413.73
     28.2700	  918.00	  828.73	-1729.73	  413.39
     28.3700	  902.00	  817.49	-1734.49	  413.06
     28.4700	  861.00	  780.41	-1738.41	  412.73
     28.5700	  731.00	  752.71	-1840.71	  412.40
     28.6700	  700.00	  754.06	-1873.06	  412.07
     28.7700	  761.00	  782.32	-1840.32	  411.74
     28.8700	  789.00	  818.49	-1848.49	  411.41
     28.9700	  897.00	  832.70	-1754.70	  411.08
     29.0700	  798.00	  800.90	-1821.90	  410.75
     29.1700	  735.00	  733.66	-1817.66	  410.43
     29.2700	  667.00	  664.04	-1816.04	  410.11
     29.3700	  575.00	  611.32	-1855.32	  409.78
     29.4700	  612.00	  578.28	-1785.28	  409.46
     29.5700	  640.00	  560.01	-1739.01	  409.14
     29.6700	  591.00	  550.35	-1778.35	  408.82
     29.7700	  622.00	  544.98	-1741.98	  408.50
     29.8700	  592.00	  541.69	-1768.69	  408.18
     29.9700	  584.00	  539.56	-1774.56	  407.87
     30.0700	  569.00	  538.32	-1788.32	  407.55
     30.1700	  609.00	  538.03	-1748.03	  407.24
     30.2700	  595.00	  539.11	-1763.11	  406.92
     30.3700	  569.00	  542.44	-1792.44	  406.61
     30.4700	  557.00	  549.43	-1811.43	  406.30
     30.5700	  564.00	  561.71	-1816.71	  405.99
     30.6700	  613.00	  580.02	-1786.02	  405.68
     30.7700	  577.00	  602.65	-1844.65	  405.38
     30.8700	  587.00	  623.99	-1855.99	  405.07
     30.9700	  626.00	  634.67	-1827.67	  404.77
     31.0700	  593.00	  626.22	-1852.22	  404.46
     31.1700	  565.00	  602.10	-1856.10	  404.16
     31.2700	  552.00	  575.24	-1842.24	  403.86
     31.3700	  550.00	  554.14	-1823.14	  403.56
     31.4700	  530.00	  540.64	-1829.64	  403.26
     31.5700	  529.00	  533.14	-1823.14	  402.96
     31.6700	  548.00	  529.22	-1800.22	  402.67
     31.7700	  523.00	  527.08	-1823.07	  402.37
     31.8700	  539.00	  525.76	-1805.76	  402.08
     31.9700	  523.00	  524.86	-1820.86	  401.79
     32.0700	  553.00	  524.22	-1790.22	  401.50
     32.1700	  541.00	  523.77	-1801.77	  401.21
     32.2700	  573.00	  523.49	-1769.49	  400.92
     32.3700	  534.00	  523.37	-1808.37	  400.64
     32.4700	  524.00	  523.41	-1818.41	  400.35
     32.5700	  511.00	  523.62	-1831.62	  400.07
     32.6700	  563.00	  524.03	-1780.03	  399.79
     32.7700	  529.00	  524.67	-1814.67	  399.51
     32.8700	  562.00	  525.62	-1782.62	  399.23
     32.9700	  521.00	  526.98	-1824.98	  398.95
     33.0700	  531.00	  528.94	-1816.94	  398.67
     33.1700	  532.00	  531.89	-1818.89	  398.40
     33.2700	  535.00	  536.72	-1820.72	  398.12
     33.3700	  575.00	  545.34	-1789.34	  397.85
     33.4700	  604.00	  561.48	-1776.48	  397.58
     33.5700	  604.00	  591.37	-1806.37	  397.31
     33.6700	  622.00	  642.68	-1839.68	  397.05
     33.7700	  748.00	  720.37	-1791.37	  396.78
     33.8700	  874.00	  819.01	-1764.01	  396.52
     33.9700	 1054.00	  916.38	-1681.38	  396.25
     34.0700	 1068.00	  973.98	-1724.98	  395.99
     34.1700	 1009.00	  954.64	-1764.64	  395.73
     34.2700	  917.00	  864.27	-1766.27	  395.47
     34.3700	  774.00	  752.53	-1797.53	  395.22
     34.4700	  691.00	  659.01	-1787.01	  394.96
     34.5700	  599.00	  596.36	-1816.36	  394.71
     34.6700	  526.00	  560.58	-1853.58	  394.46
     34.7700	  537.00	  542.04	-1824.04	  394.21
     34.8700	  498.00	  532.43	-1853.43	  393.96
     34.9700	  553.00	  526.90	-1792.90	  393.71
     35.0700	  553.00	  523.25	-1789.25	  393.47
     35.1700	  512.00	  520.53	-1827.53	  393.22
     35.2700	  472.00	  518.41	-1865.41	  392.98
     35.3700	  510.00	  516.69	-1825.69	  392.74
     35.4700	  535.00	  515.27	-1799.27	  392.50
     35.5700	  524.00	  514.08	-1809.08	  392.26
     35.6700	  508.00	  513.06	-1824.06	  392.03
     35.7700	  484.00	  512.18	-1847.18	  391.79
     35.8700	  428.00	  511.41	-1902.41	  391.56
     35.9700	  490.00	  511.20	-1840.20	  391.33
     36.0700	  524.00	  510.60	-1805.60	  391.10
     36.1700	  508.00	  510.05	-1821.05	  390.87
     36.2700	  519.00	  509.56	-1809.56	  390.65
     36.3700	  509.00	  509.12	-1819.12	  390.42
     36.4700	  522.00	  508.72	-1805.72	  390.20
     36.5700	  510.00	  508.35	-1817.35	  389.98
     36.6700	  506.00	  508.04	-1821.04	  389.76
     36.7700	  570.00	  507.76	-1756.76	  389.54
     36.8700	  560.00	  507.56	-1766.56	  389.33
     36.9700	  519.00	  507.45	-1807.45	  389.11
     37.0700	  479.00	  507.54	-1847.54	  388.90
     37.1700	  471.00	  508.02	-1856.02	  388.69
     37.2700	  539.00	  509.19	-1789.19	  388.48
     37.3700	  533.00	  511.39	-1797.39	  388.27
     37.4700	  488.00	  514.80	-1845.80	  388.07
     37.5700	  488.00	  519.10	-1850.10	  387.87
     37.6700	  554.00	  523.26	-1788.26	  387.66
     37.7700	  507.00	  525.75	-1837.75	  387.46
     37.8700	  540.00	  525.52	-1804.52	  387.26
     37.9700	  530.00	  523.14	-1812.14	  387.07
     38.0700	  521.00	  519.73	-1817.73	  386.87
     38.1700	  484.00	  515.86	-1850.86	  386.68
     38.2700	  512.00	  511.99	-1818.99	  386.49
     38.3700	  511.00	  508.73	-1816.73	  386.30
     38.4700	  514.00	  506.33	-1811.33	  386.11
     38.5700	  541.00	  504.73	-1782.73	  385.92
     38.6700	  494.00	  503.72	-1828.72	  385.74
     38.7700	  468.00	  502.99	-1853.99	  385.56
     38.8700	  497.00	  502.56	-1824.56	  385.38
     38.9700	  563.00	  502.23	-1758.23	  385.20
     39.0700	  459.00	  501.95	-1861.95	  385.02
     39.1700	  483.00	  501.71	-1837.71	  384.84
     39.2700	  514.00	  501.39	-1806.39	  384.67
     39.3700	  491.00	  501.32	-1829.32	  384.50
     39.4700	  546.00	  501.13	-1774.13	  384.33
     39.5700	  485.00	  500.96	-1834.96	  384.16
     39.6700	  479.00	  500.80	-1840.80	  383.99
     39.7700	  493.00	  500.65	-1826.65	  383.83
     39.8700	  502.00	  500.51	-1817.51	  383.66
     39.9700	  506.00	  500.38	-1813.38	  383.50
     40.0700	  477.00	  500.26	-1842.26	  383.34
     40.1700	  484.00	  500.15	-1835.15	  383.18
     40.2700	  491.00	  500.06	-1828.06	  383.03
     40.3700	  495.00	  499.97	-1823.97	  382.87
     40.4700	  465.00	  499.90	-1853.90	  382.72
     40.5700	  501.00	  499.84	-1817.84	  382.57
     40.6700	  511.00	  499.80	-1807.80	  382.42
     40.7700	  529.00	  499.78	-1789.78	  382.27
     40.8700	  530.00	  499.78	-1788.78	  382.13
     40.9700	  494.00	  499.81	-1824.81	  381.98
     41.0700	  499.00	  499.87	-1819.87	  381.84
     41.1700	  498.00	  499.97	-1820.97	  381.70
     41.2700	  519.00	  500.08	-1800.08	  381.56
     41.3700	  511.00	  500.29	-1808.29	  381.43
     41.4700	  488.00	  501.02	-1832.02	  381.29
     41.5700	  530.00	  501.41	-1790.41	  381.16
     41.6700	  490.00	  501.97	-1830.97	  381.03
     41.7700	  548.00	  502.78	-1773.78	  380.90
     41.8700	  487.00	  504.08	-1836.08	  380.77
     41.9700	  503.00	  506.41	-1822.41	  380.65
     42.0700	  531.00	  510.80	-1798.80	  380.52
     42.1700	  518.00	  519.05	-1820.05	  380.40
     42.2700	  501.00	  533.41	-1851.41	  380.28
     42.3700	  600.00	  555.75	-1774.75	  380.16
     42.4700	  543.00	  585.42	-1861.42	  380.04
     42.5700	  553.00	  617.57	-1883.57	  379.93
     42.6700	  595.00	  642.48	-1866.48	  379.82
     42.7700	  612.00	  648.87	-1855.87	  379.70
     42.8700	  566.00	  632.27	-1885.27	  379.59
     42.9700	  558.00	  601.32	-1862.32	  379.49
     43.0700	  541.00	  568.61	-1846.61	  379.38
     43.1700	  508.00	  541.97	-1852.97	  379.28
     43.2700	  525.00	  523.78	-1817.78	  379.17
     43.3700	  512.00	  512.97	-1819.97	  379.07
     43.4700	  492.00	  507.14	-1834.14	  378.97
     43.5700	  556.00	  504.10	-1767.10	  378.88
     43.6700	  512.00	  502.60	-1809.60	  378.78
     43.7700	  494.00	  501.57	-1826.57	  378.69
     43.8700	  475.00	  500.88	-1844.88	  378.59
     43.9700	  498.00	  500.34	-1821.34	  378.50
     44.0700	  500.00	  499.93	-1818.93	  378.42
     44.1700	  497.00	  499.61	-1821.61	  378.33
     44.2700	  493.00	  499.36	-1825.36	  378.24
     44.3700	  503.00	  499.16	-1815.16	  378.16
     44.4700	  455.00	  499.01	-1863.01	  378.08
     44.5700	  523.00	  498.77	-1794.77	  378.00
     44.6700	  488.00	  498.70	-1829.70	  377.92
     44.7700	  477.00	  498.66	-1840.66	  377.84
     44.8700	  499.00	  498.65	-1818.65	  377.77
     44.9700	  474.00	  498.66	-1843.66	  377.70
     45.0700	  481.00	  498.70	-1836.70	  377.63
     45.1700	  502.00	  498.94	-1815.94	  377.56
     45.2700	  506.00	  499.03	-1812.03	  377.49
     45.3700	  549.00	  499.13	-1769.13	  377.42
     45.4700	  499.00	  499.26	-1819.26	  377.36
     45.5700	  517.00	  499.41	-1801.41	  377.30
     45.6700	  481.00	  499.59	-1837.59	  377.23
     45.7700	  481.00	  499.79	-1837.79	  377.18
     45.8700	  504.00	  500.03	-1815.03	  377.12
     45.9700	  497.00	  500.29	-1822.29	  377.06
     46.0700	  495.00	  500.58	-1824.58	  377.01
     46.1700	  470.00	  500.92	-1849.92	  376.96
     46.2700	  454.00	  501.29	-1866.29	  376.91
     46.3700	  474.00	  501.72	-1846.72	  376.86
     46.4700	  509.00	  502.19	-1812.19	  376.81
     46.5700	  482.00	  502.74	-1839.74	  376.76
     46.6700	  500.00	  503.37	-1822.37	  376.72
     46.7700	  504.00	  504.09	-1819.09	  376.68
     46.8700	  513.00	  504.97	-1810.97	  376.64
     46.9700	  496.00	  506.07	-1829.07	  376.60
     47.0700	  486.00	  507.62	-1840.62	  376.56
     47.1700	  535.00	  510.05	-1794.05	  376.52
     47.2700	  553.00	  513.88	-1779.88	  376.49
     47.3700	  472.00	  520.18	-1867.18	  376.46
     47.4700	  493.00	  530.04	-1856.04	  376.43
     47.5700	  558.00	  544.00	-1805.00	  376.40
     47.6700	  532.00	  561.33	-1848.33	  376.37
     47.7700	  611.00	  579.26	-1787.26	  376.34
     47.8700	  567.00	  592.95	-1844.95	  376.32
     47.9700	  648.00	  597.27	-1768.27	  376.30
     48.0700	  576.00	  590.66	-1833.66	  376.28
     48.1700	  589.00	  577.09	-1807.09	  376.26
     48.2700	  567.00	  562.24	-1814.24	  376.24
     48.3700	  545.00	  550.10	-1824.10	  376.22
     48.4700	  525.00	  542.36	-1836.36	  376.21
     48.5700	  531.00	  539.03	-1827.03	  376.19
     48.6700	  518.00	  539.29	-1840.29	  376.18
     48.7700	  486.00	  542.21	-1875.21	  376.17
     48.8700	  540.00	  547.21	-1826.21	  376.16
     48.9700	  530.00	  554.17	-1843.17	  376.16
     49.0700	  535.00	  563.56	-1847.56	  376.15
     49.1700	  554.00	  576.70	-1841.70	  376.15
     49.2700	  638.00	  596.45	-1777.45	  376.14
     49.3700	  656.00	  628.39	-1791.39	  376.14
     49.4700	  670.00	  682.63	-1831.63	  376.14
     49.5700	  806.00	  773.25	-1786.25	  376.15
     49.6700	  834.00	  918.69	-1903.69	  376.15
     49.7700	 1067.00	 1134.90	-1886.90	  376.15
     49.8700	 1357.00	 1425.93	-1887.93	  376.16
     49.9700	 1773.00	 1772.36	-1818.36	  376.17
     50.0700	 2103.00	 2120.42	-1836.42	  376.18
     50.1700	 2393.00	 2380.51	-1806.51	  376.19
     50.2700	 2535.00	 2455.13	-1739.13	  376.20
     50.3700	 2400.00	 2308.25	-1727.25	  376.22
     50.4700	 1998.00	 2003.85	-1824.85	  376.23
     50.5700	 1567.00	 1647.43	-1899.43	  376.25
     50.6700	 1164.00	 1319.24	-1974.24	  376.27
     50.7700	  879.00	 1059.92	-1999.92	  376.29
     50.8700	  704.00	  878.77	-1993.77	  376.31
     50.9700	  631.00	  764.94	-1952.94	  376.33
     51.0700	  675.00	  698.74	-1842.74	  376.35
     51.1700	  610.00	  660.19	-1869.19	  376.38
     51.2700	  608.00	  634.24	-1845.24	  376.41
     51.3700	  590.00	  612.90	-1841.90	  376.43
     51.4700	  568.00	  594.01	-1845.01	  376.46
     51.5700	  552.00	  577.83	-1844.83	  376.49
     51.6700	  546.00	  564.89	-1837.89	  376.53
     51.7700	  552.00	  555.28	-1822.28	  376.56
     51.8700	  525.00	  548.59	-1842.59	  376.60
     51.9700	  547.00	  544.14	-1816.14	  376.63
     52.0700	  561.00	  541.31	-1799.31	  376.67
     52.1700	  583.00	  539.90	-1775.90	  376.71
     52.2700	  538.00	  539.24	-1820.24	  376.75
     52.3700	  543.00	  539.58	-1815.58	  376.79
     52.4700	  549.00	  541.17	-1811.17	  376.83
     52.5700	  569.00	  544.76	-1794.76	  376.88
     52.6700	  552.00	  551.93	-1818.93	  376.92
     52.7700	  599.00	  565.73	-1785.73	  376.97
     52.8700	  635.00	  591.15	-1775.15	  377.02
     52.9700	  677.00	  634.94	-1776.94	  377.07
     53.0700	  733.00	  703.94	-1789.94	  377.12
     53.1700	  821.00	  801.67	-1799.67	  377.17
     53.2700	 1037.00	  923.76	-1705.76	  377.22
     53.3700	 1110.00	 1054.12	-1763.12	  377.28
     53.4700	 1148.00	 1163.79	-1834.79	  377.33
     53.5700	 1184.00	 1217.17	-1852.17	  377.39
     53.6700	 1124.00	 1191.81	-1886.81	  377.45
     53.7700	 1069.00	 1098.30	-1848.30	  377.51
     53.8700	  898.00	  971.03	-1892.03	  377.57
     53.9700	  824.00	  843.33	-1838.33	  377.63
     54.0700	  729.00	  736.08	-1826.08	  377.69
     54.1700	  668.00	  657.37	-1808.37	  377.76
     54.2700	  625.00	  605.91	-1799.91	  377.82
     54.3700	  597.00	  575.43	-1797.43	  377.89
     54.4700	  565.00	  558.75	-1812.75	  377.96
     54.5700	  554.00	  550.19	-1815.19	  378.03
     54.6700	  554.00	  546.00	-1811.00	  378.10
     54.7700	  540.00	  544.16	-1823.16	  378.17
     54.8700	  551.00	  543.69	-1811.69	  378.24
     54.9700	  542.00	  544.18	-1821.18	  378.31
     55.0700	  556.00	  545.49	-1808.49	  378.39
     55.1700	  565.00	  547.59	-1801.59	  378.46
     55.2700	  552.00	  550.48	-1817.48	  378.54
     55.3700	  557.00	  554.29	-1816.29	  378.61
     55.4700	  555.00	  559.18	-1823.18	  378.69
     55.5700	  553.00	  565.50	-1831.50	  378.77
     55.6700	  539.00	  573.85	-1853.85	  378.85
     55.7700	  598.00	  585.54	-1806.54	  378.94
     55.8700	  550.00	  603.15	-1872.15	  379.02
     55.9700	  647.00	  631.63	-1803.63	  379.10
     56.0700	  646.00	  679.56	-1852.56	  379.19
     56.1700	  698.00	  760.02	-1881.02	  379.27
     56.2700	  846.00	  889.75	-1862.75	  379.36
     56.3700	 1043.00	 1085.54	-1861.54	  379.45
     56.4700	 1231.00	 1357.03	-1945.03	  379.53
     56.5700	 1560.00	 1697.37	-1956.37	  379.62
     56.6700	 1946.00	 2074.83	-1947.83	  379.71
     56.7700	 2328.00	 2427.37	-1918.37	  379.81
     56.8700	 2585.00	 2667.77	-1901.77	  379.90
     56.9700	 2609.00	 2714.88	-1924.88	  379.99
     57.0700	 2544.00	 2549.85	-1824.85	  380.09
     57.1700	 2176.00	 2233.91	-1876.91	  380.18
     57.2700	 1842.00	 1859.17	-1836.17	  380.28
     57.3700	 1465.00	 1500.40	-1854.40	  380.37
     57.4700	 1192.00	 1201.65	-1828.65	  380.47
     57.5700	  939.00	  979.29	-1859.29	  380.57
     57.6700	  853.00	  829.58	-1795.58	  380.67
     57.7700	  745.00	  738.29	-1812.29	  380.77
     57.8700	  669.00	  689.07	-1839.07	  380.87
     57.9700	  687.00	  668.81	-1800.81	  380.97
     58.0700	  662.00	  669.51	-1826.51	  381.07
     58.1700	  717.00	  687.73	-1789.73	  381.18
     58.2700	  722.00	  722.85	-1819.85	  381.28
     58.3700	  787.00	  775.20	-1807.20	  381.39
     58.4700	  955.00	  844.17	-1708.17	  381.49
     58.5700	 1081.00	  926.62	-1664.62	  381.60
     58.6700	 1213.00	 1015.56	-1621.56	  381.71
     58.7700	 1339.00	 1101.18	-1581.18	  381.82
     58.8700	 1488.00	 1174.93	-1505.93	  381.92
     58.9700	 1624.00	 1231.91	-1426.91	  382.03
     59.0700	 1721.00	 1267.43	-1365.43	  382.14
     59.1700	 1566.00	 1275.68	-1528.68	  382.26
     59.2700	 1487.00	 1256.67	-1588.67	  382.37
     59.3700	 1453.00	 1221.17	-1587.17	  382.48
     59.4700	 1284.00	 1184.21	-1719.21	  382.59
     59.5700	 1166.00	 1157.02	-1810.02	  382.71
     59.6700	 1130.00	 1146.63	-1835.63	  382.82
     59.7700	 1125.00	 1159.67	-1853.67	  382.94
     59.8700	 1142.00	 1202.29	-1879.29	  383.05
     59.9700	 1263.00	 1274.50	-1830.50	  383.17
     60.0700	 1463.00	 1365.32	-1721.32	  383.28
     60.1700	 1494.00	 1451.63	-1776.63	  383.40
     60.2700	 1716.00	 1501.68	-1604.68	  383.52
     60.3700	 1573.00	 1488.09	-1734.09	  383.64
     60.4700	 1510.00	 1405.99	-1714.99	  383.76
     60.5700	 1378.00	 1275.85	-1716.85	  383.88
     60.6700	 1190.00	 1127.24	-1756.24	  384.00
     60.7700	  960.00	  984.71	-1843.71	  384.12
     60.8700	  822.00	  863.68	-1860.68	  384.24
     60.9700	  710.00	  771.22	-1880.22	  384.36
     61.0700	  715.00	  708.12	-1812.12	  384.48
     61.1700	  640.00	  671.80	-1850.80	  384.61
     61.2700	  652.00	  659.17	-1826.17	  384.73
     61.3700	  635.00	  668.79	-1852.79	  384.85
     61.4700	  632.00	  701.73	-1888.73	  384.98
     61.5700	  696.00	  760.79	-1883.79	  385.10
     61.6700	  852.00	  848.71	-1815.71	  385.23
     61.7700	  925.00	  965.22	-1859.22	  385.35
     61.8700	 1027.00	 1104.29	-1896.29	  385.48
     61.9700	 1159.00	 1251.97	-1911.97	  385.61
     62.0700	 1339.00	 1385.31	-1865.31	  385.73
     62.1700	 1325.00	 1474.59	-1968.59	  385.86
     62.2700	 1404.00	 1493.33	-1908.33	  385.99
     62.3700	 1363.00	 1434.67	-1890.67	  386.12
     62.4700	 1253.00	 1316.82	-1882.82	  386.25
     62.5700	 1110.00	 1169.88	-1878.88	  386.37
     62.6700	  926.00	 1020.81	-1913.81	  386.50
     62.7700	  786.00	  887.89	-1920.89	  386.63
     62.8700	  744.00	  780.61	-1855.61	  386.76
     62.9700	  698.00	  701.02	-1822.02	  386.89
     63.0700	  631.00	  646.27	-1834.27	  387.02
     63.1700	  614.00	  611.00	-1816.00	  387.15
     63.2700	  608.00	  589.57	-1800.57	  387.28
     63.3700	  549.00	  577.35	-1847.35	  387.42
     63.4700	  557.00	  571.23	-1833.23	  387.55
     63.5700	  587.00	  569.66	-1801.66	  387.68
     63.6700	  570.00	  572.45	-1821.45	  387.81
     63.7700	  601.00	  580.49	-1798.49	  387.94
     63.8700	  654.00	  595.51	-1760.51	  388.07
     63.9700	  632.00	  619.66	-1806.66	  388.21
     64.0700	  712.00	  654.81	-1761.81	  388.34
     64.1700	  731.00	  701.73	-1789.73	  388.47
     64.2700	  839.00	  759.10	-1739.10	  388.61
     64.3700	  858.00	  822.70	-1783.70	  388.74
     64.4700	  986.00	  884.96	-1717.96	  388.87
     64.5700	 1038.00	  935.54	-1716.54	  389.01
     64.6700	 1013.00	  963.51	-1769.51	  389.14
     64.7700	 1021.00	  963.75	-1761.75	  389.27
     64.8700	 1012.00	  937.25	-1744.25	  389.41
     64.9700	  959.00	  891.12	-1751.12	  389.54
     65.0700	  861.00	  835.07	-1793.07	  389.68
     65.1700	  846.00	  778.23	-1751.23	  389.81
     65.2700	  721.00	  727.02	-1825.02	  389.94
     65.3700	  674.00	  684.43	-1829.43	  390.08
     65.4700	  658.00	  650.64	-1811.64	  390.21
     65.5700	  607.00	  624.41	-1836.41	  390.35
     65.6700	  582.00	  604.25	-1841.25	  390.48
     65.7700	  578.00	  588.97	-1829.97	  390.62
     65.8700	  578.00	  577.63	-1818.63	  390.75
     65.9700	  554.00	  569.54	-1834.54	  390.88
     66.0700	  574.00	  564.14	-1809.14	  391.02
     66.1700	  545.00	  561.01	-1835.01	  391.15
     66.2700	  570.00	  559.80	-1808.80	  391.29
     66.3700	  486.00	  560.17	-1893.17	  391.42
     66.4700	  530.00	  562.06	-1851.06	  391.56
     66.5700	  563.00	  565.19	-1821.19	  391.69
     66.6700	  570.00	  569.88	-1818.88	  391.82
     66.7700	  614.00	  576.74	-1781.74	  391.96
     66.8700	  588.00	  587.01	-1818.01	  392.09
     66.9700	  576.00	  602.93	-1845.93	  392.22
     67.0700	  585.00	  628.23	-1862.23	  392.36
     67.1700	  631.00	  668.40	-1856.40	  392.49
     67.2700	  741.00	  730.89	-1808.89	  392.62
     67.3700	  821.00	  824.35	-1822.35	  392.76
     67.4700	  912.00	  957.14	-1864.14	  392.89
     67.5700	 1189.00	 1134.13	-1764.13	  393.02
     67.6700	 1378.00	 1354.70	-1795.70	  393.16
     67.7700	 1626.00	 1608.46	-1801.46	  393.29
     67.8700	 1867.00	 1873.72	-1825.72	  393.42
     67.9700	 2176.00	 2116.94	-1759.94	  393.55
     68.0700	 2356.00	 2295.43	-1758.43	  393.68
     68.1700	 2394.00	 2368.21	-1793.21	  393.82
     68.2700	 2239.00	 2315.49	-1895.49	  393.95
     68.3700	 2093.00	 2151.89	-1877.89	  394.08
     68.4700	 1989.00	 1916.30	-1746.30	  394.21
     68.5700	 1658.00	 1652.37	-1813.37	  394.34
     68.6700	 1403.00	 1395.41	-1811.41	  394.47
     68.7700	 1142.00	 1168.99	-1845.99	  394.60
     68.8700	  969.00	  985.05	-1835.05	  394.73
     68.9700	  849.00	  845.96	-1815.96	  394.86
     69.0700	  705.00	  747.25	-1861.25	  394.98
     69.1700	  650.00	  680.92	-1849.92	  395.11
     69.2700	  626.00	  638.22	-1831.22	  395.24
     69.3700	  626.00	  611.49	-1804.49	  395.37
     69.4700	  593.00	  594.87	-1820.87	  395.50
     69.5700	  609.00	  584.37	-1794.37	  395.62
     69.6700	  576.00	  577.52	-1820.52	  395.75
     69.7700	  562.00	  572.89	-1829.89	  395.88
     69.8700	  589.00	  569.70	-1799.70	  396.00
     69.9700	  564.00	  567.55	-1822.55	  396.13
     70.0700	  560.00	  566.24	-1825.24	  396.25
     70.1700	  578.00	  565.66	-1806.66	  396.38
     70.2700	  506.00	  565.80	-1878.80	  396.50
     70.3700	  585.00	  566.73	-1800.73	  396.62
     70.4700	  549.00	  568.60	-1838.60	  396.75
     70.5700	  574.00	  571.76	-1816.76	  396.87
     70.6700	  588.00	  576.86	-1807.86	  396.99
     70.7700	  534.00	  585.02	-1870.02	  397.11
     70.8700	  605.00	  598.15	-1812.15	  397.23
     70.9700	  564.00	  619.15	-1874.15	  397.35
     71.0700	  620.00	  652.10	-1851.10	  397.47
     71.1700	  661.00	  702.19	-1860.19	  397.59
     71.2700	  760.00	  775.14	-1834.14	  397.71
     71.3700	  853.00	  876.18	-1842.18	  397.83
     71.4700	  985.00	 1009.18	-1843.18	  397.95
     71.5700	 1173.00	 1171.39	-1817.39	  398.06
     71.6700	 1338.00	 1356.84	-1837.84	  398.18
     71.7700	 1446.00	 1551.88	-1924.88	  398.29
     71.8700	 1704.00	 1735.53	-1850.53	  398.41
     71.9700	 1848.00	 1881.08	-1852.08	  398.52
     72.0700	 1818.00	 1960.92	-1961.92	  398.64
     72.1700	 1928.00	 1956.86	-1847.86	  398.75
     72.2700	 1812.00	 1870.07	-1877.07	  398.86
     72.3700	 1782.00	 1720.00	-1757.00	  398.97
     72.4700	 1628.00	 1535.46	-1726.46	  399.09
     72.5700	 1407.00	 1342.18	-1754.18	  399.20
     72.6700	 1388.00	 1160.06	-1591.06	  399.31
     72.7700	 1109.00	 1001.76	-1711.76	  399.42
     72.8700	 1039.00	  873.20	-1653.20	  399.52
     72.9700	  996.00	  774.73	-1597.73	  399.63
     73.0700	  900.00	  703.01	-1622.01	  399.74
     73.1700	  800.00	  652.91	-1671.91	  399.84
     73.2700	  750.00	  618.97	-1687.97	  399.95
     73.3700	  707.00	  596.36	-1708.36	  400.05
     73.4700	  658.00	  581.33	-1742.33	  400.16
     73.5700	  616.00	  571.22	-1774.22	  400.26
     73.6700	  654.00	  564.31	-1729.31	  400.36
     73.7700	  565.00	  559.54	-1813.54	  400.46
     73.8700	  572.00	  556.31	-1803.31	  400.57
     73.9700	  645.00	  554.24	-1728.24	  400.67
     74.0700	  596.00	  553.10	-1776.10	  400.76
     74.1700	  579.00	  552.70	-1792.70	  400.86
     74.2700	  613.00	  552.87	-1758.87	  400.96
     74.3700	  581.00	  553.38	-1791.38	  401.06
     74.4700	  581.00	  553.98	-1791.98	  401.15
     74.5700	  628.00	  554.39	-1745.39	  401.25
     74.6700	  633.00	  554.32	-1740.32	  401.34
     74.7700	  676.00	  553.61	-1696.61	  401.43
     74.8700	  658.00	  552.27	-1713.27	  401.53
     74.9700	  635.00	  550.49	-1734.49	  401.62
     75.0700	  572.00	  548.59	-1795.59	  401.71
     75.1700	  584.00	  546.89	-1781.89	  401.80
     75.2700	  573.00	  545.75	-1791.75	  401.88
     75.3700	  566.00	  545.49	-1798.49	  401.97
     75.4700	  588.00	  546.64	-1777.64	  402.06
     75.5700	  545.00	  549.57	-1823.57	  402.14
     75.6700	  556.00	  554.88	-1817.88	  402.23
     75.7700	  555.00	  562.94	-1826.94	  402.31
     75.8700	  584.00	  574.39	-1809.39	  402.39
     75.9700	  589.00	  589.31	-1819.31	  402.48
     76.0700	  599.00	  607.51	-1827.51	  402.56
     76.1700	  611.00	  628.27	-1836.27	  402.64
     76.2700	  649.00	  650.22	-1820.22	  402.71
     76.3700	  650.00	  671.39	-1840.39	  402.79
     76.4700	  740.00	  689.23	-1768.23	  402.87
     76.5700	  694.00	  700.99	-1825.99	  402.94
     76.6700	  690.00	  704.43	-1833.43	  403.02
     76.7700	  671.00	  698.82	-1846.82	  403.09
     76.8700	  688.00	  685.27	-1816.27	  403.16
     76.9700	  642.00	  666.20	-1843.20	  403.23
     77.0700	  615.00	  644.19	-1848.19	  403.30
     77.1700	  606.00	  622.03	-1835.03	  403.37
     77.2700	  594.00	  601.37	-1826.37	  403.44
     77.3700	  567.00	  583.39	-1835.39	  403.51
     77.4700	  537.00	  568.67	-1850.67	  403.57
     77.5700	  562.00	  557.25	-1814.25	  403.64
     77.6700	  522.00	  548.83	-1845.83	  403.70
     77.7700	  487.00	  542.88	-1874.88	  403.76
     77.8700	  485.00	  538.84	-1872.84	  403.83
     77.9700	  509.00	  536.18	-1846.18	  403.89
     78.0700	  518.00	  534.45	-1835.45	  403.94
     78.1700	  532.00	  533.35	-1820.35	  404.00
     78.2700	  512.00	  532.64	-1839.64	  404.06
     78.3700	  515.00	  532.19	-1836.19	  404.11
     78.4700	  547.00	  531.91	-1803.91	  404.17
     78.5700	  545.00	  531.76	-1805.76	  404.22
     78.6700	  542.00	  531.71	-1808.71	  404.27
     78.7700	  494.00	  531.76	-1856.76	  404.32
     78.8700	  540.00	  531.93	-1810.93	  404.37
     78.9700	  524.00	  532.23	-1827.23	  404.42
     79.0700	  536.00	  532.71	-1815.71	  404.47
     79.1700	  525.00	  533.40	-1827.40	  404.51
     79.2700	  508.00	  534.36	-1845.36	  404.56
     79.3700	  534.00	  535.47	-1820.47	  404.60
     79.4700	  541.00	  537.17	-1815.17	  404.64
     79.5700	  541.00	  539.35	-1817.35	  404.68
     79.6700	  550.00	  542.10	-1811.10	  404.72
     79.7700	  523.00	  545.52	-1841.52	  404.76
     79.8700	  488.00	  549.73	-1880.73	  404.80
     79.9700	  534.00	  554.90	-1839.90	  404.83
     80.0700	  512.00	  561.20	-1868.20	  404.87
     80.1700	  565.00	  568.84	-1822.84	  404.90
     80.2700	  537.00	  578.08	-1860.08	  404.93
     80.3700	  575.00	  589.17	-1833.17	  404.96
     80.4700	  526.00	  602.26	-1895.26	  404.99
     80.5700	  543.00	  617.30	-1893.30	  405.02
     80.6700	  574.00	  633.94	-1878.94	  405.04
     80.7700	  640.00	  651.49	-1830.49	  405.07
     80.8700	  643.00	  668.86	-1844.86	  405.09
     80.9700	  676.00	  684.74	-1827.74	  405.11
     81.0700	  676.00	  697.79	-1840.79	  405.13
     81.1700	  673.00	  706.96	-1852.96	  405.15
     81.2700	  756.00	  711.63	-1774.63	  405.17
     81.3700	  700.00	  711.59	-1830.59	  405.19
     81.4700	  741.00	  707.01	-1785.01	  405.20
     81.5700	  711.00	  698.40	-1806.40	  405.22
     81.6700	  789.00	  686.50	-1716.50	  405.23
     81.7700	  717.00	  672.14	-1774.14	  405.24
     81.8700	  747.00	  656.16	-1728.16	  405.25
     81.9700	  760.00	  639.38	-1698.38	  405.26
     82.0700	  676.00	  622.82	-1765.82	  405.27
     82.1700	  669.00	  607.20	-1757.20	  405.27
     82.2700	  670.00	  593.10	-1742.10	  405.28
     82.3700	  617.00	  580.85	-1782.85	  405.28
     82.4700	  580.00	  570.59	-1809.59	  405.28
     82.5700	  595.00	  562.33	-1786.33	  405.28
     82.6700	  564.00	  555.99	-1810.99	  405.28
     82.7700	  548.00	  551.52	-1822.52	  405.28
     82.8700	  546.00	  548.78	-1821.78	  405.27
     82.9700	  534.00	  547.66	-1832.66	  405.27
     83.0700	  556.00	  548.08	-1811.08	  405.26
     83.1700	  531.00	  549.96	-1837.96	  405.25
     83.2700	  564.00	  553.21	-1808.21	  405.24
     83.3700	  547.00	  557.71	-1829.71	  405.23
     83.4700	  545.00	  563.25	-1837.25	  405.21
     83.5700	  527.00	  569.53	-1861.53	  405.20
     83.6700	  519.00	  576.13	-1876.13	  405.18
     83.7700	  597.00	  582.53	-1804.53	  405.17
     83.8700	  543.00	  588.08	-1864.08	  405.15
     83.9700	  582.00	  592.10	-1829.10	  405.13
     84.0700	  561.00	  593.99	-1851.99	  405.10
     84.1700	  557.00	  593.42	-1855.42	  405.08
     84.2700	  573.00	  590.45	-1836.45	  405.06
     84.3700	  539.00	  585.51	-1865.51	  405.03
     84.4700	  565.00	  579.23	-1833.23	  405.00
     84.5700	  565.00	  572.27	-1826.27	  404.97
     84.6700	  553.00	  565.20	-1831.20	  404.94
     84.7700	  564.00	  558.49	-1813.49	  404.91
     84.8700	  552.00	  552.46	-1819.46	  404.87
     84.9700	  533.00	  547.30	-1833.30	  404.84
     85.0700	  539.00	  543.09	-1823.09	  404.80
     85.1700	  530.00	  539.82	-1828.82	  404.76
     85.2700	  508.00	  537.41	-1848.41	  404.72
     85.3700	  502.00	  535.75	-1852.75	  404.68
     85.4700	  516.00	  534.72	-1837.72	  404.63
     85.5700	  493.00	  534.22	-1860.22	  404.59
     85.6700	  522.00	  534.15	-1831.15	  404.54
     85.7700	  536.00	  534.47	-1817.47	  404.49
     85.8700	  491.00	  535.14	-1863.14	  404.45
     85.9700	  546.00	  536.19	-1809.19	  404.39
     86.0700	  500.00	  537.64	-1856.64	  404.34
     86.1700	  507.00	  539.60	-1851.60	  404.29
     86.2700	  573.00	  542.15	-1788.15	  404.23
     86.3700	  490.00	  545.44	-1874.44	  404.17
     86.4700	  577.00	  549.60	-1791.60	  404.11
     86.5700	  536.00	  554.78	-1837.78	  404.05
     86.6700	  528.00	  561.09	-1852.09	  403.99
     86.7700	  589.00	  568.54	-1798.54	  403.93
     86.8700	  598.00	  576.73	-1797.73	  403.86
     86.9700	  597.00	  586.04	-1808.04	  403.80
     87.0700	  650.00	  595.72	-1764.72	  403.73
     87.1700	  629.00	  605.19	-1795.19	  403.66
     87.2700	  626.00	  613.73	-1806.73	  403.59
     87.3700	  672.00	  620.51	-1767.51	  403.51
     87.4700	  653.00	  624.76	-1790.76	  403.44
     87.5700	  702.00	  625.91	-1742.91	  403.36
     87.6700	  648.00	  623.81	-1794.81	  403.28
     87.7700	  617.00	  618.81	-1820.81	  403.20
     87.8700	  651.00	  611.64	-1779.64	  403.12
     87.9700	  591.00	  603.20	-1831.20	  403.04
     88.0700	  629.00	  594.42	-1784.42	  402.96
     88.1700	  562.00	  586.14	-1843.14	  402.87
     88.2700	  590.00	  579.06	-1808.06	  402.78
     88.3700	  593.00	  573.70	-1799.70	  402.69
     88.4700	  549.00	  570.41	-1840.41	  402.60
     88.5700	  576.00	  569.35	-1812.35	  402.51
     88.6700	  576.00	  570.49	-1813.49	  402.42
     88.7700	  566.00	  573.64	-1826.64	  402.32
     88.8700	  558.00	  578.44	-1839.44	  402.23
     88.9700	  577.00	  584.42	-1826.42	  402.13
     89.0700	  604.00	  590.98	-1805.98	  402.03
     89.1700	  648.00	  597.44	-1768.44	  401.93
     89.2700	  631.00	  603.09	-1791.09	  401.82
     89.3700	  610.00	  607.19	-1816.19	  401.72
     89.4700	  588.00	  609.16	-1840.16	  401.61
     89.5700	  567.00	  608.65	-1860.65	  401.50
     89.6700	  559.00	  605.68	-1865.68	  401.39
     89.7700	  632.00	  600.59	-1787.59	  401.28
     89.8700	  590.00	  593.94	-1822.94	  401.17
     89.9700	  548.00	  586.36	-1857.36	  401.06
     90.0700	  569.00	  578.42	-1828.42	  400.94
     90.1700	  561.00	  570.61	-1828.61	  400.82
     90.2700	  522.00	  563.33	-1860.33	  400.70
     90.3700	  505.00	  556.84	-1870.83	  400.58
     90.4700	  492.00	  551.28	-1878.28	  400.46
     90.5700	  509.00	  546.72	-1856.72	  400.34
     90.6700	  501.00	  543.12	-1861.12	  400.21
     90.7700	  556.00	  540.41	-1803.41	  400.09
     90.8700	  557.00	  538.49	-1800.49	  399.96
     90.9700	  532.00	  537.22	-1824.22	  399.83
     91.0700	  538.00	  536.52	-1817.52	  399.70
     91.1700	  529.00	  536.29	-1826.29	  399.56
     91.2700	  539.00	  536.51	-1816.51	  399.43
     91.3700	  527.00	  537.15	-1829.15	  399.29
     91.4700	  506.00	  538.27	-1851.27	  399.16
     91.5700	  527.00	  539.94	-1831.94	  399.02
     91.6700	  495.00	  542.28	-1866.28	  398.88
     91.7700	  513.00	  545.45	-1851.45	  398.73
     91.8700	  523.00	  549.64	-1845.64	  398.59
     91.9700	  561.00	  554.81	-1812.81	  398.45
     92.0700	  593.00	  561.61	-1787.61	  398.30
     92.1700	  548.00	  569.96	-1840.96	  398.15
     92.2700	  573.00	  579.98	-1825.98	  398.00
     92.3700	  529.00	  591.66	-1881.66	  397.85
     92.4700	  616.00	  604.94	-1807.94	  397.70
     92.5700	  643.00	  619.59	-1795.59	  397.54
     92.6700	  655.00	  635.30	-1799.30	  397.39
     92.7700	  594.00	  651.59	-1876.59	  397.23
     92.8700	  694.00	  667.88	-1792.88	  397.07
     92.9700	  743.00	  683.53	-1759.53	  396.91
     93.0700	  725.00	  697.90	-1791.90	  396.75
     93.1700	  801.00	  710.50	-1728.50	  396.59
     93.2700	  793.00	  721.16	-1747.16	  396.42
     93.3700	  816.00	  730.11	-1733.11	  396.25
     93.4700	  801.00	  737.88	-1755.88	  396.09
     93.5700	  803.00	  745.19	-1761.19	  395.92
     93.6700	  859.00	  752.75	-1712.75	  395.75
     93.7700	  863.00	  761.19	-1717.19	  395.58
     93.8700	  855.00	  771.00	-1735.00	  395.40
     93.9700	  864.00	  782.60	-1737.60	  395.23
     94.0700	  840.00	  796.30	-1775.30	  395.05
     94.1700	  845.00	  812.29	-1786.29	  394.87
     94.2700	  836.00	  830.48	-1813.48	  394.69
     94.3700	  862.00	  850.39	-1807.39	  394.51
     94.4700	  902.00	  871.11	-1788.11	  394.33
     94.5700	  866.00	  891.31	-1844.31	  394.15
     94.6700	  895.00	  909.25	-1833.25	  393.96
     94.7700	  890.00	  922.97	-1851.97	  393.78
     94.8700	  935.00	  930.53	-1814.53	  393.59
     94.9700	  877.00	  930.47	-1872.47	  393.40
     95.0700	  923.00	  922.15	-1818.15	  393.21
     95.1700	  912.00	  905.98	-1812.98	  393.02
     95.2700	  867.00	  883.28	-1835.28	  392.83
     95.3700	  803.00	  855.96	-1871.96	  392.63
     95.4700	  812.00	  826.17	-1833.17	  392.44
     95.5700	  748.00	  796.02	-1867.02	  392.24
     95.6700	  714.00	  767.48	-1872.48	  392.04
     95.7700	  725.00	  742.33	-1836.33	  391.84
     95.8700	  685.00	  722.16	-1856.16	  391.64
     95.9700	  657.00	  708.35	-1870.35	  391.44
     96.0700	  667.00	  702.09	-1854.09	  391.24
     96.1700	  698.00	  704.40	-1825.40	  391.03
     96.2700	  685.00	  716.09	-1850.09	  390.82
     96.3700	  691.00	  737.78	-1865.78	  390.62
     96.4700	  768.00	  769.81	-1820.81	  390.41
     96.5700	  827.00	  812.19	-1804.19	  390.20
     96.6700	  830.00	  864.48	-1853.48	  389.99
     96.7700	  908.00	  925.72	-1836.72	  389.77
     96.8700	  985.00	  994.38	-1828.38	  389.56
     96.9700	 1060.00	 1068.19	-1827.19	  389.35
     97.0700	 1132.00	 1144.29	-1831.29	  389.13
     97.1700	 1276.00	 1219.10	-1762.10	  388.91
     97.2700	 1277.00	 1288.52	-1830.52	  388.69
     97.3700	 1256.00	 1348.13	-1911.13	  388.47
     97.4700	 1357.00	 1393.55	-1855.55	  388.25
     97.5700	 1375.00	 1421.12	-1865.12	  388.03
     97.6700	 1420.00	 1428.54	-1827.54	  387.81
     97.7700	 1467.00	 1415.50	-1767.50	  387.58
     97.8700	 1380.00	 1383.68	-1822.68	  387.36
     97.9700	 1342.00	 1336.27	-1813.27	  387.13
     98.0700	 1238.00	 1277.37	-1858.37	  386.91
     98.1700	 1209.00	 1211.31	-1821.31	  386.68
     98.2700	 1134.00	 1142.28	-1827.28	  386.45
     98.3700	 1113.00	 1074.08	-1780.08	  386.22
     98.4700	 1009.00	 1010.03	-1820.03	  385.98
     98.5700	  925.00	  952.86	-1846.86	  385.75
     98.6700	  858.00	  904.79	-1865.79	  385.52
     98.7700	  798.00	  867.53	-1888.53	  385.28
     98.8700	  769.00	  842.36	-1892.36	  385.05
     98.9700	  775.00	  830.21	-1874.21	  384.81
     99.0700	  802.00	  831.71	-1848.71	  384.57
     99.1700	  819.00	  847.27	-1847.27	  384.33
     99.2700	  833.00	  877.04	-1863.04	  384.09
     99.3700	  883.00	  921.00	-1857.00	  383.85
     99.4700	  913.00	  978.85	-1884.85	  383.61
     99.5700	 1038.00	 1049.97	-1830.97	  383.36
     99.6700	 1143.00	 1133.35	-1809.35	  383.12
     99.7700	 1138.00	 1227.46	-1908.46	  382.88
     99.8700	 1312.00	 1330.23	-1837.23	  382.63
     99.9700	 1401.00	 1438.88	-1856.88	  382.38
    100.0700	 1482.00	 1550.00	-1887.00	  382.14
    100.1700	 1696.00	 1659.53	-1782.53	  381.89
    100.2700	 1786.00	 1763.03	-1796.03	  381.64
    100.3700	 1909.00	 1856.18	-1766.18	  381.39
    100.4700	 2020.00	 1935.17	-1734.17	  381.14
    100.5700	 1990.00	 1997.15	-1826.15	  380.89
    100.6700	 2152.00	 2040.22	-1707.22	  380.63
    100.7700	 2128.00	 2063.25	-1754.25	  380.38
    100.8700	 2193.00	 2065.59	-1691.59	  380.13
    100.9700	 2118.00	 2047.07	-1748.07	  379.87
    101.0700	 2050.00	 2008.20	-1777.20	  379.62
    101.1700	 2051.00	 1950.58	-1718.58	  379.36
    101.2700	 1855.00	 1877.18	-1841.18	  379.10
    101.3700	 1789.00	 1792.12	-1822.12	  378.84
    101.4700	 1702.00	 1700.25	-1817.25	  378.59
    101.5700	 1606.00	 1606.43	-1819.43	  378.33
    101.6700	 1573.00	 1515.10	-1761.10	  378.07
    101.7700	 1477.00	 1429.92	-1771.92	  377.81
    101.8700	 1336.00	 1353.50	-1836.50	  377.55
    101.9700	 1329.00	 1287.49	-1777.49	  377.28
    102.0700	 1257.00	 1232.48	-1794.48	  377.02
    102.1700	 1200.00	 1188.11	-1807.11	  376.76
    102.2700	 1149.00	 1153.21	-1823.21	  376.50
    102.3700	 1142.00	 1125.86	-1802.86	  376.23
    102.4700	 1051.00	 1103.68	-1871.68	  375.97
    102.5700	 1123.00	 1084.06	-1780.06	  375.70
    102.6700	 1056.00	 1064.45	-1827.45	  375.44
    102.7700	  989.00	 1042.78	-1872.78	  375.17
    102.8700	 1023.00	 1017.65	-1813.65	  374.90
    102.9700	  997.00	  988.50	-1810.50	  374.64
    103.0700	  897.00	  955.49	-1877.49	  374.37
    103.1700	  872.00	  919.37	-1866.37	  374.10
    103.2700	  860.00	  881.17	-1840.17	  373.84
    103.3700	  803.00	  842.05	-1858.05	  373.57
    103.4700	  869.00	  803.18	-1753.18	  373.30
    103.5700	  803.00	  765.58	-1781.58	  373.03
    103.6700	  753.00	  730.17	-1796.17	  372.76
    103.7700	  709.00	  697.64	-1807.64	  372.49
    103.8700	  657.00	  668.45	-1830.45	  372.22
    103.9700	  622.00	  642.89	-1839.89	  371.95
    104.0700	  619.00	  621.03	-1821.03	  371.68
    104.1700	  612.00	  602.79	-1809.79	  371.41
    104.2700	  595.00	  587.95	-1811.95	  371.14
    104.3700	  550.00	  576.20	-1845.20	  370.87
    104.4700	  540.00	  567.20	-1846.20	  370.59
    104.5700	  552.00	  560.57	-1827.57	  370.32
    104.6700	  530.00	  555.93	-1844.93	  370.05
    104.7700	  534.00	  552.96	-1837.96	  369.78
    104.8700	  527.00	  551.34	-1843.34	  369.51
    104.9700	  535.00	  550.80	-1834.80	  369.24
    105.0700	  524.00	  551.12	-1846.12	  368.96
    105.1700	  515.00	  552.14	-1856.14	  368.69
    105.2700	  556.00	  553.72	-1816.72	  368.42
    105.3700	  559.00	  555.74	-1815.74	  368.15
    105.4700	  504.00	  558.15	-1873.15	  367.88
    105.5700	  514.00	  560.93	-1865.93	  367.60
    105.6700	  584.00	  564.11	-1799.11	  367.33
    105.7700	  540.00	  567.72	-1846.72	  367.06
    105.8700	  581.00	  571.86	-1809.86	  366.79
    105.9700	  593.00	  576.63	-1802.64	  366.52
    106.0700	  540.00	  582.15	-1861.15	  366.25
    106.1700	  588.00	  588.50	-1819.50	  365.98
    106.2700	  606.00	  595.71	-1808.71	  365.70
    106.3700	  538.00	  603.78	-1884.78	  365.43
    106.4700	  571.00	  612.63	-1860.63	  365.16
    106.5700	  631.00	  622.11	-1810.11	  364.89
    106.6700	  575.00	  632.00	-1876.00	  364.62
    106.7700	  629.00	  642.01	-1832.01	  364.35
    106.8700	  631.00	  651.79	-1839.79	  364.08
    106.9700	  585.00	  660.97	-1894.97	  363.81
    107.0700	  648.00	  669.13	-1840.13	  363.55
    107.1700	  629.00	  675.90	-1865.90	  363.28
    107.2700	  671.00	  680.97	-1828.97	  363.01
    107.3700	  696.00	  684.16	-1807.16	  362.74
    107.4700	  668.00	  685.47	-1836.47	  362.48
    107.5700	  697.00	  685.07	-1807.07	  362.21
    107.6700	  684.00	  683.28	-1818.28	  361.94
    107.7700	  641.00	  680.54	-1858.54	  361.68
    107.8700	  663.00	  677.29	-1833.29	  361.41
    107.9700	  665.00	  673.99	-1827.99	  361.15
    108.0700	  675.00	  671.00	-1815.00	  360.89
    108.1700	  665.00	  668.61	-1822.61	  360.62
    108.2700	  713.00	  666.98	-1772.98	  360.36
    108.3700	  653.00	  666.20	-1832.20	  360.10
    108.4700	  651.00	  666.19	-1834.19	  359.84
    108.5700	  650.00	  666.79	-1835.79	  359.58
    108.6700	  737.00	  667.74	-1749.74	  359.32
    108.7700	  655.00	  668.69	-1832.69	  359.06
    108.8700	  678.00	  669.25	-1810.25	  358.81
    108.9700	  673.00	  669.03	-1815.03	  358.55
    109.0700	  684.00	  667.65	-1802.65	  358.29
    109.1700	  700.00	  664.88	-1783.88	  358.04
    109.2700	  647.00	  660.58	-1832.58	  357.78
    109.3700	  653.00	  654.76	-1820.76	  357.53
    109.4700	  674.00	  647.56	-1792.56	  357.28
    109.5700	  664.00	  639.21	-1794.21	  357.03
    109.6700	  573.00	  630.03	-1876.03	  356.78
    109.7700	  678.00	  620.32	-1761.32	  356.53
    109.8700	  592.00	  610.40	-1837.40	  356.28
    109.9700	  600.00	  600.56	-1819.56	  356.04
    110.0700	  608.00	  591.07	-1802.07	  355.79
    110.1700	  567.00	  582.14	-1834.15	  355.55
    110.2700	  608.00	  573.96	-1784.96	  355.30
    110.3700	  554.00	  566.64	-1831.64	  355.06
    110.4700	  564.00	  560.26	-1815.26	  354.82
    110.5700	  572.00	  554.85	-1801.85	  354.58
    110.6700	  541.00	  550.41	-1828.41	  354.34
    110.7700	  546.00	  546.90	-1819.90	  354.11
    110.8700	  592.00	  544.26	-1771.26	  353.87
    110.9700	  535.00	  542.41	-1826.41	  353.64
    111.0700	  568.00	  541.27	-1792.27	  353.41
    111.1700	  573.00	  540.76	-1786.76	  353.17
    111.2700	  588.00	  540.78	-1771.78	  352.95
    111.3700	  519.00	  541.28	-1841.28	  352.72
    111.4700	  541.00	  542.18	-1820.18	  352.49
    111.5700	  590.00	  543.42	-1772.42	  352.27
    111.6700	  513.00	  544.96	-1850.96	  352.04
    111.7700	  540.00	  546.76	-1825.76	  351.82
    111.8700	  540.00	  548.81	-1827.81	  351.60
    111.9700	  522.00	  551.08	-1848.08	  351.39
    112.0700	  576.00	  553.56	-1796.56	  351.17
    112.1700	  534.00	  556.27	-1841.27	  350.95
    112.2700	  556.00	  559.22	-1822.22	  350.74
    112.3700	  595.00	  562.41	-1786.41	  350.53
    112.4700	  532.00	  565.89	-1852.89	  350.32
    112.5700	  572.00	  569.69	-1816.69	  350.12
    112.6700	  592.00	  573.87	-1800.87	  349.91
    112.7700	  628.00	  578.50	-1769.50	  349.71
    112.8700	  578.00	  583.66	-1824.66	  349.51
    112.9700	  628.00	  589.47	-1780.47	  349.31
    113.0700	  678.00	  596.08	-1737.08	  349.11
    113.1700	  704.00	  603.68	-1718.68	  348.92
    113.2700	  719.00	  612.54	-1712.54	  348.72
    113.3700	  774.00	  622.99	-1667.99	  348.53
    113.4700	  770.00	  635.44	-1684.44	  348.35
    113.5700	  835.00	  650.42	-1634.42	  348.16
    113.6700	  825.00	  668.60	-1662.60	  347.98
    113.7700	  906.00	  690.78	-1603.78	  347.80
    113.8700	  939.00	  717.95	-1597.95	  347.62
    113.9700	  965.00	  751.31	-1605.31	  347.44
    114.0700	 1045.00	  792.25	-1566.25	  347.27
    114.1700	 1118.00	  842.41	-1543.41	  347.10
    114.2700	 1171.00	  903.61	-1551.61	  346.93
    114.3700	 1182.00	  977.90	-1614.90	  346.76
    114.4700	 1203.00	 1067.48	-1683.48	  346.60
    114.5700	 1331.00	 1174.70	-1662.70	  346.44
    114.6700	 1549.00	 1301.95	-1571.95	  346.28
    114.7700	 1625.00	 1451.56	-1645.56	  346.12
    114.8700	 1758.00	 1625.70	-1686.70	  345.97
    114.9700	 2004.00	 1826.19	-1641.19	  345.82
    115.0700	 2160.00	 2054.49	-1713.49	  345.67
    115.1700	 2385.00	 2311.44	-1745.44	  345.53
    115.2700	 2607.00	 2597.03	-1809.03	  345.38
    115.3700	 2871.00	 2910.38	-1858.38	  345.24
    115.4700	 3128.00	 3249.50	-1940.50	  345.11
    115.5700	 3410.00	 3611.36	-2020.36	  344.98
    115.6700	 3723.00	 3991.72	-2087.72	  344.85
    115.7700	 4162.00	 4384.97	-2041.97	  344.72
    115.8700	 4561.00	 4784.33	-2042.33	  344.59
    115.9700	 4921.00	 5181.72	-2079.72	  344.47
    116.0700	 5304.00	 5568.12	-2083.12	  344.36
    116.1700	 5568.00	 5933.53	-2184.53	  344.24
    116.2700	 6081.00	 6267.17	-2005.17	  344.13
    116.3700	 6444.00	 6558.02	-1933.02	  344.02
    116.4700	 6632.00	 6795.35	-1982.35	  343.92
    116.5700	 6900.00	 6969.64	-1888.64	  343.82
    116.6700	 7089.00	 7073.35	-1803.35	  343.72
    116.7700	 7230.00	 7101.79	-1690.79	  343.63
    116.8700	 7276.00	 7053.82	-1596.82	  343.54
    116.9700	 7153.00	 6931.98	-1597.98	  343.45
    117.0700	 6875.00	 6742.09	-1686.09	  343.37
    117.1700	 6676.00	 6492.53	-1635.53	  343.29
    117.2700	 6282.00	 6193.38	-1730.38	  343.21
    117.3700	 5988.00	 5855.51	-1686.51	  343.14
    117.4700	 5313.00	 5489.85	-1995.85	  343.07
    117.5700	 5031.00	 5106.78	-1894.78	  343.00
    117.6700	 4793.00	 4715.85	-1741.85	  342.94
    117.7700	 4501.00	 4325.67	-1643.67	  342.89
    117.8700	 4088.00	 3943.65	-1674.65	  342.83
    117.9700	 3761.00	 3575.99	-1633.99	  342.78
    118.0700	 3314.00	 3227.54	-1732.54	  342.74
    118.1700	 3057.00	 2901.91	-1663.91	  342.70
    118.2700	 2628.00	 2601.65	-1792.65	  342.66
    118.3700	 2319.00	 2328.21	-1828.21	  342.63
    118.4700	 2065.00	 2082.10	-1836.10	  342.60
    118.5700	 1802.00	 1862.97	-1879.97	  342.57
    118.6700	 1588.00	 1669.83	-1900.83	  342.55
    118.7700	 1360.00	 1501.26	-1960.26	  342.54
    118.8700	 1220.00	 1355.43	-1954.43	  342.53
    118.9700	 1068.00	 1230.30	-1981.30	  342.52
    119.0700	 1046.00	 1123.69	-1896.69	  342.52
    119.1700	  966.00	 1033.41	-1886.41	  342.52
    119.2700	  870.00	  957.37	-1906.37	  342.52
    119.3700	  843.00	  893.59	-1869.59	  342.54
    119.4700	  743.00	  840.26	-1916.26	  342.55
    119.5700	  746.00	  795.76	-1868.76	  342.57
    119.6700	  679.00	  758.64	-1898.64	  342.60
    119.7700	  618.00	  727.70	-1928.70	  342.63
    119.8700	  658.00	  701.88	-1862.88	  342.66
    119.9700	  602.00	  680.31	-1897.31	  342.70
    120.0700	  576.00	  662.26	-1905.26	  342.74
    120.1700	  596.00	  647.14	-1870.14	  342.79
    120.2700	  559.00	  634.44	-1894.44	  342.85
    120.3700	  581.00	  623.79	-1861.79	  342.91
    120.4700	  508.00	  614.86	-1925.86	  342.97
    120.5700	  530.00	  607.40	-1896.40	  343.04
    120.6700	  526.00	  601.19	-1894.19	  343.12
    120.7700	  537.00	  596.10	-1878.10	  343.20
    120.8700	  543.00	  591.97	-1867.97	  343.28
    120.9700	  562.00	  588.72	-1845.72	  343.37
    121.0700	  565.00	  586.27	-1840.27	  343.47
    121.1700	  555.00	  584.55	-1848.55	  343.57
    121.2700	  568.00	  583.50	-1834.50	  343.68
    121.3700	  562.00	  583.10	-1840.10	  343.79
    121.4700	  538.00	  583.29	-1864.29	  343.91
    121.5700	  551.00	  584.03	-1852.03	  344.04
    121.6700	  575.00	  585.27	-1829.27	  344.17
    121.7700	  612.00	  586.97	-1793.97	  344.30
    121.8700	  585.00	  589.06	-1823.06	  344.44
    121.9700	  569.00	  591.48	-1841.48	  344.59
    122.0700	  606.00	  594.17	-1807.17	  344.74
    122.1700	  614.00	  597.04	-1802.04	  344.90
    122.2700	  640.00	  600.01	-1779.01	  345.07
    122.3700	  640.00	  602.97	-1781.97	  345.24
    122.4700	  596.00	  605.82	-1828.82	  345.42
    122.5700	  665.00	  608.48	-1762.48	  345.60
    122.6700	  673.00	  610.83	-1756.83	  345.79
    122.7700	  596.00	  612.79	-1835.79	  345.99
    122.8700	  596.00	  614.27	-1837.27	  346.19
    122.9700	  619.00	  615.22	-1815.22	  346.40
    123.0700	  712.00	  615.59	-1722.59	  346.61
    123.1700	  655.00	  615.37	-1779.37	  346.83
    123.2700	  658.00	  614.57	-1775.57	  347.06
    123.3700	  645.00	  613.23	-1787.23	  347.30
    123.4700	  633.00	  611.39	-1797.39	  347.54
    123.5700	  597.00	  609.10	-1831.10	  347.79
    123.6700	  594.00	  606.44	-1831.44	  348.04
    123.7700	  641.00	  603.46	-1781.46	  348.30
    123.8700	  640.00	  600.25	-1779.25	  348.57
    123.9700	  588.00	  596.86	-1827.86	  348.85
    124.0700	  600.00	  593.36	-1812.36	  349.13
    124.1700	  607.00	  589.81	-1801.81	  349.42
    124.2700	  607.00	  586.27	-1798.27	  349.72
    124.3700	  601.00	  582.79	-1800.79	  350.02
    124.4700	  636.00	  579.40	-1762.40	  350.33
    124.5700	  583.00	  576.14	-1812.14	  350.65
    124.6700	  565.00	  573.04	-1827.04	  350.98
    124.7700	  588.00	  570.12	-1801.12	  351.31
    124.8700	  571.00	  567.39	-1815.39	  351.65
    124.9700	  592.00	  466.17	-1693.17	  352.00
    125.0700	  603.00	  466.53	-1819.00	  352.36
    125.1700	  572.00	  466.89	-1819.00	  352.72
    125.2700	  575.00	  467.27	-1819.00	  353.09
    125.3700	  546.00	  467.64	-1819.00	  353.47
    125.4700	  593.00	  468.03	-1819.00	  353.86
    125.5700	  570.00	  468.43	-1819.00	  354.25
    125.6700	  544.00	  468.83	-1819.00	  354.66
    125.7700	  566.00	  469.24	-1819.00	  355.07
    125.8700	  582.00	  469.66	-1819.00	  355.49
    125.9700	  548.00	  470.08	-1819.00	  355.91
    126.0700	  537.00	  470.52	-1819.00	  356.35
    126.1700	  618.00	  470.96	-1819.00	  356.79
    126.2700	  528.00	  471.41	-1819.00	  357.24
    126.3700	  526.00	  471.87	-1819.00	  357.70
    126.4700	  570.00	  472.34	-1819.00	  358.17
    126.5700	  576.00	  472.82	-1819.00	  358.65
    126.6700	  582.00	  473.30	-1819.00	  359.13
    126.7700	  588.00	  473.80	-1819.00	  359.63
    126.8700	  597.00	  474.30	-1819.00	  360.13
    126.9700	  613.00	  474.81	-1819.00	  360.64
    127.0700	  576.00	  475.33	-1819.00	  361.16
    127.1700	  627.00	  475.86	-1819.00	  361.69
    127.2700	  635.00	  476.40	-1819.00	  362.23
    127.3700	  612.00	  476.95	-1819.00	  362.77
    127.4700	  593.00	  477.50	-1819.00	  363.33
    127.5700	  644.00	  478.07	-1819.00	  363.89
    127.6700	  678.00	  478.64	-1819.00	  364.47
    127.7700	  756.00	  479.22	-1819.00	  365.05
    127.8700	  704.00	  479.82	-1819.00	  365.65
    127.9700	  709.00	  480.42	-1819.00	  366.25
    128.0700	  707.00	  481.03	-1819.00	  366.86
    128.1700	  728.00	  481.65	-1819.00	  367.48
    128.2700	  742.00	  482.28	-1819.00	  368.11
    128.3700	  790.00	  482.92	-1819.00	  368.75
    128.4700	  800.00	  483.57	-1819.00	  369.40
    128.5700	    0.00	  484.23	-1819.00	  370.06
    128.6700	    0.00	  484.90	-1819.00	  370.73
     12.3203	        	        	        	        	       0	(  0  0  2)	  0  1
     24.9140	        	        	        	        	       0	(  0  0  4)	  0  1
     28.3501	        	        	        	        	       0	(  1  0  0)	  0  1
     29.0481	        	        	        	        	       0	(  1  0  1)	  0  1
     31.0565	        	        	        	        	       0	(  1  0  2)	  0  1
     34.1683	        	        	        	        	       0	(  1  0  3)	  0  1
     37.8245	        	        	        	        	       0	(  0  0  6)	  0  1
     38.1496	        	        	        	        	       0	(  1  0  4)	  0  1
     42.8045	        	        	        	        	       0	(  1  0  5)	  0  1
     47.9939	        	        	        	        	       0	(  1  0  6)	  0  1
     50.2998	        	        	        	        	       0	(  1  1  0)	  0  1
     51.2587	        	        	        	        	       0	(  0  0  8)	  0  1
     52.0249	        	        	        	        	       0	(  1  1  2)	  0  1
     53.6303	        	        	        	        	       0	(  1  0  7)	  0  1
     56.9788	        	        	        	        	       0	(  1  1  4)	  0  1
     58.8024	        	        	        	        	       0	(  2  0  0)	  0  1
     59.1944	        	        	        	        	       0	(  2  0  1)	  0  1
     59.6673	        	        	        	        	       0	(  1  0  8)	  0  1
     60.3613	        	        	        	        	       0	(  2  0  2)	  0  1
     62.2770	        	        	        	        	       0	(  2  0  3)	  0  1
     64.6829	        	        	        	        	       0	(  1  1  6)	  0  1
     64.9044	        	        	        	        	       0	(  2  0  4)	  0  1
     65.5025	        	        	        	        	       0	(  0  0 10)	  0  1
     66.0908	        	        	        	        	       0	(  1  0  9)	  0  1
     68.2029	        	        	        	        	       0	(  2  0  5)	  0  1
     72.1355	        	        	        	        	       0	(  2  0  6)	  0  1
     72.9151	        	        	        	        	       0	(  1  0 10)	  0  1
     74.7333	        	        	        	        	       0	(  1  1  8)	  0  1
     76.6757	        	        	        	        	       0	(  2  0  7)	  0  1
     80.1821	        	        	        	        	       0	(  1  0 11)	  0  1
     81.0017	        	        	        	        	       0	(  0  0 12)	  0  1
     81.0608	        	        	        	        	       0	(  2  1  0)	  0  1
     81.4012	        	        	        	        	       0	(  2  1  1)	  0  1
     81.8131	        	        	        	        	       0	(  2  0  8)	  0  1
     82.4206	        	        	        	        	       0	(  2  1  2)	  0  1
     84.1144	        	        	        	        	       0	(  2  1  3)	  0  1
     86.4777	        	        	        	        	       0	(  2  1  4)	  0  1
     87.0220	        	        	        	        	       0	(  1  1 10)	  0  1
     87.5596	        	        	        	        	       0	(  2  0  9)	  0  1
     87.9675	        	        	        	        	       0	(  1  0 12)	  0  1
     89.5082	        	        	        	        	       0	(  2  1  5)	  0  1
     93.2116	        	        	        	        	       0	(  2  1  6)	  0  1
     93.9573	        	        	        	        	       0	(  2  0 10)	  0  1
     94.9637	        	        	        	        	       0	(  3  0  0)	  0  1
     95.3016	        	        	        	        	       0	(  3  0  1)	  0  1
     96.3166	        	        	        	        	       0	(  3  0  2)	  0  1
     96.3945	        	        	        	        	       0	(  1  0 13)	  0  1
     97.6077	        	        	        	        	       0	(  2  1  7)	  0  1
     98.0128	        	        	        	        	       0	(  3  0  3)	  0  1
     98.5687	        	        	        	        	       0	(  0  0 14)	  0  1
    100.4001	        	        	        	        	       0	(  3  0  4)	  0  1
    101.0919	        	        	        	        	       0	(  2  0 11)	  0  1
    101.9177	        	        	        	        	       0	(  1  1 12)	  0  1
    102.7396	        	        	        	        	       0	(  2  1  8)	  0  1
    103.4975	        	        	        	        	       0	(  3  0  5)	  0  1
    105.6651	        	        	        	        	       0	(  1  0 14)	  0  1
    107.3403	        	        	        	        	       0	(  3  0  6)	  0  1
    108.6886	        	        	        	        	       0	(  2  1  9)	  0  1
    109.1198	        	        	        	        	       0	(  2  0 12)	  0  1
    111.9907	        	        	        	        	       0	(  3  0  7)	  0  1
    115.6016	        	        	        	        	       0	(  2  1 10)	  0  1
    116.1342	        	        	        	        	       0	(  1  0 15)	  0  1
    116.7205	        	        	        	        	       0	(  2  2  0)	  0  1
    117.5576	        	        	        	        	       0	(  3  0  8)	  0  1
    118.2394	        	        	        	        	       0	(  2  2  2)	  0  1
    118.3275	        	        	        	        	       0	(  2  0 13)	  0  1
    120.1091	        	        	        	        	       0	(  0  0 16)	  0  1
    120.8083	        	        	        	        	       0	(  1  1 14)	  0  1
    122.9375	        	        	        	        	       0	(  2  2  4)	  0  1
    123.7519	        	        	        	        	       0	(  2  1 11)	  0  1
    124.2366	        	        	        	        	       0	(  3  0  9)	  0  1
    124.8031	        	        	        	        	       0	(  3  1  0)	  0  1
    125.2146	        	        	        	        	       0	(  3  1  1)	  0  1
    126.4618	        	        	        	        	       0	(  3  1  2)	  0  1
    128.5202	        	        	        	        	       0	(  1  0 16)	  0  1
    128.5869	        	        	        	        	       0	(  3  1  3)	  0  1
    129.2951	        	        	        	        	       0	(  2  0 14)	  0  1
    131.4052	        	        	        	        	       0	(  2  2  6)	  0  1
    131.6737	        	        	        	        	       0	(  3  1  4)	  0  1
    132.4069	        	        	        	        	       0	(  3  0 10)	  0  1
    133.7025	        	        	        	        	       0	(  2  1 12)	  0  1
    135.8777	        	        	        	        	       0	(  3  1  5)	  0  1
    141.5009	        	        	        	        	       0	(  3  1  6)	  0  1
    142.9414	        	        	        	        	       0	(  3  0 11)	  0  1
    143.5158	        	        	        	        	       0	(  2  0 15)	  0  1
    144.7903	        	        	        	        	       0	(  1  0 17)	  0  1
    145.7133	        	        	        	        	       0	(  2  2  8)	  0  1
    146.9426	        	        	        	        	       0	(  2  1 13)	  0  1
    149.2278	        	        	        	        	       0	(  3  1  7)	  0  1
    149.9199	        	        	        	        	       0	(  1  1 16)	  0  1
    154.4162	        	        	        	        	       0	(  0  0 18)	  0  1
    159.0077	        	        	        	        	       0	(  3  0 12)	  0  1
    159.1723	        	        	        	        	       0	(  4  0  0)	  0  1
    160.1460	        	        	        	        	       0	(  4  0  1)	  0  1
    161.3913	        	        	        	        	       0	(  3  1  8)	  0  1
    163.3949	        	        	        	        	       0	(  4  0  2)	  0  1
    170.7599	        	        	        	        	       0	(  2  0 16)	  0  1
    171.0945	        	        	        	        	       0	(  4  0  3)	  0  1
    176.1389	        	        	        	        	       0	(  2  1 14)	  0  1
