MSG Master    CELL:    5.91235   5.91235  23.25237   90.0000   90.0000  120.0000   SPGR: P 63/m m c             TEMP:    958.15
  1   1280     2.52000     0.00000    -0.12493     0.00000     0.00000    0
    99     0     2
       0.00000      10.00000
     125.00000     130.00000
 2Theta	Yobs	Ycal	Yobs-Ycal	Backg	Posr	(hkl)	K
      0.7700	    0.00	  490.33	-1739.50	  377.92
      0.8700	    0.00	  491.58	-1739.50	  379.17
      0.9700	   46.00	  492.82	-1739.50	  380.41
      1.0700	   47.00	  494.04	-1739.50	  381.63
      1.1700	   38.00	  495.25	-1739.50	  382.84
      1.2700	   41.00	  496.44	-1739.50	  384.03
      1.3700	   49.00	  497.62	-1739.50	  385.21
      1.4700	   83.00	  498.78	-1739.50	  386.38
      1.5700	  301.00	  499.93	-1739.50	  387.53
      1.6700	  438.00	  501.07	-1739.50	  388.66
      1.7700	  569.00	  502.19	-1739.50	  389.79
      1.8700	  646.00	  503.30	-1739.50	  390.89
      1.9700	  701.00	  504.40	-1739.50	  391.99
      2.0700	  732.00	  505.48	-1739.50	  393.07
      2.1700	  826.00	  506.54	-1739.50	  394.14
      2.2700	  772.00	  507.60	-1739.50	  395.19
      2.3700	  751.00	  508.63	-1739.50	  396.23
      2.4700	  764.00	  509.66	-1739.50	  397.25
      2.5700	  676.00	  510.67	-1739.50	  398.27
      2.6700	  652.00	  511.67	-1739.50	  399.27
      2.7700	  596.00	  512.66	-1739.50	  400.25
      2.8700	  641.00	  513.63	-1739.50	  401.22
      2.9700	  608.00	  514.59	-1739.50	  402.18
      3.0700	  600.00	  515.54	-1739.50	  403.13
      3.1700	  623.00	  516.47	-1739.50	  404.07
      3.2700	  640.00	  517.39	-1739.50	  404.99
      3.3700	  726.00	  518.30	-1739.50	  405.90
      3.4700	  805.00	  519.20	-1739.50	  406.79
      3.5700	  831.00	  520.08	-1739.50	  407.68
      3.6700	 1012.00	  520.95	-1739.50	  408.55
      3.7700	 1007.00	  521.81	-1739.50	  409.41
      3.8700	 1007.00	  522.66	-1739.50	  410.25
      3.9700	 1132.00	  523.49	-1739.50	  411.09
      4.0700	 1118.00	  524.32	-1739.50	  411.91
      4.1700	 1182.00	  525.13	-1739.50	  412.72
      4.2700	 1193.00	  525.92	-1739.50	  413.52
      4.3700	 1139.00	  526.71	-1739.50	  414.30
      4.4700	 1150.00	  527.48	-1739.50	  415.08
      4.5700	 1140.00	  528.25	-1739.50	  415.84
      4.6700	 1113.00	  529.00	-1739.50	  416.59
      4.7700	 1040.00	  529.74	-1739.50	  417.33
      4.8700	  990.00	  530.47	-1739.50	  418.06
      4.9700	 1034.00	  531.18	-1739.50	  418.78
      5.0700	  999.00	  531.89	-1739.50	  419.48
      5.1700	  977.00	  532.58	-1739.50	  420.18
      5.2700	  962.00	  533.27	-1739.50	  420.86
      5.3700	  905.00	  533.94	-1739.50	  421.53
      5.4700	  888.00	  534.60	-1739.50	  422.19
      5.5700	  850.00	  535.25	-1739.50	  422.84
      5.6700	  906.00	  535.89	-1739.50	  423.48
      5.7700	  826.00	  536.52	-1739.50	  424.11
      5.8700	  849.00	  537.14	-1739.50	  424.73
      5.9700	  866.00	  537.75	-1739.50	  425.34
      6.0700	  782.00	  538.34	-1739.50	  425.94
      6.1700	  838.00	  538.93	-1739.50	  426.52
      6.2700	  762.00	  539.51	-1739.50	  427.10
      6.3700	  770.00	  540.07	-1739.50	  427.66
      6.4700	  781.00	  540.63	-1739.50	  428.22
      6.5700	  766.00	  541.17	-1739.50	  428.77
      6.6700	  789.00	  541.71	-1739.50	  429.30
      6.7700	  713.00	  542.23	-1739.50	  429.83
      6.8700	  712.00	  542.75	-1739.50	  430.34
      6.9700	  727.00	  543.26	-1739.50	  430.85
      7.0700	  700.00	  543.75	-1739.50	  431.34
      7.1700	  706.00	  544.24	-1739.50	  431.83
      7.2700	  680.00	  544.71	-1739.50	  432.31
      7.3700	  700.00	  545.18	-1739.50	  432.77
      7.4700	  638.00	  545.64	-1739.50	  433.23
      7.5700	  646.00	  546.09	-1739.50	  433.68
      7.6700	  663.00	  546.53	-1739.50	  434.12
      7.7700	  677.00	  546.96	-1739.50	  434.55
      7.8700	  642.00	  547.38	-1739.50	  434.97
      7.9700	  656.00	  547.79	-1739.50	  435.38
      8.0700	  667.00	  548.19	-1739.50	  435.78
      8.1700	  603.00	  548.58	-1739.50	  436.18
      8.2700	  669.00	  548.97	-1739.50	  436.56
      8.3700	  638.00	  549.35	-1739.50	  436.94
      8.4700	  642.00	  549.71	-1739.50	  437.31
      8.5700	  596.00	  550.07	-1739.50	  437.66
      8.6700	  658.00	  550.42	-1739.50	  438.01
      8.7700	  601.00	  550.76	-1739.50	  438.35
      8.8700	  683.00	  551.09	-1739.50	  438.69
      8.9700	  596.00	  551.42	-1739.50	  439.01
      9.0700	  633.00	  551.73	-1739.50	  439.33
      9.1700	  593.00	  552.04	-1739.50	  439.64
      9.2700	  626.00	  552.34	-1739.50	  439.93
      9.3700	  581.00	  552.63	-1739.50	  440.23
      9.4700	  551.00	  552.92	-1739.50	  440.51
      9.5700	  601.00	  553.19	-1739.50	  440.78
      9.6700	  632.00	  553.46	-1739.50	  441.05
      9.7700	  588.00	  553.72	-1739.50	  441.31
      9.8700	  591.00	  553.97	-1739.50	  441.56
      9.9700	  582.00	  554.21	-1739.50	  441.81
     10.0700	  584.00	  556.05	-1711.55	  442.04
     10.1700	  610.00	  556.45	-1685.95	  442.27
     10.2700	  563.00	  556.88	-1733.38	  442.49
     10.3700	  548.00	  557.36	-1748.86	  442.71
     10.4700	  513.00	  557.93	-1784.43	  442.91
     10.5700	  580.00	  558.64	-1718.14	  443.11
     10.6700	  590.00	  559.60	-1709.10	  443.30
     10.7700	  580.00	  560.89	-1720.39	  443.49
     10.8700	  584.00	  562.59	-1718.09	  443.67
     10.9700	  600.00	  564.73	-1704.23	  443.84
     11.0700	  577.00	  567.29	-1729.79	  444.00
     11.1700	  576.00	  570.28	-1733.78	  444.15
     11.2700	  575.00	  573.75	-1738.25	  444.30
     11.3700	  564.00	  577.76	-1753.26	  444.45
     11.4700	  601.00	  582.48	-1720.98	  444.58
     11.5700	  553.00	  588.14	-1774.64	  444.71
     11.6700	  573.00	  595.09	-1761.59	  444.83
     11.7700	  635.00	  603.84	-1708.34	  444.95
     11.8700	  627.00	  614.84	-1727.34	  445.06
     11.9700	  661.00	  627.90	-1706.40	  445.16
     12.0700	  678.00	  641.11	-1702.61	  445.26
     12.1700	  708.00	  649.89	-1681.39	  445.34
     12.2700	  641.00	  647.55	-1746.05	  445.43
     12.3700	  634.00	  631.41	-1736.91	  445.51
     12.4700	  638.00	  609.45	-1710.95	  445.58
     12.5700	  603.00	  590.80	-1727.30	  445.64
     12.6700	  570.00	  578.30	-1747.80	  445.70
     12.7700	  544.00	  571.04	-1766.54	  445.75
     12.8700	  527.00	  567.12	-1779.62	  445.80
     12.9700	  572.00	  564.95	-1732.45	  445.84
     13.0700	  551.00	  563.62	-1752.12	  445.88
     13.1700	  549.00	  562.72	-1753.22	  445.90
     13.2700	  549.00	  562.05	-1752.55	  445.93
     13.3700	  539.00	  561.54	-1762.04	  445.95
     13.4700	  579.00	  561.14	-1721.64	  445.96
     13.5700	  546.00	  560.82	-1754.32	  445.97
     13.6700	  569.00	  560.55	-1731.05	  445.97
     13.7700	  553.00	  560.33	-1746.82	  445.96
     13.8700	  536.00	  560.13	-1763.63	  445.95
     13.9700	  594.00	  559.96	-1705.46	  445.94
     14.0700	  514.00	  559.81	-1785.31	  445.92
     14.1700	  570.00	  559.67	-1729.17	  445.89
     14.2700	  542.00	  559.54	-1757.04	  445.86
     14.3700	  510.00	  559.42	-1788.92	  445.83
     14.4700	  567.00	  559.34	-1731.84	  445.79
     14.5700	  562.00	  559.23	-1736.73	  445.74
     14.6700	  575.00	  559.12	-1723.62	  445.69
     14.7700	  557.00	  559.01	-1741.51	  445.63
     14.8700	  535.00	  558.91	-1763.41	  445.57
     14.9700	  522.00	  558.80	-1776.30	  445.51
     15.0700	  593.00	  558.70	-1705.20	  445.44
     15.1700	  566.00	  558.59	-1732.09	  445.36
     15.2700	  568.00	  558.48	-1729.98	  445.28
     15.3700	  564.00	  558.37	-1733.87	  445.20
     15.4700	  532.00	  558.26	-1765.76	  445.11
     15.5700	  552.00	  558.14	-1745.64	  445.02
     15.6700	  522.00	  558.02	-1775.52	  444.92
     15.7700	  582.00	  557.90	-1715.40	  444.82
     15.8700	  565.00	  557.78	-1732.28	  444.71
     15.9700	  553.00	  557.66	-1744.16	  444.60
     16.0700	  523.00	  557.53	-1774.03	  444.49
     16.1700	  551.00	  557.39	-1745.89	  444.37
     16.2700	  541.00	  557.26	-1755.76	  444.24
     16.3700	  538.00	  557.12	-1758.62	  444.12
     16.4700	  594.00	  556.98	-1702.48	  443.99
     16.5700	  548.00	  556.84	-1748.34	  443.85
     16.6700	  538.00	  556.69	-1758.19	  443.71
     16.7700	  598.00	  556.54	-1698.04	  443.57
     16.8700	  606.00	  556.38	-1689.88	  443.42
     16.9700	  577.00	  556.23	-1718.73	  443.27
     17.0700	  498.00	  556.07	-1797.57	  443.12
     17.1700	  608.00	  555.90	-1687.40	  442.96
     17.2700	  535.00	  555.74	-1760.24	  442.80
     17.3700	  541.00	  555.57	-1754.07	  442.63
     17.4700	  549.00	  555.39	-1745.89	  442.46
     17.5700	  555.00	  555.22	-1739.72	  442.29
     17.6700	  556.00	  555.15	-1738.65	  442.11
     17.7700	  509.00	  554.97	-1785.47	  441.94
     17.8700	  562.00	  554.78	-1732.28	  441.75
     17.9700	  564.00	  554.60	-1730.10	  441.57
     18.0700	  536.00	  554.41	-1757.91	  441.38
     18.1700	  530.00	  554.22	-1763.72	  441.18
     18.2700	  547.00	  554.11	-1746.61	  440.99
     18.3700	  531.00	  553.92	-1762.42	  440.79
     18.4700	  533.00	  553.72	-1760.22	  440.59
     18.5700	  550.00	  553.52	-1743.02	  440.38
     18.6700	  506.00	  553.32	-1786.82	  440.17
     18.7700	  552.00	  553.11	-1740.61	  439.96
     18.8700	  571.00	  552.90	-1721.40	  439.75
     18.9700	  565.00	  552.69	-1727.19	  439.53
     19.0700	  565.00	  552.48	-1726.98	  439.31
     19.1700	  555.00	  552.26	-1736.76	  439.09
     19.2700	  542.00	  552.04	-1749.54	  438.86
     19.3700	  534.00	  551.82	-1757.32	  438.63
     19.4700	  512.00	  551.60	-1779.10	  438.40
     19.5700	  551.00	  551.37	-1739.87	  438.17
     19.6700	  521.00	  551.15	-1769.65	  437.93
     19.7700	  535.00	  550.92	-1755.42	  437.70
     19.8700	  542.00	  550.69	-1748.19	  437.45
     19.9700	  522.00	  550.46	-1767.96	  437.21
     20.0700	  541.00	  550.26	-1748.76	  436.96
     20.1700	  550.00	  550.02	-1739.52	  436.72
     20.2700	  544.00	  549.79	-1745.29	  436.46
     20.3700	  518.00	  549.55	-1771.05	  436.21
     20.4700	  540.00	  549.31	-1748.81	  435.96
     20.5700	  506.00	  549.07	-1782.57	  435.70
     20.6700	  534.00	  548.83	-1754.33	  435.44
     20.7700	  537.00	  548.58	-1751.08	  435.17
     20.8700	  491.00	  548.34	-1796.84	  434.91
     20.9700	  505.00	  548.09	-1782.59	  434.64
     21.0700	  547.00	  547.85	-1740.35	  434.38
     21.1700	  553.00	  547.60	-1734.10	  434.10
     21.2700	  520.00	  547.36	-1766.86	  433.83
     21.3700	  566.00	  547.11	-1720.61	  433.56
     21.4700	  546.00	  546.86	-1740.36	  433.28
     21.5700	  591.00	  546.62	-1695.12	  433.00
     21.6700	  544.00	  546.37	-1741.87	  432.72
     21.7700	  548.00	  546.13	-1737.63	  432.44
     21.8700	  534.00	  545.88	-1751.38	  432.16
     21.9700	  514.00	  545.64	-1771.14	  431.87
     22.0700	  545.00	  545.40	-1739.90	  431.59
     22.1700	  553.00	  545.17	-1731.67	  431.30
     22.2700	  581.00	  544.94	-1703.44	  431.01
     22.3700	  541.00	  544.66	-1743.16	  430.71
     22.4700	  545.00	  544.44	-1738.94	  430.42
     22.5700	  560.00	  544.22	-1723.72	  430.13
     22.6700	  553.00	  544.17	-1730.67	  429.83
     22.7700	  604.00	  543.97	-1679.47	  429.53
     22.8700	  541.00	  543.79	-1742.29	  429.23
     22.9700	  552.00	  543.62	-1731.12	  428.93
     23.0700	  553.00	  543.47	-1729.97	  428.63
     23.1700	  517.00	  543.34	-1765.84	  428.33
     23.2700	  570.00	  543.24	-1712.74	  428.02
     23.3700	  578.00	  543.18	-1704.68	  427.72
     23.4700	  544.00	  543.17	-1738.67	  427.41
     23.5700	  548.00	  543.23	-1734.73	  427.10
     23.6700	  572.00	  543.39	-1710.89	  426.79
     23.7700	  529.00	  543.71	-1754.21	  426.48
     23.8700	  534.00	  544.30	-1749.80	  426.17
     23.9700	  551.00	  545.36	-1733.85	  425.86
     24.0700	  550.00	  547.22	-1736.72	  425.54
     24.1700	  539.00	  550.42	-1750.92	  425.23
     24.2700	  554.00	  555.58	-1741.08	  424.91
     24.3700	  555.00	  563.35	-1747.85	  424.60
     24.4700	  558.00	  574.11	-1755.61	  424.28
     24.5700	  595.00	  587.47	-1731.97	  423.96
     24.6700	  617.00	  601.43	-1723.93	  423.64
     24.7700	  627.00	  611.61	-1724.11	  423.32
     24.8700	  599.00	  611.93	-1752.43	  423.00
     24.9700	  636.00	  599.95	-1703.45	  422.68
     25.0700	  566.00	  582.10	-1755.60	  422.36
     25.1700	  582.00	  566.09	-1723.59	  422.03
     25.2700	  562.00	  554.78	-1732.28	  421.71
     25.3700	  568.00	  547.89	-1719.39	  421.39
     25.4700	  540.00	  544.02	-1743.52	  421.06
     25.5700	  572.00	  541.84	-1709.34	  420.74
     25.6700	  585.00	  540.51	-1695.01	  420.41
     25.7700	  601.00	  539.61	-1678.11	  420.08
     25.8700	  541.00	  538.96	-1737.46	  419.76
     25.9700	  580.00	  538.48	-1697.98	  419.43
     26.0700	  559.00	  538.12	-1718.62	  419.10
     26.1700	  562.00	  537.88	-1715.38	  418.77
     26.2700	  573.00	  537.74	-1704.24	  418.45
     26.3700	  522.00	  537.70	-1755.20	  418.12
     26.4700	  555.00	  537.75	-1722.25	  417.79
     26.5700	  539.00	  537.92	-1738.42	  417.46
     26.6700	  571.00	  538.22	-1706.72	  417.13
     26.7700	  516.00	  538.67	-1762.17	  416.80
     26.8700	  568.00	  539.31	-1710.81	  416.47
     26.9700	  524.00	  540.18	-1755.68	  416.14
     27.0700	  584.00	  541.36	-1696.86	  415.81
     27.1700	  551.00	  542.99	-1731.49	  415.48
     27.2700	  577.00	  545.28	-1707.78	  415.15
     27.3700	  556.00	  548.68	-1732.18	  414.82
     27.4700	  527.00	  554.03	-1766.53	  414.48
     27.5700	  599.00	  562.85	-1703.35	  414.15
     27.6700	  592.00	  577.61	-1725.11	  413.82
     27.7700	  588.00	  601.61	-1753.11	  413.49
     27.8700	  581.00	  638.12	-1796.62	  413.16
     27.9700	  695.00	  688.19	-1732.69	  412.83
     28.0700	  730.00	  747.86	-1757.36	  412.50
     28.1700	  890.00	  805.48	-1654.98	  412.17
     28.2700	  900.00	  840.97	-1680.47	  411.84
     28.3700	  899.00	  835.49	-1675.99	  411.51
     28.4700	  787.00	  797.38	-1749.88	  411.18
     28.5700	  762.00	  760.24	-1737.74	  410.85
     28.6700	  770.00	  746.83	-1716.33	  410.52
     28.7700	  729.00	  758.84	-1769.34	  410.19
     28.8700	  771.00	  782.53	-1751.03	  409.86
     28.9700	  761.00	  794.43	-1772.93	  409.53
     29.0700	  804.00	  772.86	-1708.36	  409.20
     29.1700	  768.00	  720.33	-1691.83	  408.87
     29.2700	  661.00	  661.31	-1739.81	  408.54
     29.3700	  608.00	  613.43	-1744.93	  408.22
     29.4700	  599.00	  581.09	-1721.59	  407.89
     29.5700	  568.00	  561.74	-1733.24	  407.56
     29.6700	  582.00	  550.87	-1708.37	  407.24
     29.7700	  632.00	  544.74	-1652.24	  406.91
     29.8700	  548.00	  541.02	-1732.52	  406.58
     29.9700	  541.00	  538.69	-1737.19	  406.26
     30.0700	  636.00	  537.37	-1640.87	  405.93
     30.1700	  567.00	  537.08	-1709.58	  405.61
     30.2700	  552.00	  538.17	-1725.67	  405.29
     30.3700	  596.00	  541.39	-1684.89	  404.96
     30.4700	  533.00	  547.87	-1754.37	  404.64
     30.5700	  556.00	  558.82	-1742.32	  404.32
     30.6700	  570.00	  574.69	-1744.19	  404.00
     30.7700	  621.00	  594.04	-1712.54	  403.68
     30.8700	  633.00	  612.59	-1719.09	  403.36
     30.9700	  608.00	  623.10	-1754.60	  403.04
     31.0700	  637.00	  618.35	-1720.85	  402.72
     31.1700	  622.00	  599.38	-1716.88	  402.40
     31.2700	  526.00	  576.04	-1789.54	  402.09
     31.3700	  561.00	  556.17	-1734.67	  401.77
     31.4700	  520.00	  542.28	-1761.78	  401.46
     31.5700	  491.00	  533.74	-1782.24	  401.14
     31.6700	  556.00	  528.89	-1712.39	  400.83
     31.7700	  523.00	  526.15	-1742.65	  400.52
     31.8700	  520.00	  524.50	-1744.00	  400.20
     31.9700	  511.00	  523.43	-1751.93	  399.89
     32.0700	  511.00	  522.71	-1751.21	  399.58
     32.1700	  559.00	  522.23	-1702.73	  399.27
     32.2700	  520.00	  521.97	-1741.47	  398.96
     32.3700	  552.00	  521.90	-1709.40	  398.66
     32.4700	  558.00	  522.04	-1703.54	  398.35
     32.5700	  570.00	  522.38	-1691.88	  398.04
     32.6700	  538.00	  522.98	-1724.48	  397.74
     32.7700	  540.00	  523.87	-1723.37	  397.44
     32.8700	  516.00	  525.14	-1748.64	  397.13
     32.9700	  521.00	  526.93	-1745.43	  396.83
     33.0700	  569.00	  529.48	-1699.98	  396.53
     33.1700	  529.00	  533.26	-1743.76	  396.23
     33.2700	  563.00	  539.25	-1715.75	  395.93
     33.3700	  562.00	  549.37	-1726.87	  395.64
     33.4700	  529.00	  567.01	-1777.51	  395.34
     33.5700	  595.00	  597.20	-1741.70	  395.04
     33.6700	  562.00	  645.60	-1823.10	  394.75
     33.7700	  718.00	  715.15	-1736.65	  394.46
     33.8700	  807.00	  800.91	-1733.41	  394.17
     33.9700	  959.00	  885.70	-1666.20	  393.88
     34.0700	  998.00	  939.89	-1681.39	  393.59
     34.1700	 1015.00	  932.62	-1657.12	  393.30
     34.2700	  906.00	  862.77	-1696.27	  393.01
     34.3700	  812.00	  766.95	-1694.45	  392.72
     34.4700	  661.00	  679.91	-1758.41	  392.44
     34.5700	  636.00	  615.81	-1719.31	  392.16
     34.6700	  608.00	  574.74	-1706.24	  391.87
     34.7700	  533.00	  550.81	-1757.31	  391.59
     34.8700	  544.00	  537.32	-1732.82	  391.31
     34.9700	  534.00	  529.40	-1734.90	  391.04
     35.0700	  548.00	  524.27	-1715.77	  390.76
     35.1700	  524.00	  520.59	-1736.09	  390.48
     35.2700	  512.00	  517.76	-1745.26	  390.21
     35.3700	  515.00	  515.50	-1740.00	  389.94
     35.4700	  488.00	  513.61	-1765.11	  389.66
     35.5700	  516.00	  512.06	-1735.56	  389.39
     35.6700	  528.00	  511.20	-1722.70	  389.13
     35.7700	  503.00	  510.07	-1746.57	  388.86
     35.8700	  493.00	  509.09	-1755.59	  388.59
     35.9700	  482.00	  508.22	-1765.72	  388.33
     36.0700	  452.00	  507.45	-1794.95	  388.06
     36.1700	  503.00	  506.77	-1743.27	  387.80
     36.2700	  546.00	  506.17	-1699.67	  387.54
     36.3700	  462.00	  505.63	-1783.13	  387.28
     36.4700	  531.00	  505.14	-1713.64	  387.02
     36.5700	  499.00	  504.71	-1745.21	  386.77
     36.6700	  519.00	  504.35	-1724.85	  386.51
     36.7700	  535.00	  504.05	-1708.55	  386.26
     36.8700	  499.00	  503.86	-1744.36	  386.01
     36.9700	  533.00	  503.85	-1710.35	  385.76
     37.0700	  519.00	  504.12	-1724.62	  385.51
     37.1700	  492.00	  504.88	-1752.38	  385.26
     37.2700	  481.00	  506.38	-1764.88	  385.02
     37.3700	  460.00	  508.80	-1788.30	  384.77
     37.4700	  515.00	  512.12	-1736.62	  384.53
     37.5700	  491.00	  515.86	-1764.36	  384.29
     37.6700	  551.00	  518.96	-1707.46	  384.05
     37.7700	  498.00	  520.05	-1761.55	  383.81
     37.8700	  504.00	  518.39	-1753.89	  383.58
     37.9700	  525.00	  514.79	-1729.29	  383.34
     38.0700	  494.00	  510.70	-1756.20	  383.11
     38.1700	  490.00	  507.16	-1756.66	  382.88
     38.2700	  487.00	  504.17	-1756.67	  382.65
     38.3700	  481.00	  501.95	-1760.45	  382.42
     38.4700	  526.00	  500.41	-1713.91	  382.19
     38.5700	  493.00	  499.36	-1745.86	  381.97
     38.6700	  477.00	  498.62	-1761.12	  381.74
     38.7700	  463.00	  498.08	-1774.58	  381.52
     38.8700	  509.00	  497.65	-1728.15	  381.30
     38.9700	  501.00	  497.29	-1735.79	  381.08
     39.0700	  471.00	  496.86	-1765.36	  380.86
     39.1700	  488.00	  496.58	-1748.08	  380.65
     39.2700	  484.00	  496.32	-1751.82	  380.44
     39.3700	  497.00	  496.07	-1738.57	  380.22
     39.4700	  497.00	  495.85	-1738.35	  380.01
     39.5700	  542.00	  495.63	-1693.14	  379.81
     39.6700	  477.00	  495.44	-1757.94	  379.60
     39.7700	  465.00	  495.25	-1769.75	  379.39
     39.8700	  534.00	  494.99	-1700.49	  379.19
     39.9700	  496.00	  494.83	-1738.33	  378.99
     40.0700	  521.00	  494.68	-1713.18	  378.79
     40.1700	  454.00	  494.55	-1780.05	  378.59
     40.2700	  513.00	  494.43	-1720.93	  378.39
     40.3700	  508.00	  494.33	-1725.83	  378.20
     40.4700	  487.00	  494.24	-1746.74	  378.00
     40.5700	  436.00	  494.18	-1797.68	  377.81
     40.6700	  487.00	  494.63	-1747.13	  377.62
     40.7700	  476.00	  494.62	-1758.12	  377.44
     40.8700	  474.00	  494.63	-1760.13	  377.25
     40.9700	  468.00	  494.68	-1766.18	  377.06
     41.0700	  519.00	  494.77	-1715.27	  376.88
     41.1700	  494.00	  494.92	-1740.42	  376.70
     41.2700	  488.00	  495.13	-1746.63	  376.52
     41.3700	  510.00	  495.41	-1724.91	  376.34
     41.4700	  506.00	  495.81	-1729.31	  376.17
     41.5700	  497.00	  496.35	-1738.85	  375.99
     41.6700	  466.00	  497.10	-1770.60	  375.82
     41.7700	  484.00	  498.21	-1753.71	  375.65
     41.8700	  522.00	  499.97	-1717.47	  375.48
     41.9700	  468.00	  502.93	-1774.43	  375.32
     42.0700	  463.00	  508.10	-1784.60	  375.15
     42.1700	  522.00	  516.70	-1734.20	  374.99
     42.2700	  567.00	  530.50	-1703.00	  374.83
     42.3700	  526.00	  550.23	-1763.73	  374.67
     42.4700	  497.00	  575.26	-1817.76	  374.51
     42.5700	  584.00	  601.95	-1757.45	  374.35
     42.6700	  593.00	  623.05	-1769.55	  374.20
     42.7700	  570.00	  629.85	-1799.35	  374.04
     42.8700	  628.00	  618.25	-1729.75	  373.89
     42.9700	  566.00	  593.84	-1767.34	  373.74
     43.0700	  518.00	  566.26	-1787.76	  373.60
     43.1700	  550.00	  542.35	-1731.85	  373.45
     43.2700	  523.00	  524.29	-1740.79	  373.31
     43.3700	  495.00	  512.23	-1756.73	  373.17
     43.4700	  521.00	  504.85	-1723.35	  373.03
     43.5700	  523.00	  500.53	-1717.03	  372.89
     43.6700	  502.00	  497.98	-1735.48	  372.75
     43.7700	  507.00	  496.38	-1728.88	  372.62
     43.8700	  484.00	  495.29	-1750.79	  372.48
     43.9700	  523.00	  494.47	-1710.97	  372.35
     44.0700	  480.00	  493.89	-1753.39	  372.22
     44.1700	  480.00	  493.39	-1752.89	  372.10
     44.2700	  490.00	  492.99	-1742.49	  371.97
     44.3700	  518.00	  492.67	-1714.17	  371.85
     44.4700	  501.00	  492.61	-1731.11	  371.72
     44.5700	  466.00	  492.41	-1765.91	  371.60
     44.6700	  543.00	  492.26	-1688.76	  371.48
     44.7700	  483.00	  492.15	-1748.65	  371.37
     44.8700	  473.00	  492.07	-1758.57	  371.25
     44.9700	  471.00	  492.02	-1760.52	  371.14
     45.0700	  535.00	  492.01	-1696.51	  371.03
     45.1700	  507.00	  492.02	-1724.52	  370.92
     45.2700	  466.00	  492.06	-1765.56	  370.81
     45.3700	  486.00	  492.13	-1745.63	  370.70
     45.4700	  477.00	  492.23	-1754.73	  370.60
     45.5700	  511.00	  492.36	-1720.86	  370.50
     45.6700	  507.00	  492.52	-1725.02	  370.40
     45.7700	  497.00	  492.57	-1735.07	  370.30
     45.8700	  448.00	  492.79	-1784.29	  370.20
     45.9700	  533.00	  493.06	-1699.56	  370.11
     46.0700	  533.00	  493.37	-1699.87	  370.01
     46.1700	  517.00	  493.78	-1716.28	  369.92
     46.2700	  504.00	  494.23	-1729.73	  369.83
     46.3700	  520.00	  494.70	-1714.20	  369.74
     46.4700	  499.00	  495.25	-1735.75	  369.66
     46.5700	  508.00	  495.89	-1727.39	  369.57
     46.6700	  495.00	  496.65	-1741.15	  369.49
     46.7700	  491.00	  497.54	-1746.04	  369.41
     46.8700	  522.00	  498.66	-1716.16	  369.33
     46.9700	  531.00	  500.13	-1708.63	  369.25
     47.0700	  532.00	  502.21	-1709.71	  369.18
     47.1700	  499.00	  505.36	-1745.86	  369.10
     47.2700	  501.00	  510.25	-1748.75	  369.03
     47.3700	  517.00	  517.74	-1740.24	  368.96
     47.4700	  519.00	  528.62	-1749.12	  368.89
     47.5700	  539.00	  543.15	-1743.65	  368.82
     47.6700	  557.00	  560.52	-1743.02	  368.76
     47.7700	  558.00	  578.26	-1759.76	  368.69
     47.8700	  581.00	  592.08	-1750.58	  368.63
     47.9700	  560.00	  597.18	-1776.68	  368.57
     48.0700	  582.00	  591.74	-1749.24	  368.51
     48.1700	  570.00	  578.94	-1748.44	  368.46
     48.2700	  554.00	  564.05	-1749.55	  368.40
     48.3700	  536.00	  550.95	-1754.45	  368.35
     48.4700	  522.00	  541.54	-1759.04	  368.29
     48.5700	  568.00	  536.62	-1708.12	  368.24
     48.6700	  534.00	  535.01	-1740.51	  368.20
     48.7700	  517.00	  536.38	-1758.88	  368.15
     48.8700	  505.00	  540.15	-1774.65	  368.11
     48.9700	  590.00	  546.06	-1695.56	  368.06
     49.0700	  549.00	  554.37	-1744.87	  368.02
     49.1700	  524.00	  566.04	-1781.54	  367.98
     49.2700	  576.00	  583.30	-1746.80	  367.94
     49.3700	  599.00	  610.53	-1751.03	  367.91
     49.4700	  656.00	  655.40	-1738.90	  367.87
     49.5700	  691.00	  729.62	-1778.12	  367.84
     49.6700	  775.00	  848.11	-1812.61	  367.81
     49.7700	  965.00	 1025.16	-1799.66	  367.78
     49.8700	 1126.00	 1267.39	-1880.89	  367.75
     49.9700	 1520.00	 1564.40	-1783.90	  367.72
     50.0700	 1869.00	 1879.20	-1749.70	  367.70
     50.1700	 2303.00	 2143.06	-1579.56	  367.67
     50.2700	 2351.00	 2268.43	-1656.93	  367.65
     50.3700	 2294.00	 2200.30	-1645.80	  367.63
     50.4700	 1973.00	 1968.40	-1734.90	  367.61
     50.5700	 1690.00	 1660.87	-1710.37	  367.59
     50.6700	 1239.00	 1357.64	-1858.14	  367.58
     50.7700	  977.00	 1104.90	-1867.40	  367.56
     50.8700	  849.00	  918.95	-1809.45	  367.55
     50.9700	  727.00	  795.78	-1808.28	  367.54
     51.0700	  673.00	  720.38	-1786.88	  367.53
     51.1700	  651.00	  675.10	-1763.60	  367.52
     51.2700	  636.00	  644.54	-1748.04	  367.52
     51.3700	  616.00	  620.37	-1743.87	  367.51
     51.4700	  579.00	  599.64	-1760.14	  367.51
     51.5700	  562.00	  582.04	-1759.54	  367.51
     51.6700	  528.00	  567.77	-1779.27	  367.51
     51.7700	  590.00	  556.87	-1706.37	  367.51
     51.8700	  562.00	  549.06	-1726.56	  367.51
     51.9700	  512.00	  543.84	-1771.34	  367.52
     52.0700	  574.00	  540.68	-1706.18	  367.52
     52.1700	  548.00	  539.15	-1730.65	  367.53
     52.2700	  525.00	  539.03	-1753.53	  367.54
     52.3700	  561.00	  540.35	-1718.85	  367.55
     52.4700	  565.00	  543.45	-1717.95	  367.56
     52.5700	  596.00	  549.29	-1692.79	  367.58
     52.6700	  585.00	  559.64	-1714.14	  367.59
     52.7700	  586.00	  577.42	-1730.92	  367.61
     52.8700	  611.00	  606.80	-1735.30	  367.63
     52.9700	  658.00	  652.65	-1734.15	  367.65
     53.0700	  767.00	  719.21	-1691.71	  367.67
     53.1700	  801.00	  807.77	-1746.27	  367.69
     53.2700	  989.00	  914.06	-1664.56	  367.71
     53.3700	 1047.00	 1025.56	-1718.06	  367.74
     53.4700	 1111.00	 1120.01	-1748.51	  367.76
     53.5700	 1216.00	 1169.12	-1692.62	  367.79
     53.6700	 1152.00	 1153.48	-1740.98	  367.82
     53.7700	 1034.00	 1079.30	-1784.80	  367.85
     53.8700	  922.00	  973.12	-1790.62	  367.88
     53.9700	  793.00	  862.06	-1808.56	  367.91
     54.0700	  701.00	  763.75	-1802.25	  367.95
     54.1700	  670.00	  686.27	-1755.77	  367.98
     54.2700	  631.00	  630.81	-1739.31	  368.02
     54.3700	  613.00	  594.28	-1720.78	  368.06
     54.4700	  561.00	  571.85	-1750.35	  368.10
     54.5700	  574.00	  558.83	-1724.33	  368.14
     54.6700	  589.00	  551.62	-1702.12	  368.18
     54.7700	  544.00	  547.87	-1743.37	  368.23
     54.8700	  577.00	  546.24	-1708.74	  368.27
     54.9700	  534.00	  546.05	-1751.55	  368.32
     55.0700	  567.00	  546.98	-1719.48	  368.36
     55.1700	  568.00	  548.93	-1720.43	  368.41
     55.2700	  590.00	  551.90	-1701.40	  368.46
     55.3700	  581.00	  555.98	-1714.48	  368.51
     55.4700	  558.00	  561.38	-1742.88	  368.57
     55.5700	  546.00	  568.44	-1761.94	  368.62
     55.6700	  599.00	  577.85	-1718.35	  368.67
     55.7700	  578.00	  590.96	-1752.46	  368.73
     55.8700	  623.00	  610.26	-1726.76	  368.79
     55.9700	  628.00	  640.20	-1751.70	  368.85
     56.0700	  652.00	  688.10	-1775.60	  368.90
     56.1700	  702.00	  764.45	-1801.95	  368.97
     56.2700	  820.00	  882.22	-1801.72	  369.03
     56.3700	  947.00	 1054.15	-1846.65	  369.09
     56.4700	 1205.00	 1287.95	-1822.45	  369.15
     56.5700	 1522.00	 1579.85	-1797.35	  369.22
     56.6700	 1948.00	 1908.35	-1699.85	  369.29
     56.7700	 2176.00	 2228.78	-1792.28	  369.35
     56.8700	 2374.00	 2472.66	-1838.16	  369.42
     56.9700	 2479.00	 2566.14	-1826.64	  369.49
     57.0700	 2466.00	 2474.17	-1747.67	  369.56
     57.1700	 2231.00	 2231.10	-1739.60	  369.63
     57.2700	 1867.00	 1911.89	-1784.39	  369.71
     57.3700	 1564.00	 1585.78	-1761.28	  369.78
     57.4700	 1242.00	 1297.29	-1794.79	  369.85
     57.5700	 1021.00	 1067.86	-1786.36	  369.93
     57.6700	  911.00	  901.25	-1729.75	  370.01
     57.7700	  803.00	  790.15	-1726.65	  370.08
     57.8700	  683.00	  722.59	-1779.09	  370.16
     57.9700	  682.00	  686.85	-1744.35	  370.24
     58.0700	  720.00	  674.26	-1693.76	  370.32
     58.1700	  730.00	  679.76	-1689.26	  370.41
     58.2700	  721.00	  701.19	-1719.69	  370.49
     58.3700	  784.00	  737.94	-1693.44	  370.57
     58.4700	  870.00	  789.43	-1658.93	  370.66
     58.5700	  925.00	  853.67	-1668.17	  370.74
     58.6700	  970.00	  926.00	-1695.50	  370.83
     58.7700	 1150.00	  999.11	-1588.61	  370.91
     58.8700	 1124.00	 1065.52	-1681.02	  371.00
     58.9700	 1241.00	 1120.74	-1619.24	  371.09
     59.0700	 1301.00	 1161.88	-1600.38	  371.18
     59.1700	 1309.00	 1184.68	-1615.18	  371.27
     59.2700	 1355.00	 1186.50	-1571.00	  371.36
     59.3700	 1278.00	 1172.11	-1633.61	  371.46
     59.4700	 1318.00	 1151.94	-1573.44	  371.55
     59.5700	 1264.00	 1135.30	-1610.80	  371.64
     59.6700	 1232.00	 1128.60	-1636.10	  371.74
     59.7700	 1225.00	 1138.36	-1652.86	  371.83
     59.8700	 1193.00	 1171.74	-1718.24	  371.93
     59.9700	 1307.00	 1231.60	-1664.10	  372.03
     60.0700	 1380.00	 1311.77	-1671.27	  372.13
     60.1700	 1550.00	 1395.30	-1584.80	  372.22
     60.2700	 1495.00	 1455.69	-1700.19	  372.32
     60.3700	 1512.00	 1465.17	-1692.67	  372.42
     60.4700	 1489.00	 1410.67	-1661.17	  372.52
     60.5700	 1342.00	 1303.47	-1700.97	  372.63
     60.6700	 1192.00	 1169.16	-1716.66	  372.73
     60.7700	 1064.00	 1032.33	-1707.83	  372.83
     60.8700	  935.00	  909.90	-1714.40	  372.93
     60.9700	  811.00	  811.10	-1739.60	  373.04
     61.0700	  695.00	  739.14	-1783.64	  373.14
     61.1700	  633.00	  693.34	-1799.84	  373.25
     61.2700	  697.00	  671.49	-1713.99	  373.36
     61.3700	  605.00	  671.80	-1806.30	  373.46
     61.4700	  679.00	  694.02	-1754.52	  373.57
     61.5700	  722.00	  739.34	-1756.84	  373.68
     61.6700	  763.00	  809.26	-1785.76	  373.79
     61.7700	  921.00	  903.74	-1722.24	  373.90
     61.8700	 1019.00	 1018.95	-1739.45	  374.00
     61.9700	 1073.00	 1145.48	-1811.98	  374.11
     62.0700	 1230.00	 1266.88	-1776.38	  374.23
     62.1700	 1261.00	 1359.81	-1838.31	  374.34
     62.2700	 1369.00	 1399.57	-1770.07	  374.45
     62.3700	 1216.00	 1372.95	-1896.45	  374.56
     62.4700	 1243.00	 1288.00	-1784.50	  374.67
     62.5700	 1060.00	 1167.96	-1847.46	  374.79
     62.6700	  978.00	 1037.34	-1798.84	  374.90
     62.7700	  829.00	  914.21	-1824.71	  375.01
     62.8700	  791.00	  809.29	-1757.79	  375.13
     62.9700	  698.00	  726.94	-1768.44	  375.24
     63.0700	  640.00	  666.83	-1766.33	  375.36
     63.1700	  586.00	  625.75	-1779.25	  375.48
     63.2700	  576.00	  599.34	-1762.84	  375.59
     63.3700	  581.00	  583.51	-1742.01	  375.71
     63.4700	  543.00	  575.08	-1771.58	  375.83
     63.5700	  555.00	  572.18	-1756.68	  375.94
     63.6700	  594.00	  574.17	-1719.67	  376.06
     63.7700	  597.00	  581.38	-1723.88	  376.18
     63.8700	  566.00	  594.97	-1768.47	  376.30
     63.9700	  660.00	  616.49	-1695.99	  376.42
     64.0700	  676.00	  647.41	-1710.91	  376.54
     64.1700	  719.00	  688.51	-1709.01	  376.65
     64.2700	  783.00	  739.24	-1695.74	  376.77
     64.3700	  811.00	  796.88	-1725.38	  376.89
     64.4700	  942.00	  856.25	-1653.75	  377.01
     64.5700	  996.00	  909.42	-1652.92	  377.13
     64.6700	 1075.00	  947.20	-1611.70	  377.26
     64.7700	  955.00	  962.55	-1747.05	  377.38
     64.8700	 1018.00	  953.56	-1675.06	  377.50
     64.9700	  951.00	  923.14	-1711.64	  377.62
     65.0700	  866.00	  879.11	-1752.61	  377.74
     65.1700	  873.00	  829.11	-1695.61	  377.86
     65.2700	  815.00	  779.80	-1704.30	  377.98
     65.3700	  761.00	  735.21	-1713.71	  378.10
     65.4700	  694.00	  696.43	-1741.93	  378.23
     65.5700	  685.00	  663.59	-1718.09	  378.35
     65.6700	  603.00	  636.41	-1772.91	  378.47
     65.7700	  578.00	  614.59	-1776.09	  378.59
     65.8700	  571.00	  597.69	-1766.19	  378.72
     65.9700	  584.00	  585.15	-1740.65	  378.84
     66.0700	  558.00	  576.33	-1757.83	  378.96
     66.1700	  555.00	  570.69	-1755.19	  379.08
     66.2700	  502.00	  567.72	-1805.22	  379.21
     66.3700	  546.00	  567.05	-1760.55	  379.33
     66.4700	  531.00	  568.40	-1776.90	  379.45
     66.5700	  572.00	  571.68	-1739.18	  379.58
     66.6700	  551.00	  577.18	-1765.68	  379.70
     66.7700	  540.00	  585.43	-1784.93	  379.82
     66.8700	  582.00	  597.50	-1755.00	  379.94
     66.9700	  559.00	  615.70	-1796.20	  380.07
     67.0700	  659.00	  643.49	-1723.99	  380.19
     67.1700	  635.00	  685.83	-1790.33	  380.31
     67.2700	  769.00	  749.16	-1719.66	  380.44
     67.3700	  821.00	  840.87	-1759.37	  380.56
     67.4700	  990.00	  968.06	-1717.56	  380.68
     67.5700	 1148.00	 1135.23	-1726.73	  380.80
     67.6700	 1378.00	 1342.30	-1703.80	  380.92
     67.7700	 1561.00	 1581.93	-1760.43	  381.05
     67.8700	 1839.00	 1837.58	-1738.08	  381.17
     67.9700	 2072.00	 2082.06	-1749.56	  381.29
     68.0700	 2243.00	 2278.20	-1774.70	  381.41
     68.1700	 2414.00	 2385.48	-1710.98	  381.53
     68.2700	 2430.00	 2376.56	-1686.06	  381.65
     68.3700	 2187.00	 2253.86	-1806.36	  381.78
     68.4700	 2086.00	 2048.03	-1701.53	  381.90
     68.5700	 1907.00	 1799.98	-1632.48	  382.02
     68.6700	 1559.00	 1545.67	-1726.17	  382.14
     68.7700	 1273.00	 1310.56	-1777.06	  382.26
     68.8700	 1038.00	 1109.68	-1811.18	  382.38
     68.9700	  944.00	  949.18	-1744.68	  382.50
     69.0700	  815.00	  828.33	-1752.83	  382.62
     69.1700	  752.00	  741.90	-1729.40	  382.74
     69.2700	  682.00	  682.57	-1740.07	  382.85
     69.3700	  614.00	  643.30	-1768.80	  382.97
     69.4700	  615.00	  617.72	-1742.22	  383.09
     69.5700	  616.00	  601.04	-1724.54	  383.21
     69.6700	  552.00	  590.01	-1777.51	  383.33
     69.7700	  566.00	  582.53	-1756.03	  383.44
     69.8700	  579.00	  577.35	-1737.85	  383.56
     69.9700	  574.00	  573.79	-1739.29	  383.68
     70.0700	  591.00	  571.45	-1719.95	  383.79
     70.1700	  607.00	  570.16	-1702.66	  383.91
     70.2700	  570.00	  569.86	-1739.36	  384.02
     70.3700	  562.00	  570.57	-1748.07	  384.14
     70.4700	  567.00	  572.48	-1744.98	  384.25
     70.5700	  593.00	  575.93	-1722.43	  384.37
     70.6700	  596.00	  581.57	-1725.07	  384.48
     70.7700	  604.00	  590.50	-1726.00	  384.59
     70.8700	  593.00	  604.41	-1750.91	  384.71
     70.9700	  615.00	  626.74	-1751.24	  384.82
     71.0700	  670.00	  659.07	-1728.57	  384.93
     71.1700	  704.00	  706.47	-1741.97	  385.04
     71.2700	  752.00	  773.44	-1760.94	  385.15
     71.3700	  847.00	  864.06	-1756.56	  385.26
     71.4700	 1012.00	  980.74	-1708.24	  385.37
     71.5700	 1090.00	 1123.03	-1772.53	  385.48
     71.6700	 1264.00	 1286.21	-1761.71	  385.59
     71.7700	 1434.00	 1460.36	-1765.86	  385.69
     71.8700	 1588.00	 1629.73	-1781.23	  385.80
     71.9700	 1762.00	 1772.81	-1750.31	  385.91
     72.0700	 1821.00	 1865.18	-1783.68	  386.01
     72.1700	 1846.00	 1887.03	-1780.53	  386.12
     72.2700	 1750.00	 1833.13	-1822.63	  386.22
     72.3700	 1608.00	 1716.02	-1847.52	  386.33
     72.4700	 1597.00	 1558.77	-1701.27	  386.43
     72.5700	 1459.00	 1385.09	-1665.59	  386.53
     72.6700	 1288.00	 1214.08	-1665.58	  386.63
     72.7700	 1074.00	 1058.85	-1724.35	  386.74
     72.8700	  952.00	  926.80	-1714.30	  386.84
     72.9700	  861.00	  820.63	-1699.13	  386.94
     73.0700	  809.00	  739.37	-1669.87	  387.04
     73.1700	  736.00	  679.82	-1683.32	  387.13
     73.2700	  723.00	  637.68	-1654.18	  387.23
     73.3700	  652.00	  608.61	-1696.11	  387.33
     73.4700	  675.00	  588.34	-1652.84	  387.42
     73.5700	  665.00	  574.85	-1649.35	  387.52
     73.6700	  638.00	  565.55	-1667.05	  387.61
     73.7700	  577.00	  559.03	-1721.53	  387.71
     73.8700	  545.00	  554.40	-1748.90	  387.80
     73.9700	  548.00	  551.11	-1742.61	  387.89
     74.0700	  566.00	  548.83	-1722.33	  387.98
     74.1700	  640.00	  547.35	-1646.85	  388.08
     74.2700	  612.00	  546.46	-1673.96	  388.16
     74.3700	  610.00	  546.00	-1675.50	  388.25
     74.4700	  617.00	  545.77	-1668.27	  388.34
     74.5700	  597.00	  545.54	-1688.04	  388.43
     74.6700	  614.00	  545.10	-1670.60	  388.52
     74.7700	  621.00	  544.29	-1662.79	  388.60
     74.8700	  599.00	  543.08	-1683.58	  388.68
     74.9700	  618.00	  541.62	-1663.12	  388.77
     75.0700	  634.00	  540.11	-1645.61	  388.85
     75.1700	  614.00	  538.86	-1664.36	  388.93
     75.2700	  608.00	  538.17	-1669.67	  389.01
     75.3700	  550.00	  538.36	-1727.86	  389.09
     75.4700	  528.00	  539.81	-1751.31	  389.17
     75.5700	  551.00	  542.94	-1731.44	  389.25
     75.6700	  575.00	  548.16	-1712.66	  389.33
     75.7700	  562.00	  556.01	-1733.51	  389.40
     75.8700	  557.00	  566.80	-1749.30	  389.48
     75.9700	  604.00	  580.68	-1716.18	  389.55
     76.0700	  621.00	  597.52	-1716.02	  389.62
     76.1700	  653.00	  616.68	-1703.18	  389.70
     76.2700	  617.00	  637.28	-1759.78	  389.77
     76.3700	  667.00	  657.64	-1730.14	  389.84
     76.4700	  760.00	  675.61	-1655.11	  389.91
     76.5700	  687.00	  688.67	-1741.17	  389.97
     76.6700	  694.00	  694.52	-1740.02	  390.04
     76.7700	  674.00	  691.93	-1757.43	  390.11
     76.8700	  654.00	  681.36	-1766.86	  390.17
     76.9700	  657.00	  664.83	-1747.33	  390.23
     77.0700	  645.00	  644.80	-1739.30	  390.30
     77.1700	  621.00	  623.62	-1742.12	  390.36
     77.2700	  577.00	  603.10	-1765.60	  390.42
     77.3700	  539.00	  584.53	-1785.03	  390.48
     77.4700	  511.00	  568.63	-1797.13	  390.53
     77.5700	  587.00	  555.69	-1708.19	  390.59
     77.6700	  523.00	  545.62	-1762.12	  390.65
     77.7700	  536.00	  537.90	-1741.40	  390.70
     77.8700	  513.00	  532.47	-1758.97	  390.75
     77.9700	  523.00	  528.67	-1745.17	  390.81
     78.0700	  482.00	  526.06	-1783.56	  390.86
     78.1700	  518.00	  524.29	-1745.79	  390.91
     78.2700	  522.00	  523.10	-1740.60	  390.96
     78.3700	  515.00	  522.30	-1746.80	  391.00
     78.4700	  498.00	  521.76	-1763.26	  391.05
     78.5700	  497.00	  521.42	-1763.92	  391.09
     78.6700	  493.00	  521.24	-1767.74	  391.14
     78.7700	  500.00	  521.19	-1760.69	  391.18
     78.8700	  496.00	  521.29	-1764.79	  391.22
     78.9700	  517.00	  521.55	-1744.05	  391.26
     79.0700	  490.00	  521.99	-1771.49	  391.30
     79.1700	  513.00	  522.65	-1749.15	  391.34
     79.2700	  508.00	  523.56	-1755.06	  391.37
     79.3700	  504.00	  524.76	-1760.26	  391.41
     79.4700	  526.00	  526.29	-1739.79	  391.44
     79.5700	  477.00	  528.20	-1790.70	  391.47
     79.6700	  533.00	  530.51	-1737.01	  391.50
     79.7700	  562.00	  533.30	-1710.80	  391.53
     79.8700	  533.00	  536.63	-1743.13	  391.56
     79.9700	  543.00	  540.57	-1737.07	  391.59
     80.0700	  520.00	  545.27	-1764.77	  391.61
     80.1700	  533.00	  550.68	-1757.18	  391.64
     80.2700	  573.00	  557.45	-1723.95	  391.66
     80.3700	  559.00	  565.69	-1746.19	  391.68
     80.4700	  554.00	  575.71	-1761.21	  391.70
     80.5700	  566.00	  587.74	-1761.24	  391.72
     80.6700	  571.00	  601.79	-1770.29	  391.74
     80.7700	  641.00	  617.66	-1716.16	  391.76
     80.8700	  590.00	  634.82	-1784.32	  391.77
     80.9700	  656.00	  652.45	-1735.95	  391.78
     81.0700	  626.00	  669.52	-1783.02	  391.80
     81.1700	  706.00	  684.94	-1718.44	  391.81
     81.2700	  746.00	  697.78	-1691.28	  391.82
     81.3700	  745.00	  707.25	-1701.75	  391.82
     81.4700	  746.00	  712.77	-1706.27	  391.83
     81.5700	  762.00	  713.98	-1691.48	  391.83
     81.6700	  767.00	  710.81	-1683.31	  391.84
     81.7700	  741.00	  703.38	-1701.88	  391.84
     81.8700	  744.00	  692.08	-1687.58	  391.84
     81.9700	  704.00	  677.65	-1713.15	  391.84
     82.0700	  729.00	  661.16	-1671.66	  391.84
     82.1700	  693.00	  643.83	-1690.33	  391.83
     82.2700	  648.00	  626.68	-1718.18	  391.83
     82.3700	  593.00	  610.45	-1756.95	  391.82
     82.4700	  639.00	  595.62	-1696.12	  391.81
     82.5700	  608.00	  582.47	-1713.97	  391.80
     82.6700	  569.00	  571.17	-1741.67	  391.79
     82.7700	  542.00	  561.83	-1759.33	  391.78
     82.8700	  541.00	  554.46	-1752.96	  391.77
     82.9700	  546.00	  549.04	-1742.54	  391.75
     83.0700	  542.00	  545.49	-1742.99	  391.73
     83.1700	  521.00	  543.70	-1762.20	  391.72
     83.2700	  526.00	  543.55	-1757.05	  391.70
     83.3700	  469.00	  544.80	-1815.30	  391.67
     83.4700	  502.00	  547.38	-1784.88	  391.65
     83.5700	  518.00	  550.97	-1772.47	  391.63
     83.6700	  510.00	  555.19	-1784.69	  391.60
     83.7700	  564.00	  559.71	-1735.21	  391.57
     83.8700	  581.00	  564.01	-1722.51	  391.54
     83.9700	  547.00	  567.53	-1760.03	  391.51
     84.0700	  554.00	  569.75	-1755.25	  391.48
     84.1700	  538.00	  570.24	-1771.74	  391.45
     84.2700	  542.00	  568.86	-1766.36	  391.41
     84.3700	  555.00	  565.76	-1750.26	  391.37
     84.4700	  562.00	  561.34	-1738.84	  391.34
     84.5700	  520.00	  556.12	-1775.62	  391.30
     84.6700	  539.00	  550.56	-1751.06	  391.25
     84.7700	  464.00	  545.07	-1820.57	  391.21
     84.8700	  506.00	  539.95	-1773.45	  391.17
     84.9700	  546.00	  535.39	-1728.89	  391.12
     85.0700	  537.00	  531.52	-1734.02	  391.07
     85.1700	  566.00	  528.36	-1701.86	  391.02
     85.2700	  512.00	  525.90	-1753.40	  390.97
     85.3700	  483.00	  524.08	-1780.58	  390.92
     85.4700	  537.00	  522.81	-1725.31	  390.87
     85.5700	  523.00	  522.01	-1738.51	  390.81
     85.6700	  542.00	  521.63	-1719.13	  390.75
     85.7700	  519.00	  521.63	-1742.13	  390.69
     85.8700	  489.00	  522.00	-1772.50	  390.63
     85.9700	  503.00	  522.78	-1759.28	  390.57
     86.0700	  555.00	  524.04	-1708.54	  390.51
     86.1700	  543.00	  525.91	-1722.41	  390.44
     86.2700	  515.00	  528.52	-1753.02	  390.38
     86.3700	  514.00	  532.05	-1757.55	  390.31
     86.4700	  547.00	  536.65	-1729.15	  390.24
     86.5700	  507.00	  542.48	-1774.98	  390.17
     86.6700	  538.00	  549.63	-1751.13	  390.09
     86.7700	  541.00	  558.11	-1756.61	  390.02
     86.8700	  570.00	  567.80	-1737.30	  389.94
     86.9700	  547.00	  578.46	-1770.96	  389.87
     87.0700	  594.00	  589.67	-1735.17	  389.79
     87.1700	  617.00	  600.86	-1723.36	  389.70
     87.2700	  608.00	  611.28	-1742.78	  389.62
     87.3700	  610.00	  620.07	-1749.57	  389.54
     87.4700	  636.00	  626.32	-1729.82	  389.45
     87.5700	  668.00	  629.30	-1700.80	  389.36
     87.6700	  626.00	  628.65	-1742.15	  389.28
     87.7700	  625.00	  624.55	-1739.05	  389.18
     87.8700	  605.00	  617.65	-1752.15	  389.09
     87.9700	  597.00	  608.44	-1750.94	  389.00
     88.0700	  639.00	  598.68	-1699.18	  388.90
     88.1700	  595.00	  588.84	-1733.34	  388.81
     88.2700	  570.00	  579.70	-1749.20	  388.71
     88.3700	  573.00	  571.82	-1738.32	  388.61
     88.4700	  561.00	  565.62	-1744.12	  388.51
     88.5700	  568.00	  561.36	-1732.86	  388.40
     88.6700	  601.00	  559.10	-1697.60	  388.30
     88.7700	  586.00	  558.77	-1712.27	  388.19
     88.8700	  597.00	  560.14	-1702.64	  388.08
     88.9700	  570.00	  562.88	-1732.38	  387.97
     89.0700	  573.00	  566.58	-1733.08	  387.86
     89.1700	  597.00	  570.72	-1713.22	  387.75
     89.2700	  611.00	  574.75	-1703.25	  387.63
     89.3700	  578.00	  578.10	-1739.60	  387.52
     89.4700	  580.00	  580.22	-1739.72	  387.40
     89.5700	  582.00	  580.72	-1738.22	  387.28
     89.6700	  624.00	  579.41	-1694.91	  387.16
     89.7700	  541.00	  576.42	-1774.92	  387.04
     89.8700	  582.00	  572.05	-1729.55	  386.91
     89.9700	  609.00	  566.74	-1697.24	  386.79
     90.0700	  565.00	  560.93	-1735.43	  386.66
     90.1700	  541.00	  555.01	-1753.51	  386.53
     90.2700	  542.00	  549.31	-1746.81	  386.40
     90.3700	  535.00	  544.07	-1748.57	  386.27
     90.4700	  542.00	  539.45	-1736.95	  386.14
     90.5700	  495.00	  535.53	-1780.03	  386.00
     90.6700	  480.00	  532.36	-1791.86	  385.87
     90.7700	  518.00	  529.90	-1751.40	  385.73
     90.8700	  522.00	  528.10	-1745.60	  385.59
     90.9700	  504.00	  526.91	-1762.41	  385.45
     91.0700	  494.00	  526.25	-1771.75	  385.30
     91.1700	  461.00	  526.07	-1804.57	  385.16
     91.2700	  539.00	  526.35	-1726.85	  385.01
     91.3700	  550.00	  527.08	-1716.58	  384.87
     91.4700	  517.00	  528.30	-1750.80	  384.72
     91.5700	  500.00	  530.08	-1769.58	  384.57
     91.6700	  520.00	  532.55	-1752.05	  384.42
     91.7700	  505.00	  535.83	-1770.33	  384.26
     91.8700	  502.00	  540.12	-1777.62	  384.11
     91.9700	  551.00	  545.59	-1734.09	  383.95
     92.0700	  576.00	  552.45	-1715.95	  383.80
     92.1700	  552.00	  560.86	-1748.36	  383.64
     92.2700	  513.00	  570.96	-1797.46	  383.48
     92.3700	  511.00	  582.83	-1811.33	  383.31
     92.4700	  582.00	  596.45	-1753.95	  383.15
     92.5700	  589.00	  611.72	-1762.22	  382.99
     92.6700	  659.00	  628.40	-1708.90	  382.82
     92.7700	  630.00	  646.10	-1755.60	  382.65
     92.8700	  661.00	  664.34	-1742.84	  382.48
     92.9700	  614.00	  682.47	-1807.97	  382.31
     93.0700	  695.00	  699.79	-1744.29	  382.14
     93.1700	  757.00	  715.61	-1698.11	  381.97
     93.2700	  765.00	  729.19	-1703.69	  381.79
     93.3700	  704.00	  740.95	-1776.45	  381.61
     93.4700	  698.00	  750.81	-1792.31	  381.44
     93.5700	  740.00	  759.20	-1758.70	  381.26
     93.6700	  836.00	  766.64	-1670.14	  381.08
     93.7700	  801.00	  773.57	-1712.07	  380.90
     93.8700	  755.00	  780.40	-1764.90	  380.71
     93.9700	  877.00	  787.47	-1649.97	  380.53
     94.0700	  872.00	  795.23	-1662.73	  380.34
     94.1700	  819.00	  804.10	-1724.60	  380.15
     94.2700	  871.00	  814.47	-1682.97	  379.97
     94.3700	  865.00	  826.45	-1700.95	  379.78
     94.4700	  881.00	  839.80	-1698.30	  379.59
     94.5700	  878.00	  853.82	-1715.32	  379.39
     94.6700	  915.00	  867.43	-1691.93	  379.20
     94.7700	  857.00	  879.17	-1761.67	  379.00
     94.8700	  897.00	  887.42	-1729.92	  378.81
     94.9700	  949.00	  890.60	-1681.10	  378.61
     95.0700	  900.00	  887.61	-1727.11	  378.41
     95.1700	  853.00	  878.07	-1764.57	  378.21
     95.2700	  880.00	  862.50	-1722.00	  378.01
     95.3700	  830.00	  842.13	-1751.63	  377.81
     95.4700	  798.00	  818.64	-1760.14	  377.60
     95.5700	  837.00	  793.87	-1696.37	  377.40
     95.6700	  729.00	  769.65	-1780.15	  377.19
     95.7700	  730.00	  747.69	-1757.19	  376.98
     95.8700	  781.00	  729.57	-1688.07	  376.78
     95.9700	  726.00	  716.69	-1730.19	  376.57
     96.0700	  691.00	  710.30	-1758.80	  376.35
     96.1700	  668.00	  711.51	-1783.01	  376.14
     96.2700	  690.00	  721.18	-1770.68	  375.93
     96.3700	  780.00	  740.00	-1699.50	  375.71
     96.4700	  790.00	  768.40	-1717.90	  375.50
     96.5700	  789.00	  806.51	-1757.01	  375.28
     96.6700	  827.00	  854.13	-1766.63	  375.06
     96.7700	  864.00	  910.54	-1786.04	  374.85
     96.8700	  948.00	  974.59	-1766.09	  374.63
     96.9700	 1004.00	 1044.50	-1780.00	  374.41
     97.0700	 1148.00	 1117.95	-1709.45	  374.18
     97.1700	 1166.00	 1191.96	-1765.46	  373.96
     97.2700	 1250.00	 1263.00	-1752.50	  373.74
     97.3700	 1270.00	 1327.03	-1796.53	  373.51
     97.4700	 1383.00	 1379.79	-1736.29	  373.29
     97.5700	 1419.00	 1417.29	-1737.79	  373.06
     97.6700	 1484.00	 1436.47	-1691.97	  372.83
     97.7700	 1438.00	 1435.88	-1737.38	  372.60
     97.8700	 1377.00	 1416.04	-1778.54	  372.37
     97.9700	 1295.00	 1379.24	-1823.74	  372.14
     98.0700	 1310.00	 1328.98	-1758.48	  371.91
     98.1700	 1200.00	 1269.25	-1808.75	  371.68
     98.2700	 1148.00	 1204.11	-1795.61	  371.44
     98.3700	 1092.00	 1137.33	-1784.83	  371.21
     98.4700	 1103.00	 1072.27	-1708.77	  370.97
     98.5700	 1032.00	 1011.81	-1719.31	  370.74
     98.6700	  979.00	  958.35	-1718.85	  370.50
     98.7700	  963.00	  913.87	-1690.37	  370.26
     98.8700	  853.00	  879.92	-1766.42	  370.03
     98.9700	  854.00	  857.68	-1743.18	  369.79
     99.0700	  818.00	  848.02	-1769.52	  369.55
     99.1700	  886.00	  851.50	-1705.00	  369.31
     99.2700	  802.00	  868.45	-1805.95	  369.06
     99.3700	  938.00	  898.97	-1700.47	  368.82
     99.4700	  977.00	  942.88	-1705.38	  368.58
     99.5700	 1041.00	  999.84	-1698.34	  368.34
     99.6700	 1090.00	 1069.07	-1718.57	  368.09
     99.7700	 1175.00	 1149.45	-1713.95	  367.85
     99.8700	 1257.00	 1239.33	-1721.83	  367.60
     99.9700	 1257.00	 1336.55	-1819.05	  367.36
    100.0700	 1472.00	 1438.31	-1705.81	  367.11
    100.1700	 1565.00	 1541.27	-1715.77	  366.86
    100.2700	 1660.00	 1641.51	-1721.01	  366.61
    100.3700	 1682.00	 1734.94	-1792.44	  366.37
    100.4700	 1760.00	 1817.64	-1797.14	  366.12
    100.5700	 1910.00	 1886.30	-1715.80	  365.87
    100.6700	 1961.00	 1938.48	-1716.98	  365.62
    100.7700	 1976.00	 1972.54	-1736.04	  365.37
    100.8700	 2055.00	 1987.46	-1671.96	  365.12
    100.9700	 2036.00	 1982.77	-1686.27	  364.87
    101.0700	 1918.00	 1958.58	-1780.08	  364.61
    101.1700	 1990.00	 1915.97	-1665.47	  364.36
    101.2700	 1911.00	 1857.22	-1685.72	  364.11
    101.3700	 1791.00	 1785.87	-1734.37	  363.86
    101.4700	 1795.00	 1706.25	-1650.75	  363.60
    101.5700	 1635.00	 1622.96	-1727.46	  363.35
    101.6700	 1493.00	 1540.27	-1786.77	  363.10
    101.7700	 1427.00	 1461.81	-1774.31	  362.84
    101.8700	 1424.00	 1390.32	-1705.82	  362.59
    101.9700	 1387.00	 1327.63	-1680.13	  362.34
    102.0700	 1339.00	 1274.58	-1675.08	  362.08
    102.1700	 1217.00	 1231.17	-1753.67	  361.83
    102.2700	 1179.00	 1196.61	-1757.11	  361.57
    102.3700	 1125.00	 1169.45	-1783.95	  361.32
    102.4700	 1059.00	 1147.65	-1828.15	  361.06
    102.5700	 1165.00	 1128.84	-1703.34	  360.81
    102.6700	 1109.00	 1110.58	-1741.08	  360.55
    102.7700	 1083.00	 1090.66	-1747.16	  360.29
    102.8700	 1064.00	 1067.42	-1742.92	  360.04
    102.9700	 1051.00	 1039.98	-1728.48	  359.78
    103.0700	  974.00	 1008.21	-1773.71	  359.53
    103.1700	  946.00	  972.66	-1766.16	  359.27
    103.2700	  945.00	  934.29	-1728.79	  359.02
    103.3700	  870.00	  894.22	-1763.72	  358.76
    103.4700	  865.00	  853.63	-1728.13	  358.51
    103.5700	  815.00	  813.60	-1738.10	  358.25
    103.6700	  805.00	  775.08	-1709.58	  358.00
    103.7700	  748.00	  738.85	-1730.35	  357.74
    103.8700	  723.00	  705.50	-1722.00	  357.49
    103.9700	  659.00	  675.45	-1755.95	  357.23
    104.0700	  667.00	  648.90	-1721.40	  356.98
    104.1700	  647.00	  625.93	-1718.43	  356.72
    104.2700	  639.00	  606.42	-1706.92	  356.47
    104.3700	  591.00	  590.16	-1738.66	  356.22
    104.4700	  562.00	  576.89	-1754.39	  355.96
    104.5700	  563.00	  566.26	-1742.76	  355.71
    104.6700	  540.00	  557.93	-1757.43	  355.46
    104.7700	  590.00	  551.56	-1701.06	  355.21
    104.8700	  528.00	  546.83	-1758.33	  354.95
    104.9700	  531.00	  543.45	-1751.95	  354.70
    105.0700	  534.00	  541.20	-1746.70	  354.45
    105.1700	  567.00	  539.87	-1712.37	  354.20
    105.2700	  533.00	  539.31	-1745.81	  353.95
    105.3700	  550.00	  539.42	-1728.92	  353.71
    105.4700	  517.00	  540.12	-1762.62	  353.46
    105.5700	  529.00	  541.38	-1751.88	  353.21
    105.6700	  532.00	  543.20	-1750.70	  352.96
    105.7700	  552.00	  545.60	-1733.10	  352.72
    105.8700	  546.00	  548.63	-1742.13	  352.47
    105.9700	  561.00	  552.35	-1730.85	  352.23
    106.0700	  559.00	  556.84	-1737.34	  351.98
    106.1700	  566.00	  562.13	-1735.63	  351.74
    106.2700	  577.00	  568.26	-1730.76	  351.50
    106.3700	  597.00	  575.22	-1717.72	  351.25
    106.4700	  556.00	  582.94	-1766.44	  351.01
    106.5700	  588.00	  591.31	-1742.81	  350.77
    106.6700	  616.00	  600.21	-1723.71	  350.54
    106.7700	  585.00	  609.45	-1763.95	  350.30
    106.8700	  599.00	  618.77	-1759.27	  350.06
    106.9700	  602.00	  627.89	-1765.39	  349.82
    107.0700	  652.00	  636.53	-1724.03	  349.59
    107.1700	  664.00	  644.36	-1719.86	  349.36
    107.2700	  688.00	  651.11	-1702.61	  349.12
    107.3700	  687.00	  656.55	-1709.05	  348.89
    107.4700	  650.00	  660.60	-1750.10	  348.66
    107.5700	  642.00	  663.28	-1760.78	  348.43
    107.6700	  644.00	  664.77	-1760.27	  348.21
    107.7700	  668.00	  665.35	-1736.85	  347.98
    107.8700	  651.00	  665.36	-1753.86	  347.75
    107.9700	  700.00	  665.15	-1704.65	  347.53
    108.0700	  681.00	  665.04	-1723.54	  347.31
    108.1700	  678.00	  665.25	-1726.75	  347.09
    108.2700	  626.00	  665.96	-1779.46	  346.87
    108.3700	  713.00	  667.21	-1693.71	  346.65
    108.4700	  650.00	  668.96	-1758.46	  346.43
    108.5700	  682.00	  671.09	-1728.59	  346.22
    108.6700	  728.00	  673.35	-1684.85	  346.00
    108.7700	  675.00	  675.45	-1739.95	  345.79
    108.8700	  688.00	  677.02	-1728.52	  345.58
    108.9700	  722.00	  677.67	-1695.17	  345.37
    109.0700	  637.00	  677.05	-1779.55	  345.17
    109.1700	  650.00	  674.90	-1764.40	  344.96
    109.2700	  677.00	  671.06	-1733.56	  344.76
    109.3700	  650.00	  665.52	-1755.02	  344.56
    109.4700	  648.00	  658.44	-1749.94	  344.36
    109.5700	  661.00	  650.04	-1728.54	  344.16
    109.6700	  615.00	  640.64	-1765.14	  343.96
    109.7700	  615.00	  630.57	-1755.07	  343.77
    109.8700	  618.00	  620.16	-1741.66	  343.58
    109.9700	  625.00	  609.73	-1724.23	  343.39
    110.0700	  577.00	  599.54	-1762.04	  343.20
    110.1700	  625.00	  589.83	-1704.33	  343.01
    110.2700	  612.00	  580.80	-1708.30	  342.83
    110.3700	  569.00	  572.57	-1743.07	  342.65
    110.4700	  576.00	  565.27	-1728.77	  342.47
    110.5700	  591.00	  558.94	-1707.44	  342.29
    110.6700	  532.00	  553.61	-1761.11	  342.12
    110.7700	  546.00	  549.26	-1742.76	  341.95
    110.8700	  586.00	  545.86	-1699.36	  341.78
    110.9700	  531.00	  543.35	-1751.85	  341.61
    111.0700	  607.00	  541.65	-1674.15	  341.44
    111.1700	  543.00	  540.68	-1737.18	  341.28
    111.2700	  531.00	  540.35	-1748.85	  341.12
    111.3700	  537.00	  540.58	-1743.08	  340.97
    111.4700	  575.00	  541.30	-1705.80	  340.81
    111.5700	  519.00	  542.42	-1762.92	  340.66
    111.6700	  565.00	  543.90	-1718.40	  340.51
    111.7700	  527.00	  545.66	-1758.16	  340.36
    111.8700	  576.00	  547.67	-1711.17	  340.22
    111.9700	  570.00	  549.89	-1719.39	  340.08
    112.0700	  547.00	  552.29	-1744.79	  339.94
    112.1700	  545.00	  554.88	-1749.38	  339.80
    112.2700	  599.00	  557.66	-1698.16	  339.67
    112.3700	  552.00	  560.63	-1748.13	  339.54
    112.4700	  538.00	  563.82	-1765.32	  339.41
    112.5700	  571.00	  567.28	-1735.78	  339.29
    112.6700	  543.00	  571.05	-1767.55	  339.17
    112.7700	  556.00	  575.20	-1758.70	  339.05
    112.8700	  580.00	  579.80	-1739.30	  338.94
    112.9700	  628.00	  584.96	-1696.46	  338.83
    113.0700	  601.00	  590.79	-1729.29	  338.72
    113.1700	  619.00	  597.45	-1717.95	  338.62
    113.2700	  622.00	  605.15	-1722.65	  338.52
    113.3700	  611.00	  614.14	-1742.64	  338.42
    113.4700	  616.00	  624.74	-1748.24	  338.32
    113.5700	  643.00	  637.36	-1733.86	  338.23
    113.6700	  680.00	  652.52	-1712.02	  338.15
    113.7700	  688.00	  670.86	-1722.36	  338.06
    113.8700	  701.00	  693.15	-1731.65	  337.98
    113.9700	  714.00	  720.34	-1745.84	  337.91
    114.0700	  779.00	  753.57	-1714.07	  337.84
    114.1700	  789.00	  794.15	-1744.65	  337.77
    114.2700	  874.00	  843.62	-1709.12	  337.70
    114.3700	  973.00	  903.69	-1670.19	  337.64
    114.4700	  987.00	  976.26	-1728.76	  337.58
    114.5700	 1035.00	 1063.40	-1767.90	  337.53
    114.6700	 1210.00	 1167.28	-1696.78	  337.48
    114.7700	 1296.00	 1290.11	-1733.61	  337.44
    114.8700	 1433.00	 1433.99	-1740.49	  337.40
    114.9700	 1648.00	 1600.95	-1692.45	  337.36
    115.0700	 1900.00	 1792.69	-1632.19	  337.33
    115.1700	 2099.00	 2010.54	-1651.04	  337.30
    115.2700	 2458.00	 2255.22	-1536.72	  337.28
    115.3700	 2603.00	 2526.76	-1663.26	  337.26
    115.4700	 2909.00	 2824.32	-1654.82	  337.24
    115.5700	 3176.00	 3146.19	-1709.69	  337.23
    115.6700	 3569.00	 3489.64	-1660.14	  337.22
    115.7700	 3690.00	 3850.72	-1900.22	  337.22
    115.8700	 4121.00	 4224.38	-1842.88	  337.22
    115.9700	 4562.00	 4604.34	-1781.84	  337.23
    116.0700	 4868.00	 4983.35	-1854.85	  337.24
    116.1700	 5320.00	 5353.07	-1772.57	  337.26
    116.2700	 5695.00	 5704.15	-1748.65	  337.28
    116.3700	 5926.00	 6026.56	-1840.06	  337.31
    116.4700	 6232.00	 6309.92	-1817.42	  337.34
    116.5700	 6523.00	 6544.10	-1760.60	  337.38
    116.6700	 6642.00	 6719.90	-1817.40	  337.42
    116.7700	 6747.00	 6829.79	-1822.29	  337.46
    116.8700	 6958.00	 6868.93	-1650.43	  337.52
    116.9700	 6742.00	 6835.73	-1833.23	  337.57
    117.0700	 6689.00	 6732.07	-1782.57	  337.63
    117.1700	 6529.00	 6562.97	-1773.47	  337.70
    117.2700	 6412.00	 6336.04	-1663.54	  337.77
    117.3700	 5913.00	 6060.56	-1887.06	  337.85
    117.4700	 5560.00	 5746.72	-1926.22	  337.93
    117.5700	 5313.00	 5404.69	-1831.19	  338.02
    117.6700	 4982.00	 5044.24	-1801.74	  338.12
    117.7700	 4676.00	 4674.55	-1738.05	  338.22
    117.8700	 4312.00	 4303.73	-1731.23	  338.32
    117.9700	 3988.00	 3938.92	-1690.42	  338.43
    118.0700	 3721.00	 3585.98	-1604.48	  338.55
    118.1700	 3330.00	 3249.65	-1659.15	  338.67
    118.2700	 3039.00	 2933.66	-1634.16	  338.80
    118.3700	 2602.00	 2640.61	-1778.11	  338.94
    118.4700	 2548.00	 2372.16	-1563.66	  339.08
    118.5700	 2119.00	 2128.99	-1749.49	  339.22
    118.6700	 2006.00	 1911.07	-1644.57	  339.38
    118.7700	 1688.00	 1717.80	-1769.30	  339.53
    118.8700	 1567.00	 1548.00	-1720.50	  339.70
    118.9700	 1339.00	 1400.19	-1800.69	  339.87
    119.0700	 1290.00	 1272.52	-1722.02	  340.05
    119.1700	 1130.00	 1163.05	-1772.55	  340.23
    119.2700	 1113.00	 1069.79	-1696.29	  340.42
    119.3700	  978.00	  990.78	-1752.28	  340.62
    119.4700	  864.00	  924.14	-1799.64	  340.82
    119.5700	  853.00	  868.11	-1754.61	  341.03
    119.6700	  837.00	  821.10	-1723.60	  341.25
    119.7700	  785.00	  781.72	-1736.22	  341.47
    119.8700	  706.00	  748.72	-1782.22	  341.70
    119.9700	  696.00	  721.07	-1764.57	  341.94
    120.0700	  653.00	  697.87	-1784.37	  342.19
    120.1700	  679.00	  678.37	-1738.87	  342.44
    120.2700	  659.00	  661.96	-1742.46	  342.69
    120.3700	  590.00	  648.14	-1797.64	  342.96
    120.4700	  592.00	  636.49	-1783.99	  343.23
    120.5700	  614.00	  626.70	-1752.20	  343.51
    120.6700	  577.00	  618.50	-1781.00	  343.80
    120.7700	  585.00	  611.67	-1766.17	  344.09
    120.8700	  601.00	  606.05	-1744.55	  344.39
    120.9700	  591.00	  601.50	-1750.00	  344.70
    121.0700	  583.00	  597.91	-1754.41	  345.02
    121.1700	  586.00	  595.21	-1748.71	  345.35
    121.2700	  581.00	  593.30	-1751.80	  345.68
    121.3700	  576.00	  592.14	-1755.64	  346.02
    121.4700	  633.00	  591.66	-1698.16	  346.36
    121.5700	  576.00	  591.81	-1755.31	  346.72
    121.6700	  596.00	  592.54	-1736.04	  347.08
    121.7700	  626.00	  593.79	-1707.29	  347.46
    121.8700	  573.00	  595.50	-1762.00	  347.83
    121.9700	  567.00	  597.62	-1770.12	  348.22
    122.0700	  570.00	  600.07	-1769.57	  348.62
    122.1700	  578.00	  602.78	-1764.28	  349.02
    122.2700	  632.00	  605.67	-1713.17	  349.43
    122.3700	  608.00	  608.66	-1740.16	  349.86
    122.4700	  534.00	  611.64	-1817.14	  350.29
    122.5700	  574.00	  614.53	-1780.03	  350.72
    122.6700	  626.00	  617.22	-1730.72	  351.17
    122.7700	  630.00	  619.63	-1729.13	  351.62
    122.8700	  628.00	  621.66	-1733.16	  352.09
    122.9700	  647.00	  623.23	-1715.73	  352.56
    123.0700	  622.00	  624.30	-1741.80	  353.04
    123.1700	  698.00	  624.81	-1666.31	  353.53
    123.2700	  681.00	  624.74	-1683.24	  354.03
    123.3700	  655.00	  624.15	-1708.65	  354.54
    123.4700	  630.00	  623.03	-1732.53	  355.06
    123.5700	  657.00	  621.44	-1703.94	  355.59
    123.6700	  645.00	  619.43	-1713.93	  356.12
    123.7700	  622.00	  617.07	-1734.57	  356.67
    123.8700	  599.00	  614.44	-1754.94	  357.22
    123.9700	  648.00	  611.59	-1703.09	  357.79
    124.0700	  628.00	  608.59	-1720.09	  358.36
    124.1700	  598.00	  605.51	-1747.01	  358.95
    124.2700	  616.00	  602.41	-1725.91	  359.54
    124.3700	  567.00	  599.31	-1771.81	  360.14
    124.4700	  603.00	  596.31	-1732.81	  360.76
    124.5700	  584.00	  593.42	-1748.92	  361.38
    124.6700	  610.00	  590.68	-1720.18	  362.02
    124.7700	  603.00	  588.11	-1724.61	  362.66
    124.8700	  557.00	  585.74	-1768.24	  363.31
    124.9700	  590.00	  476.38	-1625.88	  363.98
    125.0700	  647.00	  477.06	-1739.50	  364.65
    125.1700	  580.00	  477.74	-1739.50	  365.34
    125.2700	  587.00	  478.44	-1739.50	  366.03
    125.3700	  568.00	  479.14	-1739.50	  366.74
    125.4700	  572.00	  479.86	-1739.50	  367.45
    125.5700	  552.00	  480.59	-1739.50	  368.18
    125.6700	  547.00	  481.32	-1739.50	  368.92
    125.7700	  565.00	  482.07	-1739.50	  369.67
    125.8700	  575.00	  482.83	-1739.50	  370.43
    125.9700	  573.00	  483.60	-1739.50	  371.20
    126.0700	  570.00	  484.39	-1739.50	  371.98
    126.1700	  575.00	  485.18	-1739.50	  372.77
    126.2700	  600.00	  485.98	-1739.50	  373.58
    126.3700	  553.00	  486.80	-1739.50	  374.39
    126.4700	  572.00	  487.63	-1739.50	  375.22
    126.5700	  599.00	  488.46	-1739.50	  376.06
    126.6700	  608.00	  489.31	-1739.50	  376.91
    126.7700	  542.00	  490.18	-1739.50	  377.77
    126.8700	  594.00	  491.05	-1739.50	  378.64
    126.9700	  552.00	  491.93	-1739.50	  379.53
    127.0700	  592.00	  492.83	-1739.50	  380.42
    127.1700	  596.00	  493.74	-1739.50	  381.33
    127.2700	  596.00	  494.66	-1739.50	  382.25
    127.3700	  599.00	  495.60	-1739.50	  383.19
    127.4700	  631.00	  496.54	-1739.50	  384.13
    127.5700	  658.00	  497.50	-1739.50	  385.09
    127.6700	  632.00	  498.47	-1739.50	  386.06
    127.7700	  696.00	  499.45	-1739.50	  387.04
    127.8700	  675.00	  500.45	-1739.50	  388.04
    127.9700	  717.00	  501.45	-1739.50	  389.05
    128.0700	  734.00	  502.48	-1739.50	  390.07
    128.1700	  680.00	  503.51	-1739.50	  391.10
    128.2700	  714.00	  504.55	-1739.50	  392.15
    128.3700	  735.00	  505.61	-1739.50	  393.21
    128.4700	  751.00	  506.69	-1739.50	  394.28
    128.5700	    0.00	  507.77	-1739.50	  395.37
    128.6700	    0.00	  508.87	-1739.50	  396.46
     12.3186	        	        	        	        	       0	(  0  0  2)	  0  1
     24.9119	        	        	        	        	       0	(  0  0  4)	  0  1
     28.3667	        	        	        	        	       0	(  1  0  0)	  0  1
     29.0643	        	        	        	        	       0	(  1  0  1)	  0  1
     31.0716	        	        	        	        	       0	(  1  0  2)	  0  1
     34.1818	        	        	        	        	       0	(  1  0  3)	  0  1
     37.8220	        	        	        	        	       0	(  0  0  6)	  0  1
     38.1615	        	        	        	        	       0	(  1  0  4)	  0  1
     42.8150	        	        	        	        	       0	(  1  0  5)	  0  1
     48.0032	        	        	        	        	       0	(  1  0  6)	  0  1
     50.3318	        	        	        	        	       0	(  1  1  0)	  0  1
     51.2557	        	        	        	        	       0	(  0  0  8)	  0  1
     52.0561	        	        	        	        	       0	(  1  1  2)	  0  1
     53.6384	        	        	        	        	       0	(  1  0  7)	  0  1
     57.0077	        	        	        	        	       0	(  1  1  4)	  0  1
     58.8410	        	        	        	        	       0	(  2  0  0)	  0  1
     59.2329	        	        	        	        	       0	(  2  0  1)	  0  1
     59.6744	        	        	        	        	       0	(  1  0  8)	  0  1
     60.3993	        	        	        	        	       0	(  2  0  2)	  0  1
     62.3141	        	        	        	        	       0	(  2  0  3)	  0  1
     64.7091	        	        	        	        	       0	(  1  1  6)	  0  1
     64.9405	        	        	        	        	       0	(  2  0  4)	  0  1
     65.4990	        	        	        	        	       0	(  0  0 10)	  0  1
     66.0971	        	        	        	        	       0	(  1  0  9)	  0  1
     68.2379	        	        	        	        	       0	(  2  0  5)	  0  1
     72.1694	        	        	        	        	       0	(  2  0  6)	  0  1
     72.9206	        	        	        	        	       0	(  1  0 10)	  0  1
     74.7573	        	        	        	        	       0	(  1  1  8)	  0  1
     76.7085	        	        	        	        	       0	(  2  0  7)	  0  1
     80.1870	        	        	        	        	       0	(  1  0 11)	  0  1
     80.9975	        	        	        	        	       0	(  0  0 12)	  0  1
     81.1202	        	        	        	        	       0	(  2  1  0)	  0  1
     81.4605	        	        	        	        	       0	(  2  1  1)	  0  1
     81.8451	        	        	        	        	       0	(  2  0  8)	  0  1
     82.4797	        	        	        	        	       0	(  2  1  2)	  0  1
     84.1732	        	        	        	        	       0	(  2  1  3)	  0  1
     86.5361	        	        	        	        	       0	(  2  1  4)	  0  1
     87.0444	        	        	        	        	       0	(  1  1 10)	  0  1
     87.5910	        	        	        	        	       0	(  2  0  9)	  0  1
     87.9719	        	        	        	        	       0	(  1  0 12)	  0  1
     89.5663	        	        	        	        	       0	(  2  1  5)	  0  1
     93.2697	        	        	        	        	       0	(  2  1  6)	  0  1
     93.9883	        	        	        	        	       0	(  2  0 10)	  0  1
     95.0398	        	        	        	        	       0	(  3  0  0)	  0  1
     95.3777	        	        	        	        	       0	(  3  0  1)	  0  1
     96.3928	        	        	        	        	       0	(  3  0  2)	  0  1
     96.3985	        	        	        	        	       0	(  1  0 13)	  0  1
     97.6659	        	        	        	        	       0	(  2  1  7)	  0  1
     98.0893	        	        	        	        	       0	(  3  0  3)	  0  1
     98.5634	        	        	        	        	       0	(  0  0 14)	  0  1
    100.4769	        	        	        	        	       0	(  3  0  4)	  0  1
    101.1231	        	        	        	        	       0	(  2  0 11)	  0  1
    101.9398	        	        	        	        	       0	(  1  1 12)	  0  1
    102.7985	        	        	        	        	       0	(  2  1  8)	  0  1
    103.5751	        	        	        	        	       0	(  3  0  5)	  0  1
    105.6687	        	        	        	        	       0	(  1  0 14)	  0  1
    107.4191	        	        	        	        	       0	(  3  0  6)	  0  1
    108.7489	        	        	        	        	       0	(  2  1  9)	  0  1
    109.1517	        	        	        	        	       0	(  2  0 12)	  0  1
    112.0716	        	        	        	        	       0	(  3  0  7)	  0  1
    115.6647	        	        	        	        	       0	(  2  1 10)	  0  1
    116.1375	        	        	        	        	       0	(  1  0 15)	  0  1
    116.8345	        	        	        	        	       0	(  2  2  0)	  0  1
    117.6420	        	        	        	        	       0	(  3  0  8)	  0  1
    118.3549	        	        	        	        	       0	(  2  2  2)	  0  1
    118.3614	        	        	        	        	       0	(  2  0 13)	  0  1
    120.1019	        	        	        	        	       0	(  0  0 16)	  0  1
    120.8324	        	        	        	        	       0	(  1  1 14)	  0  1
    123.0586	        	        	        	        	       0	(  2  2  4)	  0  1
    123.8200	        	        	        	        	       0	(  2  1 11)	  0  1
    124.3268	        	        	        	        	       0	(  3  0  9)	  0  1
    124.9378	        	        	        	        	       0	(  3  1  0)	  0  1
    125.3499	        	        	        	        	       0	(  3  1  1)	  0  1
    126.5992	        	        	        	        	       0	(  3  1  2)	  0  1
    128.5234	        	        	        	        	       0	(  1  0 16)	  0  1
    128.7283	        	        	        	        	       0	(  3  1  3)	  0  1
    129.3331	        	        	        	        	       0	(  2  0 14)	  0  1
    131.5404	        	        	        	        	       0	(  2  2  6)	  0  1
    131.8216	        	        	        	        	       0	(  3  1  4)	  0  1
    132.5077	        	        	        	        	       0	(  3  0 10)	  0  1
    133.7804	        	        	        	        	       0	(  2  1 12)	  0  1
    136.0363	        	        	        	        	       0	(  3  1  5)	  0  1
    141.6783	        	        	        	        	       0	(  3  1  6)	  0  1
    143.0647	        	        	        	        	       0	(  3  0 11)	  0  1
    143.5648	        	        	        	        	       0	(  2  0 15)	  0  1
    144.7940	        	        	        	        	       0	(  1  0 17)	  0  1
    145.8933	        	        	        	        	       0	(  2  2  8)	  0  1
    147.0456	        	        	        	        	       0	(  2  1 13)	  0  1
    149.4438	        	        	        	        	       0	(  3  1  7)	  0  1
    149.9599	        	        	        	        	       0	(  1  1 16)	  0  1
    154.4000	        	        	        	        	       0	(  0  0 18)	  0  1
    159.2159	        	        	        	        	       0	(  3  0 12)	  0  1
    159.5624	        	        	        	        	       0	(  4  0  0)	  0  1
    160.5550	        	        	        	        	       0	(  4  0  1)	  0  1
    161.7406	        	        	        	        	       0	(  3  1  8)	  0  1
    163.8837	        	        	        	        	       0	(  4  0  2)	  0  1
    170.9449	        	        	        	        	       0	(  2  0 16)	  0  1
    172.0410	        	        	        	        	       0	(  4  0  3)	  0  1
    177.1304	        	        	        	        	       0	(  2  1 14)	  0  1
