MSG Master    CELL:    5.91710   5.91710  23.25885   90.0000   90.0000  120.0000   SPGR: P 63/m m c             TEMP:   1026.85
  1   1280     2.52000     0.00000    -0.12215     0.00000     0.00000    0
    99     0     2
       0.00000      10.00000
     125.00000     130.00000
 2Theta	Yobs	Ycal	Yobs-Ycal	Backg	Posr	(hkl)	K
      0.7700	    0.00	  539.04	-1786.25	  424.11
      0.8700	    0.00	  539.86	-1786.25	  424.93
      0.9700	   46.00	  540.66	-1786.25	  425.73
      1.0700	   46.00	  541.45	-1786.25	  426.52
      1.1700	   35.00	  542.23	-1786.25	  427.30
      1.2700	   34.00	  543.00	-1786.25	  428.07
      1.3700	   38.00	  543.75	-1786.25	  428.82
      1.4700	   94.00	  544.50	-1786.25	  429.57
      1.5700	  284.00	  545.23	-1786.25	  430.30
      1.6700	  466.00	  545.95	-1786.25	  431.02
      1.7700	  569.00	  546.66	-1786.25	  431.73
      1.8700	  647.00	  547.36	-1786.25	  432.43
      1.9700	  755.00	  548.05	-1786.25	  433.12
      2.0700	  769.00	  548.73	-1786.25	  433.79
      2.1700	  815.00	  549.39	-1786.25	  434.46
      2.2700	  797.00	  550.05	-1786.25	  435.12
      2.3700	  765.00	  550.69	-1786.25	  435.76
      2.4700	  714.00	  551.33	-1786.25	  436.39
      2.5700	  708.00	  551.95	-1786.25	  437.02
      2.6700	  676.00	  552.56	-1786.25	  437.63
      2.7700	  607.00	  553.16	-1786.25	  438.23
      2.8700	  616.00	  553.76	-1786.25	  438.82
      2.9700	  618.00	  554.34	-1786.25	  439.41
      3.0700	  605.00	  554.91	-1786.25	  439.98
      3.1700	  568.00	  555.47	-1786.25	  440.54
      3.2700	  612.00	  556.02	-1786.25	  441.09
      3.3700	  722.00	  556.56	-1786.25	  441.63
      3.4700	  755.00	  557.09	-1786.25	  442.16
      3.5700	  784.00	  557.61	-1786.25	  442.68
      3.6700	  847.00	  558.12	-1786.25	  443.19
      3.7700	  937.00	  558.63	-1786.25	  443.69
      3.8700	  975.00	  559.12	-1786.25	  444.19
      3.9700	 1009.00	  559.60	-1786.25	  444.67
      4.0700	 1064.00	  560.07	-1786.25	  445.14
      4.1700	  985.00	  560.54	-1786.25	  445.60
      4.2700	 1161.00	  560.99	-1786.25	  446.06
      4.3700	 1104.00	  561.43	-1786.25	  446.50
      4.4700	 1038.00	  561.87	-1786.25	  446.94
      4.5700	 1022.00	  562.29	-1786.25	  447.36
      4.6700	 1013.00	  562.71	-1786.25	  447.78
      4.7700	  960.00	  563.12	-1786.25	  448.19
      4.8700	 1060.00	  563.52	-1786.25	  448.59
      4.9700	  873.00	  563.91	-1786.25	  448.98
      5.0700	  939.00	  564.29	-1786.25	  449.36
      5.1700	  929.00	  564.66	-1786.25	  449.73
      5.2700	  892.00	  565.03	-1786.25	  450.09
      5.3700	  859.00	  565.38	-1786.25	  450.45
      5.4700	  865.00	  565.73	-1786.25	  450.80
      5.5700	  855.00	  566.06	-1786.25	  451.13
      5.6700	  877.00	  566.39	-1786.25	  451.46
      5.7700	  822.00	  566.71	-1786.25	  451.78
      5.8700	  814.00	  567.03	-1786.25	  452.10
      5.9700	  868.00	  567.33	-1786.25	  452.40
      6.0700	  834.00	  567.63	-1786.25	  452.70
      6.1700	  816.00	  567.92	-1786.25	  452.99
      6.2700	  770.00	  568.20	-1786.25	  453.27
      6.3700	  786.00	  568.47	-1786.25	  453.54
      6.4700	  736.00	  568.73	-1786.25	  453.80
      6.5700	  725.00	  568.99	-1786.25	  454.06
      6.6700	  693.00	  569.24	-1786.25	  454.31
      6.7700	  716.00	  569.48	-1786.25	  454.55
      6.8700	  728.00	  569.71	-1786.25	  454.78
      6.9700	  731.00	  569.94	-1786.25	  455.01
      7.0700	  653.00	  570.16	-1786.25	  455.23
      7.1700	  707.00	  570.37	-1786.25	  455.44
      7.2700	  647.00	  570.57	-1786.25	  455.64
      7.3700	  735.00	  570.77	-1786.25	  455.83
      7.4700	  681.00	  570.95	-1786.25	  456.02
      7.5700	  670.00	  571.14	-1786.25	  456.20
      7.6700	  604.00	  571.31	-1786.25	  456.38
      7.7700	  615.00	  571.48	-1786.25	  456.55
      7.8700	  640.00	  571.64	-1786.25	  456.71
      7.9700	  688.00	  571.79	-1786.25	  456.86
      8.0700	  607.00	  571.94	-1786.25	  457.01
      8.1700	  635.00	  572.08	-1786.25	  457.14
      8.2700	  641.00	  572.21	-1786.25	  457.28
      8.3700	  627.00	  572.33	-1786.25	  457.40
      8.4700	  599.00	  572.45	-1786.25	  457.52
      8.5700	  608.00	  572.57	-1786.25	  457.63
      8.6700	  620.00	  572.67	-1786.25	  457.74
      8.7700	  630.00	  572.77	-1786.25	  457.84
      8.8700	  634.00	  572.86	-1786.25	  457.93
      8.9700	  646.00	  572.95	-1786.25	  458.02
      9.0700	  632.00	  573.03	-1786.25	  458.10
      9.1700	  663.00	  573.10	-1786.25	  458.17
      9.2700	  677.00	  573.17	-1786.25	  458.24
      9.3700	  627.00	  573.23	-1786.25	  458.30
      9.4700	  617.00	  573.29	-1786.25	  458.36
      9.5700	  578.00	  573.34	-1786.25	  458.41
      9.6700	  590.00	  573.38	-1786.25	  458.45
      9.7700	  586.00	  573.42	-1786.25	  458.49
      9.8700	  584.00	  573.45	-1786.25	  458.52
      9.9700	  609.00	  573.48	-1786.25	  458.54
     10.0700	  575.00	  574.30	-1785.55	  458.56
     10.1700	  586.00	  574.40	-1774.65	  458.58
     10.2700	  589.00	  574.50	-1771.75	  458.59
     10.3700	  598.00	  574.63	-1762.88	  458.59
     10.4700	  596.00	  574.81	-1765.06	  458.59
     10.5700	  602.00	  575.09	-1759.34	  458.58
     10.6700	  595.00	  575.55	-1766.80	  458.57
     10.7700	  620.00	  576.31	-1742.56	  458.55
     10.8700	  582.00	  577.45	-1781.70	  458.52
     10.9700	  552.00	  578.97	-1813.22	  458.49
     11.0700	  611.00	  580.83	-1756.08	  458.46
     11.1700	  609.00	  583.02	-1760.27	  458.42
     11.2700	  572.00	  585.57	-1799.82	  458.37
     11.3700	  611.00	  588.56	-1763.81	  458.32
     11.4700	  563.00	  592.10	-1815.35	  458.27
     11.5700	  583.00	  596.39	-1799.64	  458.21
     11.6700	  601.00	  601.74	-1786.99	  458.14
     11.7700	  590.00	  608.72	-1804.97	  458.07
     11.8700	  655.00	  618.22	-1749.47	  458.00
     11.9700	  610.00	  631.01	-1807.26	  457.92
     12.0700	  707.00	  645.94	-1725.19	  457.83
     12.1700	  719.00	  657.48	-1724.73	  457.74
     12.2700	  661.00	  656.11	-1781.36	  457.65
     12.3700	  663.00	  637.37	-1760.62	  457.55
     12.4700	  644.00	  612.49	-1754.74	  457.45
     12.5700	  615.00	  593.58	-1764.83	  457.34
     12.6700	  548.00	  583.08	-1821.33	  457.23
     12.7700	  543.00	  578.30	-1821.55	  457.11
     12.8700	  588.00	  576.17	-1774.42	  456.99
     12.9700	  592.00	  575.03	-1769.28	  456.87
     13.0700	  580.00	  574.27	-1780.52	  456.74
     13.1700	  551.00	  573.69	-1808.94	  456.61
     13.2700	  548.00	  573.22	-1811.47	  456.47
     13.3700	  522.00	  572.83	-1837.08	  456.33
     13.4700	  570.00	  572.48	-1788.73	  456.19
     13.5700	  635.00	  572.18	-1723.43	  456.04
     13.6700	  538.00	  571.89	-1820.14	  455.88
     13.7700	  521.00	  571.63	-1836.88	  455.73
     13.8700	  559.00	  571.38	-1798.63	  455.57
     13.9700	  567.00	  571.15	-1790.40	  455.40
     14.0700	  539.00	  570.92	-1818.17	  455.23
     14.1700	  555.00	  570.69	-1801.94	  455.06
     14.2700	  591.00	  570.47	-1765.72	  454.88
     14.3700	  560.00	  570.25	-1796.50	  454.70
     14.4700	  556.00	  570.03	-1800.28	  454.52
     14.5700	  547.00	  569.81	-1809.06	  454.34
     14.6700	  502.00	  569.60	-1853.85	  454.15
     14.7700	  594.00	  569.38	-1761.63	  453.95
     14.8700	  563.00	  569.16	-1792.41	  453.76
     14.9700	  597.00	  568.94	-1758.19	  453.56
     15.0700	  538.00	  568.72	-1816.97	  453.35
     15.1700	  534.00	  568.50	-1820.75	  453.15
     15.2700	  555.00	  568.27	-1799.52	  452.94
     15.3700	  581.00	  568.05	-1773.30	  452.72
     15.4700	  564.00	  567.82	-1790.07	  452.51
     15.5700	  555.00	  567.59	-1798.84	  452.29
     15.6700	  545.00	  567.36	-1808.61	  452.06
     15.7700	  592.00	  567.12	-1761.37	  451.84
     15.8700	  559.00	  566.89	-1794.14	  451.61
     15.9700	  529.00	  566.65	-1823.90	  451.38
     16.0700	  552.00	  566.41	-1800.66	  451.15
     16.1700	  520.00	  566.19	-1832.44	  450.91
     16.2700	  556.00	  565.95	-1796.20	  450.67
     16.3700	  530.00	  565.70	-1821.95	  450.43
     16.4700	  544.00	  565.45	-1807.70	  450.18
     16.5700	  622.00	  565.20	-1729.45	  449.93
     16.6700	  522.00	  564.94	-1829.19	  449.68
     16.7700	  535.00	  564.69	-1815.94	  449.43
     16.8700	  540.00	  564.43	-1810.68	  449.17
     16.9700	  582.00	  564.17	-1768.42	  448.92
     17.0700	  566.00	  563.90	-1784.15	  448.65
     17.1700	  562.00	  563.64	-1787.89	  448.39
     17.2700	  550.00	  563.37	-1799.62	  448.13
     17.3700	  555.00	  563.10	-1794.35	  447.86
     17.4700	  540.00	  562.83	-1809.08	  447.59
     17.5700	  588.00	  562.55	-1760.80	  447.32
     17.6700	  577.00	  562.28	-1771.53	  447.04
     17.7700	  571.00	  562.00	-1777.25	  446.76
     17.8700	  545.00	  561.72	-1802.97	  446.48
     17.9700	  530.00	  561.54	-1817.79	  446.20
     18.0700	  573.00	  561.26	-1774.51	  445.92
     18.1700	  528.00	  560.97	-1819.22	  445.63
     18.2700	  563.00	  560.69	-1783.94	  445.35
     18.3700	  563.00	  560.40	-1783.65	  445.06
     18.4700	  557.00	  560.11	-1789.36	  444.77
     18.5700	  578.00	  559.82	-1768.07	  444.47
     18.6700	  559.00	  559.53	-1786.78	  444.18
     18.7700	  575.00	  559.23	-1770.48	  443.88
     18.8700	  595.00	  559.03	-1750.28	  443.58
     18.9700	  606.00	  558.73	-1738.98	  443.28
     19.0700	  536.00	  558.44	-1808.69	  442.98
     19.1700	  590.00	  558.14	-1754.39	  442.68
     19.2700	  545.00	  557.84	-1799.09	  442.37
     19.3700	  514.00	  557.54	-1829.79	  442.06
     19.4700	  550.00	  557.24	-1793.49	  441.75
     19.5700	  567.00	  556.93	-1776.18	  441.44
     19.6700	  566.00	  556.63	-1776.88	  441.13
     19.7700	  537.00	  556.32	-1805.57	  440.82
     19.8700	  538.00	  556.02	-1804.27	  440.50
     19.9700	  575.00	  555.71	-1766.96	  440.19
     20.0700	  611.00	  555.40	-1730.65	  439.87
     20.1700	  572.00	  555.09	-1769.34	  439.55
     20.2700	  567.00	  554.78	-1774.03	  439.23
     20.3700	  561.00	  554.47	-1779.72	  438.91
     20.4700	  552.00	  554.16	-1788.41	  438.58
     20.5700	  536.00	  553.85	-1804.10	  438.26
     20.6700	  558.00	  553.51	-1781.76	  437.94
     20.7700	  504.00	  553.19	-1835.44	  437.61
     20.8700	  545.00	  552.92	-1794.17	  437.28
     20.9700	  586.00	  552.61	-1752.86	  436.95
     21.0700	  563.00	  552.29	-1775.54	  436.62
     21.1700	  558.00	  551.98	-1780.23	  436.29
     21.2700	  559.00	  551.67	-1778.92	  435.96
     21.3700	  561.00	  551.36	-1776.61	  435.63
     21.4700	  531.00	  551.05	-1806.30	  435.29
     21.5700	  519.00	  550.74	-1817.99	  434.96
     21.6700	  497.00	  550.43	-1839.68	  434.62
     21.7700	  527.00	  550.12	-1809.37	  434.29
     21.8700	  577.00	  549.81	-1759.06	  433.95
     21.9700	  550.00	  549.50	-1785.75	  433.61
     22.0700	  560.00	  549.20	-1775.45	  433.27
     22.1700	  574.00	  548.90	-1761.15	  432.93
     22.2700	  539.00	  548.60	-1795.85	  432.59
     22.3700	  546.00	  548.30	-1788.55	  432.25
     22.4700	  556.00	  548.01	-1778.26	  431.91
     22.5700	  591.00	  547.72	-1742.97	  431.57
     22.6700	  581.00	  547.44	-1752.69	  431.22
     22.7700	  513.00	  547.16	-1820.41	  430.88
     22.8700	  552.00	  546.89	-1781.14	  430.54
     22.9700	  562.00	  546.64	-1770.89	  430.19
     23.0700	  574.00	  546.39	-1758.64	  429.85
     23.1700	  579.00	  546.16	-1753.41	  429.50
     23.2700	  542.00	  545.95	-1790.20	  429.16
     23.3700	  570.00	  545.76	-1762.01	  428.81
     23.4700	  553.00	  545.61	-1778.86	  428.46
     23.5700	  512.00	  545.50	-1819.75	  428.12
     23.6700	  559.00	  545.45	-1772.70	  427.77
     23.7700	  539.00	  545.64	-1792.89	  427.42
     23.8700	  548.00	  545.89	-1784.14	  427.07
     23.9700	  585.00	  546.52	-1747.77	  426.73
     24.0700	  549.00	  547.94	-1785.19	  426.38
     24.1700	  571.00	  550.77	-1766.02	  426.03
     24.2700	  524.00	  555.85	-1818.10	  425.68
     24.3700	  574.00	  564.16	-1776.41	  425.33
     24.4700	  605.00	  576.76	-1758.01	  424.98
     24.5700	  606.00	  594.22	-1774.47	  424.63
     24.6700	  617.00	  614.50	-1783.75	  424.28
     24.7700	  581.00	  630.49	-1835.74	  423.93
     24.8700	  636.00	  631.24	-1781.49	  423.59
     24.9700	  646.00	  612.34	-1752.59	  423.24
     25.0700	  584.00	  585.86	-1788.11	  422.89
     25.1700	  606.00	  564.68	-1744.93	  422.54
     25.2700	  570.00	  552.20	-1768.45	  422.19
     25.3700	  564.00	  546.20	-1768.45	  421.84
     25.4700	  566.00	  543.49	-1763.74	  421.49
     25.5700	  524.00	  542.11	-1804.36	  421.14
     25.6700	  545.00	  541.24	-1782.49	  420.79
     25.7700	  541.00	  540.60	-1785.85	  420.45
     25.8700	  552.00	  540.12	-1774.37	  420.10
     25.9700	  584.00	  539.75	-1742.00	  419.75
     26.0700	  550.00	  539.47	-1775.72	  419.40
     26.1700	  592.00	  539.27	-1733.52	  419.05
     26.2700	  558.00	  539.14	-1767.39	  418.71
     26.3700	  541.00	  539.10	-1784.35	  418.36
     26.4700	  580.00	  539.13	-1745.38	  418.01
     26.5700	  537.00	  539.27	-1788.52	  417.67
     26.6700	  528.00	  539.51	-1797.76	  417.32
     26.7700	  540.00	  539.89	-1786.14	  416.98
     26.8700	  528.00	  540.43	-1798.68	  416.63
     26.9700	  560.00	  541.19	-1767.44	  416.29
     27.0700	  543.00	  542.24	-1785.49	  415.94
     27.1700	  586.00	  543.70	-1743.95	  415.60
     27.2700	  544.00	  545.79	-1788.04	  415.26
     27.3700	  530.00	  548.98	-1805.23	  414.92
     27.4700	  589.00	  554.12	-1751.37	  414.57
     27.5700	  580.00	  562.81	-1769.06	  414.23
     27.6700	  529.00	  577.60	-1834.85	  413.89
     27.7700	  546.00	  601.86	-1842.11	  413.55
     27.8700	  603.00	  638.73	-1821.98	  413.21
     27.9700	  631.00	  688.83	-1844.08	  412.87
     28.0700	  812.00	  747.26	-1721.51	  412.54
     28.1700	  860.00	  800.76	-1727.01	  412.20
     28.2700	  963.00	  828.14	-1651.39	  411.86
     28.3700	  952.00	  813.80	-1648.05	  411.53
     28.4700	  808.00	  773.88	-1752.13	  411.19
     28.5700	  722.00	  743.36	-1807.61	  410.86
     28.6700	  681.00	  741.01	-1846.26	  410.52
     28.7700	  728.00	  764.47	-1822.72	  410.19
     28.8700	  770.00	  795.47	-1811.72	  409.86
     28.9700	  818.00	  805.98	-1774.23	  409.53
     29.0700	  845.00	  774.46	-1715.71	  409.20
     29.1700	  711.00	  712.00	-1787.25	  408.87
     29.2700	  659.00	  648.72	-1775.97	  408.54
     29.3700	  586.00	  601.41	-1801.66	  408.21
     29.4700	  617.00	  572.05	-1741.30	  407.88
     29.5700	  605.00	  555.92	-1737.17	  407.56
     29.6700	  622.00	  547.39	-1711.64	  407.23
     29.7700	  601.00	  542.63	-1727.88	  406.91
     29.8700	  598.00	  539.70	-1727.95	  406.58
     29.9700	  533.00	  537.83	-1791.08	  406.26
     30.0700	  536.00	  536.80	-1787.05	  405.94
     30.1700	  543.00	  536.72	-1779.97	  405.62
     30.2700	  535.00	  538.07	-1789.32	  405.30
     30.3700	  526.00	  541.84	-1802.09	  404.98
     30.4700	  543.00	  549.57	-1792.82	  404.67
     30.5700	  552.00	  563.05	-1797.30	  404.35
     30.6700	  541.00	  583.05	-1828.30	  404.04
     30.7700	  600.00	  607.59	-1793.84	  403.72
     30.8700	  596.00	  630.38	-1820.63	  403.41
     30.9700	  619.00	  641.06	-1808.31	  403.10
     31.0700	  586.00	  630.87	-1831.12	  402.79
     31.1700	  582.00	  604.33	-1808.58	  402.48
     31.2700	  578.00	  575.61	-1783.86	  402.17
     31.3700	  520.00	  553.47	-1819.72	  401.86
     31.4700	  489.00	  539.58	-1836.83	  401.56
     31.5700	  575.00	  531.99	-1743.24	  401.26
     31.6700	  546.00	  528.07	-1768.32	  400.95
     31.7700	  532.00	  525.92	-1780.17	  400.65
     31.8700	  520.00	  524.59	-1790.84	  400.35
     31.9700	  566.00	  523.67	-1743.92	  400.05
     32.0700	  500.00	  523.01	-1809.26	  399.75
     32.1700	  564.00	  522.54	-1744.79	  399.46
     32.2700	  532.00	  522.23	-1776.48	  399.16
     32.3700	  530.00	  522.08	-1778.33	  398.87
     32.4700	  535.00	  522.09	-1773.34	  398.57
     32.5700	  563.00	  522.26	-1745.51	  398.28
     32.6700	  527.00	  522.63	-1781.88	  397.99
     32.7700	  538.00	  523.22	-1771.47	  397.70
     32.8700	  547.00	  524.12	-1763.37	  397.42
     32.9700	  559.00	  525.41	-1752.66	  397.13
     33.0700	  530.00	  527.29	-1783.54	  396.85
     33.1700	  581.00	  530.15	-1735.40	  396.56
     33.2700	  562.00	  534.89	-1759.14	  396.28
     33.3700	  522.00	  543.48	-1807.73	  396.00
     33.4700	  566.00	  559.80	-1780.05	  395.72
     33.5700	  547.00	  590.31	-1829.56	  395.44
     33.6700	  646.00	  643.00	-1783.25	  395.17
     33.7700	  716.00	  722.89	-1793.14	  394.89
     33.8700	  856.00	  823.84	-1754.09	  394.62
     33.9700	 1005.00	  921.92	-1703.17	  394.35
     34.0700	 1044.00	  976.67	-1718.92	  394.08
     34.1700	 1017.00	  951.20	-1720.45	  393.81
     34.2700	  949.00	  855.59	-1692.84	  393.55
     34.3700	  752.00	  742.10	-1776.35	  393.28
     34.4700	  676.00	  649.54	-1759.79	  393.02
     34.5700	  563.00	  589.07	-1812.32	  392.75
     34.6700	  601.00	  555.41	-1740.66	  392.49
     34.7700	  543.00	  538.33	-1781.58	  392.23
     34.8700	  514.00	  529.55	-1801.80	  391.98
     34.9700	  498.00	  524.46	-1812.71	  391.72
     35.0700	  516.00	  521.04	-1791.29	  391.47
     35.1700	  524.00	  518.48	-1780.73	  391.21
     35.2700	  518.00	  516.48	-1784.73	  390.96
     35.3700	  502.00	  514.85	-1799.10	  390.71
     35.4700	  529.00	  513.49	-1770.74	  390.47
     35.5700	  505.00	  512.35	-1793.60	  390.22
     35.6700	  541.00	  511.37	-1756.62	  389.97
     35.7700	  490.00	  510.52	-1806.77	  389.73
     35.8700	  506.00	  509.76	-1790.01	  389.49
     35.9700	  509.00	  509.58	-1786.83	  389.25
     36.0700	  476.00	  508.99	-1819.24	  389.01
     36.1700	  505.00	  508.45	-1789.70	  388.78
     36.2700	  519.00	  507.97	-1775.22	  388.54
     36.3700	  515.00	  507.52	-1778.77	  388.31
     36.4700	  512.00	  507.12	-1781.37	  388.08
     36.5700	  467.00	  506.76	-1826.01	  387.85
     36.6700	  537.00	  506.43	-1755.68	  387.62
     36.7700	  530.00	  506.15	-1762.40	  387.40
     36.8700	  495.00	  505.92	-1797.17	  387.17
     36.9700	  497.00	  505.80	-1795.05	  386.95
     37.0700	  482.00	  505.87	-1810.12	  386.73
     37.1700	  499.00	  506.34	-1793.59	  386.51
     37.2700	  464.00	  507.52	-1829.77	  386.29
     37.3700	  507.00	  509.78	-1789.03	  386.08
     37.4700	  505.00	  513.28	-1794.53	  385.86
     37.5700	  516.00	  517.59	-1787.84	  385.65
     37.6700	  517.00	  521.53	-1790.78	  385.44
     37.7700	  518.00	  523.46	-1791.71	  385.23
     37.8700	  529.00	  522.49	-1779.74	  385.02
     37.9700	  500.00	  519.49	-1805.74	  384.82
     38.0700	  493.00	  515.81	-1809.06	  384.62
     38.1700	  481.00	  512.03	-1817.28	  384.42
     38.2700	  536.00	  508.58	-1758.83	  384.22
     38.3700	  518.00	  505.83	-1774.08	  384.02
     38.4700	  487.00	  503.87	-1803.12	  383.82
     38.5700	  477.00	  502.58	-1811.83	  383.63
     38.6700	  537.00	  501.77	-1751.02	  383.44
     38.7700	  466.00	  501.14	-1821.39	  383.25
     38.8700	  485.00	  500.77	-1802.02	  383.06
     38.9700	  473.00	  500.47	-1813.72	  382.87
     39.0700	  487.00	  500.21	-1799.46	  382.68
     39.1700	  522.00	  499.98	-1764.23	  382.50
     39.2700	  513.00	  499.68	-1772.93	  382.32
     39.3700	  538.00	  499.48	-1747.73	  382.14
     39.4700	  479.00	  499.29	-1806.54	  381.96
     39.5700	  496.00	  499.25	-1789.50	  381.79
     39.6700	  505.00	  499.09	-1780.34	  381.61
     39.7700	  499.00	  498.93	-1786.18	  381.44
     39.8700	  466.00	  498.79	-1819.04	  381.27
     39.9700	  498.00	  498.66	-1786.91	  381.10
     40.0700	  490.00	  498.54	-1794.79	  380.94
     40.1700	  496.00	  498.43	-1788.68	  380.77
     40.2700	  490.00	  498.33	-1794.58	  380.61
     40.3700	  475.00	  498.24	-1809.49	  380.45
     40.4700	  487.00	  498.16	-1797.41	  380.29
     40.5700	  513.00	  498.10	-1771.35	  380.13
     40.6700	  498.00	  498.06	-1786.31	  379.98
     40.7700	  495.00	  498.03	-1789.28	  379.82
     40.8700	  498.00	  498.03	-1786.28	  379.67
     40.9700	  491.00	  498.05	-1793.30	  379.52
     41.0700	  501.00	  498.11	-1783.36	  379.37
     41.1700	  513.00	  498.20	-1771.45	  379.23
     41.2700	  536.00	  498.31	-1748.56	  379.08
     41.3700	  486.00	  498.52	-1798.77	  378.94
     41.4700	  475.00	  498.81	-1810.06	  378.80
     41.5700	  536.00	  499.63	-1749.88	  378.66
     41.6700	  507.00	  500.19	-1779.44	  378.52
     41.7700	  507.00	  501.02	-1780.27	  378.39
     41.8700	  474.00	  502.37	-1814.62	  378.26
     41.9700	  527.00	  504.84	-1764.09	  378.13
     42.0700	  482.00	  509.61	-1813.86	  378.00
     42.1700	  499.00	  518.70	-1805.95	  377.87
     42.2700	  556.00	  534.76	-1765.01	  377.74
     42.3700	  536.00	  559.65	-1809.90	  377.62
     42.4700	  564.00	  592.60	-1814.85	  377.50
     42.5700	  567.00	  627.66	-1846.91	  377.38
     42.6700	  576.00	  653.56	-1863.81	  377.26
     42.7700	  607.00	  658.01	-1837.26	  377.15
     42.8700	  574.00	  637.46	-1849.71	  377.03
     42.9700	  540.00	  602.64	-1848.89	  376.92
     43.0700	  551.00	  567.28	-1802.53	  376.81
     43.1700	  496.00	  539.36	-1829.61	  376.70
     43.2700	  491.00	  520.91	-1816.16	  376.59
     43.3700	  482.00	  510.30	-1814.55	  376.49
     43.4700	  516.00	  504.75	-1775.00	  376.39
     43.5700	  431.00	  501.91	-1857.16	  376.29
     43.6700	  496.00	  500.52	-1790.77	  376.19
     43.7700	  511.00	  499.53	-1774.78	  376.09
     43.8700	  451.00	  498.84	-1834.09	  375.99
     43.9700	  508.00	  498.32	-1776.57	  375.90
     44.0700	  505.00	  497.95	-1779.20	  375.81
     44.1700	  483.00	  497.63	-1800.88	  375.72
     44.2700	  452.00	  497.39	-1831.64	  375.63
     44.3700	  498.00	  497.20	-1785.45	  375.54
     44.4700	  525.00	  497.05	-1758.30	  375.46
     44.5700	  489.00	  496.95	-1794.20	  375.38
     44.6700	  477.00	  496.75	-1806.00	  375.30
     44.7700	  526.00	  496.71	-1756.96	  375.22
     44.8700	  579.00	  496.70	-1703.95	  375.14
     44.9700	  517.00	  496.71	-1765.96	  375.07
     45.0700	  549.00	  496.74	-1733.99	  374.99
     45.1700	  511.00	  496.99	-1772.24	  374.92
     45.2700	  555.00	  497.07	-1728.32	  374.85
     45.3700	  503.00	  497.18	-1780.43	  374.79
     45.4700	  537.00	  497.30	-1746.55	  374.72
     45.5700	  488.00	  497.45	-1795.70	  374.66
     45.6700	  529.00	  497.63	-1754.88	  374.59
     45.7700	  505.00	  497.83	-1779.08	  374.53
     45.8700	  492.00	  498.06	-1792.31	  374.48
     45.9700	  500.00	  498.32	-1784.57	  374.42
     46.0700	  484.00	  498.61	-1800.86	  374.36
     46.1700	  557.00	  498.94	-1728.19	  374.31
     46.2700	  538.00	  499.31	-1747.56	  374.26
     46.3700	  499.00	  499.72	-1786.97	  374.21
     46.4700	  482.00	  500.20	-1804.45	  374.16
     46.5700	  498.00	  500.73	-1788.98	  374.12
     46.6700	  494.00	  501.35	-1793.60	  374.07
     46.7700	  534.00	  502.06	-1754.31	  374.03
     46.8700	  508.00	  502.91	-1781.16	  373.99
     46.9700	  525.00	  503.99	-1765.24	  373.95
     47.0700	  490.00	  505.49	-1801.74	  373.91
     47.1700	  453.00	  507.83	-1841.08	  373.88
     47.2700	  529.00	  511.72	-1768.97	  373.84
     47.3700	  557.00	  518.13	-1747.38	  373.81
     47.4700	  545.00	  528.19	-1769.44	  373.78
     47.5700	  509.00	  542.44	-1819.69	  373.75
     47.6700	  560.00	  559.99	-1786.24	  373.73
     47.7700	  568.00	  577.70	-1795.95	  373.70
     47.8700	  601.00	  590.52	-1775.77	  373.68
     47.9700	  594.00	  593.47	-1785.72	  373.66
     48.0700	  535.00	  585.69	-1836.94	  373.64
     48.1700	  536.00	  571.66	-1821.91	  373.62
     48.2700	  594.00	  557.07	-1749.32	  373.61
     48.3700	  576.00	  545.64	-1755.89	  373.59
     48.4700	  531.00	  538.77	-1794.02	  373.58
     48.5700	  559.00	  536.27	-1763.52	  373.57
     48.6700	  548.00	  537.18	-1775.43	  373.56
     48.7700	  512.00	  540.60	-1814.85	  373.55
     48.8700	  551.00	  545.98	-1781.23	  373.54
     48.9700	  549.00	  553.32	-1790.57	  373.54
     49.0700	  568.00	  563.17	-1781.42	  373.54
     49.1700	  555.00	  576.97	-1808.22	  373.54
     49.2700	  618.00	  597.83	-1766.08	  373.54
     49.3700	  649.00	  631.70	-1768.95	  373.54
     49.4700	  714.00	  688.83	-1761.08	  373.54
     49.5700	  758.00	  784.70	-1812.95	  373.55
     49.6700	  897.00	  936.85	-1826.10	  373.56
     49.7700	 1112.00	 1160.83	-1835.08	  373.56
     49.8700	 1312.00	 1459.08	-1933.33	  373.58
     49.9700	 1694.00	 1809.28	-1901.53	  373.59
     50.0700	 2139.00	 2154.40	-1801.65	  373.60
     50.1700	 2470.00	 2402.26	-1718.51	  373.62
     50.2700	 2563.00	 2457.53	-1680.78	  373.63
     50.3700	 2406.00	 2292.73	-1672.98	  373.65
     50.4700	 2054.00	 1978.96	-1711.21	  373.67
     50.5700	 1551.00	 1621.50	-1856.75	  373.69
     50.6700	 1112.00	 1297.25	-1971.50	  373.72
     50.7700	  828.00	 1043.80	-2002.05	  373.74
     50.8700	  723.00	  868.29	-1931.54	  373.77
     50.9700	  624.00	  758.77	-1921.02	  373.79
     51.0700	  621.00	  695.10	-1860.35	  373.82
     51.1700	  585.00	  657.44	-1858.69	  373.85
     51.2700	  623.00	  631.29	-1794.54	  373.89
     51.3700	  591.00	  609.47	-1804.72	  373.92
     51.4700	  607.00	  590.26	-1769.51	  373.96
     51.5700	  598.00	  574.06	-1762.31	  373.99
     51.6700	  528.00	  561.36	-1819.61	  374.03
     51.7700	  543.00	  552.12	-1795.36	  374.07
     51.8700	  566.00	  545.76	-1766.01	  374.11
     51.9700	  588.00	  541.56	-1739.81	  374.16
     52.0700	  561.00	  538.86	-1764.11	  374.20
     52.1700	  530.00	  537.25	-1793.50	  374.25
     52.2700	  558.00	  536.80	-1765.05	  374.29
     52.3700	  511.00	  537.09	-1812.34	  374.34
     52.4700	  542.00	  538.66	-1782.91	  374.39
     52.5700	  560.00	  542.30	-1768.55	  374.44
     52.6700	  593.00	  549.76	-1743.01	  374.49
     52.7700	  590.00	  564.43	-1760.68	  374.55
     52.8700	  673.00	  591.89	-1705.14	  374.60
     52.9700	  709.00	  639.66	-1716.91	  374.66
     53.0700	  754.00	  715.22	-1747.47	  374.72
     53.1700	  936.00	  821.90	-1672.15	  374.78
     53.2700	 1020.00	  953.75	-1720.00	  374.84
     53.3700	 1102.00	 1091.44	-1775.69	  374.90
     53.4700	 1166.00	 1201.91	-1822.16	  374.97
     53.5700	 1227.00	 1247.28	-1806.53	  375.03
     53.6700	 1131.00	 1207.80	-1863.05	  375.10
     53.7700	 1041.00	 1100.11	-1845.36	  375.17
     53.8700	  856.00	  962.55	-1892.80	  375.24
     53.9700	  753.00	  829.47	-1862.72	  375.31
     54.0700	  681.00	  721.11	-1826.36	  375.38
     54.1700	  598.00	  644.10	-1832.35	  375.45
     54.2700	  619.00	  595.39	-1762.64	  375.52
     54.3700	  584.00	  567.51	-1769.76	  375.60
     54.4700	  564.00	  552.77	-1775.02	  375.68
     54.5700	  561.00	  545.37	-1770.62	  375.75
     54.6700	  563.00	  541.85	-1765.10	  375.83
     54.7700	  570.00	  540.38	-1756.63	  375.91
     54.8700	  582.00	  540.11	-1744.36	  376.00
     54.9700	  555.00	  540.71	-1771.96	  376.08
     55.0700	  583.00	  542.07	-1745.32	  376.16
     55.1700	  530.00	  544.17	-1800.42	  376.25
     55.2700	  544.00	  547.07	-1789.32	  376.33
     55.3700	  563.00	  550.84	-1774.09	  376.42
     55.4700	  539.00	  555.67	-1802.92	  376.51
     55.5700	  538.00	  561.90	-1810.15	  376.60
     55.6700	  559.00	  570.17	-1797.42	  376.69
     55.7700	  577.00	  581.80	-1791.05	  376.78
     55.8700	  570.00	  599.50	-1815.75	  376.88
     55.9700	  602.00	  628.45	-1812.70	  376.97
     56.0700	  641.00	  677.62	-1822.87	  377.07
     56.1700	  716.00	  760.57	-1830.82	  377.16
     56.2700	  834.00	  894.59	-1846.84	  377.26
     56.3700	  984.00	 1096.46	-1898.71	  377.36
     56.4700	 1240.00	 1374.93	-1921.18	  377.46
     56.5700	 1699.00	 1721.03	-1808.28	  377.56
     56.6700	 2015.00	 2099.37	-1870.62	  377.66
     56.7700	 2327.00	 2444.03	-1903.28	  377.76
     56.8700	 2601.00	 2665.46	-1850.71	  377.87
     56.9700	 2569.00	 2686.56	-1903.81	  377.97
     57.0700	 2407.00	 2498.57	-1877.82	  378.08
     57.1700	 2188.00	 2170.25	-1768.50	  378.19
     57.2700	 1774.00	 1793.91	-1806.16	  378.29
     57.3700	 1448.00	 1441.42	-1779.67	  378.40
     57.4700	 1131.00	 1153.33	-1808.58	  378.51
     57.5700	  864.00	  942.80	-1865.05	  378.62
     57.6700	  841.00	  803.86	-1749.11	  378.74
     57.7700	  719.00	  721.06	-1788.31	  378.85
     57.8700	  661.00	  677.98	-1803.23	  378.96
     57.9700	  632.00	  662.07	-1816.32	  379.08
     58.0700	  664.00	  666.08	-1788.33	  379.19
     58.1700	  707.00	  687.16	-1766.41	  379.31
     58.2700	  779.00	  725.07	-1732.32	  379.43
     58.3700	  882.00	  780.27	-1684.52	  379.54
     58.4700	  965.00	  852.11	-1673.36	  379.66
     58.5700	 1118.00	  937.15	-1605.40	  379.78
     58.6700	 1210.00	 1028.03	-1604.28	  379.90
     58.7700	 1417.00	 1114.84	-1484.09	  380.02
     58.8700	 1484.00	 1189.34	-1491.59	  380.15
     58.9700	 1586.00	 1246.73	-1446.98	  380.27
     59.0700	 1591.00	 1281.85	-1477.10	  380.39
     59.1700	 1642.00	 1288.68	-1432.93	  380.52
     59.2700	 1544.00	 1268.13	-1510.38	  380.64
     59.3700	 1344.00	 1231.71	-1673.96	  380.77
     59.4700	 1312.00	 1194.12	-1668.37	  380.90
     59.5700	 1205.00	 1165.82	-1747.07	  381.02
     59.6700	 1122.00	 1153.71	-1817.96	  381.15
     59.7700	 1152.00	 1165.15	-1799.40	  381.28
     59.8700	 1230.00	 1206.66	-1762.91	  381.41
     59.9700	 1278.00	 1277.67	-1785.92	  381.54
     60.0700	 1425.00	 1366.11	-1727.36	  381.67
     60.1700	 1526.00	 1447.63	-1707.88	  381.80
     60.2700	 1598.00	 1490.18	-1678.43	  381.94
     60.3700	 1611.00	 1468.08	-1643.33	  382.07
     60.4700	 1486.00	 1379.63	-1679.88	  382.20
     60.5700	 1325.00	 1247.09	-1708.34	  382.34
     60.6700	 1106.00	 1099.69	-1779.94	  382.47
     60.7700	  912.00	  960.66	-1834.91	  382.61
     60.8700	  811.00	  844.31	-1819.56	  382.74
     60.9700	  742.00	  756.71	-1800.96	  382.88
     61.0700	  675.00	  698.07	-1809.32	  383.02
     61.1700	  629.00	  665.60	-1822.85	  383.16
     61.2700	  633.00	  656.42	-1809.67	  383.29
     61.3700	  634.00	  669.54	-1821.79	  383.43
     61.4700	  676.00	  706.51	-1816.76	  383.57
     61.5700	  726.00	  770.58	-1830.83	  383.71
     61.6700	  797.00	  864.48	-1853.73	  383.85
     61.7700	  927.00	  987.53	-1846.78	  383.99
     61.8700	 1115.00	 1132.70	-1803.95	  384.14
     61.9700	 1218.00	 1284.40	-1852.65	  384.28
     62.0700	 1364.00	 1417.86	-1840.11	  384.42
     62.1700	 1449.00	 1502.06	-1839.31	  384.56
     62.2700	 1378.00	 1511.27	-1919.52	  384.71
     62.3700	 1319.00	 1441.79	-1909.04	  384.85
     62.4700	 1199.00	 1315.01	-1902.26	  384.99
     62.5700	 1031.00	 1162.19	-1917.44	  385.14
     62.6700	  953.00	 1010.21	-1843.46	  385.28
     62.7700	  749.00	  876.78	-1914.03	  385.43
     62.8700	  733.00	  770.52	-1823.77	  385.57
     62.9700	  651.00	  692.74	-1827.99	  385.72
     63.0700	  595.00	  639.88	-1831.13	  385.87
     63.1700	  535.00	  606.21	-1857.46	  386.01
     63.2700	  579.00	  585.95	-1793.20	  386.16
     63.3700	  540.00	  574.49	-1820.74	  386.31
     63.4700	  587.00	  568.86	-1768.11	  386.46
     63.5700	  577.00	  567.62	-1776.87	  386.60
     63.6700	  609.00	  570.72	-1747.97	  386.75
     63.7700	  566.00	  579.18	-1799.43	  386.90
     63.8700	  599.00	  594.82	-1782.07	  387.05
     63.9700	  634.00	  619.83	-1772.08	  387.20
     64.0700	  649.00	  656.04	-1793.29	  387.35
     64.1700	  735.00	  703.99	-1755.24	  387.50
     64.2700	  775.00	  761.96	-1773.21	  387.65
     64.3700	  877.00	  825.21	-1734.46	  387.79
     64.4700	  923.00	  885.66	-1748.91	  387.94
     64.5700	  944.00	  932.72	-1774.97	  388.09
     64.6700	 1040.00	  955.76	-1702.01	  388.25
     64.7700	 1063.00	  951.11	-1674.36	  388.40
     64.8700	 1014.00	  920.98	-1693.23	  388.55
     64.9700	  966.00	  873.25	-1693.50	  388.70
     65.0700	  865.00	  817.68	-1738.93	  388.85
     65.1700	  795.00	  762.94	-1754.19	  389.00
     65.2700	  724.00	  714.67	-1776.92	  389.15
     65.3700	  701.00	  675.03	-1760.28	  389.30
     65.4700	  661.00	  643.69	-1768.94	  389.45
     65.5700	  650.00	  619.22	-1755.47	  389.60
     65.6700	  589.00	  600.21	-1797.46	  389.75
     65.7700	  581.00	  585.64	-1790.89	  389.90
     65.8700	  541.00	  574.75	-1820.00	  390.06
     65.9700	  577.00	  566.98	-1776.23	  390.21
     66.0700	  576.00	  561.87	-1772.12	  390.36
     66.1700	  532.00	  559.03	-1813.28	  390.51
     66.2700	  535.00	  558.09	-1809.34	  390.66
     66.3700	  486.00	  558.73	-1858.98	  390.81
     66.4700	  553.00	  560.73	-1793.98	  390.96
     66.5700	  543.00	  564.06	-1807.31	  391.11
     66.6700	  568.00	  569.08	-1787.33	  391.26
     66.7700	  570.00	  576.24	-1792.49	  391.41
     66.8700	  565.00	  587.00	-1808.25	  391.57
     66.9700	  551.00	  603.83	-1839.08	  391.72
     67.0700	  642.00	  630.73	-1774.98	  391.87
     67.1700	  646.00	  673.68	-1813.93	  392.02
     67.2700	  754.00	  740.61	-1772.86	  392.17
     67.3700	  778.00	  840.67	-1848.92	  392.32
     67.4700	  976.00	  982.41	-1792.66	  392.47
     67.5700	 1205.00	 1170.55	-1751.80	  392.62
     67.6700	 1415.00	 1402.92	-1774.17	  392.77
     67.7700	 1690.00	 1667.52	-1763.77	  392.91
     67.8700	 1983.00	 1939.92	-1743.17	  393.06
     67.9700	 2200.00	 2183.50	-1769.75	  393.21
     68.0700	 2392.00	 2353.29	-1747.54	  393.36
     68.1700	 2367.00	 2408.81	-1828.06	  393.51
     68.2700	 2436.00	 2334.79	-1685.04	  393.66
     68.3700	 2146.00	 2151.36	-1791.61	  393.80
     68.4700	 1903.00	 1901.03	-1784.28	  393.95
     68.5700	 1630.00	 1628.19	-1784.44	  394.10
     68.6700	 1408.00	 1367.56	-1745.81	  394.25
     68.7700	 1116.00	 1141.68	-1811.93	  394.39
     68.8700	  944.00	  961.13	-1803.38	  394.54
     68.9700	  817.00	  826.68	-1795.93	  394.69
     69.0700	  684.00	  732.72	-1834.97	  394.83
     69.1700	  673.00	  670.51	-1783.76	  394.98
     69.2700	  655.00	  630.98	-1762.23	  395.12
     69.3700	  621.00	  606.47	-1771.72	  395.26
     69.4700	  631.00	  591.31	-1746.56	  395.41
     69.5700	  585.00	  581.74	-1782.99	  395.55
     69.6700	  572.00	  575.47	-1789.72	  395.70
     69.7700	  572.00	  571.21	-1785.46	  395.84
     69.8700	  604.00	  568.27	-1750.52	  395.98
     69.9700	  577.00	  566.29	-1775.54	  396.12
     70.0700	  548.00	  565.10	-1803.35	  396.26
     70.1700	  562.00	  564.62	-1788.87	  396.40
     70.2700	  534.00	  564.86	-1817.11	  396.55
     70.3700	  535.00	  565.85	-1817.10	  396.69
     70.4700	  547.00	  567.79	-1807.04	  396.82
     70.5700	  587.00	  571.05	-1770.30	  396.96
     70.6700	  590.00	  576.32	-1772.57	  397.10
     70.7700	  569.00	  584.82	-1802.07	  397.24
     70.8700	  597.00	  598.59	-1787.84	  397.38
     70.9700	  605.00	  620.73	-1801.98	  397.51
     71.0700	  635.00	  655.60	-1806.85	  397.65
     71.1700	  657.00	  708.66	-1837.91	  397.78
     71.2700	  743.00	  785.86	-1829.11	  397.92
     71.3700	  875.00	  893.31	-1804.56	  398.05
     71.4700	  953.00	 1032.01	-1865.26	  398.19
     71.5700	 1186.00	 1200.98	-1801.23	  398.32
     71.6700	 1371.00	 1392.13	-1807.38	  398.45
     71.7700	 1552.00	 1590.15	-1824.40	  398.58
     71.8700	 1698.00	 1772.43	-1860.68	  398.72
     71.9700	 1839.00	 1910.93	-1858.18	  398.85
     72.0700	 2003.00	 1978.26	-1761.51	  398.98
     72.1700	 1993.00	 1958.79	-1752.04	  399.11
     72.2700	 1801.00	 1857.52	-1842.77	  399.23
     72.3700	 1731.00	 1697.06	-1752.31	  399.36
     72.4700	 1584.00	 1505.81	-1708.06	  399.49
     72.5700	 1369.00	 1310.42	-1727.67	  399.61
     72.6700	 1306.00	 1129.61	-1609.86	  399.74
     72.7700	 1187.00	  974.98	-1574.23	  399.86
     72.8700	 1005.00	  851.24	-1632.49	  399.99
     72.9700	  959.00	  757.78	-1585.03	  400.11
     73.0700	  833.00	  690.59	-1643.84	  400.23
     73.1700	  764.00	  644.18	-1666.43	  400.35
     73.2700	  755.00	  613.02	-1644.27	  400.48
     73.3700	  695.00	  592.37	-1683.62	  400.60
     73.4700	  597.00	  578.68	-1767.93	  400.71
     73.5700	  588.00	  569.52	-1767.77	  400.83
     73.6700	  602.00	  563.34	-1747.59	  400.95
     73.7700	  588.00	  559.22	-1757.47	  401.07
     73.8700	  598.00	  556.63	-1744.88	  401.18
     73.9700	  591.00	  555.25	-1750.50	  401.30
     74.0700	  561.00	  554.87	-1780.12	  401.41
     74.1700	  591.00	  555.30	-1750.55	  401.52
     74.2700	  582.00	  556.31	-1760.56	  401.64
     74.3700	  612.00	  557.62	-1731.87	  401.75
     74.4700	  600.00	  558.89	-1745.14	  401.86
     74.5700	  624.00	  559.73	-1721.98	  401.97
     74.6700	  644.00	  559.79	-1702.04	  402.07
     74.7700	  645.00	  558.89	-1700.14	  402.18
     74.8700	  658.00	  557.10	-1685.35	  402.29
     74.9700	  582.00	  554.70	-1758.95	  402.39
     75.0700	  604.00	  552.11	-1734.36	  402.50
     75.1700	  565.00	  549.76	-1771.01	  402.60
     75.2700	  575.00	  548.01	-1759.26	  402.70
     75.3700	  578.00	  547.30	-1755.55	  402.80
     75.4700	  549.00	  548.15	-1785.40	  402.90
     75.5700	  532.00	  550.95	-1805.20	  403.00
     75.6700	  563.00	  556.12	-1779.37	  403.10
     75.7700	  553.00	  564.34	-1797.59	  403.20
     75.8700	  586.00	  575.90	-1776.15	  403.30
     75.9700	  623.00	  590.92	-1754.17	  403.39
     76.0700	  572.00	  609.12	-1823.37	  403.48
     76.1700	  617.00	  629.67	-1798.92	  403.58
     76.2700	  706.00	  651.09	-1731.34	  403.67
     76.3700	  710.00	  671.32	-1747.57	  403.76
     76.4700	  701.00	  687.78	-1773.03	  403.85
     76.5700	  669.00	  697.79	-1815.04	  403.94
     76.6700	  739.00	  699.40	-1746.65	  404.03
     76.7700	  634.00	  692.25	-1844.50	  404.11
     76.8700	  638.00	  677.74	-1825.99	  404.20
     76.9700	  694.00	  658.40	-1750.65	  404.28
     77.0700	  604.00	  636.71	-1818.96	  404.36
     77.1700	  549.00	  615.31	-1852.56	  404.44
     77.2700	  595.00	  595.72	-1786.97	  404.52
     77.3700	  527.00	  578.95	-1838.20	  404.60
     77.4700	  553.00	  565.44	-1798.69	  404.68
     77.5700	  536.00	  555.14	-1805.39	  404.76
     77.6700	  521.00	  547.67	-1812.92	  404.83
     77.7700	  535.00	  542.49	-1793.74	  404.91
     77.8700	  517.00	  539.02	-1808.27	  404.98
     77.9700	  533.00	  536.78	-1790.03	  405.05
     78.0700	  521.00	  535.35	-1800.60	  405.12
     78.1700	  490.00	  534.46	-1830.71	  405.19
     78.2700	  510.00	  533.90	-1810.15	  405.26
     78.3700	  547.00	  533.56	-1772.81	  405.33
     78.4700	  577.00	  533.36	-1742.61	  405.39
     78.5700	  519.00	  533.28	-1800.53	  405.46
     78.6700	  515.00	  533.29	-1804.54	  405.52
     78.7700	  513.00	  533.40	-1806.65	  405.58
     78.8700	  511.00	  533.62	-1808.87	  405.64
     78.9700	  494.00	  533.98	-1826.23	  405.70
     79.0700	  552.00	  534.52	-1768.77	  405.76
     79.1700	  481.00	  535.29	-1840.54	  405.81
     79.2700	  527.00	  536.33	-1795.58	  405.87
     79.3700	  472.00	  537.54	-1851.79	  405.92
     79.4700	  551.00	  539.35	-1774.60	  405.97
     79.5700	  561.00	  541.66	-1766.91	  406.03
     79.6700	  509.00	  544.57	-1821.82	  406.07
     79.7700	  486.00	  548.17	-1848.42	  406.12
     79.8700	  495.00	  552.62	-1843.87	  406.17
     79.9700	  529.00	  558.09	-1815.34	  406.21
     80.0700	  529.00	  564.77	-1822.02	  406.26
     80.1700	  553.00	  572.94	-1806.19	  406.30
     80.2700	  554.00	  582.88	-1815.13	  406.34
     80.3700	  594.00	  594.86	-1787.11	  406.38
     80.4700	  600.00	  609.04	-1795.29	  406.42
     80.5700	  599.00	  625.34	-1812.59	  406.46
     80.6700	  651.00	  643.35	-1778.60	  406.49
     80.7700	  617.00	  662.28	-1831.53	  406.52
     80.8700	  703.00	  680.95	-1764.20	  406.56
     80.9700	  705.00	  697.94	-1779.19	  406.59
     81.0700	  659.00	  711.85	-1839.10	  406.62
     81.1700	  697.00	  721.55	-1810.80	  406.65
     81.2700	  740.00	  726.37	-1772.62	  406.67
     81.3700	  769.00	  726.01	-1743.26	  406.70
     81.4700	  731.00	  720.64	-1775.89	  406.72
     81.5700	  793.00	  710.85	-1704.10	  406.74
     81.6700	  742.00	  697.50	-1741.75	  406.76
     81.7700	  734.00	  681.55	-1733.80	  406.78
     81.8700	  760.00	  663.99	-1690.24	  406.80
     81.9700	  652.00	  645.83	-1780.08	  406.82
     82.0700	  699.00	  628.01	-1715.26	  406.83
     82.1700	  678.00	  611.45	-1719.70	  406.84
     82.2700	  693.00	  596.64	-1689.89	  406.85
     82.3700	  650.00	  583.87	-1720.12	  406.86
     82.4700	  584.00	  573.25	-1775.50	  406.87
     82.5700	  578.00	  564.73	-1772.98	  406.88
     82.6700	  570.00	  558.18	-1774.43	  406.88
     82.7700	  539.00	  553.51	-1800.76	  406.89
     82.8700	  549.00	  550.54	-1787.79	  406.89
     82.9700	  557.00	  549.13	-1778.38	  406.89
     83.0700	  515.00	  549.17	-1820.42	  406.89
     83.1700	  556.00	  550.55	-1780.80	  406.89
     83.2700	  530.00	  553.17	-1809.42	  406.88
     83.3700	  535.00	  556.88	-1808.13	  406.88
     83.4700	  554.00	  561.49	-1793.74	  406.87
     83.5700	  550.00	  566.71	-1802.96	  406.86
     83.6700	  564.00	  572.16	-1794.41	  406.85
     83.7700	  569.00	  577.37	-1794.62	  406.84
     83.8700	  572.00	  581.77	-1796.02	  406.82
     83.9700	  606.00	  584.80	-1765.05	  406.81
     84.0700	  566.00	  585.97	-1806.22	  406.79
     84.1700	  608.00	  585.06	-1763.31	  406.77
     84.2700	  597.00	  582.18	-1771.43	  406.75
     84.3700	  551.00	  577.74	-1812.99	  406.73
     84.4700	  547.00	  572.28	-1811.53	  406.70
     84.5700	  502.00	  566.35	-1850.60	  406.68
     84.6700	  529.00	  560.43	-1817.68	  406.65
     84.7700	  557.00	  554.86	-1784.11	  406.62
     84.8700	  532.00	  549.92	-1804.17	  406.59
     84.9700	  498.00	  545.73	-1833.98	  406.56
     85.0700	  498.00	  542.36	-1830.61	  406.53
     85.1700	  520.00	  539.77	-1806.02	  406.49
     85.2700	  554.00	  537.90	-1770.15	  406.46
     85.3700	  525.00	  536.65	-1797.90	  406.42
     85.4700	  498.00	  535.92	-1824.17	  406.38
     85.5700	  544.00	  535.62	-1777.87	  406.34
     85.6700	  501.00	  535.70	-1820.95	  406.29
     85.7700	  485.00	  536.10	-1837.35	  406.25
     85.8700	  556.00	  536.82	-1767.07	  406.20
     85.9700	  531.00	  537.87	-1793.12	  406.15
     86.0700	  534.00	  539.31	-1791.56	  406.10
     86.1700	  508.00	  541.21	-1819.46	  406.05
     86.2700	  565.00	  543.69	-1764.94	  406.00
     86.3700	  522.00	  546.86	-1811.11	  405.94
     86.4700	  554.00	  550.88	-1783.13	  405.88
     86.5700	  606.00	  555.87	-1736.12	  405.82
     86.6700	  609.00	  561.92	-1739.17	  405.76
     86.7700	  558.00	  569.05	-1797.30	  405.70
     86.8700	  558.00	  576.82	-1805.07	  405.64
     86.9700	  608.00	  585.59	-1763.84	  405.57
     87.0700	  560.00	  594.60	-1820.85	  405.51
     87.1700	  632.00	  603.28	-1757.53	  405.44
     87.2700	  633.00	  610.89	-1764.14	  405.37
     87.3700	  702.00	  616.67	-1700.92	  405.29
     87.4700	  629.00	  619.92	-1777.17	  405.22
     87.5700	  675.00	  620.19	-1731.44	  405.14
     87.6700	  619.00	  617.46	-1784.71	  405.07
     87.7700	  654.00	  612.17	-1744.42	  404.99
     87.8700	  610.00	  605.05	-1781.30	  404.91
     87.9700	  590.00	  596.98	-1793.23	  404.82
     88.0700	  556.00	  588.81	-1819.06	  404.74
     88.1700	  634.00	  581.30	-1733.55	  404.65
     88.2700	  598.00	  575.07	-1763.32	  404.57
     88.3700	  564.00	  570.57	-1792.82	  404.48
     88.4700	  572.00	  568.09	-1782.34	  404.39
     88.5700	  604.00	  567.71	-1749.96	  404.29
     88.6700	  595.00	  569.38	-1760.63	  404.20
     88.7700	  583.00	  572.85	-1776.10	  404.10
     88.8700	  597.00	  577.79	-1767.04	  404.01
     88.9700	  592.00	  583.69	-1777.94	  403.91
     89.0700	  589.00	  589.99	-1787.24	  403.81
     89.1700	  567.00	  596.03	-1815.28	  403.70
     89.2700	  594.00	  601.13	-1793.38	  403.60
     89.3700	  649.00	  604.63	-1741.88	  403.49
     89.4700	  613.00	  606.01	-1779.26	  403.38
     89.5700	  575.00	  605.03	-1816.28	  403.27
     89.6700	  556.00	  601.78	-1832.03	  403.16
     89.7700	  566.00	  596.63	-1816.88	  403.05
     89.8700	  605.00	  590.15	-1771.40	  402.93
     89.9700	  577.00	  582.91	-1792.16	  402.82
     90.0700	  557.00	  575.45	-1804.70	  402.70
     90.1700	  536.00	  568.21	-1818.46	  402.58
     90.2700	  527.00	  561.54	-1820.79	  402.46
     90.3700	  547.00	  555.65	-1794.90	  402.33
     90.4700	  540.00	  550.67	-1796.92	  402.21
     90.5700	  482.00	  546.62	-1850.87	  402.08
     90.6700	  502.00	  543.48	-1827.73	  401.96
     90.7700	  556.00	  541.15	-1771.40	  401.83
     90.8700	  524.00	  539.52	-1801.77	  401.69
     90.9700	  518.00	  538.49	-1806.74	  401.56
     91.0700	  548.00	  537.97	-1776.22	  401.43
     91.1700	  502.00	  537.88	-1822.13	  401.29
     91.2700	  497.00	  538.19	-1827.44	  401.15
     91.3700	  502.00	  538.92	-1823.17	  401.01
     91.4700	  486.00	  540.11	-1840.36	  400.87
     91.5700	  495.00	  541.85	-1833.10	  400.73
     91.6700	  500.00	  544.26	-1830.51	  400.58
     91.7700	  541.00	  547.52	-1792.77	  400.43
     91.8700	  529.00	  551.80	-1809.05	  400.29
     91.9700	  554.00	  557.30	-1789.55	  400.14
     92.0700	  524.00	  563.98	-1826.23	  399.99
     92.1700	  551.00	  572.43	-1807.68	  399.83
     92.2700	  595.00	  582.51	-1773.76	  399.68
     92.3700	  539.00	  594.21	-1841.46	  399.52
     92.4700	  628.00	  607.43	-1765.68	  399.36
     92.5700	  633.00	  621.92	-1775.17	  399.20
     92.6700	  639.00	  637.35	-1784.60	  399.04
     92.7700	  623.00	  653.22	-1816.47	  398.88
     92.8700	  696.00	  668.94	-1759.19	  398.72
     92.9700	  718.00	  683.88	-1752.13	  398.55
     93.0700	  758.00	  697.45	-1725.70	  398.38
     93.1700	  764.00	  709.22	-1731.47	  398.21
     93.2700	  762.00	  719.14	-1743.39	  398.04
     93.3700	  817.00	  727.51	-1696.76	  397.87
     93.4700	  832.00	  734.93	-1689.18	  397.70
     93.5700	  902.00	  742.11	-1626.36	  397.52
     93.6700	  783.00	  749.76	-1753.01	  397.35
     93.7700	  782.00	  758.48	-1762.73	  397.17
     93.8700	  817.00	  768.77	-1738.02	  396.99
     93.9700	  866.00	  781.04	-1701.29	  396.81
     94.0700	  901.00	  795.59	-1680.84	  396.62
     94.1700	  844.00	  812.54	-1754.79	  396.44
     94.2700	  864.00	  831.70	-1753.95	  396.25
     94.3700	  866.00	  852.50	-1772.75	  396.06
     94.4700	  893.00	  873.89	-1767.14	  395.88
     94.5700	  904.00	  894.42	-1776.67	  395.69
     94.6700	  940.00	  912.25	-1758.50	  395.49
     94.7700	  924.00	  925.39	-1787.64	  395.30
     94.8700	  937.00	  931.96	-1781.21	  395.11
     94.9700	  915.00	  930.62	-1801.87	  394.91
     95.0700	  903.00	  920.95	-1804.20	  394.71
     95.1700	  907.00	  903.58	-1782.83	  394.51
     95.2700	  871.00	  879.99	-1795.24	  394.31
     95.3700	  819.00	  852.20	-1819.45	  394.11
     95.4700	  786.00	  822.36	-1822.61	  393.91
     95.5700	  737.00	  792.58	-1841.83	  393.70
     95.6700	  753.00	  764.86	-1798.11	  393.49
     95.7700	  682.00	  740.94	-1845.19	  393.29
     95.8700	  732.00	  722.43	-1776.68	  393.08
     95.9700	  650.00	  710.71	-1846.96	  392.87
     96.0700	  696.00	  707.02	-1797.27	  392.66
     96.1700	  682.00	  712.40	-1816.65	  392.44
     96.2700	  666.00	  727.70	-1847.95	  392.23
     96.3700	  691.00	  753.55	-1848.80	  392.01
     96.4700	  830.00	  790.27	-1746.52	  391.79
     96.5700	  843.00	  837.81	-1781.06	  391.58
     96.6700	  909.00	  895.62	-1772.87	  391.36
     96.7700	  953.00	  962.58	-1795.82	  391.14
     96.8700	 1006.00	 1036.84	-1817.09	  390.91
     96.9700	 1145.00	 1115.88	-1757.13	  390.69
     97.0700	 1203.00	 1196.39	-1779.64	  390.46
     97.1700	 1241.00	 1274.45	-1819.70	  390.24
     97.2700	 1291.00	 1345.60	-1840.85	  390.01
     97.3700	 1419.00	 1405.07	-1772.32	  389.78
     97.4700	 1401.00	 1448.35	-1833.60	  389.55
     97.5700	 1492.00	 1471.86	-1766.11	  389.32
     97.6700	 1416.00	 1473.73	-1843.98	  389.09
     97.7700	 1441.00	 1454.20	-1799.45	  388.86
     97.8700	 1411.00	 1415.52	-1790.77	  388.62
     97.9700	 1419.00	 1361.40	-1728.65	  388.38
     98.0700	 1250.00	 1296.24	-1832.49	  388.15
     98.1700	 1217.00	 1224.67	-1793.92	  387.91
     98.2700	 1167.00	 1150.97	-1770.22	  387.67
     98.3700	 1150.00	 1079.06	-1715.31	  387.43
     98.4700	 1046.00	 1012.27	-1752.52	  387.19
     98.5700	  952.00	  953.33	-1787.58	  386.95
     98.6700	  819.00	  904.39	-1871.64	  386.70
     98.7700	  863.00	  867.05	-1790.30	  386.46
     98.8700	  806.00	  842.52	-1822.77	  386.21
     98.9700	  806.00	  831.60	-1811.85	  385.96
     99.0700	  803.00	  834.83	-1818.08	  385.72
     99.1700	  787.00	  852.50	-1851.75	  385.47
     99.2700	  879.00	  884.69	-1791.94	  385.22
     99.3700	  931.00	  931.31	-1786.56	  384.97
     99.4700	  907.00	  991.96	-1871.21	  384.72
     99.5700	 1085.00	 1065.96	-1767.21	  384.46
     99.6700	 1134.00	 1152.17	-1804.42	  384.21
     99.7700	 1226.00	 1248.97	-1809.22	  383.95
     99.8700	 1293.00	 1354.14	-1847.39	  383.70
     99.9700	 1456.00	 1464.76	-1795.01	  383.44
    100.0700	 1612.00	 1577.19	-1751.44	  383.19
    100.1700	 1694.00	 1687.21	-1779.46	  382.93
    100.2700	 1874.00	 1790.31	-1702.56	  382.67
    100.3700	 1846.00	 1882.15	-1822.40	  382.41
    100.4700	 1943.00	 1959.00	-1802.25	  382.15
    100.5700	 1985.00	 2018.07	-1819.32	  381.89
    100.6700	 2113.00	 2057.51	-1730.76	  381.62
    100.7700	 2207.00	 2076.20	-1655.45	  381.36
    100.8700	 2106.00	 2073.49	-1753.74	  381.10
    100.9700	 2112.00	 2049.32	-1723.57	  380.83
    101.0700	 2035.00	 2004.53	-1755.78	  380.57
    101.1700	 1983.00	 1941.25	-1744.50	  380.30
    101.2700	 1894.00	 1862.98	-1755.23	  380.03
    101.3700	 1774.00	 1774.29	-1786.54	  379.77
    101.4700	 1663.00	 1680.28	-1803.53	  379.50
    101.5700	 1654.00	 1585.92	-1718.17	  379.23
    101.6700	 1494.00	 1495.59	-1787.84	  378.96
    101.7700	 1456.00	 1412.73	-1742.98	  378.69
    101.8700	 1374.00	 1339.71	-1751.96	  378.42
    101.9700	 1266.00	 1277.90	-1798.15	  378.15
    102.0700	 1277.00	 1227.54	-1736.79	  377.88
    102.1700	 1197.00	 1187.92	-1777.17	  377.61
    102.2700	 1171.00	 1157.48	-1772.73	  377.33
    102.3700	 1122.00	 1133.95	-1798.20	  377.06
    102.4700	 1110.00	 1114.68	-1790.93	  376.79
    102.5700	 1077.00	 1096.87	-1806.12	  376.51
    102.6700	 1025.00	 1077.96	-1839.21	  376.24
    102.7700	 1088.00	 1055.94	-1754.19	  375.96
    102.8700	 1063.00	 1029.62	-1752.87	  375.69
    102.9700	  962.00	  998.71	-1822.96	  375.41
    103.0700	  957.00	  963.65	-1792.90	  375.13
    103.1700	  891.00	  925.38	-1820.63	  374.86
    103.2700	  910.00	  885.09	-1761.34	  374.58
    103.3700	  808.00	  844.09	-1822.34	  374.30
    103.4700	  834.00	  803.60	-1755.85	  374.03
    103.5700	  811.00	  764.74	-1739.99	  373.75
    103.6700	  716.00	  728.41	-1798.66	  373.47
    103.7700	  718.00	  695.29	-1763.54	  373.19
    103.8700	  673.00	  665.84	-1779.09	  372.91
    103.9700	  607.00	  640.29	-1819.54	  372.64
    104.0700	  578.00	  618.67	-1826.92	  372.36
    104.1700	  628.00	  600.83	-1759.08	  372.08
    104.2700	  541.00	  586.50	-1831.75	  371.80
    104.3700	  625.00	  575.34	-1736.59	  371.52
    104.4700	  583.00	  566.95	-1770.20	  371.24
    104.5700	  544.00	  560.93	-1803.18	  370.96
    104.6700	  552.00	  556.90	-1791.15	  370.68
    104.7700	  563.00	  554.50	-1777.75	  370.40
    104.8700	  518.00	  553.41	-1821.66	  370.12
    104.9700	  531.00	  553.35	-1808.60	  369.85
    105.0700	  558.00	  554.09	-1782.34	  369.57
    105.1700	  519.00	  555.46	-1822.71	  369.29
    105.2700	  554.00	  557.32	-1789.57	  369.01
    105.3700	  525.00	  559.56	-1820.81	  368.73
    105.4700	  534.00	  562.10	-1814.35	  368.45
    105.5700	  504.00	  564.96	-1847.21	  368.17
    105.6700	  560.00	  568.15	-1794.40	  367.89
    105.7700	  504.00	  571.74	-1853.99	  367.62
    105.8700	  565.00	  575.83	-1797.08	  367.34
    105.9700	  526.00	  580.55	-1840.80	  367.06
    106.0700	  550.00	  586.02	-1822.27	  366.78
    106.1700	  589.00	  592.31	-1789.56	  366.51
    106.2700	  577.00	  599.48	-1808.73	  366.23
    106.3700	  601.00	  607.50	-1792.75	  365.96
    106.4700	  573.00	  616.28	-1829.53	  365.68
    106.5700	  577.00	  625.65	-1834.90	  365.40
    106.6700	  635.00	  635.37	-1786.62	  365.13
    106.7700	  646.00	  645.15	-1785.40	  364.86
    106.8700	  648.00	  654.62	-1792.87	  364.58
    106.9700	  624.00	  663.40	-1825.65	  364.31
    107.0700	  676.00	  671.06	-1781.31	  364.04
    107.1700	  649.00	  677.27	-1814.52	  363.76
    107.2700	  621.00	  681.74	-1846.99	  363.49
    107.3700	  715.00	  684.34	-1755.59	  363.22
    107.4700	  705.00	  685.13	-1766.38	  362.95
    107.5700	  710.00	  684.33	-1760.58	  362.68
    107.6700	  668.00	  682.30	-1800.55	  362.41
    107.7700	  728.00	  679.50	-1737.75	  362.14
    107.8700	  684.00	  676.37	-1778.62	  361.88
    107.9700	  653.00	  673.34	-1806.59	  361.61
    108.0700	  658.00	  670.74	-1798.99	  361.35
    108.1700	  646.00	  668.83	-1809.08	  361.08
    108.2700	  610.00	  667.73	-1843.98	  360.82
    108.3700	  677.00	  667.45	-1776.70	  360.55
    108.4700	  659.00	  667.90	-1795.15	  360.29
    108.5700	  667.00	  668.84	-1788.09	  360.03
    108.6700	  675.00	  669.99	-1781.24	  359.77
    108.7700	  691.00	  670.95	-1766.20	  359.51
    108.8700	  701.00	  671.33	-1756.58	  359.26
    108.9700	  697.00	  670.72	-1759.97	  359.00
    109.0700	  707.00	  668.82	-1748.07	  358.74
    109.1700	  643.00	  665.39	-1808.64	  358.49
    109.2700	  675.00	  660.38	-1771.63	  358.24
    109.3700	  622.00	  653.85	-1818.10	  357.98
    109.4700	  646.00	  645.99	-1786.24	  357.73
    109.5700	  640.00	  637.09	-1783.34	  357.48
    109.6700	  676.00	  627.45	-1737.70	  357.24
    109.7700	  594.00	  617.41	-1809.66	  356.99
    109.8700	  581.00	  607.28	-1812.53	  356.74
    109.9700	  628.00	  597.37	-1755.62	  356.50
    110.0700	  582.00	  587.92	-1792.17	  356.26
    110.1700	  577.00	  579.14	-1788.39	  356.02
    110.2700	  578.00	  571.19	-1779.44	  355.78
    110.3700	  596.00	  564.17	-1754.42	  355.54
    110.4700	  524.00	  558.14	-1820.39	  355.30
    110.5700	  558.00	  553.11	-1781.36	  355.07
    110.6700	  521.00	  549.05	-1814.30	  354.83
    110.7700	  547.00	  545.92	-1785.17	  354.60
    110.8700	  583.00	  543.63	-1746.88	  354.37
    110.9700	  505.00	  542.12	-1823.37	  354.15
    111.0700	  526.00	  541.28	-1801.53	  353.92
    111.1700	  508.00	  541.03	-1819.28	  353.69
    111.2700	  531.00	  541.29	-1796.54	  353.47
    111.3700	  525.00	  541.99	-1803.24	  353.25
    111.4700	  528.00	  543.06	-1801.31	  353.03
    111.5700	  525.00	  544.46	-1805.71	  352.82
    111.6700	  542.00	  546.13	-1790.38	  352.60
    111.7700	  561.00	  548.06	-1773.31	  352.39
    111.8700	  579.00	  550.22	-1757.47	  352.18
    111.9700	  520.00	  552.60	-1818.85	  351.97
    112.0700	  543.00	  555.20	-1798.45	  351.76
    112.1700	  550.00	  558.02	-1794.27	  351.56
    112.2700	  588.00	  561.09	-1759.34	  351.36
    112.3700	  581.00	  564.43	-1769.68	  351.16
    112.4700	  572.00	  568.06	-1782.31	  350.96
    112.5700	  567.00	  572.04	-1791.29	  350.76
    112.6700	  636.00	  576.41	-1726.66	  350.57
    112.7700	  596.00	  581.26	-1771.51	  350.38
    112.8700	  653.00	  586.69	-1719.94	  350.19
    112.9700	  644.00	  592.82	-1735.07	  350.01
    113.0700	  652.00	  599.82	-1734.07	  349.83
    113.1700	  687.00	  607.89	-1707.14	  349.64
    113.2700	  717.00	  617.32	-1686.57	  349.47
    113.3700	  724.00	  628.49	-1690.74	  349.29
    113.4700	  800.00	  641.82	-1628.07	  349.12
    113.5700	  799.00	  657.90	-1645.15	  348.95
    113.6700	  863.00	  677.42	-1600.67	  348.78
    113.7700	  890.00	  701.27	-1597.52	  348.62
    113.8700	  980.00	  730.49	-1536.74	  348.46
    113.9700	  931.00	  766.33	-1621.58	  348.30
    114.0700	 1046.00	  810.27	-1550.52	  348.14
    114.1700	 1168.00	  863.97	-1482.22	  347.99
    114.2700	 1184.00	  929.33	-1531.58	  347.84
    114.3700	 1258.00	 1008.46	-1536.71	  347.69
    114.4700	 1304.00	 1103.59	-1585.84	  347.55
    114.5700	 1362.00	 1217.05	-1641.30	  347.41
    114.6700	 1561.00	 1351.17	-1576.42	  347.27
    114.7700	 1657.00	 1508.25	-1637.50	  347.14
    114.8700	 1788.00	 1690.36	-1688.61	  347.01
    114.9700	 2118.00	 1899.19	-1567.44	  346.88
    115.0700	 2240.00	 2135.94	-1682.19	  346.75
    115.1700	 2534.00	 2401.13	-1653.38	  346.63
    115.2700	 2696.00	 2694.51	-1784.76	  346.52
    115.3700	 2937.00	 3014.91	-1864.16	  346.40
    115.4700	 3367.00	 3360.00	-1779.25	  346.29
    115.5700	 3522.00	 3726.32	-1990.57	  346.18
    115.6700	 3888.00	 4109.12	-2007.37	  346.08
    115.7700	 4227.00	 4502.54	-2061.79	  345.98
    115.8700	 4521.00	 4899.52	-2164.77	  345.89
    115.9700	 4968.00	 5291.67	-2109.92	  345.79
    116.0700	 5280.00	 5669.64	-2175.89	  345.70
    116.1700	 5746.00	 6023.14	-2063.39	  345.62
    116.2700	 6226.00	 6341.44	-1901.69	  345.54
    116.3700	 6523.00	 6613.66	-1876.91	  345.46
    116.4700	 6874.00	 6829.41	-1741.66	  345.39
    116.5700	 7051.00	 6979.72	-1714.97	  345.32
    116.6700	 7008.00	 7057.98	-1836.23	  345.25
    116.7700	 7145.00	 7060.68	-1701.93	  345.19
    116.8700	 7009.00	 6987.90	-1765.15	  345.14
    116.9700	 6943.00	 6843.30	-1686.55	  345.08
    117.0700	 6723.00	 6633.63	-1696.88	  345.04
    117.1700	 6453.00	 6367.96	-1701.21	  344.99
    117.2700	 5981.00	 6056.61	-1861.86	  344.95
    117.3700	 5870.00	 5710.38	-1626.63	  344.92
    117.4700	 5329.00	 5340.02	-1797.27	  344.89
    117.5700	 4966.00	 4955.66	-1775.91	  344.86
    117.6700	 4758.00	 4566.54	-1594.79	  344.84
    117.7700	 4500.00	 4180.72	-1466.97	  344.82
    117.8700	 4032.00	 3805.08	-1559.33	  344.81
    117.9700	 3554.00	 3445.38	-1677.63	  344.80
    118.0700	 3163.00	 3106.06	-1729.31	  344.79
    118.1700	 2914.00	 2790.43	-1662.68	  344.80
    118.2700	 2441.00	 2500.56	-1845.81	  344.80
    118.3700	 2188.00	 2237.50	-1835.75	  344.81
    118.4700	 1928.00	 2001.54	-1859.79	  344.83
    118.5700	 1677.00	 1792.14	-1901.39	  344.85
    118.6700	 1501.00	 1608.20	-1893.45	  344.88
    118.7700	 1367.00	 1448.12	-1867.37	  344.91
    118.8700	 1192.00	 1309.97	-1904.22	  344.94
    118.9700	 1166.00	 1191.72	-1811.97	  344.98
    119.0700	  969.00	 1091.19	-1908.44	  345.03
    119.1700	  878.00	 1006.25	-1914.50	  345.08
    119.2700	  836.00	  934.83	-1885.08	  345.14
    119.3700	  829.00	  875.01	-1832.26	  345.20
    119.4700	  743.00	  825.06	-1868.31	  345.27
    119.5700	  698.00	  783.42	-1871.67	  345.34
    119.6700	  720.00	  748.75	-1815.00	  345.42
    119.7700	  662.00	  719.87	-1844.12	  345.50
    119.8700	  642.00	  695.80	-1840.05	  345.59
    119.9700	  631.00	  675.71	-1830.96	  345.69
    120.0700	  578.00	  658.94	-1867.19	  345.79
    120.1700	  623.00	  644.91	-1808.16	  345.90
    120.2700	  557.00	  633.17	-1862.42	  346.01
    120.3700	  577.00	  623.36	-1832.61	  346.13
    120.4700	  521.00	  615.19	-1880.44	  346.26
    120.5700	  535.00	  608.41	-1859.66	  346.39
    120.6700	  539.00	  602.84	-1850.09	  346.52
    120.7700	  550.00	  598.35	-1834.60	  346.67
    120.8700	  558.00	  594.80	-1823.05	  346.82
    120.9700	  562.00	  592.13	-1816.38	  346.97
    121.0700	  563.00	  590.24	-1813.49	  347.14
    121.1700	  554.00	  589.09	-1821.34	  347.30
    121.2700	  587.00	  588.63	-1787.89	  347.48
    121.3700	  570.00	  588.82	-1805.07	  347.66
    121.4700	  574.00	  589.60	-1801.85	  347.85
    121.5700	  545.00	  590.93	-1832.18	  348.04
    121.6700	  584.00	  592.77	-1795.02	  348.24
    121.7700	  615.00	  595.05	-1766.30	  348.45
    121.8700	  566.00	  597.71	-1817.96	  348.67
    121.9700	  599.00	  600.65	-1787.90	  348.89
    122.0700	  590.00	  603.83	-1800.08	  349.12
    122.1700	  593.00	  607.14	-1800.39	  349.35
    122.2700	  626.00	  610.48	-1770.73	  349.59
    122.3700	  622.00	  613.75	-1778.00	  349.84
    122.4700	  627.00	  616.82	-1776.07	  350.10
    122.5700	  642.00	  619.59	-1763.84	  350.36
    122.6700	  593.00	  621.96	-1815.21	  350.63
    122.7700	  628.00	  623.84	-1782.09	  350.91
    122.8700	  649.00	  625.14	-1762.39	  351.20
    122.9700	  666.00	  625.82	-1746.07	  351.49
    123.0700	  642.00	  625.85	-1770.10	  351.79
    123.1700	  628.00	  625.22	-1783.47	  352.10
    123.2700	  659.00	  623.97	-1751.22	  352.41
    123.3700	  690.00	  622.13	-1718.38	  352.74
    123.4700	  636.00	  619.78	-1770.03	  353.07
    123.5700	  676.00	  616.98	-1727.23	  353.41
    123.6700	  624.00	  613.82	-1776.07	  353.75
    123.7700	  617.00	  610.36	-1779.61	  354.11
    123.8700	  615.00	  606.69	-1777.94	  354.47
    123.9700	  660.00	  602.88	-1729.13	  354.84
    124.0700	  613.00	  599.01	-1772.26	  355.22
    124.1700	  632.00	  595.15	-1749.40	  355.61
    124.2700	  619.00	  591.33	-1758.58	  356.00
    124.3700	  574.00	  587.62	-1799.87	  356.41
    124.4700	  570.00	  584.06	-1800.31	  356.82
    124.5700	  616.00	  580.67	-1750.92	  357.24
    124.6700	  588.00	  577.49	-1775.74	  357.67
    124.7700	  582.00	  574.53	-1778.78	  358.10
    124.8700	  620.00	  571.81	-1738.06	  358.55
    124.9700	  590.00	  473.94	-1670.19	  359.01
    125.0700	  601.00	  474.40	-1786.25	  359.47
    125.1700	  524.00	  474.87	-1786.25	  359.94
    125.2700	  578.00	  475.35	-1786.25	  360.42
    125.3700	  565.00	  475.85	-1786.25	  360.91
    125.4700	  594.00	  476.34	-1786.25	  361.41
    125.5700	  564.00	  476.85	-1786.25	  361.92
    125.6700	  548.00	  477.37	-1786.25	  362.44
    125.7700	  557.00	  477.90	-1786.25	  362.97
    125.8700	  574.00	  478.43	-1786.25	  363.50
    125.9700	  575.00	  478.98	-1786.25	  364.05
    126.0700	  554.00	  479.53	-1786.25	  364.60
    126.1700	  558.00	  480.10	-1786.25	  365.17
    126.2700	  587.00	  480.67	-1786.25	  365.74
    126.3700	  596.00	  481.26	-1786.25	  366.33
    126.4700	  524.00	  481.85	-1786.25	  366.92
    126.5700	  556.00	  482.45	-1786.25	  367.52
    126.6700	  586.00	  483.07	-1786.25	  368.14
    126.7700	  637.00	  483.69	-1786.25	  368.76
    126.8700	  574.00	  484.32	-1786.25	  369.39
    126.9700	  636.00	  484.97	-1786.25	  370.04
    127.0700	  640.00	  485.62	-1786.25	  370.69
    127.1700	  660.00	  486.29	-1786.25	  371.35
    127.2700	  635.00	  486.96	-1786.25	  372.03
    127.3700	  656.00	  487.64	-1786.25	  372.71
    127.4700	  598.00	  488.34	-1786.25	  373.41
    127.5700	  636.00	  489.05	-1786.25	  374.11
    127.6700	  713.00	  489.76	-1786.25	  374.83
    127.7700	  719.00	  490.49	-1786.25	  375.56
    127.8700	  699.00	  491.23	-1786.25	  376.29
    127.9700	  713.00	  491.97	-1786.25	  377.04
    128.0700	  758.00	  492.73	-1786.25	  377.80
    128.1700	  707.00	  493.50	-1786.25	  378.57
    128.2700	  749.00	  494.29	-1786.25	  379.35
    128.3700	  795.00	  495.08	-1786.25	  380.15
    128.4700	  803.00	  495.88	-1786.25	  380.95
    128.5700	    0.00	  496.70	-1786.25	  381.77
    128.6700	    0.00	  497.52	-1786.25	  382.59
     12.3178	        	        	        	        	       0	(  0  0  2)	  0  1
     24.9074	        	        	        	        	       0	(  0  0  4)	  0  1
     28.3461	        	        	        	        	       0	(  1  0  0)	  0  1
     29.0438	        	        	        	        	       0	(  1  0  1)	  0  1
     31.0513	        	        	        	        	       0	(  1  0  2)	  0  1
     34.1617	        	        	        	        	       0	(  1  0  3)	  0  1
     37.8135	        	        	        	        	       0	(  0  0  6)	  0  1
     38.1414	        	        	        	        	       0	(  1  0  4)	  0  1
     42.7944	        	        	        	        	       0	(  1  0  5)	  0  1
     47.9817	        	        	        	        	       0	(  1  0  6)	  0  1
     50.2912	        	        	        	        	       0	(  1  1  0)	  0  1
     51.2428	        	        	        	        	       0	(  0  0  8)	  0  1
     52.0155	        	        	        	        	       0	(  1  1  2)	  0  1
     53.6157	        	        	        	        	       0	(  1  0  7)	  0  1
     56.9670	        	        	        	        	       0	(  1  1  4)	  0  1
     58.7917	        	        	        	        	       0	(  2  0  0)	  0  1
     59.1836	        	        	        	        	       0	(  2  0  1)	  0  1
     59.6500	        	        	        	        	       0	(  1  0  8)	  0  1
     60.3499	        	        	        	        	       0	(  2  0  2)	  0  1
     62.2646	        	        	        	        	       0	(  2  0  3)	  0  1
     64.6673	        	        	        	        	       0	(  1  1  6)	  0  1
     64.8907	        	        	        	        	       0	(  2  0  4)	  0  1
     65.4807	        	        	        	        	       0	(  0  0 10)	  0  1
     66.0707	        	        	        	        	       0	(  1  0  9)	  0  1
     68.1875	        	        	        	        	       0	(  2  0  5)	  0  1
     72.1180	        	        	        	        	       0	(  2  0  6)	  0  1
     72.8917	        	        	        	        	       0	(  1  0 10)	  0  1
     74.7127	        	        	        	        	       0	(  1  1  8)	  0  1
     76.6558	        	        	        	        	       0	(  2  0  7)	  0  1
     80.1549	        	        	        	        	       0	(  1  0 11)	  0  1
     80.9723	        	        	        	        	       0	(  0  0 12)	  0  1
     81.0439	        	        	        	        	       0	(  2  1  0)	  0  1
     81.3841	        	        	        	        	       0	(  2  1  1)	  0  1
     81.7904	        	        	        	        	       0	(  2  0  8)	  0  1
     82.4029	        	        	        	        	       0	(  2  1  2)	  0  1
     84.0957	        	        	        	        	       0	(  2  1  3)	  0  1
     86.4575	        	        	        	        	       0	(  2  1  4)	  0  1
     86.9944	        	        	        	        	       0	(  1  1 10)	  0  1
     87.5336	        	        	        	        	       0	(  2  0  9)	  0  1
     87.9359	        	        	        	        	       0	(  1  0 12)	  0  1
     89.4862	        	        	        	        	       0	(  2  1  5)	  0  1
     93.1873	        	        	        	        	       0	(  2  1  6)	  0  1
     93.9271	        	        	        	        	       0	(  2  0 10)	  0  1
     94.9417	        	        	        	        	       0	(  3  0  0)	  0  1
     95.2794	        	        	        	        	       0	(  3  0  1)	  0  1
     96.2937	        	        	        	        	       0	(  3  0  2)	  0  1
     96.3574	        	        	        	        	       0	(  1  0 13)	  0  1
     97.5804	        	        	        	        	       0	(  2  1  7)	  0  1
     97.9888	        	        	        	        	       0	(  3  0  3)	  0  1
     98.5282	        	        	        	        	       0	(  0  0 14)	  0  1
    100.3744	        	        	        	        	       0	(  3  0  4)	  0  1
    101.0567	        	        	        	        	       0	(  2  0 11)	  0  1
    101.8801	        	        	        	        	       0	(  1  1 12)	  0  1
    102.7086	        	        	        	        	       0	(  2  1  8)	  0  1
    103.4696	        	        	        	        	       0	(  3  0  5)	  0  1
    105.6208	        	        	        	        	       0	(  1  0 14)	  0  1
    107.3093	        	        	        	        	       0	(  3  0  6)	  0  1
    108.6528	        	        	        	        	       0	(  2  1  9)	  0  1
    109.0779	        	        	        	        	       0	(  2  0 12)	  0  1
    111.9558	        	        	        	        	       0	(  3  0  7)	  0  1
    115.5595	        	        	        	        	       0	(  2  1 10)	  0  1
    116.0797	        	        	        	        	       0	(  1  0 15)	  0  1
    116.6871	        	        	        	        	       0	(  2  2  0)	  0  1
    117.5174	        	        	        	        	       0	(  3  0  8)	  0  1
    118.2046	        	        	        	        	       0	(  2  2  2)	  0  1
    118.2765	        	        	        	        	       0	(  2  0 13)	  0  1
    120.0479	        	        	        	        	       0	(  0  0 16)	  0  1
    120.7523	        	        	        	        	       0	(  1  1 14)	  0  1
    122.8979	        	        	        	        	       0	(  2  2  4)	  0  1
    123.7007	        	        	        	        	       0	(  2  1 11)	  0  1
    124.1891	        	        	        	        	       0	(  3  0  9)	  0  1
    124.7635	        	        	        	        	       0	(  3  1  0)	  0  1
    125.1745	        	        	        	        	       0	(  3  1  1)	  0  1
    126.4203	        	        	        	        	       0	(  3  1  2)	  0  1
    128.4490	        	        	        	        	       0	(  1  0 16)	  0  1
    128.5428	        	        	        	        	       0	(  3  1  3)	  0  1
    129.2294	        	        	        	        	       0	(  2  0 14)	  0  1
    131.3549	        	        	        	        	       0	(  2  2  6)	  0  1
    131.6255	        	        	        	        	       0	(  3  1  4)	  0  1
    132.3481	        	        	        	        	       0	(  3  0 10)	  0  1
    133.6366	        	        	        	        	       0	(  2  1 12)	  0  1
    135.8231	        	        	        	        	       0	(  3  1  5)	  0  1
    141.4360	        	        	        	        	       0	(  3  1  6)	  0  1
    142.8616	        	        	        	        	       0	(  3  0 11)	  0  1
    143.4196	        	        	        	        	       0	(  2  0 15)	  0  1
    144.6810	        	        	        	        	       0	(  1  0 17)	  0  1
    145.6354	        	        	        	        	       0	(  2  2  8)	  0  1
    146.8451	        	        	        	        	       0	(  2  1 13)	  0  1
    149.1430	        	        	        	        	       0	(  3  1  7)	  0  1
    149.7975	        	        	        	        	       0	(  1  1 16)	  0  1
    154.2586	        	        	        	        	       0	(  0  0 18)	  0  1
    158.8587	        	        	        	        	       0	(  3  0 12)	  0  1
    159.0569	        	        	        	        	       0	(  4  0  0)	  0  1
    160.0246	        	        	        	        	       0	(  4  0  1)	  0  1
    161.2445	        	        	        	        	       0	(  3  1  8)	  0  1
    163.2480	        	        	        	        	       0	(  4  0  2)	  0  1
    170.3627	        	        	        	        	       0	(  2  0 16)	  0  1
    170.8166	        	        	        	        	       0	(  4  0  3)	  0  1
    175.3166	        	        	        	        	       0	(  2  1 14)	  0  1
