MSG Master    CELL:    5.87727   5.87727  23.07904   90.0000   90.0000  120.0000   SPGR: P 63/m m c             TEMP:    464.75
  2   1280     2.52000     0.00000    -0.08451     0.00000     0.00000    0
    95    95     0     0     2
       0.00000      10.00000
     125.00000     130.00000
 2Theta	Yobs	Ycal	Yobs-Ycal	Backg	Posr	(hkl)	K
      0.7700	    0.00	  983.85	-2226.00	  845.53
      0.8700	    0.00	  980.49	-2226.00	  842.17
      0.9700	   42.00	  977.16	-2226.00	  838.84
      1.0700	   38.00	  973.84	-2226.00	  835.53
      1.1700	   49.00	  970.55	-2226.00	  832.23
      1.2700	   46.00	  967.28	-2226.00	  828.96
      1.3700	   45.00	  964.03	-2226.00	  825.71
      1.4700	   94.00	  960.79	-2226.00	  822.48
      1.5700	  293.00	  957.58	-2226.00	  819.27
      1.6700	  435.00	  954.39	-2226.00	  816.07
      1.7700	  575.00	  951.22	-2226.00	  812.90
      1.8700	  665.00	  948.07	-2226.00	  809.75
      1.9700	  691.00	  944.94	-2226.00	  806.62
      2.0700	  786.00	  941.83	-2226.00	  803.51
      2.1700	  781.00	  938.74	-2226.00	  800.42
      2.2700	  715.00	  935.67	-2226.00	  797.35
      2.3700	  723.00	  932.61	-2226.00	  794.30
      2.4700	  706.00	  929.58	-2226.00	  791.27
      2.5700	  704.00	  926.57	-2226.00	  788.25
      2.6700	  680.00	  923.58	-2226.00	  785.26
      2.7700	  650.00	  920.60	-2226.00	  782.29
      2.8700	  629.00	  917.65	-2226.00	  779.33
      2.9700	  614.00	  914.71	-2226.00	  776.40
      3.0700	  610.00	  911.80	-2226.00	  773.48
      3.1700	  597.00	  908.90	-2226.00	  770.58
      3.2700	  699.00	  906.02	-2226.00	  767.70
      3.3700	  946.00	  903.16	-2226.00	  764.84
      3.4700	 1073.00	  900.32	-2226.00	  762.00
      3.5700	 1261.00	  897.50	-2226.00	  759.18
      3.6700	 1288.00	  894.69	-2226.00	  756.38
      3.7700	 1394.00	  891.91	-2226.00	  753.59
      3.8700	 1503.00	  889.14	-2226.00	  750.83
      3.9700	 1560.00	  886.39	-2226.00	  748.08
      4.0700	 1584.00	  883.66	-2226.00	  745.35
      4.1700	 1697.00	  880.95	-2226.00	  742.64
      4.2700	 1691.00	  878.26	-2226.00	  739.94
      4.3700	 1608.00	  875.58	-2226.00	  737.27
      4.4700	 1594.00	  872.93	-2226.00	  734.61
      4.5700	 1575.00	  870.29	-2226.00	  731.97
      4.6700	 1447.00	  867.66	-2226.00	  729.35
      4.7700	 1502.00	  865.06	-2226.00	  726.74
      4.8700	 1384.00	  862.47	-2226.00	  724.16
      4.9700	 1300.00	  859.90	-2226.00	  721.59
      5.0700	 1402.00	  857.35	-2226.00	  719.04
      5.1700	 1330.00	  854.82	-2226.00	  716.50
      5.2700	 1270.00	  852.30	-2226.00	  713.98
      5.3700	 1249.00	  849.80	-2226.00	  711.49
      5.4700	 1231.00	  847.32	-2226.00	  709.00
      5.5700	 1228.00	  844.85	-2226.00	  706.54
      5.6700	 1126.00	  842.41	-2226.00	  704.09
      5.7700	 1127.00	  839.97	-2226.00	  701.66
      5.8700	 1071.00	  837.56	-2226.00	  699.24
      5.9700	 1162.00	  835.16	-2226.00	  696.85
      6.0700	 1086.00	  832.78	-2226.00	  694.47
      6.1700	 1082.00	  830.42	-2226.00	  692.10
      6.2700	 1011.00	  828.07	-2226.00	  689.75
      6.3700	 1033.00	  825.74	-2226.00	  687.42
      6.4700	 1000.00	  823.42	-2226.00	  685.11
      6.5700	  970.00	  821.13	-2226.00	  682.81
      6.6700	  960.00	  818.84	-2226.00	  680.53
      6.7700	  903.00	  816.58	-2226.00	  678.26
      6.8700	  949.00	  814.33	-2226.00	  676.01
      6.9700	  969.00	  812.09	-2226.00	  673.78
      7.0700	  901.00	  809.88	-2226.00	  671.56
      7.1700	  916.00	  807.67	-2226.00	  669.36
      7.2700	  888.00	  805.49	-2226.00	  667.17
      7.3700	  852.00	  803.32	-2226.00	  665.00
      7.4700	  816.00	  801.16	-2226.00	  662.85
      7.5700	  904.00	  799.02	-2226.00	  660.71
      7.6700	  838.00	  796.90	-2226.00	  658.58
      7.7700	  860.00	  794.79	-2226.00	  656.47
      7.8700	  854.00	  792.70	-2226.00	  654.38
      7.9700	  832.00	  790.62	-2226.00	  652.30
      8.0700	  818.00	  788.56	-2226.00	  650.24
      8.1700	  831.00	  786.51	-2226.00	  648.20
      8.2700	  825.00	  784.48	-2226.00	  646.16
      8.3700	  806.00	  782.46	-2226.00	  644.15
      8.4700	  841.00	  780.46	-2226.00	  642.14
      8.5700	  770.00	  778.47	-2226.00	  640.16
      8.6700	  718.00	  776.50	-2226.00	  638.19
      8.7700	  828.00	  774.54	-2226.00	  636.23
      8.8700	  790.00	  772.60	-2226.00	  634.29
      8.9700	  732.00	  770.67	-2226.00	  632.36
      9.0700	  810.00	  768.76	-2226.00	  630.44
      9.1700	  769.00	  766.86	-2226.00	  628.54
      9.2700	  818.00	  764.98	-2226.00	  626.66
      9.3700	  787.00	  763.11	-2226.00	  624.79
      9.4700	  763.00	  761.25	-2226.00	  622.93
      9.5700	  768.00	  759.41	-2226.00	  621.09
      9.6700	  734.00	  757.58	-2226.00	  619.26
      9.7700	  784.00	  755.77	-2226.00	  617.45
      9.8700	  761.00	  753.97	-2226.00	  615.65
      9.9700	  779.00	  752.18	-2226.00	  613.86
     10.0700	  709.00	  752.49	-2269.49	  612.09
     10.1700	  753.00	  750.96	-2223.96	  610.33
     10.2700	  786.00	  749.49	-2189.49	  608.59
     10.3700	  732.00	  748.09	-2242.09	  606.86
     10.4700	  731.00	  746.78	-2241.78	  605.14
     10.5700	  769.00	  745.61	-2202.61	  603.44
     10.6700	  715.00	  744.62	-2255.62	  601.75
     10.7700	  762.00	  743.91	-2207.91	  600.07
     10.8700	  733.00	  743.55	-2236.55	  598.40
     10.9700	  710.00	  743.65	-2259.66	  596.75
     11.0700	  772.00	  744.27	-2198.27	  595.12
     11.1700	  735.00	  745.42	-2236.42	  593.49
     11.2700	  784.00	  747.12	-2189.12	  591.88
     11.3700	  759.00	  749.42	-2216.42	  590.28
     11.4700	  769.00	  752.41	-2209.41	  588.70
     11.5700	  721.00	  756.21	-2261.21	  587.12
     11.6700	  754.00	  761.04	-2233.04	  585.56
     11.7700	  801.00	  767.19	-2192.19	  584.02
     11.8700	  794.00	  774.94	-2206.94	  582.48
     11.9700	  841.00	  784.40	-2169.40	  580.96
     12.0700	  829.00	  795.12	-2192.12	  579.45
     12.1700	  872.00	  805.60	-2159.60	  577.96
     12.2700	  861.00	  812.71	-2177.71	  576.47
     12.3700	  832.00	  811.78	-2205.78	  575.00
     12.4700	  798.00	  799.57	-2227.57	  573.54
     12.5700	  760.00	  779.46	-2245.46	  572.09
     12.6700	  729.00	  758.91	-2255.91	  570.66
     12.7700	  730.00	  742.18	-2238.18	  569.23
     12.8700	  706.00	  730.02	-2250.02	  567.82
     12.9700	  698.00	  721.63	-2249.63	  566.42
     13.0700	  676.00	  715.84	-2265.84	  565.03
     13.1700	  664.00	  711.66	-2273.66	  563.66
     13.2700	  662.00	  708.43	-2272.43	  562.29
     13.3700	  680.00	  705.75	-2251.75	  560.94
     13.4700	  707.00	  703.41	-2222.41	  559.60
     13.5700	  674.00	  701.31	-2253.31	  558.27
     13.6700	  707.00	  699.37	-2218.37	  556.96
     13.7700	  659.00	  697.57	-2264.57	  555.65
     13.8700	  712.00	  695.86	-2209.86	  554.35
     13.9700	  741.00	  694.23	-2179.23	  553.07
     14.0700	  716.00	  692.67	-2202.67	  551.80
     14.1700	  692.00	  691.17	-2225.17	  550.54
     14.2700	  724.00	  689.71	-2191.71	  549.29
     14.3700	  695.00	  688.29	-2219.29	  548.05
     14.4700	  717.00	  686.90	-2195.90	  546.82
     14.5700	  682.00	  685.55	-2229.55	  545.61
     14.6700	  675.00	  684.22	-2235.22	  544.40
     14.7700	  675.00	  682.92	-2233.92	  543.21
     14.8700	  673.00	  681.65	-2234.65	  542.02
     14.9700	  639.00	  680.39	-2267.39	  540.85
     15.0700	  646.00	  679.15	-2259.15	  539.69
     15.1700	  686.00	  677.93	-2217.93	  538.53
     15.2700	  689.00	  676.73	-2213.73	  537.39
     15.3700	  635.00	  675.54	-2266.54	  536.26
     15.4700	  677.00	  674.37	-2223.37	  535.14
     15.5700	  660.00	  673.22	-2239.22	  534.03
     15.6700	  675.00	  672.08	-2223.08	  532.93
     15.7700	  669.00	  670.95	-2227.95	  531.84
     15.8700	  688.00	  669.84	-2207.84	  530.76
     15.9700	  661.00	  668.73	-2233.73	  529.69
     16.0700	  626.00	  667.65	-2267.65	  528.63
     16.1700	  692.00	  666.57	-2200.57	  527.59
     16.2700	  679.00	  665.51	-2212.51	  526.55
     16.3700	  700.00	  664.46	-2190.46	  525.52
     16.4700	  672.00	  663.42	-2217.42	  524.50
     16.5700	  678.00	  662.39	-2210.39	  523.49
     16.6700	  683.00	  661.37	-2204.37	  522.49
     16.7700	  681.00	  660.36	-2205.36	  521.50
     16.8700	  651.00	  659.37	-2234.37	  520.52
     16.9700	  650.00	  658.38	-2234.38	  519.55
     17.0700	  619.00	  657.41	-2264.41	  518.59
     17.1700	  706.00	  656.44	-2176.44	  517.64
     17.2700	  679.00	  655.49	-2202.49	  516.69
     17.3700	  654.00	  654.55	-2226.55	  515.76
     17.4700	  627.00	  653.61	-2252.61	  514.84
     17.5700	  630.00	  652.69	-2248.69	  513.92
     17.6700	  650.00	  651.78	-2227.78	  513.02
     17.7700	  646.00	  650.87	-2230.87	  512.12
     17.8700	  666.00	  649.98	-2209.98	  511.24
     17.9700	  651.00	  649.10	-2224.10	  510.36
     18.0700	  660.00	  648.22	-2214.22	  509.49
     18.1700	  642.00	  647.36	-2231.36	  508.63
     18.2700	  596.00	  646.50	-2276.50	  507.78
     18.3700	  674.00	  645.65	-2197.65	  506.94
     18.4700	  627.00	  644.82	-2243.82	  506.10
     18.5700	  665.00	  643.99	-2204.99	  505.28
     18.6700	  661.00	  643.17	-2208.17	  504.46
     18.7700	  656.00	  642.36	-2212.36	  503.66
     18.8700	  661.00	  641.56	-2206.56	  502.86
     18.9700	  622.00	  644.20	-2248.20	  502.07
     19.0700	  649.00	  643.49	-2220.49	  501.28
     19.1700	  611.00	  642.79	-2257.79	  500.51
     19.2700	  657.00	  642.10	-2211.10	  499.75
     19.3700	  676.00	  641.42	-2191.42	  498.99
     19.4700	  634.00	  640.75	-2232.75	  498.24
     19.5700	  663.00	  640.10	-2203.10	  497.50
     19.6700	  637.00	  639.46	-2228.46	  496.77
     19.7700	  671.00	  638.82	-2193.82	  496.05
     19.8700	  620.00	  638.20	-2244.20	  495.33
     19.9700	  640.00	  637.59	-2223.59	  494.62
     20.0700	  640.00	  637.00	-2223.00	  493.92
     20.1700	  673.00	  636.47	-2189.47	  493.23
     20.2700	  618.00	  635.89	-2243.89	  492.55
     20.3700	  683.00	  635.33	-2178.33	  491.87
     20.4700	  628.00	  634.79	-2232.79	  491.20
     20.5700	  631.00	  634.25	-2229.25	  490.54
     20.6700	  638.00	  633.73	-2221.73	  489.89
     20.7700	  614.00	  633.22	-2245.22	  489.24
     20.8700	  642.00	  632.73	-2216.73	  488.60
     20.9700	  613.00	  632.25	-2245.25	  487.97
     21.0700	  596.00	  631.78	-2261.78	  487.35
     21.1700	  645.00	  631.33	-2212.33	  486.73
     21.2700	  653.00	  630.89	-2203.89	  486.13
     21.3700	  574.00	  630.47	-2282.47	  485.53
     21.4700	  660.00	  630.06	-2196.06	  484.93
     21.5700	  683.00	  629.67	-2172.67	  484.35
     21.6700	  651.00	  629.29	-2204.29	  483.77
     21.7700	  667.00	  628.94	-2187.94	  483.19
     21.8700	  656.00	  628.60	-2198.60	  482.63
     21.9700	  610.00	  628.28	-2244.28	  482.07
     22.0700	  640.00	  627.98	-2213.98	  481.52
     22.1700	  628.00	  627.70	-2225.70	  480.98
     22.2700	  636.00	  627.44	-2217.44	  480.44
     22.3700	  625.00	  627.41	-2228.41	  479.91
     22.4700	  626.00	  627.21	-2227.21	  479.39
     22.5700	  590.00	  627.03	-2263.03	  478.87
     22.6700	  630.00	  626.87	-2222.87	  478.36
     22.7700	  621.00	  626.75	-2231.75	  477.86
     22.8700	  588.00	  626.66	-2264.66	  477.36
     22.9700	  645.00	  626.60	-2207.60	  476.87
     23.0700	  657.00	  626.59	-2195.59	  476.38
     23.1700	  649.00	  626.62	-2203.62	  475.91
     23.2700	  646.00	  626.70	-2206.70	  475.44
     23.3700	  688.00	  626.84	-2164.84	  474.97
     23.4700	  656.00	  627.04	-2197.04	  474.51
     23.5700	  631.00	  627.32	-2222.32	  474.06
     23.6700	  649.00	  627.69	-2204.69	  473.62
     23.7700	  647.00	  628.18	-2207.18	  473.18
     23.8700	  622.00	  628.83	-2232.83	  472.75
     23.9700	  597.00	  629.70	-2258.70	  472.32
     24.0700	  627.00	  630.88	-2229.88	  471.90
     24.1700	  635.00	  632.54	-2223.54	  471.48
     24.2700	  627.00	  634.94	-2233.94	  471.07
     24.3700	  647.00	  638.43	-2217.43	  470.67
     24.4700	  653.00	  643.36	-2216.36	  470.27
     24.5700	  619.00	  650.22	-2257.22	  469.88
     24.6700	  710.00	  659.04	-2175.04	  469.50
     24.7700	  653.00	  669.40	-2242.40	  469.12
     24.8700	  728.00	  680.11	-2178.11	  468.74
     24.9700	  675.00	  688.80	-2239.80	  468.38
     25.0700	  736.00	  692.13	-2182.13	  468.01
     25.1700	  696.00	  687.87	-2217.87	  467.66
     25.2700	  710.00	  678.18	-2194.18	  467.31
     25.3700	  676.00	  667.82	-2217.82	  466.96
     25.4700	  687.00	  659.56	-2198.56	  466.62
     25.5700	  692.00	  654.21	-2188.21	  466.29
     25.6700	  604.00	  651.44	-2273.44	  465.96
     25.7700	  669.00	  650.64	-2207.64	  465.63
     25.8700	  639.00	  651.23	-2238.23	  465.31
     25.9700	  649.00	  652.80	-2229.80	  465.00
     26.0700	  606.00	  655.13	-2275.13	  464.69
     26.1700	  658.00	  658.12	-2226.12	  464.39
     26.2700	  678.00	  661.77	-2209.77	  464.09
     26.3700	  680.00	  666.13	-2212.13	  463.80
     26.4700	  717.00	  671.30	-2180.30	  463.51
     26.5700	  695.00	  677.40	-2208.40	  463.23
     26.6700	  659.00	  684.60	-2251.60	  462.95
     26.7700	  727.00	  693.14	-2192.14	  462.68
     26.8700	  671.00	  703.32	-2258.32	  462.41
     26.9700	  716.00	  715.57	-2225.57	  462.15
     27.0700	  715.00	  730.44	-2241.44	  461.89
     27.1700	  709.00	  748.73	-2265.73	  461.64
     27.2700	  727.00	  771.56	-2270.56	  461.39
     27.3700	  712.00	  800.73	-2314.73	  461.15
     27.4700	  768.00	  839.47	-2297.47	  460.91
     27.5700	  835.00	  894.47	-2285.47	  460.67
     27.6700	  867.00	  980.31	-2339.31	  460.44
     27.7700	  924.00	 1126.83	-2428.83	  460.22
     27.8700	 1157.00	 1388.28	-2457.28	  460.00
     27.9700	 1388.00	 1849.11	-2687.11	  459.78
     28.0700	 2056.00	 2613.10	-2783.10	  459.57
     28.1700	 3357.00	 3758.29	-2627.29	  459.36
     28.2700	 5265.00	 5247.48	-2208.48	  459.16
     28.3700	 7617.00	 6805.41	-1414.41	  458.96
     28.4700	 8904.00	 7856.97	-1178.97	  458.77
     28.5700	 8354.00	 7745.73	-1617.73	  458.58
     28.6700	 6596.00	 6511.32	-2141.32	  458.39
     28.7700	 4807.00	 5094.30	-2513.30	  458.21
     28.8700	 3797.00	 4235.13	-2664.13	  458.04
     28.9700	 3952.00	 4072.85	-2346.85	  457.86
     29.0700	 4640.00	 4345.03	-1931.03	  457.69
     29.1700	 5035.00	 4598.62	-1789.62	  457.53
     29.2700	 4561.00	 4395.73	-2060.73	  457.37
     29.3700	 3658.00	 3655.06	-2223.06	  457.21
     29.4700	 2720.00	 2737.33	-2243.33	  457.06
     29.5700	 1833.00	 1969.98	-2362.98	  456.91
     29.6700	 1393.00	 1452.67	-2285.67	  456.77
     29.7700	 1089.00	 1150.31	-2287.31	  456.62
     29.8700	  963.00	  986.10	-2249.10	  456.49
     29.9700	  863.00	  895.05	-2258.05	  456.35
     30.0700	  867.00	  839.14	-2198.14	  456.22
     30.1700	  764.00	  800.74	-2262.74	  456.10
     30.2700	  781.00	  772.50	-2217.50	  455.97
     30.3700	  797.00	  751.37	-2180.37	  455.86
     30.4700	  757.00	  736.07	-2205.07	  455.74
     30.5700	  720.00	  726.45	-2232.45	  455.63
     30.6700	  691.00	  723.24	-2258.24	  455.52
     30.7700	  680.00	  727.76	-2273.76	  455.42
     30.8700	  778.00	  740.87	-2188.87	  455.31
     30.9700	  751.00	  761.42	-2236.42	  455.22
     31.0700	  780.00	  784.66	-2230.66	  455.12
     31.1700	  816.00	  801.44	-2211.44	  455.03
     31.2700	  802.00	  800.10	-2224.10	  454.94
     31.3700	  775.00	  775.95	-2226.95	  454.86
     31.4700	  825.00	  739.61	-2140.61	  454.78
     31.5700	  760.00	  705.02	-2171.02	  454.70
     31.6700	  697.00	  678.62	-2207.62	  454.63
     31.7700	  685.00	  660.94	-2201.94	  454.55
     31.8700	  677.00	  649.95	-2198.95	  454.49
     31.9700	  671.00	  643.16	-2198.16	  454.42
     32.0700	  677.00	  638.73	-2187.73	  454.36
     32.1700	  688.00	  635.58	-2173.58	  454.30
     32.2700	  654.00	  633.22	-2205.22	  454.24
     32.3700	  648.00	  631.41	-2209.41	  454.19
     32.4700	  669.00	  630.05	-2187.05	  454.14
     32.5700	  576.00	  629.08	-2279.08	  454.09
     32.6700	  666.00	  628.50	-2188.50	  454.05
     32.7700	  637.00	  628.34	-2217.34	  454.01
     32.8700	  627.00	  628.56	-2227.56	  453.97
     32.9700	  670.00	  629.25	-2185.25	  453.93
     33.0700	  652.00	  630.49	-2204.49	  453.90
     33.1700	  654.00	  632.43	-2204.43	  453.87
     33.2700	  663.00	  635.31	-2198.31	  453.84
     33.3700	  674.00	  639.61	-2191.61	  453.82
     33.4700	  673.00	  646.24	-2199.24	  453.80
     33.5700	  705.00	  656.98	-2177.98	  453.78
     33.6700	  711.00	  675.02	-2190.02	  453.76
     33.7700	  729.00	  705.39	-2202.39	  453.74
     33.8700	  757.00	  754.58	-2223.58	  453.73
     33.9700	  843.00	  828.24	-2211.24	  453.72
     34.0700	  986.00	  926.40	-2166.40	  453.72
     34.1700	 1073.00	 1037.71	-2190.71	  453.71
     34.2700	 1224.00	 1135.77	-2137.77	  453.71
     34.3700	 1319.00	 1181.69	-2088.69	  453.71
     34.4700	 1298.00	 1145.78	-2073.78	  453.71
     34.5700	 1094.00	 1043.57	-2175.57	  453.72
     34.6700	  920.00	  923.17	-2229.17	  453.72
     34.7700	  865.00	  819.31	-2180.31	  453.73
     34.8700	  795.00	  743.72	-2174.72	  453.75
     34.9700	  714.00	  694.70	-2206.70	  453.76
     35.0700	  677.00	  665.24	-2214.24	  453.78
     35.1700	  690.00	  647.98	-2183.98	  453.79
     35.2700	  681.00	  637.49	-2182.49	  453.82
     35.3700	  639.00	  630.59	-2217.59	  453.84
     35.4700	  618.00	  625.66	-2233.66	  453.86
     35.5700	  641.00	  621.92	-2206.92	  453.89
     35.6700	  628.00	  619.00	-2217.00	  453.92
     35.7700	  608.00	  616.72	-2234.72	  453.95
     35.8700	  657.00	  614.84	-2183.84	  453.98
     35.9700	  606.00	  613.32	-2233.32	  454.02
     36.0700	  653.00	  612.09	-2185.09	  454.05
     36.1700	  595.00	  611.09	-2242.09	  454.09
     36.2700	  578.00	  610.30	-2258.30	  454.13
     36.3700	  625.00	  609.70	-2210.70	  454.17
     36.4700	  623.00	  609.25	-2212.25	  454.22
     36.5700	  581.00	  608.97	-2253.97	  454.26
     36.6700	  601.00	  608.83	-2233.83	  454.31
     36.7700	  663.00	  608.86	-2171.86	  454.36
     36.8700	  631.00	  609.07	-2204.07	  454.41
     36.9700	  541.00	  609.68	-2294.68	  454.46
     37.0700	  611.00	  610.88	-2225.88	  454.52
     37.1700	  619.00	  611.88	-2218.88	  454.57
     37.2700	  574.00	  613.35	-2265.35	  454.63
     37.3700	  625.00	  615.52	-2216.52	  454.69
     37.4700	  598.00	  618.83	-2246.83	  454.75
     37.5700	  657.00	  623.98	-2192.98	  454.81
     37.6700	  638.00	  632.06	-2220.06	  454.88
     37.7700	  694.00	  644.64	-2176.64	  454.94
     37.8700	  661.00	  663.43	-2228.43	  455.01
     37.9700	  732.00	  689.58	-2183.58	  455.08
     38.0700	  684.00	  720.42	-2262.42	  455.15
     38.1700	  757.00	  756.67	-2225.67	  455.22
     38.2700	  783.00	  788.74	-2231.74	  455.29
     38.3700	  817.00	  805.80	-2214.80	  455.36
     38.4700	  761.00	  798.40	-2263.40	  455.44
     38.5700	  686.00	  768.37	-2308.37	  455.52
     38.6700	  734.00	  728.75	-2220.75	  455.59
     38.7700	  662.00	  691.47	-2255.47	  455.67
     38.8700	  697.00	  662.04	-2191.04	  455.75
     38.9700	  643.00	  641.34	-2224.34	  455.83
     39.0700	  601.00	  627.97	-2252.97	  455.92
     39.1700	  621.00	  619.77	-2224.77	  456.00
     39.2700	  642.00	  614.78	-2198.78	  456.09
     39.3700	  573.00	  611.63	-2264.63	  456.17
     39.4700	  603.00	  609.49	-2232.49	  456.26
     39.5700	  622.00	  606.73	-2210.73	  456.35
     39.6700	  612.00	  605.59	-2219.59	  456.44
     39.7700	  651.00	  604.71	-2179.71	  456.53
     39.8700	  582.00	  604.02	-2248.02	  456.62
     39.9700	  634.00	  603.48	-2195.48	  456.71
     40.0700	  595.00	  603.06	-2234.06	  456.80
     40.1700	  672.00	  602.73	-2156.73	  456.90
     40.2700	  640.00	  602.49	-2188.49	  456.99
     40.3700	  621.00	  602.31	-2207.31	  457.09
     40.4700	  639.00	  602.19	-2189.19	  457.18
     40.5700	  575.00	  602.13	-2253.13	  457.28
     40.6700	  594.00	  602.11	-2234.11	  457.38
     40.7700	  645.00	  602.68	-2183.68	  457.48
     40.8700	  614.00	  602.75	-2214.75	  457.58
     40.9700	  619.00	  602.87	-2209.87	  457.68
     41.0700	  569.00	  603.03	-2260.03	  457.78
     41.1700	  538.00	  603.23	-2291.23	  457.88
     41.2700	  613.00	  603.48	-2216.48	  457.99
     41.3700	  589.00	  603.85	-2240.85	  458.09
     41.4700	  590.00	  604.22	-2240.22	  458.20
     41.5700	  618.00	  604.66	-2212.66	  458.30
     41.6700	  565.00	  605.20	-2266.20	  458.41
     41.7700	  613.00	  605.85	-2218.85	  458.51
     41.8700	  594.00	  606.66	-2238.66	  458.62
     41.9700	  587.00	  607.69	-2246.69	  458.73
     42.0700	  611.00	  609.07	-2224.07	  458.84
     42.1700	  578.00	  611.05	-2259.05	  458.94
     42.2700	  573.00	  614.04	-2267.04	  459.05
     42.3700	  586.00	  618.72	-2258.72	  459.16
     42.4700	  585.00	  625.98	-2266.98	  459.27
     42.5700	  624.00	  636.79	-2238.79	  459.38
     42.6700	  629.00	  651.96	-2248.96	  459.49
     42.7700	  607.00	  671.29	-2290.29	  459.61
     42.8700	  694.00	  692.91	-2224.91	  459.72
     42.9700	  710.00	  712.59	-2228.59	  459.83
     43.0700	  700.00	  724.07	-2250.07	  459.94
     43.1700	  663.00	  722.10	-2285.10	  460.06
     43.2700	  727.00	  707.36	-2206.36	  460.17
     43.3700	  682.00	  686.21	-2230.21	  460.28
     43.4700	  695.00	  665.14	-2196.14	  460.40
     43.5700	  632.00	  647.33	-2241.33	  460.51
     43.6700	  631.00	  634.02	-2229.02	  460.63
     43.7700	  647.00	  624.90	-2203.90	  460.74
     43.8700	  630.00	  619.07	-2215.07	  460.86
     43.9700	  634.00	  615.68	-2207.68	  460.97
     44.0700	  589.00	  613.50	-2250.50	  461.09
     44.1700	  584.00	  612.13	-2254.13	  461.20
     44.2700	  615.00	  611.23	-2222.23	  461.32
     44.3700	  612.00	  610.62	-2224.62	  461.43
     44.4700	  656.00	  610.20	-2180.20	  461.55
     44.5700	  652.00	  609.91	-2183.91	  461.67
     44.6700	  616.00	  609.72	-2219.72	  461.78
     44.7700	  625.00	  609.62	-2210.62	  461.90
     44.8700	  599.00	  609.58	-2236.58	  462.02
     44.9700	  578.00	  609.88	-2257.88	  462.13
     45.0700	  606.00	  609.95	-2229.95	  462.25
     45.1700	  629.00	  610.07	-2207.07	  462.37
     45.2700	  631.00	  610.22	-2205.22	  462.48
     45.3700	  616.00	  610.41	-2220.41	  462.60
     45.4700	  620.00	  610.63	-2216.63	  462.72
     45.5700	  681.00	  610.88	-2155.88	  462.83
     45.6700	  638.00	  611.17	-2199.17	  462.95
     45.7700	  628.00	  611.57	-2209.57	  463.07
     45.8700	  614.00	  611.92	-2223.92	  463.18
     45.9700	  655.00	  612.30	-2183.30	  463.30
     46.0700	  613.00	  612.71	-2225.71	  463.42
     46.1700	  592.00	  613.17	-2247.17	  463.53
     46.2700	  627.00	  613.66	-2212.66	  463.65
     46.3700	  624.00	  614.22	-2216.22	  463.76
     46.4700	  654.00	  614.81	-2186.81	  463.88
     46.5700	  629.00	  615.61	-2212.61	  464.00
     46.6700	  623.00	  616.12	-2219.12	  464.11
     46.7700	  620.00	  616.92	-2222.92	  464.23
     46.8700	  641.00	  617.81	-2202.81	  464.34
     46.9700	  560.00	  618.82	-2284.82	  464.46
     47.0700	  621.00	  619.99	-2224.99	  464.57
     47.1700	  657.00	  621.37	-2190.37	  464.68
     47.2700	  600.00	  623.08	-2249.08	  464.80
     47.3700	  617.00	  625.30	-2234.30	  464.91
     47.4700	  620.00	  628.36	-2234.36	  465.03
     47.5700	  651.00	  632.73	-2207.73	  465.14
     47.6700	  642.00	  639.01	-2223.01	  465.25
     47.7700	  641.00	  647.85	-2232.85	  465.36
     47.8700	  623.00	  659.72	-2262.72	  465.48
     47.9700	  638.00	  674.57	-2262.57	  465.59
     48.0700	  684.00	  691.48	-2233.48	  465.70
     48.1700	  641.00	  708.17	-2293.17	  465.81
     48.2700	  705.00	  720.85	-2241.85	  465.92
     48.3700	  717.00	  725.53	-2234.53	  466.03
     48.4700	  696.00	  720.84	-2250.84	  466.14
     48.5700	  693.00	  709.99	-2242.99	  466.25
     48.6700	  657.00	  696.57	-2265.57	  466.36
     48.7700	  637.00	  684.40	-2273.40	  466.47
     48.8700	  577.00	  675.22	-2324.22	  466.57
     48.9700	  647.00	  669.62	-2248.62	  466.68
     49.0700	  675.00	  667.51	-2218.51	  466.79
     49.1700	  636.00	  668.47	-2258.47	  466.89
     49.2700	  680.00	  672.11	-2218.11	  467.00
     49.3700	  636.00	  678.28	-2268.28	  467.10
     49.4700	  653.00	  687.27	-2260.27	  467.21
     49.5700	  677.00	  700.30	-2249.30	  467.31
     49.6700	  705.00	  720.44	-2241.44	  467.42
     49.7700	  765.00	  754.43	-2215.43	  467.52
     49.8700	  841.00	  815.26	-2200.26	  467.62
     49.9700	  918.00	  924.35	-2232.35	  467.72
     50.0700	 1096.00	 1110.34	-2240.34	  467.83
     50.1700	 1474.00	 1401.05	-2153.05	  467.93
     50.2700	 1780.00	 1806.87	-2252.87	  468.03
     50.3700	 2463.00	 2300.26	-2063.26	  468.13
     50.4700	 2920.00	 2799.05	-2105.05	  468.22
     50.5700	 3251.00	 3167.21	-2142.21	  468.32
     50.6700	 3237.00	 3261.52	-2250.52	  468.42
     50.7700	 2874.00	 3035.18	-2387.18	  468.52
     50.8700	 2436.00	 2588.96	-2378.96	  468.61
     50.9700	 2084.00	 2079.43	-2221.43	  468.71
     51.0700	 1490.00	 1622.56	-2358.56	  468.80
     51.1700	 1196.00	 1274.71	-2304.71	  468.90
     51.2700	 1050.00	 1043.34	-2219.34	  468.99
     51.3700	  953.00	  906.59	-2179.59	  469.08
     51.4700	  891.00	  833.07	-2168.07	  469.17
     51.5700	  757.00	  794.90	-2263.90	  469.26
     51.6700	  772.00	  772.68	-2226.68	  469.35
     51.7700	  792.00	  756.10	-2190.10	  469.44
     51.8700	  730.00	  741.43	-2237.43	  469.53
     51.9700	  706.00	  728.54	-2248.54	  469.62
     52.0700	  726.00	  718.07	-2218.07	  469.71
     52.1700	  749.00	  710.18	-2187.18	  469.79
     52.2700	  709.00	  704.41	-2221.41	  469.88
     52.3700	  746.00	  699.85	-2179.85	  469.96
     52.4700	  759.00	  695.71	-2162.71	  470.05
     52.5700	  742.00	  691.94	-2175.94	  470.13
     52.6700	  731.00	  689.15	-2184.15	  470.21
     52.7700	  717.00	  688.16	-2197.16	  470.29
     52.8700	  749.00	  689.80	-2166.80	  470.37
     52.9700	  672.00	  695.13	-2249.13	  470.45
     53.0700	  658.00	  705.64	-2273.64	  470.53
     53.1700	  672.00	  723.51	-2277.51	  470.61
     53.2700	  707.00	  751.62	-2270.62	  470.69
     53.3700	  763.00	  793.23	-2256.23	  470.76
     53.4700	  795.00	  851.16	-2282.16	  470.84
     53.5700	  958.00	  926.52	-2194.52	  470.91
     53.6700	 1039.00	 1017.27	-2204.27	  470.98
     53.7700	 1152.00	 1115.87	-2189.87	  471.06
     53.8700	 1248.00	 1208.02	-2186.02	  471.13
     53.9700	 1300.00	 1272.38	-2198.38	  471.20
     54.0700	 1393.00	 1288.05	-2121.05	  471.27
     54.1700	 1202.00	 1248.89	-2272.89	  471.34
     54.2700	 1157.00	 1169.21	-2238.21	  471.40
     54.3700	 1058.00	 1072.10	-2240.10	  471.47
     54.4700	  990.00	  976.37	-2212.37	  471.54
     54.5700	  881.00	  892.93	-2237.93	  471.60
     54.6700	  838.00	  826.38	-2214.38	  471.66
     54.7700	  726.00	  777.04	-2277.04	  471.73
     54.8700	  714.00	  742.75	-2254.75	  471.79
     54.9700	  727.00	  720.20	-2219.20	  471.85
     55.0700	  734.00	  706.08	-2198.08	  471.91
     55.1700	  697.00	  697.65	-2226.65	  471.97
     55.2700	  687.00	  692.95	-2231.95	  472.03
     55.3700	  644.00	  690.76	-2272.76	  472.08
     55.4700	  654.00	  690.35	-2262.35	  472.14
     55.5700	  670.00	  691.38	-2247.38	  472.19
     55.6700	  738.00	  693.72	-2181.72	  472.25
     55.7700	  701.00	  697.39	-2222.39	  472.30
     55.8700	  699.00	  702.53	-2229.53	  472.35
     55.9700	  685.00	  709.49	-2250.49	  472.40
     56.0700	  719.00	  718.91	-2225.91	  472.45
     56.1700	  715.00	  732.04	-2243.04	  472.50
     56.2700	  754.00	  751.22	-2223.22	  472.54
     56.3700	  770.00	  780.58	-2236.58	  472.59
     56.4700	  838.00	  826.85	-2214.85	  472.63
     56.5700	  855.00	  899.83	-2270.83	  472.68
     56.6700	  986.00	 1011.86	-2251.86	  472.72
     56.7700	 1156.00	 1175.74	-2245.74	  472.76
     56.8700	 1414.00	 1400.48	-2212.48	  472.80
     56.9700	 1732.00	 1685.72	-2179.72	  472.84
     57.0700	 2101.00	 2015.44	-2140.44	  472.88
     57.1700	 2438.00	 2352.52	-2140.52	  472.92
     57.2700	 2672.00	 2635.32	-2189.32	  472.95
     57.3700	 2719.00	 2787.90	-2294.90	  472.99
     57.4700	 2755.00	 2757.06	-2228.06	  473.02
     57.5700	 2514.00	 2554.09	-2266.09	  473.05
     57.6700	 2160.00	 2245.88	-2311.88	  473.09
     57.7700	 1864.00	 1907.34	-2269.34	  473.12
     57.8700	 1463.00	 1592.19	-2355.19	  473.15
     57.9700	 1296.00	 1329.83	-2259.83	  473.17
     58.0700	 1038.00	 1130.49	-2318.49	  473.20
     58.1700	  944.00	  991.07	-2273.07	  473.23
     58.2700	  860.00	  901.68	-2267.68	  473.25
     58.3700	  838.00	  851.03	-2239.03	  473.27
     58.4700	  803.00	  830.01	-2253.01	  473.30
     58.5700	  818.00	  833.20	-2241.20	  473.32
     58.6700	  868.00	  858.64	-2216.64	  473.34
     58.7700	  877.00	  905.86	-2254.86	  473.36
     58.8700	  991.00	  973.82	-2208.82	  473.37
     58.9700	 1105.00	 1058.74	-2179.74	  473.39
     59.0700	 1154.00	 1152.50	-2224.50	  473.41
     59.1700	 1135.00	 1242.44	-2333.44	  473.42
     59.2700	 1268.00	 1315.07	-2273.07	  473.43
     59.3700	 1299.00	 1362.93	-2289.93	  473.44
     59.4700	 1453.00	 1385.63	-2158.63	  473.45
     59.5700	 1425.00	 1383.70	-2184.70	  473.46
     59.6700	 1347.00	 1357.49	-2236.49	  473.47
     59.7700	 1344.00	 1313.41	-2195.41	  473.48
     59.8700	 1283.00	 1265.69	-2208.69	  473.48
     59.9700	 1321.00	 1229.33	-2134.33	  473.49
     60.0700	 1331.00	 1214.58	-2109.58	  473.49
     60.1700	 1299.00	 1226.97	-2153.97	  473.49
     60.2700	 1284.00	 1269.45	-2211.45	  473.49
     60.3700	 1409.00	 1342.32	-2159.32	  473.49
     60.4700	 1492.00	 1439.96	-2173.96	  473.49
     60.5700	 1586.00	 1547.14	-2187.14	  473.49
     60.6700	 1559.00	 1638.27	-2305.27	  473.49
     60.7700	 1666.00	 1681.95	-2241.95	  473.48
     60.8700	 1614.00	 1655.17	-2267.17	  473.47
     60.9700	 1474.00	 1559.65	-2311.65	  473.47
     61.0700	 1379.00	 1420.07	-2267.07	  473.46
     61.1700	 1224.00	 1266.60	-2268.60	  473.45
     61.2700	 1050.00	 1122.77	-2298.77	  473.44
     61.3700	  971.00	 1002.85	-2257.85	  473.42
     61.4700	  960.00	  913.03	-2179.03	  473.41
     61.5700	  930.00	  853.82	-2149.82	  473.39
     61.6700	  849.00	  822.92	-2199.92	  473.38
     61.7700	  807.00	  817.95	-2236.95	  473.36
     61.8700	  868.00	  838.40	-2196.40	  473.34
     61.9700	  888.00	  886.16	-2224.16	  473.32
     62.0700	 1001.00	  964.54	-2189.54	  473.30
     62.1700	 1151.00	 1076.17	-2151.17	  473.28
     62.2700	 1265.00	 1220.10	-2181.10	  473.26
     62.3700	 1443.00	 1388.92	-2171.92	  473.23
     62.4700	 1605.00	 1566.53	-2187.53	  473.20
     62.5700	 1842.00	 1726.66	-2110.66	  473.18
     62.6700	 1806.00	 1835.18	-2255.18	  473.15
     62.7700	 1836.00	 1861.22	-2251.22	  473.12
     62.8700	 1676.00	 1795.84	-2345.84	  473.09
     62.9700	 1556.00	 1659.11	-2329.11	  473.06
     63.0700	 1377.00	 1485.59	-2334.59	  473.02
     63.1700	 1368.00	 1306.77	-2164.77	  472.99
     63.2700	 1135.00	 1144.40	-2235.40	  472.95
     63.3700	  949.00	 1010.36	-2287.36	  472.91
     63.4700	  951.00	  908.31	-2183.31	  472.88
     63.5700	  803.00	  836.20	-2259.20	  472.84
     63.6700	  794.00	  788.71	-2220.71	  472.80
     63.7700	  745.00	  759.70	-2240.70	  472.75
     63.8700	  784.00	  743.86	-2185.86	  472.71
     63.9700	  785.00	  737.47	-2178.48	  472.67
     64.0700	  725.00	  738.62	-2239.62	  472.62
     64.1700	  759.00	  746.68	-2213.68	  472.57
     64.2700	  727.00	  764.10	-2263.10	  472.52
     64.3700	  812.00	  792.96	-2206.96	  472.48
     64.4700	  834.00	  836.77	-2228.77	  472.42
     64.5700	  944.00	  899.23	-2181.23	  472.37
     64.6700	 1004.00	  983.31	-2205.31	  472.32
     64.7700	 1067.00	 1089.90	-2248.90	  472.27
     64.8700	 1230.00	 1216.29	-2212.29	  472.21
     64.9700	 1352.00	 1354.64	-2228.64	  472.15
     65.0700	 1499.00	 1491.08	-2218.08	  472.10
     65.1700	 1590.00	 1606.56	-2242.56	  472.04
     65.2700	 1649.00	 1680.87	-2257.87	  471.98
     65.3700	 1658.00	 1698.26	-2266.26	  471.91
     65.4700	 1576.00	 1654.68	-2304.68	  471.85
     65.5700	 1480.00	 1560.35	-2306.35	  471.79
     65.6700	 1413.00	 1435.79	-2248.79	  471.72
     65.7700	 1240.00	 1301.85	-2287.85	  471.66
     65.8700	 1106.00	 1174.68	-2294.68	  471.59
     65.9700	 1006.00	 1063.35	-2283.35	  471.52
     66.0700	  904.00	  971.57	-2293.57	  471.45
     66.1700	  809.00	  899.14	-2316.14	  471.38
     66.2700	  760.00	  844.05	-2310.05	  471.31
     66.3700	  834.00	  803.42	-2195.42	  471.23
     66.4700	  738.00	  774.18	-2262.18	  471.16
     66.5700	  762.00	  753.52	-2217.52	  471.08
     66.6700	  698.00	  739.19	-2267.19	  471.01
     66.7700	  664.00	  729.57	-2291.57	  470.93
     66.8700	  637.00	  723.63	-2312.63	  470.85
     66.9700	  742.00	  720.77	-2204.77	  470.77
     67.0700	  740.00	  720.71	-2206.71	  470.69
     67.1700	  714.00	  723.60	-2235.60	  470.60
     67.2700	  722.00	  729.76	-2233.76	  470.52
     67.3700	  725.00	  740.51	-2241.51	  470.43
     67.4700	  728.00	  757.62	-2255.62	  470.35
     67.5700	  798.00	  784.42	-2212.42	  470.26
     67.6700	  801.00	  825.52	-2250.52	  470.17
     67.7700	  912.00	  886.93	-2200.93	  470.08
     67.8700	 1010.00	  975.68	-2191.68	  469.99
     67.9700	 1181.00	 1098.59	-2143.59	  469.90
     68.0700	 1265.00	 1260.61	-2221.61	  469.80
     68.1700	 1526.00	 1462.69	-2162.69	  469.71
     68.2700	 1778.00	 1699.41	-2147.41	  469.61
     68.3700	 2000.00	 1957.19	-2183.19	  469.52
     68.4700	 2220.00	 2212.41	-2218.41	  469.42
     68.5700	 2515.00	 2431.23	-2142.23	  469.32
     68.6700	 2517.00	 2573.31	-2282.31	  469.22
     68.7700	 2574.00	 2605.11	-2257.11	  469.12
     68.8700	 2496.00	 2518.09	-2248.09	  469.02
     68.9700	 2283.00	 2334.41	-2277.41	  468.91
     69.0700	 2102.00	 2093.06	-2217.06	  468.81
     69.1700	 1833.00	 1832.42	-2225.42	  468.70
     69.2700	 1632.00	 1581.71	-2175.71	  468.60
     69.3700	 1323.00	 1359.51	-2262.51	  468.49
     69.4700	 1161.00	 1175.45	-2240.45	  468.38
     69.5700	 1037.00	 1031.60	-2220.60	  468.27
     69.6700	  957.00	  924.84	-2193.84	  468.16
     69.7700	  922.00	  849.06	-2153.06	  468.05
     69.8700	  874.00	  797.12	-2149.12	  467.93
     69.9700	  857.00	  762.34	-2131.34	  467.82
     70.0700	  792.00	  739.26	-2173.26	  467.70
     70.1700	  738.00	  723.85	-2211.85	  467.59
     70.2700	  735.00	  713.38	-2204.38	  467.47
     70.3700	  708.00	  706.11	-2224.11	  467.35
     70.4700	  726.00	  701.02	-2201.02	  467.23
     70.5700	  676.00	  697.53	-2247.53	  467.11
     70.6700	  743.00	  695.33	-2178.33	  466.99
     70.7700	  731.00	  694.28	-2189.28	  466.87
     70.8700	  717.00	  694.39	-2203.39	  466.74
     70.9700	  707.00	  695.77	-2214.77	  466.62
     71.0700	  730.00	  698.70	-2194.70	  466.49
     71.1700	  733.00	  703.71	-2196.71	  466.37
     71.2700	  745.00	  711.48	-2192.48	  466.24
     71.3700	  703.00	  723.83	-2246.83	  466.11
     71.4700	  744.00	  742.64	-2224.64	  465.98
     71.5700	  803.00	  770.72	-2193.72	  465.85
     71.6700	  773.00	  811.72	-2264.72	  465.72
     71.7700	  896.00	  869.74	-2199.74	  465.58
     71.8700	  984.00	  948.90	-2190.90	  465.45
     71.9700	 1052.00	 1052.42	-2226.42	  465.32
     72.0700	 1173.00	 1181.53	-2234.53	  465.18
     72.1700	 1378.00	 1334.42	-2182.42	  465.04
     72.2700	 1461.00	 1505.13	-2270.13	  464.91
     72.3700	 1655.00	 1682.58	-2253.58	  464.77
     72.4700	 1958.00	 1850.05	-2118.05	  464.63
     72.5700	 1970.00	 1985.48	-2241.48	  464.49
     72.6700	 2101.00	 2065.18	-2190.18	  464.35
     72.7700	 2001.00	 2071.96	-2296.96	  464.20
     72.8700	 1938.00	 2004.92	-2292.92	  464.06
     72.9700	 1791.00	 1877.45	-2312.45	  463.92
     73.0700	 1723.00	 1713.65	-2216.65	  463.77
     73.1700	 1473.00	 1536.19	-2289.19	  463.63
     73.2700	 1354.00	 1362.78	-2234.78	  463.48
     73.3700	 1233.00	 1205.41	-2198.41	  463.33
     73.4700	 1104.00	 1070.87	-2192.87	  463.18
     73.5700	  910.00	  961.61	-2277.61	  463.03
     73.6700	  859.00	  876.81	-2243.81	  462.88
     73.7700	  833.00	  813.53	-2206.53	  462.73
     73.8700	  827.00	  767.88	-2166.88	  462.58
     73.9700	  756.00	  735.78	-2205.78	  462.43
     74.0700	  740.00	  713.61	-2199.61	  462.27
     74.1700	  736.00	  697.93	-2187.93	  462.12
     74.2700	  723.00	  687.70	-2190.70	  461.96
     74.3700	  742.00	  680.93	-2164.93	  461.81
     74.4700	  667.00	  676.73	-2235.73	  461.65
     74.5700	  688.00	  674.51	-2212.51	  461.49
     74.6700	  650.00	  673.91	-2249.91	  461.33
     74.7700	  675.00	  674.64	-2225.64	  461.17
     74.8700	  707.00	  676.43	-2195.43	  461.01
     74.9700	  665.00	  678.87	-2239.87	  460.85
     75.0700	  695.00	  681.66	-2212.66	  460.69
     75.1700	  709.00	  684.22	-2201.22	  460.53
     75.2700	  711.00	  685.96	-2200.96	  460.36
     75.3700	  737.00	  686.41	-2175.41	  460.20
     75.4700	  742.00	  685.39	-2169.39	  460.03
     75.5700	  749.00	  683.19	-2160.19	  459.87
     75.6700	  809.00	  680.45	-2097.45	  459.70
     75.7700	  721.00	  677.99	-2182.99	  459.53
     75.8700	  775.00	  676.65	-2127.65	  459.37
     75.9700	  691.00	  677.50	-2212.50	  459.20
     76.0700	  701.00	  681.47	-2206.47	  459.03
     76.1700	  695.00	  689.61	-2220.61	  458.86
     76.2700	  726.00	  703.03	-2203.03	  458.69
     76.3700	  753.00	  722.75	-2195.75	  458.51
     76.4700	  792.00	  749.58	-2183.58	  458.34
     76.5700	  788.00	  783.91	-2221.91	  458.17
     76.6700	  795.00	  825.50	-2256.50	  458.00
     76.7700	  894.00	  873.21	-2205.21	  457.82
     76.8700	  843.00	  924.83	-2307.83	  457.65
     76.9700	  993.00	  976.92	-2209.92	  457.47
     77.0700	  982.00	 1024.71	-2268.71	  457.29
     77.1700	  987.00	 1062.34	-2301.34	  457.12
     77.2700	 1062.00	 1083.87	-2247.87	  456.94
     77.3700	 1066.00	 1085.16	-2245.16	  456.76
     77.4700	 1051.00	 1065.85	-2240.85	  456.58
     77.5700	 1015.00	 1029.55	-2240.55	  456.40
     77.6700	  922.00	  982.02	-2286.02	  456.22
     77.7700	  970.00	  929.20	-2185.20	  456.04
     77.8700	  894.00	  875.84	-2207.84	  455.86
     77.9700	  811.00	  825.93	-2240.93	  455.68
     78.0700	  779.00	  781.60	-2228.60	  455.50
     78.1700	  710.00	  744.07	-2260.07	  455.31
     78.2700	  747.00	  713.60	-2192.60	  455.13
     78.3700	  743.00	  689.82	-2172.82	  454.95
     78.4700	  722.00	  671.87	-2175.87	  454.76
     78.5700	  660.00	  658.74	-2224.74	  454.58
     78.6700	  651.00	  649.35	-2224.35	  454.39
     78.7700	  639.00	  642.74	-2229.74	  454.20
     78.8700	  628.00	  638.15	-2236.15	  454.02
     78.9700	  654.00	  634.98	-2206.98	  453.83
     79.0700	  609.00	  632.79	-2249.79	  453.64
     79.1700	  674.00	  631.27	-2183.27	  453.45
     79.2700	  655.00	  630.33	-2201.33	  453.27
     79.3700	  647.00	  629.82	-2208.82	  453.08
     79.4700	  630.00	  629.71	-2225.71	  452.89
     79.5700	  640.00	  629.97	-2215.97	  452.70
     79.6700	  603.00	  630.64	-2253.64	  452.51
     79.7700	  607.00	  631.78	-2250.78	  452.32
     79.8700	  613.00	  633.48	-2246.48	  452.12
     79.9700	  579.00	  635.91	-2282.91	  451.93
     80.0700	  628.00	  639.30	-2237.30	  451.74
     80.1700	  660.00	  644.03	-2210.03	  451.55
     80.2700	  653.00	  650.69	-2223.69	  451.35
     80.3700	  637.00	  660.09	-2249.09	  451.16
     80.4700	  680.00	  673.38	-2219.38	  450.97
     80.5700	  734.00	  691.78	-2183.78	  450.77
     80.6700	  759.00	  717.61	-2184.61	  450.58
     80.7700	  783.00	  752.59	-2195.59	  450.38
     80.8700	  866.00	  798.66	-2158.66	  450.19
     80.9700	  911.00	  857.41	-2172.41	  449.99
     81.0700	 1016.00	  929.66	-2139.66	  449.80
     81.1700	 1089.00	 1015.01	-2152.01	  449.60
     81.2700	 1229.00	 1111.38	-2108.38	  449.40
     81.3700	 1277.00	 1214.65	-2163.65	  449.21
     81.4700	 1329.00	 1318.56	-2215.56	  449.01
     81.5700	 1449.00	 1414.97	-2191.97	  448.81
     81.6700	 1519.00	 1494.88	-2201.88	  448.61
     81.7700	 1573.00	 1550.34	-2203.34	  448.42
     81.8700	 1556.00	 1576.38	-2246.38	  448.22
     81.9700	 1587.00	 1571.83	-2210.83	  448.02
     82.0700	 1491.00	 1538.83	-2273.83	  447.82
     82.1700	 1409.00	 1481.98	-2298.98	  447.62
     82.2700	 1429.00	 1407.75	-2204.75	  447.42
     82.3700	 1331.00	 1323.42	-2218.42	  447.22
     82.4700	 1208.00	 1235.65	-2253.65	  447.02
     82.5700	 1137.00	 1149.76	-2238.76	  446.82
     82.6700	  992.00	 1069.54	-2303.54	  446.62
     82.7700	  998.00	  997.45	-2225.45	  446.42
     82.8700	  898.00	  934.65	-2262.65	  446.22
     82.9700	  873.00	  881.16	-2234.17	  446.02
     83.0700	  842.00	  836.11	-2220.11	  445.82
     83.1700	  776.00	  798.24	-2248.24	  445.62
     83.2700	  699.00	  766.35	-2293.35	  445.42
     83.3700	  753.00	  739.57	-2212.57	  445.22
     83.4700	  673.00	  717.36	-2270.36	  445.02
     83.5700	  665.00	  699.36	-2260.36	  444.81
     83.6700	  654.00	  685.33	-2257.33	  444.61
     83.7700	  702.00	  675.13	-2199.13	  444.41
     83.8700	  683.00	  668.58	-2211.58	  444.21
     83.9700	  640.00	  665.46	-2251.46	  444.01
     84.0700	  607.00	  665.49	-2284.49	  443.81
     84.1700	  644.00	  668.22	-2250.22	  443.60
     84.2700	  680.00	  673.07	-2219.07	  443.40
     84.3700	  685.00	  679.17	-2220.17	  443.20
     84.4700	  667.00	  685.96	-2244.96	  443.00
     84.5700	  674.00	  692.29	-2244.29	  442.80
     84.6700	  710.00	  697.11	-2213.11	  442.59
     84.7700	  669.00	  699.39	-2256.39	  442.39
     84.8700	  733.00	  698.67	-2191.67	  442.19
     84.9700	  706.00	  694.74	-2214.74	  441.99
     85.0700	  669.00	  688.05	-2245.05	  441.78
     85.1700	  641.00	  679.38	-2264.38	  441.58
     85.2700	  682.00	  669.63	-2213.63	  441.38
     85.3700	  628.00	  659.62	-2257.62	  441.18
     85.4700	  663.00	  650.07	-2213.07	  440.98
     85.5700	  674.00	  641.52	-2193.52	  440.78
     85.6700	  613.00	  634.36	-2247.36	  440.57
     85.7700	  582.00	  628.85	-2272.85	  440.37
     85.8700	  610.00	  625.15	-2241.15	  440.17
     85.9700	  605.00	  623.31	-2244.31	  439.97
     86.0700	  631.00	  623.37	-2218.37	  439.77
     86.1700	  646.00	  625.30	-2205.30	  439.57
     86.2700	  617.00	  629.08	-2238.08	  439.37
     86.3700	  630.00	  634.63	-2230.63	  439.17
     86.4700	  608.00	  641.85	-2259.85	  438.96
     86.5700	  682.00	  650.58	-2194.58	  438.76
     86.6700	  669.00	  660.54	-2217.54	  438.56
     86.7700	  685.00	  671.41	-2212.41	  438.36
     86.8700	  695.00	  682.74	-2213.74	  438.16
     86.9700	  700.00	  693.99	-2219.99	  437.96
     87.0700	  631.00	  704.56	-2299.56	  437.76
     87.1700	  722.00	  713.91	-2217.91	  437.56
     87.2700	  700.00	  721.69	-2247.69	  437.37
     87.3700	  679.00	  727.95	-2274.95	  437.17
     87.4700	  642.00	  733.06	-2317.06	  436.97
     87.5700	  692.00	  737.58	-2271.58	  436.77
     87.6700	  712.00	  742.05	-2256.05	  436.57
     87.7700	  707.00	  746.82	-2265.82	  436.37
     87.8700	  736.00	  751.96	-2241.96	  436.18
     87.9700	  757.00	  757.21	-2226.21	  435.98
     88.0700	  779.00	  762.00	-2209.00	  435.78
     88.1700	  743.00	  765.50	-2248.50	  435.59
     88.2700	  687.00	  766.78	-2305.78	  435.39
     88.3700	  780.00	  765.02	-2211.02	  435.19
     88.4700	  763.00	  759.82	-2222.82	  435.00
     88.5700	  764.00	  751.33	-2213.33	  434.80
     88.6700	  710.00	  740.20	-2256.20	  434.61
     88.7700	  751.00	  727.32	-2202.32	  434.41
     88.8700	  701.00	  713.62	-2238.62	  434.22
     88.9700	  703.00	  700.01	-2223.01	  434.03
     89.0700	  704.00	  686.79	-2208.79	  433.83
     89.1700	  658.00	  675.46	-2243.46	  433.64
     89.2700	  674.00	  666.02	-2218.02	  433.45
     89.3700	  692.00	  658.75	-2192.75	  433.26
     89.4700	  664.00	  653.72	-2215.72	  433.07
     89.5700	  676.00	  650.86	-2200.86	  432.87
     89.6700	  697.00	  649.92	-2178.92	  432.68
     89.7700	  659.00	  650.55	-2217.55	  432.49
     89.8700	  705.00	  652.27	-2173.27	  432.30
     89.9700	  721.00	  654.53	-2159.53	  432.11
     90.0700	  735.00	  656.73	-2147.73	  431.93
     90.1700	  696.00	  658.28	-2188.28	  431.74
     90.2700	  687.00	  658.64	-2197.64	  431.55
     90.3700	  701.00	  657.51	-2182.51	  431.36
     90.4700	  649.00	  654.79	-2231.79	  431.18
     90.5700	  689.00	  650.68	-2187.68	  430.99
     90.6700	  681.00	  645.52	-2190.52	  430.81
     90.7700	  636.00	  639.71	-2229.71	  430.62
     90.8700	  700.00	  633.65	-2159.65	  430.44
     90.9700	  650.00	  627.67	-2203.67	  430.25
     91.0700	  623.00	  622.06	-2225.06	  430.07
     91.1700	  613.00	  616.99	-2229.99	  429.89
     91.2700	  602.00	  612.61	-2236.61	  429.71
     91.3700	  585.00	  608.96	-2249.96	  429.53
     91.4700	  625.00	  606.05	-2207.05	  429.34
     91.5700	  625.00	  603.87	-2204.87	  429.16
     91.6700	  578.00	  602.34	-2250.34	  428.99
     91.7700	  586.00	  601.43	-2241.43	  428.81
     91.8700	  637.00	  601.06	-2190.06	  428.63
     91.9700	  599.00	  601.23	-2228.23	  428.45
     92.0700	  648.00	  601.91	-2179.91	  428.28
     92.1700	  559.00	  603.16	-2270.16	  428.10
     92.2700	  650.00	  605.03	-2181.03	  427.93
     92.3700	  585.00	  607.66	-2248.66	  427.75
     92.4700	  627.00	  611.19	-2210.19	  427.58
     92.5700	  619.00	  615.82	-2222.82	  427.41
     92.6700	  634.00	  621.77	-2213.77	  427.23
     92.7700	  682.00	  629.27	-2173.27	  427.06
     92.8700	  662.00	  638.55	-2202.55	  426.89
     92.9700	  664.00	  649.80	-2211.80	  426.72
     93.0700	  656.00	  663.14	-2233.14	  426.55
     93.1700	  638.00	  678.62	-2266.62	  426.39
     93.2700	  697.00	  696.19	-2225.19	  426.22
     93.3700	  695.00	  715.64	-2246.64	  426.05
     93.4700	  675.00	  736.64	-2287.64	  425.89
     93.5700	  727.00	  758.71	-2257.71	  425.72
     93.6700	  775.00	  781.19	-2232.19	  425.56
     93.7700	  703.00	  803.29	-2326.29	  425.39
     93.8700	  764.00	  824.20	-2286.20	  425.23
     93.9700	  790.00	  843.15	-2279.15	  425.07
     94.0700	  813.00	  859.70	-2272.70	  424.91
     94.1700	  889.00	  873.84	-2210.84	  424.75
     94.2700	  825.00	  886.06	-2287.06	  424.59
     94.3700	  884.00	  897.14	-2239.14	  424.44
     94.4700	  883.00	  907.95	-2250.95	  424.28
     94.5700	  916.00	  919.23	-2229.23	  424.12
     94.6700	  948.00	  931.17	-2209.17	  423.97
     94.7700	  899.00	  944.67	-2271.67	  423.82
     94.8700	  945.00	  959.52	-2240.52	  423.66
     94.9700	  955.00	  975.74	-2246.74	  423.51
     95.0700	 1032.00	  993.28	-2187.28	  423.36
     95.1700	 1000.00	 1011.92	-2237.92	  423.21
     95.2700	 1015.00	 1031.17	-2242.17	  423.06
     95.3700	 1063.00	 1050.11	-2213.11	  422.91
     95.4700	 1038.00	 1067.36	-2255.36	  422.77
     95.5700	 1111.00	 1081.17	-2196.17	  422.62
     95.6700	 1061.00	 1089.59	-2254.59	  422.48
     95.7700	 1118.00	 1090.84	-2198.84	  422.33
     95.8700	 1025.00	 1083.70	-2284.70	  422.19
     95.9700	 1052.00	 1067.92	-2241.92	  422.05
     96.0700	 1066.00	 1044.31	-2204.31	  421.91
     96.1700	 1023.00	 1014.55	-2217.55	  421.77
     96.2700	  945.00	  980.84	-2261.84	  421.63
     96.3700	  904.00	  945.55	-2267.55	  421.50
     96.4700	  905.00	  911.03	-2232.03	  421.36
     96.5700	  873.00	  879.43	-2232.43	  421.23
     96.6700	  841.00	  852.69	-2237.69	  421.09
     96.7700	  830.00	  832.46	-2228.46	  420.96
     96.8700	  843.00	  820.09	-2203.09	  420.83
     96.9700	  820.00	  816.68	-2222.68	  420.70
     97.0700	  801.00	  823.03	-2248.03	  420.57
     97.1700	  826.00	  839.73	-2239.73	  420.44
     97.2700	  925.00	  867.15	-2168.15	  420.32
     97.3700	  877.00	  905.35	-2254.35	  420.19
     97.4700	  992.00	  954.12	-2188.12	  420.07
     97.5700	 1055.00	 1012.88	-2183.88	  419.95
     97.6700	 1112.00	 1080.64	-2194.64	  419.83
     97.7700	 1190.00	 1155.92	-2191.92	  419.70
     97.8700	 1199.00	 1236.63	-2263.63	  419.59
     97.9700	 1353.00	 1320.10	-2193.10	  419.47
     98.0700	 1353.00	 1402.98	-2275.98	  419.35
     98.1700	 1480.00	 1481.37	-2227.37	  419.24
     98.2700	 1479.00	 1550.86	-2297.86	  419.12
     98.3700	 1543.00	 1606.87	-2289.87	  419.01
     98.4700	 1634.00	 1645.24	-2237.24	  418.90
     98.5700	 1619.00	 1662.95	-2269.95	  418.79
     98.6700	 1534.00	 1658.82	-2350.82	  418.68
     98.7700	 1554.00	 1633.74	-2305.74	  418.58
     98.8700	 1557.00	 1590.46	-2259.46	  418.47
     98.9700	 1475.00	 1532.87	-2283.87	  418.37
     99.0700	 1458.00	 1465.40	-2233.40	  418.26
     99.1700	 1414.00	 1392.44	-2204.44	  418.16
     99.2700	 1309.00	 1318.05	-2235.05	  418.06
     99.3700	 1228.00	 1245.85	-2243.85	  417.96
     99.4700	 1216.00	 1178.91	-2188.91	  417.86
     99.5700	 1166.00	 1119.79	-2179.79	  417.77
     99.6700	 1043.00	 1070.51	-2253.51	  417.67
     99.7700	 1096.00	 1032.71	-2162.71	  417.58
     99.8700	  997.00	 1007.60	-2236.60	  417.49
     99.9700	 1027.00	  996.08	-2195.08	  417.40
    100.0700	 1035.00	  998.70	-2189.70	  417.31
    100.1700	 1114.00	 1015.72	-2127.72	  417.22
    100.2700	 1086.00	 1047.11	-2187.11	  417.14
    100.3700	 1123.00	 1092.50	-2195.50	  417.05
    100.4700	 1187.00	 1151.20	-2190.20	  416.97
    100.5700	 1275.00	 1222.16	-2173.16	  416.89
    100.6700	 1372.00	 1303.90	-2157.90	  416.81
    100.7700	 1436.00	 1394.52	-2184.52	  416.73
    100.8700	 1474.00	 1491.57	-2243.57	  416.66
    100.9700	 1584.00	 1592.12	-2234.12	  416.58
    101.0700	 1715.00	 1692.67	-2203.67	  416.51
    101.1700	 1763.00	 1789.74	-2252.74	  416.44
    101.2700	 1891.00	 1879.51	-2214.51	  416.37
    101.3700	 1895.00	 1958.69	-2289.69	  416.30
    101.4700	 2045.00	 2024.74	-2205.74	  416.23
    101.5700	 2056.00	 2076.13	-2246.13	  416.17
    101.6700	 2040.00	 2112.10	-2298.10	  416.10
    101.7700	 2174.00	 2132.33	-2184.33	  416.04
    101.8700	 2225.00	 2136.64	-2137.64	  415.98
    101.9700	 2169.00	 2124.95	-2181.95	  415.92
    102.0700	 2114.00	 2097.46	-2209.46	  415.86
    102.1700	 2108.00	 2055.04	-2173.04	  415.81
    102.2700	 2019.00	 1999.53	-2206.53	  415.75
    102.3700	 1987.00	 1933.84	-2172.84	  415.70
    102.4700	 1963.00	 1861.59	-2124.59	  415.65
    102.5700	 1866.00	 1786.62	-2146.62	  415.60
    102.6700	 1785.00	 1712.48	-2153.48	  415.55
    102.7700	 1650.00	 1642.12	-2218.12	  415.51
    102.8700	 1624.00	 1577.74	-2179.74	  415.46
    102.9700	 1588.00	 1520.66	-2158.66	  415.42
    103.0700	 1488.00	 1471.43	-2209.43	  415.38
    103.1700	 1447.00	 1429.85	-2208.85	  415.34
    103.2700	 1383.00	 1395.09	-2238.09	  415.31
    103.3700	 1338.00	 1365.78	-2253.78	  415.27
    103.4700	 1392.00	 1340.08	-2174.08	  415.24
    103.5700	 1247.00	 1315.89	-2294.89	  415.21
    103.6700	 1285.00	 1291.12	-2232.12	  415.18
    103.7700	 1265.00	 1263.97	-2224.97	  415.15
    103.8700	 1232.00	 1233.22	-2227.22	  415.12
    103.9700	 1169.00	 1198.35	-2255.35	  415.10
    104.0700	 1152.00	 1159.55	-2233.55	  415.08
    104.1700	 1121.00	 1117.55	-2222.55	  415.06
    104.2700	 1044.00	 1073.37	-2255.37	  415.04
    104.3700	  997.00	 1028.17	-2257.17	  415.02
    104.4700	  989.00	  983.06	-2220.06	  415.00
    104.5700	  935.00	  939.04	-2230.04	  414.99
    104.6700	  888.00	  896.97	-2234.97	  414.98
    104.7700	  910.00	  857.55	-2173.55	  414.97
    104.8700	  864.00	  821.29	-2183.29	  414.96
    104.9700	  825.00	  788.55	-2189.55	  414.96
    105.0700	  781.00	  759.49	-2204.49	  414.95
    105.1700	  807.00	  734.07	-2153.07	  414.95
    105.2700	  733.00	  712.35	-2205.35	  414.95
    105.3700	  739.00	  694.04	-2181.04	  414.95
    105.4700	  690.00	  678.86	-2214.86	  414.96
    105.5700	  692.00	  666.51	-2200.51	  414.96
    105.6700	  696.00	  656.65	-2186.65	  414.97
    105.7700	  659.00	  648.96	-2215.96	  414.98
    105.8700	  641.00	  643.13	-2228.13	  414.99
    105.9700	  656.00	  638.85	-2208.85	  415.00
    106.0700	  644.00	  636.02	-2218.02	  415.02
    106.1700	  624.00	  634.41	-2236.41	  415.04
    106.2700	  664.00	  633.90	-2195.90	  415.06
    106.3700	  595.00	  634.43	-2265.43	  415.08
    106.4700	  603.00	  635.95	-2258.95	  415.10
    106.5700	  614.00	  638.47	-2250.47	  415.13
    106.6700	  623.00	  642.01	-2245.01	  415.15
    106.7700	  630.00	  646.63	-2242.63	  415.18
    106.8700	  658.00	  652.38	-2220.38	  415.21
    106.9700	  673.00	  659.32	-2212.32	  415.25
    107.0700	  678.00	  667.50	-2215.50	  415.28
    107.1700	  655.00	  676.95	-2247.95	  415.32
    107.2700	  653.00	  687.65	-2260.65	  415.36
    107.3700	  665.00	  699.54	-2260.54	  415.40
    107.4700	  675.00	  712.52	-2263.52	  415.45
    107.5700	  733.00	  726.39	-2219.39	  415.49
    107.6700	  696.00	  740.90	-2270.90	  415.54
    107.7700	  732.00	  755.75	-2249.75	  415.59
    107.8700	  750.00	  770.56	-2246.56	  415.64
    107.9700	  781.00	  784.88	-2229.88	  415.70
    108.0700	  769.00	  798.25	-2255.25	  415.75
    108.1700	  805.00	  810.18	-2231.18	  415.81
    108.2700	  758.00	  820.21	-2288.21	  415.87
    108.3700	  784.00	  827.97	-2269.97	  415.94
    108.4700	  772.00	  833.25	-2287.25	  416.00
    108.5700	  795.00	  836.02	-2267.02	  416.07
    108.6700	  834.00	  836.52	-2228.52	  416.14
    108.7700	  819.00	  835.11	-2242.11	  416.21
    108.8700	  761.00	  832.30	-2297.30	  416.28
    108.9700	  809.00	  828.64	-2245.64	  416.36
    109.0700	  791.00	  824.65	-2259.65	  416.44
    109.1700	  776.00	  820.81	-2270.81	  416.52
    109.2700	  797.00	  817.49	-2246.49	  416.60
    109.3700	  729.00	  814.96	-2311.96	  416.68
    109.4700	  729.00	  813.37	-2310.37	  416.77
    109.5700	  694.00	  812.76	-2344.76	  416.86
    109.6700	  747.00	  813.01	-2292.01	  416.95
    109.7700	  764.00	  813.93	-2275.93	  417.04
    109.8700	  781.00	  815.20	-2260.20	  417.14
    109.9700	  749.00	  816.42	-2293.42	  417.24
    110.0700	  795.00	  817.13	-2248.13	  417.34
    110.1700	  841.00	  816.89	-2201.89	  417.44
    110.2700	  793.00	  815.26	-2248.26	  417.54
    110.3700	  768.00	  811.98	-2269.98	  417.65
    110.4700	  820.00	  806.89	-2212.89	  417.76
    110.5700	  775.00	  800.00	-2251.00	  417.87
    110.6700	  783.00	  791.46	-2234.46	  417.99
    110.7700	  807.00	  781.56	-2200.56	  418.10
    110.8700	  770.00	  770.61	-2226.61	  418.22
    110.9700	  791.00	  758.99	-2193.99	  418.34
    111.0700	  694.00	  747.02	-2279.02	  418.46
    111.1700	  714.00	  735.04	-2247.04	  418.59
    111.2700	  681.00	  723.32	-2268.32	  418.72
    111.3700	  716.00	  712.12	-2222.12	  418.85
    111.4700	  722.00	  701.62	-2205.62	  418.98
    111.5700	  694.00	  691.99	-2223.99	  419.11
    111.6700	  694.00	  683.33	-2215.33	  419.25
    111.7700	  686.00	  675.73	-2215.73	  419.39
    111.8700	  683.00	  669.20	-2212.20	  419.53
    111.9700	  630.00	  663.76	-2259.76	  419.67
    112.0700	  668.00	  659.36	-2217.36	  419.82
    112.1700	  650.00	  655.97	-2231.97	  419.97
    112.2700	  665.00	  653.50	-2214.50	  420.12
    112.3700	  642.00	  651.86	-2235.86	  420.27
    112.4700	  647.00	  650.97	-2229.97	  420.43
    112.5700	  662.00	  650.71	-2214.71	  420.59
    112.6700	  625.00	  651.01	-2252.01	  420.75
    112.7700	  654.00	  651.75	-2223.75	  420.91
    112.8700	  598.00	  652.86	-2280.86	  421.07
    112.9700	  647.00	  654.25	-2233.25	  421.24
    113.0700	  648.00	  655.85	-2233.85	  421.41
    113.1700	  645.00	  657.61	-2238.61	  421.58
    113.2700	  622.00	  659.51	-2263.51	  421.76
    113.3700	  663.00	  661.51	-2224.51	  421.94
    113.4700	  623.00	  663.62	-2266.62	  422.12
    113.5700	  654.00	  665.87	-2237.87	  422.30
    113.6700	  653.00	  668.28	-2241.28	  422.48
    113.7700	  634.00	  670.91	-2262.91	  422.67
    113.8700	  619.00	  673.82	-2280.82	  422.86
    113.9700	  602.00	  677.05	-2301.05	  423.05
    114.0700	  659.00	  680.74	-2247.74	  423.25
    114.1700	  705.00	  684.99	-2205.99	  423.44
    114.2700	  683.00	  689.93	-2232.93	  423.64
    114.3700	  694.00	  695.74	-2227.74	  423.84
    114.4700	  709.00	  702.65	-2219.65	  424.05
    114.5700	  674.00	  710.97	-2262.97	  424.25
    114.6700	  713.00	  721.07	-2234.07	  424.46
    114.7700	  743.00	  733.43	-2216.43	  424.67
    114.8700	  727.00	  748.66	-2247.66	  424.89
    114.9700	  795.00	  767.53	-2198.53	  425.11
    115.0700	  841.00	  790.99	-2175.99	  425.32
    115.1700	  883.00	  820.20	-2163.20	  425.55
    115.2700	  894.00	  856.54	-2188.54	  425.77
    115.3700	  904.00	  901.65	-2223.65	  426.00
    115.4700	 1054.00	  957.41	-2129.41	  426.23
    115.5700	 1139.00	 1025.98	-2112.98	  426.46
    115.6700	 1157.00	 1109.77	-2178.77	  426.69
    115.7700	 1269.00	 1211.33	-2168.33	  426.93
    115.8700	 1534.00	 1333.39	-2025.39	  427.17
    115.9700	 1741.00	 1478.66	-1963.66	  427.41
    116.0700	 1854.00	 1649.84	-2021.84	  427.65
    116.1700	 2070.00	 1849.42	-2005.42	  427.90
    116.2700	 2397.00	 2079.43	-1908.43	  428.15
    116.3700	 2559.00	 2341.39	-2008.39	  428.40
    116.4700	 2764.00	 2636.00	-2098.00	  428.65
    116.5700	 3143.00	 2963.11	-2046.11	  428.91
    116.6700	 3603.00	 3321.49	-1944.49	  429.17
    116.7700	 3938.00	 3708.54	-1996.54	  429.43
    116.8700	 4288.00	 4120.37	-2058.37	  429.70
    116.9700	 4651.00	 4551.59	-2126.59	  429.96
    117.0700	 4919.00	 4995.54	-2302.54	  430.23
    117.1700	 5424.00	 5444.15	-2246.15	  430.50
    117.2700	 5789.00	 5888.02	-2325.02	  430.78
    117.3700	 6119.00	 6316.63	-2423.63	  431.06
    117.4700	 6513.00	 6718.60	-2431.60	  431.34
    117.5700	 6816.00	 7082.12	-2492.12	  431.62
    117.6700	 7193.00	 7395.40	-2428.40	  431.90
    117.7700	 7339.00	 7647.18	-2534.18	  432.19
    117.8700	 7624.00	 7827.75	-2429.75	  432.48
    117.9700	 7549.00	 7929.78	-2606.78	  432.77
    118.0700	 7611.00	 7949.14	-2564.14	  433.07
    118.1700	 7556.00	 7885.38	-2555.38	  433.36
    118.2700	 7533.00	 7741.77	-2434.77	  433.66
    118.3700	 7200.00	 7524.91	-2550.91	  433.97
    118.4700	 6908.00	 7244.04	-2562.04	  434.27
    118.5700	 6794.00	 6909.93	-2341.93	  434.58
    118.6700	 6350.00	 6534.19	-2410.19	  434.89
    118.7700	 5977.00	 6128.61	-2377.61	  435.20
    118.8700	 5566.00	 5704.52	-2364.52	  435.52
    118.9700	 5219.00	 5272.52	-2279.52	  435.84
    119.0700	 4897.00	 4841.98	-2170.98	  436.16
    119.1700	 4625.00	 4421.02	-2022.02	  436.48
    119.2700	 4377.00	 4016.53	-1865.53	  436.81
    119.3700	 3953.00	 3633.91	-1906.91	  437.14
    119.4700	 3683.00	 3277.19	-1820.19	  437.47
    119.5700	 3299.00	 2948.98	-1875.98	  437.80
    119.6700	 3021.00	 2650.66	-1855.66	  438.14
    119.7700	 2669.00	 2382.64	-1939.64	  438.48
    119.8700	 2326.00	 2144.40	-2044.40	  438.82
    119.9700	 2211.00	 1934.71	-1949.71	  439.16
    120.0700	 2020.00	 1751.78	-1957.78	  439.51
    120.1700	 1776.00	 1593.47	-2043.47	  439.86
    120.2700	 1681.00	 1457.45	-2002.45	  440.21
    120.3700	 1492.00	 1341.31	-2075.31	  440.56
    120.4700	 1469.00	 1242.64	-1999.64	  440.92
    120.5700	 1294.00	 1159.14	-2091.14	  441.28
    120.6700	 1235.00	 1088.62	-2079.62	  441.64
    120.7700	 1150.00	 1029.18	-2105.18	  442.01
    120.8700	 1083.00	  979.06	-2122.06	  442.38
    120.9700	 1012.00	  936.79	-2150.79	  442.75
    121.0700	 1025.00	  901.08	-2102.08	  443.12
    121.1700	  886.00	  870.86	-2210.86	  443.49
    121.2700	  866.00	  845.24	-2205.24	  443.87
    121.3700	  914.00	  823.50	-2135.50	  444.25
    121.4700	  861.00	  805.06	-2170.06	  444.63
    121.5700	  833.00	  789.44	-2182.44	  445.02
    121.6700	  751.00	  776.28	-2251.28	  445.41
    121.7700	  779.00	  765.27	-2212.27	  445.80
    121.8700	  796.00	  756.17	-2186.17	  446.19
    121.9700	  723.00	  748.79	-2251.79	  446.59
    122.0700	  754.00	  742.99	-2214.99	  446.99
    122.1700	  685.00	  738.63	-2279.63	  447.39
    122.2700	  687.00	  735.60	-2274.60	  447.79
    122.3700	  718.00	  733.83	-2241.83	  448.20
    122.4700	  722.00	  733.24	-2237.24	  448.61
    122.5700	  718.00	  733.77	-2241.77	  449.02
    122.6700	  679.00	  735.34	-2282.34	  449.43
    122.7700	  697.00	  737.92	-2266.92	  449.85
    122.8700	  774.00	  741.43	-2193.43	  450.27
    122.9700	  727.00	  745.82	-2244.82	  450.69
    123.0700	  724.00	  751.01	-2253.01	  451.12
    123.1700	  742.00	  756.95	-2240.95	  451.54
    123.2700	  713.00	  763.54	-2276.54	  451.97
    123.3700	  694.00	  770.71	-2302.71	  452.40
    123.4700	  754.00	  778.34	-2250.34	  452.84
    123.5700	  722.00	  786.33	-2290.33	  453.28
    123.6700	  764.00	  794.58	-2256.58	  453.72
    123.7700	  770.00	  802.95	-2258.95	  454.16
    123.8700	  744.00	  811.31	-2293.31	  454.60
    123.9700	  773.00	  819.54	-2272.54	  455.05
    124.0700	  738.00	  827.50	-2315.50	  455.50
    124.1700	  814.00	  835.08	-2247.08	  455.95
    124.2700	  801.00	  842.15	-2267.15	  456.41
    124.3700	  766.00	  848.65	-2308.65	  456.87
    124.4700	  803.00	  854.51	-2277.51	  457.33
    124.5700	  778.00	  859.70	-2307.70	  457.79
    124.6700	  807.00	  864.21	-2283.21	  458.26
    124.7700	  794.00	  868.13	-2300.13	  458.72
    124.8700	  835.00	  871.47	-2262.47	  459.19
    124.9700	  805.00	  597.98	-2018.98	  459.67
    125.0700	  845.00	  598.46	-2226.00	  460.14
    125.1700	  869.00	  598.94	-2226.00	  460.62
    125.2700	  842.00	  599.42	-2226.00	  461.10
    125.3700	  799.00	  599.90	-2226.00	  461.59
    125.4700	  844.00	  600.39	-2226.00	  462.07
    125.5700	  845.00	  600.88	-2226.00	  462.56
    125.6700	  860.00	  601.37	-2226.00	  463.05
    125.7700	  813.00	  601.86	-2226.00	  463.54
    125.8700	  839.00	  602.36	-2226.00	  464.04
    125.9700	  871.00	  602.85	-2226.00	  464.54
    126.0700	  765.00	  603.36	-2226.00	  465.04
    126.1700	  852.00	  603.86	-2226.00	  465.54
    126.2700	  819.00	  604.36	-2226.00	  466.05
    126.3700	  809.00	  604.87	-2226.00	  466.56
    126.4700	  808.00	  605.38	-2226.00	  467.07
    126.5700	  835.00	  605.90	-2226.00	  467.58
    126.6700	  801.00	  606.41	-2226.00	  468.10
    126.7700	  770.00	  606.93	-2226.00	  468.61
    126.8700	  821.00	  607.45	-2226.00	  469.14
    126.9700	  743.00	  607.97	-2226.00	  469.66
    127.0700	  742.00	  608.50	-2226.00	  470.18
    127.1700	  745.00	  609.03	-2226.00	  470.71
    127.2700	  705.00	  609.56	-2226.00	  471.24
    127.3700	  711.00	  610.09	-2226.00	  471.78
    127.4700	  710.00	  610.63	-2226.00	  472.31
    127.5700	  709.00	  611.17	-2226.00	  472.85
    127.6700	  677.00	  611.71	-2226.00	  473.39
    127.7700	  617.00	  612.25	-2226.00	  473.93
    127.8700	  646.00	  612.79	-2226.00	  474.48
    127.9700	  675.00	  613.34	-2226.00	  475.02
    128.0700	  695.00	  613.89	-2226.00	  475.57
    128.1700	  638.00	  614.44	-2226.00	  476.13
    128.2700	  685.00	  615.00	-2226.00	  476.68
    128.3700	  689.00	  615.56	-2226.00	  477.24
    128.4700	  679.00	  616.12	-2226.00	  477.80
    128.5700	    0.00	  616.68	-2226.00	  478.36
    128.6700	    0.00	  617.24	-2226.00	  478.92
     12.4528	        	        	        	        	       0	(  0  0  2)	  0  1
     12.4528	        	        	        	        	    -556	(  0  0  2)	  0  1
     25.1434	        	        	        	        	       0	(  0  0  4)	  0  1
     25.1434	        	        	        	        	    -556	(  0  0  4)	  0  1
     28.5807	        	        	        	        	       0	(  1  0  0)	  0  1
     28.5807	        	        	        	        	    -556	(  1  0  0)	  0  1
     29.2849	        	        	        	        	       0	(  1  0  1)	  0  1
     29.2849	        	        	        	        	    -556	(  1  0  1)	  0  1
     31.3109	        	        	        	        	       0	(  1  0  2)	  0  1
     31.3109	        	        	        	        	    -556	(  1  0  2)	  0  1
     34.4499	        	        	        	        	       0	(  1  0  3)	  0  1
     34.4499	        	        	        	        	    -556	(  1  0  3)	  0  1
     38.1584	        	        	        	        	       0	(  0  0  6)	  0  1
     38.1584	        	        	        	        	    -556	(  0  0  6)	  0  1
     38.4662	        	        	        	        	       0	(  1  0  4)	  0  1
     38.4662	        	        	        	        	    -556	(  1  0  4)	  0  1
     43.1626	        	        	        	        	       0	(  1  0  5)	  0  1
     43.1626	        	        	        	        	    -556	(  1  0  5)	  0  1
     48.3993	        	        	        	        	       0	(  1  0  6)	  0  1
     48.3993	        	        	        	        	    -556	(  1  0  6)	  0  1
     50.6946	        	        	        	        	       0	(  1  1  0)	  0  1
     50.6946	        	        	        	        	    -556	(  1  1  0)	  0  1
     51.7104	        	        	        	        	       0	(  0  0  8)	  0  1
     51.7104	        	        	        	        	    -556	(  0  0  8)	  0  1
     52.4367	        	        	        	        	       0	(  1  1  2)	  0  1
     52.4367	        	        	        	        	    -556	(  1  1  2)	  0  1
     54.0889	        	        	        	        	       0	(  1  0  7)	  0  1
     54.0889	        	        	        	        	    -556	(  1  0  7)	  0  1
     57.4405	        	        	        	        	       0	(  1  1  4)	  0  1
     57.4405	        	        	        	        	    -556	(  1  1  4)	  0  1
     59.2683	        	        	        	        	       0	(  2  0  0)	  0  1
     59.2683	        	        	        	        	    -556	(  2  0  0)	  0  1
     59.6645	        	        	        	        	       0	(  2  0  1)	  0  1
     59.6645	        	        	        	        	    -556	(  2  0  1)	  0  1
     60.1854	        	        	        	        	       0	(  1  0  8)	  0  1
     60.1854	        	        	        	        	    -556	(  1  0  8)	  0  1
     60.8437	        	        	        	        	       0	(  2  0  2)	  0  1
     60.8437	        	        	        	        	    -556	(  2  0  2)	  0  1
     62.7799	        	        	        	        	       0	(  2  0  3)	  0  1
     62.7799	        	        	        	        	    -556	(  2  0  3)	  0  1
     65.2257	        	        	        	        	       0	(  1  1  6)	  0  1
     65.2257	        	        	        	        	    -556	(  1  1  6)	  0  1
     65.4359	        	        	        	        	       0	(  2  0  4)	  0  1
     65.4359	        	        	        	        	    -556	(  2  0  4)	  0  1
     66.0950	        	        	        	        	       0	(  0  0 10)	  0  1
     66.0950	        	        	        	        	    -556	(  0  0 10)	  0  1
     66.6761	        	        	        	        	       0	(  1  0  9)	  0  1
     66.6761	        	        	        	        	    -556	(  1  0  9)	  0  1
     68.7712	        	        	        	        	       0	(  2  0  5)	  0  1
     68.7712	        	        	        	        	    -556	(  2  0  5)	  0  1
     72.7494	        	        	        	        	       0	(  2  0  6)	  0  1
     72.7494	        	        	        	        	    -556	(  2  0  6)	  0  1
     73.5771	        	        	        	        	       0	(  1  0 10)	  0  1
     73.5771	        	        	        	        	    -556	(  1  0 10)	  0  1
     75.3912	        	        	        	        	       0	(  1  1  8)	  0  1
     75.3912	        	        	        	        	    -556	(  1  1  8)	  0  1
     77.3446	        	        	        	        	       0	(  2  0  7)	  0  1
     77.3446	        	        	        	        	    -556	(  2  0  7)	  0  1
     80.9336	        	        	        	        	       0	(  1  0 11)	  0  1
     80.9336	        	        	        	        	    -556	(  1  0 11)	  0  1
     81.7483	        	        	        	        	       0	(  2  1  0)	  0  1
     81.7483	        	        	        	        	    -556	(  2  1  0)	  0  1
     81.7765	        	        	        	        	       0	(  0  0 12)	  0  1
     81.7765	        	        	        	        	    -556	(  0  0 12)	  0  1
     82.0932	        	        	        	        	       0	(  2  1  1)	  0  1
     82.0932	        	        	        	        	    -556	(  2  1  1)	  0  1
     82.5483	        	        	        	        	       0	(  2  0  8)	  0  1
     82.5483	        	        	        	        	    -556	(  2  0  8)	  0  1
     83.1263	        	        	        	        	       0	(  2  1  2)	  0  1
     83.1263	        	        	        	        	    -556	(  2  1  2)	  0  1
     84.8433	        	        	        	        	       0	(  2  1  3)	  0  1
     84.8433	        	        	        	        	    -556	(  2  1  3)	  0  1
     87.2399	        	        	        	        	       0	(  2  1  4)	  0  1
     87.2399	        	        	        	        	    -556	(  2  1  4)	  0  1
     87.8419	        	        	        	        	       0	(  1  1 10)	  0  1
     87.8419	        	        	        	        	    -556	(  1  1 10)	  0  1
     88.3749	        	        	        	        	       0	(  2  0  9)	  0  1
     88.3749	        	        	        	        	    -556	(  2  0  9)	  0  1
     88.8261	        	        	        	        	       0	(  1  0 12)	  0  1
     88.8261	        	        	        	        	    -556	(  1  0 12)	  0  1
     90.3149	        	        	        	        	       0	(  2  1  5)	  0  1
     90.3149	        	        	        	        	    -556	(  2  1  5)	  0  1
     94.0756	        	        	        	        	       0	(  2  1  6)	  0  1
     94.0756	        	        	        	        	    -556	(  2  1  6)	  0  1
     94.8708	        	        	        	        	       0	(  2  0 10)	  0  1
     94.8708	        	        	        	        	    -556	(  2  0 10)	  0  1
     95.8311	        	        	        	        	       0	(  3  0  0)	  0  1
     95.8311	        	        	        	        	    -556	(  3  0  0)	  0  1
     96.1746	        	        	        	        	       0	(  3  0  1)	  0  1
     96.1746	        	        	        	        	    -556	(  3  0  1)	  0  1
     97.2065	        	        	        	        	       0	(  3  0  2)	  0  1
     97.2065	        	        	        	        	    -556	(  3  0  2)	  0  1
     97.3862	        	        	        	        	       0	(  1  0 13)	  0  1
     97.3862	        	        	        	        	    -556	(  1  0 13)	  0  1
     98.5448	        	        	        	        	       0	(  2  1  7)	  0  1
     98.5448	        	        	        	        	    -556	(  2  1  7)	  0  1
     98.9318	        	        	        	        	       0	(  3  0  3)	  0  1
     98.9318	        	        	        	        	    -556	(  3  0  3)	  0  1
     99.6109	        	        	        	        	       0	(  0  0 14)	  0  1
     99.6109	        	        	        	        	    -556	(  0  0 14)	  0  1
    101.3615	        	        	        	        	       0	(  3  0  4)	  0  1
    101.3615	        	        	        	        	    -556	(  3  0  4)	  0  1
    102.1296	        	        	        	        	       0	(  2  0 11)	  0  1
    102.1296	        	        	        	        	    -556	(  2  0 11)	  0  1
    102.9838	        	        	        	        	       0	(  1  1 12)	  0  1
    102.9838	        	        	        	        	    -556	(  1  1 12)	  0  1
    103.7702	        	        	        	        	       0	(  2  1  8)	  0  1
    103.7702	        	        	        	        	    -556	(  2  1  8)	  0  1
    104.5171	        	        	        	        	       0	(  3  0  5)	  0  1
    104.5171	        	        	        	        	    -556	(  3  0  5)	  0  1
    106.8318	        	        	        	        	       0	(  1  0 14)	  0  1
    106.8318	        	        	        	        	    -556	(  1  0 14)	  0  1
    108.4376	        	        	        	        	       0	(  3  0  6)	  0  1
    108.4376	        	        	        	        	    -556	(  3  0  6)	  0  1
    109.8412	        	        	        	        	       0	(  2  1  9)	  0  1
    109.8412	        	        	        	        	    -556	(  2  1  9)	  0  1
    110.3218	        	        	        	        	       0	(  2  0 12)	  0  1
    110.3218	        	        	        	        	    -556	(  2  0 12)	  0  1
    113.1918	        	        	        	        	       0	(  3  0  7)	  0  1
    113.1918	        	        	        	        	    -556	(  3  0  7)	  0  1
    116.9204	        	        	        	        	       0	(  2  1 10)	  0  1
    116.9204	        	        	        	        	    -556	(  2  1 10)	  0  1
    117.5514	        	        	        	        	       0	(  1  0 15)	  0  1
    117.5514	        	        	        	        	    -556	(  1  0 15)	  0  1
    117.9986	        	        	        	        	       0	(  2  2  0)	  0  1
    117.9986	        	        	        	        	    -556	(  2  2  0)	  0  1
    118.9008	        	        	        	        	       0	(  3  0  8)	  0  1
    118.9008	        	        	        	        	    -556	(  3  0  8)	  0  1
    119.5587	        	        	        	        	       0	(  2  2  2)	  0  1
    119.5587	        	        	        	        	    -556	(  2  2  2)	  0  1
    119.7639	        	        	        	        	       0	(  2  0 13)	  0  1
    119.7639	        	        	        	        	    -556	(  2  0 13)	  0  1
    121.6570	        	        	        	        	       0	(  0  0 16)	  0  1
    121.6570	        	        	        	        	    -556	(  0  0 16)	  0  1
    122.3340	        	        	        	        	       0	(  1  1 14)	  0  1
    122.3340	        	        	        	        	    -556	(  1  1 14)	  0  1
    124.3964	        	        	        	        	       0	(  2  2  4)	  0  1
    124.3964	        	        	        	        	    -556	(  2  2  4)	  0  1
    125.3135	        	        	        	        	       0	(  2  1 11)	  0  1
    125.3135	        	        	        	        	    -556	(  2  1 11)	  0  1
    125.7840	        	        	        	        	       0	(  3  0  9)	  0  1
    125.7840	        	        	        	        	    -556	(  3  0  9)	  0  1
    126.3081	        	        	        	        	       0	(  3  1  0)	  0  1
    126.3081	        	        	        	        	    -556	(  3  1  0)	  0  1
    126.7335	        	        	        	        	       0	(  3  1  1)	  0  1
    126.7335	        	        	        	        	    -556	(  3  1  1)	  0  1
    128.0245	        	        	        	        	       0	(  3  1  2)	  0  1
    128.0245	        	        	        	        	    -556	(  3  1  2)	  0  1
    130.2287	        	        	        	        	       0	(  3  1  3)	  0  1
    130.2287	        	        	        	        	    -556	(  3  1  3)	  0  1
    130.3555	        	        	        	        	       0	(  1  0 16)	  0  1
    130.3555	        	        	        	        	    -556	(  1  0 16)	  0  1
    131.1134	        	        	        	        	       0	(  2  0 14)	  0  1
    131.1134	        	        	        	        	    -556	(  2  0 14)	  0  1
    133.1792	        	        	        	        	       0	(  2  2  6)	  0  1
    133.1792	        	        	        	        	    -556	(  2  2  6)	  0  1
    133.4424	        	        	        	        	       0	(  3  1  4)	  0  1
    133.4424	        	        	        	        	    -556	(  3  1  4)	  0  1
    134.2777	        	        	        	        	       0	(  3  0 10)	  0  1
    134.2777	        	        	        	        	    -556	(  3  0 10)	  0  1
    135.6705	        	        	        	        	       0	(  2  1 12)	  0  1
    135.6705	        	        	        	        	    -556	(  2  1 12)	  0  1
    137.8472	        	        	        	        	       0	(  3  1  5)	  0  1
    137.8472	        	        	        	        	    -556	(  3  1  5)	  0  1
    143.8087	        	        	        	        	       0	(  3  1  6)	  0  1
    143.8087	        	        	        	        	    -556	(  3  1  6)	  0  1
    145.4411	        	        	        	        	       0	(  3  0 11)	  0  1
    145.4411	        	        	        	        	    -556	(  3  0 11)	  0  1
    146.1727	        	        	        	        	       0	(  2  0 15)	  0  1
    146.1727	        	        	        	        	    -556	(  2  0 15)	  0  1
    147.6274	        	        	        	        	       0	(  1  0 17)	  0  1
    147.6274	        	        	        	        	    -556	(  1  0 17)	  0  1
    148.3753	        	        	        	        	       0	(  2  2  8)	  0  1
    148.3753	        	        	        	        	    -556	(  2  2  8)	  0  1
    149.8433	        	        	        	        	       0	(  2  1 13)	  0  1
    149.8433	        	        	        	        	    -556	(  2  1 13)	  0  1
    152.2184	        	        	        	        	       0	(  3  1  7)	  0  1
    152.2184	        	        	        	        	    -556	(  3  1  7)	  0  1
    153.2671	        	        	        	        	       0	(  1  1 16)	  0  1
    153.2671	        	        	        	        	    -556	(  1  1 16)	  0  1
    158.5783	        	        	        	        	       0	(  0  0 18)	  0  1
    158.5783	        	        	        	        	    -556	(  0  0 18)	  0  1
    163.8617	        	        	        	        	       0	(  4  0  0)	  0  1
    163.8617	        	        	        	        	    -556	(  4  0  0)	  0  1
    163.9627	        	        	        	        	       0	(  3  0 12)	  0  1
    163.9627	        	        	        	        	    -556	(  3  0 12)	  0  1
    165.1470	        	        	        	        	       0	(  4  0  1)	  0  1
    165.1470	        	        	        	        	    -556	(  4  0  1)	  0  1
    167.0348	        	        	        	        	       0	(  3  1  8)	  0  1
    167.0348	        	        	        	        	    -556	(  3  1  8)	  0  1
