MSG Master    CELL:    5.91983   5.91983  23.27843   90.0000   90.0000  120.0000   SPGR: P 63/m m c             TEMP:   1074.85
  1   1280     2.52000     0.00000    -0.12105     0.00000     0.00000    0
    99     0     2
       0.00000      10.00000
     125.00000     130.00000
 2Theta	Yobs	Ycal	Yobs-Ycal	Backg	Posr	(hkl)	K
      0.7700	    0.00	  548.06	-1743.00	  428.50
      0.8700	    0.00	  548.72	-1743.00	  429.16
      0.9700	   35.00	  549.36	-1743.00	  429.80
      1.0700	   42.00	  550.00	-1743.00	  430.44
      1.1700	   45.00	  550.62	-1743.00	  431.06
      1.2700	   39.00	  551.24	-1743.00	  431.68
      1.3700	   42.00	  551.84	-1743.00	  432.28
      1.4700	   96.00	  552.43	-1743.00	  432.88
      1.5700	  307.00	  553.02	-1743.00	  433.46
      1.6700	  462.00	  553.59	-1743.00	  434.04
      1.7700	  582.00	  554.16	-1743.00	  434.60
      1.8700	  661.00	  554.71	-1743.00	  435.15
      1.9700	  737.00	  555.26	-1743.00	  435.70
      2.0700	  754.00	  555.79	-1743.00	  436.24
      2.1700	  811.00	  556.32	-1743.00	  436.76
      2.2700	  763.00	  556.84	-1743.00	  437.28
      2.3700	  727.00	  557.34	-1743.00	  437.78
      2.4700	  743.00	  557.84	-1743.00	  438.28
      2.5700	  711.00	  558.33	-1743.00	  438.77
      2.6700	  644.00	  558.81	-1743.00	  439.25
      2.7700	  653.00	  559.28	-1743.00	  439.72
      2.8700	  631.00	  559.74	-1743.00	  440.18
      2.9700	  601.00	  560.19	-1743.00	  440.63
      3.0700	  594.00	  560.63	-1743.00	  441.07
      3.1700	  649.00	  561.07	-1743.00	  441.51
      3.2700	  588.00	  561.49	-1743.00	  441.93
      3.3700	  677.00	  561.91	-1743.00	  442.35
      3.4700	  737.00	  562.31	-1743.00	  442.76
      3.5700	  840.00	  562.71	-1743.00	  443.16
      3.6700	  853.00	  563.10	-1743.00	  443.55
      3.7700	  921.00	  563.49	-1743.00	  443.93
      3.8700	 1028.00	  563.86	-1743.00	  444.30
      3.9700	 1047.00	  564.22	-1743.00	  444.67
      4.0700	 1099.00	  564.58	-1743.00	  445.02
      4.1700	 1113.00	  564.93	-1743.00	  445.37
      4.2700	 1096.00	  565.27	-1743.00	  445.71
      4.3700	 1090.00	  565.60	-1743.00	  446.04
      4.4700	 1107.00	  565.92	-1743.00	  446.37
      4.5700	 1065.00	  566.24	-1743.00	  446.68
      4.6700	 1048.00	  566.55	-1743.00	  446.99
      4.7700	  971.00	  566.85	-1743.00	  447.29
      4.8700	  985.00	  567.14	-1743.00	  447.58
      4.9700	  946.00	  567.42	-1743.00	  447.87
      5.0700	  990.00	  567.70	-1743.00	  448.14
      5.1700	  972.00	  567.97	-1743.00	  448.41
      5.2700	  914.00	  568.23	-1743.00	  448.67
      5.3700	  839.00	  568.48	-1743.00	  448.93
      5.4700	  910.00	  568.73	-1743.00	  449.17
      5.5700	  911.00	  568.97	-1743.00	  449.41
      5.6700	  816.00	  569.20	-1743.00	  449.64
      5.7700	  820.00	  569.43	-1743.00	  449.87
      5.8700	  826.00	  569.64	-1743.00	  450.09
      5.9700	  823.00	  569.85	-1743.00	  450.30
      6.0700	  815.00	  570.06	-1743.00	  450.50
      6.1700	  818.00	  570.25	-1743.00	  450.69
      6.2700	  764.00	  570.44	-1743.00	  450.88
      6.3700	  766.00	  570.62	-1743.00	  451.07
      6.4700	  743.00	  570.80	-1743.00	  451.24
      6.5700	  773.00	  570.97	-1743.00	  451.41
      6.6700	  732.00	  571.13	-1743.00	  451.57
      6.7700	  723.00	  571.28	-1743.00	  451.73
      6.8700	  730.00	  571.43	-1743.00	  451.87
      6.9700	  675.00	  571.57	-1743.00	  452.02
      7.0700	  668.00	  571.71	-1743.00	  452.15
      7.1700	  666.00	  571.84	-1743.00	  452.28
      7.2700	  690.00	  571.96	-1743.00	  452.40
      7.3700	  720.00	  572.08	-1743.00	  452.52
      7.4700	  642.00	  572.18	-1743.00	  452.63
      7.5700	  646.00	  572.29	-1743.00	  452.73
      7.6700	  688.00	  572.38	-1743.00	  452.83
      7.7700	  640.00	  572.48	-1743.00	  452.92
      7.8700	  603.00	  572.56	-1743.00	  453.00
      7.9700	  674.00	  572.64	-1743.00	  453.08
      8.0700	  644.00	  572.71	-1743.00	  453.15
      8.1700	  660.00	  572.78	-1743.00	  453.22
      8.2700	  649.00	  572.84	-1743.00	  453.28
      8.3700	  628.00	  572.90	-1743.00	  453.34
      8.4700	  621.00	  572.95	-1743.00	  453.39
      8.5700	  627.00	  572.99	-1743.00	  453.43
      8.6700	  584.00	  573.03	-1743.00	  453.47
      8.7700	  608.00	  573.06	-1743.00	  453.50
      8.8700	  684.00	  573.09	-1743.00	  453.53
      8.9700	  625.00	  573.11	-1743.00	  453.55
      9.0700	  581.00	  573.12	-1743.00	  453.57
      9.1700	  613.00	  573.13	-1743.00	  453.58
      9.2700	  633.00	  573.14	-1743.00	  453.58
      9.3700	  613.00	  573.14	-1743.00	  453.58
      9.4700	  655.00	  573.13	-1743.00	  453.58
      9.5700	  602.00	  573.12	-1743.00	  453.57
      9.6700	  616.00	  573.11	-1743.00	  453.55
      9.7700	  658.00	  573.09	-1743.00	  453.53
      9.8700	  652.00	  573.06	-1743.00	  453.50
      9.9700	  602.00	  573.03	-1743.00	  453.47
     10.0700	  576.00	  574.03	-1741.03	  453.44
     10.1700	  592.00	  574.10	-1725.10	  453.40
     10.2700	  581.00	  574.20	-1736.20	  453.35
     10.3700	  596.00	  574.33	-1721.33	  453.30
     10.4700	  604.00	  574.54	-1713.54	  453.25
     10.5700	  612.00	  574.88	-1705.88	  453.19
     10.6700	  608.00	  575.44	-1710.44	  453.12
     10.7700	  578.00	  576.35	-1741.35	  453.05
     10.8700	  544.00	  577.68	-1776.68	  452.98
     10.9700	  626.00	  579.42	-1696.42	  452.90
     11.0700	  577.00	  581.56	-1747.56	  452.82
     11.1700	  650.00	  584.08	-1677.08	  452.73
     11.2700	  604.00	  587.03	-1726.03	  452.64
     11.3700	  577.00	  590.50	-1756.50	  452.55
     11.4700	  576.00	  594.62	-1761.62	  452.45
     11.5700	  575.00	  599.63	-1767.63	  452.34
     11.6700	  592.00	  605.90	-1756.90	  452.23
     11.7700	  624.00	  614.06	-1733.06	  452.12
     11.8700	  651.00	  624.93	-1716.93	  452.00
     11.9700	  668.00	  638.83	-1713.83	  451.88
     12.0700	  628.00	  653.84	-1768.84	  451.76
     12.1700	  662.00	  664.02	-1745.02	  451.63
     12.2700	  673.00	  660.41	-1730.41	  451.50
     12.3700	  640.00	  640.23	-1743.23	  451.36
     12.4700	  651.00	  615.05	-1707.05	  451.22
     12.5700	  626.00	  595.72	-1712.72	  451.08
     12.6700	  609.00	  584.34	-1718.34	  450.93
     12.7700	  578.00	  578.66	-1743.66	  450.78
     12.8700	  550.00	  575.89	-1768.89	  450.62
     12.9700	  551.00	  574.35	-1766.35	  450.47
     13.0700	  555.00	  573.33	-1761.33	  450.30
     13.1700	  548.00	  572.55	-1767.55	  450.14
     13.2700	  564.00	  571.93	-1750.93	  449.97
     13.3700	  565.00	  571.41	-1749.41	  449.80
     13.4700	  563.00	  570.96	-1750.96	  449.62
     13.5700	  564.00	  570.56	-1749.56	  449.44
     13.6700	  569.00	  570.20	-1744.20	  449.26
     13.7700	  620.00	  569.87	-1692.87	  449.07
     13.8700	  534.00	  569.56	-1778.56	  448.88
     13.9700	  552.00	  569.27	-1760.27	  448.69
     14.0700	  597.00	  568.98	-1714.98	  448.50
     14.1700	  532.00	  568.71	-1779.71	  448.30
     14.2700	  568.00	  568.45	-1743.45	  448.10
     14.3700	  525.00	  568.19	-1786.19	  447.89
     14.4700	  512.00	  567.93	-1798.93	  447.69
     14.5700	  557.00	  567.68	-1753.68	  447.48
     14.6700	  545.00	  567.42	-1765.42	  447.26
     14.7700	  588.00	  567.17	-1722.17	  447.05
     14.8700	  572.00	  566.92	-1737.92	  446.83
     14.9700	  538.00	  566.68	-1771.68	  446.61
     15.0700	  528.00	  566.43	-1781.43	  446.38
     15.1700	  558.00	  566.18	-1751.18	  446.15
     15.2700	  557.00	  565.93	-1751.93	  445.92
     15.3700	  589.00	  565.68	-1719.68	  445.69
     15.4700	  566.00	  565.43	-1742.43	  445.46
     15.5700	  589.00	  565.17	-1719.17	  445.22
     15.6700	  555.00	  564.95	-1752.95	  444.98
     15.7700	  547.00	  564.69	-1760.69	  444.74
     15.8700	  559.00	  564.44	-1748.44	  444.49
     15.9700	  529.00	  564.18	-1778.18	  444.24
     16.0700	  582.00	  563.92	-1724.92	  444.00
     16.1700	  533.00	  563.66	-1773.66	  443.74
     16.2700	  561.00	  563.40	-1745.40	  443.49
     16.3700	  553.00	  563.13	-1753.13	  443.23
     16.4700	  554.00	  562.87	-1751.87	  442.97
     16.5700	  528.00	  562.60	-1777.60	  442.71
     16.6700	  586.00	  562.33	-1719.33	  442.45
     16.7700	  570.00	  562.06	-1735.06	  442.18
     16.8700	  576.00	  561.79	-1728.79	  441.92
     16.9700	  529.00	  561.52	-1775.52	  441.65
     17.0700	  567.00	  561.24	-1737.24	  441.38
     17.1700	  554.00	  560.97	-1749.97	  441.10
     17.2700	  558.00	  560.69	-1745.69	  440.83
     17.3700	  542.00	  560.41	-1761.41	  440.55
     17.4700	  622.00	  560.13	-1681.13	  440.27
     17.5700	  520.00	  559.84	-1782.84	  439.99
     17.6700	  564.00	  559.56	-1738.56	  439.71
     17.7700	  532.00	  559.27	-1770.27	  439.42
     17.8700	  563.00	  558.98	-1738.98	  439.14
     17.9700	  568.00	  558.69	-1733.69	  438.85
     18.0700	  594.00	  558.51	-1707.51	  438.56
     18.1700	  569.00	  558.22	-1732.22	  438.27
     18.2700	  592.00	  557.93	-1708.93	  437.98
     18.3700	  583.00	  557.63	-1717.63	  437.68
     18.4700	  601.00	  557.34	-1699.34	  437.39
     18.5700	  577.00	  557.04	-1723.04	  437.09
     18.6700	  574.00	  556.75	-1725.75	  436.79
     18.7700	  547.00	  556.45	-1752.45	  436.49
     18.8700	  573.00	  556.23	-1726.23	  436.19
     18.9700	  539.00	  555.93	-1759.93	  435.89
     19.0700	  496.00	  555.63	-1802.63	  435.58
     19.1700	  539.00	  555.33	-1759.33	  435.28
     19.2700	  565.00	  555.03	-1733.03	  434.97
     19.3700	  558.00	  554.73	-1739.73	  434.66
     19.4700	  546.00	  554.43	-1751.43	  434.35
     19.5700	  512.00	  554.12	-1785.12	  434.04
     19.6700	  535.00	  553.82	-1761.82	  433.73
     19.7700	  541.00	  553.52	-1755.52	  433.42
     19.8700	  531.00	  553.21	-1765.21	  433.11
     19.9700	  535.00	  552.90	-1760.90	  432.79
     20.0700	  542.00	  552.60	-1753.60	  432.48
     20.1700	  530.00	  552.29	-1765.29	  432.16
     20.2700	  560.00	  551.98	-1734.98	  431.84
     20.3700	  523.00	  551.68	-1771.68	  431.52
     20.4700	  542.00	  551.37	-1752.37	  431.20
     20.5700	  530.00	  551.06	-1764.06	  430.88
     20.6700	  545.00	  550.75	-1748.75	  430.56
     20.7700	  557.00	  550.48	-1736.48	  430.24
     20.8700	  537.00	  550.13	-1756.13	  429.91
     20.9700	  574.00	  549.82	-1718.82	  429.59
     21.0700	  519.00	  549.52	-1773.52	  429.27
     21.1700	  531.00	  549.21	-1761.21	  428.94
     21.2700	  551.00	  548.91	-1740.91	  428.62
     21.3700	  513.00	  548.60	-1778.60	  428.29
     21.4700	  545.00	  548.30	-1746.30	  427.96
     21.5700	  533.00	  548.00	-1758.00	  427.63
     21.6700	  514.00	  547.69	-1776.69	  427.30
     21.7700	  550.00	  547.39	-1740.39	  426.98
     21.8700	  572.00	  547.10	-1718.10	  426.65
     21.9700	  549.00	  546.80	-1740.80	  426.32
     22.0700	  574.00	  546.51	-1715.51	  425.98
     22.1700	  563.00	  546.22	-1726.22	  425.65
     22.2700	  579.00	  545.93	-1709.93	  425.32
     22.3700	  565.00	  545.65	-1723.65	  424.99
     22.4700	  561.00	  545.37	-1727.37	  424.66
     22.5700	  558.00	  545.10	-1730.10	  424.33
     22.6700	  526.00	  544.83	-1761.83	  423.99
     22.7700	  553.00	  544.57	-1734.57	  423.66
     22.8700	  535.00	  544.33	-1752.33	  423.33
     22.9700	  572.00	  544.09	-1715.09	  422.99
     23.0700	  535.00	  543.87	-1751.87	  422.66
     23.1700	  580.00	  543.67	-1706.67	  422.32
     23.2700	  519.00	  543.49	-1767.49	  421.99
     23.3700	  532.00	  543.34	-1754.34	  421.65
     23.4700	  548.00	  543.37	-1738.37	  421.32
     23.5700	  558.00	  543.32	-1728.32	  420.98
     23.6700	  542.00	  543.35	-1744.35	  420.65
     23.7700	  552.00	  543.52	-1734.52	  420.31
     23.8700	  524.00	  543.93	-1762.93	  419.98
     23.9700	  530.00	  544.80	-1757.80	  419.64
     24.0700	  531.00	  546.55	-1758.55	  419.31
     24.1700	  603.00	  549.78	-1689.78	  418.97
     24.2700	  522.00	  555.27	-1776.27	  418.64
     24.3700	  599.00	  563.84	-1707.84	  418.30
     24.4700	  530.00	  576.24	-1789.24	  417.97
     24.5700	  601.00	  592.24	-1734.24	  417.63
     24.6700	  639.00	  609.07	-1713.07	  417.30
     24.7700	  581.00	  620.14	-1782.14	  416.97
     24.8700	  652.00	  617.01	-1708.01	  416.63
     24.9700	  642.00	  598.94	-1699.94	  416.30
     25.0700	  593.00	  576.93	-1726.93	  415.96
     25.1700	  548.00	  559.83	-1754.83	  415.63
     25.2700	  591.00	  549.49	-1701.49	  415.30
     25.3700	  541.00	  544.16	-1746.16	  414.96
     25.4700	  557.00	  541.53	-1727.53	  414.63
     25.5700	  528.00	  540.11	-1755.11	  414.30
     25.6700	  629.00	  539.19	-1653.19	  413.96
     25.7700	  580.00	  538.52	-1701.52	  413.63
     25.8700	  575.00	  538.02	-1706.02	  413.30
     25.9700	  513.00	  537.63	-1767.63	  412.97
     26.0700	  514.00	  537.34	-1766.34	  412.64
     26.1700	  559.00	  537.13	-1721.13	  412.31
     26.2700	  575.00	  537.00	-1705.00	  411.98
     26.3700	  497.00	  536.95	-1782.95	  411.65
     26.4700	  554.00	  536.99	-1725.99	  411.32
     26.5700	  545.00	  537.13	-1735.13	  410.99
     26.6700	  505.00	  537.38	-1775.38	  410.67
     26.7700	  538.00	  537.77	-1742.77	  410.34
     26.8700	  563.00	  538.32	-1718.32	  410.01
     26.9700	  561.00	  539.10	-1721.10	  409.69
     27.0700	  565.00	  540.17	-1718.17	  409.36
     27.1700	  517.00	  541.67	-1767.67	  409.04
     27.2700	  511.00	  543.84	-1775.84	  408.71
     27.3700	  578.00	  547.18	-1712.18	  408.39
     27.4700	  504.00	  552.66	-1791.66	  408.06
     27.5700	  553.00	  562.05	-1752.05	  407.74
     27.6700	  544.00	  578.19	-1777.19	  407.42
     27.7700	  536.00	  604.78	-1811.78	  407.10
     27.8700	  634.00	  645.12	-1754.12	  406.78
     27.9700	  666.00	  699.57	-1776.57	  406.46
     28.0700	  774.00	  762.04	-1731.04	  406.14
     28.1700	  863.00	  816.84	-1696.84	  405.82
     28.2700	  930.00	  840.04	-1653.04	  405.51
     28.3700	  934.00	  816.83	-1625.83	  405.19
     28.4700	  781.00	  768.74	-1730.74	  404.88
     28.5700	  642.00	  732.60	-1833.60	  404.56
     28.6700	  730.00	  725.52	-1738.52	  404.25
     28.7700	  712.00	  743.40	-1774.40	  403.94
     28.8700	  759.00	  767.45	-1751.45	  403.62
     28.9700	  767.00	  771.41	-1747.41	  403.31
     29.0700	  796.00	  738.29	-1685.29	  403.00
     29.1700	  704.00	  681.50	-1720.50	  402.69
     29.2700	  669.00	  626.97	-1700.97	  402.39
     29.3700	  606.00	  587.34	-1724.34	  402.08
     29.4700	  545.00	  563.20	-1761.20	  401.77
     29.5700	  621.00	  550.02	-1672.02	  401.47
     29.6700	  556.00	  543.01	-1730.01	  401.16
     29.7700	  585.00	  539.02	-1697.02	  400.86
     29.8700	  580.00	  536.52	-1699.52	  400.56
     29.9700	  598.00	  534.92	-1679.92	  400.26
     30.0700	  558.00	  534.06	-1719.06	  399.96
     30.1700	  550.00	  534.09	-1727.09	  399.66
     30.2700	  558.00	  535.45	-1720.45	  399.36
     30.3700	  567.00	  539.03	-1715.03	  399.06
     30.4700	  536.00	  546.17	-1753.17	  398.77
     30.5700	  556.00	  558.21	-1745.21	  398.47
     30.6700	  570.00	  575.50	-1748.50	  398.18
     30.7700	  622.00	  595.79	-1716.79	  397.89
     30.8700	  611.00	  613.40	-1745.40	  397.60
     30.9700	  610.00	  619.67	-1752.67	  397.31
     31.0700	  604.00	  608.62	-1747.62	  397.02
     31.1700	  544.00	  585.89	-1784.89	  396.73
     31.2700	  549.00	  562.83	-1756.83	  396.45
     31.3700	  516.00	  545.55	-1772.55	  396.16
     31.4700	  576.00	  534.82	-1701.82	  395.88
     31.5700	  541.00	  528.96	-1730.96	  395.59
     31.6700	  562.00	  525.88	-1706.88	  395.31
     31.7700	  481.00	  524.17	-1786.17	  395.03
     31.8700	  533.00	  523.10	-1733.10	  394.75
     31.9700	  508.00	  522.38	-1757.38	  394.48
     32.0700	  558.00	  521.88	-1706.88	  394.20
     32.1700	  563.00	  521.55	-1701.55	  393.93
     32.2700	  541.00	  521.39	-1723.39	  393.65
     32.3700	  538.00	  521.37	-1726.37	  393.38
     32.4700	  545.00	  521.52	-1719.52	  393.11
     32.5700	  528.00	  521.84	-1736.84	  392.84
     32.6700	  540.00	  522.38	-1725.38	  392.57
     32.7700	  535.00	  523.17	-1731.17	  392.31
     32.8700	  559.00	  524.30	-1708.30	  392.04
     32.9700	  535.00	  525.89	-1733.89	  391.78
     33.0700	  511.00	  528.18	-1760.18	  391.51
     33.1700	  541.00	  531.67	-1733.67	  391.25
     33.2700	  512.00	  537.47	-1768.47	  390.99
     33.3700	  584.00	  547.92	-1706.92	  390.73
     33.4700	  537.00	  567.35	-1773.35	  390.48
     33.5700	  593.00	  602.37	-1752.37	  390.22
     33.6700	  675.00	  660.25	-1728.25	  389.97
     33.7700	  772.00	  743.65	-1714.65	  389.72
     33.8700	  895.00	  843.18	-1691.18	  389.47
     33.9700	  980.00	  932.59	-1695.59	  389.22
     34.0700	 1039.00	  971.99	-1675.99	  388.97
     34.1700	 1007.00	  932.06	-1668.06	  388.72
     34.2700	  863.00	  833.00	-1713.00	  388.48
     34.3700	  781.00	  725.18	-1687.18	  388.23
     34.4700	  617.00	  640.18	-1766.18	  387.99
     34.5700	  602.00	  585.24	-1726.24	  387.75
     34.6700	  570.00	  554.45	-1727.45	  387.51
     34.7700	  541.00	  538.47	-1740.47	  387.27
     34.8700	  532.00	  529.96	-1740.96	  387.04
     34.9700	  536.00	  524.88	-1731.88	  386.80
     35.0700	  560.00	  521.40	-1704.40	  386.57
     35.1700	  513.00	  518.80	-1748.80	  386.34
     35.2700	  543.00	  516.74	-1716.74	  386.11
     35.3700	  459.00	  515.08	-1799.08	  385.88
     35.4700	  496.00	  513.70	-1760.70	  385.66
     35.5700	  550.00	  512.54	-1705.54	  385.43
     35.6700	  509.00	  511.54	-1745.54	  385.21
     35.7700	  496.00	  510.68	-1757.68	  384.99
     35.8700	  500.00	  509.93	-1752.93	  384.77
     35.9700	  520.00	  509.26	-1732.26	  384.55
     36.0700	  519.00	  509.13	-1733.13	  384.33
     36.1700	  484.00	  508.60	-1767.60	  384.12
     36.2700	  492.00	  508.13	-1759.13	  383.90
     36.3700	  490.00	  507.71	-1760.71	  383.69
     36.4700	  517.00	  507.33	-1733.33	  383.48
     36.5700	  478.00	  507.00	-1772.00	  383.27
     36.6700	  476.00	  506.71	-1773.71	  383.07
     36.7700	  504.00	  506.49	-1745.49	  382.86
     36.8700	  504.00	  506.36	-1745.36	  382.66
     36.9700	  525.00	  506.39	-1724.39	  382.46
     37.0700	  516.00	  506.73	-1733.73	  382.26
     37.1700	  473.00	  507.66	-1777.66	  382.06
     37.2700	  525.00	  509.52	-1727.52	  381.86
     37.3700	  526.00	  512.59	-1729.59	  381.66
     37.4700	  509.00	  516.77	-1750.77	  381.47
     37.5700	  524.00	  521.22	-1740.22	  381.28
     37.6700	  532.00	  524.42	-1735.42	  381.09
     37.7700	  520.00	  524.73	-1747.73	  380.90
     37.8700	  542.00	  521.90	-1722.90	  380.71
     37.9700	  533.00	  517.55	-1727.55	  380.53
     38.0700	  504.00	  513.20	-1752.20	  380.35
     38.1700	  552.00	  509.52	-1700.52	  380.16
     38.2700	  522.00	  506.71	-1727.71	  379.98
     38.3700	  469.00	  504.76	-1778.76	  379.81
     38.4700	  497.00	  503.47	-1749.47	  379.63
     38.5700	  468.00	  502.62	-1777.62	  379.46
     38.6700	  523.00	  501.95	-1721.95	  379.28
     38.7700	  545.00	  501.55	-1699.55	  379.11
     38.8700	  482.00	  501.24	-1762.24	  378.94
     38.9700	  495.00	  500.97	-1748.97	  378.77
     39.0700	  497.00	  500.74	-1746.74	  378.61
     39.1700	  515.00	  500.67	-1728.67	  378.44
     39.2700	  518.00	  500.41	-1725.41	  378.28
     39.3700	  499.00	  500.23	-1744.23	  378.12
     39.4700	  503.00	  500.07	-1740.07	  377.96
     39.5700	  473.00	  499.92	-1769.92	  377.81
     39.6700	  508.00	  499.78	-1734.78	  377.65
     39.7700	  509.00	  499.65	-1733.65	  377.50
     39.8700	  535.00	  499.53	-1707.53	  377.34
     39.9700	  500.00	  499.42	-1742.42	  377.19
     40.0700	  518.00	  499.32	-1724.32	  377.05
     40.1700	  495.00	  499.23	-1747.23	  376.90
     40.2700	  499.00	  499.16	-1743.16	  376.75
     40.3700	  508.00	  499.10	-1734.10	  376.61
     40.4700	  495.00	  499.05	-1747.05	  376.47
     40.5700	  511.00	  499.02	-1731.02	  376.33
     40.6700	  522.00	  499.01	-1720.01	  376.19
     40.7700	  470.00	  499.02	-1772.02	  376.06
     40.8700	  517.00	  499.06	-1725.06	  375.92
     40.9700	  518.00	  499.12	-1724.12	  375.79
     41.0700	  460.00	  499.23	-1782.23	  375.66
     41.1700	  531.00	  499.38	-1711.38	  375.53
     41.2700	  474.00	  499.56	-1768.56	  375.40
     41.3700	  524.00	  500.29	-1719.29	  375.28
     41.4700	  544.00	  500.68	-1699.68	  375.15
     41.5700	  529.00	  501.20	-1715.20	  375.03
     41.6700	  524.00	  501.94	-1720.94	  374.91
     41.7700	  486.00	  503.04	-1760.04	  374.79
     41.8700	  485.00	  504.87	-1762.87	  374.68
     41.9700	  480.00	  508.16	-1771.16	  374.56
     42.0700	  551.00	  514.30	-1706.30	  374.45
     42.1700	  501.00	  525.32	-1767.32	  374.34
     42.2700	  556.00	  543.40	-1730.40	  374.23
     42.3700	  540.00	  569.57	-1772.57	  374.12
     42.4700	  582.00	  601.70	-1762.70	  374.02
     42.5700	  578.00	  632.79	-1797.79	  373.91
     42.6700	  630.00	  651.81	-1764.81	  373.81
     42.7700	  575.00	  648.98	-1816.98	  373.71
     42.8700	  590.00	  624.99	-1777.99	  373.61
     42.9700	  545.00	  591.59	-1789.59	  373.51
     43.0700	  544.00	  560.04	-1759.04	  373.42
     43.1700	  520.00	  535.93	-1758.93	  373.32
     43.2700	  478.00	  520.15	-1785.15	  373.23
     43.3700	  509.00	  510.98	-1744.98	  373.14
     43.4700	  487.00	  506.05	-1762.05	  373.05
     43.5700	  521.00	  503.44	-1725.44	  372.97
     43.6700	  488.00	  502.09	-1757.09	  372.88
     43.7700	  504.00	  501.10	-1740.10	  372.80
     43.8700	  490.00	  500.39	-1753.39	  372.72
     43.9700	  499.00	  499.85	-1743.85	  372.64
     44.0700	  497.00	  499.43	-1745.43	  372.56
     44.1700	  477.00	  499.11	-1765.11	  372.48
     44.2700	  498.00	  498.86	-1743.86	  372.41
     44.3700	  480.00	  498.66	-1761.66	  372.34
     44.4700	  531.00	  498.52	-1710.52	  372.27
     44.5700	  479.00	  498.41	-1762.41	  372.20
     44.6700	  518.00	  498.20	-1723.20	  372.13
     44.7700	  481.00	  498.17	-1760.17	  372.06
     44.8700	  528.00	  498.16	-1713.16	  372.00
     44.9700	  483.00	  498.18	-1758.18	  371.94
     45.0700	  505.00	  498.40	-1736.40	  371.88
     45.1700	  503.00	  498.47	-1738.47	  371.82
     45.2700	  489.00	  498.56	-1752.56	  371.76
     45.3700	  494.00	  498.67	-1747.67	  371.71
     45.4700	  478.00	  498.81	-1763.81	  371.65
     45.5700	  531.00	  498.97	-1710.97	  371.60
     45.6700	  469.00	  499.16	-1773.16	  371.55
     45.7700	  484.00	  499.38	-1758.38	  371.50
     45.8700	  494.00	  499.63	-1748.63	  371.45
     45.9700	  510.00	  499.91	-1732.91	  371.41
     46.0700	  472.00	  500.23	-1771.23	  371.36
     46.1700	  500.00	  500.59	-1743.59	  371.32
     46.2700	  534.00	  501.00	-1710.00	  371.28
     46.3700	  485.00	  501.46	-1759.46	  371.24
     46.4700	  513.00	  501.99	-1731.99	  371.21
     46.5700	  516.00	  502.59	-1729.59	  371.17
     46.6700	  504.00	  503.30	-1742.30	  371.14
     46.7700	  482.00	  504.14	-1765.14	  371.11
     46.8700	  483.00	  505.18	-1765.18	  371.07
     46.9700	  513.00	  506.67	-1736.67	  371.05
     47.0700	  483.00	  508.75	-1768.75	  371.02
     47.1700	  504.00	  512.09	-1751.09	  370.99
     47.2700	  523.00	  517.61	-1737.61	  370.97
     47.3700	  513.00	  526.48	-1756.48	  370.95
     47.4700	  548.00	  539.63	-1734.63	  370.93
     47.5700	  541.00	  557.05	-1759.05	  370.91
     47.6700	  559.00	  576.96	-1760.96	  370.89
     47.7700	  633.00	  595.11	-1705.11	  370.87
     47.8700	  582.00	  605.67	-1766.67	  370.86
     47.9700	  608.00	  604.29	-1739.29	  370.85
     48.0700	  599.00	  592.25	-1736.25	  370.84
     48.1700	  537.00	  575.44	-1781.44	  370.83
     48.2700	  549.00	  559.47	-1753.47	  370.82
     48.3700	  589.00	  547.45	-1701.45	  370.81
     48.4700	  497.00	  540.30	-1786.30	  370.81
     48.5700	  539.00	  537.55	-1741.55	  370.81
     48.6700	  561.00	  538.17	-1720.17	  370.80
     48.7700	  532.00	  541.25	-1752.25	  370.80
     48.8700	  520.00	  546.29	-1769.29	  370.81
     48.9700	  554.00	  553.30	-1742.30	  370.81
     49.0700	  580.00	  562.87	-1725.87	  370.81
     49.1700	  575.00	  576.57	-1744.57	  370.82
     49.2700	  571.00	  598.11	-1770.11	  370.83
     49.3700	  580.00	  633.29	-1796.29	  370.84
     49.4700	  704.00	  693.49	-1732.49	  370.85
     49.5700	  731.00	  794.69	-1806.69	  370.86
     49.6700	  862.00	  955.24	-1836.24	  370.87
     49.7700	 1085.00	 1188.97	-1846.97	  370.89
     49.8700	 1422.00	 1494.27	-1815.27	  370.90
     49.9700	 1944.00	 1842.31	-1641.31	  370.92
     50.0700	 2187.00	 2167.73	-1723.73	  370.94
     50.1700	 2434.00	 2374.01	-1683.01	  370.96
     50.2700	 2464.00	 2375.83	-1654.83	  370.98
     50.3700	 2228.00	 2170.37	-1685.37	  371.01
     50.4700	 1798.00	 1843.95	-1788.95	  371.03
     50.5700	 1422.00	 1497.66	-1818.66	  371.06
     50.6700	  988.00	 1197.81	-1952.81	  371.09
     50.7700	  820.00	  972.83	-1895.83	  371.12
     50.8700	  677.00	  823.25	-1889.25	  371.15
     50.9700	  690.00	  733.26	-1786.26	  371.18
     51.0700	  637.00	  681.75	-1787.75	  371.22
     51.1700	  591.00	  649.96	-1801.96	  371.25
     51.2700	  621.00	  625.91	-1747.91	  371.29
     51.3700	  589.00	  604.93	-1758.93	  371.33
     51.4700	  584.00	  586.56	-1745.56	  371.36
     51.5700	  538.00	  571.36	-1776.36	  371.41
     51.6700	  526.00	  559.69	-1776.69	  371.45
     51.7700	  544.00	  551.35	-1750.35	  371.49
     51.8700	  525.00	  545.75	-1763.75	  371.54
     51.9700	  569.00	  542.45	-1716.45	  371.58
     52.0700	  534.00	  540.43	-1749.43	  371.63
     52.1700	  543.00	  539.57	-1739.57	  371.68
     52.2700	  537.00	  539.75	-1745.75	  371.73
     52.3700	  587.00	  541.10	-1697.10	  371.78
     52.4700	  526.00	  544.14	-1761.14	  371.83
     52.5700	  564.00	  550.06	-1729.06	  371.89
     52.6700	  596.00	  561.24	-1708.24	  371.94
     52.7700	  601.00	  581.70	-1723.70	  372.00
     52.8700	  656.00	  617.27	-1704.27	  372.06
     52.9700	  681.00	  674.55	-1736.55	  372.11
     53.0700	  839.00	  758.45	-1662.45	  372.17
     53.1700	  895.00	  868.26	-1716.26	  372.24
     53.2700	 1063.00	  993.75	-1673.75	  372.30
     53.3700	 1085.00	 1112.59	-1770.59	  372.36
     53.4700	 1158.00	 1192.11	-1777.11	  372.43
     53.5700	 1165.00	 1202.19	-1780.19	  372.49
     53.6700	 1127.00	 1137.97	-1753.97	  372.56
     53.7700	  984.00	 1025.23	-1784.23	  372.63
     53.8700	  872.00	  898.61	-1769.61	  372.70
     53.9700	  737.00	  783.73	-1789.73	  372.77
     54.0700	  667.00	  693.55	-1769.55	  372.84
     54.1700	  620.00	  630.67	-1753.67	  372.92
     54.2700	  585.00	  591.09	-1749.09	  372.99
     54.3700	  591.00	  568.23	-1720.23	  373.07
     54.4700	  593.00	  555.87	-1705.87	  373.14
     54.5700	  586.00	  549.49	-1706.49	  373.22
     54.6700	  551.00	  546.33	-1738.33	  373.30
     54.7700	  562.00	  545.04	-1726.04	  373.38
     54.8700	  512.00	  544.92	-1775.92	  373.46
     54.9700	  618.00	  545.73	-1670.73	  373.55
     55.0700	  628.00	  547.31	-1662.31	  373.63
     55.1700	  562.00	  549.69	-1730.69	  373.71
     55.2700	  574.00	  552.94	-1721.94	  373.80
     55.3700	  540.00	  557.19	-1760.19	  373.89
     55.4700	  554.00	  562.66	-1751.66	  373.97
     55.5700	  586.00	  569.79	-1726.79	  374.06
     55.6700	  543.00	  579.45	-1779.45	  374.15
     55.7700	  552.00	  593.41	-1784.41	  374.24
     55.8700	  603.00	  615.14	-1755.14	  374.33
     55.9700	  641.00	  650.99	-1752.99	  374.43
     56.0700	  634.00	  711.30	-1820.30	  374.52
     56.1700	  777.00	  810.67	-1776.67	  374.62
     56.2700	  894.00	  966.03	-1815.03	  374.71
     56.3700	 1146.00	 1191.42	-1788.42	  374.81
     56.4700	 1401.00	 1490.10	-1832.10	  374.91
     56.5700	 1801.00	 1845.32	-1787.32	  375.00
     56.6700	 2198.00	 2213.28	-1758.28	  375.10
     56.7700	 2513.00	 2520.93	-1750.93	  375.20
     56.8700	 2668.00	 2679.69	-1754.69	  375.31
     56.9700	 2560.00	 2630.78	-1813.78	  375.41
     57.0700	 2332.00	 2393.03	-1804.03	  375.51
     57.1700	 2033.00	 2047.37	-1757.37	  375.62
     57.2700	 1614.00	 1679.80	-1808.80	  375.72
     57.3700	 1337.00	 1350.24	-1756.24	  375.83
     57.4700	 1048.00	 1088.94	-1783.94	  375.93
     57.5700	  900.00	  902.29	-1745.29	  376.04
     57.6700	  728.00	  781.18	-1796.18	  376.15
     57.7700	  751.00	  710.00	-1702.00	  376.26
     57.8700	  693.00	  673.75	-1723.75	  376.37
     57.9700	  718.00	  661.64	-1686.64	  376.48
     58.0700	  653.00	  667.80	-1757.80	  376.59
     58.1700	  722.00	  690.16	-1711.16	  376.70
     58.2700	  818.00	  728.60	-1653.60	  376.81
     58.3700	  815.00	  783.15	-1711.15	  376.93
     58.4700	  876.00	  852.41	-1719.41	  377.04
     58.5700	 1019.00	  931.93	-1655.93	  377.16
     58.6700	 1089.00	 1013.85	-1667.85	  377.27
     58.7700	 1251.00	 1089.09	-1581.09	  377.39
     58.8700	 1407.00	 1151.52	-1487.52	  377.51
     58.9700	 1495.00	 1197.92	-1445.92	  377.63
     59.0700	 1470.00	 1223.86	-1496.86	  377.75
     59.1700	 1481.00	 1225.32	-1487.32	  377.87
     59.2700	 1444.00	 1205.78	-1504.78	  377.99
     59.3700	 1313.00	 1176.67	-1606.67	  378.11
     59.4700	 1211.00	 1149.60	-1681.60	  378.23
     59.5700	 1194.00	 1132.52	-1681.52	  378.35
     59.6700	 1143.00	 1132.62	-1732.62	  378.47
     59.7700	 1148.00	 1158.34	-1753.34	  378.60
     59.8700	 1209.00	 1214.89	-1748.89	  378.72
     59.9700	 1316.00	 1298.13	-1725.13	  378.85
     60.0700	 1478.00	 1391.70	-1656.70	  378.97
     60.1700	 1510.00	 1467.83	-1700.83	  379.10
     60.2700	 1558.00	 1494.37	-1679.37	  379.22
     60.3700	 1530.00	 1451.64	-1664.64	  379.35
     60.4700	 1424.00	 1346.69	-1665.69	  379.48
     60.5700	 1276.00	 1206.22	-1673.22	  379.61
     60.6700	 1070.00	 1058.74	-1731.74	  379.73
     60.7700	  898.00	  924.98	-1769.98	  379.86
     60.8700	  834.00	  816.60	-1725.60	  379.99
     60.9700	  711.00	  737.65	-1769.65	  380.12
     61.0700	  657.00	  687.04	-1773.04	  380.25
     61.1700	  620.00	  661.60	-1784.60	  380.39
     61.2700	  661.00	  658.68	-1740.68	  380.52
     61.3700	  655.00	  677.83	-1765.83	  380.65
     61.4700	  728.00	  720.91	-1735.91	  380.78
     61.5700	  741.00	  790.81	-1792.81	  380.91
     61.6700	  854.00	  889.20	-1778.20	  381.05
     61.7700	  974.00	 1013.56	-1782.56	  381.18
     61.8700	 1112.00	 1154.72	-1785.72	  381.32
     61.9700	 1267.00	 1295.12	-1771.12	  381.45
     62.0700	 1224.00	 1408.80	-1927.80	  381.59
     62.1700	 1433.00	 1466.54	-1776.54	  381.72
     62.2700	 1355.00	 1449.48	-1837.48	  381.86
     62.3700	 1317.00	 1362.77	-1788.77	  381.99
     62.4700	 1176.00	 1231.63	-1798.63	  382.13
     62.5700	 1015.00	 1085.20	-1813.20	  382.27
     62.6700	  848.00	  946.02	-1841.02	  382.40
     62.7700	  732.00	  827.79	-1838.79	  382.54
     62.8700	  704.00	  736.17	-1775.17	  382.68
     62.9700	  661.00	  670.64	-1752.64	  382.82
     63.0700	  618.00	  627.02	-1752.02	  382.95
     63.1700	  591.00	  599.76	-1751.76	  383.09
     63.2700	  570.00	  583.75	-1756.75	  383.23
     63.3700	  558.00	  575.18	-1760.18	  383.37
     63.4700	  591.00	  571.79	-1723.79	  383.51
     63.5700	  579.00	  572.77	-1736.77	  383.65
     63.6700	  649.00	  578.52	-1672.52	  383.79
     63.7700	  597.00	  590.40	-1736.40	  383.93
     63.8700	  642.00	  610.35	-1711.35	  384.07
     63.9700	  685.00	  640.41	-1698.41	  384.21
     64.0700	  772.00	  681.95	-1652.95	  384.35
     64.1700	  784.00	  734.75	-1693.75	  384.49
     64.2700	  854.00	  796.15	-1685.15	  384.63
     64.3700	  926.00	  860.38	-1677.38	  384.77
     64.4700	  989.00	  918.51	-1672.51	  384.91
     64.5700	  986.00	  959.45	-1716.45	  385.05
     64.6700	 1012.00	  975.62	-1706.62	  385.20
     64.7700	 1049.00	  964.39	-1658.39	  385.34
     64.8700	  935.00	  929.81	-1737.81	  385.48
     64.9700	  903.00	  880.15	-1720.15	  385.62
     65.0700	  829.00	  824.73	-1738.73	  385.76
     65.1700	  818.00	  771.29	-1696.29	  385.90
     65.2700	  707.00	  724.31	-1760.31	  386.05
     65.3700	  666.00	  685.13	-1762.13	  386.19
     65.4700	  670.00	  653.27	-1726.27	  386.33
     65.5700	  617.00	  627.72	-1753.72	  386.47
     65.6700	  570.00	  607.61	-1780.61	  386.61
     65.7700	  573.00	  592.21	-1762.21	  386.75
     65.8700	  627.00	  580.83	-1696.83	  386.90
     65.9700	  562.00	  572.87	-1753.87	  387.04
     66.0700	  531.00	  567.80	-1779.80	  387.18
     66.1700	  543.00	  565.14	-1765.14	  387.32
     66.2700	  527.00	  564.48	-1780.48	  387.46
     66.3700	  532.00	  565.60	-1776.60	  387.60
     66.4700	  520.00	  568.12	-1791.12	  387.75
     66.5700	  589.00	  572.21	-1726.21	  387.89
     66.6700	  543.00	  578.27	-1778.27	  388.03
     66.7700	  561.00	  587.26	-1769.26	  388.17
     66.8700	  557.00	  601.02	-1787.02	  388.31
     66.9700	  599.00	  622.66	-1766.66	  388.45
     67.0700	  644.00	  656.99	-1755.99	  388.59
     67.1700	  670.00	  710.79	-1783.79	  388.73
     67.2700	  757.00	  792.40	-1778.40	  388.87
     67.3700	  850.00	  910.67	-1803.67	  389.01
     67.4700	 1096.00	 1072.29	-1719.29	  389.15
     67.5700	 1302.00	 1279.26	-1720.26	  389.29
     67.6700	 1581.00	 1525.42	-1687.42	  389.43
     67.7700	 1854.00	 1793.74	-1682.74	  389.57
     67.8700	 1994.00	 2055.56	-1804.56	  389.71
     67.9700	 2271.00	 2270.66	-1742.66	  389.85
     68.0700	 2395.00	 2394.64	-1742.64	  389.99
     68.1700	 2427.00	 2395.48	-1711.48	  390.13
     68.2700	 2309.00	 2273.01	-1707.01	  390.27
     68.3700	 2084.00	 2058.85	-1717.85	  390.40
     68.4700	 1859.00	 1797.55	-1681.55	  390.54
     68.5700	 1521.00	 1529.43	-1751.43	  390.68
     68.6700	 1311.00	 1283.36	-1715.36	  390.82
     68.7700	 1063.00	 1076.39	-1756.39	  390.95
     68.8700	  923.00	  914.82	-1734.82	  391.09
     68.9700	  788.00	  796.76	-1751.76	  391.22
     69.0700	  739.00	  715.36	-1719.36	  391.36
     69.1700	  665.00	  661.85	-1739.85	  391.50
     69.2700	  653.00	  627.87	-1717.87	  391.63
     69.3700	  598.00	  606.63	-1751.63	  391.76
     69.4700	  609.00	  593.27	-1727.27	  391.90
     69.5700	  578.00	  584.66	-1749.66	  392.03
     69.6700	  561.00	  578.90	-1760.90	  392.17
     69.7700	  576.00	  574.93	-1741.93	  392.30
     69.8700	  550.00	  572.19	-1765.19	  392.43
     69.9700	  566.00	  570.42	-1747.42	  392.56
     70.0700	  575.00	  569.44	-1737.44	  392.69
     70.1700	  607.00	  569.21	-1705.21	  392.83
     70.2700	  607.00	  569.76	-1705.76	  392.96
     70.3700	  547.00	  571.21	-1767.21	  393.09
     70.4700	  548.00	  573.83	-1768.83	  393.22
     70.5700	  594.00	  578.14	-1727.14	  393.35
     70.6700	  576.00	  585.07	-1752.07	  393.47
     70.7700	  569.00	  596.20	-1770.20	  393.60
     70.8700	  598.00	  614.03	-1759.03	  393.73
     70.9700	  634.00	  642.06	-1751.06	  393.86
     71.0700	  637.00	  684.99	-1790.99	  393.98
     71.1700	  704.00	  748.24	-1787.24	  394.11
     71.2700	  835.00	  837.12	-1745.12	  394.23
     71.3700	  934.00	  955.42	-1764.42	  394.36
     71.4700	 1050.00	 1103.60	-1796.60	  394.48
     71.5700	 1237.00	 1277.14	-1783.14	  394.61
     71.6700	 1452.00	 1466.01	-1757.01	  394.73
     71.7700	 1657.00	 1650.91	-1736.91	  394.85
     71.8700	 1710.00	 1808.44	-1841.44	  394.97
     71.9700	 1860.00	 1911.21	-1794.21	  395.10
     72.0700	 1951.00	 1936.91	-1728.91	  395.22
     72.1700	 1812.00	 1879.37	-1810.37	  395.34
     72.2700	 1797.00	 1752.30	-1698.30	  395.46
     72.3700	 1583.00	 1581.40	-1741.40	  395.57
     72.4700	 1466.00	 1392.94	-1669.94	  395.69
     72.5700	 1295.00	 1209.55	-1657.55	  395.81
     72.6700	 1142.00	 1045.55	-1646.55	  395.92
     72.7700	 1008.00	  908.97	-1643.97	  396.04
     72.8700	  955.00	  802.06	-1590.06	  396.16
     72.9700	  807.00	  722.82	-1658.82	  396.27
     73.0700	  749.00	  666.76	-1660.76	  396.38
     73.1700	  721.00	  628.54	-1650.54	  396.50
     73.2700	  613.00	  603.12	-1733.12	  396.61
     73.3700	  685.00	  586.37	-1644.37	  396.72
     73.4700	  597.00	  575.27	-1721.27	  396.83
     73.5700	  583.00	  567.78	-1727.78	  396.94
     73.6700	  601.00	  562.63	-1704.63	  397.05
     73.7700	  604.00	  559.07	-1698.07	  397.16
     73.8700	  627.00	  556.66	-1672.66	  397.26
     73.9700	  569.00	  555.16	-1729.16	  397.37
     74.0700	  610.00	  554.37	-1687.37	  397.48
     74.1700	  591.00	  554.14	-1706.14	  397.58
     74.2700	  653.00	  554.28	-1644.28	  397.68
     74.3700	  597.00	  554.59	-1700.59	  397.79
     74.4700	  647.00	  554.82	-1650.82	  397.89
     74.5700	  655.00	  554.73	-1642.73	  397.99
     74.6700	  600.00	  554.14	-1697.14	  398.09
     74.7700	  605.00	  553.03	-1691.03	  398.19
     74.8700	  647.00	  551.52	-1647.52	  398.29
     74.9700	  585.00	  549.87	-1707.87	  398.39
     75.0700	  531.00	  548.38	-1760.38	  398.48
     75.1700	  604.00	  547.31	-1686.31	  398.58
     75.2700	  564.00	  547.10	-1726.10	  398.68
     75.3700	  539.00	  548.07	-1752.07	  398.77
     75.4700	  566.00	  550.67	-1727.67	  398.86
     75.5700	  556.00	  555.39	-1742.39	  398.96
     75.6700	  567.00	  562.61	-1738.61	  399.05
     75.7700	  529.00	  573.04	-1787.04	  399.14
     75.8700	  583.00	  586.79	-1746.79	  399.23
     75.9700	  581.00	  603.80	-1765.80	  399.31
     76.0700	  658.00	  623.50	-1708.50	  399.40
     76.1700	  628.00	  644.74	-1759.74	  399.49
     76.2700	  644.00	  665.78	-1764.78	  399.57
     76.3700	  684.00	  684.27	-1743.27	  399.66
     76.4700	  708.00	  697.55	-1732.55	  399.74
     76.5700	  712.00	  703.21	-1734.21	  399.82
     76.6700	  674.00	  700.06	-1769.06	  399.90
     76.7700	  697.00	  688.74	-1734.74	  399.98
     76.8700	  628.00	  671.35	-1786.35	  400.06
     76.9700	  662.00	  650.39	-1731.39	  400.14
     77.0700	  572.00	  628.70	-1799.70	  400.22
     77.1700	  569.00	  608.03	-1782.03	  400.29
     77.2700	  578.00	  589.69	-1754.69	  400.37
     77.3700	  498.00	  574.39	-1819.39	  400.44
     77.4700	  574.00	  562.31	-1731.31	  400.52
     77.5700	  506.00	  553.25	-1790.25	  400.59
     77.6700	  525.00	  546.75	-1764.75	  400.66
     77.7700	  563.00	  542.27	-1722.27	  400.73
     77.8700	  491.00	  539.27	-1791.27	  400.80
     77.9700	  547.00	  537.32	-1733.32	  400.86
     78.0700	  540.00	  536.06	-1739.06	  400.93
     78.1700	  505.00	  535.26	-1773.26	  400.99
     78.2700	  519.00	  534.74	-1758.74	  401.06
     78.3700	  472.00	  534.42	-1805.43	  401.12
     78.4700	  546.00	  534.25	-1731.25	  401.18
     78.5700	  509.00	  534.19	-1768.19	  401.24
     78.6700	  526.00	  534.24	-1751.24	  401.30
     78.7700	  520.00	  534.41	-1757.41	  401.36
     78.8700	  514.00	  534.72	-1763.72	  401.41
     78.9700	  485.00	  535.20	-1793.20	  401.47
     79.0700	  518.00	  535.90	-1760.90	  401.52
     79.1700	  508.00	  536.86	-1771.86	  401.58
     79.2700	  527.00	  538.14	-1754.14	  401.63
     79.3700	  555.00	  539.60	-1727.60	  401.68
     79.4700	  522.00	  541.65	-1762.65	  401.73
     79.5700	  521.00	  544.19	-1766.19	  401.78
     79.6700	  526.00	  547.26	-1764.26	  401.82
     79.7700	  548.00	  550.98	-1745.98	  401.87
     79.8700	  546.00	  555.44	-1752.44	  401.91
     79.9700	  522.00	  560.83	-1781.83	  401.96
     80.0700	  540.00	  567.36	-1770.36	  402.00
     80.1700	  541.00	  575.38	-1777.38	  402.04
     80.2700	  610.00	  585.23	-1718.23	  402.08
     80.3700	  543.00	  597.28	-1797.28	  402.12
     80.4700	  588.00	  611.72	-1766.72	  402.15
     80.5700	  633.00	  628.49	-1738.49	  402.19
     80.6700	  607.00	  647.20	-1783.20	  402.22
     80.7700	  670.00	  667.07	-1740.07	  402.26
     80.8700	  663.00	  686.95	-1766.95	  402.29
     80.9700	  697.00	  705.45	-1751.45	  402.32
     81.0700	  660.00	  721.21	-1804.21	  402.35
     81.1700	  751.00	  733.07	-1725.07	  402.37
     81.2700	  783.00	  740.14	-1700.14	  402.40
     81.3700	  741.00	  741.89	-1743.89	  402.43
     81.4700	  850.00	  738.25	-1631.25	  402.45
     81.5700	  754.00	  729.59	-1718.59	  402.47
     81.6700	  781.00	  716.59	-1678.59	  402.49
     81.7700	  758.00	  700.14	-1685.14	  402.51
     81.8700	  729.00	  681.34	-1695.34	  402.53
     81.9700	  694.00	  661.50	-1710.50	  402.55
     82.0700	  678.00	  641.86	-1706.86	  402.56
     82.1700	  690.00	  623.36	-1676.36	  402.58
     82.2700	  666.00	  606.77	-1683.77	  402.59
     82.3700	  602.00	  592.38	-1733.38	  402.60
     82.4700	  624.00	  580.33	-1699.33	  402.61
     82.5700	  597.00	  570.61	-1716.61	  402.62
     82.6700	  574.00	  563.11	-1732.11	  402.63
     82.7700	  551.00	  557.72	-1749.72	  402.63
     82.8700	  553.00	  554.26	-1744.26	  402.64
     82.9700	  615.00	  552.56	-1680.56	  402.64
     83.0700	  595.00	  552.46	-1700.46	  402.64
     83.1700	  573.00	  553.83	-1723.83	  402.64
     83.2700	  561.00	  556.51	-1738.51	  402.64
     83.3700	  497.00	  560.30	-1806.30	  402.64
     83.4700	  564.00	  564.93	-1743.93	  402.64
     83.5700	  522.00	  570.06	-1791.06	  402.63
     83.6700	  586.00	  575.25	-1732.25	  402.63
     83.7700	  573.00	  579.98	-1749.98	  402.62
     83.8700	  564.00	  583.65	-1762.65	  402.61
     83.9700	  576.00	  585.74	-1752.74	  402.60
     84.0700	  577.00	  585.85	-1751.85	  402.59
     84.1700	  578.00	  583.94	-1748.94	  402.57
     84.2700	  527.00	  580.26	-1796.26	  402.56
     84.3700	  559.00	  575.31	-1759.31	  402.54
     84.4700	  578.00	  569.62	-1734.62	  402.52
     84.5700	  564.00	  563.71	-1742.71	  402.50
     84.6700	  514.00	  557.99	-1786.99	  402.48
     84.7700	  554.00	  552.76	-1741.76	  402.46
     84.8700	  487.00	  548.22	-1804.22	  402.44
     84.9700	  569.00	  544.45	-1718.45	  402.41
     85.0700	  534.00	  541.46	-1750.46	  402.38
     85.1700	  553.00	  539.19	-1729.19	  402.36
     85.2700	  516.00	  537.56	-1764.56	  402.33
     85.3700	  574.00	  536.45	-1705.45	  402.30
     85.4700	  521.00	  535.79	-1757.79	  402.26
     85.5700	  561.00	  535.49	-1717.49	  402.23
     85.6700	  527.00	  535.52	-1751.52	  402.19
     85.7700	  481.00	  535.86	-1797.86	  402.16
     85.8700	  569.00	  536.55	-1710.55	  402.12
     85.9700	  556.00	  537.67	-1724.67	  402.08
     86.0700	  544.00	  539.34	-1738.34	  402.04
     86.1700	  559.00	  541.71	-1725.71	  401.99
     86.2700	  549.00	  544.95	-1738.95	  401.95
     86.3700	  498.00	  549.25	-1794.25	  401.91
     86.4700	  534.00	  554.79	-1763.79	  401.86
     86.5700	  598.00	  561.66	-1706.66	  401.81
     86.6700	  567.00	  569.89	-1745.89	  401.76
     86.7700	  599.00	  579.36	-1723.36	  401.71
     86.8700	  603.00	  589.47	-1729.47	  401.66
     86.9700	  598.00	  600.41	-1745.41	  401.60
     87.0700	  571.00	  611.21	-1783.21	  401.55
     87.1700	  665.00	  621.07	-1699.07	  401.49
     87.2700	  665.00	  629.09	-1707.09	  401.43
     87.3700	  652.00	  634.37	-1725.37	  401.37
     87.4700	  708.00	  636.27	-1671.27	  401.31
     87.5700	  643.00	  634.55	-1734.55	  401.24
     87.6700	  598.00	  629.52	-1774.52	  401.18
     87.7700	  663.00	  621.92	-1701.92	  401.11
     87.8700	  641.00	  612.68	-1714.68	  401.05
     87.9700	  648.00	  602.77	-1697.77	  400.98
     88.0700	  639.00	  593.05	-1697.05	  400.91
     88.1700	  606.00	  584.25	-1721.25	  400.83
     88.2700	  564.00	  576.91	-1755.91	  400.76
     88.3700	  521.00	  571.39	-1793.39	  400.69
     88.4700	  588.00	  567.87	-1722.87	  400.61
     88.5700	  547.00	  566.35	-1762.35	  400.53
     88.6700	  579.00	  566.68	-1730.68	  400.45
     88.7700	  593.00	  568.58	-1718.58	  400.37
     88.8700	  598.00	  571.67	-1716.67	  400.29
     88.9700	  572.00	  575.50	-1746.50	  400.21
     89.0700	  586.00	  579.55	-1736.55	  400.12
     89.1700	  597.00	  583.28	-1729.28	  400.04
     89.2700	  622.00	  586.15	-1707.15	  399.95
     89.3700	  611.00	  587.69	-1719.69	  399.86
     89.4700	  578.00	  587.61	-1752.61	  399.77
     89.5700	  545.00	  585.85	-1783.85	  399.68
     89.6700	  597.00	  582.60	-1728.60	  399.58
     89.7700	  555.00	  578.22	-1766.22	  399.49
     89.8700	  587.00	  573.12	-1729.12	  399.39
     89.9700	  550.00	  567.72	-1760.72	  399.29
     90.0700	  555.00	  562.36	-1750.36	  399.19
     90.1700	  528.00	  557.33	-1772.33	  399.09
     90.2700	  538.00	  552.82	-1757.81	  398.99
     90.3700	  526.00	  548.94	-1765.94	  398.89
     90.4700	  536.00	  545.76	-1752.76	  398.78
     90.5700	  509.00	  543.26	-1777.26	  398.68
     90.6700	  514.00	  541.41	-1770.41	  398.57
     90.7700	  495.00	  540.12	-1788.12	  398.46
     90.8700	  513.00	  539.33	-1769.33	  398.35
     90.9700	  526.00	  538.97	-1755.97	  398.24
     91.0700	  512.00	  539.00	-1770.00	  398.12
     91.1700	  532.00	  539.39	-1750.39	  398.01
     91.2700	  568.00	  540.17	-1715.17	  397.89
     91.3700	  536.00	  541.39	-1748.39	  397.78
     91.4700	  558.00	  543.14	-1728.14	  397.66
     91.5700	  563.00	  545.54	-1725.54	  397.54
     91.6700	  512.00	  548.77	-1779.77	  397.42
     91.7700	  493.00	  553.01	-1803.01	  397.29
     91.8700	  489.00	  558.49	-1812.49	  397.17
     91.9700	  550.00	  565.39	-1758.39	  397.04
     92.0700	  575.00	  573.66	-1741.66	  396.92
     92.1700	  587.00	  583.92	-1739.92	  396.79
     92.2700	  574.00	  595.95	-1764.95	  396.66
     92.3700	  594.00	  609.72	-1758.72	  396.53
     92.4700	  585.00	  625.05	-1783.05	  396.40
     92.5700	  632.00	  641.63	-1752.63	  396.26
     92.6700	  653.00	  659.00	-1749.00	  396.13
     92.7700	  666.00	  676.59	-1753.59	  395.99
     92.8700	  701.00	  693.72	-1735.72	  395.85
     92.9700	  743.00	  709.67	-1709.67	  395.72
     93.0700	  803.00	  723.85	-1663.85	  395.58
     93.1700	  779.00	  735.96	-1699.96	  395.43
     93.2700	  769.00	  746.06	-1720.06	  395.29
     93.3700	  736.00	  754.54	-1761.54	  395.15
     93.4700	  808.00	  761.98	-1696.98	  395.00
     93.5700	  781.00	  768.98	-1730.98	  394.86
     93.6700	  794.00	  776.09	-1725.09	  394.71
     93.7700	  784.00	  783.78	-1742.78	  394.56
     93.8700	  849.00	  792.51	-1686.51	  394.41
     93.9700	  835.00	  802.72	-1710.72	  394.26
     94.0700	  849.00	  814.79	-1708.79	  394.11
     94.1700	  886.00	  828.89	-1685.89	  393.95
     94.2700	  846.00	  844.82	-1741.82	  393.80
     94.3700	  895.00	  861.94	-1709.94	  393.64
     94.4700	  910.00	  879.15	-1712.15	  393.49
     94.5700	  858.00	  894.93	-1779.93	  393.33
     94.6700	  909.00	  907.51	-1741.51	  393.17
     94.7700	  888.00	  915.03	-1770.03	  393.01
     94.8700	  916.00	  915.96	-1742.96	  392.85
     94.9700	  904.00	  909.46	-1748.46	  392.68
     95.0700	  956.00	  895.65	-1682.65	  392.52
     95.1700	  832.00	  875.56	-1786.56	  392.35
     95.2700	  865.00	  850.83	-1728.83	  392.19
     95.3700	  782.00	  823.44	-1784.44	  392.02
     95.4700	  821.00	  795.41	-1717.41	  391.85
     95.5700	  714.00	  768.68	-1797.68	  391.68
     95.6700	  789.00	  745.02	-1699.02	  391.51
     95.7700	  705.00	  726.04	-1764.04	  391.34
     95.8700	  715.00	  713.16	-1741.16	  391.17
     95.9700	  711.00	  707.62	-1739.62	  390.99
     96.0700	  696.00	  710.50	-1757.50	  390.82
     96.1700	  667.00	  722.65	-1798.65	  390.64
     96.2700	  719.00	  744.72	-1768.72	  390.47
     96.3700	  779.00	  777.08	-1741.08	  390.29
     96.4700	  808.00	  819.74	-1754.74	  390.11
     96.5700	  817.00	  872.31	-1798.31	  389.93
     96.6700	  995.00	  933.84	-1681.84	  389.75
     96.7700	  988.00	 1002.76	-1757.76	  389.57
     96.8700	 1058.00	 1076.86	-1761.86	  389.39
     96.9700	 1135.00	 1153.22	-1761.22	  389.20
     97.0700	 1226.00	 1228.28	-1745.28	  389.02
     97.1700	 1298.00	 1297.96	-1742.96	  388.83
     97.2700	 1365.00	 1357.79	-1735.79	  388.65
     97.3700	 1359.00	 1403.35	-1787.35	  388.46
     97.4700	 1431.00	 1430.92	-1742.92	  388.27
     97.5700	 1452.00	 1438.22	-1729.22	  388.08
     97.6700	 1366.00	 1424.92	-1801.92	  387.89
     97.7700	 1380.00	 1392.72	-1755.72	  387.70
     97.8700	 1253.00	 1344.87	-1834.87	  387.51
     97.9700	 1321.00	 1285.49	-1707.49	  387.32
     98.0700	 1208.00	 1218.88	-1753.88	  387.12
     98.1700	 1175.00	 1149.21	-1717.21	  386.93
     98.2700	 1153.00	 1080.30	-1670.30	  386.74
     98.3700	 1003.00	 1015.40	-1755.40	  386.54
     98.4700	  927.00	  957.26	-1773.26	  386.34
     98.5700	  881.00	  908.05	-1770.05	  386.15
     98.6700	  833.00	  869.48	-1779.48	  385.95
     98.7700	  829.00	  842.83	-1756.83	  385.75
     98.8700	  770.00	  829.02	-1802.02	  385.55
     98.9700	  820.00	  828.68	-1751.68	  385.35
     99.0700	  812.00	  842.20	-1773.20	  385.15
     99.1700	  881.00	  869.75	-1731.75	  384.95
     99.2700	  897.00	  911.32	-1757.32	  384.75
     99.3700	  965.00	  966.66	-1744.66	  384.55
     99.4700	 1020.00	 1035.17	-1758.17	  384.34
     99.5700	 1114.00	 1115.89	-1744.89	  384.14
     99.6700	 1185.00	 1207.37	-1765.37	  383.94
     99.7700	 1295.00	 1307.53	-1755.53	  383.73
     99.8700	 1354.00	 1413.72	-1802.72	  383.53
     99.9700	 1528.00	 1522.52	-1737.52	  383.32
    100.0700	 1611.00	 1629.93	-1761.93	  383.11
    100.1700	 1769.00	 1731.54	-1705.54	  382.91
    100.2700	 1874.00	 1822.98	-1691.98	  382.70
    100.3700	 1934.00	 1900.38	-1709.38	  382.49
    100.4700	 1982.00	 1960.73	-1721.73	  382.28
    100.5700	 2097.00	 2001.97	-1647.97	  382.07
    100.6700	 2060.00	 2022.87	-1705.87	  381.87
    100.7700	 2079.00	 2022.78	-1686.78	  381.66
    100.8700	 2051.00	 2001.64	-1693.64	  381.45
    100.9700	 1992.00	 1960.29	-1711.29	  381.24
    101.0700	 1890.00	 1900.75	-1753.75	  381.03
    101.1700	 1800.00	 1826.41	-1769.41	  380.81
    101.2700	 1698.00	 1741.71	-1786.71	  380.60
    101.3700	 1591.00	 1651.58	-1803.58	  380.39
    101.4700	 1538.00	 1560.84	-1765.84	  380.18
    101.5700	 1487.00	 1473.71	-1729.71	  379.97
    101.6700	 1410.00	 1393.58	-1726.58	  379.76
    101.7700	 1338.00	 1322.79	-1727.79	  379.54
    101.8700	 1339.00	 1262.64	-1666.64	  379.33
    101.9700	 1250.00	 1213.47	-1706.47	  379.12
    102.0700	 1154.00	 1174.67	-1763.67	  378.90
    102.1700	 1145.00	 1144.85	-1742.85	  378.69
    102.2700	 1156.00	 1121.95	-1708.95	  378.48
    102.3700	 1041.00	 1103.47	-1805.47	  378.26
    102.4700	 1037.00	 1086.75	-1792.75	  378.05
    102.5700	 1038.00	 1069.31	-1774.31	  377.84
    102.6700	 1035.00	 1049.14	-1757.14	  377.62
    102.7700	 1068.00	 1024.99	-1699.99	  377.41
    102.8700	  982.00	  996.42	-1757.42	  377.19
    102.9700	  962.00	  963.76	-1744.76	  376.98
    103.0700	  877.00	  927.84	-1793.84	  376.77
    103.1700	  910.00	  889.76	-1722.76	  376.55
    103.2700	  864.00	  850.73	-1729.73	  376.34
    103.3700	  774.00	  811.92	-1780.92	  376.12
    103.4700	  795.00	  774.39	-1722.39	  375.91
    103.5700	  751.00	  739.02	-1731.02	  375.70
    103.6700	  736.00	  706.48	-1713.48	  375.48
    103.7700	  672.00	  677.26	-1748.26	  375.27
    103.8700	  664.00	  651.62	-1730.62	  375.06
    103.9700	  636.00	  629.62	-1736.62	  374.84
    104.0700	  618.00	  611.17	-1736.17	  374.63
    104.1700	  527.00	  596.05	-1812.05	  374.42
    104.2700	  577.00	  583.95	-1749.95	  374.21
    104.3700	  615.00	  574.51	-1702.51	  374.00
    104.4700	  578.00	  567.36	-1732.36	  373.78
    104.5700	  523.00	  562.15	-1782.15	  373.57
    104.6700	  545.00	  558.52	-1756.52	  373.36
    104.7700	  574.00	  556.19	-1725.19	  373.15
    104.8700	  506.00	  554.89	-1791.89	  372.94
    104.9700	  559.00	  554.43	-1738.43	  372.73
    105.0700	  532.00	  554.66	-1765.66	  372.52
    105.1700	  530.00	  555.44	-1768.44	  372.31
    105.2700	  529.00	  556.68	-1770.68	  372.11
    105.3700	  505.00	  558.38	-1796.38	  371.90
    105.4700	  550.00	  560.53	-1753.53	  371.69
    105.5700	  557.00	  563.16	-1749.16	  371.48
    105.6700	  602.00	  566.33	-1707.33	  371.28
    105.7700	  548.00	  570.14	-1765.14	  371.07
    105.8700	  547.00	  574.68	-1770.68	  370.87
    105.9700	  553.00	  580.02	-1770.02	  370.67
    106.0700	  616.00	  586.24	-1713.24	  370.46
    106.1700	  618.00	  593.34	-1718.34	  370.26
    106.2700	  633.00	  601.29	-1711.29	  370.06
    106.3700	  574.00	  609.99	-1778.99	  369.86
    106.4700	  575.00	  619.27	-1787.27	  369.66
    106.5700	  633.00	  628.94	-1738.94	  369.46
    106.6700	  618.00	  638.70	-1763.70	  369.26
    106.7700	  610.00	  648.24	-1781.24	  369.06
    106.8700	  690.00	  657.21	-1710.21	  368.86
    106.9700	  642.00	  665.25	-1766.25	  368.67
    107.0700	  657.00	  672.03	-1758.03	  368.47
    107.1700	  677.00	  677.29	-1743.29	  368.28
    107.2700	  663.00	  680.89	-1760.89	  368.09
    107.3700	  646.00	  682.87	-1779.87	  367.89
    107.4700	  671.00	  683.40	-1755.40	  367.70
    107.5700	  655.00	  682.79	-1770.79	  367.51
    107.6700	  666.00	  681.45	-1758.45	  367.33
    107.7700	  701.00	  679.78	-1721.78	  367.14
    107.8700	  628.00	  678.15	-1793.15	  366.95
    107.9700	  692.00	  676.87	-1727.87	  366.77
    108.0700	  689.00	  676.15	-1730.15	  366.58
    108.1700	  706.00	  676.12	-1713.12	  366.40
    108.2700	  717.00	  676.75	-1702.75	  366.22
    108.3700	  650.00	  677.95	-1770.95	  366.04
    108.4700	  702.00	  679.49	-1720.49	  365.86
    108.5700	  688.00	  681.07	-1736.07	  365.68
    108.6700	  699.00	  682.32	-1726.32	  365.51
    108.7700	  710.00	  682.86	-1715.86	  365.33
    108.8700	  661.00	  682.29	-1764.29	  365.16
    108.9700	  662.00	  680.32	-1761.32	  364.99
    109.0700	  675.00	  676.77	-1744.77	  364.82
    109.1700	  665.00	  671.59	-1749.59	  364.65
    109.2700	  654.00	  664.87	-1753.87	  364.48
    109.3700	  657.00	  656.83	-1742.83	  364.32
    109.4700	  628.00	  647.77	-1762.77	  364.16
    109.5700	  635.00	  638.00	-1746.00	  363.99
    109.6700	  624.00	  627.86	-1746.86	  363.83
    109.7700	  649.00	  617.66	-1711.66	  363.68
    109.8700	  613.00	  607.69	-1737.69	  363.52
    109.9700	  624.00	  598.18	-1717.18	  363.37
    110.0700	  559.00	  589.35	-1773.35	  363.21
    110.1700	  588.00	  581.33	-1736.33	  363.06
    110.2700	  583.00	  574.24	-1734.24	  362.91
    110.3700	  606.00	  568.12	-1705.12	  362.77
    110.4700	  551.00	  562.99	-1754.99	  362.62
    110.5700	  600.00	  558.82	-1701.82	  362.48
    110.6700	  531.00	  555.56	-1767.56	  362.34
    110.7700	  593.00	  553.15	-1703.15	  362.20
    110.8700	  534.00	  551.50	-1760.50	  362.06
    110.9700	  548.00	  550.53	-1745.53	  361.93
    111.0700	  560.00	  550.15	-1733.15	  361.79
    111.1700	  594.00	  550.27	-1699.27	  361.66
    111.2700	  555.00	  550.83	-1738.83	  361.54
    111.3700	  547.00	  551.77	-1747.77	  361.41
    111.4700	  553.00	  553.01	-1743.01	  361.29
    111.5700	  542.00	  554.54	-1755.54	  361.17
    111.6700	  538.00	  556.30	-1761.30	  361.05
    111.7700	  552.00	  558.28	-1749.28	  360.93
    111.8700	  515.00	  560.46	-1788.46	  360.82
    111.9700	  520.00	  562.84	-1785.84	  360.70
    112.0700	  565.00	  565.42	-1743.42	  360.60
    112.1700	  583.00	  568.21	-1728.21	  360.49
    112.2700	  581.00	  571.24	-1733.24	  360.39
    112.3700	  551.00	  574.53	-1766.53	  360.29
    112.4700	  577.00	  578.12	-1744.12	  360.19
    112.5700	  605.00	  582.07	-1720.07	  360.09
    112.6700	  590.00	  586.43	-1739.43	  360.00
    112.7700	  595.00	  591.29	-1739.29	  359.91
    112.8700	  599.00	  596.77	-1740.77	  359.82
    112.9700	  626.00	  603.00	-1720.00	  359.74
    113.0700	  622.00	  610.18	-1731.18	  359.66
    113.1700	  679.00	  618.55	-1682.55	  359.58
    113.2700	  680.00	  628.41	-1691.41	  359.50
    113.3700	  701.00	  640.20	-1682.20	  359.43
    113.4700	  725.00	  654.40	-1672.40	  359.36
    113.5700	  767.00	  671.68	-1647.68	  359.29
    113.6700	  854.00	  692.81	-1581.81	  359.23
    113.7700	  799.00	  718.77	-1662.77	  359.17
    113.8700	  860.00	  750.74	-1633.74	  359.11
    113.9700	  933.00	  790.07	-1600.07	  359.06
    114.0700	  996.00	  838.37	-1585.37	  359.01
    114.1700	 1015.00	  897.46	-1625.46	  358.96
    114.2700	 1000.00	  969.35	-1712.35	  358.92
    114.3700	 1207.00	 1056.24	-1592.24	  358.88
    114.4700	 1305.00	 1160.43	-1598.43	  358.84
    114.5700	 1393.00	 1284.30	-1634.30	  358.81
    114.6700	 1516.00	 1430.14	-1657.14	  358.78
    114.7700	 1697.00	 1600.06	-1646.06	  358.75
    114.8700	 1880.00	 1795.95	-1658.95	  358.73
    114.9700	 2053.00	 2019.12	-1709.12	  358.71
    115.0700	 2327.00	 2270.40	-1686.40	  358.70
    115.1700	 2580.00	 2549.71	-1712.71	  358.69
    115.2700	 2948.00	 2856.08	-1651.08	  358.68
    115.3700	 3191.00	 3187.58	-1739.58	  358.67
    115.4700	 3451.00	 3540.96	-1832.96	  358.67
    115.5700	 3777.00	 3911.97	-1877.97	  358.68
    115.6700	 4118.00	 4294.92	-1919.92	  358.69
    115.7700	 4492.00	 4682.92	-1933.92	  358.70
    115.8700	 4989.00	 5068.06	-1822.06	  358.71
    115.9700	 5294.00	 5441.12	-1890.12	  358.73
    116.0700	 5676.00	 5792.26	-1859.26	  358.76
    116.1700	 6031.00	 6110.80	-1822.80	  358.79
    116.2700	 6224.00	 6385.96	-1904.96	  358.82
    116.3700	 6469.00	 6607.49	-1881.49	  358.86
    116.4700	 6785.00	 6766.23	-1724.23	  358.90
    116.5700	 6934.00	 6855.30	-1664.30	  358.94
    116.6700	 6972.00	 6870.70	-1641.70	  358.99
    116.7700	 6963.00	 6811.95	-1591.95	  359.05
    116.8700	 6625.00	 6682.11	-1800.11	  359.11
    116.9700	 6421.00	 6487.39	-1809.39	  359.17
    117.0700	 6279.00	 6236.31	-1700.31	  359.24
    117.1700	 5842.00	 5938.90	-1839.90	  359.31
    117.2700	 5471.00	 5605.85	-1877.85	  359.39
    117.3700	 5231.00	 5247.65	-1759.65	  359.47
    117.4700	 4873.00	 4874.44	-1744.44	  359.56
    117.5700	 4530.00	 4495.33	-1708.33	  359.65
    117.6700	 4148.00	 4118.52	-1713.52	  359.75
    117.7700	 3931.00	 3751.08	-1563.08	  359.85
    117.8700	 3600.00	 3398.66	-1541.66	  359.96
    117.9700	 3201.00	 3065.90	-1607.90	  360.07
    118.0700	 2848.00	 2756.04	-1651.04	  360.19
    118.1700	 2510.00	 2471.33	-1704.33	  360.31
    118.2700	 2243.00	 2212.99	-1712.99	  360.44
    118.3700	 1949.00	 1981.22	-1775.22	  360.57
    118.4700	 1740.00	 1775.63	-1778.63	  360.71
    118.5700	 1456.00	 1595.08	-1882.08	  360.85
    118.6700	 1411.00	 1438.06	-1770.06	  361.00
    118.7700	 1288.00	 1302.72	-1757.72	  361.15
    118.8700	 1078.00	 1186.97	-1851.97	  361.31
    118.9700	 1037.00	 1088.71	-1794.71	  361.47
    119.0700	  956.00	 1005.76	-1792.76	  361.64
    119.1700	  911.00	  936.11	-1768.11	  361.82
    119.2700	  827.00	  877.86	-1793.86	  362.00
    119.3700	  782.00	  829.26	-1790.26	  362.19
    119.4700	  773.00	  788.80	-1758.80	  362.38
    119.5700	  776.00	  755.12	-1722.12	  362.58
    119.6700	  715.00	  727.08	-1755.08	  362.79
    119.7700	  679.00	  703.72	-1767.72	  363.00
    119.8700	  624.00	  684.23	-1803.23	  363.21
    119.9700	  597.00	  667.94	-1813.94	  363.44
    120.0700	  655.00	  654.31	-1742.31	  363.66
    120.1700	  603.00	  642.90	-1782.90	  363.90
    120.2700	  613.00	  633.35	-1763.35	  364.14
    120.3700	  601.00	  625.38	-1767.38	  364.39
    120.4700	  596.00	  618.78	-1765.78	  364.64
    120.5700	  576.00	  613.35	-1780.35	  364.90
    120.6700	  605.00	  608.96	-1746.96	  365.17
    120.7700	  576.00	  605.49	-1772.49	  365.44
    120.8700	  616.00	  602.86	-1729.86	  365.72
    120.9700	  565.00	  601.00	-1779.00	  366.01
    121.0700	  577.00	  599.85	-1765.85	  366.30
    121.1700	  585.00	  599.34	-1757.34	  366.60
    121.2700	  622.00	  599.45	-1720.45	  366.90
    121.3700	  551.00	  600.12	-1792.12	  367.22
    121.4700	  576.00	  601.30	-1768.30	  367.54
    121.5700	  588.00	  602.94	-1757.94	  367.86
    121.6700	  618.00	  604.99	-1729.99	  368.20
    121.7700	  604.00	  607.38	-1746.38	  368.54
    121.8700	  619.00	  610.05	-1734.05	  368.89
    121.9700	  615.00	  612.90	-1740.90	  369.24
    122.0700	  660.00	  615.88	-1698.88	  369.60
    122.1700	  625.00	  618.90	-1736.90	  369.97
    122.2700	  623.00	  621.85	-1741.85	  370.35
    122.3700	  634.00	  624.65	-1733.65	  370.73
    122.4700	  640.00	  627.19	-1730.19	  371.12
    122.5700	  658.00	  629.38	-1714.38	  371.52
    122.6700	  628.00	  631.14	-1746.14	  371.93
    122.7700	  608.00	  632.43	-1767.43	  372.34
    122.8700	  665.00	  633.18	-1711.18	  372.77
    122.9700	  628.00	  633.37	-1748.37	  373.19
    123.0700	  664.00	  633.02	-1712.02	  373.63
    123.1700	  639.00	  632.13	-1736.13	  374.08
    123.2700	  671.00	  630.76	-1702.76	  374.53
    123.3700	  602.00	  628.96	-1769.96	  374.99
    123.4700	  622.00	  626.79	-1747.79	  375.46
    123.5700	  638.00	  624.32	-1729.32	  375.94
    123.6700	  628.00	  621.61	-1736.61	  376.42
    123.7700	  635.00	  618.73	-1726.73	  376.92
    123.8700	  618.00	  615.74	-1740.74	  377.42
    123.9700	  599.00	  612.71	-1756.71	  377.93
    124.0700	  626.00	  609.69	-1726.69	  378.45
    124.1700	  646.00	  606.71	-1703.71	  378.97
    124.2700	  582.00	  603.83	-1764.83	  379.51
    124.3700	  539.00	  601.07	-1805.07	  380.05
    124.4700	  620.00	  598.46	-1721.46	  380.61
    124.5700	  587.00	  596.01	-1752.01	  381.17
    124.6700	  586.00	  593.75	-1750.75	  381.74
    124.7700	  590.00	  591.69	-1744.69	  382.32
    124.8700	  612.00	  589.84	-1720.84	  382.91
    124.9700	  591.00	  503.06	-1655.06	  383.50
    125.0700	  554.00	  503.67	-1743.00	  384.11
    125.1700	  630.00	  504.28	-1743.00	  384.72
    125.2700	  553.00	  504.91	-1743.00	  385.35
    125.3700	  580.00	  505.54	-1743.00	  385.98
    125.4700	  565.00	  506.18	-1743.00	  386.62
    125.5700	  586.00	  506.84	-1743.00	  387.28
    125.6700	  553.00	  507.50	-1743.00	  387.94
    125.7700	  527.00	  508.17	-1743.00	  388.61
    125.8700	  599.00	  508.85	-1743.00	  389.29
    125.9700	  532.00	  509.54	-1743.00	  389.98
    126.0700	  596.00	  510.24	-1743.00	  390.68
    126.1700	  587.00	  510.95	-1743.00	  391.39
    126.2700	  587.00	  511.67	-1743.00	  392.11
    126.3700	  619.00	  512.40	-1743.00	  392.84
    126.4700	  578.00	  513.14	-1743.00	  393.58
    126.5700	  584.00	  513.89	-1743.00	  394.33
    126.6700	  628.00	  514.65	-1743.00	  395.09
    126.7700	  610.00	  515.42	-1743.00	  395.86
    126.8700	  666.00	  516.20	-1743.00	  396.64
    126.9700	  620.00	  516.99	-1743.00	  397.43
    127.0700	  612.00	  517.79	-1743.00	  398.23
    127.1700	  679.00	  518.60	-1743.00	  399.04
    127.2700	  704.00	  519.42	-1743.00	  399.87
    127.3700	  650.00	  520.26	-1743.00	  400.70
    127.4700	  624.00	  521.10	-1743.00	  401.54
    127.5700	  685.00	  521.95	-1743.00	  402.40
    127.6700	  715.00	  522.82	-1743.00	  403.26
    127.7700	  701.00	  523.69	-1743.00	  404.14
    127.8700	  726.00	  524.58	-1743.00	  405.02
    127.9700	  750.00	  525.48	-1743.00	  405.92
    128.0700	  756.00	  526.39	-1743.00	  406.83
    128.1700	  773.00	  527.31	-1743.00	  407.75
    128.2700	  738.00	  528.24	-1743.00	  408.68
    128.3700	  797.00	  529.18	-1743.00	  409.62
    128.4700	  798.00	  530.14	-1743.00	  410.58
    128.5700	    0.00	  531.10	-1743.00	  411.54
    128.6700	    0.00	  532.08	-1743.00	  412.52
     12.3085	        	        	        	        	       0	(  0  0  2)	  0  1
     24.8873	        	        	        	        	       0	(  0  0  4)	  0  1
     28.3338	        	        	        	        	       0	(  1  0  0)	  0  1
     29.0306	        	        	        	        	       0	(  1  0  1)	  0  1
     31.0358	        	        	        	        	       0	(  1  0  2)	  0  1
     34.1425	        	        	        	        	       0	(  1  0  3)	  0  1
     37.7818	        	        	        	        	       0	(  0  0  6)	  0  1
     38.1177	        	        	        	        	       0	(  1  0  4)	  0  1
     42.7655	        	        	        	        	       0	(  1  0  5)	  0  1
     47.9471	        	        	        	        	       0	(  1  0  6)	  0  1
     50.2674	        	        	        	        	       0	(  1  1  0)	  0  1
     51.1980	        	        	        	        	       0	(  0  0  8)	  0  1
     51.9895	        	        	        	        	       0	(  1  1  2)	  0  1
     53.5748	        	        	        	        	       0	(  1  0  7)	  0  1
     56.9346	        	        	        	        	       0	(  1  1  4)	  0  1
     58.7630	        	        	        	        	       0	(  2  0  0)	  0  1
     59.1544	        	        	        	        	       0	(  2  0  1)	  0  1
     59.6022	        	        	        	        	       0	(  1  0  8)	  0  1
     60.3191	        	        	        	        	       0	(  2  0  2)	  0  1
     62.2312	        	        	        	        	       0	(  2  0  3)	  0  1
     64.6250	        	        	        	        	       0	(  1  1  6)	  0  1
     64.8537	        	        	        	        	       0	(  2  0  4)	  0  1
     65.4203	        	        	        	        	       0	(  0  0 10)	  0  1
     66.0152	        	        	        	        	       0	(  1  0  9)	  0  1
     68.1460	        	        	        	        	       0	(  2  0  5)	  0  1
     72.0712	        	        	        	        	       0	(  2  0  6)	  0  1
     72.8275	        	        	        	        	       0	(  1  0 10)	  0  1
     74.6568	        	        	        	        	       0	(  1  1  8)	  0  1
     76.6025	        	        	        	        	       0	(  2  0  7)	  0  1
     80.0808	        	        	        	        	       0	(  1  0 11)	  0  1
     80.8918	        	        	        	        	       0	(  0  0 12)	  0  1
     80.9998	        	        	        	        	       0	(  2  1  0)	  0  1
     81.3395	        	        	        	        	       0	(  2  1  1)	  0  1
     81.7295	        	        	        	        	       0	(  2  0  8)	  0  1
     82.3567	        	        	        	        	       0	(  2  1  2)	  0  1
     84.0469	        	        	        	        	       0	(  2  1  3)	  0  1
     86.4049	        	        	        	        	       0	(  2  1  4)	  0  1
     86.9203	        	        	        	        	       0	(  1  1 10)	  0  1
     87.4637	        	        	        	        	       0	(  2  0  9)	  0  1
     87.8499	        	        	        	        	       0	(  1  0 12)	  0  1
     89.4286	        	        	        	        	       0	(  2  1  5)	  0  1
     93.1234	        	        	        	        	       0	(  2  1  6)	  0  1
     93.8465	        	        	        	        	       0	(  2  0 10)	  0  1
     94.8852	        	        	        	        	       0	(  3  0  0)	  0  1
     95.2223	        	        	        	        	       0	(  3  0  1)	  0  1
     96.2348	        	        	        	        	       0	(  3  0  2)	  0  1
     96.2568	        	        	        	        	       0	(  1  0 13)	  0  1
     97.5088	        	        	        	        	       0	(  2  1  7)	  0  1
     97.9268	        	        	        	        	       0	(  3  0  3)	  0  1
     98.4183	        	        	        	        	       0	(  0  0 14)	  0  1
    100.3080	        	        	        	        	       0	(  3  0  4)	  0  1
    100.9627	        	        	        	        	       0	(  2  0 11)	  0  1
    101.7792	        	        	        	        	       0	(  1  1 12)	  0  1
    102.6271	        	        	        	        	       0	(  2  1  8)	  0  1
    103.3972	        	        	        	        	       0	(  3  0  5)	  0  1
    105.5013	        	        	        	        	       0	(  1  0 14)	  0  1
    107.2291	        	        	        	        	       0	(  3  0  6)	  0  1
    108.5588	        	        	        	        	       0	(  2  1  9)	  0  1
    108.9667	        	        	        	        	       0	(  2  0 12)	  0  1
    111.8653	        	        	        	        	       0	(  3  0  7)	  0  1
    115.4489	        	        	        	        	       0	(  2  1 10)	  0  1
    115.9333	        	        	        	        	       0	(  1  0 15)	  0  1
    116.6025	        	        	        	        	       0	(  2  2  0)	  0  1
    117.4133	        	        	        	        	       0	(  3  0  8)	  0  1
    118.1162	        	        	        	        	       0	(  2  2  2)	  0  1
    118.1411	        	        	        	        	       0	(  2  0 13)	  0  1
    119.8833	        	        	        	        	       0	(  0  0 16)	  0  1
    120.6034	        	        	        	        	       0	(  1  1 14)	  0  1
    122.7971	        	        	        	        	       0	(  2  2  4)	  0  1
    123.5666	        	        	        	        	       0	(  2  1 11)	  0  1
    124.0659	        	        	        	        	       0	(  3  0  9)	  0  1
    124.6636	        	        	        	        	       0	(  3  1  0)	  0  1
    125.0733	        	        	        	        	       0	(  3  1  1)	  0  1
    126.3154	        	        	        	        	       0	(  3  1  2)	  0  1
    128.2589	        	        	        	        	       0	(  1  0 16)	  0  1
    128.4313	        	        	        	        	       0	(  3  1  3)	  0  1
    129.0558	        	        	        	        	       0	(  2  0 14)	  0  1
    131.2271	        	        	        	        	       0	(  2  2  6)	  0  1
    131.5035	        	        	        	        	       0	(  3  1  4)	  0  1
    132.1956	        	        	        	        	       0	(  3  0 10)	  0  1
    133.4645	        	        	        	        	       0	(  2  1 12)	  0  1
    135.6849	        	        	        	        	       0	(  3  1  5)	  0  1
    141.2715	        	        	        	        	       0	(  3  1  6)	  0  1
    142.6552	        	        	        	        	       0	(  3  0 11)	  0  1
    143.1665	        	        	        	        	       0	(  2  0 15)	  0  1
    144.3913	        	        	        	        	       0	(  1  0 17)	  0  1
    145.4373	        	        	        	        	       0	(  2  2  8)	  0  1
    146.5915	        	        	        	        	       0	(  2  1 13)	  0  1
    148.9288	        	        	        	        	       0	(  3  1  7)	  0  1
    149.4760	        	        	        	        	       0	(  1  1 16)	  0  1
    153.8432	        	        	        	        	       0	(  0  0 18)	  0  1
    158.4782	        	        	        	        	       0	(  3  0 12)	  0  1
    158.7727	        	        	        	        	       0	(  4  0  0)	  0  1
    159.7256	        	        	        	        	       0	(  4  0  1)	  0  1
    160.8773	        	        	        	        	       0	(  3  1  8)	  0  1
    162.8884	        	        	        	        	       0	(  4  0  2)	  0  1
    169.3914	        	        	        	        	       0	(  2  0 16)	  0  1
    170.1611	        	        	        	        	       0	(  4  0  3)	  0  1
    173.6719	        	        	        	        	       0	(  2  1 14)	  0  1
