MSG Master    CELL:    5.91916   5.91916  23.26917   90.0000   90.0000  120.0000   SPGR: P 63/m m c             TEMP:   1074.85
  1   1280     2.52000     0.00000    -0.12735     0.00000     0.00000    0
    99     0     2
       0.00000      10.00000
     125.00000     130.00000
 2Theta	Yobs	Ycal	Yobs-Ycal	Backg	Posr	(hkl)	K
      0.7700	    0.00	  540.39	-1752.50	  422.91
      0.8700	    0.00	  541.16	-1752.50	  423.68
      0.9700	   44.00	  541.91	-1752.50	  424.43
      1.0700	   31.00	  542.66	-1752.50	  425.18
      1.1700	   43.00	  543.39	-1752.50	  425.91
      1.2700	   42.00	  544.11	-1752.50	  426.63
      1.3700	   41.00	  544.82	-1752.50	  427.34
      1.4700	   76.00	  545.52	-1752.50	  428.04
      1.5700	  289.00	  546.21	-1752.50	  428.73
      1.6700	  432.00	  546.89	-1752.50	  429.41
      1.7700	  576.00	  547.56	-1752.50	  430.08
      1.8700	  702.00	  548.22	-1752.50	  430.74
      1.9700	  733.00	  548.86	-1752.50	  431.38
      2.0700	  790.00	  549.50	-1752.50	  432.02
      2.1700	  777.00	  550.13	-1752.50	  432.65
      2.2700	  746.00	  550.74	-1752.50	  433.26
      2.3700	  742.00	  551.35	-1752.50	  433.87
      2.4700	  766.00	  551.94	-1752.50	  434.46
      2.5700	  694.00	  552.53	-1752.50	  435.05
      2.6700	  669.00	  553.10	-1752.50	  435.62
      2.7700	  665.00	  553.67	-1752.50	  436.19
      2.8700	  618.00	  554.22	-1752.50	  436.75
      2.9700	  621.00	  554.77	-1752.50	  437.29
      3.0700	  548.00	  555.31	-1752.50	  437.83
      3.1700	  588.00	  555.83	-1752.50	  438.35
      3.2700	  593.00	  556.35	-1752.50	  438.87
      3.3700	  727.00	  556.86	-1752.50	  439.38
      3.4700	  734.00	  557.35	-1752.50	  439.87
      3.5700	  787.00	  557.84	-1752.50	  440.36
      3.6700	  809.00	  558.32	-1752.50	  440.84
      3.7700	  868.00	  558.79	-1752.50	  441.31
      3.8700	  900.00	  559.25	-1752.50	  441.77
      3.9700	 1048.00	  559.70	-1752.50	  442.22
      4.0700	 1053.00	  560.15	-1752.50	  442.67
      4.1700	 1101.00	  560.58	-1752.50	  443.10
      4.2700	 1143.00	  561.00	-1752.50	  443.53
      4.3700	 1103.00	  561.42	-1752.50	  443.94
      4.4700	 1034.00	  561.83	-1752.50	  444.35
      4.5700	 1067.00	  562.22	-1752.50	  444.75
      4.6700	 1006.00	  562.61	-1752.50	  445.14
      4.7700	  967.00	  563.00	-1752.50	  445.52
      4.8700	  957.00	  563.37	-1752.50	  445.89
      4.9700	  898.00	  563.73	-1752.50	  446.25
      5.0700	  997.00	  564.09	-1752.50	  446.61
      5.1700	  903.00	  564.44	-1752.50	  446.96
      5.2700	  866.00	  564.78	-1752.50	  447.30
      5.3700	  841.00	  565.11	-1752.50	  447.63
      5.4700	  920.00	  565.43	-1752.50	  447.95
      5.5700	  896.00	  565.74	-1752.50	  448.27
      5.6700	  833.00	  566.05	-1752.50	  448.57
      5.7700	  864.00	  566.35	-1752.50	  448.87
      5.8700	  839.00	  566.64	-1752.50	  449.16
      5.9700	  822.00	  566.93	-1752.50	  449.45
      6.0700	  838.00	  567.20	-1752.50	  449.72
      6.1700	  791.00	  567.47	-1752.50	  449.99
      6.2700	  795.00	  567.73	-1752.50	  450.25
      6.3700	  771.00	  567.98	-1752.50	  450.50
      6.4700	  780.00	  568.23	-1752.50	  450.75
      6.5700	  725.00	  568.47	-1752.50	  450.99
      6.6700	  751.00	  568.70	-1752.50	  451.22
      6.7700	  723.00	  568.92	-1752.50	  451.44
      6.8700	  727.00	  569.14	-1752.50	  451.66
      6.9700	  735.00	  569.35	-1752.50	  451.87
      7.0700	  729.00	  569.55	-1752.50	  452.07
      7.1700	  669.00	  569.74	-1752.50	  452.26
      7.2700	  688.00	  569.93	-1752.50	  452.45
      7.3700	  606.00	  570.11	-1752.50	  452.63
      7.4700	  679.00	  570.29	-1752.50	  452.81
      7.5700	  646.00	  570.45	-1752.50	  452.97
      7.6700	  670.00	  570.61	-1752.50	  453.13
      7.7700	  678.00	  570.77	-1752.50	  453.29
      7.8700	  672.00	  570.91	-1752.50	  453.44
      7.9700	  634.00	  571.05	-1752.50	  453.58
      8.0700	  666.00	  571.19	-1752.50	  453.71
      8.1700	  595.00	  571.32	-1752.50	  453.84
      8.2700	  616.00	  571.44	-1752.50	  453.96
      8.3700	  633.00	  571.55	-1752.50	  454.07
      8.4700	  604.00	  571.66	-1752.50	  454.18
      8.5700	  686.00	  571.76	-1752.50	  454.28
      8.6700	  588.00	  571.86	-1752.50	  454.38
      8.7700	  640.00	  571.95	-1752.50	  454.47
      8.8700	  594.00	  572.03	-1752.50	  454.55
      8.9700	  622.00	  572.11	-1752.50	  454.63
      9.0700	  594.00	  572.18	-1752.50	  454.70
      9.1700	  577.00	  572.25	-1752.50	  454.77
      9.2700	  606.00	  572.31	-1752.50	  454.83
      9.3700	  552.00	  572.36	-1752.50	  454.89
      9.4700	  595.00	  572.41	-1752.50	  454.93
      9.5700	  599.00	  572.46	-1752.50	  454.98
      9.6700	  607.00	  572.49	-1752.50	  455.01
      9.7700	  665.00	  572.52	-1752.50	  455.05
      9.8700	  593.00	  572.55	-1752.50	  455.07
      9.9700	  631.00	  572.57	-1752.50	  455.09
     10.0700	  541.00	  573.27	-1784.77	  455.11
     10.1700	  605.00	  573.34	-1720.84	  455.12
     10.2700	  570.00	  573.43	-1755.94	  455.12
     10.3700	  587.00	  573.55	-1739.05	  455.12
     10.4700	  586.00	  573.70	-1740.20	  455.12
     10.5700	  596.00	  573.95	-1730.45	  455.11
     10.6700	  553.00	  574.38	-1773.88	  455.09
     10.7700	  579.00	  575.11	-1748.61	  455.07
     10.8700	  600.00	  576.19	-1728.69	  455.04
     10.9700	  626.00	  577.62	-1704.12	  455.01
     11.0700	  636.00	  579.36	-1695.86	  454.98
     11.1700	  579.00	  581.41	-1754.91	  454.94
     11.2700	  579.00	  583.79	-1757.29	  454.89
     11.3700	  564.00	  586.57	-1775.07	  454.84
     11.4700	  619.00	  589.89	-1723.39	  454.79
     11.5700	  613.00	  593.91	-1733.41	  454.73
     11.6700	  592.00	  598.96	-1759.46	  454.66
     11.7700	  616.00	  605.59	-1742.09	  454.59
     11.8700	  681.00	  614.72	-1686.22	  454.52
     11.9700	  634.00	  627.15	-1745.65	  454.44
     12.0700	  699.00	  641.59	-1695.09	  454.36
     12.1700	  622.00	  652.15	-1782.65	  454.27
     12.2700	  718.00	  649.18	-1683.68	  454.18
     12.3700	  659.00	  629.65	-1723.15	  454.09
     12.4700	  604.00	  605.86	-1754.36	  453.99
     12.5700	  604.00	  588.83	-1737.33	  453.89
     12.6700	  572.00	  579.95	-1760.45	  453.78
     12.7700	  575.00	  576.13	-1753.63	  453.67
     12.8700	  576.00	  574.46	-1750.96	  453.55
     12.9700	  523.00	  573.55	-1803.05	  453.43
     13.0700	  507.00	  572.92	-1818.42	  453.31
     13.1700	  553.00	  572.43	-1771.93	  453.18
     13.2700	  611.00	  572.02	-1713.52	  453.05
     13.3700	  520.00	  571.68	-1804.18	  452.92
     13.4700	  583.00	  571.38	-1740.88	  452.78
     13.5700	  555.00	  571.11	-1768.61	  452.63
     13.6700	  568.00	  570.86	-1755.36	  452.49
     13.7700	  510.00	  570.62	-1813.12	  452.34
     13.8700	  564.00	  570.40	-1758.90	  452.19
     13.9700	  553.00	  570.18	-1769.68	  452.03
     14.0700	  529.00	  569.97	-1793.47	  451.87
     14.1700	  593.00	  569.76	-1729.26	  451.70
     14.2700	  573.00	  569.55	-1749.05	  451.54
     14.3700	  570.00	  569.35	-1751.85	  451.37
     14.4700	  591.00	  569.15	-1730.65	  451.19
     14.5700	  591.00	  568.95	-1730.45	  451.02
     14.6700	  536.00	  568.74	-1785.24	  450.84
     14.7700	  554.00	  568.54	-1767.04	  450.65
     14.8700	  543.00	  568.34	-1777.84	  450.47
     14.9700	  569.00	  568.13	-1751.63	  450.28
     15.0700	  552.00	  567.92	-1768.42	  450.08
     15.1700	  533.00	  567.72	-1787.22	  449.89
     15.2700	  518.00	  567.51	-1802.01	  449.69
     15.3700	  540.00	  567.29	-1779.79	  449.49
     15.4700	  552.00	  567.08	-1767.58	  449.28
     15.5700	  520.00	  566.86	-1799.36	  449.08
     15.6700	  532.00	  566.64	-1787.14	  448.87
     15.7700	  604.00	  566.42	-1714.92	  448.65
     15.8700	  565.00	  566.20	-1753.70	  448.44
     15.9700	  536.00	  565.98	-1782.48	  448.22
     16.0700	  576.00	  565.75	-1742.25	  448.00
     16.1700	  579.00	  565.52	-1739.02	  447.78
     16.2700	  569.00	  565.29	-1748.79	  447.55
     16.3700	  590.00	  565.08	-1727.58	  447.32
     16.4700	  537.00	  564.85	-1780.35	  447.09
     16.5700	  536.00	  564.61	-1781.11	  446.86
     16.6700	  590.00	  564.37	-1726.87	  446.62
     16.7700	  508.00	  564.13	-1808.63	  446.38
     16.8700	  551.00	  563.89	-1765.39	  446.14
     16.9700	  542.00	  563.64	-1774.14	  445.90
     17.0700	  608.00	  563.39	-1707.89	  445.65
     17.1700	  558.00	  563.14	-1757.64	  445.41
     17.2700	  581.00	  562.89	-1734.39	  445.16
     17.3700	  564.00	  562.64	-1751.14	  444.91
     17.4700	  577.00	  562.38	-1737.88	  444.65
     17.5700	  563.00	  562.13	-1751.63	  444.40
     17.6700	  555.00	  561.87	-1759.37	  444.14
     17.7700	  594.00	  561.61	-1720.11	  443.88
     17.8700	  551.00	  561.34	-1762.84	  443.62
     17.9700	  531.00	  561.18	-1782.68	  443.35
     18.0700	  565.00	  560.92	-1748.42	  443.09
     18.1700	  586.00	  560.65	-1727.15	  442.82
     18.2700	  596.00	  560.39	-1716.89	  442.55
     18.3700	  593.00	  560.12	-1719.62	  442.28
     18.4700	  549.00	  559.85	-1763.35	  442.01
     18.5700	  531.00	  559.57	-1781.07	  441.73
     18.6700	  549.00	  559.30	-1762.80	  441.45
     18.7700	  540.00	  559.03	-1771.53	  441.18
     18.8700	  506.00	  558.83	-1805.33	  440.90
     18.9700	  555.00	  558.55	-1756.05	  440.62
     19.0700	  624.00	  558.28	-1686.78	  440.33
     19.1700	  562.00	  558.00	-1748.50	  440.05
     19.2700	  548.00	  557.72	-1762.22	  439.76
     19.3700	  539.00	  557.44	-1770.94	  439.48
     19.4700	  537.00	  557.15	-1772.65	  439.19
     19.5700	  566.00	  556.87	-1743.37	  438.90
     19.6700	  562.00	  556.59	-1747.09	  438.61
     19.7700	  571.00	  556.30	-1737.80	  438.31
     19.8700	  524.00	  556.02	-1784.52	  438.02
     19.9700	  542.00	  555.73	-1766.23	  437.72
     20.0700	  575.00	  555.44	-1732.94	  437.43
     20.1700	  590.00	  555.15	-1717.65	  437.13
     20.2700	  522.00	  554.86	-1785.36	  436.83
     20.3700	  556.00	  554.57	-1751.07	  436.53
     20.4700	  492.00	  554.26	-1814.76	  436.23
     20.5700	  556.00	  553.97	-1750.47	  435.93
     20.6700	  567.00	  553.68	-1739.18	  435.62
     20.7700	  568.00	  553.39	-1737.89	  435.32
     20.8700	  520.00	  553.09	-1785.59	  435.02
     20.9700	  550.00	  552.84	-1755.34	  434.71
     21.0700	  519.00	  552.55	-1786.05	  434.40
     21.1700	  587.00	  552.26	-1717.76	  434.09
     21.2700	  546.00	  551.97	-1758.47	  433.79
     21.3700	  513.00	  551.68	-1791.18	  433.48
     21.4700	  538.00	  551.39	-1765.89	  433.17
     21.5700	  581.00	  551.10	-1722.60	  432.85
     21.6700	  586.00	  550.81	-1717.31	  432.54
     21.7700	  533.00	  550.52	-1770.02	  432.23
     21.8700	  574.00	  550.23	-1728.73	  431.92
     21.9700	  534.00	  549.95	-1768.45	  431.60
     22.0700	  518.00	  549.66	-1784.16	  431.29
     22.1700	  603.00	  549.38	-1698.88	  430.97
     22.2700	  569.00	  549.10	-1732.60	  430.66
     22.3700	  540.00	  548.83	-1761.33	  430.34
     22.4700	  502.00	  548.55	-1799.05	  430.02
     22.5700	  558.00	  548.28	-1742.78	  429.71
     22.6700	  586.00	  548.02	-1714.52	  429.39
     22.7700	  564.00	  547.76	-1736.26	  429.07
     22.8700	  553.00	  547.50	-1747.00	  428.75
     22.9700	  563.00	  547.26	-1736.76	  428.43
     23.0700	  513.00	  547.03	-1786.53	  428.11
     23.1700	  567.00	  546.81	-1732.31	  427.79
     23.2700	  512.00	  546.60	-1787.10	  427.47
     23.3700	  542.00	  546.42	-1756.92	  427.15
     23.4700	  605.00	  546.26	-1693.76	  426.83
     23.5700	  557.00	  546.15	-1741.65	  426.51
     23.6700	  568.00	  546.08	-1730.58	  426.19
     23.7700	  568.00	  546.11	-1730.61	  425.87
     23.8700	  557.00	  546.44	-1741.94	  425.55
     23.9700	  581.00	  547.02	-1718.52	  425.22
     24.0700	  540.00	  548.35	-1760.85	  424.90
     24.1700	  530.00	  551.04	-1773.54	  424.58
     24.2700	  550.00	  555.87	-1758.37	  424.26
     24.3700	  556.00	  563.74	-1760.24	  423.94
     24.4700	  567.00	  575.66	-1761.16	  423.62
     24.5700	  605.00	  592.11	-1739.61	  423.29
     24.6700	  639.00	  610.70	-1724.20	  422.97
     24.7700	  641.00	  623.97	-1735.47	  422.65
     24.8700	  636.00	  621.57	-1738.07	  422.33
     24.9700	  575.00	  601.82	-1779.32	  422.01
     25.0700	  617.00	  577.69	-1713.19	  421.68
     25.1700	  565.00	  559.87	-1747.37	  421.36
     25.2700	  543.00	  550.12	-1759.62	  421.04
     25.3700	  534.00	  545.72	-1764.22	  420.72
     25.4700	  591.00	  543.80	-1705.30	  420.40
     25.5700	  569.00	  542.78	-1726.28	  420.08
     25.6700	  569.00	  542.12	-1725.62	  419.76
     25.7700	  549.00	  541.63	-1745.13	  419.44
     25.8700	  584.00	  541.26	-1709.76	  419.12
     25.9700	  572.00	  540.98	-1721.48	  418.80
     26.0700	  529.00	  540.78	-1764.28	  418.48
     26.1700	  575.00	  540.66	-1718.16	  418.16
     26.2700	  576.00	  540.60	-1717.10	  417.84
     26.3700	  635.00	  540.61	-1658.11	  417.52
     26.4700	  555.00	  540.71	-1738.21	  417.21
     26.5700	  506.00	  540.90	-1787.40	  416.89
     26.6700	  557.00	  541.21	-1736.71	  416.57
     26.7700	  520.00	  541.65	-1774.15	  416.26
     26.8700	  572.00	  542.26	-1722.76	  415.94
     26.9700	  563.00	  543.10	-1732.60	  415.62
     27.0700	  537.00	  544.25	-1759.75	  415.31
     27.1700	  527.00	  545.84	-1771.34	  414.99
     27.2700	  542.00	  548.12	-1758.62	  414.68
     27.3700	  580.00	  551.62	-1724.12	  414.37
     27.4700	  575.00	  557.31	-1734.81	  414.06
     27.5700	  522.00	  566.96	-1797.46	  413.74
     27.6700	  546.00	  583.34	-1789.84	  413.43
     27.7700	  548.00	  609.97	-1814.47	  413.12
     27.8700	  585.00	  649.84	-1817.34	  412.81
     27.9700	  703.00	  702.92	-1752.42	  412.50
     28.0700	  825.00	  762.98	-1690.48	  412.19
     28.1700	  906.00	  814.91	-1661.41	  411.89
     28.2700	  947.00	  836.22	-1641.72	  411.58
     28.3700	  905.00	  814.16	-1661.66	  411.27
     28.4700	  802.00	  770.38	-1720.88	  410.97
     28.5700	  700.00	  739.70	-1792.20	  410.66
     28.6700	  690.00	  737.87	-1800.37	  410.36
     28.7700	  731.00	  760.16	-1781.66	  410.06
     28.8700	  756.00	  787.00	-1783.50	  409.75
     28.9700	  833.00	  790.90	-1710.40	  409.45
     29.0700	  793.00	  754.61	-1714.11	  409.15
     29.1700	  691.00	  693.55	-1755.05	  408.85
     29.2700	  632.00	  635.57	-1756.07	  408.55
     29.3700	  614.00	  593.84	-1732.34	  408.26
     29.4700	  602.00	  568.66	-1719.16	  407.96
     29.5700	  605.00	  555.06	-1702.56	  407.66
     29.6700	  607.00	  547.88	-1693.38	  407.37
     29.7700	  592.00	  543.82	-1704.32	  407.07
     29.8700	  587.00	  541.28	-1706.78	  406.78
     29.9700	  555.00	  539.68	-1737.18	  406.49
     30.0700	  605.00	  538.88	-1686.38	  406.20
     30.1700	  516.00	  539.05	-1775.55	  405.91
     30.2700	  561.00	  540.73	-1732.23	  405.62
     30.3700	  562.00	  545.02	-1735.52	  405.33
     30.4700	  550.00	  553.59	-1756.09	  405.05
     30.5700	  579.00	  568.19	-1741.69	  404.76
     30.6700	  589.00	  589.37	-1752.87	  404.48
     30.7700	  550.00	  614.51	-1817.01	  404.19
     30.8700	  614.00	  636.46	-1774.96	  403.91
     30.9700	  593.00	  644.22	-1803.72	  403.63
     31.0700	  630.00	  630.32	-1752.82	  403.35
     31.1700	  577.00	  602.08	-1777.58	  403.07
     31.2700	  585.00	  573.85	-1741.35	  402.79
     31.3700	  558.00	  553.08	-1747.58	  402.52
     31.4700	  519.00	  540.55	-1774.05	  402.24
     31.5700	  548.00	  533.91	-1738.41	  401.97
     31.6700	  563.00	  530.52	-1720.02	  401.70
     31.7700	  525.00	  528.65	-1756.15	  401.42
     31.8700	  551.00	  527.47	-1728.97	  401.15
     31.9700	  512.00	  526.65	-1767.15	  400.89
     32.0700	  519.00	  526.06	-1759.56	  400.62
     32.1700	  532.00	  525.66	-1746.16	  400.35
     32.2700	  543.00	  525.41	-1734.91	  400.09
     32.3700	  536.00	  525.31	-1741.81	  399.82
     32.4700	  549.00	  525.37	-1728.87	  399.56
     32.5700	  542.00	  525.59	-1736.09	  399.30
     32.6700	  549.00	  526.00	-1729.50	  399.04
     32.7700	  520.00	  526.65	-1759.15	  398.78
     32.8700	  505.00	  527.60	-1775.10	  398.53
     32.9700	  546.00	  528.96	-1735.46	  398.27
     33.0700	  565.00	  530.94	-1718.44	  398.02
     33.1700	  566.00	  533.98	-1720.48	  397.76
     33.2700	  533.00	  539.10	-1758.60	  397.51
     33.3700	  546.00	  548.55	-1755.05	  397.26
     33.4700	  561.00	  566.73	-1758.23	  397.01
     33.5700	  585.00	  600.80	-1768.30	  396.77
     33.6700	  638.00	  659.13	-1773.63	  396.52
     33.7700	  803.00	  745.82	-1695.32	  396.28
     33.8700	  928.00	  851.79	-1676.29	  396.04
     33.9700	 1015.00	  948.64	-1686.14	  395.79
     34.0700	 1124.00	  992.26	-1620.76	  395.55
     34.1700	 1010.00	  949.68	-1692.18	  395.32
     34.2700	  905.00	  842.90	-1690.40	  395.08
     34.3700	  755.00	  727.80	-1725.30	  394.85
     34.4700	  601.00	  639.05	-1790.55	  394.61
     34.5700	  600.00	  583.72	-1736.22	  394.38
     34.6700	  558.00	  554.16	-1748.66	  394.15
     34.7700	  547.00	  539.51	-1745.01	  393.92
     34.8700	  533.00	  531.96	-1751.46	  393.69
     34.9700	  550.00	  527.47	-1729.97	  393.47
     35.0700	  559.00	  524.37	-1717.87	  393.24
     35.1700	  530.00	  522.03	-1744.53	  393.02
     35.2700	  515.00	  520.18	-1757.68	  392.80
     35.3700	  543.00	  518.69	-1728.19	  392.58
     35.4700	  529.00	  517.44	-1740.94	  392.36
     35.5700	  566.00	  516.39	-1702.89	  392.15
     35.6700	  508.00	  515.48	-1759.98	  391.93
     35.7700	  531.00	  514.70	-1736.20	  391.72
     35.8700	  519.00	  514.00	-1747.50	  391.51
     35.9700	  506.00	  513.88	-1760.38	  391.30
     36.0700	  488.00	  513.33	-1777.83	  391.09
     36.1700	  519.00	  512.84	-1746.34	  390.88
     36.2700	  485.00	  512.39	-1779.89	  390.68
     36.3700	  541.00	  511.99	-1723.49	  390.47
     36.4700	  469.00	  511.62	-1795.12	  390.27
     36.5700	  514.00	  511.29	-1749.79	  390.07
     36.6700	  562.00	  510.99	-1701.49	  389.87
     36.7700	  518.00	  510.74	-1745.24	  389.68
     36.8700	  487.00	  510.53	-1776.03	  389.48
     36.9700	  508.00	  510.43	-1754.93	  389.29
     37.0700	  517.00	  510.51	-1746.01	  389.10
     37.1700	  494.00	  510.98	-1769.48	  388.91
     37.2700	  561.00	  512.15	-1703.65	  388.72
     37.3700	  514.00	  514.35	-1752.85	  388.53
     37.4700	  493.00	  517.67	-1777.17	  388.35
     37.5700	  526.00	  521.62	-1748.12	  388.17
     37.6700	  528.00	  525.04	-1749.54	  387.99
     37.7700	  512.00	  526.49	-1766.99	  387.81
     37.8700	  479.00	  525.47	-1798.97	  387.63
     37.9700	  508.00	  522.93	-1767.43	  387.45
     38.0700	  568.00	  519.79	-1704.29	  387.28
     38.1700	  518.00	  516.40	-1750.90	  387.10
     38.2700	  506.00	  513.18	-1759.68	  386.93
     38.3700	  516.00	  510.60	-1747.10	  386.76
     38.4700	  488.00	  508.77	-1773.27	  386.60
     38.5700	  466.00	  507.59	-1794.09	  386.43
     38.6700	  491.00	  506.87	-1768.37	  386.27
     38.7700	  468.00	  506.32	-1790.82	  386.11
     38.8700	  526.00	  506.00	-1732.50	  385.95
     38.9700	  558.00	  505.75	-1700.25	  385.79
     39.0700	  528.00	  505.53	-1730.03	  385.63
     39.1700	  481.00	  505.33	-1776.83	  385.48
     39.2700	  512.00	  505.07	-1745.57	  385.32
     39.3700	  477.00	  504.91	-1780.41	  385.17
     39.4700	  502.00	  504.75	-1755.25	  385.02
     39.5700	  471.00	  504.61	-1786.11	  384.87
     39.6700	  487.00	  504.47	-1769.97	  384.73
     39.7700	  480.00	  504.46	-1776.96	  384.58
     39.8700	  515.00	  504.35	-1741.85	  384.44
     39.9700	  480.00	  504.25	-1776.75	  384.30
     40.0700	  494.00	  504.15	-1762.65	  384.16
     40.1700	  466.00	  504.06	-1790.56	  384.02
     40.2700	  492.00	  503.99	-1764.49	  383.89
     40.3700	  532.00	  503.92	-1724.42	  383.75
     40.4700	  478.00	  503.87	-1778.37	  383.62
     40.5700	  482.00	  503.83	-1774.33	  383.49
     40.6700	  476.00	  503.81	-1780.31	  383.36
     40.7700	  507.00	  503.81	-1749.31	  383.24
     40.8700	  504.00	  503.83	-1752.33	  383.11
     40.9700	  496.00	  503.87	-1760.37	  382.99
     41.0700	  511.00	  503.94	-1745.44	  382.87
     41.1700	  480.00	  504.02	-1776.52	  382.75
     41.2700	  456.00	  504.18	-1800.68	  382.63
     41.3700	  518.00	  504.40	-1738.90	  382.52
     41.4700	  490.00	  504.70	-1767.20	  382.40
     41.5700	  510.00	  505.11	-1747.61	  382.29
     41.6700	  553.00	  506.09	-1705.59	  382.18
     41.7700	  471.00	  506.95	-1788.45	  382.07
     41.8700	  528.00	  508.38	-1732.88	  381.96
     41.9700	  540.00	  511.04	-1723.54	  381.86
     42.0700	  554.00	  516.29	-1714.79	  381.76
     42.1700	  497.00	  526.32	-1781.82	  381.66
     42.2700	  521.00	  543.91	-1775.41	  381.56
     42.3700	  554.00	  570.63	-1769.13	  381.46
     42.4700	  582.00	  604.79	-1775.29	  381.36
     42.5700	  647.00	  639.07	-1744.57	  381.27
     42.6700	  579.00	  661.14	-1834.64	  381.18
     42.7700	  601.00	  659.57	-1811.07	  381.08
     42.8700	  584.00	  634.26	-1802.76	  381.00
     42.9700	  520.00	  598.11	-1830.61	  380.91
     43.0700	  477.00	  564.10	-1839.60	  380.82
     43.1700	  518.00	  538.73	-1773.23	  380.74
     43.2700	  525.00	  522.81	-1750.31	  380.66
     43.3700	  520.00	  514.10	-1746.60	  380.58
     43.4700	  555.00	  509.70	-1707.20	  380.50
     43.5700	  515.00	  507.47	-1744.97	  380.42
     43.6700	  504.00	  506.22	-1754.72	  380.35
     43.7700	  474.00	  505.60	-1784.10	  380.28
     43.8700	  530.00	  505.03	-1727.53	  380.21
     43.9700	  468.00	  504.60	-1789.10	  380.14
     44.0700	  548.00	  504.28	-1708.78	  380.07
     44.1700	  476.00	  504.03	-1780.53	  380.00
     44.2700	  480.00	  503.87	-1776.37	  379.94
     44.3700	  505.00	  503.73	-1751.23	  379.88
     44.4700	  536.00	  503.63	-1720.13	  379.82
     44.5700	  573.00	  503.45	-1682.95	  379.76
     44.6700	  503.00	  503.42	-1752.92	  379.70
     44.7700	  503.00	  503.41	-1752.91	  379.65
     44.8700	  508.00	  503.43	-1747.93	  379.59
     44.9700	  465.00	  503.48	-1790.98	  379.54
     45.0700	  519.00	  503.54	-1737.04	  379.49
     45.1700	  499.00	  503.63	-1757.13	  379.44
     45.2700	  517.00	  503.92	-1739.42	  379.40
     45.3700	  514.00	  504.05	-1742.55	  379.35
     45.4700	  489.00	  504.20	-1767.70	  379.31
     45.5700	  481.00	  504.38	-1775.88	  379.27
     45.6700	  463.00	  504.58	-1794.08	  379.23
     45.7700	  525.00	  504.80	-1732.30	  379.19
     45.8700	  451.00	  505.06	-1806.56	  379.16
     45.9700	  496.00	  505.34	-1761.84	  379.12
     46.0700	  482.00	  505.66	-1776.16	  379.09
     46.1700	  489.00	  506.01	-1769.51	  379.06
     46.2700	  520.00	  506.40	-1738.90	  379.03
     46.3700	  516.00	  506.84	-1743.34	  379.00
     46.4700	  498.00	  507.34	-1761.84	  378.98
     46.5700	  477.00	  507.90	-1783.40	  378.95
     46.6700	  508.00	  508.55	-1753.05	  378.93
     46.7700	  541.00	  509.29	-1720.79	  378.91
     46.8700	  486.00	  510.19	-1776.69	  378.89
     46.9700	  491.00	  511.34	-1772.84	  378.87
     47.0700	  502.00	  512.97	-1763.47	  378.86
     47.1700	  534.00	  515.58	-1734.08	  378.84
     47.2700	  531.00	  520.03	-1741.53	  378.83
     47.3700	  516.00	  527.50	-1764.00	  378.82
     47.4700	  544.00	  539.07	-1747.57	  378.81
     47.5700	  571.00	  555.10	-1736.60	  378.80
     47.6700	  561.00	  574.10	-1765.60	  378.80
     47.7700	  615.00	  592.13	-1729.63	  378.79
     47.8700	  567.00	  603.40	-1788.90	  378.79
     47.9700	  601.00	  603.27	-1754.77	  378.79
     48.0700	  604.00	  592.46	-1740.96	  378.79
     48.1700	  554.00	  576.66	-1775.16	  378.79
     48.2700	  562.00	  561.65	-1752.15	  378.79
     48.3700	  509.00	  550.66	-1794.16	  378.80
     48.4700	  518.00	  544.64	-1779.14	  378.81
     48.5700	  551.00	  543.00	-1744.50	  378.81
     48.6700	  549.00	  544.59	-1748.09	  378.82
     48.7700	  556.00	  548.51	-1745.01	  378.84
     48.8700	  529.00	  554.32	-1777.82	  378.85
     48.9700	  541.00	  562.11	-1773.61	  378.86
     49.0700	  613.00	  572.62	-1712.12	  378.88
     49.1700	  569.00	  587.59	-1771.09	  378.90
     49.2700	  660.00	  610.61	-1703.11	  378.92
     49.3700	  632.00	  648.46	-1768.96	  378.94
     49.4700	  736.00	  712.49	-1728.99	  378.96
     49.5700	  832.00	  818.69	-1739.19	  378.98
     49.6700	  901.00	  985.43	-1836.93	  379.01
     49.7700	 1177.00	 1225.18	-1800.68	  379.04
     49.8700	 1399.00	 1535.88	-1889.38	  379.06
     49.9700	 1888.00	 1888.03	-1752.53	  379.09
     50.0700	 2303.00	 2215.98	-1665.48	  379.13
     50.1700	 2470.00	 2423.06	-1705.56	  379.16
     50.2700	 2436.00	 2423.97	-1740.47	  379.19
     50.3700	 2229.00	 2216.12	-1739.62	  379.23
     50.4700	 1915.00	 1885.95	-1723.45	  379.27
     50.5700	 1430.00	 1534.65	-1857.15	  379.31
     50.6700	 1069.00	 1228.66	-1912.16	  379.35
     50.7700	  836.00	  997.11	-1913.61	  379.39
     50.8700	  729.00	  841.35	-1864.85	  379.43
     50.9700	  676.00	  746.47	-1822.97	  379.47
     51.0700	  642.00	  691.73	-1802.23	  379.52
     51.1700	  662.00	  658.20	-1748.70	  379.57
     51.2700	  591.00	  633.27	-1794.77	  379.62
     51.3700	  620.00	  611.64	-1744.14	  379.67
     51.4700	  603.00	  592.65	-1742.15	  379.72
     51.5700	  567.00	  576.98	-1762.48	  379.77
     51.6700	  541.00	  565.04	-1776.54	  379.82
     51.7700	  597.00	  556.56	-1712.06	  379.88
     51.8700	  521.00	  550.84	-1782.34	  379.94
     51.9700	  559.00	  547.06	-1740.56	  379.99
     52.0700	  498.00	  544.59	-1799.09	  380.05
     52.1700	  537.00	  543.09	-1758.59	  380.12
     52.2700	  586.00	  542.43	-1708.93	  380.18
     52.3700	  530.00	  542.91	-1765.41	  380.24
     52.4700	  568.00	  544.47	-1728.97	  380.31
     52.5700	  574.00	  548.21	-1726.71	  380.37
     52.6700	  610.00	  556.09	-1698.59	  380.44
     52.7700	  585.00	  571.82	-1739.32	  380.51
     52.8700	  644.00	  601.40	-1709.90	  380.58
     52.9700	  684.00	  652.54	-1721.04	  380.65
     53.0700	  836.00	  732.13	-1648.63	  380.72
     53.1700	  898.00	  841.73	-1696.23	  380.79
     53.2700	  997.00	  972.34	-1727.84	  380.87
     53.3700	 1065.00	 1101.02	-1788.52	  380.95
     53.4700	 1166.00	 1192.76	-1779.26	  381.02
     53.5700	 1153.00	 1213.12	-1812.62	  381.10
     53.6700	 1085.00	 1152.65	-1820.15	  381.18
     53.7700	  949.00	 1036.42	-1839.92	  381.26
     53.8700	  890.00	  902.61	-1765.11	  381.34
     53.9700	  742.00	  780.97	-1791.47	  381.43
     54.0700	  713.00	  686.97	-1726.47	  381.51
     54.1700	  663.00	  623.39	-1712.89	  381.60
     54.2700	  545.00	  585.11	-1792.61	  381.68
     54.3700	  612.00	  564.18	-1704.68	  381.77
     54.4700	  587.00	  553.62	-1719.12	  381.86
     54.5700	  536.00	  548.58	-1765.08	  381.95
     54.6700	  560.00	  546.35	-1738.85	  382.04
     54.7700	  534.00	  545.64	-1764.14	  382.14
     54.8700	  594.00	  545.88	-1704.38	  382.23
     54.9700	  553.00	  546.86	-1746.36	  382.32
     55.0700	  559.00	  548.53	-1742.03	  382.42
     55.1700	  543.00	  550.89	-1760.39	  382.52
     55.2700	  577.00	  554.01	-1729.51	  382.61
     55.3700	  579.00	  558.03	-1731.53	  382.71
     55.4700	  564.00	  563.12	-1751.62	  382.81
     55.5700	  585.00	  569.66	-1737.16	  382.91
     55.6700	  581.00	  578.43	-1749.93	  383.01
     55.7700	  593.00	  590.98	-1750.48	  383.12
     55.8700	  548.00	  610.52	-1815.02	  383.22
     55.9700	  601.00	  643.11	-1794.61	  383.33
     56.0700	  666.00	  699.00	-1785.50	  383.43
     56.1700	  756.00	  793.24	-1789.74	  383.54
     56.2700	  846.00	  944.09	-1850.59	  383.65
     56.3700	 1121.00	 1167.69	-1799.19	  383.75
     56.4700	 1363.00	 1469.49	-1858.99	  383.86
     56.5700	 1698.00	 1833.86	-1888.36	  383.97
     56.6700	 2144.00	 2216.26	-1824.76	  384.09
     56.7700	 2453.00	 2540.89	-1840.39	  384.20
     56.8700	 2588.00	 2714.64	-1879.14	  384.31
     56.9700	 2597.00	 2673.23	-1828.73	  384.43
     57.0700	 2389.00	 2432.67	-1796.17	  384.54
     57.1700	 2101.00	 2076.38	-1727.88	  384.66
     57.2700	 1697.00	 1695.53	-1751.03	  384.77
     57.3700	 1290.00	 1354.66	-1817.16	  384.89
     57.4700	  941.00	 1086.34	-1897.84	  385.01
     57.5700	  915.00	  897.11	-1734.61	  385.13
     57.6700	  743.00	  776.57	-1786.07	  385.25
     57.7700	  730.00	  707.59	-1730.09	  385.37
     57.8700	  657.00	  674.06	-1769.56	  385.49
     57.9700	  665.00	  664.70	-1752.20	  385.61
     58.0700	  711.00	  673.61	-1715.11	  385.74
     58.1700	  732.00	  698.90	-1719.40	  385.86
     58.2700	  769.00	  740.75	-1724.25	  385.98
     58.3700	  818.00	  799.49	-1733.99	  386.11
     58.4700	  905.00	  873.96	-1721.46	  386.23
     58.5700	 1069.00	  959.77	-1643.27	  386.36
     58.6700	 1227.00	 1048.77	-1574.27	  386.49
     58.7700	 1427.00	 1131.20	-1456.70	  386.62
     58.8700	 1559.00	 1200.02	-1393.52	  386.75
     58.9700	 1591.00	 1250.86	-1412.36	  386.88
     59.0700	 1686.00	 1278.01	-1344.51	  387.01
     59.1700	 1561.00	 1276.54	-1468.04	  387.14
     59.2700	 1493.00	 1250.35	-1509.85	  387.27
     59.3700	 1335.00	 1212.59	-1630.09	  387.40
     59.4700	 1333.00	 1176.95	-1596.45	  387.53
     59.5700	 1195.00	 1152.65	-1710.15	  387.67
     59.6700	 1188.00	 1146.78	-1711.28	  387.80
     59.7700	 1141.00	 1167.33	-1778.83	  387.94
     59.8700	 1204.00	 1219.50	-1768.00	  388.07
     59.9700	 1324.00	 1299.51	-1728.01	  388.21
     60.0700	 1459.00	 1391.39	-1684.89	  388.34
     60.1700	 1508.00	 1467.38	-1711.88	  388.48
     60.2700	 1640.00	 1494.93	-1607.43	  388.62
     60.3700	 1544.00	 1453.61	-1662.11	  388.75
     60.4700	 1423.00	 1349.76	-1679.26	  388.89
     60.5700	 1314.00	 1209.80	-1648.30	  389.03
     60.6700	 1128.00	 1062.40	-1686.90	  389.17
     60.7700	  893.00	  928.47	-1787.97	  389.31
     60.8700	  738.00	  819.88	-1834.38	  389.45
     60.9700	  717.00	  740.70	-1776.20	  389.59
     61.0700	  612.00	  689.82	-1830.32	  389.73
     61.1700	  693.00	  663.98	-1723.48	  389.87
     61.2700	  613.00	  660.49	-1799.99	  390.02
     61.3700	  634.00	  678.96	-1797.46	  390.16
     61.4700	  668.00	  721.45	-1805.95	  390.30
     61.5700	  767.00	  791.23	-1776.73	  390.45
     61.6700	  828.00	  890.41	-1814.91	  390.59
     61.7700	  950.00	 1016.80	-1819.30	  390.73
     61.8700	 1147.00	 1161.30	-1766.80	  390.88
     61.9700	 1222.00	 1306.06	-1836.56	  391.02
     62.0700	 1313.00	 1424.49	-1863.99	  391.17
     62.1700	 1357.00	 1486.32	-1881.82	  391.31
     62.2700	 1450.00	 1471.42	-1773.92	  391.46
     62.3700	 1251.00	 1384.24	-1885.74	  391.60
     62.4700	 1178.00	 1250.38	-1824.88	  391.75
     62.5700	 1028.00	 1100.07	-1824.57	  391.90
     62.6700	  894.00	  956.91	-1815.41	  392.04
     62.7700	  775.00	  835.38	-1812.88	  392.19
     62.8700	  684.00	  741.45	-1809.95	  392.34
     62.9700	  675.00	  674.54	-1752.04	  392.48
     63.0700	  586.00	  630.21	-1796.71	  392.63
     63.1700	  602.00	  602.61	-1753.11	  392.78
     63.2700	  609.00	  586.36	-1729.86	  392.93
     63.3700	  598.00	  577.47	-1731.97	  393.08
     63.4700	  591.00	  573.54	-1735.04	  393.23
     63.5700	  649.00	  573.68	-1677.18	  393.37
     63.6700	  552.00	  578.21	-1778.71	  393.52
     63.7700	  619.00	  588.47	-1721.97	  393.67
     63.8700	  597.00	  606.52	-1762.02	  393.82
     63.9700	  687.00	  634.56	-1700.06	  393.97
     64.0700	  687.00	  674.18	-1739.68	  394.12
     64.1700	  765.00	  725.31	-1712.81	  394.27
     64.2700	  770.00	  785.33	-1767.83	  394.42
     64.3700	  951.00	  848.36	-1649.86	  394.57
     64.4700	 1020.00	  905.25	-1637.75	  394.72
     64.5700	 1026.00	  945.14	-1671.64	  394.87
     64.6700	  985.00	  958.70	-1726.20	  395.02
     64.7700	 1006.00	  944.80	-1691.30	  395.17
     64.8700	  959.00	  907.83	-1701.33	  395.32
     64.9700	  901.00	  856.68	-1708.18	  395.47
     65.0700	  883.00	  801.01	-1670.51	  395.62
     65.1700	  778.00	  748.60	-1723.10	  395.77
     65.2700	  722.00	  703.79	-1734.29	  395.92
     65.3700	  706.00	  667.68	-1714.18	  396.06
     65.4700	  628.00	  639.37	-1763.87	  396.21
     65.5700	  625.00	  617.29	-1744.79	  396.36
     65.6700	  546.00	  600.19	-1806.69	  396.51
     65.7700	  595.00	  587.17	-1744.67	  396.66
     65.8700	  582.00	  577.57	-1748.07	  396.81
     65.9700	  590.00	  570.88	-1733.38	  396.96
     66.0700	  545.00	  566.69	-1774.19	  397.11
     66.1700	  551.00	  564.60	-1766.10	  397.26
     66.2700	  560.00	  564.23	-1756.73	  397.41
     66.3700	  585.00	  565.30	-1732.80	  397.56
     66.4700	  557.00	  567.62	-1763.12	  397.70
     66.5700	  518.00	  571.24	-1805.74	  397.85
     66.6700	  539.00	  576.48	-1789.98	  398.00
     66.7700	  573.00	  584.29	-1763.79	  398.15
     66.8700	  586.00	  596.07	-1762.57	  398.30
     66.9700	  552.00	  614.76	-1815.26	  398.44
     67.0700	  650.00	  644.92	-1747.42	  398.59
     67.1700	  652.00	  693.13	-1793.63	  398.74
     67.2700	  759.00	  767.88	-1761.38	  398.88
     67.3700	  817.00	  878.45	-1813.95	  399.03
     67.4700	 1068.00	 1032.55	-1717.05	  399.18
     67.5700	 1211.00	 1233.64	-1775.14	  399.32
     67.6700	 1501.00	 1476.42	-1727.92	  399.47
     67.7700	 1830.00	 1744.91	-1667.41	  399.61
     67.8700	 1995.00	 2010.46	-1767.96	  399.76
     67.9700	 2291.00	 2232.90	-1694.40	  399.90
     68.0700	 2386.00	 2366.86	-1733.36	  400.05
     68.1700	 2342.00	 2378.23	-1788.73	  400.19
     68.2700	 2351.00	 2263.79	-1665.29	  400.33
     68.3700	 2092.00	 2053.55	-1714.05	  400.48
     68.4700	 1794.00	 1792.53	-1751.03	  400.62
     68.5700	 1561.00	 1522.54	-1714.04	  400.76
     68.6700	 1250.00	 1274.30	-1776.80	  400.90
     68.7700	  982.00	 1066.03	-1836.53	  401.05
     68.8700	  831.00	  904.35	-1825.85	  401.19
     68.9700	  739.00	  787.31	-1800.81	  401.33
     69.0700	  724.00	  707.66	-1736.16	  401.47
     69.1700	  637.00	  656.07	-1771.57	  401.61
     69.2700	  628.00	  623.87	-1748.37	  401.75
     69.3700	  633.00	  604.10	-1723.60	  401.89
     69.4700	  586.00	  591.88	-1758.38	  402.02
     69.5700	  629.00	  584.09	-1707.59	  402.16
     69.6700	  602.00	  578.92	-1729.42	  402.30
     69.7700	  546.00	  575.35	-1781.85	  402.44
     69.8700	  567.00	  572.88	-1758.38	  402.57
     69.9700	  567.00	  571.24	-1756.74	  402.71
     70.0700	  580.00	  570.30	-1742.80	  402.84
     70.1700	  550.00	  570.02	-1772.52	  402.98
     70.2700	  565.00	  570.40	-1757.90	  403.11
     70.3700	  596.00	  571.56	-1728.06	  403.24
     70.4700	  591.00	  573.67	-1735.17	  403.38
     70.5700	  611.00	  577.18	-1718.68	  403.51
     70.6700	  582.00	  582.88	-1753.38	  403.64
     70.7700	  569.00	  592.18	-1775.68	  403.77
     70.8700	  596.00	  607.38	-1763.88	  403.90
     70.9700	  650.00	  631.85	-1734.35	  404.03
     71.0700	  606.00	  670.29	-1816.79	  404.16
     71.1700	  687.00	  728.35	-1793.85	  404.29
     71.2700	  804.00	  811.86	-1760.36	  404.41
     71.3700	  877.00	  926.24	-1801.74	  404.54
     71.4700	 1054.00	 1071.24	-1769.74	  404.67
     71.5700	 1244.00	 1244.01	-1752.51	  404.79
     71.6700	 1377.00	 1434.20	-1809.70	  404.92
     71.7700	 1611.00	 1624.03	-1765.53	  405.04
     71.8700	 1745.00	 1789.04	-1796.54	  405.16
     71.9700	 1885.00	 1901.04	-1768.54	  405.29
     72.0700	 1882.00	 1936.12	-1806.62	  405.41
     72.1700	 1804.00	 1885.90	-1834.40	  405.53
     72.2700	 1759.00	 1762.15	-1755.65	  405.65
     72.3700	 1642.00	 1591.39	-1701.89	  405.77
     72.4700	 1518.00	 1401.09	-1635.59	  405.89
     72.5700	 1397.00	 1214.38	-1569.88	  406.00
     72.6700	 1196.00	 1047.30	-1603.80	  406.12
     72.7700	 1042.00	  908.65	-1619.15	  406.24
     72.8700	  940.00	  800.83	-1613.33	  406.35
     72.9700	  905.00	  721.62	-1569.12	  406.47
     73.0700	  788.00	  666.16	-1630.66	  406.58
     73.1700	  765.00	  628.76	-1616.26	  406.69
     73.2700	  775.00	  604.16	-1581.66	  406.80
     73.3700	  681.00	  588.11	-1659.61	  406.91
     73.4700	  642.00	  577.57	-1688.07	  407.02
     73.5700	  645.00	  570.54	-1678.04	  407.13
     73.6700	  586.00	  565.78	-1732.28	  407.24
     73.7700	  575.00	  562.58	-1740.08	  407.35
     73.8700	  575.00	  560.54	-1738.04	  407.45
     73.9700	  553.00	  559.43	-1758.93	  407.56
     74.0700	  597.00	  559.08	-1714.58	  407.66
     74.1700	  575.00	  559.32	-1736.82	  407.76
     74.2700	  587.00	  559.97	-1725.47	  407.87
     74.3700	  615.00	  560.78	-1698.28	  407.97
     74.4700	  596.00	  561.48	-1717.98	  408.07
     74.5700	  672.00	  561.78	-1642.28	  408.17
     74.6700	  658.00	  561.44	-1655.94	  408.26
     74.7700	  654.00	  560.39	-1658.89	  408.36
     74.8700	  609.00	  558.77	-1702.27	  408.46
     74.9700	  594.00	  556.86	-1715.36	  408.55
     75.0700	  634.00	  554.95	-1673.45	  408.65
     75.1700	  599.00	  553.45	-1706.95	  408.74
     75.2700	  592.00	  552.70	-1713.20	  408.83
     75.3700	  578.00	  553.00	-1727.50	  408.92
     75.4700	  546.00	  554.92	-1761.42	  409.01
     75.5700	  573.00	  558.90	-1738.40	  409.10
     75.6700	  579.00	  565.36	-1738.86	  409.19
     75.7700	  557.00	  575.01	-1770.51	  409.27
     75.8700	  581.00	  588.10	-1759.60	  409.36
     75.9700	  593.00	  604.63	-1764.13	  409.44
     76.0700	  609.00	  624.14	-1767.64	  409.52
     76.1700	  624.00	  645.54	-1774.04	  409.61
     76.2700	  637.00	  667.08	-1782.58	  409.69
     76.3700	  670.00	  686.43	-1768.93	  409.77
     76.4700	  679.00	  700.84	-1774.34	  409.84
     76.5700	  709.00	  707.77	-1751.27	  409.92
     76.6700	  709.00	  705.79	-1749.29	  410.00
     76.7700	  720.00	  695.30	-1727.80	  410.07
     76.8700	  682.00	  678.30	-1748.80	  410.14
     76.9700	  645.00	  657.33	-1764.83	  410.22
     77.0700	  597.00	  635.35	-1790.85	  410.29
     77.1700	  564.00	  614.29	-1802.79	  410.36
     77.2700	  626.00	  595.60	-1722.10	  410.43
     77.3700	  574.00	  580.06	-1758.56	  410.49
     77.4700	  524.00	  567.88	-1796.38	  410.56
     77.5700	  511.00	  558.84	-1800.34	  410.62
     77.6700	  522.00	  552.44	-1782.94	  410.69
     77.7700	  484.00	  548.11	-1816.61	  410.75
     77.8700	  518.00	  545.27	-1779.77	  410.81
     77.9700	  541.00	  543.46	-1754.96	  410.87
     78.0700	  495.00	  542.32	-1799.82	  410.93
     78.1700	  540.00	  541.61	-1754.11	  410.98
     78.2700	  526.00	  541.17	-1767.67	  411.04
     78.3700	  521.00	  540.91	-1772.41	  411.09
     78.4700	  524.00	  540.76	-1769.26	  411.15
     78.5700	  540.00	  540.71	-1753.21	  411.20
     78.6700	  487.00	  540.76	-1806.26	  411.25
     78.7700	  537.00	  540.90	-1756.40	  411.30
     78.8700	  531.00	  541.17	-1762.67	  411.35
     78.9700	  521.00	  541.58	-1773.08	  411.39
     79.0700	  536.00	  542.20	-1758.70	  411.44
     79.1700	  528.00	  543.05	-1767.55	  411.48
     79.2700	  558.00	  544.04	-1738.54	  411.52
     79.3700	  535.00	  545.59	-1763.09	  411.56
     79.4700	  513.00	  547.57	-1787.07	  411.60
     79.5700	  528.00	  550.07	-1774.57	  411.64
     79.6700	  570.00	  553.17	-1735.67	  411.68
     79.7700	  549.00	  556.98	-1760.48	  411.71
     79.8700	  590.00	  561.61	-1724.11	  411.74
     79.9700	  527.00	  567.24	-1792.74	  411.78
     80.0700	  513.00	  574.08	-1813.58	  411.81
     80.1700	  585.00	  582.40	-1749.90	  411.84
     80.2700	  579.00	  592.50	-1766.00	  411.86
     80.3700	  593.00	  604.64	-1764.14	  411.89
     80.4700	  566.00	  618.92	-1805.42	  411.92
     80.5700	  614.00	  635.20	-1773.70	  411.94
     80.6700	  625.00	  652.95	-1780.45	  411.96
     80.7700	  665.00	  671.28	-1758.78	  411.98
     80.8700	  673.00	  688.97	-1768.47	  412.00
     80.9700	  689.00	  704.60	-1768.10	  412.02
     81.0700	  709.00	  716.85	-1760.35	  412.03
     81.1700	  659.00	  724.75	-1818.25	  412.05
     81.2700	  777.00	  727.68	-1703.18	  412.06
     81.3700	  754.00	  725.49	-1723.99	  412.07
     81.4700	  727.00	  718.48	-1743.98	  412.08
     81.5700	  766.00	  707.38	-1693.88	  412.09
     81.6700	  762.00	  693.18	-1683.68	  412.10
     81.7700	  740.00	  676.90	-1689.40	  412.10
     81.8700	  720.00	  659.56	-1692.06	  412.11
     81.9700	  670.00	  642.13	-1724.63	  412.11
     82.0700	  682.00	  625.57	-1696.07	  412.11
     82.1700	  658.00	  610.48	-1704.98	  412.11
     82.2700	  665.00	  597.23	-1684.73	  412.11
     82.3700	  656.00	  585.96	-1682.46	  412.10
     82.4700	  616.00	  576.67	-1713.17	  412.10
     82.5700	  615.00	  569.26	-1706.76	  412.09
     82.6700	  573.00	  563.66	-1743.16	  412.08
     82.7700	  567.00	  559.71	-1745.21	  412.07
     82.8700	  557.00	  557.29	-1752.79	  412.06
     82.9700	  559.00	  556.30	-1749.80	  412.05
     83.0700	  563.00	  556.66	-1746.16	  412.03
     83.1700	  565.00	  558.28	-1745.78	  412.02
     83.2700	  532.00	  561.06	-1781.56	  412.00
     83.3700	  559.00	  564.85	-1758.35	  411.98
     83.4700	  549.00	  569.44	-1772.94	  411.96
     83.5700	  576.00	  574.50	-1751.00	  411.93
     83.6700	  589.00	  579.63	-1743.13	  411.91
     83.7700	  535.00	  584.33	-1801.83	  411.88
     83.8700	  563.00	  588.03	-1777.53	  411.86
     83.9700	  563.00	  590.21	-1779.71	  411.83
     84.0700	  560.00	  590.47	-1782.97	  411.80
     84.1700	  552.00	  588.75	-1789.25	  411.76
     84.2700	  573.00	  585.28	-1764.78	  411.73
     84.3700	  537.00	  580.52	-1796.02	  411.69
     84.4700	  582.00	  575.01	-1745.51	  411.66
     84.5700	  554.00	  569.25	-1767.75	  411.62
     84.6700	  519.00	  563.66	-1797.16	  411.58
     84.7700	  507.00	  558.54	-1804.04	  411.53
     84.8700	  493.00	  554.08	-1813.58	  411.49
     84.9700	  493.00	  550.40	-1809.90	  411.44
     85.0700	  513.00	  547.49	-1786.99	  411.40
     85.1700	  525.00	  545.32	-1772.82	  411.35
     85.2700	  527.00	  543.80	-1769.30	  411.30
     85.3700	  532.00	  542.85	-1763.35	  411.25
     85.4700	  501.00	  542.36	-1793.86	  411.19
     85.5700	  553.00	  542.26	-1741.76	  411.14
     85.6700	  512.00	  542.50	-1783.00	  411.08
     85.7700	  535.00	  543.05	-1760.55	  411.02
     85.8700	  554.00	  543.90	-1742.41	  410.96
     85.9700	  493.00	  545.11	-1804.61	  410.90
     86.0700	  534.00	  546.71	-1765.21	  410.83
     86.1700	  539.00	  548.79	-1762.29	  410.77
     86.2700	  528.00	  551.48	-1775.98	  410.70
     86.3700	  565.00	  554.91	-1742.41	  410.63
     86.4700	  541.00	  559.22	-1770.72	  410.56
     86.5700	  547.00	  564.52	-1770.02	  410.49
     86.6700	  549.00	  570.89	-1774.39	  410.42
     86.7700	  602.00	  577.99	-1728.49	  410.34
     86.8700	  603.00	  586.23	-1735.73	  410.26
     86.9700	  569.00	  594.98	-1778.48	  410.18
     87.0700	  609.00	  603.72	-1747.22	  410.10
     87.1700	  637.00	  611.80	-1727.30	  410.02
     87.2700	  675.00	  618.48	-1695.98	  409.94
     87.3700	  667.00	  623.01	-1708.51	  409.85
     87.4700	  673.00	  624.78	-1704.28	  409.77
     87.5700	  674.00	  623.54	-1702.04	  409.68
     87.6700	  633.00	  619.50	-1739.00	  409.59
     87.7700	  638.00	  613.24	-1727.74	  409.49
     87.8700	  642.00	  605.58	-1716.08	  409.40
     87.9700	  646.00	  597.38	-1703.88	  409.30
     88.0700	  629.00	  589.44	-1712.94	  409.21
     88.1700	  603.00	  582.44	-1731.94	  409.11
     88.2700	  622.00	  576.93	-1707.43	  409.01
     88.3700	  571.00	  573.25	-1754.75	  408.91
     88.4700	  562.00	  571.60	-1762.10	  408.80
     88.5700	  574.00	  571.99	-1750.49	  408.70
     88.6700	  570.00	  574.27	-1756.77	  408.59
     88.7700	  580.00	  578.15	-1750.65	  408.48
     88.8700	  582.00	  583.23	-1753.73	  408.37
     88.9700	  592.00	  589.01	-1749.51	  408.26
     89.0700	  606.00	  594.89	-1741.39	  408.15
     89.1700	  582.00	  600.23	-1770.73	  408.03
     89.2700	  588.00	  604.40	-1768.90	  407.91
     89.3700	  613.00	  606.80	-1746.30	  407.79
     89.4700	  630.00	  607.07	-1729.57	  407.67
     89.5700	  615.00	  605.11	-1742.61	  407.55
     89.6700	  541.00	  601.16	-1812.66	  407.43
     89.7700	  589.00	  595.66	-1759.16	  407.30
     89.8700	  557.00	  589.15	-1784.65	  407.18
     89.9700	  564.00	  582.18	-1770.68	  407.05
     90.0700	  563.00	  575.22	-1764.72	  406.92
     90.1700	  511.00	  568.63	-1810.13	  406.79
     90.2700	  535.00	  562.69	-1780.19	  406.65
     90.3700	  533.00	  557.56	-1777.06	  406.52
     90.4700	  526.00	  553.32	-1779.82	  406.38
     90.5700	  555.00	  549.95	-1747.45	  406.24
     90.6700	  480.00	  547.39	-1819.89	  406.10
     90.7700	  537.00	  545.55	-1761.05	  405.96
     90.8700	  493.00	  544.32	-1803.82	  405.82
     90.9700	  536.00	  543.61	-1760.11	  405.67
     91.0700	  528.00	  543.34	-1767.84	  405.53
     91.1700	  503.00	  543.46	-1792.96	  405.38
     91.2700	  520.00	  543.96	-1776.46	  405.23
     91.3700	  543.00	  544.89	-1754.39	  405.08
     91.4700	  552.00	  546.30	-1746.80	  404.93
     91.5700	  526.00	  548.30	-1774.80	  404.77
     91.6700	  514.00	  551.06	-1789.56	  404.62
     91.7700	  535.00	  554.74	-1772.24	  404.46
     91.8700	  546.00	  559.34	-1765.84	  404.30
     91.9700	  582.00	  565.47	-1735.97	  404.14
     92.0700	  580.00	  573.09	-1745.59	  403.98
     92.1700	  598.00	  582.33	-1736.83	  403.82
     92.2700	  561.00	  593.24	-1784.74	  403.65
     92.3700	  637.00	  605.77	-1721.27	  403.48
     92.4700	  606.00	  619.75	-1766.25	  403.32
     92.5700	  679.00	  634.90	-1708.40	  403.15
     92.6700	  656.00	  650.77	-1747.27	  402.98
     92.7700	  658.00	  666.84	-1761.34	  402.80
     92.8700	  708.00	  682.47	-1726.97	  402.63
     92.9700	  717.00	  697.01	-1732.51	  402.45
     93.0700	  725.00	  709.92	-1737.42	  402.28
     93.1700	  772.00	  720.91	-1701.41	  402.10
     93.2700	  806.00	  730.09	-1676.59	  401.92
     93.3700	  780.00	  737.89	-1710.39	  401.74
     93.4700	  774.00	  744.96	-1723.46	  401.55
     93.5700	  843.00	  752.01	-1661.51	  401.37
     93.6700	  824.00	  759.66	-1688.16	  401.18
     93.7700	  856.00	  768.47	-1664.97	  401.00
     93.8700	  848.00	  778.88	-1683.38	  400.81
     93.9700	  830.00	  791.29	-1713.79	  400.62
     94.0700	  872.00	  805.96	-1686.46	  400.43
     94.1700	  812.00	  822.90	-1763.40	  400.23
     94.2700	  872.00	  841.79	-1722.29	  400.04
     94.3700	  889.00	  861.88	-1725.38	  399.84
     94.4700	  924.00	  881.97	-1710.47	  399.65
     94.5700	  850.00	  900.47	-1802.97	  399.45
     94.6700	  964.00	  915.47	-1703.97	  399.25
     94.7700	  868.00	  925.05	-1809.55	  399.05
     94.8700	  965.00	  927.56	-1715.06	  398.84
     94.9700	  913.00	  922.09	-1761.59	  398.64
     95.0700	  875.00	  908.69	-1786.19	  398.44
     95.1700	  875.00	  888.44	-1765.94	  398.23
     95.2700	  809.00	  863.04	-1806.54	  398.02
     95.3700	  788.00	  834.54	-1799.04	  397.81
     95.4700	  760.00	  805.06	-1797.56	  397.60
     95.5700	  743.00	  776.57	-1786.07	  397.39
     95.6700	  754.00	  750.91	-1749.41	  397.18
     95.7700	  697.00	  729.72	-1785.22	  396.96
     95.8700	  678.00	  714.45	-1788.95	  396.75
     95.9700	  669.00	  706.38	-1789.88	  396.53
     96.0700	  695.00	  706.63	-1764.13	  396.31
     96.1700	  675.00	  716.13	-1793.63	  396.09
     96.2700	  697.00	  735.63	-1791.13	  395.87
     96.3700	  733.00	  765.61	-1785.11	  395.65
     96.4700	  810.00	  806.24	-1748.74	  395.43
     96.5700	  851.00	  857.22	-1758.72	  395.20
     96.6700	  967.00	  917.76	-1703.26	  394.98
     96.7700	  981.00	  986.44	-1757.94	  394.75
     96.8700	 1049.00	 1061.10	-1764.60	  394.52
     96.9700	 1093.00	 1138.89	-1798.39	  394.30
     97.0700	 1174.00	 1216.24	-1794.74	  394.07
     97.1700	 1271.00	 1289.02	-1770.52	  393.84
     97.2700	 1329.00	 1352.69	-1776.19	  393.60
     97.3700	 1363.00	 1402.68	-1792.18	  393.37
     97.4700	 1423.00	 1434.99	-1764.49	  393.14
     97.5700	 1475.00	 1446.93	-1724.43	  392.90
     97.6700	 1386.00	 1437.76	-1804.26	  392.67
     97.7700	 1376.00	 1408.78	-1785.28	  392.43
     97.8700	 1344.00	 1362.99	-1771.49	  392.19
     97.9700	 1345.00	 1304.40	-1711.90	  391.95
     98.0700	 1233.00	 1237.47	-1756.97	  391.71
     98.1700	 1147.00	 1166.54	-1772.04	  391.47
     98.2700	 1050.00	 1095.60	-1798.10	  391.23
     98.3700	 1054.00	 1028.20	-1726.70	  390.98
     98.4700	  959.00	  967.28	-1760.78	  390.74
     98.5700	  863.00	  915.22	-1804.72	  390.49
     98.6700	  806.00	  873.85	-1820.35	  390.25
     98.7700	  788.00	  844.51	-1809.01	  390.00
     98.8700	  782.00	  828.18	-1798.68	  389.75
     98.9700	  813.00	  825.52	-1765.02	  389.50
     99.0700	  841.00	  836.94	-1748.44	  389.26
     99.1700	  818.00	  862.64	-1797.14	  389.01
     99.2700	  850.00	  902.62	-1805.12	  388.75
     99.3700	  913.00	  956.67	-1796.17	  388.50
     99.4700	  985.00	 1024.26	-1791.76	  388.25
     99.5700	 1068.00	 1104.48	-1788.98	  388.00
     99.6700	 1121.00	 1195.96	-1827.46	  387.74
     99.7700	 1337.00	 1296.77	-1712.27	  387.49
     99.8700	 1406.00	 1404.29	-1750.79	  387.23
     99.9700	 1469.00	 1515.21	-1798.71	  386.97
    100.0700	 1705.00	 1625.54	-1673.04	  386.72
    100.1700	 1776.00	 1730.82	-1707.32	  386.46
    100.2700	 1904.00	 1826.57	-1675.07	  386.20
    100.3700	 1943.00	 1908.68	-1718.18	  385.94
    100.4700	 1939.00	 1973.94	-1787.44	  385.68
    100.5700	 2123.00	 2020.10	-1649.60	  385.42
    100.6700	 2067.00	 2045.79	-1731.29	  385.16
    100.7700	 2037.00	 2050.23	-1765.73	  384.90
    100.8700	 2195.00	 2033.23	-1590.73	  384.64
    100.9700	 2022.00	 1995.34	-1725.84	  384.37
    101.0700	 1944.00	 1938.25	-1746.75	  384.11
    101.1700	 1872.00	 1864.97	-1745.47	  383.85
    101.2700	 1799.00	 1779.75	-1733.25	  383.58
    101.3700	 1640.00	 1687.53	-1800.03	  383.32
    101.4700	 1682.00	 1593.38	-1663.88	  383.05
    101.5700	 1584.00	 1501.90	-1670.40	  382.79
    101.6700	 1483.00	 1416.89	-1686.39	  382.52
    101.7700	 1352.00	 1341.14	-1741.64	  382.25
    101.8700	 1272.00	 1276.37	-1756.87	  381.99
    101.9700	 1201.00	 1223.21	-1774.71	  381.72
    102.0700	 1255.00	 1181.27	-1678.77	  381.45
    102.1700	 1110.00	 1149.25	-1791.75	  381.18
    102.2700	 1125.00	 1125.10	-1752.60	  380.92
    102.3700	 1213.00	 1106.25	-1645.75	  380.65
    102.4700	 1137.00	 1089.90	-1705.40	  380.38
    102.5700	 1038.00	 1073.32	-1787.82	  380.11
    102.6700	 1026.00	 1054.25	-1780.75	  379.84
    102.7700	 1012.00	 1031.16	-1771.66	  379.57
    102.8700	  950.00	 1003.39	-1805.89	  379.30
    102.9700	  959.00	  971.11	-1764.61	  379.03
    103.0700	  883.00	  935.10	-1804.60	  378.76
    103.1700	  879.00	  896.49	-1769.99	  378.49
    103.2700	  856.00	  856.55	-1753.05	  378.22
    103.3700	  816.00	  816.56	-1753.06	  377.95
    103.4700	  790.00	  777.70	-1740.20	  377.68
    103.5700	  765.00	  740.96	-1728.46	  377.41
    103.6700	  772.00	  707.14	-1687.64	  377.14
    103.7700	  672.00	  676.78	-1757.28	  376.87
    103.8700	  614.00	  650.20	-1788.70	  376.60
    103.9700	  656.00	  627.49	-1723.99	  376.33
    104.0700	  610.00	  608.57	-1751.07	  376.06
    104.1700	  568.00	  593.23	-1777.73	  375.79
    104.2700	  612.00	  581.13	-1721.63	  375.52
    104.3700	  567.00	  571.90	-1757.40	  375.25
    104.4700	  583.00	  565.13	-1734.63	  374.98
    104.5700	  539.00	  560.44	-1773.94	  374.71
    104.6700	  505.00	  557.45	-1804.95	  374.44
    104.7700	  526.00	  555.85	-1782.35	  374.17
    104.8700	  557.00	  555.34	-1750.84	  373.90
    104.9700	  590.00	  555.68	-1718.18	  373.63
    105.0700	  549.00	  556.69	-1760.19	  373.37
    105.1700	  542.00	  558.22	-1768.72	  373.10
    105.2700	  544.00	  560.16	-1768.66	  372.83
    105.3700	  515.00	  562.43	-1799.93	  372.56
    105.4700	  508.00	  565.03	-1809.53	  372.30
    105.5700	  509.00	  567.97	-1811.47	  372.03
    105.6700	  557.00	  571.30	-1766.80	  371.77
    105.7700	  575.00	  575.13	-1752.63	  371.50
    105.8700	  529.00	  579.57	-1803.07	  371.24
    105.9700	  582.00	  584.74	-1755.24	  370.97
    106.0700	  558.00	  590.73	-1785.23	  370.71
    106.1700	  586.00	  597.60	-1764.10	  370.45
    106.2700	  598.00	  605.36	-1759.86	  370.18
    106.3700	  626.00	  613.92	-1740.42	  369.92
    106.4700	  595.00	  623.16	-1780.66	  369.66
    106.5700	  648.00	  632.85	-1737.35	  369.40
    106.6700	  640.00	  642.73	-1755.23	  369.14
    106.7700	  604.00	  652.45	-1800.95	  368.88
    106.8700	  679.00	  661.63	-1735.13	  368.62
    106.9700	  628.00	  669.88	-1794.38	  368.37
    107.0700	  627.00	  676.82	-1802.32	  368.11
    107.1700	  674.00	  682.15	-1760.65	  367.86
    107.2700	  676.00	  685.70	-1762.20	  367.60
    107.3700	  680.00	  687.45	-1759.95	  367.35
    107.4700	  696.00	  687.57	-1744.07	  367.09
    107.5700	  665.00	  686.39	-1773.89	  366.84
    107.6700	  730.00	  684.32	-1706.82	  366.59
    107.7700	  658.00	  681.83	-1776.33	  366.34
    107.8700	  698.00	  679.34	-1733.84	  366.09
    107.9700	  657.00	  677.23	-1772.73	  365.85
    108.0700	  668.00	  675.76	-1760.26	  365.60
    108.1700	  713.00	  675.09	-1714.59	  365.36
    108.2700	  696.00	  675.26	-1731.76	  365.11
    108.3700	  669.00	  676.18	-1759.68	  364.87
    108.4700	  645.00	  677.65	-1785.15	  364.63
    108.5700	  681.00	  679.36	-1750.86	  364.39
    108.6700	  677.00	  680.94	-1756.44	  364.15
    108.7700	  687.00	  681.95	-1747.45	  363.91
    108.8700	  690.00	  681.98	-1744.48	  363.68
    108.9700	  704.00	  680.66	-1729.16	  363.44
    109.0700	  684.00	  677.74	-1746.24	  363.21
    109.1700	  672.00	  673.11	-1753.61	  362.98
    109.2700	  691.00	  666.80	-1728.30	  362.75
    109.3700	  648.00	  658.99	-1763.49	  362.52
    109.4700	  641.00	  649.96	-1761.46	  362.29
    109.5700	  648.00	  640.03	-1744.53	  362.06
    109.6700	  636.00	  629.57	-1746.07	  361.84
    109.7700	  579.00	  618.91	-1792.41	  361.62
    109.8700	  671.00	  608.39	-1689.89	  361.40
    109.9700	  618.00	  598.28	-1732.78	  361.18
    110.0700	  633.00	  588.83	-1708.33	  360.96
    110.1700	  551.00	  580.22	-1781.72	  360.75
    110.2700	  586.00	  572.57	-1739.07	  360.53
    110.3700	  584.00	  565.95	-1734.45	  360.32
    110.4700	  560.00	  560.40	-1752.90	  360.11
    110.5700	  526.00	  555.88	-1782.38	  359.91
    110.6700	  553.00	  552.35	-1751.85	  359.70
    110.7700	  567.00	  549.73	-1735.23	  359.50
    110.8700	  527.00	  547.93	-1773.43	  359.29
    110.9700	  557.00	  546.86	-1742.36	  359.10
    111.0700	  611.00	  546.43	-1687.93	  358.90
    111.1700	  529.00	  546.53	-1770.03	  358.70
    111.2700	  578.00	  547.10	-1721.60	  358.51
    111.3700	  528.00	  548.06	-1772.56	  358.32
    111.4700	  507.00	  549.35	-1794.85	  358.13
    111.5700	  553.00	  550.93	-1750.43	  357.94
    111.6700	  543.00	  552.77	-1762.27	  357.76
    111.7700	  538.00	  554.83	-1769.33	  357.58
    111.8700	  568.00	  557.11	-1741.61	  357.40
    111.9700	  578.00	  559.59	-1734.09	  357.22
    112.0700	  526.00	  562.29	-1788.79	  357.05
    112.1700	  546.00	  565.21	-1771.71	  356.88
    112.2700	  609.00	  568.38	-1711.88	  356.71
    112.3700	  540.00	  571.83	-1784.33	  356.54
    112.4700	  570.00	  575.58	-1758.08	  356.38
    112.5700	  619.00	  579.70	-1713.20	  356.22
    112.6700	  632.00	  584.26	-1704.76	  356.06
    112.7700	  631.00	  589.34	-1710.84	  355.91
    112.8700	  691.00	  595.04	-1656.54	  355.75
    112.9700	  627.00	  601.53	-1727.03	  355.60
    113.0700	  738.00	  608.99	-1623.49	  355.46
    113.1700	  719.00	  617.67	-1651.17	  355.31
    113.2700	  719.00	  627.90	-1661.40	  355.17
    113.3700	  764.00	  640.07	-1628.57	  355.03
    113.4700	  779.00	  654.71	-1628.21	  354.90
    113.5700	  787.00	  672.45	-1637.95	  354.77
    113.6700	  905.00	  694.10	-1541.60	  354.64
    113.7700	  948.00	  720.61	-1525.11	  354.51
    113.8700	  956.00	  753.14	-1549.64	  354.39
    113.9700	  997.00	  793.06	-1548.56	  354.27
    114.0700	 1017.00	  841.95	-1577.45	  354.16
    114.1700	 1120.00	  901.59	-1534.09	  354.04
    114.2700	 1201.00	  973.97	-1525.47	  353.94
    114.3700	 1296.00	 1061.25	-1517.75	  353.83
    114.4700	 1328.00	 1165.69	-1590.19	  353.73
    114.5700	 1473.00	 1289.62	-1569.12	  353.63
    114.6700	 1564.00	 1435.31	-1623.81	  353.53
    114.7700	 1679.00	 1604.82	-1678.32	  353.44
    114.8700	 1871.00	 1800.03	-1681.53	  353.35
    114.9700	 2088.00	 2022.22	-1686.72	  353.27
    115.0700	 2359.00	 2272.25	-1665.75	  353.19
    115.1700	 2545.00	 2550.10	-1757.60	  353.11
    115.2700	 2897.00	 2854.84	-1710.34	  353.04
    115.3700	 3126.00	 3184.65	-1811.15	  352.97
    115.4700	 3389.00	 3536.43	-1899.93	  352.91
    115.5700	 3785.00	 3906.08	-1873.58	  352.85
    115.6700	 3953.00	 4288.12	-2087.62	  352.79
    115.7700	 4425.00	 4675.85	-2003.35	  352.74
    115.8700	 4790.00	 5061.59	-2024.09	  352.69
    115.9700	 5143.00	 5436.35	-2045.85	  352.64
    116.0700	 5501.00	 5790.43	-2041.93	  352.60
    116.1700	 5957.00	 6113.31	-1908.81	  352.57
    116.2700	 6293.00	 6394.22	-1853.72	  352.53
    116.3700	 6643.00	 6622.85	-1732.35	  352.51
    116.4700	 6728.00	 6789.84	-1814.34	  352.48
    116.5700	 7010.00	 6887.96	-1630.46	  352.46
    116.6700	 6951.00	 6912.75	-1714.25	  352.45
    116.7700	 6916.00	 6863.24	-1699.74	  352.44
    116.8700	 6849.00	 6741.99	-1645.49	  352.44
    116.9700	 6684.00	 6554.84	-1623.34	  352.44
    117.0700	 6340.00	 6310.01	-1722.51	  352.44
    117.1700	 6174.00	 6017.40	-1595.90	  352.45
    117.2700	 5717.00	 5687.63	-1723.13	  352.46
    117.3700	 5289.00	 5331.22	-1794.72	  352.48
    117.4700	 4979.00	 4958.38	-1731.88	  352.50
    117.5700	 4614.00	 4578.31	-1716.81	  352.53
    117.6700	 4359.00	 4199.34	-1592.84	  352.56
    117.7700	 3946.00	 3828.68	-1635.18	  352.60
    117.8700	 3680.00	 3472.14	-1544.64	  352.65
    117.9700	 3246.00	 3134.55	-1641.05	  352.69
    118.0700	 2902.00	 2819.31	-1669.81	  352.75
    118.1700	 2541.00	 2528.88	-1740.38	  352.81
    118.2700	 2222.00	 2264.63	-1795.13	  352.87
    118.3700	 1982.00	 2026.94	-1797.44	  352.94
    118.4700	 1775.00	 1815.53	-1793.03	  353.01
    118.5700	 1578.00	 1629.40	-1803.90	  353.09
    118.6700	 1343.00	 1467.13	-1876.63	  353.18
    118.7700	 1283.00	 1326.93	-1796.43	  353.27
    118.8700	 1092.00	 1206.77	-1867.27	  353.37
    118.9700	 1011.00	 1104.56	-1846.06	  353.47
    119.0700	  907.00	 1018.15	-1863.65	  353.58
    119.1700	  906.00	  945.51	-1792.01	  353.69
    119.2700	  803.00	  884.70	-1834.20	  353.81
    119.3700	  700.00	  833.97	-1886.47	  353.94
    119.4700	  689.00	  791.74	-1855.24	  354.07
    119.5700	  696.00	  756.62	-1813.12	  354.21
    119.6700	  642.00	  727.43	-1837.93	  354.35
    119.7700	  611.00	  703.15	-1844.65	  354.50
    119.8700	  609.00	  682.93	-1826.43	  354.65
    119.9700	  606.00	  666.07	-1812.57	  354.82
    120.0700	  600.00	  651.99	-1804.49	  354.98
    120.1700	  582.00	  640.21	-1810.71	  355.16
    120.2700	  587.00	  630.37	-1795.87	  355.34
    120.3700	  606.00	  622.14	-1768.64	  355.53
    120.4700	  569.00	  615.30	-1798.80	  355.72
    120.5700	  553.00	  609.65	-1809.15	  355.92
    120.6700	  559.00	  605.04	-1798.54	  356.13
    120.7700	  560.00	  601.35	-1793.85	  356.34
    120.8700	  540.00	  598.49	-1810.99	  356.56
    120.9700	  544.00	  596.38	-1804.88	  356.79
    121.0700	  519.00	  594.98	-1828.48	  357.02
    121.1700	  578.00	  594.23	-1768.73	  357.26
    121.2700	  548.00	  594.09	-1798.59	  357.51
    121.3700	  555.00	  594.52	-1792.02	  357.76
    121.4700	  590.00	  595.47	-1757.97	  358.03
    121.5700	  604.00	  596.91	-1745.41	  358.29
    121.6700	  574.00	  598.78	-1777.28	  358.57
    121.7700	  582.00	  601.01	-1771.51	  358.85
    121.8700	  584.00	  603.56	-1772.06	  359.14
    121.9700	  597.00	  606.35	-1761.85	  359.44
    122.0700	  612.00	  609.28	-1749.78	  359.75
    122.1700	  607.00	  612.28	-1757.78	  360.06
    122.2700	  609.00	  615.25	-1758.75	  360.38
    122.3700	  626.00	  618.08	-1744.58	  360.71
    122.4700	  620.00	  620.68	-1753.18	  361.04
    122.5700	  641.00	  622.95	-1734.45	  361.38
    122.6700	  650.00	  624.80	-1727.30	  361.74
    122.7700	  643.00	  626.16	-1735.66	  362.09
    122.8700	  646.00	  626.97	-1733.47	  362.46
    122.9700	  704.00	  627.21	-1675.71	  362.84
    123.0700	  704.00	  626.86	-1675.36	  363.22
    123.1700	  639.00	  625.95	-1739.45	  363.61
    123.2700	  614.00	  624.50	-1763.00	  364.01
    123.3700	  659.00	  622.59	-1716.09	  364.41
    123.4700	  578.00	  620.25	-1794.75	  364.83
    123.5700	  659.00	  617.57	-1711.07	  365.25
    123.6700	  647.00	  614.62	-1720.12	  365.69
    123.7700	  608.00	  611.46	-1755.96	  366.13
    123.8700	  667.00	  608.16	-1693.66	  366.58
    123.9700	  640.00	  604.79	-1717.29	  367.03
    124.0700	  623.00	  601.40	-1730.90	  367.50
    124.1700	  626.00	  598.05	-1724.55	  367.98
    124.2700	  620.00	  594.79	-1727.29	  368.46
    124.3700	  631.00	  591.65	-1713.15	  368.95
    124.4700	  592.00	  588.66	-1749.16	  369.46
    124.5700	  594.00	  585.85	-1744.35	  369.97
    124.6700	  622.00	  583.23	-1713.73	  370.49
    124.7700	  576.00	  580.83	-1757.33	  371.02
    124.8700	  617.00	  578.65	-1714.15	  371.55
    124.9700	  563.00	  489.58	-1679.08	  372.10
    125.0700	  586.00	  490.14	-1752.50	  372.66
    125.1700	  550.00	  490.70	-1752.50	  373.23
    125.2700	  617.00	  491.28	-1752.50	  373.80
    125.3700	  581.00	  491.87	-1752.50	  374.39
    125.4700	  534.00	  492.46	-1752.50	  374.98
    125.5700	  593.00	  493.07	-1752.50	  375.59
    125.6700	  568.00	  493.68	-1752.50	  376.20
    125.7700	  539.00	  494.31	-1752.50	  376.83
    125.8700	  555.00	  494.94	-1752.50	  377.46
    125.9700	  545.00	  495.58	-1752.50	  378.11
    126.0700	  551.00	  496.24	-1752.50	  378.76
    126.1700	  587.00	  496.90	-1752.50	  379.43
    126.2700	  569.00	  497.58	-1752.50	  380.10
    126.3700	  641.00	  498.26	-1752.50	  380.79
    126.4700	  597.00	  498.96	-1752.50	  381.48
    126.5700	  594.00	  499.67	-1752.50	  382.19
    126.6700	  616.00	  500.38	-1752.50	  382.90
    126.7700	  611.00	  501.11	-1752.50	  383.63
    126.8700	  619.00	  501.85	-1752.50	  384.37
    126.9700	  599.00	  502.60	-1752.50	  385.12
    127.0700	  629.00	  503.35	-1752.50	  385.88
    127.1700	  619.00	  504.12	-1752.50	  386.65
    127.2700	  635.00	  504.91	-1752.50	  387.43
    127.3700	  693.00	  505.70	-1752.50	  388.22
    127.4700	  661.00	  506.50	-1752.50	  389.02
    127.5700	  686.00	  507.31	-1752.50	  389.84
    127.6700	  670.00	  508.14	-1752.50	  390.66
    127.7700	  694.00	  508.98	-1752.50	  391.50
    127.8700	  724.00	  509.83	-1752.50	  392.35
    127.9700	  713.00	  510.68	-1752.50	  393.21
    128.0700	  810.00	  511.56	-1752.50	  394.08
    128.1700	  734.00	  512.44	-1752.50	  394.96
    128.2700	  808.00	  513.33	-1752.50	  395.85
    128.3700	  821.00	  514.24	-1752.50	  396.76
    128.4700	  790.00	  515.16	-1752.50	  397.68
    128.5700	    0.00	  516.09	-1752.50	  398.61
    128.6700	    0.00	  517.03	-1752.50	  399.55
     12.3071	        	        	        	        	       0	(  0  0  2)	  0  1
     24.8910	        	        	        	        	       0	(  0  0  4)	  0  1
     28.3308	        	        	        	        	       0	(  1  0  0)	  0  1
     29.0280	        	        	        	        	       0	(  1  0  1)	  0  1
     31.0345	        	        	        	        	       0	(  1  0  2)	  0  1
     34.1432	        	        	        	        	       0	(  1  0  3)	  0  1
     37.7909	        	        	        	        	       0	(  0  0  6)	  0  1
     38.1207	        	        	        	        	       0	(  1  0  4)	  0  1
     42.7712	        	        	        	        	       0	(  1  0  5)	  0  1
     47.9556	        	        	        	        	       0	(  1  0  6)	  0  1
     50.2672	        	        	        	        	       0	(  1  1  0)	  0  1
     51.2132	        	        	        	        	       0	(  0  0  8)	  0  1
     51.9904	        	        	        	        	       0	(  1  1  2)	  0  1
     53.5864	        	        	        	        	       0	(  1  0  7)	  0  1
     56.9388	        	        	        	        	       0	(  1  1  4)	  0  1
     58.7640	        	        	        	        	       0	(  2  0  0)	  0  1
     59.1556	        	        	        	        	       0	(  2  0  1)	  0  1
     59.6172	        	        	        	        	       0	(  1  0  8)	  0  1
     60.3211	        	        	        	        	       0	(  2  0  2)	  0  1
     62.2345	        	        	        	        	       0	(  2  0  3)	  0  1
     64.6343	        	        	        	        	       0	(  1  1  6)	  0  1
     64.8589	        	        	        	        	       0	(  2  0  4)	  0  1
     65.4429	        	        	        	        	       0	(  0  0 10)	  0  1
     66.0339	        	        	        	        	       0	(  1  0  9)	  0  1
     68.1535	        	        	        	        	       0	(  2  0  5)	  0  1
     72.0813	        	        	        	        	       0	(  2  0  6)	  0  1
     72.8504	        	        	        	        	       0	(  1  0 10)	  0  1
     74.6728	        	        	        	        	       0	(  1  1  8)	  0  1
     76.6158	        	        	        	        	       0	(  2  0  7)	  0  1
     80.1084	        	        	        	        	       0	(  1  0 11)	  0  1
     80.9238	        	        	        	        	       0	(  0  0 12)	  0  1
     81.0045	        	        	        	        	       0	(  2  1  0)	  0  1
     81.3444	        	        	        	        	       0	(  2  1  1)	  0  1
     81.7465	        	        	        	        	       0	(  2  0  8)	  0  1
     82.3624	        	        	        	        	       0	(  2  1  2)	  0  1
     84.0539	        	        	        	        	       0	(  2  1  3)	  0  1
     86.4137	        	        	        	        	       0	(  2  1  4)	  0  1
     86.9450	        	        	        	        	       0	(  1  1 10)	  0  1
     87.4849	        	        	        	        	       0	(  2  0  9)	  0  1
     87.8830	        	        	        	        	       0	(  1  0 12)	  0  1
     89.4398	        	        	        	        	       0	(  2  1  5)	  0  1
     93.1375	        	        	        	        	       0	(  2  1  6)	  0  1
     93.8728	        	        	        	        	       0	(  2  0 10)	  0  1
     94.8929	        	        	        	        	       0	(  3  0  0)	  0  1
     95.2303	        	        	        	        	       0	(  3  0  1)	  0  1
     96.2436	        	        	        	        	       0	(  3  0  2)	  0  1
     96.2968	        	        	        	        	       0	(  1  0 13)	  0  1
     97.5264	        	        	        	        	       0	(  2  1  7)	  0  1
     97.9370	        	        	        	        	       0	(  3  0  3)	  0  1
     98.4641	        	        	        	        	       0	(  0  0 14)	  0  1
    100.3202	        	        	        	        	       0	(  3  0  4)	  0  1
    100.9952	        	        	        	        	       0	(  2  0 11)	  0  1
    101.8163	        	        	        	        	       0	(  1  1 12)	  0  1
    102.6492	        	        	        	        	       0	(  2  1  8)	  0  1
    103.4120	        	        	        	        	       0	(  3  0  5)	  0  1
    105.5501	        	        	        	        	       0	(  1  0 14)	  0  1
    107.2474	        	        	        	        	       0	(  3  0  6)	  0  1
    108.5864	        	        	        	        	       0	(  2  1  9)	  0  1
    109.0070	        	        	        	        	       0	(  2  0 12)	  0  1
    111.8880	        	        	        	        	       0	(  3  0  7)	  0  1
    115.4838	        	        	        	        	       0	(  2  1 10)	  0  1
    115.9946	        	        	        	        	       0	(  1  0 15)	  0  1
    116.6170	        	        	        	        	       0	(  2  2  0)	  0  1
    117.4417	        	        	        	        	       0	(  3  0  8)	  0  1
    118.1322	        	        	        	        	       0	(  2  2  2)	  0  1
    118.1923	        	        	        	        	       0	(  2  0 13)	  0  1
    119.9547	        	        	        	        	       0	(  0  0 16)	  0  1
    120.6624	        	        	        	        	       0	(  1  1 14)	  0  1
    122.8179	        	        	        	        	       0	(  2  2  4)	  0  1
    123.6116	        	        	        	        	       0	(  2  1 11)	  0  1
    124.1022	        	        	        	        	       0	(  3  0  9)	  0  1
    124.6818	        	        	        	        	       0	(  3  1  0)	  0  1
    125.0920	        	        	        	        	       0	(  3  1  1)	  0  1
    126.3355	        	        	        	        	       0	(  3  1  2)	  0  1
    128.3404	        	        	        	        	       0	(  1  0 16)	  0  1
    128.4538	        	        	        	        	       0	(  3  1  3)	  0  1
    129.1240	        	        	        	        	       0	(  2  0 14)	  0  1
    131.2581	        	        	        	        	       0	(  2  2  6)	  0  1
    131.5298	        	        	        	        	       0	(  3  1  4)	  0  1
    132.2437	        	        	        	        	       0	(  3  0 10)	  0  1
    133.5255	        	        	        	        	       0	(  2  1 12)	  0  1
    135.7170	        	        	        	        	       0	(  3  1  5)	  0  1
    141.3127	        	        	        	        	       0	(  3  1  6)	  0  1
    142.7246	        	        	        	        	       0	(  3  0 11)	  0  1
    143.2697	        	        	        	        	       0	(  2  0 15)	  0  1
    144.5188	        	        	        	        	       0	(  1  0 17)	  0  1
    145.4936	        	        	        	        	       0	(  2  2  8)	  0  1
    146.6861	        	        	        	        	       0	(  2  1 13)	  0  1
    148.9867	        	        	        	        	       0	(  3  1  7)	  0  1
    149.6121	        	        	        	        	       0	(  1  1 16)	  0  1
    154.0316	        	        	        	        	       0	(  0  0 18)	  0  1
    158.6143	        	        	        	        	       0	(  3  0 12)	  0  1
    158.8353	        	        	        	        	       0	(  4  0  0)	  0  1
    159.7921	        	        	        	        	       0	(  4  0  1)	  0  1
    160.9848	        	        	        	        	       0	(  3  1  8)	  0  1
    162.9707	        	        	        	        	       0	(  4  0  2)	  0  1
    169.7968	        	        	        	        	       0	(  2  0 16)	  0  1
    170.3170	        	        	        	        	       0	(  4  0  3)	  0  1
    174.2721	        	        	        	        	       0	(  2  1 14)	  0  1
