MSG Master    CELL:    5.88877   5.88877  23.14866   90.0000   90.0000  120.0000   SPGR: P 63/m m c             TEMP:    639.45
  2   1280     2.52000     0.00000    -0.09772     0.00000     0.00000    0
    96    96     0     0     2
       0.00000      10.00000
     125.00000     130.00000
 2Theta	Yobs	Ycal	Yobs-Ycal	Backg	Posr	(hkl)	K
      0.7700	    0.00	  799.07	-1886.60	  674.32
      0.8700	    0.00	  797.53	-1886.60	  672.78
      0.9700	   52.00	  796.00	-1886.60	  671.25
      1.0700	   47.00	  794.48	-1886.60	  669.72
      1.1700	   46.00	  792.96	-1886.60	  668.20
      1.2700	   54.00	  791.44	-1886.60	  666.69
      1.3700	   52.00	  789.94	-1886.60	  665.18
      1.4700	   79.00	  788.44	-1886.60	  663.68
      1.5700	  302.00	  786.94	-1886.60	  662.18
      1.6700	  423.00	  785.45	-1886.60	  660.70
      1.7700	  582.00	  783.97	-1886.60	  659.21
      1.8700	  686.00	  782.49	-1886.60	  657.74
      1.9700	  718.00	  781.03	-1886.60	  656.27
      2.0700	  767.00	  779.56	-1886.60	  654.80
      2.1700	  747.00	  778.10	-1886.60	  653.35
      2.2700	  729.00	  776.65	-1886.60	  651.90
      2.3700	  750.00	  775.21	-1886.60	  650.45
      2.4700	  723.00	  773.77	-1886.60	  649.01
      2.5700	  693.00	  772.34	-1886.60	  647.58
      2.6700	  638.00	  770.91	-1886.60	  646.15
      2.7700	  680.00	  769.49	-1886.60	  644.73
      2.8700	  674.00	  768.07	-1886.60	  643.32
      2.9700	  646.00	  766.67	-1886.60	  641.91
      3.0700	  652.00	  765.26	-1886.60	  640.51
      3.1700	  592.00	  763.87	-1886.60	  639.11
      3.2700	  750.00	  762.48	-1886.60	  637.72
      3.3700	  907.00	  761.09	-1886.60	  636.34
      3.4700	 1074.00	  759.71	-1886.60	  634.96
      3.5700	 1197.00	  758.34	-1886.60	  633.59
      3.6700	 1314.00	  756.98	-1886.60	  632.22
      3.7700	 1411.00	  755.62	-1886.60	  630.86
      3.8700	 1490.00	  754.26	-1886.60	  629.50
      3.9700	 1525.00	  752.91	-1886.60	  628.16
      4.0700	 1531.00	  751.57	-1886.60	  626.81
      4.1700	 1615.00	  750.23	-1886.60	  625.48
      4.2700	 1604.00	  748.90	-1886.60	  624.15
      4.3700	 1591.00	  747.58	-1886.60	  622.82
      4.4700	 1527.00	  746.26	-1886.60	  621.50
      4.5700	 1488.00	  744.95	-1886.60	  620.19
      4.6700	 1399.00	  743.64	-1886.60	  618.88
      4.7700	 1401.00	  742.34	-1886.60	  617.58
      4.8700	 1327.00	  741.04	-1886.60	  616.28
      4.9700	 1286.00	  739.75	-1886.60	  615.00
      5.0700	 1223.00	  738.47	-1886.60	  613.71
      5.1700	 1212.00	  737.19	-1886.60	  612.43
      5.2700	 1190.00	  735.92	-1886.60	  611.16
      5.3700	 1188.00	  734.65	-1886.60	  609.89
      5.4700	 1171.00	  733.39	-1886.60	  608.63
      5.5700	 1140.00	  732.13	-1886.60	  607.38
      5.6700	 1087.00	  730.89	-1886.60	  606.13
      5.7700	 1057.00	  729.64	-1886.60	  604.88
      5.8700	  994.00	  728.40	-1886.60	  603.65
      5.9700	 1126.00	  727.17	-1886.60	  602.41
      6.0700	 1011.00	  725.94	-1886.60	  601.19
      6.1700	  993.00	  724.72	-1886.60	  599.97
      6.2700	 1073.00	  723.51	-1886.60	  598.75
      6.3700	 1004.00	  722.30	-1886.60	  597.54
      6.4700	  959.00	  721.09	-1886.60	  596.34
      6.5700	  923.00	  719.90	-1886.60	  595.14
      6.6700	  875.00	  718.70	-1886.60	  593.95
      6.7700	  896.00	  717.51	-1886.60	  592.76
      6.8700	  862.00	  716.33	-1886.60	  591.58
      6.9700	  904.00	  715.16	-1886.60	  590.40
      7.0700	  869.00	  713.99	-1886.60	  589.23
      7.1700	  801.00	  712.82	-1886.60	  588.06
      7.2700	  846.00	  711.66	-1886.60	  586.90
      7.3700	  845.00	  710.51	-1886.60	  585.75
      7.4700	  823.00	  709.36	-1886.60	  584.60
      7.5700	  822.00	  708.21	-1886.60	  583.46
      7.6700	  796.00	  707.08	-1886.60	  582.32
      7.7700	  787.00	  705.94	-1886.60	  581.19
      7.8700	  743.00	  704.82	-1886.60	  580.06
      7.9700	  674.00	  703.70	-1886.60	  578.94
      8.0700	  738.00	  702.58	-1886.60	  577.82
      8.1700	  792.00	  701.47	-1886.60	  576.71
      8.2700	  760.00	  700.36	-1886.60	  575.61
      8.3700	  745.00	  699.26	-1886.60	  574.51
      8.4700	  780.00	  698.17	-1886.60	  573.41
      8.5700	  745.00	  697.08	-1886.60	  572.32
      8.6700	  726.00	  696.00	-1886.60	  571.24
      8.7700	  771.00	  694.92	-1886.60	  570.16
      8.8700	  681.00	  693.84	-1886.60	  569.09
      8.9700	  745.00	  692.78	-1886.60	  568.02
      9.0700	  665.00	  691.71	-1886.60	  566.96
      9.1700	  704.00	  690.66	-1886.60	  565.90
      9.2700	  708.00	  689.60	-1886.60	  564.85
      9.3700	  761.00	  688.56	-1886.60	  563.80
      9.4700	  675.00	  687.51	-1886.60	  562.76
      9.5700	  650.00	  686.48	-1886.60	  561.72
      9.6700	  657.00	  685.45	-1886.60	  560.69
      9.7700	  692.00	  684.42	-1886.60	  559.66
      9.8700	  723.00	  683.40	-1886.60	  558.64
      9.9700	  740.00	  682.38	-1886.60	  557.63
     10.0700	  734.00	  683.57	-1836.17	  556.61
     10.1700	  661.00	  682.81	-1908.41	  555.61
     10.2700	  701.00	  682.10	-1867.70	  554.61
     10.3700	  704.00	  681.47	-1864.07	  553.61
     10.4700	  712.00	  680.94	-1855.55	  552.62
     10.5700	  690.00	  680.57	-1877.18	  551.64
     10.6700	  675.00	  680.42	-1892.02	  550.66
     10.7700	  721.00	  680.58	-1846.19	  549.68
     10.8700	  690.00	  681.15	-1877.76	  548.71
     10.9700	  656.00	  682.21	-1912.81	  547.75
     11.0700	  704.00	  683.79	-1866.39	  546.79
     11.1700	  718.00	  685.90	-1854.50	  545.83
     11.2700	  701.00	  688.57	-1874.17	  544.88
     11.3700	  648.00	  691.86	-1930.46	  543.94
     11.4700	  703.00	  695.89	-1879.49	  543.00
     11.5700	  688.00	  700.83	-1899.44	  542.06
     11.6700	  715.00	  706.95	-1878.55	  541.13
     11.7700	  749.00	  714.55	-1852.15	  540.20
     11.8700	  762.00	  723.89	-1848.49	  539.28
     11.9700	  757.00	  734.87	-1864.47	  538.37
     12.0700	  754.00	  746.58	-1879.18	  537.46
     12.1700	  853.00	  756.71	-1790.32	  536.55
     12.2700	  845.00	  761.11	-1802.72	  535.65
     12.3700	  865.00	  754.98	-1776.58	  534.75
     12.4700	  809.00	  738.02	-1815.62	  533.86
     12.5700	  708.00	  716.94	-1895.54	  532.98
     12.6700	  717.00	  698.29	-1867.89	  532.09
     12.7700	  671.00	  684.37	-1899.97	  531.22
     12.8700	  648.00	  674.79	-1913.39	  530.35
     12.9700	  654.00	  668.42	-1901.02	  529.48
     13.0700	  676.00	  664.13	-1874.73	  528.62
     13.1700	  614.00	  661.04	-1933.65	  527.76
     13.2700	  652.00	  658.66	-1893.26	  526.90
     13.3700	  659.00	  656.69	-1884.29	  526.06
     13.4700	  623.00	  654.99	-1918.59	  525.21
     13.5700	  618.00	  653.47	-1922.07	  524.37
     13.6700	  611.00	  652.09	-1927.69	  523.54
     13.7700	  592.00	  650.81	-1945.42	  522.71
     13.8700	  616.00	  649.62	-1920.22	  521.88
     13.9700	  696.00	  648.49	-1839.10	  521.06
     14.0700	  635.00	  647.42	-1899.02	  520.25
     14.1700	  645.00	  646.38	-1887.99	  519.43
     14.2700	  644.00	  645.38	-1887.99	  518.63
     14.3700	  687.00	  644.42	-1844.02	  517.82
     14.4700	  639.00	  643.48	-1891.08	  517.03
     14.5700	  629.00	  642.56	-1900.16	  516.23
     14.6700	  677.00	  641.66	-1851.26	  515.44
     14.7700	  640.00	  640.77	-1887.38	  514.66
     14.8700	  631.00	  639.91	-1895.51	  513.88
     14.9700	  636.00	  639.05	-1889.66	  513.11
     15.0700	  607.00	  638.21	-1917.82	  512.33
     15.1700	  580.00	  637.38	-1943.99	  511.57
     15.2700	  610.00	  636.57	-1913.17	  510.81
     15.3700	  603.00	  635.76	-1919.36	  510.05
     15.4700	  635.00	  634.96	-1886.56	  509.30
     15.5700	  586.00	  634.17	-1934.77	  508.55
     15.6700	  601.00	  633.38	-1918.99	  507.80
     15.7700	  620.00	  632.61	-1899.21	  507.06
     15.8700	  532.00	  631.84	-1986.44	  506.33
     15.9700	  633.00	  631.08	-1884.68	  505.60
     16.0700	  624.00	  630.33	-1892.93	  504.87
     16.1700	  642.00	  629.58	-1874.18	  504.15
     16.2700	  665.00	  628.84	-1850.44	  503.43
     16.3700	  597.00	  628.10	-1917.71	  502.72
     16.4700	  602.00	  627.37	-1911.98	  502.01
     16.5700	  611.00	  626.65	-1902.25	  501.30
     16.6700	  631.00	  625.93	-1881.53	  500.60
     16.7700	  585.00	  625.22	-1926.82	  499.90
     16.8700	  590.00	  624.51	-1921.12	  499.21
     16.9700	  658.00	  623.81	-1852.41	  498.52
     17.0700	  639.00	  623.11	-1870.72	  497.84
     17.1700	  615.00	  622.42	-1894.03	  497.16
     17.2700	  619.00	  621.74	-1889.34	  496.48
     17.3700	  625.00	  621.05	-1882.66	  495.81
     17.4700	  618.00	  620.38	-1888.98	  495.14
     17.5700	  638.00	  619.71	-1868.31	  494.48
     17.6700	  623.00	  619.04	-1882.64	  493.82
     17.7700	  572.00	  618.38	-1932.98	  493.17
     17.8700	  608.00	  617.72	-1896.32	  492.52
     17.9700	  646.00	  617.07	-1857.67	  491.87
     18.0700	  623.00	  616.42	-1880.02	  491.23
     18.1700	  590.00	  615.78	-1912.38	  490.59
     18.2700	  590.00	  615.14	-1911.74	  489.95
     18.3700	  611.00	  614.50	-1890.11	  489.32
     18.4700	  571.00	  613.87	-1929.48	  488.70
     18.5700	  574.00	  614.49	-1927.10	  488.07
     18.6700	  620.00	  614.62	-1881.23	  487.45
     18.7700	  605.00	  614.05	-1895.65	  486.84
     18.8700	  634.00	  613.48	-1866.08	  486.23
     18.9700	  542.00	  612.91	-1957.51	  485.62
     19.0700	  655.00	  612.35	-1843.96	  485.02
     19.1700	  595.00	  611.80	-1903.40	  484.42
     19.2700	  620.00	  611.25	-1877.85	  483.83
     19.3700	  570.00	  610.71	-1927.31	  483.24
     19.4700	  662.00	  610.17	-1834.78	  482.65
     19.5700	  614.00	  609.65	-1882.25	  482.07
     19.6700	  587.00	  609.12	-1908.73	  481.49
     19.7700	  597.00	  608.61	-1898.21	  480.91
     19.8700	  603.00	  608.15	-1891.75	  480.34
     19.9700	  566.00	  607.65	-1928.25	  479.77
     20.0700	  584.00	  607.15	-1909.75	  479.21
     20.1700	  590.00	  606.66	-1903.26	  478.65
     20.2700	  590.00	  606.17	-1902.78	  478.09
     20.3700	  574.00	  605.70	-1918.30	  477.54
     20.4700	  582.00	  605.23	-1909.83	  476.99
     20.5700	  608.00	  604.77	-1883.37	  476.44
     20.6700	  609.00	  604.31	-1881.91	  475.90
     20.7700	  613.00	  603.86	-1877.47	  475.36
     20.8700	  585.00	  603.42	-1905.03	  474.83
     20.9700	  607.00	  602.99	-1882.60	  474.30
     21.0700	  623.00	  602.57	-1866.17	  473.77
     21.1700	  629.00	  602.15	-1859.76	  473.25
     21.2700	  656.00	  601.75	-1832.35	  472.73
     21.3700	  637.00	  601.35	-1850.96	  472.22
     21.4700	  651.00	  600.96	-1836.57	  471.70
     21.5700	  630.00	  600.59	-1857.19	  471.19
     21.6700	  587.00	  600.22	-1899.82	  470.69
     21.7700	  593.00	  599.87	-1893.47	  470.19
     21.8700	  578.00	  599.52	-1908.13	  469.69
     21.9700	  640.00	  599.19	-1845.79	  469.20
     22.0700	  571.00	  598.87	-1914.48	  468.71
     22.1700	  600.00	  598.75	-1885.36	  468.22
     22.2700	  567.00	  598.47	-1918.07	  467.74
     22.3700	  594.00	  598.20	-1890.80	  467.26
     22.4700	  602.00	  597.94	-1882.55	  466.78
     22.5700	  612.00	  597.71	-1872.31	  466.31
     22.6700	  598.00	  597.50	-1886.10	  465.84
     22.7700	  601.00	  597.31	-1882.91	  465.37
     22.8700	  605.00	  597.14	-1878.75	  464.91
     22.9700	  606.00	  597.01	-1877.61	  464.45
     23.0700	  581.00	  596.90	-1902.51	  463.99
     23.1700	  622.00	  596.84	-1861.44	  463.54
     23.2700	  582.00	  596.82	-1901.42	  463.09
     23.3700	  615.00	  596.85	-1868.45	  462.64
     23.4700	  611.00	  596.94	-1872.55	  462.20
     23.5700	  607.00	  597.11	-1876.72	  461.76
     23.6700	  600.00	  597.38	-1883.99	  461.33
     23.7700	  644.00	  597.78	-1840.39	  460.90
     23.8700	  577.00	  598.38	-1907.98	  460.47
     23.9700	  631.00	  599.26	-1854.86	  460.04
     24.0700	  593.00	  600.58	-1894.18	  459.62
     24.1700	  614.00	  602.58	-1875.19	  459.20
     24.2700	  635.00	  605.57	-1857.17	  458.78
     24.3700	  651.00	  610.07	-1845.68	  458.37
     24.4700	  618.00	  616.42	-1885.02	  457.96
     24.5700	  671.00	  624.74	-1840.35	  457.55
     24.6700	  671.00	  634.71	-1850.32	  457.15
     24.7700	  711.00	  645.20	-1820.80	  456.75
     24.8700	  697.00	  653.92	-1843.52	  456.35
     24.9700	  712.00	  657.45	-1832.05	  455.96
     25.0700	  695.00	  653.18	-1844.79	  455.57
     25.1700	  641.00	  642.92	-1888.53	  455.18
     25.2700	  664.00	  631.42	-1854.02	  454.80
     25.3700	  669.00	  621.96	-1839.56	  454.42
     25.4700	  643.00	  615.41	-1859.01	  454.04
     25.5700	  633.00	  611.48	-1865.08	  453.67
     25.6700	  600.00	  609.51	-1896.11	  453.29
     25.7700	  659.00	  608.86	-1836.47	  452.93
     25.8700	  611.00	  609.09	-1884.70	  452.56
     25.9700	  677.00	  609.93	-1819.53	  452.20
     26.0700	  636.00	  611.26	-1861.86	  451.84
     26.1700	  639.00	  613.04	-1860.64	  451.48
     26.2700	  646.00	  615.27	-1855.87	  451.13
     26.3700	  591.00	  618.00	-1913.60	  450.78
     26.4700	  628.00	  621.30	-1879.90	  450.43
     26.5700	  650.00	  625.25	-1861.85	  450.08
     26.6700	  646.00	  629.98	-1870.59	  449.74
     26.7700	  673.00	  635.67	-1849.28	  449.40
     26.8700	  656.00	  642.55	-1873.15	  449.07
     26.9700	  666.00	  650.92	-1871.52	  448.74
     27.0700	  666.00	  661.22	-1881.83	  448.41
     27.1700	  664.00	  674.07	-1896.68	  448.08
     27.2700	  668.00	  690.43	-1909.03	  447.75
     27.3700	  659.00	  711.95	-1939.55	  447.43
     27.4700	  734.00	  741.89	-1894.49	  447.11
     27.5700	  730.00	  787.07	-1943.68	  446.80
     27.6700	  799.00	  861.23	-1948.83	  446.49
     27.7700	  794.00	  989.39	-2081.99	  446.18
     27.8700	  924.00	 1211.29	-2173.89	  445.87
     27.9700	 1253.00	 1577.81	-2211.41	  445.56
     28.0700	 1782.00	 2131.54	-2236.14	  445.26
     28.1700	 2754.00	 2868.22	-2000.82	  444.96
     28.2700	 3996.00	 3683.47	-1574.08	  444.67
     28.3700	 4821.00	 4332.32	-1397.92	  444.37
     28.4700	 5131.00	 4477.92	-1233.53	  444.08
     28.5700	 4297.00	 3997.49	-1587.09	  443.79
     28.6700	 3090.00	 3268.66	-2065.26	  443.51
     28.7700	 2375.00	 2734.73	-2246.34	  443.23
     28.8700	 2360.00	 2548.53	-2075.13	  442.95
     28.9700	 2657.00	 2630.02	-1859.62	  442.67
     29.0700	 3032.00	 2770.54	-1625.14	  442.39
     29.1700	 2925.00	 2728.66	-1690.27	  442.12
     29.2700	 2547.00	 2392.58	-1732.18	  441.85
     29.3700	 1844.00	 1903.62	-1946.23	  441.58
     29.4700	 1318.00	 1457.22	-2025.83	  441.32
     29.5700	 1037.00	 1135.60	-1985.20	  441.06
     29.6700	  956.00	  936.26	-1866.87	  440.80
     29.7700	  867.00	  823.48	-1843.08	  440.54
     29.8700	  848.00	  760.46	-1799.06	  440.29
     29.9700	  716.00	  722.70	-1893.30	  440.04
     30.0700	  703.00	  697.61	-1881.21	  439.79
     30.1700	  677.00	  679.68	-1889.28	  439.54
     30.2700	  698.00	  666.66	-1855.26	  439.30
     30.3700	  659.00	  657.76	-1885.37	  439.06
     30.4700	  663.00	  653.12	-1876.73	  438.82
     30.5700	  654.00	  653.61	-1886.22	  438.58
     30.6700	  697.00	  660.63	-1850.23	  438.35
     30.7700	  687.00	  675.26	-1874.86	  438.11
     30.8700	  711.00	  696.88	-1872.49	  437.88
     30.9700	  718.00	  721.67	-1890.28	  437.66
     31.0700	  741.00	  741.68	-1887.28	  437.43
     31.1700	  732.00	  745.86	-1900.46	  437.21
     31.2700	  777.00	  727.65	-1837.25	  436.99
     31.3700	  672.00	  694.83	-1909.43	  436.77
     31.4700	  687.00	  661.36	-1860.96	  436.56
     31.5700	  634.00	  634.87	-1887.47	  436.35
     31.6700	  640.00	  616.76	-1863.36	  436.13
     31.7700	  617.00	  605.46	-1875.07	  435.93
     31.8700	  600.00	  598.64	-1885.24	  435.72
     31.9700	  627.00	  594.38	-1853.98	  435.52
     32.0700	  618.00	  591.50	-1860.11	  435.32
     32.1700	  586.00	  589.43	-1890.03	  435.12
     32.2700	  634.00	  587.88	-1840.48	  434.92
     32.3700	  648.00	  586.74	-1825.34	  434.73
     32.4700	  620.00	  585.95	-1852.55	  434.53
     32.5700	  601.00	  585.48	-1871.09	  434.34
     32.6700	  602.00	  585.35	-1869.96	  434.15
     32.7700	  582.00	  585.60	-1890.20	  433.97
     32.8700	  639.00	  586.21	-1833.82	  433.78
     32.9700	  636.00	  587.29	-1837.89	  433.60
     33.0700	  662.00	  588.96	-1813.56	  433.42
     33.1700	  618.00	  591.43	-1860.03	  433.25
     33.2700	  642.00	  595.10	-1839.70	  433.07
     33.3700	  609.00	  600.73	-1878.33	  432.90
     33.4700	  640.00	  609.80	-1856.40	  432.73
     33.5700	  570.00	  624.95	-1941.55	  432.56
     33.6700	  683.00	  650.33	-1853.94	  432.39
     33.7700	  717.00	  691.33	-1860.93	  432.23
     33.8700	  714.00	  752.68	-1925.28	  432.06
     33.9700	  862.00	  834.66	-1859.26	  431.90
     34.0700	  906.00	  928.27	-1908.87	  431.75
     34.1700	 1102.00	 1012.07	-1796.67	  431.59
     34.2700	 1168.00	 1053.89	-1772.49	  431.43
     34.3700	 1142.00	 1027.59	-1772.20	  431.28
     34.4700	  971.00	  943.68	-1859.29	  431.13
     34.5700	  856.00	  841.98	-1872.58	  430.98
     34.6700	  774.00	  752.88	-1865.48	  430.84
     34.7700	  659.00	  687.14	-1914.75	  430.69
     34.8700	  637.00	  643.96	-1893.56	  430.55
     34.9700	  660.00	  617.69	-1844.30	  430.41
     35.0700	  591.00	  602.15	-1897.75	  430.27
     35.1700	  627.00	  592.65	-1852.25	  430.13
     35.2700	  618.00	  586.39	-1854.99	  430.00
     35.3700	  563.00	  581.89	-1905.50	  429.86
     35.4700	  605.00	  578.47	-1860.07	  429.73
     35.5700	  590.00	  575.76	-1872.36	  429.60
     35.6700	  595.00	  573.57	-1865.17	  429.47
     35.7700	  551.00	  571.77	-1907.38	  429.35
     35.8700	  582.00	  570.29	-1874.89	  429.22
     35.9700	  557.00	  569.05	-1898.65	  429.10
     36.0700	  541.00	  568.01	-1913.62	  428.98
     36.1700	  589.00	  567.15	-1864.76	  428.86
     36.2700	  573.00	  566.44	-1880.04	  428.75
     36.3700	  550.00	  565.86	-1902.47	  428.63
     36.4700	  598.00	  565.41	-1854.01	  428.52
     36.5700	  576.00	  565.08	-1875.68	  428.41
     36.6700	  534.00	  565.36	-1917.97	  428.30
     36.7700	  540.00	  565.30	-1911.90	  428.19
     36.8700	  570.00	  565.59	-1882.19	  428.08
     36.9700	  592.00	  565.87	-1860.47	  427.98
     37.0700	  579.00	  566.41	-1874.02	  427.87
     37.1700	  547.00	  567.33	-1906.93	  427.77
     37.2700	  585.00	  568.81	-1870.41	  427.67
     37.3700	  561.00	  571.17	-1896.77	  427.57
     37.4700	  565.00	  574.88	-1896.48	  427.48
     37.5700	  575.00	  580.70	-1892.30	  427.38
     37.6700	  562.00	  589.47	-1914.08	  427.29
     37.7700	  653.00	  602.05	-1835.65	  427.19
     37.8700	  601.00	  618.75	-1904.36	  427.10
     37.9700	  605.00	  638.77	-1920.37	  427.02
     38.0700	  649.00	  659.64	-1897.25	  426.93
     38.1700	  658.00	  677.01	-1905.61	  426.84
     38.2700	  683.00	  684.67	-1888.27	  426.76
     38.3700	  685.00	  677.63	-1879.24	  426.68
     38.4700	  670.00	  656.63	-1873.24	  426.60
     38.5700	  656.00	  632.17	-1862.77	  426.52
     38.6700	  637.00	  609.77	-1859.38	  426.44
     38.7700	  546.00	  592.33	-1932.93	  426.36
     38.8700	  627.00	  580.13	-1839.74	  426.29
     38.9700	  525.00	  572.25	-1933.85	  426.21
     39.0700	  596.00	  567.36	-1857.96	  426.14
     39.1700	  569.00	  564.32	-1881.92	  426.07
     39.2700	  560.00	  562.34	-1888.94	  426.00
     39.3700	  546.00	  560.95	-1901.55	  425.93
     39.4700	  524.00	  559.91	-1922.51	  425.87
     39.5700	  548.00	  559.09	-1897.70	  425.80
     39.6700	  542.00	  558.44	-1903.04	  425.74
     39.7700	  569.00	  557.90	-1875.50	  425.67
     39.8700	  546.00	  556.78	-1897.38	  425.61
     39.9700	  522.00	  556.42	-1921.03	  425.55
     40.0700	  537.00	  556.13	-1905.74	  425.49
     40.1700	  553.00	  555.89	-1889.50	  425.44
     40.2700	  534.00	  555.70	-1908.31	  425.38
     40.3700	  565.00	  555.55	-1877.15	  425.33
     40.4700	  522.00	  555.98	-1920.58	  425.27
     40.5700	  547.00	  555.91	-1895.51	  425.22
     40.6700	  529.00	  555.87	-1913.47	  425.17
     40.7700	  537.00	  555.87	-1905.47	  425.12
     40.8700	  531.00	  555.90	-1911.50	  425.07
     40.9700	  512.00	  555.97	-1930.57	  425.03
     41.0700	  559.00	  556.08	-1883.68	  424.98
     41.1700	  553.00	  556.23	-1889.84	  424.94
     41.2700	  549.00	  556.50	-1894.10	  424.89
     41.3700	  576.00	  556.77	-1867.37	  424.85
     41.4700	  588.00	  557.11	-1855.72	  424.81
     41.5700	  580.00	  557.55	-1864.16	  424.77
     41.6700	  567.00	  558.11	-1877.72	  424.73
     41.7700	  583.00	  558.84	-1862.44	  424.70
     41.8700	  555.00	  559.82	-1891.42	  424.66
     41.9700	  539.00	  561.19	-1908.79	  424.62
     42.0700	  542.00	  563.24	-1907.84	  424.59
     42.1700	  540.00	  566.45	-1913.05	  424.56
     42.2700	  518.00	  571.54	-1940.14	  424.53
     42.3700	  586.00	  579.46	-1880.06	  424.50
     42.4700	  568.00	  591.18	-1909.78	  424.47
     42.5700	  610.00	  607.23	-1883.84	  424.44
     42.6700	  544.00	  627.03	-1969.63	  424.41
     42.7700	  621.00	  648.22	-1913.82	  424.38
     42.8700	  686.00	  665.90	-1866.51	  424.36
     42.9700	  596.00	  673.85	-1964.45	  424.33
     43.0700	  624.00	  667.81	-1930.41	  424.31
     43.1700	  642.00	  650.59	-1895.19	  424.29
     43.2700	  579.00	  629.05	-1936.65	  424.27
     43.3700	  623.00	  608.73	-1872.33	  424.25
     43.4700	  546.00	  592.27	-1932.88	  424.23
     43.5700	  581.00	  580.49	-1886.09	  424.21
     43.6700	  579.00	  572.42	-1880.03	  424.19
     43.7700	  571.00	  567.30	-1882.90	  424.17
     43.8700	  518.00	  564.12	-1932.72	  424.16
     43.9700	  573.00	  562.12	-1875.72	  424.14
     44.0700	  532.00	  560.81	-1915.41	  424.13
     44.1700	  557.00	  559.90	-1889.50	  424.12
     44.2700	  571.00	  559.23	-1874.84	  424.11
     44.3700	  640.00	  558.74	-1805.34	  424.09
     44.4700	  572.00	  558.36	-1872.97	  424.08
     44.5700	  589.00	  558.08	-1855.69	  424.07
     44.6700	  550.00	  558.10	-1894.70	  424.07
     44.7700	  613.00	  557.96	-1831.57	  424.06
     44.8700	  542.00	  557.88	-1902.48	  424.05
     44.9700	  566.00	  557.86	-1878.46	  424.05
     45.0700	  607.00	  557.86	-1837.47	  424.04
     45.1700	  556.00	  557.90	-1888.51	  424.04
     45.2700	  525.00	  557.98	-1919.58	  424.03
     45.3700	  573.00	  558.09	-1871.69	  424.03
     45.4700	  580.00	  558.23	-1864.83	  424.03
     45.5700	  609.00	  558.49	-1836.09	  424.03
     45.6700	  547.00	  558.69	-1898.29	  424.03
     45.7700	  544.00	  558.92	-1901.53	  424.03
     45.8700	  566.00	  559.19	-1879.80	  424.03
     45.9700	  573.00	  559.50	-1873.10	  424.03
     46.0700	  585.00	  559.84	-1861.44	  424.03
     46.1700	  566.00	  560.22	-1880.82	  424.03
     46.2700	  558.00	  560.75	-1889.35	  424.04
     46.3700	  590.00	  561.23	-1857.83	  424.04
     46.4700	  594.00	  561.78	-1854.39	  424.05
     46.5700	  553.00	  562.40	-1896.00	  424.05
     46.6700	  588.00	  562.92	-1861.53	  424.06
     46.7700	  566.00	  563.73	-1884.33	  424.07
     46.8700	  568.00	  564.66	-1883.26	  424.07
     46.9700	  585.00	  565.77	-1867.37	  424.08
     47.0700	  516.00	  567.13	-1937.73	  424.09
     47.1700	  573.00	  568.89	-1882.49	  424.10
     47.2700	  579.00	  571.28	-1878.88	  424.11
     47.3700	  588.00	  574.69	-1873.30	  424.12
     47.4700	  597.00	  579.66	-1869.27	  424.13
     47.5700	  601.00	  586.83	-1872.44	  424.14
     47.6700	  657.00	  596.79	-1826.40	  424.16
     47.7700	  602.00	  609.82	-1894.43	  424.17
     47.8700	  603.00	  625.51	-1909.11	  424.18
     47.9700	  668.00	  642.34	-1860.94	  424.20
     48.0700	  673.00	  657.30	-1870.91	  424.21
     48.1700	  586.00	  666.22	-1966.82	  424.23
     48.2700	  645.00	  666.44	-1908.05	  424.24
     48.3700	  612.00	  657.84	-1932.44	  424.26
     48.4700	  602.00	  644.85	-1929.45	  424.28
     48.5700	  593.00	  631.58	-1925.19	  424.29
     48.6700	  603.00	  620.57	-1904.17	  424.31
     48.7700	  618.00	  612.88	-1881.48	  424.33
     48.8700	  598.00	  608.70	-1897.30	  424.35
     48.9700	  649.00	  607.70	-1845.30	  424.36
     49.0700	  590.00	  609.43	-1906.03	  424.38
     49.1700	  610.00	  613.53	-1890.13	  424.40
     49.2700	  609.00	  619.96	-1897.56	  424.42
     49.3700	  607.00	  629.18	-1908.79	  424.44
     49.4700	  631.00	  642.65	-1898.25	  424.47
     49.5700	  635.00	  663.69	-1915.30	  424.49
     49.6700	  712.00	  699.12	-1873.72	  424.51
     49.7700	  744.00	  761.10	-1903.70	  424.53
     49.8700	  859.00	  868.09	-1895.69	  424.55
     49.9700	  982.00	 1042.57	-1947.17	  424.58
     50.0700	 1354.00	 1303.13	-1835.73	  424.60
     50.1700	 1721.00	 1651.33	-1816.94	  424.62
     50.2700	 2159.00	 2056.71	-1784.31	  424.65
     50.3700	 2522.00	 2445.39	-1809.99	  424.67
     50.4700	 2804.00	 2704.92	-1787.52	  424.69
     50.5700	 2697.00	 2729.91	-1919.52	  424.72
     50.6700	 2536.00	 2506.73	-1857.34	  424.74
     50.7700	 2086.00	 2131.71	-1932.31	  424.77
     50.8700	 1675.00	 1725.35	-1936.95	  424.79
     50.9700	 1298.00	 1370.33	-1958.93	  424.82
     51.0700	  946.00	 1103.29	-2043.89	  424.85
     51.1700	  885.00	  925.95	-1927.55	  424.87
     51.2700	  845.00	  820.02	-1861.63	  424.90
     51.3700	  726.00	  760.95	-1921.55	  424.93
     51.4700	  703.00	  727.11	-1910.71	  424.95
     51.5700	  754.00	  704.09	-1836.69	  424.98
     51.6700	  666.00	  685.14	-1905.74	  425.01
     51.7700	  685.00	  668.40	-1870.01	  425.04
     51.8700	  632.00	  654.00	-1908.61	  425.06
     51.9700	  671.00	  642.27	-1857.88	  425.09
     52.0700	  653.00	  633.27	-1866.87	  425.12
     52.1700	  654.00	  626.81	-1859.41	  425.15
     52.2700	  639.00	  622.56	-1870.16	  425.18
     52.3700	  638.00	  620.16	-1868.77	  425.20
     52.4700	  604.00	  619.45	-1902.05	  425.23
     52.5700	  605.00	  620.45	-1902.06	  425.26
     52.6700	  611.00	  623.49	-1899.09	  425.29
     52.7700	  660.00	  629.27	-1855.87	  425.32
     52.8700	  650.00	  639.10	-1875.70	  425.35
     52.9700	  683.00	  655.01	-1858.61	  425.38
     53.0700	  676.00	  679.83	-1890.43	  425.41
     53.1700	  698.00	  716.91	-1905.52	  425.44
     53.2700	  804.00	  769.47	-1852.08	  425.47
     53.3700	  843.00	  839.40	-1883.01	  425.50
     53.4700	  887.00	  925.84	-1925.44	  425.53
     53.5700	 1049.00	 1023.06	-1860.67	  425.56
     53.6700	 1155.00	 1118.95	-1850.56	  425.59
     53.7700	 1231.00	 1193.76	-1849.37	  425.62
     53.8700	 1202.00	 1225.01	-1909.61	  425.65
     53.9700	 1211.00	 1200.86	-1876.46	  425.68
     54.0700	 1189.00	 1130.40	-1828.00	  425.71
     54.1700	 1053.00	 1036.03	-1869.63	  425.74
     54.2700	  943.00	  938.64	-1882.24	  425.76
     54.3700	  813.00	  851.34	-1924.94	  425.79
     54.4700	  761.00	  780.26	-1905.87	  425.82
     54.5700	  746.00	  726.70	-1867.30	  425.85
     54.6700	  705.00	  688.95	-1870.56	  425.88
     54.7700	  676.00	  663.85	-1874.46	  425.91
     54.8700	  629.00	  647.98	-1905.58	  425.94
     54.9700	  640.00	  638.39	-1884.99	  425.97
     55.0700	  640.00	  632.92	-1879.53	  426.00
     55.1700	  606.00	  630.17	-1910.78	  426.03
     55.2700	  660.00	  629.32	-1855.92	  426.06
     55.3700	  614.00	  629.94	-1902.54	  426.09
     55.4700	  632.00	  631.84	-1886.45	  426.12
     55.5700	  623.00	  635.02	-1898.62	  426.15
     55.6700	  627.00	  639.56	-1899.17	  426.18
     55.7700	  591.00	  645.72	-1941.33	  426.21
     55.8700	  622.00	  653.97	-1918.58	  426.24
     55.9700	  656.00	  665.24	-1895.84	  426.27
     56.0700	  632.00	  681.23	-1935.83	  426.29
     56.1700	  675.00	  705.06	-1916.66	  426.32
     56.2700	  707.00	  741.96	-1921.56	  426.35
     56.3700	  826.00	  799.91	-1860.52	  426.38
     56.4700	  855.00	  889.68	-1921.28	  426.41
     56.5700	 1032.00	 1023.57	-1878.17	  426.43
     56.6700	 1184.00	 1212.42	-1915.03	  426.46
     56.7700	 1410.00	 1460.87	-1937.47	  426.49
     56.8700	 1749.00	 1761.57	-1899.18	  426.52
     56.9700	 2212.00	 2089.74	-1764.35	  426.54
     57.0700	 2498.00	 2397.88	-1786.48	  426.57
     57.1700	 2630.00	 2617.21	-1873.82	  426.60
     57.2700	 2598.00	 2679.57	-1968.17	  426.62
     57.3700	 2512.00	 2561.68	-1936.29	  426.65
     57.4700	 2208.00	 2305.86	-1984.46	  426.68
     57.5700	 1936.00	 1985.81	-1936.42	  426.70
     57.6700	 1569.00	 1664.97	-1982.58	  426.73
     57.7700	 1242.00	 1382.92	-2027.52	  426.75
     57.8700	 1061.00	 1158.22	-1983.82	  426.78
     57.9700	  986.00	  993.57	-1894.17	  426.80
     58.0700	  836.00	  882.43	-1933.04	  426.83
     58.1700	  819.00	  814.17	-1881.78	  426.85
     58.2700	  803.00	  778.62	-1862.22	  426.88
     58.3700	  747.00	  768.51	-1908.11	  426.90
     58.4700	  791.00	  780.05	-1875.65	  426.92
     58.5700	  828.00	  811.96	-1870.57	  426.95
     58.6700	  868.00	  863.77	-1882.37	  426.97
     58.7700	  938.00	  933.89	-1882.49	  426.99
     58.8700	 1053.00	 1017.80	-1851.41	  427.01
     58.9700	 1112.00	 1106.85	-1881.45	  427.03
     59.0700	 1140.00	 1188.89	-1935.49	  427.06
     59.1700	 1261.00	 1253.28	-1878.89	  427.08
     59.2700	 1210.00	 1295.76	-1972.37	  427.10
     59.3700	 1305.00	 1315.79	-1897.40	  427.12
     59.4700	 1313.00	 1311.95	-1885.55	  427.14
     59.5700	 1321.00	 1284.93	-1850.53	  427.16
     59.6700	 1240.00	 1243.68	-1890.28	  427.18
     59.7700	 1280.00	 1202.46	-1809.07	  427.20
     59.8700	 1323.00	 1173.68	-1737.28	  427.21
     59.9700	 1172.00	 1165.47	-1880.07	  427.23
     60.0700	 1233.00	 1183.71	-1837.32	  427.25
     60.1700	 1291.00	 1232.48	-1828.08	  427.27
     60.2700	 1316.00	 1310.85	-1881.46	  427.28
     60.3700	 1502.00	 1409.25	-1793.85	  427.30
     60.4700	 1519.00	 1507.67	-1875.27	  427.32
     60.5700	 1564.00	 1577.24	-1899.84	  427.33
     60.6700	 1579.00	 1588.97	-1896.57	  427.35
     60.7700	 1523.00	 1530.51	-1894.11	  427.36
     60.8700	 1410.00	 1415.40	-1892.01	  427.38
     60.9700	 1310.00	 1271.76	-1848.37	  427.39
     61.0700	 1116.00	 1126.12	-1896.72	  427.41
     61.1700	  934.00	  996.56	-1949.17	  427.42
     61.2700	  877.00	  892.89	-1902.50	  427.43
     61.3700	  836.00	  818.29	-1868.89	  427.44
     61.4700	  746.00	  771.76	-1912.36	  427.46
     61.5700	  742.00	  750.77	-1895.38	  427.47
     61.6700	  745.00	  753.36	-1894.96	  427.48
     61.7700	  789.00	  779.35	-1876.95	  427.49
     61.8700	  889.00	  830.24	-1827.84	  427.50
     61.9700	  988.00	  907.91	-1806.51	  427.51
     62.0700	 1094.00	 1012.58	-1805.18	  427.52
     62.1700	 1171.00	 1140.46	-1856.07	  427.52
     62.2700	 1368.00	 1281.72	-1800.33	  427.53
     62.3700	 1422.00	 1418.87	-1883.47	  427.54
     62.4700	 1548.00	 1526.69	-1865.29	  427.55
     62.5700	 1558.00	 1577.65	-1906.26	  427.55
     62.6700	 1570.00	 1555.35	-1871.95	  427.56
     62.7700	 1352.00	 1466.54	-2001.14	  427.56
     62.8700	 1261.00	 1335.94	-1961.54	  427.57
     62.9700	 1141.00	 1190.98	-1936.59	  427.57
     63.0700	 1035.00	 1052.54	-1904.14	  427.58
     63.1700	  885.00	  933.32	-1934.92	  427.58
     63.2700	  811.00	  838.87	-1914.47	  427.58
     63.3700	  823.00	  769.45	-1833.05	  427.58
     63.4700	  730.00	  721.87	-1878.48	  427.58
     63.5700	  733.00	  691.52	-1845.12	  427.59
     63.6700	  660.00	  673.85	-1900.45	  427.59
     63.7700	  696.00	  665.36	-1855.96	  427.59
     63.8700	  659.00	  663.96	-1891.56	  427.58
     63.9700	  700.00	  669.08	-1855.69	  427.58
     64.0700	  739.00	  681.37	-1828.97	  427.58
     64.1700	  701.00	  702.49	-1888.09	  427.58
     64.2700	  800.00	  734.75	-1821.35	  427.57
     64.3700	  848.00	  780.62	-1819.22	  427.57
     64.4700	  919.00	  841.94	-1809.54	  427.57
     64.5700	  979.00	  918.59	-1826.19	  427.56
     64.6700	 1067.00	 1009.34	-1828.94	  427.56
     64.7700	 1141.00	 1107.92	-1853.52	  427.55
     64.8700	 1212.00	 1204.28	-1878.88	  427.54
     64.9700	 1340.00	 1284.80	-1831.40	  427.53
     65.0700	 1381.00	 1335.80	-1841.41	  427.53
     65.1700	 1362.00	 1347.52	-1872.12	  427.52
     65.2700	 1286.00	 1318.29	-1918.89	  427.51
     65.3700	 1254.00	 1254.76	-1887.36	  427.50
     65.4700	 1159.00	 1170.18	-1897.79	  427.49
     65.5700	 1034.00	 1078.16	-1930.77	  427.47
     65.6700	  974.00	  989.69	-1902.29	  427.46
     65.7700	  887.00	  910.95	-1910.55	  427.45
     65.8700	  794.00	  844.49	-1937.09	  427.44
     65.9700	  798.00	  790.64	-1879.24	  427.42
     66.0700	  713.00	  748.59	-1922.19	  427.41
     66.1700	  727.00	  716.88	-1876.48	  427.39
     66.2700	  636.00	  693.73	-1944.34	  427.37
     66.3700	  612.00	  677.22	-1951.82	  427.36
     66.4700	  647.00	  665.85	-1905.45	  427.34
     66.5700	  613.00	  658.46	-1932.07	  427.32
     66.6700	  635.00	  654.27	-1905.87	  427.30
     66.7700	  601.00	  652.78	-1938.38	  427.28
     66.8700	  615.00	  653.87	-1925.47	  427.26
     66.9700	  658.00	  657.54	-1886.15	  427.24
     67.0700	  642.00	  664.13	-1908.73	  427.22
     67.1700	  664.00	  674.75	-1897.36	  427.20
     67.2700	  679.00	  691.26	-1898.87	  427.17
     67.3700	  679.00	  716.59	-1924.19	  427.15
     67.4700	  765.00	  754.98	-1876.58	  427.13
     67.5700	  816.00	  812.04	-1882.65	  427.10
     67.6700	  890.00	  894.35	-1890.95	  427.07
     67.7700	  989.00	 1008.46	-1906.06	  427.05
     67.8700	 1141.00	 1159.44	-1905.05	  427.02
     67.9700	 1380.00	 1348.68	-1855.28	  426.99
     68.0700	 1598.00	 1572.04	-1860.64	  426.96
     68.1700	 1843.00	 1817.77	-1861.37	  426.93
     68.2700	 2086.00	 2064.78	-1865.39	  426.90
     68.3700	 2319.00	 2281.99	-1849.59	  426.87
     68.4700	 2423.00	 2431.05	-1894.65	  426.84
     68.5700	 2415.00	 2477.84	-1949.44	  426.81
     68.6700	 2415.00	 2409.92	-1881.53	  426.77
     68.7700	 2260.00	 2244.88	-1871.48	  426.74
     68.8700	 2088.00	 2019.10	-1817.70	  426.70
     68.9700	 1760.00	 1770.07	-1896.67	  426.67
     69.0700	 1583.00	 1527.07	-1830.67	  426.63
     69.1700	 1257.00	 1309.26	-1938.86	  426.59
     69.2700	 1151.00	 1126.90	-1862.50	  426.56
     69.3700	  951.00	  982.94	-1918.54	  426.52
     69.4700	  915.00	  875.06	-1846.67	  426.48
     69.5700	  843.00	  797.77	-1841.37	  426.44
     69.6700	  768.00	  744.36	-1862.97	  426.40
     69.7700	  746.00	  708.39	-1848.99	  426.35
     69.8700	  704.00	  684.44	-1867.04	  426.31
     69.9700	  700.00	  668.44	-1855.05	  426.27
     70.0700	  690.00	  657.60	-1854.20	  426.22
     70.1700	  659.00	  650.11	-1877.71	  426.18
     70.2700	  682.00	  644.89	-1849.49	  426.13
     70.3700	  645.00	  641.32	-1882.92	  426.09
     70.4700	  663.00	  639.08	-1862.68	  426.04
     70.5700	  672.00	  638.01	-1852.61	  425.99
     70.6700	  655.00	  638.09	-1869.70	  425.94
     70.7700	  644.00	  639.45	-1882.05	  425.89
     70.8700	  650.00	  642.35	-1878.96	  425.84
     70.9700	  673.00	  647.32	-1860.92	  425.79
     71.0700	  670.00	  655.04	-1871.64	  425.74
     71.1700	  665.00	  667.25	-1888.85	  425.68
     71.2700	  692.00	  685.78	-1880.39	  425.63
     71.3700	  693.00	  713.40	-1907.00	  425.57
     71.4700	  747.00	  753.57	-1893.17	  425.52
     71.5700	  844.00	  810.20	-1852.80	  425.46
     71.6700	  898.00	  887.14	-1875.74	  425.41
     71.7700	  982.00	  987.37	-1891.98	  425.35
     71.8700	 1090.00	 1112.01	-1908.61	  425.29
     71.9700	 1256.00	 1259.07	-1889.67	  425.23
     72.0700	 1390.00	 1422.65	-1919.25	  425.17
     72.1700	 1552.00	 1591.94	-1926.54	  425.11
     72.2700	 1656.00	 1751.55	-1982.15	  425.05
     72.3700	 1904.00	 1878.65	-1861.25	  424.98
     72.4700	 1872.00	 1951.37	-1965.98	  424.92
     72.5700	 1941.00	 1953.86	-1899.47	  424.85
     72.6700	 1832.00	 1885.49	-1940.10	  424.79
     72.7700	 1790.00	 1761.23	-1857.83	  424.72
     72.8700	 1492.00	 1603.51	-1998.11	  424.66
     72.9700	 1476.00	 1433.85	-1844.45	  424.59
     73.0700	 1242.00	 1268.84	-1913.44	  424.52
     73.1700	 1119.00	 1119.60	-1887.20	  424.45
     73.2700	  978.00	  992.28	-1900.89	  424.38
     73.3700	  872.00	  889.02	-1903.62	  424.31
     73.4700	  802.00	  808.94	-1893.55	  424.24
     73.5700	  755.00	  749.25	-1880.86	  424.16
     73.6700	  695.00	  706.19	-1897.80	  424.09
     73.7700	  693.00	  675.90	-1869.50	  424.02
     73.8700	  694.00	  654.94	-1847.54	  423.94
     73.9700	  660.00	  640.56	-1867.16	  423.86
     74.0700	  668.00	  630.77	-1849.37	  423.79
     74.1700	  666.00	  623.67	-1844.27	  423.71
     74.2700	  628.00	  619.44	-1878.05	  423.63
     74.3700	  658.00	  617.00	-1845.60	  423.55
     74.4700	  658.00	  615.97	-1844.58	  423.47
     74.5700	  631.00	  616.08	-1871.68	  423.39
     74.6700	  632.00	  617.05	-1871.65	  423.31
     74.7700	  656.00	  618.56	-1849.16	  423.23
     74.8700	  651.00	  620.23	-1855.83	  423.14
     74.9700	  725.00	  621.60	-1783.20	  423.06
     75.0700	  678.00	  622.21	-1830.81	  422.97
     75.1700	  656.00	  621.71	-1852.32	  422.89
     75.2700	  720.00	  620.02	-1786.63	  422.80
     75.3700	  680.00	  617.58	-1824.19	  422.71
     75.4700	  666.00	  614.88	-1835.49	  422.62
     75.5700	  659.00	  612.57	-1840.17	  422.53
     75.6700	  663.00	  611.31	-1834.91	  422.44
     75.7700	  679.00	  611.78	-1819.38	  422.35
     75.8700	  623.00	  614.70	-1878.31	  422.26
     75.9700	  626.00	  620.83	-1881.43	  422.17
     76.0700	  640.00	  630.83	-1877.43	  422.07
     76.1700	  592.00	  645.54	-1940.14	  421.98
     76.2700	  667.00	  665.37	-1884.97	  421.88
     76.3700	  703.00	  690.48	-1874.08	  421.79
     76.4700	  721.00	  720.51	-1886.12	  421.69
     76.5700	  799.00	  754.49	-1842.09	  421.59
     76.6700	  790.00	  790.63	-1887.24	  421.49
     76.7700	  788.00	  826.29	-1924.90	  421.39
     76.8700	  845.00	  857.89	-1899.49	  421.29
     76.9700	  880.00	  881.20	-1887.80	  421.19
     77.0700	  873.00	  892.26	-1905.86	  421.09
     77.1700	  800.00	  888.84	-1975.44	  420.99
     77.2700	  881.00	  871.53	-1877.14	  420.88
     77.3700	  801.00	  843.45	-1929.06	  420.78
     77.4700	  798.00	  808.81	-1897.41	  420.67
     77.5700	  699.00	  771.61	-1959.21	  420.57
     77.6700	  728.00	  735.00	-1893.61	  420.46
     77.7700	  694.00	  701.24	-1893.84	  420.35
     77.8700	  634.00	  671.68	-1924.28	  420.25
     77.9700	  644.00	  646.77	-1889.38	  420.14
     78.0700	  639.00	  626.95	-1874.56	  420.03
     78.1700	  613.00	  611.63	-1885.23	  419.92
     78.2700	  619.00	  600.17	-1867.77	  419.80
     78.3700	  561.00	  591.82	-1917.43	  419.69
     78.4700	  614.00	  585.88	-1858.48	  419.58
     78.5700	  659.00	  581.71	-1809.31	  419.46
     78.6700	  577.00	  578.81	-1888.41	  419.35
     78.7700	  570.00	  576.79	-1893.40	  419.23
     78.8700	  558.00	  575.36	-1903.96	  419.12
     78.9700	  564.00	  574.43	-1897.04	  419.00
     79.0700	  572.00	  573.87	-1888.47	  418.88
     79.1700	  571.00	  573.60	-1889.20	  418.76
     79.2700	  565.00	  573.61	-1895.21	  418.64
     79.3700	  554.00	  573.91	-1906.51	  418.52
     79.4700	  570.00	  574.51	-1891.11	  418.40
     79.5700	  604.00	  575.47	-1858.07	  418.28
     79.6700	  570.00	  576.84	-1893.44	  418.16
     79.7700	  574.00	  578.74	-1891.34	  418.03
     79.8700	  573.00	  581.31	-1894.91	  417.91
     79.9700	  614.00	  584.77	-1857.37	  417.78
     80.0700	  615.00	  589.46	-1861.07	  417.66
     80.1700	  576.00	  595.86	-1906.46	  417.53
     80.2700	  594.00	  604.60	-1897.20	  417.40
     80.3700	  595.00	  616.51	-1908.11	  417.27
     80.4700	  630.00	  632.56	-1889.16	  417.15
     80.5700	  690.00	  653.85	-1850.46	  417.02
     80.6700	  677.00	  681.26	-1890.87	  416.89
     80.7700	  762.00	  716.15	-1840.75	  416.75
     80.8700	  746.00	  758.84	-1899.45	  416.62
     80.9700	  854.00	  809.18	-1841.78	  416.49
     81.0700	  856.00	  866.07	-1896.68	  416.36
     81.1700	  942.00	  927.27	-1871.88	  416.22
     81.2700	  995.00	  989.30	-1880.90	  416.09
     81.3700	 1011.00	 1047.61	-1923.22	  415.95
     81.4700	 1107.00	 1097.13	-1876.73	  415.81
     81.5700	 1166.00	 1133.33	-1853.93	  415.68
     81.6700	 1093.00	 1153.36	-1946.96	  415.54
     81.7700	 1139.00	 1156.39	-1903.99	  415.40
     81.8700	 1075.00	 1143.29	-1954.89	  415.26
     81.9700	 1110.00	 1116.26	-1892.86	  415.12
     82.0700	 1086.00	 1078.49	-1879.09	  414.98
     82.1700	 1034.00	 1033.60	-1886.20	  414.84
     82.2700	 1028.00	  985.02	-1843.62	  414.70
     82.3700	  960.00	  935.66	-1862.26	  414.55
     82.4700	  847.00	  887.92	-1927.53	  414.41
     82.5700	  799.00	  843.60	-1931.21	  414.27
     82.6700	  781.00	  803.73	-1909.33	  414.12
     82.7700	  756.00	  768.54	-1899.15	  413.98
     82.8700	  778.00	  737.71	-1846.31	  413.83
     82.9700	  691.00	  710.69	-1906.29	  413.68
     83.0700	  687.00	  687.01	-1886.61	  413.53
     83.1700	  600.00	  666.45	-1953.05	  413.39
     83.2700	  619.00	  648.92	-1916.53	  413.24
     83.3700	  628.00	  634.42	-1893.02	  413.09
     83.4700	  638.00	  622.93	-1871.53	  412.94
     83.5700	  569.00	  614.41	-1932.01	  412.79
     83.6700	  617.00	  608.77	-1878.38	  412.63
     83.7700	  559.00	  605.86	-1933.47	  412.48
     83.8700	  603.00	  605.42	-1889.02	  412.33
     83.9700	  610.00	  607.07	-1883.67	  412.18
     84.0700	  600.00	  610.35	-1896.96	  412.02
     84.1700	  611.00	  614.68	-1890.28	  411.87
     84.2700	  604.00	  619.36	-1901.96	  411.71
     84.3700	  592.00	  623.52	-1918.12	  411.55
     84.4700	  595.00	  626.57	-1918.18	  411.40
     84.5700	  619.00	  627.73	-1895.33	  411.24
     84.6700	  591.00	  626.50	-1922.10	  411.08
     84.7700	  592.00	  623.05	-1917.66	  410.92
     84.8700	  629.00	  617.70	-1875.31	  410.77
     84.9700	  632.00	  611.05	-1865.66	  410.61
     85.0700	  598.00	  603.76	-1892.36	  410.45
     85.1700	  587.00	  596.41	-1896.01	  410.28
     85.2700	  593.00	  589.49	-1883.09	  410.12
     85.3700	  607.00	  583.37	-1862.97	  409.96
     85.4700	  580.00	  578.30	-1884.91	  409.80
     85.5700	  551.00	  574.45	-1910.06	  409.63
     85.6700	  570.00	  571.91	-1888.52	  409.47
     85.7700	  569.00	  570.71	-1888.31	  409.31
     85.8700	  567.00	  570.84	-1890.44	  409.14
     85.9700	  591.00	  572.29	-1867.89	  408.98
     86.0700	  577.00	  575.02	-1884.62	  408.81
     86.1700	  611.00	  578.98	-1854.59	  408.64
     86.2700	  540.00	  584.11	-1930.72	  408.48
     86.3700	  580.00	  590.31	-1896.92	  408.31
     86.4700	  626.00	  597.45	-1858.05	  408.14
     86.5700	  570.00	  605.33	-1921.93	  407.97
     86.6700	  597.00	  613.73	-1903.33	  407.80
     86.7700	  639.00	  622.35	-1869.95	  407.63
     86.8700	  612.00	  630.89	-1905.49	  407.46
     86.9700	  644.00	  639.11	-1881.71	  407.29
     87.0700	  656.00	  646.90	-1877.51	  407.12
     87.1700	  627.00	  654.36	-1913.96	  406.95
     87.2700	  644.00	  661.73	-1904.34	  406.78
     87.3700	  662.00	  669.30	-1893.90	  406.61
     87.4700	  682.00	  677.20	-1881.80	  406.43
     87.5700	  710.00	  685.37	-1861.98	  406.26
     87.6700	  668.00	  693.48	-1912.09	  406.09
     87.7700	  648.00	  700.92	-1939.52	  405.91
     87.8700	  675.00	  706.85	-1918.45	  405.74
     87.9700	  708.00	  710.33	-1888.93	  405.56
     88.0700	  662.00	  710.53	-1935.14	  405.39
     88.1700	  683.00	  707.05	-1910.65	  405.21
     88.2700	  662.00	  700.00	-1924.60	  405.04
     88.3700	  694.00	  690.00	-1882.61	  404.86
     88.4700	  652.00	  677.98	-1912.58	  404.68
     88.5700	  650.00	  664.90	-1901.50	  404.51
     88.6700	  691.00	  651.68	-1847.29	  404.33
     88.7700	  635.00	  639.13	-1890.73	  404.15
     88.8700	  644.00	  627.87	-1870.47	  403.97
     88.9700	  650.00	  617.95	-1854.55	  403.79
     89.0700	  561.00	  610.52	-1936.12	  403.61
     89.1700	  621.00	  605.26	-1870.87	  403.43
     89.2700	  632.00	  602.14	-1856.75	  403.25
     89.3700	  616.00	  600.96	-1871.57	  403.07
     89.4700	  606.00	  601.40	-1882.01	  402.89
     89.5700	  612.00	  603.05	-1877.65	  402.71
     89.6700	  655.00	  605.39	-1837.00	  402.53
     89.7700	  610.00	  607.89	-1884.49	  402.35
     89.8700	  643.00	  609.95	-1853.56	  402.17
     89.9700	  629.00	  611.05	-1868.66	  401.99
     90.0700	  637.00	  610.79	-1860.40	  401.80
     90.1700	  638.00	  609.00	-1857.60	  401.62
     90.2700	  632.00	  605.74	-1860.35	  401.44
     90.3700	  697.00	  601.31	-1790.92	  401.26
     90.4700	  651.00	  596.09	-1831.69	  401.07
     90.5700	  574.00	  590.45	-1903.05	  400.89
     90.6700	  595.00	  584.76	-1876.36	  400.71
     90.7700	  594.00	  579.30	-1871.91	  400.52
     90.8700	  605.00	  574.29	-1855.90	  400.34
     90.9700	  577.00	  569.88	-1879.48	  400.15
     91.0700	  547.00	  566.14	-1905.74	  399.97
     91.1700	  604.00	  563.11	-1845.72	  399.78
     91.2700	  553.00	  560.78	-1894.39	  399.60
     91.3700	  568.00	  559.11	-1877.72	  399.41
     91.4700	  573.00	  558.05	-1871.66	  399.23
     91.5700	  593.00	  557.55	-1851.15	  399.04
     91.6700	  541.00	  557.57	-1903.18	  398.86
     91.7700	  589.00	  558.12	-1855.72	  398.67
     91.8700	  577.00	  559.20	-1868.80	  398.49
     91.9700	  577.00	  560.89	-1870.49	  398.30
     92.0700	  548.00	  563.28	-1901.88	  398.12
     92.1700	  530.00	  566.53	-1923.13	  397.93
     92.2700	  570.00	  570.81	-1887.41	  397.74
     92.3700	  585.00	  576.33	-1877.93	  397.56
     92.4700	  577.00	  583.32	-1892.92	  397.37
     92.5700	  612.00	  592.00	-1866.60	  397.18
     92.6700	  609.00	  602.57	-1880.18	  397.00
     92.7700	  572.00	  615.20	-1929.80	  396.81
     92.8700	  625.00	  629.94	-1891.54	  396.62
     92.9700	  648.00	  646.78	-1885.39	  396.44
     93.0700	  631.00	  665.58	-1921.19	  396.25
     93.1700	  667.00	  686.05	-1905.65	  396.07
     93.2700	  682.00	  707.74	-1912.34	  395.88
     93.3700	  694.00	  730.05	-1922.65	  395.69
     93.4700	  717.00	  752.22	-1921.83	  395.51
     93.5700	  767.00	  773.40	-1893.01	  395.32
     93.6700	  718.00	  792.77	-1961.38	  395.13
     93.7700	  802.00	  809.73	-1894.33	  394.95
     93.8700	  748.00	  824.06	-1962.67	  394.76
     93.9700	  820.00	  836.03	-1902.63	  394.57
     94.0700	  877.00	  846.22	-1855.82	  394.39
     94.1700	  820.00	  855.35	-1921.95	  394.20
     94.2700	  852.00	  864.04	-1898.64	  394.02
     94.3700	  794.00	  872.76	-1965.36	  393.83
     94.4700	  900.00	  881.52	-1868.12	  393.64
     94.5700	  894.00	  891.18	-1883.79	  393.46
     94.6700	  940.00	  901.71	-1848.31	  393.27
     94.7700	  965.00	  913.35	-1834.96	  393.09
     94.8700	  910.00	  926.26	-1902.86	  392.90
     94.9700	  930.00	  940.29	-1896.89	  392.72
     95.0700	  949.00	  954.89	-1892.49	  392.53
     95.1700	  995.00	  969.04	-1860.65	  392.35
     95.2700	  943.00	  981.31	-1924.91	  392.16
     95.3700	  993.00	  989.98	-1883.58	  391.98
     95.4700	  971.00	  993.31	-1908.92	  391.79
     95.5700	  979.00	  989.94	-1897.55	  391.61
     95.6700	  929.00	  979.24	-1936.84	  391.43
     95.7700	  966.00	  961.50	-1882.10	  391.24
     95.8700	  953.00	  937.93	-1871.53	  391.06
     95.9700	  927.00	  910.32	-1869.93	  390.88
     96.0700	  875.00	  880.74	-1892.35	  390.70
     96.1700	  824.00	  851.30	-1913.90	  390.51
     96.2700	  856.00	  824.01	-1854.61	  390.33
     96.3700	  799.00	  800.71	-1888.32	  390.15
     96.4700	  840.00	  783.05	-1829.65	  389.97
     96.5700	  753.00	  772.40	-1906.01	  389.79
     96.6700	  764.00	  769.95	-1892.55	  389.61
     96.7700	  844.00	  776.61	-1819.21	  389.43
     96.8700	  783.00	  793.08	-1896.69	  389.25
     96.9700	  811.00	  819.81	-1895.41	  389.07
     97.0700	  860.00	  856.94	-1883.55	  388.89
     97.1700	  908.00	  904.34	-1882.94	  388.71
     97.2700	  976.00	  961.47	-1872.07	  388.53
     97.3700	 1045.00	 1027.37	-1868.97	  388.36
     97.4700	 1131.00	 1100.54	-1856.14	  388.18
     97.5700	 1177.00	 1178.92	-1888.52	  388.00
     97.6700	 1315.00	 1259.87	-1831.48	  387.83
     97.7700	 1302.00	 1340.12	-1924.72	  387.65
     97.8700	 1430.00	 1415.78	-1872.38	  387.48
     97.9700	 1460.00	 1482.50	-1909.10	  387.30
     98.0700	 1523.00	 1535.83	-1899.43	  387.13
     98.1700	 1497.00	 1571.76	-1961.36	  386.95
     98.2700	 1573.00	 1587.47	-1901.08	  386.78
     98.3700	 1613.00	 1581.97	-1855.58	  386.61
     98.4700	 1458.00	 1556.31	-1984.92	  386.44
     98.5700	 1450.00	 1513.30	-1949.90	  386.26
     98.6700	 1366.00	 1456.76	-1977.37	  386.09
     98.7700	 1343.00	 1390.96	-1934.57	  385.92
     98.8700	 1257.00	 1320.12	-1949.72	  385.75
     98.9700	 1282.00	 1248.10	-1852.70	  385.58
     99.0700	 1166.00	 1178.36	-1898.96	  385.42
     99.1700	 1139.00	 1113.82	-1861.43	  385.25
     99.2700	 1076.00	 1056.95	-1867.55	  385.08
     99.3700	  991.00	 1009.77	-1905.37	  384.92
     99.4700	  931.00	  973.90	-1929.51	  384.75
     99.5700	  928.00	  950.61	-1909.21	  384.59
     99.6700	  994.00	  940.76	-1833.36	  384.42
     99.7700	 1006.00	  944.95	-1825.56	  384.26
     99.8700	  989.00	  963.48	-1861.09	  384.10
     99.9700	  980.00	  996.33	-1902.93	  383.93
    100.0700	 1098.00	 1043.19	-1831.79	  383.77
    100.1700	 1171.00	 1103.40	-1819.01	  383.61
    100.2700	 1183.00	 1175.96	-1879.57	  383.45
    100.3700	 1312.00	 1259.43	-1834.03	  383.30
    100.4700	 1388.00	 1351.86	-1850.46	  383.14
    100.5700	 1476.00	 1450.79	-1861.39	  382.98
    100.6700	 1555.00	 1553.21	-1884.81	  382.82
    100.7700	 1628.00	 1655.59	-1914.19	  382.67
    100.8700	 1762.00	 1753.99	-1878.59	  382.52
    100.9700	 1842.00	 1844.59	-1889.19	  382.36
    101.0700	 1976.00	 1923.74	-1834.34	  382.21
    101.1700	 2006.00	 1988.63	-1869.23	  382.06
    101.2700	 1999.00	 2037.32	-1924.93	  381.91
    101.3700	 1987.00	 2068.71	-1968.31	  381.76
    101.4700	 2106.00	 2082.23	-1862.83	  381.61
    101.5700	 2158.00	 2077.67	-1806.28	  381.46
    101.6700	 2118.00	 2055.26	-1823.86	  381.32
    101.7700	 2076.00	 2015.86	-1826.46	  381.17
    101.8700	 1985.00	 1961.37	-1862.97	  381.03
    101.9700	 1996.00	 1894.76	-1785.36	  380.88
    102.0700	 1905.00	 1819.87	-1801.48	  380.74
    102.1700	 1718.00	 1740.86	-1909.46	  380.60
    102.2700	 1745.00	 1661.68	-1803.29	  380.46
    102.3700	 1679.00	 1585.76	-1793.36	  380.32
    102.4700	 1646.00	 1515.69	-1756.29	  380.18
    102.5700	 1523.00	 1453.20	-1816.81	  380.05
    102.6700	 1378.00	 1399.18	-1907.79	  379.91
    102.7700	 1363.00	 1353.74	-1877.34	  379.78
    102.8700	 1228.00	 1316.27	-1974.88	  379.64
    102.9700	 1305.00	 1285.58	-1867.18	  379.51
    103.0700	 1227.00	 1259.93	-1919.54	  379.38
    103.1700	 1124.00	 1237.25	-1999.85	  379.25
    103.2700	 1160.00	 1215.31	-1941.91	  379.12
    103.3700	 1196.00	 1192.06	-1882.66	  379.00
    103.4700	 1165.00	 1165.88	-1887.48	  378.87
    103.5700	 1159.00	 1135.80	-1863.40	  378.75
    103.6700	 1145.00	 1101.60	-1843.21	  378.62
    103.7700	  985.00	 1063.74	-1965.34	  378.50
    103.8700	 1022.00	 1023.06	-1887.67	  378.38
    103.9700	  977.00	  980.67	-1890.27	  378.26
    104.0700	  902.00	  937.66	-1922.26	  378.14
    104.1700	  896.00	  895.10	-1885.71	  378.03
    104.2700	  850.00	  853.92	-1890.53	  377.91
    104.3700	  896.00	  814.89	-1805.49	  377.80
    104.4700	  786.00	  778.60	-1879.21	  377.69
    104.5700	  799.00	  745.49	-1833.10	  377.58
    104.6700	  704.00	  715.83	-1898.43	  377.47
    104.7700	  731.00	  689.73	-1845.33	  377.36
    104.8700	  752.00	  667.14	-1801.74	  377.26
    104.9700	  689.00	  647.93	-1845.53	  377.15
    105.0700	  658.00	  631.86	-1860.47	  377.05
    105.1700	  644.00	  618.66	-1861.26	  376.95
    105.2700	  644.00	  607.95	-1850.56	  376.85
    105.3700	  674.00	  599.52	-1812.13	  376.75
    105.4700	  583.00	  593.02	-1896.62	  376.65
    105.5700	  574.00	  588.17	-1900.77	  376.56
    105.6700	  625.00	  584.73	-1846.34	  376.46
    105.7700	  624.00	  582.53	-1845.14	  376.37
    105.8700	  561.00	  581.43	-1907.03	  376.28
    105.9700	  546.00	  581.28	-1921.88	  376.19
    106.0700	  608.00	  582.11	-1860.72	  376.11
    106.1700	  568.00	  583.88	-1902.48	  376.02
    106.2700	  613.00	  586.59	-1860.19	  375.94
    106.3700	  592.00	  590.29	-1884.89	  375.86
    106.4700	  620.00	  595.03	-1861.64	  375.78
    106.5700	  626.00	  600.90	-1861.50	  375.70
    106.6700	  611.00	  607.94	-1883.54	  375.63
    106.7700	  617.00	  616.21	-1885.81	  375.55
    106.8700	  666.00	  625.73	-1846.33	  375.48
    106.9700	  663.00	  636.46	-1860.06	  375.41
    107.0700	  671.00	  648.33	-1863.93	  375.34
    107.1700	  627.00	  661.20	-1920.80	  375.28
    107.2700	  627.00	  674.87	-1934.48	  375.21
    107.3700	  695.00	  689.08	-1880.69	  375.15
    107.4700	  656.00	  703.50	-1934.10	  375.09
    107.5700	  718.00	  717.73	-1886.33	  375.03
    107.6700	  702.00	  731.34	-1915.94	  374.97
    107.7700	  718.00	  743.87	-1912.47	  374.92
    107.8700	  744.00	  754.86	-1897.46	  374.87
    107.9700	  724.00	  763.90	-1926.50	  374.82
    108.0700	  727.00	  770.69	-1930.30	  374.77
    108.1700	  732.00	  775.13	-1929.74	  374.72
    108.2700	  766.00	  777.28	-1897.88	  374.68
    108.3700	  742.00	  777.46	-1922.06	  374.64
    108.4700	  716.00	  776.07	-1946.68	  374.60
    108.5700	  708.00	  773.62	-1952.22	  374.56
    108.6700	  759.00	  770.60	-1898.21	  374.52
    108.7700	  729.00	  767.47	-1925.07	  374.49
    108.8700	  689.00	  764.60	-1962.20	  374.46
    108.9700	  704.00	  762.26	-1944.86	  374.43
    109.0700	  690.00	  760.60	-1957.20	  374.40
    109.1700	  736.00	  759.66	-1910.26	  374.38
    109.2700	  695.00	  759.35	-1950.95	  374.36
    109.3700	  726.00	  759.47	-1920.07	  374.34
    109.4700	  798.00	  759.72	-1848.32	  374.32
    109.5700	  741.00	  759.72	-1905.33	  374.31
    109.6700	  787.00	  759.07	-1858.67	  374.30
    109.7700	  762.00	  757.34	-1881.94	  374.29
    109.8700	  761.00	  754.20	-1879.81	  374.28
    109.9700	  720.00	  749.44	-1916.04	  374.27
    110.0700	  749.00	  742.97	-1880.58	  374.27
    110.1700	  690.00	  734.90	-1931.50	  374.27
    110.2700	  701.00	  725.41	-1911.01	  374.27
    110.3700	  744.00	  714.82	-1857.42	  374.28
    110.4700	  664.00	  703.46	-1926.06	  374.29
    110.5700	  688.00	  691.65	-1890.26	  374.30
    110.6700	  699.00	  679.74	-1867.34	  374.31
    110.7700	  707.00	  667.99	-1847.59	  374.33
    110.8700	  706.00	  656.67	-1837.27	  374.34
    110.9700	  660.00	  645.98	-1872.58	  374.36
    111.0700	  600.00	  636.08	-1922.68	  374.39
    111.1700	  633.00	  627.11	-1880.72	  374.41
    111.2700	  618.00	  619.16	-1887.76	  374.44
    111.3700	  620.00	  612.25	-1878.86	  374.47
    111.4700	  630.00	  606.42	-1863.03	  374.51
    111.5700	  624.00	  601.65	-1864.25	  374.55
    111.6700	  596.00	  597.88	-1888.48	  374.59
    111.7700	  604.00	  595.05	-1877.65	  374.63
    111.8700	  596.00	  593.09	-1883.70	  374.67
    111.9700	  598.00	  591.91	-1880.52	  374.72
    112.0700	  579.00	  591.42	-1899.02	  374.77
    112.1700	  626.00	  591.52	-1852.12	  374.83
    112.2700	  589.00	  592.12	-1889.72	  374.89
    112.3700	  574.00	  593.12	-1905.72	  374.95
    112.4700	  601.00	  594.46	-1880.06	  375.01
    112.5700	  557.00	  596.05	-1925.65	  375.08
    112.6700	  551.00	  597.84	-1933.44	  375.15
    112.7700	  572.00	  599.78	-1914.38	  375.22
    112.8700	  566.00	  601.84	-1922.45	  375.29
    112.9700	  553.00	  604.01	-1937.62	  375.37
    113.0700	  586.00	  606.30	-1906.90	  375.45
    113.1700	  561.00	  608.72	-1934.32	  375.54
    113.2700	  582.00	  611.31	-1915.92	  375.63
    113.3700	  576.00	  614.13	-1924.73	  375.72
    113.4700	  651.00	  617.22	-1852.82	  375.81
    113.5700	  591.00	  620.67	-1916.27	  375.91
    113.6700	  601.00	  624.56	-1910.16	  376.01
    113.7700	  641.00	  629.00	-1874.60	  376.12
    113.8700	  615.00	  634.12	-1905.72	  376.22
    113.9700	  635.00	  640.09	-1891.70	  376.33
    114.0700	  618.00	  647.15	-1915.75	  376.45
    114.1700	  638.00	  655.56	-1904.16	  376.57
    114.2700	  622.00	  665.68	-1930.28	  376.69
    114.3700	  666.00	  677.96	-1898.56	  376.81
    114.4700	  695.00	  692.97	-1884.57	  376.94
    114.5700	  642.00	  711.42	-1956.03	  377.07
    114.6700	  739.00	  734.20	-1881.80	  377.20
    114.7700	  817.00	  762.37	-1831.97	  377.34
    114.8700	  799.00	  797.21	-1884.81	  377.48
    114.9700	  849.00	  840.23	-1877.84	  377.63
    115.0700	  927.00	  893.19	-1852.79	  377.78
    115.1700	  976.00	  958.07	-1868.67	  377.93
    115.2700	 1071.00	 1037.08	-1852.68	  378.09
    115.3700	 1164.00	 1132.60	-1855.20	  378.25
    115.4700	 1300.00	 1247.12	-1833.72	  378.41
    115.5700	 1545.00	 1383.21	-1724.81	  378.58
    115.6700	 1740.00	 1543.38	-1689.98	  378.75
    115.7700	 1857.00	 1729.92	-1759.52	  378.92
    115.8700	 2161.00	 1944.79	-1670.39	  379.10
    115.9700	 2323.00	 2189.41	-1753.01	  379.29
    116.0700	 2650.00	 2464.60	-1701.21	  379.47
    116.1700	 2877.00	 2770.36	-1779.97	  379.66
    116.2700	 3268.00	 3105.59	-1724.20	  379.86
    116.3700	 3621.00	 3468.11	-1733.71	  380.05
    116.4700	 3979.00	 3854.41	-1762.01	  380.25
    116.5700	 4261.00	 4259.82	-1885.42	  380.46
    116.6700	 4689.00	 4678.35	-1875.96	  380.67
    116.7700	 4956.00	 5102.55	-2033.16	  380.88
    116.8700	 5393.00	 5523.90	-2017.50	  381.10
    116.9700	 5824.00	 5932.60	-1995.21	  381.32
    117.0700	 6178.00	 6318.15	-2026.75	  381.55
    117.1700	 6582.00	 6669.40	-1974.00	  381.78
    117.2700	 6909.00	 6974.95	-1952.55	  382.01
    117.3700	 7243.00	 7223.91	-1867.51	  382.25
    117.4700	 7226.00	 7406.62	-2067.22	  382.49
    117.5700	 7248.00	 7515.63	-2154.23	  382.74
    117.6700	 7394.00	 7546.41	-2039.02	  382.99
    117.7700	 7250.00	 7497.95	-2134.55	  383.25
    117.8700	 7277.00	 7372.89	-1982.50	  383.51
    117.9700	 7037.00	 7177.22	-2026.82	  383.77
    118.0700	 6648.00	 6919.43	-2158.04	  384.04
    118.1700	 6407.00	 6609.70	-2089.30	  384.31
    118.2700	 6034.00	 6259.08	-2111.69	  384.59
    118.3700	 5894.00	 5878.77	-1871.37	  384.87
    118.4700	 5378.00	 5479.58	-1988.18	  385.15
    118.5700	 5044.00	 5071.42	-1914.03	  385.44
    118.6700	 4756.00	 4663.19	-1793.80	  385.74
    118.7700	 4459.00	 4262.76	-1690.37	  386.04
    118.8700	 4072.00	 3876.62	-1691.23	  386.34
    118.9700	 3737.00	 3510.03	-1659.63	  386.65
    119.0700	 3259.00	 3166.84	-1794.44	  386.96
    119.1700	 3030.00	 2849.69	-1706.29	  387.28
    119.2700	 2679.00	 2560.19	-1767.79	  387.60
    119.3700	 2469.00	 2298.93	-1716.54	  387.93
    119.4700	 2276.00	 2065.69	-1676.30	  388.26
    119.5700	 2009.00	 1859.49	-1737.09	  388.60
    119.6700	 1754.00	 1678.84	-1811.44	  388.94
    119.7700	 1725.00	 1521.93	-1683.53	  389.28
    119.8700	 1546.00	 1386.66	-1727.27	  389.63
    119.9700	 1369.00	 1270.85	-1788.45	  389.99
    120.0700	 1280.00	 1172.21	-1778.82	  390.35
    120.1700	 1088.00	 1088.58	-1887.19	  390.72
    120.2700	 1093.00	 1017.92	-1811.52	  391.09
    120.3700	 1060.00	  958.34	-1784.94	  391.46
    120.4700	  923.00	  908.17	-1871.77	  391.84
    120.5700	  938.00	  865.92	-1814.52	  392.23
    120.6700	  895.00	  830.32	-1821.92	  392.62
    120.7700	  779.00	  800.29	-1907.90	  393.01
    120.8700	  855.00	  774.94	-1806.55	  393.41
    120.9700	  806.00	  753.52	-1834.13	  393.82
    121.0700	  748.00	  735.43	-1874.03	  394.23
    121.1700	  691.00	  720.15	-1915.76	  394.65
    121.2700	  696.00	  707.31	-1897.91	  395.07
    121.3700	  716.00	  696.57	-1867.17	  395.49
    121.4700	  639.00	  687.67	-1935.28	  395.92
    121.5700	  630.00	  680.41	-1937.02	  396.36
    121.6700	  687.00	  674.62	-1874.22	  396.80
    121.7700	  671.00	  670.16	-1885.76	  397.25
    121.8700	  668.00	  666.92	-1885.52	  397.70
    121.9700	  679.00	  664.80	-1872.40	  398.16
    122.0700	  627.00	  663.72	-1923.33	  398.63
    122.1700	  645.00	  663.62	-1905.22	  399.10
    122.2700	  647.00	  664.43	-1904.03	  399.57
    122.3700	  659.00	  666.08	-1893.69	  400.05
    122.4700	  636.00	  668.53	-1919.13	  400.54
    122.5700	  670.00	  671.70	-1888.30	  401.03
    122.6700	  685.00	  675.53	-1877.13	  401.53
    122.7700	  644.00	  679.95	-1922.55	  402.03
    122.8700	  717.00	  684.87	-1854.48	  402.54
    122.9700	  659.00	  690.23	-1917.83	  403.05
    123.0700	  664.00	  695.92	-1918.53	  403.57
    123.1700	  684.00	  701.85	-1904.45	  404.10
    123.2700	  709.00	  707.90	-1885.50	  404.63
    123.3700	  717.00	  713.97	-1883.57	  405.17
    123.4700	  745.00	  719.93	-1861.54	  405.71
    123.5700	  698.00	  725.68	-1914.29	  406.26
    123.6700	  724.00	  731.10	-1893.70	  406.82
    123.7700	  763.00	  736.08	-1859.68	  407.38
    123.8700	  703.00	  740.53	-1924.14	  407.94
    123.9700	  702.00	  744.40	-1929.00	  408.52
    124.0700	  706.00	  747.64	-1928.25	  409.10
    124.1700	  761.00	  750.25	-1875.85	  409.68
    124.2700	  749.00	  752.24	-1889.85	  410.27
    124.3700	  715.00	  753.66	-1925.26	  410.87
    124.4700	  771.00	  754.52	-1870.12	  411.48
    124.5700	  727.00	  754.95	-1914.56	  412.09
    124.6700	  726.00	  755.00	-1915.61	  412.70
    124.7700	  700.00	  754.73	-1941.33	  413.32
    124.8700	  692.00	  754.18	-1948.79	  413.95
    124.9700	  733.00	  539.35	-1692.95	  414.59
    125.0700	  684.00	  539.99	-1886.60	  415.23
    125.1700	  748.00	  540.63	-1886.60	  415.88
    125.2700	  743.00	  541.29	-1886.60	  416.53
    125.3700	  729.00	  541.95	-1886.60	  417.19
    125.4700	  660.00	  542.62	-1886.60	  417.86
    125.5700	  721.00	  543.29	-1886.60	  418.53
    125.6700	  730.00	  543.97	-1886.60	  419.21
    125.7700	  713.00	  544.66	-1886.60	  419.90
    125.8700	  705.00	  545.35	-1886.60	  420.60
    125.9700	  666.00	  546.05	-1886.60	  421.30
    126.0700	  691.00	  546.76	-1886.60	  422.00
    126.1700	  652.00	  547.47	-1886.60	  422.72
    126.2700	  654.00	  548.19	-1886.60	  423.44
    126.3700	  648.00	  548.92	-1886.60	  424.16
    126.4700	  681.00	  549.66	-1886.60	  424.90
    126.5700	  652.00	  550.40	-1886.60	  425.64
    126.6700	  660.00	  551.14	-1886.60	  426.39
    126.7700	  600.00	  551.90	-1886.60	  427.14
    126.8700	  649.00	  552.66	-1886.60	  427.90
    126.9700	  626.00	  553.43	-1886.60	  428.67
    127.0700	  655.00	  554.20	-1886.60	  429.45
    127.1700	  633.00	  554.99	-1886.60	  430.23
    127.2700	  615.00	  555.78	-1886.60	  431.02
    127.3700	  573.00	  556.57	-1886.60	  431.82
    127.4700	  611.00	  557.38	-1886.60	  432.62
    127.5700	  579.00	  558.19	-1886.60	  433.43
    127.6700	  614.00	  559.01	-1886.60	  434.25
    127.7700	  635.00	  559.83	-1886.60	  435.08
    127.8700	  615.00	  560.67	-1886.60	  435.91
    127.9700	  613.00	  561.51	-1886.60	  436.75
    128.0700	  645.00	  562.36	-1886.60	  437.60
    128.1700	  671.00	  563.21	-1886.60	  438.45
    128.2700	  641.00	  564.07	-1886.60	  439.32
    128.3700	  652.00	  564.94	-1886.60	  440.19
    128.4700	  666.00	  565.82	-1886.60	  441.06
    128.5700	    0.00	  566.71	-1886.60	  441.95
    128.6700	    0.00	  567.60	-1886.60	  442.84
     12.4017	        	        	        	        	       0	(  0  0  2)	  0  1
     12.4017	        	        	        	        	    -471	(  0  0  2)	  0  1
     25.0531	        	        	        	        	       0	(  0  0  4)	  0  1
     25.0531	        	        	        	        	    -471	(  0  0  4)	  0  1
     28.5104	        	        	        	        	       0	(  1  0  0)	  0  1
     28.5104	        	        	        	        	    -471	(  1  0  0)	  0  1
     29.2116	        	        	        	        	       0	(  1  0  1)	  0  1
     29.2116	        	        	        	        	    -471	(  1  0  1)	  0  1
     31.2294	        	        	        	        	       0	(  1  0  2)	  0  1
     31.2294	        	        	        	        	    -471	(  1  0  2)	  0  1
     34.3558	        	        	        	        	       0	(  1  0  3)	  0  1
     34.3558	        	        	        	        	    -471	(  1  0  3)	  0  1
     38.0257	        	        	        	        	       0	(  0  0  6)	  0  1
     38.0257	        	        	        	        	    -471	(  0  0  6)	  0  1
     38.3563	        	        	        	        	       0	(  1  0  4)	  0  1
     38.3563	        	        	        	        	    -471	(  1  0  4)	  0  1
     43.0345	        	        	        	        	       0	(  1  0  5)	  0  1
     43.0345	        	        	        	        	    -471	(  1  0  5)	  0  1
     48.2508	        	        	        	        	       0	(  1  0  6)	  0  1
     48.2508	        	        	        	        	    -471	(  1  0  6)	  0  1
     50.5753	        	        	        	        	       0	(  1  1  0)	  0  1
     50.5753	        	        	        	        	    -471	(  1  1  0)	  0  1
     51.5300	        	        	        	        	       0	(  0  0  8)	  0  1
     51.5300	        	        	        	        	    -471	(  0  0  8)	  0  1
     52.3097	        	        	        	        	       0	(  1  1  2)	  0  1
     52.3097	        	        	        	        	    -471	(  1  1  2)	  0  1
     53.9178	        	        	        	        	       0	(  1  0  7)	  0  1
     53.9178	        	        	        	        	    -471	(  1  0  7)	  0  1
     57.2910	        	        	        	        	       0	(  1  1  4)	  0  1
     57.2910	        	        	        	        	    -471	(  1  1  4)	  0  1
     59.1278	        	        	        	        	       0	(  2  0  0)	  0  1
     59.1278	        	        	        	        	    -471	(  2  0  0)	  0  1
     59.5221	        	        	        	        	       0	(  2  0  1)	  0  1
     59.5221	        	        	        	        	    -471	(  2  0  1)	  0  1
     59.9893	        	        	        	        	       0	(  1  0  8)	  0  1
     59.9893	        	        	        	        	    -471	(  1  0  8)	  0  1
     60.6958	        	        	        	        	       0	(  2  0  2)	  0  1
     60.6958	        	        	        	        	    -471	(  2  0  2)	  0  1
     62.6228	        	        	        	        	       0	(  2  0  3)	  0  1
     62.6228	        	        	        	        	    -471	(  2  0  3)	  0  1
     65.0407	        	        	        	        	       0	(  1  1  6)	  0  1
     65.0407	        	        	        	        	    -471	(  1  1  6)	  0  1
     65.2663	        	        	        	        	       0	(  2  0  4)	  0  1
     65.2663	        	        	        	        	    -471	(  2  0  4)	  0  1
     65.8575	        	        	        	        	       0	(  0  0 10)	  0  1
     65.8575	        	        	        	        	    -471	(  0  0 10)	  0  1
     66.4522	        	        	        	        	       0	(  1  0  9)	  0  1
     66.4522	        	        	        	        	    -471	(  1  0  9)	  0  1
     68.5856	        	        	        	        	       0	(  2  0  5)	  0  1
     68.5856	        	        	        	        	    -471	(  2  0  5)	  0  1
     72.5442	        	        	        	        	       0	(  2  0  6)	  0  1
     72.5442	        	        	        	        	    -471	(  2  0  6)	  0  1
     73.3216	        	        	        	        	       0	(  1  0 10)	  0  1
     73.3216	        	        	        	        	    -471	(  1  0 10)	  0  1
     75.1575	        	        	        	        	       0	(  1  1  8)	  0  1
     75.1575	        	        	        	        	    -471	(  1  1  8)	  0  1
     77.1162	        	        	        	        	       0	(  2  0  7)	  0  1
     77.1162	        	        	        	        	    -471	(  2  0  7)	  0  1
     80.6414	        	        	        	        	       0	(  1  0 11)	  0  1
     80.6414	        	        	        	        	    -471	(  1  0 11)	  0  1
     81.4649	        	        	        	        	       0	(  0  0 12)	  0  1
     81.4649	        	        	        	        	    -471	(  0  0 12)	  0  1
     81.5415	        	        	        	        	       0	(  2  1  0)	  0  1
     81.5415	        	        	        	        	    -471	(  2  1  0)	  0  1
     81.8845	        	        	        	        	       0	(  2  1  1)	  0  1
     81.8845	        	        	        	        	    -471	(  2  1  1)	  0  1
     82.2923	        	        	        	        	       0	(  2  0  8)	  0  1
     82.2923	        	        	        	        	    -471	(  2  0  8)	  0  1
     82.9119	        	        	        	        	       0	(  2  1  2)	  0  1
     82.9119	        	        	        	        	    -471	(  2  1  2)	  0  1
     84.6192	        	        	        	        	       0	(  2  1  3)	  0  1
     84.6192	        	        	        	        	    -471	(  2  1  3)	  0  1
     87.0020	        	        	        	        	       0	(  2  1  4)	  0  1
     87.0020	        	        	        	        	    -471	(  2  1  4)	  0  1
     87.5413	        	        	        	        	       0	(  1  1 10)	  0  1
     87.5413	        	        	        	        	    -471	(  1  1 10)	  0  1
     88.0860	        	        	        	        	       0	(  2  0  9)	  0  1
     88.0860	        	        	        	        	    -471	(  2  0  9)	  0  1
     88.4901	        	        	        	        	       0	(  1  0 12)	  0  1
     88.4901	        	        	        	        	    -471	(  1  0 12)	  0  1
     90.0588	        	        	        	        	       0	(  2  1  5)	  0  1
     90.0588	        	        	        	        	    -471	(  2  1  5)	  0  1
     93.7964	        	        	        	        	       0	(  2  1  6)	  0  1
     93.7964	        	        	        	        	    -471	(  2  1  6)	  0  1
     94.5419	        	        	        	        	       0	(  2  0 10)	  0  1
     94.5419	        	        	        	        	    -471	(  2  0 10)	  0  1
     95.5703	        	        	        	        	       0	(  3  0  0)	  0  1
     95.5703	        	        	        	        	    -471	(  3  0  0)	  0  1
     95.9116	        	        	        	        	       0	(  3  0  1)	  0  1
     95.9116	        	        	        	        	    -471	(  3  0  1)	  0  1
     96.9368	        	        	        	        	       0	(  3  0  2)	  0  1
     96.9368	        	        	        	        	    -471	(  3  0  2)	  0  1
     96.9960	        	        	        	        	       0	(  1  0 13)	  0  1
     96.9960	        	        	        	        	    -471	(  1  0 13)	  0  1
     98.2363	        	        	        	        	       0	(  2  1  7)	  0  1
     98.2363	        	        	        	        	    -471	(  2  1  7)	  0  1
     98.6506	        	        	        	        	       0	(  3  0  3)	  0  1
     98.6506	        	        	        	        	    -471	(  3  0  3)	  0  1
     99.1902	        	        	        	        	       0	(  0  0 14)	  0  1
     99.1902	        	        	        	        	    -471	(  0  0 14)	  0  1
    101.0636	        	        	        	        	       0	(  3  0  4)	  0  1
    101.0636	        	        	        	        	    -471	(  3  0  4)	  0  1
    101.7508	        	        	        	        	       0	(  2  0 11)	  0  1
    101.7508	        	        	        	        	    -471	(  2  0 11)	  0  1
    102.5835	        	        	        	        	       0	(  1  1 12)	  0  1
    102.5835	        	        	        	        	    -471	(  1  1 12)	  0  1
    103.4247	        	        	        	        	       0	(  2  1  8)	  0  1
    103.4247	        	        	        	        	    -471	(  2  1  8)	  0  1
    104.1965	        	        	        	        	       0	(  3  0  5)	  0  1
    104.1965	        	        	        	        	    -471	(  3  0  5)	  0  1
    106.3704	        	        	        	        	       0	(  1  0 14)	  0  1
    106.3704	        	        	        	        	    -471	(  1  0 14)	  0  1
    108.0870	        	        	        	        	       0	(  3  0  6)	  0  1
    108.0870	        	        	        	        	    -471	(  3  0  6)	  0  1
    109.4480	        	        	        	        	       0	(  2  1  9)	  0  1
    109.4480	        	        	        	        	    -471	(  2  1  9)	  0  1
    109.8773	        	        	        	        	       0	(  2  0 12)	  0  1
    109.8773	        	        	        	        	    -471	(  2  0 12)	  0  1
    112.8016	        	        	        	        	       0	(  3  0  7)	  0  1
    112.8016	        	        	        	        	    -471	(  3  0  7)	  0  1
    116.4629	        	        	        	        	       0	(  2  1 10)	  0  1
    116.4629	        	        	        	        	    -471	(  2  1 10)	  0  1
    116.9878	        	        	        	        	       0	(  1  0 15)	  0  1
    116.9878	        	        	        	        	    -471	(  1  0 15)	  0  1
    117.6137	        	        	        	        	       0	(  2  2  0)	  0  1
    117.6137	        	        	        	        	    -471	(  2  2  0)	  0  1
    118.4569	        	        	        	        	       0	(  3  0  8)	  0  1
    118.4569	        	        	        	        	    -471	(  3  0  8)	  0  1
    119.1589	        	        	        	        	       0	(  2  2  2)	  0  1
    119.1589	        	        	        	        	    -471	(  2  2  2)	  0  1
    119.2263	        	        	        	        	       0	(  2  0 13)	  0  1
    119.2263	        	        	        	        	    -471	(  2  0 13)	  0  1
    121.0285	        	        	        	        	       0	(  0  0 16)	  0  1
    121.0285	        	        	        	        	    -471	(  0  0 16)	  0  1
    121.7492	        	        	        	        	       0	(  1  1 14)	  0  1
    121.7492	        	        	        	        	    -471	(  1  1 14)	  0  1
    123.9461	        	        	        	        	       0	(  2  2  4)	  0  1
    123.9461	        	        	        	        	    -471	(  2  2  4)	  0  1
    124.7627	        	        	        	        	       0	(  2  1 11)	  0  1
    124.7627	        	        	        	        	    -471	(  2  1 11)	  0  1
    125.2635	        	        	        	        	       0	(  3  0  9)	  0  1
    125.2635	        	        	        	        	    -471	(  3  0  9)	  0  1
    125.8541	        	        	        	        	       0	(  3  1  0)	  0  1
    125.8541	        	        	        	        	    -471	(  3  1  0)	  0  1
    126.2746	        	        	        	        	       0	(  3  1  1)	  0  1
    126.2746	        	        	        	        	    -471	(  3  1  1)	  0  1
    127.5501	        	        	        	        	       0	(  3  1  2)	  0  1
    127.5501	        	        	        	        	    -471	(  3  1  2)	  0  1
    129.6204	        	        	        	        	       0	(  1  0 16)	  0  1
    129.6204	        	        	        	        	    -471	(  1  0 16)	  0  1
    129.7264	        	        	        	        	       0	(  3  1  3)	  0  1
    129.7264	        	        	        	        	    -471	(  3  1  3)	  0  1
    130.4240	        	        	        	        	       0	(  2  0 14)	  0  1
    130.4240	        	        	        	        	    -471	(  2  0 14)	  0  1
    132.6161	        	        	        	        	       0	(  2  2  6)	  0  1
    132.6161	        	        	        	        	    -471	(  2  2  6)	  0  1
    132.8955	        	        	        	        	       0	(  3  1  4)	  0  1
    132.8955	        	        	        	        	    -471	(  3  1  4)	  0  1
    133.6365	        	        	        	        	       0	(  3  0 10)	  0  1
    133.6365	        	        	        	        	    -471	(  3  0 10)	  0  1
    134.9638	        	        	        	        	       0	(  2  1 12)	  0  1
    134.9638	        	        	        	        	    -471	(  2  1 12)	  0  1
    137.2299	        	        	        	        	       0	(  3  1  5)	  0  1
    137.2299	        	        	        	        	    -471	(  3  1  5)	  0  1
    143.0727	        	        	        	        	       0	(  3  1  6)	  0  1
    143.0727	        	        	        	        	    -471	(  3  1  6)	  0  1
    144.5638	        	        	        	        	       0	(  3  0 11)	  0  1
    144.5638	        	        	        	        	    -471	(  3  0 11)	  0  1
    145.1451	        	        	        	        	       0	(  2  0 15)	  0  1
    145.1451	        	        	        	        	    -471	(  2  0 15)	  0  1
    146.4715	        	        	        	        	       0	(  1  0 17)	  0  1
    146.4715	        	        	        	        	    -471	(  1  0 17)	  0  1
    147.4940	        	        	        	        	       0	(  2  2  8)	  0  1
    147.4940	        	        	        	        	    -471	(  2  2  8)	  0  1
    148.7729	        	        	        	        	       0	(  2  1 13)	  0  1
    148.7729	        	        	        	        	    -471	(  2  1 13)	  0  1
    151.2390	        	        	        	        	       0	(  3  1  7)	  0  1
    151.2390	        	        	        	        	    -471	(  3  1  7)	  0  1
    151.9307	        	        	        	        	       0	(  1  1 16)	  0  1
    151.9307	        	        	        	        	    -471	(  1  1 16)	  0  1
    156.8078	        	        	        	        	       0	(  0  0 18)	  0  1
    156.8078	        	        	        	        	    -471	(  0  0 18)	  0  1
    162.0847	        	        	        	        	       0	(  3  0 12)	  0  1
    162.0847	        	        	        	        	    -471	(  3  0 12)	  0  1
    162.3342	        	        	        	        	       0	(  4  0  0)	  0  1
    162.3342	        	        	        	        	    -471	(  4  0  0)	  0  1
    163.4963	        	        	        	        	       0	(  4  0  1)	  0  1
    163.4963	        	        	        	        	    -471	(  4  0  1)	  0  1
    164.9933	        	        	        	        	       0	(  3  1  8)	  0  1
    164.9933	        	        	        	        	    -471	(  3  1  8)	  0  1
    167.6064	        	        	        	        	       0	(  4  0  2)	  0  1
    167.6064	        	        	        	        	    -471	(  4  0  2)	  0  1
