MSG Master    CELL:    5.90083   5.90083  23.17102   90.0000   90.0000  120.0000   SPGR: P 63/m m c             TEMP:    791.35
  1   1280     2.52000     0.00000    -0.13340     0.00000     0.00000    0
    98     0     2
       0.00000      10.00000
     125.00000     130.00000
 2Theta	Yobs	Ycal	Yobs-Ycal	Backg	Posr	(hkl)	K
      0.7700	    0.00	  456.00	-1774.25	  350.31
      0.8700	    0.00	  458.26	-1774.25	  352.58
      0.9700	   46.00	  460.50	-1774.25	  354.81
      1.0700	   46.00	  462.72	-1774.25	  357.03
      1.1700	   42.00	  464.91	-1774.25	  359.22
      1.2700	   31.00	  467.08	-1774.25	  361.39
      1.3700	   56.00	  469.23	-1774.25	  363.54
      1.4700	   93.00	  471.35	-1774.25	  365.66
      1.5700	  273.00	  473.45	-1774.25	  367.76
      1.6700	  454.00	  475.53	-1774.25	  369.84
      1.7700	  565.00	  477.58	-1774.25	  371.89
      1.8700	  659.00	  479.61	-1774.25	  373.93
      1.9700	  711.00	  481.63	-1774.25	  375.94
      2.0700	  784.00	  483.61	-1774.25	  377.93
      2.1700	  806.00	  485.58	-1774.25	  379.89
      2.2700	  753.00	  487.53	-1774.25	  381.84
      2.3700	  751.00	  489.45	-1774.25	  383.76
      2.4700	  686.00	  491.35	-1774.25	  385.66
      2.5700	  699.00	  493.23	-1774.25	  387.54
      2.6700	  700.00	  495.09	-1774.25	  389.40
      2.7700	  641.00	  496.93	-1774.25	  391.24
      2.8700	  665.00	  498.75	-1774.25	  393.06
      2.9700	  631.00	  500.55	-1774.25	  394.86
      3.0700	  596.00	  502.32	-1774.25	  396.63
      3.1700	  623.00	  504.08	-1774.25	  398.39
      3.2700	  691.00	  505.81	-1774.25	  400.12
      3.3700	  878.00	  507.53	-1774.25	  401.84
      3.4700	  963.00	  509.22	-1774.25	  403.53
      3.5700	 1055.00	  510.89	-1774.25	  405.21
      3.6700	 1111.00	  512.55	-1774.25	  406.86
      3.7700	 1240.00	  514.18	-1774.25	  408.49
      3.8700	 1400.00	  515.80	-1774.25	  410.11
      3.9700	 1414.00	  517.39	-1774.25	  411.70
      4.0700	 1384.00	  518.97	-1774.25	  413.28
      4.1700	 1455.00	  520.52	-1774.25	  414.84
      4.2700	 1475.00	  522.06	-1774.25	  416.37
      4.3700	 1484.00	  523.58	-1774.25	  417.89
      4.4700	 1409.00	  525.08	-1774.25	  419.39
      4.5700	 1344.00	  526.56	-1774.25	  420.87
      4.6700	 1316.00	  528.02	-1774.25	  422.33
      4.7700	 1274.00	  529.46	-1774.25	  423.77
      4.8700	 1234.00	  530.89	-1774.25	  425.20
      4.9700	 1155.00	  532.29	-1774.25	  426.60
      5.0700	 1149.00	  533.68	-1774.25	  427.99
      5.1700	 1143.00	  535.05	-1774.25	  429.36
      5.2700	 1043.00	  536.40	-1774.25	  430.71
      5.3700	 1032.00	  537.74	-1774.25	  432.05
      5.4700	 1055.00	  539.05	-1774.25	  433.36
      5.5700	 1062.00	  540.35	-1774.25	  434.66
      5.6700	 1013.00	  541.63	-1774.25	  435.94
      5.7700	  974.00	  542.90	-1774.25	  437.21
      5.8700	  907.00	  544.14	-1774.25	  438.45
      5.9700	  857.00	  545.37	-1774.25	  439.68
      6.0700	  910.00	  546.58	-1774.25	  440.89
      6.1700	  890.00	  547.78	-1774.25	  442.09
      6.2700	  908.00	  548.95	-1774.25	  443.27
      6.3700	  894.00	  550.12	-1774.25	  444.43
      6.4700	  840.00	  551.26	-1774.25	  445.57
      6.5700	  830.00	  552.39	-1774.25	  446.70
      6.6700	  831.00	  553.50	-1774.25	  447.81
      6.7700	  788.00	  554.60	-1774.25	  448.91
      6.8700	  819.00	  555.68	-1774.25	  449.99
      6.9700	  813.00	  556.74	-1774.25	  451.05
      7.0700	  777.00	  557.79	-1774.25	  452.10
      7.1700	  787.00	  558.82	-1774.25	  453.13
      7.2700	  773.00	  559.83	-1774.25	  454.14
      7.3700	  697.00	  560.83	-1774.25	  455.15
      7.4700	  717.00	  561.82	-1774.25	  456.13
      7.5700	  702.00	  562.79	-1774.25	  457.10
      7.6700	  781.00	  563.74	-1774.25	  458.05
      7.7700	  719.00	  564.68	-1774.25	  458.99
      7.8700	  744.00	  565.61	-1774.25	  459.92
      7.9700	  723.00	  566.51	-1774.25	  460.83
      8.0700	  715.00	  567.41	-1774.25	  461.72
      8.1700	  693.00	  568.29	-1774.25	  462.60
      8.2700	  690.00	  569.15	-1774.25	  463.46
      8.3700	  680.00	  570.00	-1774.25	  464.31
      8.4700	  661.00	  570.84	-1774.25	  465.15
      8.5700	  682.00	  571.66	-1774.25	  465.97
      8.6700	  668.00	  572.47	-1774.25	  466.78
      8.7700	  678.00	  573.26	-1774.25	  467.57
      8.8700	  697.00	  574.04	-1774.25	  468.35
      8.9700	  643.00	  574.80	-1774.25	  469.11
      9.0700	  675.00	  575.55	-1774.25	  469.87
      9.1700	  676.00	  576.29	-1774.25	  470.60
      9.2700	  618.00	  577.02	-1774.25	  471.33
      9.3700	  639.00	  577.73	-1774.25	  472.04
      9.4700	  619.00	  578.42	-1774.25	  472.74
      9.5700	  604.00	  579.11	-1774.25	  473.42
      9.6700	  619.00	  579.78	-1774.25	  474.09
      9.7700	  589.00	  580.44	-1774.25	  474.75
      9.8700	  630.00	  581.08	-1774.25	  475.39
      9.9700	  640.00	  581.71	-1774.25	  476.02
     10.0700	  638.00	  585.92	-1722.17	  476.64
     10.1700	  645.00	  586.74	-1715.99	  477.25
     10.2700	  663.00	  587.58	-1698.83	  477.84
     10.3700	  617.00	  588.48	-1745.73	  478.42
     10.4700	  581.00	  589.46	-1782.71	  478.99
     10.5700	  640.00	  590.57	-1724.82	  479.55
     10.6700	  620.00	  591.91	-1746.16	  480.09
     10.7700	  634.00	  593.54	-1733.79	  480.62
     10.8700	  610.00	  595.57	-1759.82	  481.14
     10.9700	  630.00	  598.04	-1742.29	  481.65
     11.0700	  624.00	  600.95	-1751.20	  482.15
     11.1700	  630.00	  604.32	-1748.57	  482.63
     11.2700	  592.00	  608.18	-1790.43	  483.11
     11.3700	  611.00	  612.59	-1775.84	  483.57
     11.4700	  631.00	  617.69	-1760.94	  484.02
     11.5700	  626.00	  623.69	-1771.94	  484.46
     11.6700	  646.00	  630.87	-1759.12	  484.88
     11.7700	  649.00	  639.61	-1764.86	  485.30
     11.8700	  700.00	  650.21	-1724.46	  485.70
     11.9700	  717.00	  662.46	-1719.71	  486.10
     12.0700	  721.00	  675.04	-1728.29	  486.48
     12.1700	  750.00	  684.75	-1709.00	  486.85
     12.2700	  729.00	  686.43	-1731.68	  487.22
     12.3700	  706.00	  676.07	-1744.32	  487.57
     12.4700	  654.00	  657.33	-1777.58	  487.91
     12.5700	  643.00	  638.59	-1769.84	  488.24
     12.6700	  615.00	  624.35	-1783.60	  488.56
     12.7700	  595.00	  615.04	-1794.29	  488.87
     12.8700	  626.00	  609.51	-1757.76	  489.17
     12.9700	  587.00	  606.37	-1793.62	  489.45
     13.0700	  597.00	  604.55	-1781.80	  489.73
     13.1700	  590.00	  603.43	-1787.68	  490.00
     13.2700	  606.00	  602.71	-1770.96	  490.26
     13.3700	  548.00	  602.21	-1828.46	  490.51
     13.4700	  544.00	  601.87	-1832.12	  490.75
     13.5700	  601.00	  601.67	-1774.92	  490.98
     13.6700	  584.00	  601.52	-1791.77	  491.20
     13.7700	  566.00	  601.42	-1809.67	  491.41
     13.8700	  649.00	  601.37	-1726.62	  491.62
     13.9700	  570.00	  601.35	-1805.60	  491.81
     14.0700	  615.00	  601.36	-1760.61	  491.99
     14.1700	  575.00	  601.38	-1800.63	  492.17
     14.2700	  550.00	  601.41	-1825.66	  492.33
     14.3700	  555.00	  601.46	-1820.71	  492.49
     14.4700	  607.00	  601.50	-1768.75	  492.64
     14.5700	  581.00	  601.56	-1794.81	  492.78
     14.6700	  587.00	  601.61	-1788.86	  492.91
     14.7700	  630.00	  601.66	-1745.91	  493.03
     14.8700	  580.00	  601.72	-1795.97	  493.14
     14.9700	  572.00	  601.77	-1804.02	  493.25
     15.0700	  578.00	  601.82	-1798.07	  493.34
     15.1700	  618.00	  601.87	-1758.11	  493.43
     15.2700	  569.00	  601.91	-1807.16	  493.51
     15.3700	  606.00	  601.94	-1770.19	  493.58
     15.4700	  565.00	  601.98	-1811.23	  493.65
     15.5700	  569.00	  602.01	-1807.26	  493.70
     15.6700	  576.00	  602.03	-1800.28	  493.75
     15.7700	  566.00	  602.05	-1810.30	  493.79
     15.8700	  565.00	  602.06	-1811.31	  493.82
     15.9700	  595.00	  602.06	-1781.31	  493.85
     16.0700	  535.00	  602.06	-1841.31	  493.87
     16.1700	  545.00	  602.06	-1831.31	  493.88
     16.2700	  561.00	  602.05	-1815.30	  493.88
     16.3700	  580.00	  602.03	-1796.28	  493.87
     16.4700	  597.00	  602.01	-1779.26	  493.86
     16.5700	  601.00	  601.98	-1775.23	  493.84
     16.6700	  592.00	  601.94	-1784.19	  493.82
     16.7700	  617.00	  601.90	-1759.15	  493.78
     16.8700	  631.00	  601.85	-1745.10	  493.74
     16.9700	  606.00	  601.79	-1770.04	  493.69
     17.0700	  569.00	  601.73	-1806.98	  493.64
     17.1700	  573.00	  601.67	-1802.92	  493.58
     17.2700	  614.00	  601.59	-1761.84	  493.51
     17.3700	  577.00	  601.62	-1798.87	  493.44
     17.4700	  619.00	  601.54	-1756.79	  493.36
     17.5700	  606.00	  601.45	-1769.70	  493.27
     17.6700	  571.00	  601.36	-1804.61	  493.18
     17.7700	  599.00	  601.26	-1776.51	  493.08
     17.8700	  571.00	  601.27	-1804.52	  492.97
     17.9700	  583.00	  601.16	-1792.41	  492.86
     18.0700	  603.00	  601.04	-1772.29	  492.74
     18.1700	  553.00	  600.92	-1822.17	  492.61
     18.2700	  562.00	  600.80	-1813.05	  492.48
     18.3700	  569.00	  600.67	-1805.92	  492.35
     18.4700	  594.00	  600.53	-1780.78	  492.21
     18.5700	  622.00	  600.39	-1752.64	  492.06
     18.6700	  554.00	  600.24	-1820.49	  491.90
     18.7700	  579.00	  600.09	-1795.34	  491.74
     18.8700	  588.00	  599.93	-1786.18	  491.58
     18.9700	  580.00	  599.77	-1794.02	  491.41
     19.0700	  574.00	  599.60	-1799.85	  491.23
     19.1700	  554.00	  599.43	-1819.68	  491.05
     19.2700	  573.00	  599.25	-1800.50	  490.86
     19.3700	  551.00	  599.07	-1822.32	  490.67
     19.4700	  609.00	  598.93	-1764.18	  490.48
     19.5700	  561.00	  598.74	-1811.99	  490.27
     19.6700	  585.00	  598.54	-1787.79	  490.07
     19.7700	  560.00	  598.34	-1812.59	  489.85
     19.8700	  564.00	  598.14	-1808.39	  489.64
     19.9700	  593.00	  597.94	-1779.19	  489.41
     20.0700	  572.00	  597.72	-1799.97	  489.19
     20.1700	  573.00	  597.51	-1798.76	  488.96
     20.2700	  560.00	  597.29	-1811.54	  488.72
     20.3700	  570.00	  597.07	-1801.32	  488.48
     20.4700	  590.00	  596.84	-1781.09	  488.23
     20.5700	  546.00	  596.62	-1824.87	  487.98
     20.6700	  601.00	  596.38	-1769.63	  487.73
     20.7700	  558.00	  596.15	-1812.40	  487.47
     20.8700	  596.00	  595.91	-1774.16	  487.21
     20.9700	  571.00	  595.67	-1798.92	  486.94
     21.0700	  603.00	  595.43	-1766.68	  486.67
     21.1700	  562.00	  595.18	-1807.43	  486.39
     21.2700	  599.00	  594.93	-1770.18	  486.11
     21.3700	  544.00	  594.68	-1824.93	  485.83
     21.4700	  600.00	  594.43	-1768.68	  485.54
     21.5700	  617.00	  594.18	-1751.43	  485.25
     21.6700	  578.00	  593.92	-1790.17	  484.95
     21.7700	  580.00	  593.67	-1787.92	  484.65
     21.8700	  584.00	  593.41	-1783.66	  484.35
     21.9700	  594.00	  593.16	-1773.41	  484.04
     22.0700	  599.00	  593.07	-1768.32	  483.73
     22.1700	  632.00	  592.81	-1735.06	  483.42
     22.2700	  528.00	  592.57	-1838.82	  483.10
     22.3700	  608.00	  592.32	-1758.57	  482.78
     22.4700	  579.00	  592.08	-1787.33	  482.46
     22.5700	  547.00	  591.84	-1819.09	  482.13
     22.6700	  604.00	  591.61	-1761.86	  481.80
     22.7700	  553.00	  591.39	-1812.64	  481.46
     22.8700	  578.00	  591.18	-1787.43	  481.12
     22.9700	  592.00	  590.98	-1773.23	  480.78
     23.0700	  545.00	  590.80	-1820.05	  480.44
     23.1700	  592.00	  590.64	-1772.89	  480.09
     23.2700	  607.00	  590.51	-1757.76	  479.74
     23.3700	  623.00	  590.36	-1741.61	  479.39
     23.4700	  595.00	  590.31	-1769.56	  479.04
     23.5700	  625.00	  590.33	-1739.58	  478.68
     23.6700	  613.00	  590.43	-1751.68	  478.32
     23.7700	  569.00	  590.66	-1795.91	  477.95
     23.8700	  568.00	  591.09	-1797.34	  477.59
     23.9700	  569.00	  591.85	-1797.10	  477.22
     24.0700	  611.00	  593.17	-1756.42	  476.84
     24.1700	  650.00	  595.38	-1719.63	  476.47
     24.2700	  597.00	  598.97	-1776.22	  476.09
     24.3700	  659.00	  604.46	-1719.71	  475.71
     24.4700	  660.00	  612.29	-1726.54	  475.33
     24.5700	  619.00	  622.46	-1777.71	  474.95
     24.6700	  657.00	  634.22	-1751.47	  474.56
     24.7700	  688.00	  645.44	-1731.69	  474.17
     24.8700	  698.00	  652.32	-1728.57	  473.78
     24.9700	  706.00	  650.36	-1718.61	  473.39
     25.0700	  664.00	  639.08	-1749.33	  473.00
     25.1700	  674.00	  624.08	-1724.33	  472.60
     25.2700	  647.00	  610.75	-1738.00	  472.20
     25.3700	  649.00	  600.99	-1726.24	  471.80
     25.4700	  599.00	  594.62	-1769.87	  471.40
     25.5700	  623.00	  590.72	-1741.97	  470.99
     25.6700	  616.00	  588.34	-1746.59	  470.59
     25.7700	  672.00	  586.82	-1689.07	  470.18
     25.8700	  594.00	  585.78	-1766.03	  469.77
     25.9700	  626.00	  585.02	-1733.27	  469.36
     26.0700	  600.00	  584.45	-1758.70	  468.94
     26.1700	  605.00	  584.02	-1753.27	  468.53
     26.2700	  602.00	  583.73	-1755.98	  468.11
     26.3700	  588.00	  583.55	-1769.80	  467.69
     26.4700	  619.00	  583.48	-1738.73	  467.27
     26.5700	  639.00	  583.54	-1718.79	  466.85
     26.6700	  622.00	  583.73	-1735.98	  466.43
     26.7700	  640.00	  584.07	-1718.32	  466.01
     26.8700	  606.00	  584.60	-1752.85	  465.58
     26.9700	  633.00	  585.35	-1726.60	  465.16
     27.0700	  621.00	  586.40	-1739.65	  464.73
     27.1700	  654.00	  587.85	-1708.10	  464.30
     27.2700	  605.00	  589.87	-1759.12	  463.87
     27.3700	  638.00	  592.80	-1729.05	  463.44
     27.4700	  642.00	  597.24	-1729.49	  463.01
     27.5700	  643.00	  604.33	-1735.58	  462.58
     27.6700	  701.00	  615.91	-1689.16	  462.14
     27.7700	  687.00	  634.67	-1721.92	  461.71
     27.8700	  703.00	  663.63	-1734.88	  461.27
     27.9700	  669.00	  704.72	-1809.97	  460.84
     28.0700	  802.00	  756.58	-1728.83	  460.40
     28.1700	  811.00	  812.33	-1775.58	  459.96
     28.2700	  902.00	  857.98	-1730.23	  459.52
     28.3700	  945.00	  875.14	-1704.39	  459.08
     28.4700	  967.00	  857.81	-1665.06	  458.64
     28.5700	  835.00	  828.37	-1767.62	  458.20
     28.6700	  754.00	  814.33	-1834.58	  457.76
     28.7700	  797.00	  825.25	-1802.50	  457.32
     28.8700	  825.00	  853.64	-1802.89	  456.87
     28.9700	  825.00	  879.63	-1828.88	  456.43
     29.0700	  888.00	  877.52	-1763.77	  455.99
     29.1700	  887.00	  834.60	-1721.85	  455.54
     29.2700	  821.00	  768.61	-1721.86	  455.10
     29.3700	  700.00	  705.64	-1779.89	  454.66
     29.4700	  663.00	  657.92	-1769.17	  454.21
     29.5700	  655.00	  626.46	-1745.71	  453.77
     29.6700	  677.00	  607.51	-1704.76	  453.32
     29.7700	  697.00	  596.50	-1673.75	  452.87
     29.8700	  681.00	  589.97	-1683.22	  452.43
     29.9700	  641.00	  585.90	-1719.15	  451.98
     30.0700	  625.00	  583.34	-1732.59	  451.54
     30.1700	  623.00	  582.00	-1733.25	  451.09
     30.2700	  641.00	  581.99	-1715.24	  450.64
     30.3700	  654.00	  583.80	-1704.05	  450.20
     30.4700	  627.00	  588.25	-1735.50	  449.75
     30.5700	  681.00	  596.42	-1689.67	  449.30
     30.6700	  642.00	  609.08	-1741.33	  448.86
     30.7700	  645.00	  625.86	-1755.11	  448.41
     30.8700	  683.00	  644.32	-1735.57	  447.97
     30.9700	  667.00	  659.39	-1766.64	  447.52
     31.0700	  656.00	  663.98	-1782.23	  447.08
     31.1700	  714.00	  653.63	-1713.88	  446.63
     31.2700	  671.00	  633.02	-1736.27	  446.19
     31.3700	  625.00	  611.28	-1760.53	  445.74
     31.4700	  639.00	  593.70	-1728.95	  445.30
     31.5700	  642.00	  581.48	-1713.73	  444.85
     31.6700	  618.00	  573.79	-1730.04	  444.41
     31.7700	  630.00	  569.20	-1713.45	  443.96
     31.8700	  601.00	  566.43	-1739.68	  443.52
     31.9700	  580.00	  564.67	-1758.92	  443.08
     32.0700	  545.00	  563.48	-1792.73	  442.64
     32.1700	  602.00	  562.65	-1734.90	  442.20
     32.2700	  576.00	  562.10	-1760.35	  441.76
     32.3700	  573.00	  561.79	-1763.04	  441.32
     32.4700	  575.00	  561.71	-1760.96	  440.88
     32.5700	  618.00	  561.86	-1718.11	  440.44
     32.6700	  649.00	  562.27	-1687.52	  440.00
     32.7700	  620.00	  562.99	-1717.24	  439.56
     32.8700	  572.00	  564.08	-1766.33	  439.12
     32.9700	  559.00	  565.66	-1780.91	  438.69
     33.0700	  556.00	  567.93	-1786.18	  438.25
     33.1700	  559.00	  571.20	-1786.45	  437.82
     33.2700	  595.00	  576.15	-1755.40	  437.38
     33.3700	  595.00	  584.06	-1763.31	  436.95
     33.4700	  582.00	  597.20	-1789.45	  436.52
     33.5700	  663.00	  619.14	-1730.39	  436.09
     33.6700	  615.00	  654.51	-1813.76	  435.66
     33.7700	  695.00	  707.41	-1786.66	  435.23
     33.8700	  779.00	  778.19	-1773.44	  434.80
     33.9700	  864.00	  859.32	-1769.57	  434.37
     34.0700	  932.00	  932.57	-1774.82	  433.94
     34.1700	 1079.00	  970.29	-1665.54	  433.52
     34.2700	 1028.00	  949.29	-1695.54	  433.09
     34.3700	  921.00	  877.43	-1730.68	  432.67
     34.4700	  827.00	  788.89	-1736.14	  432.25
     34.5700	  679.00	  710.59	-1805.84	  431.83
     34.6700	  620.00	  652.38	-1806.63	  431.41
     34.7700	  615.00	  613.82	-1773.07	  430.99
     34.8700	  574.00	  590.15	-1790.40	  430.57
     34.9700	  553.00	  575.99	-1797.24	  430.15
     35.0700	  564.00	  567.26	-1777.51	  429.74
     35.1700	  598.00	  561.42	-1737.67	  429.32
     35.2700	  616.00	  557.17	-1715.42	  428.91
     35.3700	  509.00	  554.34	-1819.59	  428.50
     35.4700	  570.00	  551.70	-1755.95	  428.09
     35.5700	  553.00	  549.48	-1770.73	  427.68
     35.6700	  539.00	  547.61	-1782.86	  427.27
     35.7700	  520.00	  546.00	-1800.25	  426.86
     35.8700	  468.00	  544.60	-1850.85	  426.46
     35.9700	  563.00	  543.36	-1754.61	  426.06
     36.0700	  531.00	  542.26	-1785.51	  425.65
     36.1700	  517.00	  541.27	-1798.52	  425.25
     36.2700	  538.00	  540.38	-1776.63	  424.85
     36.3700	  555.00	  539.56	-1758.81	  424.46
     36.4700	  483.00	  538.79	-1830.04	  424.06
     36.5700	  508.00	  538.12	-1804.37	  423.66
     36.6700	  555.00	  537.51	-1756.76	  423.27
     36.7700	  511.00	  536.96	-1800.21	  422.88
     36.8700	  485.00	  536.49	-1825.74	  422.49
     36.9700	  542.00	  536.12	-1768.37	  422.10
     37.0700	  528.00	  535.91	-1782.16	  421.71
     37.1700	  474.00	  535.94	-1836.19	  421.33
     37.2700	  497.00	  536.34	-1813.59	  420.94
     37.3700	  521.00	  537.45	-1790.70	  420.56
     37.4700	  527.00	  539.04	-1786.29	  420.18
     37.5700	  465.00	  541.29	-1850.54	  419.80
     37.6700	  553.00	  543.90	-1765.15	  419.42
     37.7700	  565.00	  546.24	-1755.49	  419.05
     37.8700	  528.00	  547.35	-1793.60	  418.67
     37.9700	  549.00	  546.48	-1771.73	  418.30
     38.0700	  514.00	  543.87	-1804.12	  417.93
     38.1700	  556.00	  540.50	-1758.75	  417.56
     38.2700	  515.00	  537.19	-1796.44	  417.20
     38.3700	  499.00	  534.34	-1809.59	  416.83
     38.4700	  489.00	  532.10	-1817.35	  416.47
     38.5700	  493.00	  530.44	-1811.69	  416.11
     38.6700	  520.00	  529.23	-1783.48	  415.75
     38.7700	  471.00	  528.34	-1831.59	  415.39
     38.8700	  503.00	  527.63	-1798.88	  415.03
     38.9700	  518.00	  527.05	-1783.30	  414.68
     39.0700	  490.00	  526.54	-1810.79	  414.33
     39.1700	  532.00	  526.07	-1768.32	  413.98
     39.2700	  504.00	  525.64	-1795.89	  413.63
     39.3700	  558.00	  525.24	-1741.49	  413.28
     39.4700	  479.00	  524.86	-1820.11	  412.94
     39.5700	  527.00	  524.39	-1771.64	  412.59
     39.6700	  524.00	  524.04	-1774.29	  412.25
     39.7700	  512.00	  523.71	-1785.96	  411.91
     39.8700	  519.00	  523.44	-1778.69	  411.58
     39.9700	  473.00	  523.14	-1824.39	  411.24
     40.0700	  526.00	  523.39	-1771.64	  410.91
     40.1700	  524.00	  523.11	-1773.36	  410.58
     40.2700	  525.00	  522.86	-1772.11	  410.25
     40.3700	  504.00	  522.61	-1792.86	  409.92
     40.4700	  511.00	  522.27	-1785.52	  409.60
     40.5700	  549.00	  522.07	-1747.32	  409.27
     40.6700	  518.00	  521.88	-1778.13	  408.95
     40.7700	  504.00	  521.71	-1791.96	  408.63
     40.8700	  498.00	  521.57	-1797.82	  408.32
     40.9700	  515.00	  521.46	-1780.71	  408.00
     41.0700	  536.00	  521.38	-1759.63	  407.69
     41.1700	  541.00	  521.35	-1754.60	  407.38
     41.2700	  526.00	  521.37	-1769.62	  407.07
     41.3700	  487.00	  521.44	-1808.69	  406.76
     41.4700	  544.00	  521.60	-1751.85	  406.46
     41.5700	  453.00	  521.86	-1843.11	  406.16
     41.6700	  494.00	  522.26	-1802.51	  405.86
     41.7700	  513.00	  522.97	-1784.22	  405.56
     41.8700	  536.00	  523.93	-1762.18	  405.26
     41.9700	  511.00	  525.56	-1788.81	  404.97
     42.0700	  530.00	  528.13	-1772.38	  404.68
     42.1700	  535.00	  532.42	-1771.67	  404.39
     42.2700	  523.00	  539.37	-1790.62	  404.10
     42.3700	  546.00	  549.97	-1778.22	  403.82
     42.4700	  535.00	  564.81	-1804.06	  403.53
     42.5700	  564.00	  583.43	-1793.68	  403.25
     42.6700	  622.00	  603.67	-1755.92	  402.98
     42.7700	  546.00	  620.37	-1848.62	  402.70
     42.8700	  561.00	  627.45	-1840.70	  402.43
     42.9700	  595.00	  621.17	-1800.42	  402.15
     43.0700	  545.00	  604.22	-1833.47	  401.88
     43.1700	  572.00	  583.36	-1785.61	  401.62
     43.2700	  585.00	  563.92	-1753.17	  401.35
     43.3700	  572.00	  548.39	-1750.64	  401.09
     43.4700	  500.00	  537.23	-1811.48	  400.83
     43.5700	  503.00	  529.82	-1801.07	  400.57
     43.6700	  482.00	  525.14	-1817.39	  400.31
     43.7700	  499.00	  522.21	-1797.46	  400.06
     43.8700	  532.00	  520.31	-1762.56	  399.81
     43.9700	  501.00	  519.21	-1792.46	  399.56
     44.0700	  511.00	  518.23	-1781.48	  399.31
     44.1700	  539.00	  517.47	-1752.72	  399.06
     44.2700	  523.00	  516.85	-1768.10	  398.82
     44.3700	  504.00	  516.33	-1786.58	  398.58
     44.4700	  566.00	  515.90	-1724.15	  398.34
     44.5700	  534.00	  515.54	-1755.79	  398.11
     44.6700	  530.00	  515.23	-1759.48	  397.87
     44.7700	  525.00	  514.97	-1764.22	  397.64
     44.8700	  477.00	  514.76	-1812.01	  397.41
     44.9700	  509.00	  514.58	-1779.83	  397.19
     45.0700	  530.00	  514.44	-1758.69	  396.96
     45.1700	  524.00	  514.33	-1764.58	  396.74
     45.2700	  495.00	  514.26	-1793.51	  396.52
     45.3700	  540.00	  514.21	-1748.46	  396.30
     45.4700	  535.00	  514.27	-1753.52	  396.09
     45.5700	  471.00	  514.28	-1817.53	  395.87
     45.6700	  508.00	  514.33	-1780.58	  395.66
     45.7700	  538.00	  514.46	-1750.71	  395.45
     45.8700	  503.00	  514.58	-1785.83	  395.25
     45.9700	  503.00	  514.73	-1785.98	  395.04
     46.0700	  517.00	  514.92	-1772.17	  394.84
     46.1700	  500.00	  515.15	-1789.40	  394.64
     46.2700	  504.00	  515.44	-1785.69	  394.44
     46.3700	  505.00	  515.78	-1785.03	  394.25
     46.4700	  512.00	  516.19	-1778.44	  394.06
     46.5700	  510.00	  516.52	-1780.77	  393.86
     46.6700	  506.00	  517.09	-1785.34	  393.68
     46.7700	  559.00	  517.78	-1733.03	  393.49
     46.8700	  497.00	  518.61	-1795.86	  393.31
     46.9700	  516.00	  519.66	-1777.91	  393.13
     47.0700	  508.00	  521.03	-1787.28	  392.95
     47.1700	  517.00	  522.92	-1780.17	  392.77
     47.2700	  502.00	  525.66	-1797.91	  392.60
     47.3700	  507.00	  529.74	-1796.99	  392.42
     47.4700	  534.00	  535.74	-1775.99	  392.25
     47.5700	  496.00	  544.23	-1822.48	  392.09
     47.6700	  592.00	  555.50	-1737.75	  391.92
     47.7700	  570.00	  569.22	-1773.47	  391.76
     47.8700	  620.00	  583.98	-1738.23	  391.60
     47.9700	  589.00	  597.50	-1782.75	  391.44
     48.0700	  615.00	  605.18	-1764.43	  391.28
     48.1700	  615.00	  604.82	-1764.07	  391.13
     48.2700	  596.00	  597.29	-1775.54	  390.98
     48.3700	  587.00	  586.31	-1773.56	  390.83
     48.4700	  561.00	  575.50	-1788.75	  390.68
     48.5700	  558.00	  567.00	-1783.25	  390.53
     48.6700	  599.00	  561.68	-1736.93	  390.39
     48.7700	  573.00	  559.64	-1760.89	  390.25
     48.8700	  532.00	  560.58	-1802.83	  390.11
     48.9700	  519.00	  564.13	-1819.38	  389.97
     49.0700	  502.00	  570.17	-1842.42	  389.84
     49.1700	  551.00	  578.95	-1802.20	  389.71
     49.2700	  533.00	  591.56	-1832.81	  389.58
     49.3700	  581.00	  610.38	-1803.63	  389.45
     49.4700	  590.00	  639.94	-1824.19	  389.33
     49.5700	  645.00	  687.83	-1817.08	  389.20
     49.6700	  661.00	  765.10	-1878.35	  389.08
     49.7700	  778.00	  885.12	-1881.37	  388.97
     49.8700	  972.00	 1059.88	-1862.13	  388.85
     49.9700	 1205.00	 1293.74	-1862.99	  388.73
     50.0700	 1584.00	 1575.44	-1765.69	  388.62
     50.1700	 1889.00	 1869.69	-1754.94	  388.51
     50.2700	 2232.00	 2112.54	-1654.79	  388.41
     50.3700	 2301.00	 2223.95	-1697.20	  388.30
     50.4700	 2257.00	 2155.64	-1672.89	  388.20
     50.5700	 2002.00	 1937.07	-1709.32	  388.10
     50.6700	 1629.00	 1648.33	-1793.58	  388.00
     50.7700	 1281.00	 1362.31	-1855.56	  387.90
     50.8700	 1022.00	 1121.03	-1873.28	  387.80
     50.9700	  837.00	  940.09	-1877.34	  387.71
     51.0700	  736.00	  817.31	-1855.56	  387.62
     51.1700	  704.00	  740.73	-1810.98	  387.53
     51.2700	  668.00	  695.14	-1801.39	  387.45
     51.3700	  573.00	  666.72	-1867.97	  387.36
     51.4700	  599.00	  645.71	-1820.96	  387.28
     51.5700	  619.00	  627.41	-1782.66	  387.20
     51.6700	  612.00	  610.85	-1773.10	  387.12
     51.7700	  576.00	  596.44	-1794.69	  387.05
     51.8700	  604.00	  584.61	-1754.86	  386.97
     51.9700	  582.00	  575.51	-1767.76	  386.90
     52.0700	  631.00	  568.97	-1712.22	  386.83
     52.1700	  592.00	  564.68	-1746.93	  386.76
     52.2700	  589.00	  562.30	-1747.55	  386.70
     52.3700	  577.00	  561.59	-1758.84	  386.64
     52.4700	  613.00	  562.48	-1723.73	  386.57
     52.5700	  585.00	  565.20	-1754.45	  386.51
     52.6700	  583.00	  570.40	-1761.65	  386.46
     52.7700	  580.00	  579.38	-1773.63	  386.40
     52.8700	  605.00	  594.23	-1763.48	  386.35
     52.9700	  663.00	  618.02	-1729.27	  386.30
     53.0700	  649.00	  654.46	-1779.71	  386.25
     53.1700	  707.00	  707.21	-1774.46	  386.20
     53.2700	  756.00	  778.49	-1796.74	  386.15
     53.3700	  957.00	  867.35	-1684.60	  386.11
     53.4700	  976.00	  967.47	-1765.72	  386.07
     53.5700	 1187.00	 1065.28	-1652.53	  386.03
     53.6700	 1185.00	 1139.21	-1728.46	  385.99
     53.7700	 1191.00	 1165.71	-1748.96	  385.95
     53.8700	 1145.00	 1134.26	-1763.51	  385.92
     53.9700	 1073.00	 1056.92	-1758.17	  385.89
     54.0700	 1001.00	  958.15	-1731.40	  385.86
     54.1700	  839.00	  859.17	-1794.42	  385.83
     54.2700	  787.00	  772.72	-1759.97	  385.80
     54.3700	  706.00	  704.31	-1772.56	  385.78
     54.4700	  690.00	  654.40	-1738.65	  385.75
     54.5700	  613.00	  620.51	-1781.76	  385.73
     54.6700	  607.00	  598.90	-1766.15	  385.71
     54.7700	  576.00	  585.85	-1784.10	  385.70
     54.8700	  587.00	  578.42	-1765.67	  385.68
     54.9700	  612.00	  574.57	-1736.81	  385.67
     55.0700	  587.00	  573.06	-1760.31	  385.66
     55.1700	  593.00	  573.23	-1754.48	  385.64
     55.2700	  591.00	  574.78	-1758.03	  385.64
     55.3700	  608.00	  577.60	-1743.85	  385.63
     55.4700	  579.00	  581.74	-1776.99	  385.62
     55.5700	  584.00	  587.38	-1777.63	  385.62
     55.6700	  630.00	  594.90	-1739.15	  385.62
     55.7700	  593.00	  604.99	-1786.24	  385.62
     55.8700	  629.00	  618.95	-1764.20	  385.62
     55.9700	  640.00	  639.15	-1773.40	  385.63
     56.0700	  700.00	  669.65	-1743.90	  385.63
     56.1700	  746.00	  716.81	-1745.06	  385.64
     56.2700	  786.00	  789.64	-1777.89	  385.65
     56.3700	  846.00	  899.18	-1827.43	  385.66
     56.4700	 1013.00	 1056.48	-1817.73	  385.67
     56.5700	 1208.00	 1268.87	-1835.12	  385.68
     56.6700	 1436.00	 1535.30	-1873.55	  385.70
     56.7700	 1830.00	 1840.91	-1785.16	  385.71
     56.8700	 2160.00	 2151.88	-1766.13	  385.73
     56.9700	 2454.00	 2412.12	-1732.37	  385.75
     57.0700	 2615.00	 2552.55	-1711.80	  385.77
     57.1700	 2506.00	 2524.74	-1792.99	  385.79
     57.2700	 2277.00	 2338.85	-1836.10	  385.82
     57.3700	 2058.00	 2055.64	-1771.89	  385.84
     57.4700	 1642.00	 1743.44	-1875.69	  385.87
     57.5700	 1467.00	 1451.20	-1758.45	  385.90
     57.6700	 1147.00	 1205.82	-1833.07	  385.93
     57.7700	  988.00	 1017.08	-1803.33	  385.96
     57.8700	  825.00	  883.01	-1832.26	  386.00
     57.9700	  832.00	  795.24	-1737.49	  386.03
     58.0700	  733.00	  743.50	-1784.75	  386.07
     58.1700	  741.00	  718.82	-1752.07	  386.11
     58.2700	  748.00	  714.99	-1741.24	  386.14
     58.3700	  705.00	  728.51	-1797.76	  386.19
     58.4700	  770.00	  757.71	-1761.96	  386.23
     58.5700	  817.00	  801.44	-1758.69	  386.27
     58.6700	  938.00	  857.73	-1693.98	  386.31
     58.7700	  914.00	  922.51	-1782.76	  386.36
     58.8700	 1053.00	  989.15	-1710.40	  386.41
     58.9700	 1121.00	 1050.36	-1703.61	  386.46
     59.0700	 1180.00	 1101.14	-1695.39	  386.51
     59.1700	 1257.00	 1138.50	-1655.75	  386.56
     59.2700	 1304.00	 1158.74	-1628.99	  386.61
     59.3700	 1259.00	 1159.29	-1674.54	  386.66
     59.4700	 1220.00	 1144.49	-1698.74	  386.72
     59.5700	 1216.00	 1125.66	-1683.91	  386.78
     59.6700	 1200.00	 1114.65	-1688.90	  386.83
     59.7700	 1156.00	 1118.86	-1737.11	  386.89
     59.8700	 1192.00	 1141.83	-1724.08	  386.95
     59.9700	 1214.00	 1185.71	-1745.96	  387.01
     60.0700	 1303.00	 1251.16	-1722.41	  387.07
     60.1700	 1423.00	 1333.82	-1685.07	  387.14
     60.2700	 1529.00	 1420.61	-1665.86	  387.20
     60.3700	 1509.00	 1489.02	-1754.27	  387.27
     60.4700	 1605.00	 1512.50	-1681.75	  387.34
     60.5700	 1488.00	 1474.22	-1760.47	  387.40
     60.6700	 1432.00	 1379.52	-1721.77	  387.47
     60.7700	 1335.00	 1251.11	-1690.36	  387.54
     60.8700	 1122.00	 1114.03	-1766.28	  387.61
     60.9700	 1023.00	  986.66	-1737.91	  387.69
     61.0700	  886.00	  879.85	-1768.10	  387.76
     61.1700	  779.00	  798.39	-1793.64	  387.83
     61.2700	  723.00	  742.93	-1794.18	  387.91
     61.3700	  670.00	  712.00	-1816.25	  387.98
     61.4700	  732.00	  703.78	-1746.03	  388.06
     61.5700	  755.00	  717.36	-1736.61	  388.14
     61.6700	  748.00	  752.97	-1779.22	  388.22
     61.7700	  810.00	  811.42	-1775.67	  388.30
     61.8700	  862.00	  892.64	-1804.89	  388.38
     61.9700	  996.00	  994.07	-1772.32	  388.46
     62.0700	 1062.00	 1108.94	-1821.19	  388.54
     62.1700	 1158.00	 1224.72	-1840.97	  388.63
     62.2700	 1233.00	 1322.51	-1863.76	  388.71
     62.3700	 1349.00	 1379.41	-1804.66	  388.80
     62.4700	 1288.00	 1378.11	-1864.36	  388.88
     62.5700	 1218.00	 1318.36	-1874.61	  388.97
     62.6700	 1184.00	 1217.27	-1807.52	  389.06
     62.7700	 1074.00	 1097.70	-1797.95	  389.15
     62.8700	  893.00	  978.53	-1859.78	  389.24
     62.9700	  775.00	  871.95	-1871.20	  389.33
     63.0700	  745.00	  784.20	-1813.45	  389.42
     63.1700	  657.00	  716.93	-1834.18	  389.51
     63.2700	  646.00	  668.53	-1796.78	  389.60
     63.3700	  624.00	  635.81	-1786.06	  389.70
     63.4700	  636.00	  615.07	-1753.32	  389.79
     63.5700	  605.00	  603.12	-1772.37	  389.88
     63.6700	  638.00	  597.75	-1734.00	  389.98
     63.7700	  585.00	  597.84	-1787.09	  390.07
     63.8700	  622.00	  603.33	-1755.58	  390.17
     63.9700	  651.00	  615.02	-1738.27	  390.27
     64.0700	  655.00	  634.09	-1753.34	  390.36
     64.1700	  751.00	  662.07	-1685.32	  390.46
     64.2700	  756.00	  700.02	-1718.27	  390.56
     64.3700	  736.00	  748.11	-1786.36	  390.66
     64.4700	  889.00	  804.89	-1690.14	  390.76
     64.5700	  876.00	  866.71	-1764.96	  390.86
     64.6700	  956.00	  927.40	-1745.65	  390.96
     64.7700	 1005.00	  977.76	-1747.01	  391.06
     64.8700	 1034.00	 1008.66	-1748.91	  391.16
     64.9700	 1031.00	 1014.17	-1757.42	  391.27
     65.0700	 1038.00	  994.41	-1730.66	  391.37
     65.1700	  952.00	  954.93	-1777.18	  391.47
     65.2700	  943.00	  904.20	-1735.45	  391.57
     65.3700	  894.00	  850.61	-1730.86	  391.68
     65.4700	  786.00	  800.32	-1788.57	  391.78
     65.5700	  722.00	  756.02	-1808.27	  391.89
     65.6700	  683.00	  719.31	-1810.56	  391.99
     65.7700	  659.00	  688.97	-1804.22	  392.10
     65.8700	  619.00	  664.11	-1819.36	  392.20
     65.9700	  642.00	  643.74	-1775.99	  392.31
     66.0700	  612.00	  627.67	-1789.92	  392.41
     66.1700	  589.00	  615.24	-1800.49	  392.52
     66.2700	  598.00	  606.17	-1782.42	  392.63
     66.3700	  592.00	  600.06	-1782.31	  392.73
     66.4700	  574.00	  596.64	-1796.89	  392.84
     66.5700	  582.00	  595.69	-1787.94	  392.95
     66.6700	  606.00	  597.20	-1765.45	  393.06
     66.7700	  565.00	  601.09	-1810.34	  393.16
     66.8700	  615.00	  607.83	-1767.08	  393.27
     66.9700	  646.00	  618.31	-1746.56	  393.38
     67.0700	  623.00	  634.12	-1785.37	  393.49
     67.1700	  656.00	  657.86	-1776.11	  393.60
     67.2700	  715.00	  693.35	-1752.60	  393.70
     67.3700	  704.00	  745.69	-1815.94	  393.81
     67.4700	  788.00	  821.01	-1807.26	  393.92
     67.5700	  924.00	  925.52	-1775.77	  394.03
     67.6700	 1028.00	 1064.43	-1810.68	  394.14
     67.7700	 1215.00	 1240.03	-1799.28	  394.25
     67.8700	 1482.00	 1449.63	-1741.88	  394.35
     67.9700	 1604.00	 1683.77	-1854.02	  394.46
     68.0700	 1979.00	 1924.50	-1719.75	  394.57
     68.1700	 2218.00	 2144.27	-1700.52	  394.68
     68.2700	 2313.00	 2307.31	-1768.56	  394.79
     68.3700	 2346.00	 2378.28	-1806.53	  394.90
     68.4700	 2265.00	 2338.85	-1848.10	  395.01
     68.5700	 2175.00	 2199.45	-1798.70	  395.11
     68.6700	 1946.00	 1992.42	-1820.67	  395.22
     68.7700	 1777.00	 1754.74	-1751.99	  395.33
     68.8700	 1576.00	 1516.81	-1715.06	  395.44
     68.9700	 1272.00	 1299.24	-1801.49	  395.54
     69.0700	 1071.00	 1113.77	-1817.02	  395.65
     69.1700	  957.00	  964.80	-1782.05	  395.76
     69.2700	  866.00	  851.26	-1759.51	  395.87
     69.3700	  794.00	  768.63	-1748.88	  395.97
     69.4700	  701.00	  710.75	-1784.00	  396.08
     69.5700	  665.00	  671.35	-1780.60	  396.19
     69.6700	  615.00	  644.97	-1804.22	  396.29
     69.7700	  636.00	  627.32	-1765.57	  396.40
     69.8700	  631.00	  615.40	-1758.65	  396.50
     69.9700	  628.00	  607.24	-1753.49	  396.61
     70.0700	  593.00	  601.61	-1782.86	  396.71
     70.1700	  584.00	  597.77	-1788.02	  396.82
     70.2700	  578.00	  595.34	-1791.59	  396.92
     70.3700	  642.00	  593.95	-1726.20	  397.02
     70.4700	  609.00	  594.88	-1760.13	  397.13
     70.5700	  597.00	  596.10	-1773.35	  397.23
     70.6700	  570.00	  598.80	-1803.05	  397.33
     70.7700	  601.00	  603.45	-1776.70	  397.43
     70.8700	  600.00	  610.84	-1785.09	  397.54
     70.9700	  637.00	  622.22	-1759.47	  397.64
     71.0700	  610.00	  639.47	-1803.72	  397.74
     71.1700	  697.00	  665.18	-1742.43	  397.84
     71.2700	  643.00	  702.67	-1833.92	  397.94
     71.3700	  736.00	  755.79	-1794.04	  398.04
     71.4700	  787.00	  828.44	-1815.69	  398.14
     71.5700	  860.00	  923.85	-1838.10	  398.23
     71.6700	 1004.00	 1043.56	-1813.81	  398.33
     71.7700	 1169.00	 1186.29	-1791.54	  398.43
     71.8700	 1282.00	 1347.08	-1839.33	  398.52
     71.9700	 1483.00	 1516.15	-1807.40	  398.62
     72.0700	 1654.00	 1678.47	-1798.72	  398.71
     72.1700	 1784.00	 1813.61	-1803.86	  398.81
     72.2700	 1827.00	 1898.64	-1845.89	  398.90
     72.3700	 1855.00	 1915.58	-1834.83	  398.99
     72.4700	 1778.00	 1860.43	-1856.68	  399.09
     72.5700	 1730.00	 1745.60	-1789.85	  399.18
     72.6700	 1574.00	 1592.90	-1793.15	  399.27
     72.7700	 1485.00	 1424.55	-1713.80	  399.36
     72.8700	 1295.00	 1258.11	-1737.36	  399.45
     72.9700	 1142.00	 1105.70	-1737.95	  399.54
     73.0700	 1008.00	  974.30	-1740.55	  399.62
     73.1700	  873.00	  866.73	-1767.98	  399.71
     73.2700	  755.00	  782.56	-1801.81	  399.80
     73.3700	  808.00	  719.25	-1685.50	  399.88
     73.4700	  712.00	  673.16	-1735.41	  399.97
     73.5700	  689.00	  640.43	-1725.68	  400.05
     73.6700	  659.00	  617.51	-1732.76	  400.13
     73.7700	  696.00	  601.51	-1679.76	  400.21
     73.8700	  660.00	  590.28	-1704.53	  400.30
     73.9700	  607.00	  582.30	-1749.55	  400.38
     74.0700	  614.00	  576.58	-1736.83	  400.45
     74.1700	  631.00	  572.50	-1715.75	  400.53
     74.2700	  588.00	  569.12	-1755.37	  400.61
     74.3700	  633.00	  567.24	-1708.49	  400.69
     74.4700	  609.00	  566.10	-1731.35	  400.76
     74.5700	  602.00	  565.51	-1737.76	  400.84
     74.6700	  640.00	  565.25	-1699.50	  400.91
     74.7700	  623.00	  565.06	-1716.31	  400.98
     74.8700	  642.00	  564.70	-1696.95	  401.05
     74.9700	  657.00	  563.94	-1681.19	  401.12
     75.0700	  663.00	  562.71	-1673.96	  401.19
     75.1700	  683.00	  561.10	-1652.35	  401.26
     75.2700	  699.00	  559.37	-1634.62	  401.33
     75.3700	  672.00	  557.85	-1660.10	  401.39
     75.4700	  579.00	  556.88	-1752.13	  401.46
     75.5700	  644.00	  556.83	-1687.08	  401.52
     75.6700	  578.00	  558.10	-1754.35	  401.58
     75.7700	  609.00	  561.10	-1726.35	  401.64
     75.8700	  580.00	  566.28	-1760.53	  401.70
     75.9700	  615.00	  574.01	-1733.26	  401.76
     76.0700	  606.00	  584.63	-1752.88	  401.82
     76.1700	  570.00	  598.24	-1802.49	  401.88
     76.2700	  654.00	  614.68	-1734.93	  401.93
     76.3700	  634.00	  633.55	-1773.80	  401.99
     76.4700	  677.00	  653.85	-1751.10	  402.04
     76.5700	  693.00	  674.15	-1755.40	  402.09
     76.6700	  696.00	  692.49	-1770.74	  402.14
     76.7700	  715.00	  706.48	-1765.73	  402.19
     76.8700	  719.00	  713.69	-1768.94	  402.24
     76.9700	  725.00	  712.85	-1762.10	  402.28
     77.0700	  721.00	  703.97	-1757.22	  402.33
     77.1700	  665.00	  688.67	-1797.92	  402.37
     77.2700	  693.00	  669.33	-1750.58	  402.42
     77.3700	  656.00	  648.27	-1766.52	  402.46
     77.4700	  539.00	  627.38	-1862.63	  402.50
     77.5700	  577.00	  607.99	-1805.24	  402.54
     77.6700	  574.00	  590.94	-1791.19	  402.57
     77.7700	  574.00	  576.63	-1776.88	  402.61
     77.8700	  550.00	  565.12	-1789.37	  402.64
     77.9700	  534.00	  556.21	-1796.46	  402.67
     78.0700	  535.00	  549.48	-1788.73	  402.71
     78.1700	  512.00	  544.61	-1806.86	  402.74
     78.2700	  562.00	  541.14	-1753.39	  402.76
     78.3700	  515.00	  538.70	-1797.95	  402.79
     78.4700	  549.00	  536.76	-1762.01	  402.82
     78.5700	  499.00	  535.56	-1810.81	  402.84
     78.6700	  543.00	  534.72	-1765.97	  402.86
     78.7700	  479.00	  534.13	-1829.38	  402.88
     78.8700	  516.00	  533.73	-1791.98	  402.90
     78.9700	  547.00	  533.49	-1760.74	  402.92
     79.0700	  488.00	  533.39	-1819.64	  402.94
     79.1700	  509.00	  533.44	-1798.69	  402.95
     79.2700	  548.00	  533.64	-1759.89	  402.97
     79.3700	  507.00	  534.02	-1801.27	  402.98
     79.4700	  507.00	  534.60	-1801.85	  402.99
     79.5700	  543.00	  535.43	-1766.68	  403.00
     79.6700	  523.00	  536.54	-1787.79	  403.00
     79.7700	  539.00	  538.01	-1773.26	  403.01
     79.8700	  527.00	  539.89	-1787.14	  403.01
     79.9700	  518.00	  542.28	-1798.53	  403.01
     80.0700	  573.00	  545.27	-1746.52	  403.01
     80.1700	  589.00	  548.99	-1734.24	  403.01
     80.2700	  517.00	  553.56	-1810.81	  403.01
     80.3700	  546.00	  559.12	-1787.37	  403.00
     80.4700	  569.00	  565.79	-1771.04	  403.00
     80.5700	  545.00	  573.71	-1802.96	  402.99
     80.6700	  552.00	  583.03	-1805.28	  402.98
     80.7700	  603.00	  593.81	-1765.06	  402.97
     80.8700	  653.00	  606.01	-1727.26	  402.95
     80.9700	  582.00	  619.20	-1811.45	  402.94
     81.0700	  629.00	  633.33	-1778.58	  402.92
     81.1700	  646.00	  647.54	-1775.79	  402.90
     81.2700	  696.00	  661.08	-1739.33	  402.88
     81.3700	  669.00	  673.25	-1778.50	  402.86
     81.4700	  737.00	  683.58	-1720.83	  402.84
     81.5700	  737.00	  691.78	-1729.03	  402.81
     81.6700	  762.00	  697.68	-1709.93	  402.79
     81.7700	  734.00	  701.21	-1741.46	  402.76
     81.8700	  730.00	  702.26	-1746.51	  402.73
     81.9700	  799.00	  700.69	-1675.94	  402.69
     82.0700	  736.00	  696.33	-1734.58	  402.66
     82.1700	  775.00	  689.21	-1688.46	  402.62
     82.2700	  667.00	  679.72	-1786.97	  402.58
     82.3700	  704.00	  668.48	-1738.73	  402.54
     82.4700	  677.00	  656.16	-1753.41	  402.50
     82.5700	  694.00	  643.28	-1723.53	  402.46
     82.6700	  644.00	  630.22	-1760.47	  402.41
     82.7700	  632.00	  617.35	-1759.60	  402.36
     82.8700	  625.00	  605.05	-1754.30	  402.31
     82.9700	  607.00	  593.76	-1761.01	  402.26
     83.0700	  548.00	  583.84	-1810.09	  402.21
     83.1700	  572.00	  575.56	-1777.81	  402.15
     83.2700	  570.00	  569.09	-1773.34	  402.10
     83.3700	  562.00	  564.47	-1776.72	  402.04
     83.4700	  575.00	  561.66	-1760.91	  401.98
     83.5700	  569.00	  560.54	-1765.79	  401.91
     83.6700	  534.00	  560.92	-1801.17	  401.85
     83.7700	  570.00	  562.53	-1766.78	  401.78
     83.8700	  550.00	  565.03	-1789.28	  401.71
     83.9700	  557.00	  568.02	-1785.27	  401.64
     84.0700	  592.00	  571.04	-1753.29	  401.57
     84.1700	  551.00	  573.57	-1796.82	  401.49
     84.2700	  586.00	  575.12	-1763.37	  401.42
     84.3700	  555.00	  575.23	-1794.48	  401.34
     84.4700	  566.00	  573.86	-1782.11	  401.26
     84.5700	  557.00	  571.12	-1788.37	  401.17
     84.6700	  560.00	  567.29	-1781.54	  401.09
     84.7700	  589.00	  562.78	-1748.03	  401.00
     84.8700	  549.00	  557.98	-1783.23	  400.91
     84.9700	  608.00	  553.23	-1719.48	  400.82
     85.0700	  556.00	  548.77	-1767.02	  400.73
     85.1700	  525.00	  544.79	-1794.04	  400.64
     85.2700	  550.00	  541.38	-1765.63	  400.54
     85.3700	  499.00	  538.60	-1813.85	  400.44
     85.4700	  536.00	  536.43	-1774.68	  400.34
     85.5700	  522.00	  534.84	-1787.09	  400.24
     85.6700	  524.00	  533.77	-1784.02	  400.13
     85.7700	  549.00	  533.15	-1758.40	  400.03
     85.8700	  526.00	  532.97	-1781.22	  399.92
     85.9700	  529.00	  533.18	-1778.43	  399.81
     86.0700	  518.00	  533.78	-1790.03	  399.69
     86.1700	  526.00	  534.79	-1783.04	  399.58
     86.2700	  518.00	  536.27	-1792.52	  399.46
     86.3700	  527.00	  538.30	-1785.55	  399.34
     86.4700	  564.00	  541.00	-1751.25	  399.22
     86.5700	  522.00	  544.49	-1796.74	  399.10
     86.6700	  542.00	  548.92	-1781.17	  398.97
     86.7700	  547.00	  554.42	-1781.67	  398.84
     86.8700	  558.00	  561.10	-1777.35	  398.71
     86.9700	  539.00	  569.04	-1804.29	  398.58
     87.0700	  542.00	  578.21	-1810.46	  398.45
     87.1700	  626.00	  588.51	-1736.76	  398.31
     87.2700	  609.00	  599.67	-1764.92	  398.17
     87.3700	  649.00	  611.28	-1736.53	  398.03
     87.4700	  590.00	  622.75	-1807.00	  397.89
     87.5700	  610.00	  633.34	-1797.59	  397.75
     87.6700	  601.00	  642.17	-1815.42	  397.60
     87.7700	  662.00	  648.34	-1760.59	  397.45
     87.8700	  678.00	  651.13	-1747.38	  397.30
     87.9700	  654.00	  650.24	-1770.49	  397.15
     88.0700	  620.00	  645.90	-1800.15	  396.99
     88.1700	  641.00	  638.78	-1772.03	  396.84
     88.2700	  611.00	  629.80	-1793.05	  396.68
     88.3700	  606.00	  619.90	-1788.15	  396.52
     88.4700	  595.00	  609.97	-1789.22	  396.35
     88.5700	  616.00	  600.74	-1758.99	  396.19
     88.6700	  601.00	  592.79	-1766.04	  396.02
     88.7700	  555.00	  586.51	-1805.76	  395.85
     88.8700	  542.00	  582.15	-1814.40	  395.68
     88.9700	  570.00	  579.34	-1783.59	  395.51
     89.0700	  566.00	  578.85	-1787.10	  395.33
     89.1700	  624.00	  579.99	-1730.24	  395.15
     89.2700	  612.00	  582.41	-1744.66	  394.97
     89.3700	  612.00	  585.65	-1747.90	  394.79
     89.4700	  569.00	  589.16	-1794.41	  394.61
     89.5700	  514.00	  592.35	-1852.60	  394.42
     89.6700	  609.00	  594.63	-1759.88	  394.23
     89.7700	  593.00	  595.48	-1776.73	  394.04
     89.8700	  571.00	  594.62	-1797.87	  393.85
     89.9700	  615.00	  592.01	-1751.26	  393.66
     90.0700	  585.00	  587.89	-1777.14	  393.46
     90.1700	  575.00	  582.63	-1781.88	  393.26
     90.2700	  527.00	  576.69	-1823.94	  393.06
     90.3700	  562.00	  570.47	-1782.72	  392.86
     90.4700	  537.00	  564.34	-1801.59	  392.65
     90.5700	  561.00	  558.56	-1771.81	  392.44
     90.6700	  549.00	  553.34	-1778.59	  392.24
     90.7700	  525.00	  548.79	-1798.04	  392.02
     90.8700	  524.00	  544.98	-1795.23	  391.81
     90.9700	  544.00	  541.92	-1772.17	  391.60
     91.0700	  491.00	  539.59	-1822.84	  391.38
     91.1700	  488.00	  537.92	-1824.17	  391.16
     91.2700	  539.00	  536.86	-1772.11	  390.94
     91.3700	  499.00	  536.35	-1811.60	  390.72
     91.4700	  469.00	  536.36	-1841.61	  390.49
     91.5700	  545.00	  536.87	-1766.12	  390.26
     91.6700	  494.00	  537.91	-1818.16	  390.03
     91.7700	  524.00	  539.51	-1789.76	  389.80
     91.8700	  553.00	  541.78	-1763.03	  389.57
     91.9700	  529.00	  544.83	-1790.08	  389.33
     92.0700	  549.00	  548.79	-1774.04	  389.10
     92.1700	  532.00	  553.85	-1796.10	  388.86
     92.2700	  579.00	  560.16	-1755.41	  388.62
     92.3700	  551.00	  567.89	-1791.14	  388.37
     92.4700	  567.00	  577.17	-1784.42	  388.13
     92.5700	  556.00	  588.09	-1806.34	  387.88
     92.6700	  567.00	  600.66	-1807.91	  387.63
     92.7700	  608.00	  614.82	-1781.07	  387.38
     92.8700	  591.00	  630.43	-1813.68	  387.13
     92.9700	  620.00	  647.23	-1801.48	  386.87
     93.0700	  666.00	  664.82	-1773.07	  386.62
     93.1700	  699.00	  682.72	-1757.97	  386.36
     93.2700	  666.00	  700.34	-1808.59	  386.10
     93.3700	  718.00	  717.08	-1773.33	  385.83
     93.4700	  676.00	  732.42	-1830.67	  385.57
     93.5700	  792.00	  746.12	-1728.37	  385.30
     93.6700	  820.00	  758.29	-1712.54	  385.03
     93.7700	  727.00	  769.34	-1816.59	  384.76
     93.8700	  829.00	  779.83	-1725.08	  384.49
     93.9700	  770.00	  790.26	-1794.51	  384.22
     94.0700	  786.00	  800.99	-1789.24	  383.94
     94.1700	  790.00	  812.16	-1796.41	  383.67
     94.2700	  805.00	  823.46	-1792.71	  383.39
     94.3700	  838.00	  835.44	-1771.69	  383.11
     94.4700	  827.00	  847.71	-1794.96	  382.82
     94.5700	  892.00	  860.24	-1742.49	  382.54
     94.6700	  895.00	  872.89	-1752.14	  382.25
     94.7700	  844.00	  885.31	-1815.56	  381.96
     94.8700	  914.00	  896.82	-1757.07	  381.67
     94.9700	  898.00	  906.41	-1782.66	  381.38
     95.0700	  935.00	  912.81	-1752.06	  381.09
     95.1700	  864.00	  914.72	-1824.97	  380.79
     95.2700	  923.00	  911.06	-1762.31	  380.50
     95.3700	  915.00	  901.37	-1760.62	  380.20
     95.4700	  874.00	  885.95	-1786.20	  379.90
     95.5700	  780.00	  865.81	-1860.06	  379.60
     95.6700	  798.00	  842.48	-1818.73	  379.29
     95.7700	  888.00	  817.66	-1703.91	  378.99
     95.8700	  743.00	  793.07	-1824.32	  378.68
     95.9700	  791.00	  770.34	-1753.59	  378.37
     96.0700	  735.00	  750.94	-1790.19	  378.06
     96.1700	  694.00	  736.21	-1816.46	  377.75
     96.2700	  700.00	  727.30	-1801.55	  377.44
     96.3700	  736.00	  725.27	-1763.52	  377.12
     96.4700	  721.00	  730.99	-1784.24	  376.80
     96.5700	  749.00	  745.17	-1770.42	  376.49
     96.6700	  764.00	  768.34	-1778.59	  376.17
     96.7700	  802.00	  800.80	-1773.05	  375.85
     96.8700	  766.00	  842.58	-1850.83	  375.52
     96.9700	  875.00	  893.36	-1792.61	  375.20
     97.0700	  905.00	  952.43	-1821.68	  374.87
     97.1700	  953.00	 1018.60	-1839.85	  374.55
     97.2700	 1090.00	 1090.21	-1774.46	  374.22
     97.3700	 1173.00	 1164.97	-1766.22	  373.89
     97.4700	 1275.00	 1240.05	-1739.30	  373.56
     97.5700	 1341.00	 1312.00	-1745.25	  373.22
     97.6700	 1411.00	 1376.92	-1740.17	  372.89
     97.7700	 1397.00	 1430.66	-1807.91	  372.56
     97.8700	 1379.00	 1469.27	-1864.52	  372.22
     97.9700	 1471.00	 1489.71	-1792.96	  371.88
     98.0700	 1451.00	 1490.51	-1813.76	  371.54
     98.1700	 1402.00	 1472.11	-1844.36	  371.20
     98.2700	 1382.00	 1436.68	-1828.93	  370.86
     98.3700	 1356.00	 1387.61	-1805.86	  370.52
     98.4700	 1332.00	 1328.87	-1771.12	  370.17
     98.5700	 1258.00	 1264.51	-1780.76	  369.83
     98.6700	 1149.00	 1198.29	-1823.54	  369.48
     98.7700	 1126.00	 1133.57	-1781.82	  369.13
     98.8700	 1031.00	 1073.21	-1816.46	  368.78
     98.9700	 1029.00	 1019.62	-1764.87	  368.43
     99.0700	 1050.00	  974.70	-1698.95	  368.08
     99.1700	  883.00	  939.97	-1831.22	  367.73
     99.2700	  879.00	  916.55	-1811.80	  367.37
     99.3700	  898.00	  905.29	-1781.54	  367.02
     99.4700	  915.00	  906.72	-1765.97	  366.66
     99.5700	  886.00	  921.10	-1809.35	  366.31
     99.6700	  960.00	  948.40	-1762.65	  365.95
     99.7700	  995.00	  988.34	-1767.59	  365.59
     99.8700	 1062.00	 1040.39	-1752.64	  365.23
     99.9700	 1165.00	 1103.67	-1712.92	  364.87
    100.0700	 1157.00	 1176.97	-1794.22	  364.51
    100.1700	 1285.00	 1258.66	-1747.91	  364.15
    100.2700	 1248.00	 1346.68	-1872.93	  363.78
    100.3700	 1482.00	 1438.47	-1730.72	  363.42
    100.4700	 1662.00	 1530.97	-1643.22	  363.06
    100.5700	 1679.00	 1620.80	-1716.05	  362.69
    100.6700	 1708.00	 1704.60	-1770.85	  362.32
    100.7700	 1823.00	 1779.26	-1730.51	  361.96
    100.8700	 1860.00	 1842.39	-1756.64	  361.59
    100.9700	 1903.00	 1892.39	-1763.64	  361.22
    101.0700	 1908.00	 1928.35	-1794.60	  360.85
    101.1700	 1878.00	 1949.70	-1845.95	  360.48
    101.2700	 1977.00	 1955.93	-1753.18	  360.11
    101.3700	 2003.00	 1946.61	-1717.86	  359.74
    101.4700	 1986.00	 1921.66	-1709.91	  359.37
    101.5700	 1904.00	 1881.77	-1752.02	  359.00
    101.6700	 1831.00	 1828.68	-1771.93	  358.62
    101.7700	 1802.00	 1765.23	-1737.48	  358.25
    101.8700	 1700.00	 1695.01	-1769.26	  357.88
    101.9700	 1602.00	 1621.83	-1794.08	  357.50
    102.0700	 1538.00	 1549.25	-1785.50	  357.13
    102.1700	 1475.00	 1480.21	-1779.46	  356.75
    102.2700	 1351.00	 1416.89	-1840.14	  356.38
    102.3700	 1437.00	 1360.63	-1697.88	  356.00
    102.4700	 1304.00	 1312.04	-1782.29	  355.62
    102.5700	 1254.00	 1270.96	-1791.21	  355.25
    102.6700	 1195.00	 1236.57	-1815.82	  354.87
    102.7700	 1212.00	 1207.51	-1769.76	  354.49
    102.8700	 1126.00	 1181.97	-1830.22	  354.12
    102.9700	 1111.00	 1157.92	-1821.17	  353.74
    103.0700	 1083.00	 1133.38	-1824.63	  353.36
    103.1700	 1120.00	 1106.71	-1760.96	  352.99
    103.2700	 1053.00	 1076.88	-1798.13	  352.61
    103.3700	 1030.00	 1043.51	-1787.76	  352.23
    103.4700	 1013.00	 1006.91	-1768.16	  351.85
    103.5700	  989.00	  967.78	-1753.03	  351.47
    103.6700	  949.00	  927.10	-1752.35	  351.10
    103.7700	  897.00	  885.90	-1763.15	  350.72
    103.8700	  847.00	  845.13	-1772.38	  350.34
    103.9700	  862.00	  805.69	-1717.94	  349.96
    104.0700	  756.00	  768.27	-1786.52	  349.59
    104.1700	  771.00	  733.47	-1736.72	  349.21
    104.2700	  725.00	  701.70	-1750.95	  348.83
    104.3700	  679.00	  673.21	-1768.46	  348.46
    104.4700	  694.00	  648.12	-1728.37	  348.08
    104.5700	  640.00	  626.40	-1760.65	  347.70
    104.6700	  668.00	  607.94	-1714.19	  347.33
    104.7700	  628.00	  592.50	-1738.75	  346.95
    104.8700	  594.00	  579.84	-1760.09	  346.58
    104.9700	  581.00	  569.64	-1762.89	  346.20
    105.0700	  565.00	  561.61	-1770.86	  345.83
    105.1700	  598.00	  555.45	-1731.70	  345.46
    105.2700	  579.00	  550.90	-1746.15	  345.08
    105.3700	  570.00	  547.73	-1751.98	  344.71
    105.4700	  514.00	  545.73	-1805.98	  344.34
    105.5700	  567.00	  544.77	-1752.02	  343.97
    105.6700	  561.00	  544.72	-1757.97	  343.60
    105.7700	  536.00	  545.52	-1783.77	  343.23
    105.8700	  522.00	  547.11	-1799.36	  342.86
    105.9700	  572.00	  549.48	-1751.73	  342.49
    106.0700	  529.00	  552.63	-1797.88	  342.13
    106.1700	  541.00	  556.55	-1789.80	  341.76
    106.2700	  580.00	  561.32	-1755.57	  341.39
    106.3700	  524.00	  566.94	-1817.19	  341.03
    106.4700	  593.00	  573.45	-1754.70	  340.67
    106.5700	  615.00	  580.85	-1740.10	  340.30
    106.6700	  579.00	  589.13	-1784.38	  339.94
    106.7700	  632.00	  598.21	-1740.46	  339.58
    106.8700	  619.00	  608.01	-1763.26	  339.22
    106.9700	  649.00	  618.36	-1743.61	  338.87
    107.0700	  610.00	  629.04	-1793.29	  338.51
    107.1700	  685.00	  639.79	-1729.04	  338.15
    107.2700	  652.00	  650.29	-1772.54	  337.80
    107.3700	  691.00	  660.21	-1743.46	  337.45
    107.4700	  685.00	  669.16	-1758.41	  337.10
    107.5700	  658.00	  676.80	-1793.05	  336.75
    107.6700	  694.00	  682.83	-1763.08	  336.40
    107.7700	  645.00	  687.06	-1816.31	  336.05
    107.8700	  721.00	  689.46	-1742.71	  335.71
    107.9700	  648.00	  690.19	-1816.44	  335.36
    108.0700	  704.00	  689.54	-1759.79	  335.02
    108.1700	  686.00	  687.89	-1776.14	  334.68
    108.2700	  634.00	  685.66	-1825.91	  334.34
    108.3700	  661.00	  683.30	-1796.55	  334.00
    108.4700	  675.00	  681.17	-1780.42	  333.67
    108.5700	  711.00	  679.54	-1742.79	  333.34
    108.6700	  687.00	  678.63	-1765.88	  333.00
    108.7700	  679.00	  678.52	-1773.77	  332.67
    108.8700	  686.00	  679.21	-1767.46	  332.35
    108.9700	  705.00	  680.59	-1749.84	  332.02
    109.0700	  662.00	  682.45	-1794.70	  331.70
    109.1700	  707.00	  684.51	-1751.76	  331.38
    109.2700	  701.00	  686.39	-1759.64	  331.06
    109.3700	  712.00	  687.70	-1749.95	  330.74
    109.4700	  675.00	  688.02	-1787.27	  330.43
    109.5700	  691.00	  687.00	-1770.25	  330.11
    109.6700	  743.00	  684.39	-1715.64	  329.80
    109.7700	  654.00	  680.07	-1800.32	  329.50
    109.8700	  688.00	  674.08	-1760.33	  329.19
    109.9700	  724.00	  666.60	-1716.85	  328.89
    110.0700	  726.00	  657.88	-1706.13	  328.59
    110.1700	  691.00	  648.25	-1731.50	  328.29
    110.2700	  627.00	  638.05	-1785.30	  328.00
    110.3700	  619.00	  627.59	-1782.84	  327.70
    110.4700	  624.00	  617.20	-1767.45	  327.41
    110.5700	  618.00	  607.11	-1763.36	  327.13
    110.6700	  674.00	  597.56	-1697.81	  326.84
    110.7700	  605.00	  588.72	-1757.97	  326.56
    110.8700	  629.00	  580.75	-1726.00	  326.28
    110.9700	  587.00	  573.72	-1760.97	  326.01
    111.0700	  635.00	  567.71	-1706.96	  325.74
    111.1700	  573.00	  562.73	-1763.98	  325.47
    111.2700	  577.00	  558.77	-1756.02	  325.20
    111.3700	  503.00	  555.79	-1827.04	  324.94
    111.4700	  574.00	  553.74	-1753.99	  324.68
    111.5700	  560.00	  552.54	-1766.79	  324.42
    111.6700	  558.00	  552.10	-1768.35	  324.17
    111.7700	  557.00	  552.33	-1769.58	  323.92
    111.8700	  576.00	  553.15	-1751.40	  323.68
    111.9700	  586.00	  554.46	-1742.71	  323.43
    112.0700	  563.00	  556.17	-1767.42	  323.19
    112.1700	  525.00	  558.20	-1807.45	  322.96
    112.2700	  500.00	  560.50	-1834.75	  322.73
    112.3700	  528.00	  563.00	-1809.25	  322.50
    112.4700	  551.00	  565.67	-1788.92	  322.28
    112.5700	  583.00	  568.49	-1759.74	  322.06
    112.6700	  534.00	  571.46	-1811.71	  321.84
    112.7700	  554.00	  574.62	-1794.87	  321.63
    112.8700	  600.00	  578.00	-1752.25	  321.42
    112.9700	  582.00	  581.66	-1773.91	  321.22
    113.0700	  604.00	  585.68	-1755.93	  321.02
    113.1700	  573.00	  590.15	-1791.40	  320.82
    113.2700	  644.00	  595.17	-1725.43	  320.63
    113.3700	  618.00	  600.90	-1757.15	  320.44
    113.4700	  590.00	  607.49	-1791.74	  320.26
    113.5700	  619.00	  615.16	-1770.41	  320.08
    113.6700	  624.00	  624.16	-1774.41	  319.90
    113.7700	  625.00	  634.82	-1784.07	  319.74
    113.8700	  681.00	  647.53	-1740.78	  319.57
    113.9700	  718.00	  662.81	-1719.06	  319.41
    114.0700	  648.00	  681.26	-1807.51	  319.25
    114.1700	  702.00	  703.64	-1775.89	  319.10
    114.2700	  742.00	  730.83	-1763.08	  318.96
    114.3700	  770.00	  763.93	-1768.18	  318.82
    114.4700	  836.00	  804.17	-1742.42	  318.68
    114.5700	  779.00	  853.00	-1848.25	  318.55
    114.6700	  937.00	  912.04	-1749.29	  318.42
    114.7700	  997.00	  983.08	-1760.33	  318.30
    114.8700	 1066.00	 1068.09	-1776.34	  318.19
    114.9700	 1176.00	 1169.12	-1767.37	  318.08
    115.0700	 1346.00	 1288.26	-1716.51	  317.97
    115.1700	 1446.00	 1427.57	-1755.82	  317.87
    115.2700	 1671.00	 1589.00	-1692.25	  317.78
    115.3700	 1832.00	 1774.30	-1716.55	  317.69
    115.4700	 2069.00	 1984.81	-1690.06	  317.61
    115.5700	 2255.00	 2221.41	-1740.66	  317.53
    115.6700	 2564.00	 2484.30	-1694.55	  317.46
    115.7700	 2803.00	 2773.04	-1744.29	  317.39
    115.8700	 3117.00	 3086.35	-1743.60	  317.33
    115.9700	 3542.00	 3421.90	-1654.15	  317.28
    116.0700	 3770.00	 3776.37	-1780.62	  317.23
    116.1700	 4034.00	 4145.30	-1885.55	  317.19
    116.2700	 4524.00	 4523.31	-1773.56	  317.15
    116.3700	 4982.00	 4903.87	-1696.12	  317.12
    116.4700	 5008.00	 5279.27	-2045.52	  317.10
    116.5700	 5630.00	 5640.94	-1785.19	  317.08
    116.6700	 5980.00	 5979.38	-1773.63	  317.07
    116.7700	 6409.00	 6284.68	-1649.93	  317.07
    116.8700	 6513.00	 6546.75	-1808.00	  317.07
    116.9700	 6777.00	 6755.90	-1753.15	  317.08
    117.0700	 6742.00	 6903.71	-1935.96	  317.09
    117.1700	 7097.00	 6983.89	-1661.14	  317.12
    117.2700	 6951.00	 6993.03	-1816.28	  317.15
    117.3700	 6919.00	 6931.00	-1786.25	  317.18
    117.4700	 6753.00	 6801.00	-1822.25	  317.23
    117.5700	 6518.00	 6609.15	-1865.40	  317.28
    117.6700	 6175.00	 6363.73	-1962.98	  317.33
    117.7700	 5912.00	 6074.25	-1936.50	  317.40
    117.8700	 5486.00	 5750.69	-2038.94	  317.47
    117.9700	 5413.00	 5403.00	-1764.25	  317.55
    118.0700	 4947.00	 5040.54	-1867.79	  317.64
    118.1700	 4679.00	 4671.87	-1767.12	  317.73
    118.2700	 4332.00	 4304.48	-1746.73	  317.83
    118.3700	 4036.00	 3944.76	-1683.01	  317.94
    118.4700	 3679.00	 3598.13	-1693.38	  318.06
    118.5700	 3513.00	 3268.85	-1530.10	  318.18
    118.6700	 3040.00	 2960.14	-1694.39	  318.31
    118.7700	 2765.00	 2674.14	-1683.39	  318.46
    118.8700	 2449.00	 2412.11	-1737.36	  318.60
    118.9700	 2194.00	 2174.57	-1754.82	  318.76
    119.0700	 1964.00	 1961.30	-1771.55	  318.93
    119.1700	 1804.00	 1771.61	-1741.86	  319.10
    119.2700	 1604.00	 1604.26	-1774.51	  319.28
    119.3700	 1459.00	 1457.74	-1772.99	  319.47
    119.4700	 1369.00	 1330.39	-1735.64	  319.67
    119.5700	 1212.00	 1220.37	-1782.62	  319.88
    119.6700	 1202.00	 1125.84	-1698.09	  320.09
    119.7700	 1087.00	 1044.95	-1732.20	  320.32
    119.8700	  992.00	  975.95	-1758.20	  320.55
    119.9700	  940.00	  917.24	-1751.49	  320.79
    120.0700	  872.00	  867.35	-1769.60	  321.04
    120.1700	  812.00	  824.97	-1787.22	  321.30
    120.2700	  834.00	  788.95	-1729.20	  321.57
    120.3700	  695.00	  758.31	-1837.56	  321.85
    120.4700	  657.00	  732.21	-1849.46	  322.14
    120.5700	  673.00	  709.96	-1811.21	  322.43
    120.6700	  726.00	  690.98	-1739.23	  322.74
    120.7700	  681.00	  674.79	-1768.04	  323.06
    120.8700	  640.00	  660.99	-1795.24	  323.38
    120.9700	  630.00	  649.26	-1793.51	  323.72
    121.0700	  592.00	  639.35	-1821.60	  324.06
    121.1700	  590.00	  631.04	-1815.29	  324.42
    121.2700	  574.00	  624.16	-1824.41	  324.78
    121.3700	  592.00	  618.56	-1800.81	  325.16
    121.4700	  605.00	  614.12	-1783.37	  325.55
    121.5700	  574.00	  610.73	-1810.98	  325.94
    121.6700	  612.00	  608.31	-1770.56	  326.35
    121.7700	  600.00	  606.79	-1781.04	  326.76
    121.8700	  590.00	  606.08	-1790.33	  327.19
    121.9700	  587.00	  606.11	-1793.36	  327.63
    122.0700	  597.00	  606.83	-1784.08	  328.08
    122.1700	  570.00	  608.16	-1812.41	  328.54
    122.2700	  574.00	  610.03	-1810.28	  329.00
    122.3700	  607.00	  612.36	-1779.61	  329.49
    122.4700	  612.00	  615.09	-1777.34	  329.98
    122.5700	  575.00	  618.13	-1817.38	  330.48
    122.6700	  666.00	  621.39	-1729.64	  330.99
    122.7700	  625.00	  624.77	-1774.02	  331.52
    122.8700	  607.00	  628.17	-1795.42	  332.06
    122.9700	  633.00	  631.49	-1772.74	  332.61
    123.0700	  621.00	  634.63	-1787.88	  333.17
    123.1700	  693.00	  637.48	-1718.73	  333.74
    123.2700	  700.00	  639.94	-1714.19	  334.32
    123.3700	  646.00	  641.93	-1770.18	  334.92
    123.4700	  649.00	  643.37	-1768.62	  335.52
    123.5700	  599.00	  644.23	-1819.48	  336.14
    123.6700	  615.00	  644.49	-1803.74	  336.77
    123.7700	  675.00	  644.14	-1743.39	  337.42
    123.8700	  632.00	  643.22	-1785.47	  338.07
    123.9700	  652.00	  641.78	-1764.03	  338.74
    124.0700	  642.00	  639.86	-1772.11	  339.42
    124.1700	  623.00	  637.56	-1788.81	  340.12
    124.2700	  677.00	  634.92	-1732.17	  340.82
    124.3700	  654.00	  632.02	-1752.27	  341.54
    124.4700	  665.00	  628.92	-1738.17	  342.28
    124.5700	  599.00	  625.71	-1800.96	  343.02
    124.6700	  592.00	  622.44	-1804.69	  343.78
    124.7700	  633.00	  619.17	-1760.42	  344.55
    124.8700	  652.00	  615.95	-1738.20	  345.34
    124.9700	  627.00	  451.82	-1599.07	  346.13
    125.0700	  593.00	  452.63	-1774.25	  346.95
    125.1700	  629.00	  453.46	-1774.25	  347.77
    125.2700	  557.00	  454.30	-1774.25	  348.61
    125.3700	  601.00	  455.15	-1774.25	  349.46
    125.4700	  628.00	  456.02	-1774.25	  350.33
    125.5700	  588.00	  456.90	-1774.25	  351.21
    125.6700	  553.00	  457.80	-1774.25	  352.11
    125.7700	  570.00	  458.71	-1774.25	  353.02
    125.8700	  569.00	  459.63	-1774.25	  353.94
    125.9700	  526.00	  460.57	-1774.25	  354.88
    126.0700	  552.00	  461.52	-1774.25	  355.83
    126.1700	  558.00	  462.49	-1774.25	  356.80
    126.2700	  557.00	  463.47	-1774.25	  357.78
    126.3700	  598.00	  464.47	-1774.25	  358.78
    126.4700	  597.00	  465.48	-1774.25	  359.79
    126.5700	  552.00	  466.51	-1774.25	  360.82
    126.6700	  598.00	  467.55	-1774.25	  361.86
    126.7700	  543.00	  468.61	-1774.25	  362.92
    126.8700	  586.00	  469.68	-1774.25	  363.99
    126.9700	  585.00	  470.77	-1774.25	  365.08
    127.0700	  567.00	  471.87	-1774.25	  366.18
    127.1700	  570.00	  472.99	-1774.25	  367.30
    127.2700	  511.00	  474.13	-1774.25	  368.44
    127.3700	  550.00	  475.28	-1774.25	  369.59
    127.4700	  593.00	  476.45	-1774.25	  370.76
    127.5700	  548.00	  477.63	-1774.25	  371.94
    127.6700	  576.00	  478.83	-1774.25	  373.14
    127.7700	  612.00	  480.05	-1774.25	  374.36
    127.8700	  607.00	  481.28	-1774.25	  375.59
    127.9700	  624.00	  482.53	-1774.25	  376.84
    128.0700	  624.00	  483.80	-1774.25	  378.11
    128.1700	  664.00	  485.08	-1774.25	  379.39
    128.2700	  678.00	  486.38	-1774.25	  380.69
    128.3700	  679.00	  487.70	-1774.25	  382.01
    128.4700	  679.00	  489.03	-1774.25	  383.35
    128.5700	    0.00	  490.39	-1774.25	  384.70
    128.6700	    0.00	  491.76	-1774.25	  386.07
     12.3539	        	        	        	        	       0	(  0  0  2)	  0  1
     24.9926	        	        	        	        	       0	(  0  0  4)	  0  1
     28.4150	        	        	        	        	       0	(  1  0  0)	  0  1
     29.1162	        	        	        	        	       0	(  1  0  1)	  0  1
     31.1336	        	        	        	        	       0	(  1  0  2)	  0  1
     34.2591	        	        	        	        	       0	(  1  0  3)	  0  1
     37.9516	        	        	        	        	       0	(  0  0  6)	  0  1
     38.2577	        	        	        	        	       0	(  1  0  4)	  0  1
     42.9329	        	        	        	        	       0	(  1  0  5)	  0  1
     48.1451	        	        	        	        	       0	(  1  0  6)	  0  1
     50.4288	        	        	        	        	       0	(  1  1  0)	  0  1
     51.4404	        	        	        	        	       0	(  0  0  8)	  0  1
     52.1624	        	        	        	        	       0	(  1  1  2)	  0  1
     53.8068	        	        	        	        	       0	(  1  0  7)	  0  1
     57.1409	        	        	        	        	       0	(  1  1  4)	  0  1
     58.9590	        	        	        	        	       0	(  2  0  0)	  0  1
     59.3532	        	        	        	        	       0	(  2  0  1)	  0  1
     59.8719	        	        	        	        	       0	(  1  0  8)	  0  1
     60.5261	        	        	        	        	       0	(  2  0  2)	  0  1
     62.4518	        	        	        	        	       0	(  2  0  3)	  0  1
     64.8843	        	        	        	        	       0	(  1  1  6)	  0  1
     65.0932	        	        	        	        	       0	(  2  0  4)	  0  1
     65.7495	        	        	        	        	       0	(  0  0 10)	  0  1
     66.3270	        	        	        	        	       0	(  1  0  9)	  0  1
     68.4095	        	        	        	        	       0	(  2  0  5)	  0  1
     72.3638	        	        	        	        	       0	(  2  0  6)	  0  1
     73.1872	        	        	        	        	       0	(  1  0 10)	  0  1
     74.9895	        	        	        	        	       0	(  1  1  8)	  0  1
     76.9302	        	        	        	        	       0	(  2  0  7)	  0  1
     80.4958	        	        	        	        	       0	(  1  0 11)	  0  1
     81.3331	        	        	        	        	       0	(  0  0 12)	  0  1
     81.3037	        	        	        	        	       0	(  2  1  0)	  0  1
     81.6462	        	        	        	        	       0	(  2  1  1)	  0  1
     82.0987	        	        	        	        	       0	(  2  0  8)	  0  1
     82.6720	        	        	        	        	       0	(  2  1  2)	  0  1
     84.3767	        	        	        	        	       0	(  2  1  3)	  0  1
     86.7555	        	        	        	        	       0	(  2  1  4)	  0  1
     87.3537	        	        	        	        	       0	(  1  1 10)	  0  1
     87.8825	        	        	        	        	       0	(  2  0  9)	  0  1
     88.3308	        	        	        	        	       0	(  1  0 12)	  0  1
     89.8067	        	        	        	        	       0	(  2  1  5)	  0  1
     93.5365	        	        	        	        	       0	(  2  1  6)	  0  1
     94.3254	        	        	        	        	       0	(  2  0 10)	  0  1
     95.2763	        	        	        	        	       0	(  3  0  0)	  0  1
     95.6168	        	        	        	        	       0	(  3  0  1)	  0  1
     96.6395	        	        	        	        	       0	(  3  0  2)	  0  1
     96.8192	        	        	        	        	       0	(  1  0 13)	  0  1
     97.9659	        	        	        	        	       0	(  2  1  7)	  0  1
     98.3489	        	        	        	        	       0	(  3  0  3)	  0  1
     99.0235	        	        	        	        	       0	(  0  0 14)	  0  1
    100.7553	        	        	        	        	       0	(  3  0  4)	  0  1
    101.5168	        	        	        	        	       0	(  2  0 11)	  0  1
    102.3626	        	        	        	        	       0	(  1  1 12)	  0  1
    103.1401	        	        	        	        	       0	(  2  1  8)	  0  1
    103.8787	        	        	        	        	       0	(  3  0  5)	  0  1
    106.1701	        	        	        	        	       0	(  1  0 14)	  0  1
    107.7560	        	        	        	        	       0	(  3  0  6)	  0  1
    109.1437	        	        	        	        	       0	(  2  1  9)	  0  1
    109.6191	        	        	        	        	       0	(  2  0 12)	  0  1
    112.4521	        	        	        	        	       0	(  3  0  7)	  0  1
    116.1302	        	        	        	        	       0	(  2  1 10)	  0  1
    116.7534	        	        	        	        	       0	(  1  0 15)	  0  1
    117.1916	        	        	        	        	       0	(  2  2  0)	  0  1
    118.0810	        	        	        	        	       0	(  3  0  8)	  0  1
    118.7280	        	        	        	        	       0	(  2  2  2)	  0  1
    118.9319	        	        	        	        	       0	(  2  0 13)	  0  1
    120.7957	        	        	        	        	       0	(  0  0 16)	  0  1
    121.4607	        	        	        	        	       0	(  1  1 14)	  0  1
    123.4851	        	        	        	        	       0	(  2  2  4)	  0  1
    124.3867	        	        	        	        	       0	(  2  1 11)	  0  1
    124.8479	        	        	        	        	       0	(  3  0  9)	  0  1
    125.3610	        	        	        	        	       0	(  3  1  0)	  0  1
    125.7783	        	        	        	        	       0	(  3  1  1)	  0  1
    127.0436	        	        	        	        	       0	(  3  1  2)	  0  1
    129.2013	        	        	        	        	       0	(  3  1  3)	  0  1
    129.3284	        	        	        	        	       0	(  1  0 16)	  0  1
    130.0686	        	        	        	        	       0	(  2  0 14)	  0  1
    132.0835	        	        	        	        	       0	(  2  2  6)	  0  1
    132.3399	        	        	        	        	       0	(  3  1  4)	  0  1
    133.1553	        	        	        	        	       0	(  3  0 10)	  0  1
    134.5120	        	        	        	        	       0	(  2  1 12)	  0  1
    136.6251	        	        	        	        	       0	(  3  1  5)	  0  1
    142.3829	        	        	        	        	       0	(  3  1  6)	  0  1
    143.9496	        	        	        	        	       0	(  3  0 11)	  0  1
    144.6511	        	        	        	        	       0	(  2  0 15)	  0  1
    146.0398	        	        	        	        	       0	(  1  0 17)	  0  1
    146.7469	        	        	        	        	       0	(  2  2  8)	  0  1
    148.1399	        	        	        	        	       0	(  2  1 13)	  0  1
    150.3726	        	        	        	        	       0	(  3  1  7)	  0  1
    151.3568	        	        	        	        	       0	(  1  1 16)	  0  1
    156.2328	        	        	        	        	       0	(  0  0 18)	  0  1
    160.9319	        	        	        	        	       0	(  3  0 12)	  0  1
    160.8426	        	        	        	        	       0	(  4  0  0)	  0  1
    161.9111	        	        	        	        	       0	(  4  0  1)	  0  1
    163.4267	        	        	        	        	       0	(  3  1  8)	  0  1
    165.5718	        	        	        	        	       0	(  4  0  2)	  0  1
    176.8432	        	        	        	        	       0	(  4  0  3)	  0  1
    178.7398	        	        	        	        	       0	(  2  0 16)	  0  1
